time,ax,ay,az,aT
16.839000,0.5527,0.7490,-4.8254,4.914
16.840000,0.5334,0.7118,-4.7090,4.792
16.840000,0.5477,0.6666,-4.5734,4.654
16.841000,0.4950,0.6660,-4.3755,4.454
16.841000,0.4548,0.6861,-4.1706,4.251
16.841000,0.4603,0.6981,-3.8534,3.943
16.842000,0.5164,0.7285,-3.5747,3.685
16.842000,0.5634,0.7720,-3.2221,3.361
16.842000,0.6195,0.8212,-2.9128,3.089
16.843000,0.6444,0.8160,-2.6251,2.824
16.843000,0.6664,0.8088,-2.3327,2.557
16.843000,0.6829,0.7900,-2.0906,2.337
16.843000,0.6488,0.7858,-1.8198,2.086
16.844000,0.6551,0.7557,-1.5492,1.844
16.844000,0.7043,0.7544,-1.2907,1.653
16.845000,0.7724,0.7632,-1.0945,1.542
16.850000,0.8065,0.7844,-0.7812,1.370
16.856000,0.8213,0.8397,-0.4990,1.276
16.860000,0.8360,0.8522,-0.2459,1.219
16.865000,0.8145,0.8290,-0.0262,1.162
16.870000,0.8214,0.7700,0.2004,1.144
16.876000,0.8114,0.7493,0.4748,1.202
16.879000,0.8685,0.7670,0.6364,1.322
16.884000,0.9105,0.8420,0.7431,1.446
16.890000,0.9611,0.9167,0.8763,1.591
16.895000,1.0613,1.0320,1.0431,1.811
16.904000,1.1269,1.1108,1.2339,2.006
16.905000,1.2203,1.2083,1.5155,2.290
16.961000,1.2597,1.2500,1.6727,2.439
16.962000,1.3574,1.2879,1.8755,2.649
16.963000,1.4582,1.2671,2.1715,2.906
16.963000,1.5358,1.2539,2.3525,3.077
16.963000,1.6405,1.1937,2.4092,3.150
16.963000,1.7768,1.1171,2.4157,3.200
16.964000,1.8705,1.0342,2.3531,3.179
16.964000,1.9958,0.9524,2.3004,3.191
16.964000,2.1006,0.9155,2.2027,3.178
16.964000,2.2474,0.8952,2.1029,3.205
16.965000,2.3953,0.8849,2.0875,3.298
16.965000,2.5470,0.8754,2.1729,3.460
16.970000,2.6641,0.9217,2.3472,3.668
16.978000,2.7903,1.0240,2.4786,3.870
16.979000,2.8250,1.1485,2.6077,4.012
16.984000,2.7275,1.2690,2.7300,4.062
16.993000,2.6655,1.2942,2.9481,4.180
16.995000,2.5958,1.3628,3.2260,4.359
16.999000,2.4707,1.4599,3.4846,4.514
17.004000,2.3235,1.6278,3.6378,4.613
17.055000,2.1396,1.8112,3.6905,4.634
17.056000,1.9238,1.9351,3.7025,4.599
17.057000,1.7476,1.9947,3.7671,4.607
17.057000,1.5562,1.9372,3.7623,4.509
17.057000,1.4669,1.7938,3.8123,4.461
17.058000,1.3594,1.6842,3.7452,4.326
17.058000,1.3867,1.5846,3.5803,4.154
17.058000,1.5552,1.4474,3.3348,3.954
17.059000,1.7378,1.3521,3.0734,3.781
17.059000,1.8800,1.2467,2.7127,3.528
17.059000,2.0654,1.1293,2.3676,3.339
17.064000,2.2061,1.0295,2.0643,3.192
17.069000,2.3312,0.9816,1.8508,3.134
17.075000,2.4771,1.0052,1.6743,3.154
17.078000,2.6758,1.1676,1.4985,3.282
17.083000,2.8648,1.3753,1.4455,3.491
17.091000,3.1045,1.6999,1.4958,3.842
17.094000,3.3355,2.0805,1.5890,4.240
17.097000,3.4406,2.4088,1.7848,4.563
17.102000,3.4563,2.6478,2.1303,4.847
17.162000,3.4044,2.8802,2.5940,5.159
17.163000,3.2307,3.0928,2.9839,5.376
17.163000,2.9496,3.2369,3.2138,5.432
17.163000,2.5272,3.3359,3.2409,5.293
17.164000,2.0658,3.3893,3.1827,5.088
17.164000,1.5957,3.3513,3.1378,4.860
17.164000,1.0910,3.2100,3.0892,4.587
17.165000,0.6046,3.0016,2.9699,4.266
17.165000,0.2340,2.7069,2.8496,3.937
17.165000,-0.0856,2.4726,2.6018,3.590
17.166000,-0.3409,2.2557,2.3468,3.273
17.166000,-0.4821,2.0519,2.0536,2.943
17.169000,-0.5551,1.8262,1.7875,2.615
17.174000,-0.6442,1.6215,1.4696,2.281
17.178000,-0.7516,1.4337,1.1311,1.975
17.183000,-0.8606,1.1707,0.8442,1.680
17.188000,-0.8637,0.9519,0.6065,1.421
17.192000,-0.8203,0.7760,0.3700,1.188
17.197000,-0.7692,0.6044,0.1110,0.985
17.202000,-0.6764,0.4834,-0.0390,0.832
17.208000,-0.5634,0.3323,-0.1998,0.684
17.212000,-0.4420,0.2341,-0.2517,0.560
17.218000,-0.3618,0.1653,-0.3675,0.542
17.278000,-0.2775,0.0946,-0.4153,0.508
17.279000,-0.1547,0.0488,-0.5105,0.536
17.280000,-0.0819,0.0585,-0.6293,0.637
17.280000,-0.0253,0.0638,-0.7429,0.746
17.280000,-0.0537,0.1058,-0.8230,0.832
17.280000,-0.1196,0.1314,-0.9459,0.962
17.281000,-0.1651,0.2027,-1.0019,1.035
17.281000,-0.2164,0.2555,-1.0509,1.103
17.281000,-0.2544,0.2671,-1.1073,1.167
17.282000,-0.3050,0.2717,-1.1903,1.258
17.282000,-0.2997,0.3163,-1.2352,1.310
17.282000,-0.3009,0.3480,-1.3518,1.428
17.282000,-0.4017,0.3503,-1.4970,1.589
17.293000,-0.5193,0.2964,-1.6225,1.729
17.294000,-0.6105,0.2012,-1.7858,1.898
17.297000,-0.6277,0.1192,-1.8909,1.996
17.302000,-0.6573,0.0746,-1.9666,2.075
17.308000,-0.6947,-0.0658,-2.0869,2.200
17.311000,-0.7000,-0.1831,-2.1915,2.308
17.317000,-0.6731,-0.2721,-2.3402,2.450
17.323000,-0.7457,-0.3610,-2.4899,2.624
17.326000,-0.7602,-0.4549,-2.6403,2.785
17.331000,-0.8307,-0.5362,-2.7440,2.917
17.335000,-0.8716,-0.5982,-2.8031,2.996
17.366000,-0.8679,-0.6622,-2.8468,3.049
17.367000,-0.9172,-0.7158,-2.8467,3.075
17.367000,-0.9527,-0.7525,-2.8098,3.061
17.368000,-0.9611,-0.7668,-2.6819,2.950
17.368000,-0.9547,-0.7955,-2.5444,2.832
17.368000,-0.9951,-0.8385,-2.4694,2.791
17.371000,-1.0481,-0.8909,-2.3471,2.720
17.378000,-1.1070,-0.9889,-2.2562,2.701
17.381000,-1.1590,-1.1007,-2.1637,2.690
17.385000,-1.2090,-1.2221,-2.0984,2.713
17.391000,-1.2617,-1.3500,-2.0603,2.768
17.395000,-1.2976,-1.5102,-1.9373,2.778
17.400000,-1.3411,-1.6241,-1.8559,2.807
17.407000,-1.3660,-1.7133,-1.7276,2.790
17.410000,-1.4655,-1.7367,-1.4784,2.711
17.415000,-1.5844,-1.7564,-1.3023,2.700
17.420000,-1.6771,-1.7627,-1.1611,2.696
17.482000,-1.7893,-1.8281,-1.0115,2.751
17.483000,-1.8948,-1.8633,-0.7914,2.773
17.483000,-2.0033,-1.8693,-0.5317,2.791
17.484000,-2.1028,-1.8720,-0.2614,2.827
17.484000,-2.1692,-1.7804,-0.1049,2.808
17.484000,-2.2219,-1.6646,0.0314,2.776
17.485000,-2.2759,-1.5815,0.0808,2.773
17.485000,-2.2981,-1.4765,0.1251,2.734
17.485000,-2.3679,-1.4138,0.1454,2.762
17.485000,-2.4116,-1.3501,0.1994,2.771
17.486000,-2.4800,-1.3192,0.2778,2.823
17.486000,-2.5252,-1.2227,0.3303,2.825
17.486000,-2.5407,-1.1799,0.3477,2.823
17.496000,-2.5031,-1.1268,0.4357,2.779
17.497000,-2.4870,-1.0174,0.4771,2.729
17.500000,-2.3852,-0.8928,0.4891,2.593
17.506000,-2.3059,-0.8409,0.5437,2.514
17.510000,-2.2039,-0.7546,0.5813,2.401
17.514000,-1.9591,-0.6573,0.6278,2.160
17.520000,-1.6740,-0.5713,0.7571,1.924
17.524000,-1.3813,-0.4870,0.8084,1.673
17.529000,-1.0681,-0.4096,0.8435,1.421
17.534000,-0.7766,-0.3585,0.8523,1.207
17.542000,-0.5637,-0.2887,0.9016,1.102
17.545000,-0.3688,-0.2286,0.9405,1.036
17.549000,-0.2682,-0.1016,0.9259,0.969
17.605000,-0.1395,0.0139,0.9770,0.987
17.606000,0.0292,0.1557,1.0221,1.034
17.606000,0.2523,0.2210,1.1065,1.156
17.606000,0.4723,0.2769,1.2087,1.327
17.606000,0.7061,0.3473,1.2424,1.471
17.606000,0.9372,0.4107,1.3151,1.666
17.607000,1.1197,0.5099,1.4008,1.864
17.607000,1.2603,0.5949,1.4951,2.044
17.607000,1.3490,0.6513,1.6246,2.210
17.608000,1.4483,0.7176,1.7698,2.397
17.608000,1.4624,0.8248,2.0146,2.622
17.609000,1.4676,0.9202,2.2275,2.822
17.616000,1.3702,1.0257,2.4662,3.002
17.619000,1.2512,1.0741,2.7430,3.200
17.625000,1.0510,1.0774,3.0193,3.374
17.629000,0.7917,1.0497,3.3597,3.608
17.634000,0.5259,0.9984,3.6635,3.833
17.643000,0.2706,0.9254,3.9858,4.101
17.644000,-0.0097,0.8450,4.1470,4.232
17.649000,-0.2693,0.7407,4.2354,4.308
17.709000,-0.4817,0.6028,4.2488,4.318
17.710000,-0.7044,0.4799,4.1512,4.238
17.711000,-0.9784,0.2954,4.1150,4.240
17.712000,-1.2826,0.0664,4.0353,4.235
17.713000,-1.5120,-0.2158,3.9001,4.189
17.714000,-1.7055,-0.5053,3.8220,4.216
17.715000,-1.8613,-0.7271,3.5644,4.086
17.716000,-2.0014,-0.8999,3.4241,4.067
17.717000,-2.0858,-0.9949,3.2865,4.018
17.718000,-2.0526,-0.9709,3.2257,3.945
17.720000,-2.0239,-0.9093,3.2295,3.918
17.721000,-1.9588,-0.7554,3.3242,3.932
17.722000,-1.8353,-0.6699,3.5118,4.019
17.724000,-1.7037,-0.5461,3.6656,4.079
17.725000,-1.5635,-0.4346,3.7570,4.092
17.729000,-1.4094,-0.2856,3.7044,3.974
17.733000,-1.3081,-0.1977,3.5654,3.803
17.738000,-1.1300,-0.1020,3.4715,3.652
17.744000,-0.9565,0.0352,3.3795,3.512
17.749000,-0.8232,0.1177,3.2895,3.393
17.753000,-0.6754,0.2315,3.1873,3.266
17.766000,-0.4730,0.3810,3.1883,3.246
17.770000,-0.2089,0.5060,3.2111,3.257
17.771000,0.0259,0.6706,3.2989,3.366
17.772000,0.1745,0.7664,3.4230,3.512
17.835000,0.2011,0.7717,3.5067,3.596
17.836000,0.1207,0.7769,3.5428,3.629
17.837000,-0.0348,0.7243,3.5669,3.640
17.837000,-0.2332,0.7144,3.5137,3.593
17.837000,-0.4499,0.6753,3.4450,3.539
17.837000,-0.6604,0.6499,3.4228,3.546
17.838000,-0.8523,0.4750,3.4086,3.546
17.838000,-1.1095,0.2056,3.4050,3.587
17.838000,-1.3744,-0.0795,3.2780,3.555
17.839000,-1.5755,-0.4285,3.0426,3.453
17.839000,-1.7447,-0.7571,2.7710,3.361
17.839000,-1.8972,-1.0463,2.4160,3.245
17.840000,-2.0510,-1.2884,2.0336,3.163
17.843000,-2.1354,-1.5434,1.7175,3.145
17.848000,-2.2323,-1.8298,1.3702,3.195
17.853000,-2.3804,-2.1639,1.0538,3.385
17.857000,-2.5405,-2.5120,0.7916,3.659
17.863000,-2.6003,-2.7990,0.4854,3.851
17.875000,-2.6670,-3.0008,0.2327,4.021
17.876000,-2.7809,-3.1888,0.0500,4.231
17.876000,-2.8720,-3.4005,-0.0731,4.452
17.881000,-2.9775,-3.5954,-0.0871,4.669
17.887000,-2.9797,-3.7033,0.0815,4.754
17.935000,-2.9975,-3.7443,0.3869,4.812
17.936000,-3.0260,-3.7998,0.6734,4.904
17.936000,-3.1228,-3.9105,1.0465,5.113
17.937000,-3.1640,-4.0959,1.5114,5.392
17.937000,-3.1949,-4.2895,1.9917,5.707
17.937000,-3.1374,-4.4981,2.3848,5.980
17.938000,-2.9771,-4.6819,2.7488,6.192
17.938000,-2.7369,-4.8907,2.9932,6.354
17.938000,-2.4383,-5.1107,3.1113,6.461
17.939000,-2.1708,-5.3676,3.0989,6.567
17.942000,-1.9587,-5.5493,2.9586,6.587
17.947000,-1.7048,-5.7408,2.7532,6.591
17.952000,-1.4096,-5.9248,2.4896,6.579
17.956000,-1.1816,-6.0575,2.2136,6.557
17.962000,-0.9153,-6.1658,1.9395,6.528
17.967000,-0.7361,-6.3036,1.7629,6.587
17.974000,-0.6480,-6.4881,1.6166,6.718
17.976000,-0.6010,-6.6322,1.4953,6.825
17.981000,-0.6108,-6.7436,1.3534,6.905
17.986000,-0.5887,-6.8097,1.1617,6.933
18.039000,-0.4654,-6.8060,0.9079,6.882
18.040000,-0.2594,-6.7760,0.7043,6.817
18.040000,0.1222,-6.7001,0.4764,6.718
18.041000,0.5989,-6.6239,0.3149,6.658
18.041000,1.0965,-6.4014,0.1906,6.497
18.041000,1.5003,-6.1714,-0.0065,6.351
18.042000,1.8224,-5.9296,-0.2356,6.208
18.042000,2.0580,-5.6780,-0.4583,6.057
18.043000,2.2719,-5.4341,-0.7249,5.934
18.043000,2.3995,-5.1640,-0.9228,5.769
18.043000,2.5140,-4.9204,-1.1212,5.638
18.045000,2.5846,-4.7134,-1.2696,5.523
18.050000,2.6965,-4.5597,-1.3318,5.462
18.055000,2.8227,-4.3447,-1.3651,5.358
18.060000,2.9635,-4.1071,-1.3764,5.248
18.066000,3.1257,-3.8927,-1.3680,5.176
18.071000,3.2336,-3.6518,-1.5074,5.105
18.075000,3.3067,-3.4852,-1.7131,5.101
18.080000,3.3478,-3.3808,-1.9064,5.126
18.086000,3.3413,-3.3076,-2.1376,5.165
18.090000,3.3187,-3.2557,-2.3331,5.202
18.095000,3.2209,-3.2011,-2.5792,5.222
18.100000,3.1797,-3.1554,-2.8642,5.317
18.169000,3.0828,-3.0919,-3.0807,5.344
18.170000,2.9136,-3.0534,-3.2145,5.305
18.170000,2.6840,-3.0086,-3.3518,5.243
18.171000,2.4439,-2.9288,-3.4209,5.124
18.171000,2.2032,-2.8713,-3.3596,4.938
18.172000,1.9349,-2.8220,-3.2922,4.748
18.172000,1.7157,-2.7639,-3.1757,4.546
18.172000,1.5069,-2.6591,-2.9859,4.273
18.173000,1.2744,-2.5534,-2.7561,3.967
18.173000,1.0612,-2.3321,-2.5101,3.587
18.173000,0.8692,-2.1751,-2.3193,3.296
18.174000,0.6989,-2.0468,-2.1191,3.028
18.174000,0.5336,-1.8925,-1.9069,2.739
18.174000,0.3870,-1.7871,-1.7827,2.554
18.175000,0.2163,-1.7807,-1.7487,2.505
18.179000,0.0446,-1.7636,-1.7854,2.510
18.185000,-0.0513,-1.7692,-1.8546,2.564
18.190000,-0.0575,-1.7159,-1.8796,2.546
18.194000,-0.0964,-1.6253,-1.9967,2.576
18.199000,-0.1054,-1.5667,-2.1247,2.642
18.206000,-0.1110,-1.5446,-2.2876,2.763
18.211000,-0.1559,-1.5614,-2.3922,2.861
18.214000,-0.1401,-1.6193,-2.4935,2.976
18.219000,-0.1260,-1.6844,-2.5558,3.064
18.255000,-0.0893,-1.7784,-2.6317,3.178
18.255000,-0.0202,-1.8341,-2.7788,3.330
18.256000,0.0144,-1.9087,-2.9041,3.475
18.256000,0.0006,-1.9322,-3.0293,3.593
18.256000,0.0030,-1.9044,-3.1976,3.722
18.256000,0.1200,-1.8369,-3.2804,3.762
18.257000,0.3227,-1.7170,-3.2635,3.702
18.259000,0.4936,-1.5329,-3.1400,3.529
18.264000,0.6321,-1.3680,-2.9003,3.268
18.268000,0.6805,-1.2154,-2.5898,2.941
18.274000,0.6844,-1.0730,-2.1462,2.495
18.279000,0.6985,-0.9008,-1.6482,2.004
18.283000,0.6941,-0.8214,-1.1674,1.587
18.289000,0.5849,-0.7731,-0.7965,1.255
18.295000,0.5166,-0.7659,-0.4802,1.041
18.298000,0.3747,-0.7183,-0.2712,0.854
18.333000,0.3361,-0.6588,-0.2197,0.772
18.334000,0.4247,-0.4700,-0.1987,0.664
18.334000,0.6095,-0.2519,-0.1060,0.668
18.334000,0.8886,-0.0402,-0.0923,0.894
18.334000,1.1376,0.1389,-0.0096,1.146
18.334000,1.3998,0.3406,0.0920,1.444
18.334000,1.6342,0.5097,0.2267,1.727
18.339000,1.8816,0.6223,0.4520,2.033
18.343000,2.1039,0.6946,0.6748,2.316
18.348000,2.2626,0.8079,0.8425,2.546
18.354000,2.4177,0.9523,0.9840,2.779
18.358000,2.4709,1.0867,1.1139,2.920
18.363000,2.4181,1.1899,1.2009,2.950
18.369000,2.3413,1.2977,1.2568,2.957
18.373000,2.2670,1.4297,1.1787,2.928
18.378000,2.1741,1.5646,1.1529,2.916
18.382000,2.2110,1.6950,1.1556,3.016
18.387000,2.2576,1.7755,1.2082,3.116
18.392000,2.2997,1.7820,1.2918,3.183
18.397000,2.2653,1.7356,1.3037,3.137
18.402000,2.2303,1.6726,1.3446,3.095
18.414000,2.2112,1.5975,1.3380,3.038
18.415000,2.1641,1.5205,1.3511,2.970
18.417000,2.1366,1.5258,1.3717,2.962
18.442000,2.0926,1.6231,1.4189,3.004
18.444000,2.0602,1.7651,1.5859,3.142
18.445000,2.0683,1.9087,1.8965,3.394
18.445000,2.1050,2.0564,2.2882,3.728
18.445000,2.0758,2.2100,2.7060,4.064
18.447000,2.0153,2.3522,3.0730,4.363
18.452000,1.9161,2.3488,3.3799,4.540
18.457000,1.7044,2.3617,3.6965,4.706
18.462000,1.5281,2.3575,3.9966,4.885
18.467000,1.3160,2.2923,4.1966,4.960
18.472000,1.1381,2.2592,4.2917,4.982
18.476000,1.0250,2.1959,4.4210,5.042
18.481000,1.0343,2.0802,4.4386,5.010
18.487000,1.1246,1.9822,4.4355,4.987
18.492000,1.3392,1.9352,4.4475,5.032
18.496000,1.6092,1.9655,4.3548,5.042
18.502000,1.8914,2.0039,4.2028,5.026
18.506000,2.1004,2.0525,4.0035,4.965
18.511000,2.2142,2.0542,3.8501,4.893
18.516000,2.2379,1.9155,3.6448,4.686
18.522000,2.1337,1.7273,3.3826,4.356
18.526000,1.9321,1.4897,3.1116,3.954
18.531000,1.6810,1.3082,2.8582,3.565
18.536000,1.4589,1.0844,2.5555,3.136
18.586000,1.2727,0.8546,2.3425,2.800
18.587000,1.0985,0.6260,2.1017,2.453
18.587000,0.9168,0.3892,1.7543,2.017
18.588000,0.7180,0.1466,1.4512,1.626
18.588000,0.4567,-0.0613,1.3000,1.379
18.588000,0.2071,-0.2508,1.3026,1.343
18.589000,0.0538,-0.3458,1.4229,1.465
18.589000,-0.0893,-0.3973,1.5269,1.580
18.589000,-0.2603,-0.4992,1.4976,1.600
18.590000,-0.4163,-0.6399,1.5052,1.688
18.591000,-0.6126,-0.8631,1.4137,1.766
18.597000,-0.8253,-1.1348,1.2327,1.868
18.602000,-1.0473,-1.3618,1.0485,2.013
18.607000,-1.2168,-1.5721,0.7965,2.142
18.611000,-1.2693,-1.7558,0.4456,2.212
18.617000,-1.1881,-1.9096,0.2059,2.258
18.621000,-1.1052,-2.0289,0.0274,2.311
18.626000,-0.9935,-2.1637,-0.0570,2.382
18.631000,-0.9743,-2.3837,-0.2652,2.589
18.636000,-0.9847,-2.5827,-0.5164,2.812
18.688000,-1.0708,-2.8323,-0.6308,3.093
18.689000,-1.1918,-3.1009,-0.7238,3.400
18.690000,-1.3284,-3.3525,-0.7187,3.677
18.690000,-1.4682,-3.5844,-0.7549,3.946
18.690000,-1.5921,-3.7577,-0.8277,4.164
18.691000,-1.7287,-3.9134,-0.9372,4.380
18.691000,-1.7724,-3.9768,-1.0884,4.488
18.691000,-1.7642,-4.0503,-1.2409,4.589
18.692000,-1.7474,-4.0170,-1.2221,4.548
18.692000,-1.7241,-3.9876,-1.2214,4.513
18.692000,-1.6410,-3.9616,-1.3108,4.484
18.697000,-1.5871,-3.9300,-1.3248,4.441
18.701000,-1.5268,-3.9283,-1.2565,4.398
18.705000,-1.5127,-3.8540,-1.1608,4.300
18.710000,-1.4105,-3.7360,-1.1071,4.144
18.715000,-1.3544,-3.6013,-1.1525,4.016
18.720000,-1.4118,-3.4616,-1.2321,3.936
18.727000,-1.5570,-3.4103,-1.2881,3.964
18.730000,-1.7381,-3.3347,-1.4517,4.031
18.736000,-1.9742,-3.2250,-1.5578,4.090
18.742000,-2.1893,-3.1695,-1.6972,4.209
18.745000,-2.2478,-3.1321,-1.7310,4.226
18.750000,-2.2431,-3.1389,-1.7214,4.225
18.811000,-2.1634,-3.0565,-1.7713,4.142
18.813000,-2.0089,-3.0114,-1.7967,4.041
18.813000,-1.7822,-2.9225,-1.8217,3.878
18.813000,-1.5620,-2.7755,-1.8796,3.698
18.814000,-1.3668,-2.5058,-2.0140,3.493
18.815000,-1.2324,-2.3215,-2.1315,3.384
18.815000,-1.1225,-2.1721,-2.1536,3.258
18.816000,-1.0054,-2.0408,-2.1452,3.127
18.816000,-0.8546,-1.9399,-2.2187,3.069
18.816000,-0.7275,-1.9171,-2.2735,3.062
18.817000,-0.5906,-1.9010,-2.2259,2.986
18.817000,-0.4413,-1.7959,-2.1048,2.802
18.818000,-0.3582,-1.7122,-1.9773,2.640
18.819000,-0.2834,-1.5979,-1.9294,2.521
18.825000,-0.2690,-1.6108,-1.9853,2.571
18.830000,-0.1780,-1.6596,-2.1140,2.693
18.835000,-0.0993,-1.6579,-2.2247,2.776
18.842000,0.0454,-1.6152,-2.1114,2.659
18.844000,0.2278,-1.5268,-2.0785,2.589
18.849000,0.5024,-1.3783,-2.2427,2.680
18.908000,0.7275,-1.2724,-2.3477,2.768
18.909000,0.9004,-1.1611,-2.4892,2.890
18.910000,0.9750,-1.0323,-2.5496,2.918
18.910000,0.9727,-0.9146,-2.5266,2.858
18.910000,0.8719,-0.8942,-2.5396,2.830
18.911000,0.7535,-0.8893,-2.5168,2.774
18.911000,0.6700,-0.8689,-2.4535,2.688
18.912000,0.6093,-0.8256,-2.3137,2.531
18.912000,0.5407,-0.7977,-2.0978,2.309
18.912000,0.4865,-0.7620,-1.9733,2.171
18.913000,0.4561,-0.7353,-1.8707,2.061
18.913000,0.4212,-0.6798,-1.7827,1.954
18.913000,0.4797,-0.5958,-1.6877,1.853
18.920000,0.5269,-0.4645,-1.5045,1.660
18.925000,0.5079,-0.3127,-1.3095,1.439
18.930000,0.4466,-0.2457,-1.2080,1.311
18.934000,0.3504,-0.1918,-1.2452,1.308
18.939000,0.2837,-0.1628,-1.3732,1.412
18.944000,0.1389,-0.1032,-1.5586,1.568
18.949000,0.0185,-0.0222,-1.7199,1.720
18.967000,-0.0564,0.0304,-1.8046,1.806
18.969000,-0.1292,0.0719,-1.8274,1.833
18.969000,-0.0902,0.1815,-1.7809,1.792
18.969000,-0.1166,0.2253,-1.6988,1.718
19.045000,-0.1944,0.2538,-1.5834,1.615
19.046000,-0.3408,0.2886,-1.5396,1.603
19.046000,-0.4912,0.2794,-1.4408,1.548
19.047000,-0.5449,0.3338,-1.2558,1.409
19.048000,-0.5731,0.3915,-1.1380,1.333
19.048000,-0.5640,0.4260,-0.9844,1.212
19.048000,-0.5412,0.4540,-0.8620,1.114
19.049000,-0.4900,0.4681,-0.8378,1.078
19.049000,-0.3436,0.5545,-0.8544,1.075
19.050000,-0.1330,0.6604,-0.8519,1.086
19.050000,0.1134,0.7118,-0.8186,1.091
19.051000,0.4388,0.7806,-0.8816,1.257
19.051000,0.6665,0.8717,-0.8638,1.396
19.053000,0.8348,0.9225,-0.8012,1.480
19.053000,0.9609,0.9381,-0.6462,1.490
19.054000,1.0552,0.9974,-0.5284,1.545
19.054000,1.0603,1.0212,-0.3329,1.509
19.058000,1.0436,1.0121,-0.1843,1.465
19.062000,0.9669,0.9774,-0.0611,1.376
19.069000,0.8086,0.9171,0.1922,1.238
19.073000,0.5308,0.8533,0.3290,1.057
19.077000,0.3013,0.7501,0.6505,1.038
19.083000,0.0519,0.7396,1.0290,1.268
19.147000,-0.1066,0.7499,1.3876,1.581
19.148000,-0.1769,0.8356,1.6501,1.858
19.149000,-0.2263,0.9179,1.9867,2.200
19.150000,-0.3277,0.9723,2.3429,2.558
19.151000,-0.3993,0.9244,2.7140,2.895
19.152000,-0.5589,0.7975,3.1603,3.307
19.152000,-0.7233,0.6433,3.4817,3.614
19.155000,-0.8857,0.3900,3.8099,3.931
19.156000,-1.0849,0.1373,4.0428,4.188
19.158000,-1.2502,-0.1225,4.1668,4.352
19.159000,-1.3887,-0.3702,4.2368,4.474
19.160000,-1.4409,-0.6035,4.2770,4.553
19.160000,-1.5263,-0.8440,4.2371,4.582
19.161000,-1.5807,-1.0940,4.0551,4.488
19.162000,-1.5832,-1.3416,3.8535,4.377
19.163000,-1.6318,-1.6147,3.6127,4.280
19.167000,-1.5900,-1.9347,3.4546,4.267
19.180000,-1.5380,-2.2602,3.2756,4.267
19.183000,-1.3966,-2.4995,3.1161,4.232
19.184000,-1.0793,-2.5896,3.0088,4.114
19.264000,-0.6877,-2.5103,3.0796,4.032
19.265000,-0.2623,-2.3073,3.4815,4.185
19.266000,0.1960,-2.1076,3.9528,4.484
19.266000,0.6304,-2.0192,4.3046,4.796
19.267000,0.9113,-2.0112,4.5590,5.066
19.267000,1.0471,-2.1438,4.7973,5.358
19.268000,1.2684,-2.2620,4.9703,5.606
19.268000,1.5282,-2.3828,5.1018,5.835
19.269000,1.7321,-2.4231,5.0299,5.846
19.270000,1.9787,-2.3208,4.7770,5.668
19.270000,2.2396,-2.2152,4.4318,5.437
19.271000,2.4293,-2.0511,3.9759,5.091
19.271000,2.5704,-1.9049,3.3713,4.648
19.272000,2.5771,-1.8096,2.7209,4.162
19.272000,2.4829,-1.7171,2.0180,3.631
19.273000,2.3738,-1.6508,1.4178,3.220
19.273000,2.2335,-1.6386,0.9037,2.914
19.274000,2.0609,-1.6180,0.4444,2.658
19.277000,1.8058,-1.6268,0.1065,2.433
19.281000,1.5485,-1.6672,0.0238,2.276
19.287000,1.3902,-1.6435,0.1144,2.156
19.292000,1.2996,-1.5179,0.2586,2.015
19.297000,1.2665,-1.4088,0.4182,1.940
19.300000,1.2247,-1.3770,0.5313,1.918
19.363000,1.1095,-1.4236,0.6483,1.918
19.364000,1.0376,-1.4891,0.7474,1.963
19.364000,1.0507,-1.5431,0.7044,1.995
19.364000,1.2521,-1.5402,0.5527,2.060
19.364000,1.5430,-1.4657,0.2443,2.142
19.365000,1.8240,-1.3909,-0.2856,2.312
19.365000,2.0381,-1.3341,-0.9245,2.605
19.365000,2.1909,-1.3492,-1.5101,2.983
19.366000,2.2609,-1.3830,-2.0378,3.343
19.366000,2.2126,-1.4460,-2.6205,3.722
19.366000,2.0285,-1.5472,-3.1673,4.067
19.366000,1.7660,-1.6373,-3.5350,4.277
19.367000,1.5492,-1.5794,-3.7813,4.381
19.372000,1.3173,-1.4640,-3.9232,4.390
19.377000,1.1320,-1.2951,-3.8390,4.207
19.380000,0.9733,-1.0709,-3.4522,3.743
19.385000,0.7906,-0.7442,-2.8154,3.017
19.390000,0.6454,-0.4927,-2.1559,2.304
19.395000,0.4680,-0.2538,-1.3919,1.490
19.400000,0.2918,-0.0000,-0.6380,0.702
19.458000,0.1123,0.2116,0.0704,0.250
19.459000,-0.0491,0.3700,0.6095,0.715
19.459000,-0.1754,0.4813,1.0010,1.124
19.459000,-0.3113,0.5706,1.3028,1.456
19.460000,-0.4183,0.6138,1.4526,1.632
19.460000,-0.4914,0.6124,1.3792,1.587
19.460000,-0.4901,0.5376,1.1809,1.387
19.460000,-0.5891,0.4879,0.9485,1.218
19.461000,-0.5643,0.3729,0.6460,0.935
19.461000,-0.3388,0.3107,0.1752,0.492
19.461000,0.0139,0.2615,-0.3565,0.442
19.462000,0.3889,0.2625,-0.8991,1.014
19.466000,0.6615,0.1950,-1.4550,1.610
19.470000,0.8011,0.0696,-1.9505,2.110
19.476000,0.8844,-0.0745,-2.3571,2.519
19.480000,0.9043,-0.2557,-2.6488,2.811
19.486000,0.8823,-0.4162,-2.9548,3.112
19.491000,0.9158,-0.4938,-3.1150,3.284
19.495000,0.9272,-0.5815,-3.3231,3.499
19.500000,0.9111,-0.6840,-3.4116,3.597
19.564000,0.8189,-0.7850,-3.4785,3.659
19.565000,0.7463,-0.8438,-3.4639,3.642
19.566000,0.7410,-0.9277,-3.3512,3.555
19.567000,0.8490,-0.9003,-3.1430,3.378
19.567000,1.0660,-0.8293,-2.8872,3.187
19.567000,1.2968,-0.7007,-2.6532,3.035
19.567000,1.5114,-0.6348,-2.5151,3.002
19.568000,1.6664,-0.6293,-2.3795,2.972
19.568000,1.7268,-0.6581,-2.2728,2.929
19.568000,1.7962,-0.7045,-2.2164,2.939
19.569000,1.8373,-0.7060,-2.3232,3.045
19.569000,1.8457,-0.7314,-2.4996,3.192
19.569000,1.5693,-0.7037,-2.6356,3.147
19.570000,0.9335,-0.5292,-2.5706,2.786
19.579000,0.2142,-0.4561,-2.0914,2.151
19.580000,-0.6331,-0.5034,-1.4421,1.653
19.585000,-1.3820,-0.6616,-0.8910,1.772
19.589000,-1.8088,-0.8050,-0.4784,2.037
19.594000,-1.8770,-0.8268,-0.1923,2.060
19.598000,-1.6287,-0.8929,-0.1665,1.865
19.603000,-1.2229,-0.9221,-0.3172,1.564
19.611000,-0.8691,-0.9739,-0.6493,1.458
19.614000,-0.4728,-1.0210,-1.0172,1.517
19.619000,0.1275,-0.9905,-1.3687,1.694
19.686000,0.8589,-0.8838,-1.7092,2.107
19.686000,1.5130,-0.7598,-2.0702,2.674
19.687000,2.0754,-0.6800,-2.3703,3.223
19.687000,2.5990,-0.5914,-2.3588,3.559
19.687000,2.8897,-0.4485,-2.1650,3.639
19.688000,2.8244,-0.3164,-1.7960,3.362
19.688000,2.6282,-0.1836,-1.1388,2.870
19.688000,2.3603,-0.0895,-0.4613,2.407
19.688000,2.1691,-0.0885,0.1700,2.178
19.689000,2.1435,-0.0355,0.8389,2.302
19.689000,2.3080,-0.0136,1.3614,2.680
19.689000,2.6178,0.0388,1.6061,3.071
19.689000,2.8344,0.0400,1.6569,3.283
19.690000,2.9385,-0.0290,1.5116,3.305
19.694000,2.9398,-0.1576,1.2158,3.185
19.699000,2.7922,-0.3665,0.9706,2.979
19.703000,2.6422,-0.5708,0.8472,2.833
19.707000,2.4652,-0.7885,0.8144,2.713
19.713000,2.2894,-0.9690,0.7885,2.608
19.719000,2.1334,-1.1307,0.7790,2.537
19.723000,1.9464,-1.3596,0.8289,2.515
19.728000,1.8160,-1.6126,0.8787,2.583
19.732000,1.6239,-1.8179,0.9956,2.633
19.786000,1.4420,-1.9874,1.0932,2.688
19.788000,1.2055,-2.0972,1.2125,2.706
19.788000,0.9930,-2.1806,1.3317,2.741
19.790000,0.9218,-2.2090,1.4224,2.784
19.790000,0.9340,-2.1418,1.5849,2.823
19.791000,0.9551,-2.0938,1.7954,2.919
19.791000,1.0044,-2.0274,2.0371,3.044
19.792000,1.0936,-1.9021,2.2719,3.158
19.792000,1.2109,-1.8765,2.4783,3.336
19.792000,1.3615,-1.8218,2.6899,3.523
19.793000,1.4885,-1.7747,2.9042,3.715
19.793000,1.7208,-1.7041,3.1452,3.970
19.798000,1.9938,-1.6633,3.3078,4.205
19.803000,2.1787,-1.5927,3.3489,4.301
19.808000,2.3647,-1.5400,3.3068,4.347
19.813000,2.4635,-1.5794,3.1529,4.302
19.818000,2.5659,-1.6672,2.9758,4.268
19.827000,2.6288,-1.7938,2.7994,4.238
19.829000,2.7050,-1.8798,2.5805,4.184
19.832000,2.8207,-1.9243,2.2548,4.092
19.836000,2.9352,-1.9514,1.9250,4.016
19.903000,3.0047,-1.9409,1.5937,3.916
19.905000,3.0531,-1.9024,1.3542,3.844
19.905000,3.0540,-1.8066,1.1012,3.715
19.906000,2.9387,-1.6083,0.9494,3.482
19.906000,2.8171,-1.3528,0.7792,3.221
19.906000,2.6892,-1.0469,0.6409,2.956
19.907000,2.5790,-0.7344,0.6110,2.750
19.907000,2.5058,-0.4305,0.6415,2.622
19.907000,2.4531,-0.1592,0.8019,2.586
19.907000,2.4409,0.0424,1.0081,2.641
19.908000,2.5248,0.2472,1.3124,2.856
19.908000,2.6357,0.4430,1.5569,3.093
19.908000,2.7867,0.6214,1.7676,3.358
19.911000,2.9159,0.7195,1.8583,3.532
19.911000,3.0570,0.7635,1.8003,3.629
19.917000,3.2797,0.7605,1.6798,3.763
19.921000,3.4458,0.7533,1.5037,3.834
19.927000,3.5363,0.6846,1.1812,3.791
19.931000,3.6374,0.5502,0.9276,3.794
19.936000,3.6775,0.4555,0.7522,3.781
19.943000,3.6042,0.3001,0.4540,3.645
19.946000,3.4721,0.1395,0.1505,3.478
19.951000,3.2113,-0.0903,-0.2300,3.221
20.008000,2.8913,-0.3361,-0.5319,2.959
20.009000,2.5928,-0.5563,-0.8579,2.787
20.009000,2.2507,-0.7171,-1.1362,2.621
20.010000,1.8430,-0.8679,-1.4024,2.473
20.010000,1.4050,-1.0013,-1.5441,2.315
20.010000,0.9559,-1.1551,-1.6259,2.212
20.011000,0.5286,-1.3100,-1.6429,2.167
20.011000,0.1128,-1.4155,-1.5640,2.112
20.011000,-0.3011,-1.5270,-1.4825,2.149
20.011000,-0.7063,-1.5581,-1.4651,2.252
20.012000,-1.0049,-1.5736,-1.4640,2.373
20.012000,-1.3048,-1.6405,-1.3882,2.514
20.015000,-1.6203,-1.6418,-1.3359,2.666
20.021000,-1.8530,-1.6135,-1.2401,2.752
20.026000,-1.9501,-1.5964,-1.1250,2.760
20.031000,-2.0098,-1.4878,-1.0192,2.700
20.036000,-1.9646,-1.3047,-0.9181,2.531
20.041000,-1.8717,-1.1551,-0.8027,2.341
20.046000,-1.8100,-0.9721,-0.7281,2.180
20.050000,-1.7652,-0.7395,-0.6271,2.014
20.109000,-1.8090,-0.5438,-0.5956,1.981
20.110000,-1.8553,-0.3898,-0.6429,2.002
20.111000,-1.9399,-0.2778,-0.7045,2.082
20.111000,-2.0152,-0.1788,-0.7706,2.165
20.111000,-1.9968,-0.0477,-0.8893,2.186
20.112000,-1.9566,0.0316,-0.9936,2.195
20.112000,-1.8923,0.1405,-1.1218,2.204
20.113000,-1.8279,0.2432,-1.3289,2.273
20.114000,-1.7806,0.2871,-1.5379,2.370
20.116000,-1.7361,0.2893,-1.7513,2.483
20.116000,-1.6825,0.3339,-1.9189,2.574
20.117000,-1.6320,0.3348,-2.1076,2.687
20.117000,-1.6180,0.3665,-2.2600,2.804
20.121000,-1.5711,0.4194,-2.3665,2.871
20.125000,-1.4768,0.3671,-2.5158,2.940
20.130000,-1.4211,0.3387,-2.6026,2.985
20.135000,-1.3148,0.3151,-2.4407,2.790
20.140000,-1.1548,0.3154,-2.2316,2.532
20.145000,-0.9333,0.3632,-2.0976,2.324
20.150000,-0.7460,0.3792,-2.0028,2.171
20.168000,-0.6043,0.3942,-1.9639,2.092
20.171000,-0.5487,0.3915,-1.9285,2.043
20.172000,-0.5670,0.2851,-1.9659,2.066
20.174000,-0.6046,0.1805,-2.0303,2.126
20.175000,-0.5969,0.1019,-2.1171,2.202
20.238000,-0.5780,0.0637,-2.1684,2.245
20.239000,-0.5433,-0.0317,-2.3111,2.374
20.239000,-0.5173,-0.0977,-2.4993,2.554
20.239000,-0.5341,-0.1505,-2.5846,2.643
20.240000,-0.4935,-0.1899,-2.5788,2.632
20.240000,-0.4175,-0.1822,-2.5250,2.566
20.240000,-0.3231,-0.1920,-2.4303,2.459
20.241000,-0.2657,-0.2263,-2.2468,2.274
20.241000,-0.2930,-0.2470,-1.9484,1.986
20.241000,-0.3428,-0.2209,-1.7145,1.762
20.242000,-0.3286,-0.1839,-1.4471,1.495
20.242000,-0.2838,-0.1845,-1.0913,1.143
20.242000,-0.1961,-0.1533,-0.6881,0.732
20.244000,-0.0885,-0.0622,-0.2427,0.266
20.249000,0.0305,0.0286,0.1728,0.178
20.255000,0.1635,0.1328,0.4436,0.491
20.259000,0.2818,0.1949,0.5864,0.679
20.263000,0.2709,0.2438,0.6444,0.740
20.269000,0.2000,0.2100,0.6083,0.674
20.276000,0.0402,0.1560,0.5118,0.537
20.279000,-0.1059,0.0898,0.3933,0.417
20.283000,-0.2317,-0.0052,0.2795,0.363
20.325000,-0.2704,-0.0950,0.2493,0.380
20.326000,-0.2080,-0.1290,0.2141,0.325
20.326000,-0.1335,-0.1212,0.1791,0.254
20.327000,-0.0623,-0.1174,0.2162,0.254
20.327000,-0.0354,-0.0937,0.3303,0.345
20.327000,-0.0717,-0.0718,0.4853,0.496
20.328000,-0.0686,-0.1453,0.6670,0.686
20.328000,-0.1119,-0.2473,0.8415,0.884
20.328000,-0.1200,-0.3278,1.0568,1.113
20.335000,-0.0858,-0.3680,1.2889,1.343
20.339000,-0.0066,-0.4305,1.5279,1.587
20.346000,0.0888,-0.3791,1.6782,1.723
20.349000,0.1262,-0.3171,1.7448,1.778
20.354000,0.1224,-0.3138,1.7540,1.786
20.359000,0.0679,-0.3549,1.7394,1.776
20.363000,0.0541,-0.4160,1.7773,1.826
20.368000,0.0856,-0.5424,1.7172,1.803
20.374000,0.2009,-0.6333,1.6379,1.768
20.378000,0.3019,-0.7101,1.6568,1.828
20.382000,0.4311,-0.7295,1.5824,1.795
20.449000,0.5482,-0.7630,1.6373,1.888
20.450000,0.6678,-0.7126,1.7280,1.985
20.450000,0.8185,-0.7220,1.8400,2.139
20.451000,0.9212,-0.7432,1.9232,2.258
20.451000,1.0047,-0.8387,1.9608,2.357
20.451000,1.0662,-0.9272,2.0726,2.508
20.452000,1.1251,-0.9989,2.1485,2.623
20.452000,1.1500,-1.0730,2.2962,2.783
20.452000,1.2035,-1.1278,2.5011,2.996
20.452000,1.2402,-1.1633,2.7416,3.226
20.452000,1.3179,-1.2036,2.9937,3.485
20.453000,1.3744,-1.3327,3.1736,3.706
20.453000,1.4000,-1.5121,3.3627,3.944
20.453000,1.4524,-1.7274,3.5825,4.234
20.460000,1.3983,-1.9496,3.7085,4.417
20.463000,1.3210,-2.2170,3.8676,4.650
20.467000,1.3508,-2.3785,4.0124,4.856
20.474000,1.4323,-2.5724,4.1334,5.075
20.479000,1.4437,-2.7576,4.1661,5.200
20.481000,1.3784,-2.9240,4.2994,5.379
20.486000,1.3037,-3.1288,4.4280,5.576
20.550000,1.2047,-3.3069,4.4898,5.705
20.551000,1.1768,-3.4751,4.6189,5.899
20.552000,1.1389,-3.5661,4.7722,6.065
20.553000,1.0771,-3.6258,4.9065,6.195
20.553000,0.9974,-3.6513,5.0669,6.325
20.554000,0.9649,-3.6360,5.0668,6.311
20.554000,1.0198,-3.5709,4.9637,6.199
20.554000,1.0659,-3.4586,4.9924,6.166
20.555000,1.0343,-3.3500,5.1500,6.230
20.555000,0.9827,-3.3438,5.0370,6.125
20.555000,0.8721,-3.3183,4.8285,5.923
20.556000,0.6351,-3.2529,4.5508,5.630
20.556000,0.4395,-3.0953,4.1444,5.191
20.556000,0.3086,-2.8917,3.6092,4.635
20.562000,0.1894,-2.7144,2.9934,4.045
20.568000,0.0884,-2.5557,2.3259,3.457
20.575000,0.0270,-2.3873,1.5900,2.868
20.576000,-0.0152,-2.2904,0.8388,2.439
20.581000,-0.0337,-2.1904,0.1441,2.195
20.586000,-0.1131,-2.1162,-0.4630,2.169
20.642000,-0.1072,-2.0627,-1.0112,2.300
20.643000,-0.0830,-2.0007,-1.4958,2.499
20.643000,-0.1023,-1.8826,-1.8596,2.648
20.644000,-0.1312,-1.7705,-2.1197,2.765
20.644000,-0.0683,-1.6979,-2.3385,2.891
20.644000,-0.0020,-1.6146,-2.6143,3.073
20.645000,0.0889,-1.5615,-2.9301,3.321
20.645000,0.1685,-1.5787,-3.1998,3.572
20.645000,0.1916,-1.5224,-3.3325,3.669
20.646000,0.2973,-1.4667,-3.4409,3.752
20.646000,0.3905,-1.4043,-3.4343,3.731
20.646000,0.5199,-1.2517,-3.2772,3.546
20.652000,0.6116,-1.1213,-3.1709,3.418
20.657000,0.6255,-1.0276,-3.1201,3.344
20.660000,0.5976,-0.9637,-3.0626,3.266
20.666000,0.5568,-0.9438,-2.9675,3.163
20.671000,0.4199,-0.9464,-2.9114,3.090
20.676000,0.2929,-0.9334,-2.8683,3.031
20.681000,0.1163,-0.9644,-2.9170,3.074
20.685000,-0.0621,-1.0010,-2.9594,3.125
20.691000,-0.1461,-1.0236,-3.0458,3.216
20.696000,-0.2626,-1.0583,-3.1091,3.295
20.700000,-0.3666,-1.0520,-3.2113,3.399
20.707000,-0.4467,-1.0929,-3.2541,3.462
20.710000,-0.4766,-1.1089,-3.3117,3.525
20.715000,-0.4714,-1.1739,-3.2570,3.494
20.720000,-0.4867,-1.1945,-3.2264,3.475
20.788000,-0.4535,-1.2164,-3.1647,3.421
20.789000,-0.4105,-1.1988,-3.0886,3.338
20.790000,-0.3533,-1.1704,-3.0697,3.304
20.790000,-0.2802,-1.1172,-3.0553,3.265
20.790000,-0.2299,-1.0655,-2.8849,3.084
20.791000,-0.0924,-0.9389,-2.6425,2.806
20.792000,-0.0014,-0.8073,-2.4646,2.593
20.792000,0.1268,-0.6708,-2.3967,2.492
20.793000,0.2583,-0.5396,-2.4217,2.495
20.793000,0.3307,-0.4112,-2.4559,2.512
20.794000,0.3866,-0.3601,-2.5542,2.608
20.794000,0.4696,-0.3048,-2.6114,2.671
20.795000,0.5531,-0.2405,-2.7471,2.813
20.795000,0.6205,-0.2150,-2.9038,2.977
20.795000,0.6719,-0.1706,-3.0048,3.084
20.800000,0.7410,-0.1406,-3.0098,3.103
20.806000,0.8452,-0.0674,-2.9596,3.079
20.810000,0.9414,0.0347,-2.9761,3.122
20.816000,1.0055,0.1058,-2.9995,3.165
20.820000,1.0090,0.1672,-2.9916,3.162
20.825000,0.9736,0.1903,-3.0816,3.237
20.831000,0.9452,0.1848,-3.1905,3.333
20.834000,0.9357,0.2298,-3.3303,3.467
20.895000,0.9859,0.2538,-3.4721,3.618
20.896000,0.7744,0.2838,-3.6324,3.725
20.896000,0.3122,0.4922,-3.3056,3.357
20.897000,0.0104,0.4699,-2.6834,2.724
20.897000,-0.1093,0.3773,-2.5256,2.556
20.897000,0.0199,0.4070,-2.4330,2.467
20.898000,0.3240,0.5178,-2.2673,2.348
20.898000,0.5776,0.6277,-2.3058,2.459
20.898000,0.7287,0.6696,-2.4187,2.613
20.898000,0.8309,0.6037,-2.4476,2.654
20.899000,0.7722,0.5572,-2.4857,2.662
20.899000,0.6491,0.5234,-2.5643,2.696
20.899000,0.5723,0.5292,-2.5208,2.639
20.906000,0.7195,0.5174,-2.5349,2.685
20.913000,0.9662,0.5811,-2.4080,2.659
20.914000,1.1660,0.6006,-2.1354,2.506
20.919000,1.2810,0.5974,-1.6959,2.208
20.924000,1.2469,0.6353,-1.2239,1.859
20.930000,1.1547,0.6995,-0.8796,1.611
20.933000,0.9328,0.7207,-0.6915,1.367
20.995000,0.5888,0.7107,-0.6190,1.111
20.997000,0.2263,0.6630,-0.5877,0.914
20.999000,-0.0300,0.6712,-0.6073,0.906
21.001000,-0.1352,0.6923,-0.6273,0.944
21.001000,-0.1643,0.7026,-0.5901,0.932
21.002000,-0.1637,0.7432,-0.4953,0.908
21.005000,-0.1148,0.7250,-0.2929,0.790
21.006000,-0.0997,0.7198,-0.0544,0.729
21.006000,-0.0975,0.7701,0.2344,0.811
21.007000,-0.1109,0.8563,0.6190,1.062
21.008000,-0.1980,0.9536,0.9868,1.387
21.009000,-0.3349,1.0161,1.3043,1.687
21.010000,-0.4863,1.0718,1.4878,1.897
21.011000,-0.6425,0.9959,1.6330,2.018
21.012000,-0.7988,0.9084,1.7639,2.139
21.013000,-0.9000,0.7828,1.8301,2.185
21.018000,-0.9650,0.5976,1.8748,2.192
21.030000,-0.8952,0.4539,1.8739,2.126
21.031000,-0.8029,0.3638,1.8683,2.066
21.034000,-0.6902,0.2636,1.7909,1.937
21.097000,-0.6500,0.1725,1.7306,1.857
21.098000,-0.6029,0.0533,1.7111,1.815
21.098000,-0.4642,-0.0097,1.7371,1.798
21.098000,-0.2338,0.0411,1.8780,1.893
21.099000,0.0646,0.1100,2.0570,2.061
21.099000,0.3930,0.1968,2.2237,2.267
21.099000,0.6477,0.2773,2.3735,2.476
21.099000,0.8474,0.3059,2.6357,2.785
21.100000,1.0207,0.2921,2.9623,3.147
21.100000,1.1274,0.3190,3.1879,3.396
21.100000,1.2057,0.4366,3.4012,3.635
21.100000,1.3034,0.5654,3.5662,3.839
21.100000,1.3746,0.7126,3.7069,4.017
21.102000,1.4261,0.7411,3.8712,4.192
21.110000,1.4097,0.6984,4.1020,4.393
21.112000,1.4213,0.5844,4.1911,4.464
21.117000,1.4820,0.4593,4.1340,4.416
21.125000,1.5505,0.3253,4.0171,4.318
21.132000,1.6362,0.2400,3.8646,4.204
21.132000,1.6935,0.1516,3.6432,4.020
21.190000,1.7773,0.0413,3.4249,3.859
21.191000,1.9117,0.0101,3.2123,3.738
21.192000,2.0820,0.0013,3.0940,3.729
21.192000,2.3196,0.0080,3.0078,3.798
21.192000,2.5935,0.0641,2.9369,3.919
21.193000,2.7816,0.1983,2.9198,4.038
21.193000,2.9698,0.3292,2.9468,4.197
21.193000,3.1011,0.5330,2.9700,4.327
21.193000,3.1325,0.7834,3.0252,4.425
21.194000,3.0696,1.0895,3.0666,4.474
21.194000,2.9628,1.5178,3.0775,4.533
21.194000,2.8271,1.9044,3.0765,4.592
21.197000,2.6199,2.3013,3.1039,4.668
21.202000,2.3654,2.6095,3.1307,4.712
21.208000,2.1195,2.8210,3.1396,4.723
21.211000,1.8797,2.9880,3.1401,4.725
21.216000,1.6583,3.0552,3.0338,4.614
21.224000,1.4098,3.0318,2.9068,4.430
21.228000,1.2775,2.9176,2.6971,4.174
21.231000,1.1487,2.7825,2.3952,3.847
21.236000,1.0376,2.5714,2.0707,3.461
21.287000,0.9537,2.4019,1.6472,3.065
21.287000,0.9136,2.2296,1.3022,2.739
21.288000,0.8595,2.0810,0.9209,2.433
21.288000,0.7914,1.9477,0.6330,2.196
21.288000,0.6850,1.8151,0.3140,1.965
21.289000,0.6435,1.6312,0.1314,1.759
21.289000,0.5570,1.4566,-0.0630,1.561
21.289000,0.4399,1.2263,-0.1570,1.312
21.290000,0.2808,1.0082,-0.2486,1.076
21.290000,0.1087,0.8446,-0.3836,0.934
21.291000,-0.0666,0.7337,-0.4996,0.890
21.297000,-0.2450,0.6090,-0.6421,0.918
21.301000,-0.4505,0.4823,-0.6986,0.961
21.308000,-0.6444,0.3755,-0.7099,1.030
21.311000,-0.8411,0.2813,-0.6212,1.083
21.316000,-0.9350,0.2404,-0.4565,1.068
21.321000,-1.0936,0.2267,-0.3355,1.166
21.326000,-1.2074,0.1651,-0.2605,1.246
21.331000,-1.3386,0.0701,-0.1550,1.349
21.336000,-1.4752,-0.0632,-0.0381,1.477
21.341000,-1.5810,-0.1924,0.0325,1.593
21.346000,-1.6947,-0.2765,0.0617,1.718
21.352000,-1.7588,-0.3350,-0.0124,1.790
21.414000,-1.7903,-0.3799,-0.1588,1.837
21.415000,-1.7871,-0.3846,-0.3411,1.860
21.415000,-1.7755,-0.4208,-0.5141,1.896
21.415000,-1.7849,-0.4497,-0.7322,1.981
21.415000,-1.7627,-0.3996,-0.9095,2.023
21.416000,-1.7645,-0.4209,-1.1197,2.132
21.416000,-1.7236,-0.3983,-1.2504,2.166
21.416000,-1.6854,-0.3514,-1.3352,2.179
21.416000,-1.6670,-0.3255,-1.4265,2.218
21.417000,-1.6014,-0.3114,-1.5390,2.243
21.417000,-1.5725,-0.2804,-1.6174,2.273
21.417000,-1.4802,-0.2684,-1.6426,2.227
21.417000,-1.3413,-0.2257,-1.6364,2.128
21.421000,-1.1889,-0.1691,-1.6346,2.028
21.425000,-0.9967,-0.1014,-1.6159,1.901
21.431000,-0.7495,0.0181,-1.5518,1.723
21.435000,-0.4590,0.0984,-1.6051,1.672
21.440000,-0.2451,0.1630,-1.6920,1.717
21.447000,-0.0573,0.1759,-1.7120,1.722
21.449000,0.1210,0.1492,-1.7967,1.807
21.507000,0.2519,0.0493,-1.9460,1.963
21.508000,0.3234,-0.0516,-2.1121,2.137
21.508000,0.4030,-0.1680,-2.2519,2.294
21.508000,0.4908,-0.3087,-2.4586,2.526
21.509000,0.5530,-0.3748,-2.6532,2.736
21.509000,0.6635,-0.4409,-2.8786,2.987
21.509000,0.7454,-0.5514,-3.0604,3.198
21.510000,0.7992,-0.7185,-3.1965,3.372
21.510000,0.8626,-0.9032,-3.2054,3.440
21.511000,0.9524,-1.0835,-3.1255,3.442
21.511000,1.0806,-1.2646,-3.0097,3.439
21.512000,1.1963,-1.4412,-2.9175,3.467
21.515000,1.2759,-1.5658,-2.7964,3.450
21.520000,1.3573,-1.7006,-2.6248,3.409
21.526000,1.4123,-1.8262,-2.3599,3.301
21.530000,1.4365,-1.9527,-2.1049,3.210
21.536000,1.4536,-2.0749,-1.7878,3.101
21.540000,1.4713,-2.1958,-1.5930,3.086
21.544000,1.3962,-2.3058,-1.4128,3.043
21.549000,1.3407,-2.4094,-1.2687,3.035
21.555000,1.3314,-2.5045,-1.1559,3.063
21.559000,1.2961,-2.5575,-1.0288,3.046
21.564000,1.2852,-2.5660,-0.9568,3.025
21.574000,1.2241,-2.5825,-0.8800,2.990
21.575000,1.1746,-2.5829,-0.8030,2.949
21.579000,1.1030,-2.5387,-0.7473,2.867
21.584000,1.1170,-2.5049,-0.6651,2.822
21.651000,1.1300,-2.4720,-0.5133,2.766
21.652000,1.1829,-2.4042,-0.3829,2.707
21.652000,1.2082,-2.3760,-0.2714,2.679
21.652000,1.2704,-2.3326,-0.2146,2.665
21.653000,1.3091,-2.2862,-0.1645,2.640
21.653000,1.3867,-2.2418,-0.0853,2.637
21.653000,1.4243,-2.2042,0.0063,2.624
21.654000,1.4791,-2.1828,0.1149,2.639
21.654000,1.6400,-2.1108,0.1569,2.678
21.654000,1.8159,-2.0698,0.2615,2.766
21.654000,2.0141,-2.0480,0.4284,2.904
21.655000,2.2400,-2.0573,0.6336,3.107
21.655000,2.4602,-2.1171,0.8028,3.344
21.655000,2.6420,-2.1773,0.9382,3.550
21.659000,2.7568,-2.2715,1.0472,3.722
21.664000,2.9084,-2.3798,1.0792,3.910
21.668000,3.0452,-2.4664,1.0938,4.068
21.674000,3.1873,-2.5018,1.0718,4.191
21.678000,3.3336,-2.5332,1.0726,4.322
21.683000,3.5640,-2.3949,0.9861,4.406
21.691000,3.9285,-2.2181,0.8769,4.596
21.695000,4.3076,-1.8990,0.7523,4.767
21.698000,4.6073,-1.6121,0.8015,4.947
21.703000,4.7910,-1.3091,1.0699,5.081
21.768000,4.8413,-0.9925,1.5265,5.172
21.769000,4.7137,-0.7130,2.1260,5.220
21.770000,4.5435,-0.4787,2.7895,5.353
21.770000,4.2842,-0.3268,3.5485,5.572
21.770000,3.9732,-0.1679,4.2544,5.824
21.771000,3.6562,-0.0701,4.8835,6.101
21.771000,3.2796,-0.0251,5.4861,6.392
21.771000,2.8484,0.0068,5.8565,6.512
21.772000,2.4737,0.0873,5.8756,6.376
21.772000,2.1717,0.1725,6.4597,6.817
21.772000,1.9591,0.1141,6.7706,7.049
21.773000,1.9219,0.1224,6.8372,7.103
21.773000,1.9742,0.1947,6.8153,7.098
21.773000,2.0321,0.2210,6.6068,6.916
21.778000,2.1430,0.3051,6.2265,6.592
21.783000,2.1538,0.4090,5.7561,6.159
21.788000,2.1100,0.5649,5.2721,5.707
21.792000,1.9714,0.7378,4.8082,5.249
21.798000,1.8821,0.9330,4.3976,4.874
21.803000,1.8449,1.1705,4.1216,4.665
21.813000,1.7399,1.3757,3.8988,4.486
21.814000,1.6842,1.5199,3.7099,4.349
21.819000,1.6996,1.5934,3.6722,4.349
21.877000,1.7005,1.7030,3.4695,4.222
21.878000,1.7210,1.8726,3.1138,4.021
21.879000,1.6749,1.9583,2.8112,3.814
21.879000,1.5810,1.9147,2.5665,3.571
21.879000,1.4416,1.8835,2.3006,3.304
21.879000,1.3404,1.7449,1.9945,2.970
21.879000,1.3348,1.5980,1.6771,2.674
21.880000,1.4154,1.4701,1.3554,2.450
21.880000,1.5563,1.3974,0.9457,2.295
21.880000,1.7474,1.3665,0.5510,2.286
21.881000,1.9475,1.3298,0.2742,2.374
21.881000,2.1512,1.2971,0.1703,2.518
21.883000,2.3204,1.2007,0.1888,2.619
21.887000,2.4364,1.1050,0.4586,2.714
21.893000,2.4980,0.9810,0.7758,2.794
21.897000,2.3936,0.9017,0.9897,2.743
21.901000,2.1785,0.7472,1.0860,2.546
21.908000,1.9178,0.5197,1.1102,2.276
21.916000,1.7843,0.3335,1.1198,2.133
21.916000,1.7546,0.0766,1.1982,2.126
21.997000,1.7960,-0.0676,1.2784,2.206
21.997000,1.8655,-0.1418,1.1859,2.215
21.998000,1.8435,-0.3020,1.1097,2.173
21.998000,1.7972,-0.5068,0.9518,2.096
21.998000,1.7360,-0.6575,0.6193,1.957
21.999000,1.6237,-0.8765,0.2821,1.867
21.999000,1.4475,-1.1251,0.1964,1.844
21.999000,1.2430,-1.4075,0.0726,1.879
21.999000,0.9768,-1.7124,-0.3569,2.003
22.000000,0.7805,-2.0721,-0.7520,2.338
22.000000,0.5439,-2.3629,-1.0981,2.662
22.000000,0.2760,-2.6221,-1.4791,3.023
22.001000,0.1074,-2.7361,-1.8996,3.333
22.001000,-0.0196,-2.8127,-2.3094,3.639
22.001000,-0.1056,-2.8316,-2.4863,3.770
22.002000,-0.0025,-2.7706,-2.6195,3.813
22.002000,0.1540,-2.6347,-2.8001,3.848
22.009000,0.3514,-2.5049,-3.0569,3.968
22.010000,0.3964,-2.3119,-3.0694,3.863
22.017000,0.5070,-2.1751,-2.7950,3.578
22.024000,0.5749,-2.1409,-2.6647,3.466
22.025000,0.5383,-2.1475,-2.3889,3.257
22.030000,0.4426,-2.1069,-2.1709,3.057
22.035000,0.3442,-2.0564,-1.8792,2.807
22.102000,0.2194,-2.0153,-1.7361,2.669
22.104000,0.0781,-2.0110,-1.6912,2.629
22.105000,-0.0748,-2.0339,-1.7323,2.673
22.106000,-0.1938,-2.0982,-1.8474,2.802
22.106000,-0.3406,-2.1898,-1.9550,2.955
22.107000,-0.5606,-2.2315,-2.1580,3.154
22.108000,-0.8396,-2.3544,-2.4037,3.468
22.109000,-1.0666,-2.4456,-2.6586,3.766
22.110000,-1.1491,-2.5041,-2.8749,3.982
22.110000,-1.1467,-2.5249,-3.1508,4.197
22.111000,-1.1419,-2.5073,-3.3834,4.363
22.111000,-1.1003,-2.5133,-3.5392,4.478
22.112000,-0.9956,-2.5763,-3.6398,4.569
22.112000,-0.8680,-2.6102,-3.6253,4.551
22.112000,-0.7807,-2.5865,-3.4387,4.373
22.114000,-0.8207,-2.5895,-3.2927,4.269
22.119000,-0.9310,-2.6147,-3.1396,4.191
22.125000,-1.0201,-2.6101,-3.0797,4.164
22.130000,-1.0892,-2.5947,-2.9671,4.089
22.135000,-1.0255,-2.5164,-2.8806,3.960
22.143000,-0.9704,-2.4952,-2.7963,3.871
22.145000,-0.9316,-2.4473,-2.8146,3.844
22.149000,-0.8433,-2.3681,-2.6174,3.629
22.206000,-0.7437,-2.3845,-2.5469,3.567
22.206000,-0.6884,-2.4389,-2.5455,3.592
22.207000,-0.6033,-2.4502,-2.4936,3.548
22.207000,-0.6781,-2.4325,-2.4631,3.528
22.207000,-0.8642,-2.4458,-2.4660,3.579
22.207000,-1.1186,-2.4900,-2.5069,3.706
22.207000,-1.4506,-2.6150,-2.5118,3.905
22.207000,-1.8020,-2.7133,-2.4280,4.063
22.208000,-2.0059,-2.7586,-2.2845,4.105
22.208000,-2.0980,-2.7513,-2.1409,4.069
22.208000,-2.1025,-2.7465,-2.1169,4.055
22.209000,-2.1109,-2.7177,-1.9829,3.972
22.215000,-2.0478,-2.6844,-1.7483,3.802
22.219000,-1.9063,-2.6439,-1.6741,3.664
22.225000,-1.7196,-2.5532,-1.5974,3.468
22.229000,-1.4447,-2.4268,-1.6019,3.247
22.233000,-1.1323,-2.3458,-1.5967,3.055
22.240000,-0.7819,-2.2332,-1.6082,2.861
22.244000,-0.4374,-2.0937,-1.6388,2.694
22.248000,-0.1575,-1.9913,-1.6287,2.577
22.318000,0.0548,-1.8756,-1.6570,2.503
22.319000,0.1619,-1.8133,-1.6782,2.476
22.319000,0.2357,-1.6703,-1.5848,2.315
22.319000,0.2378,-1.5639,-1.4724,2.161
22.320000,0.2576,-1.4895,-1.3483,2.026
22.320000,0.2212,-1.4474,-1.2720,1.940
22.320000,0.1875,-1.4331,-1.1239,1.831
22.321000,0.1857,-1.4971,-0.9949,1.807
22.321000,0.0695,-1.5296,-0.9927,1.825
22.321000,-0.0416,-1.5689,-1.0978,1.915
22.321000,-0.1784,-1.6836,-1.1763,2.062
22.322000,-0.2341,-1.7277,-1.3194,2.186
22.322000,-0.2111,-1.7843,-1.4289,2.296
22.322000,-0.1081,-1.7763,-1.5530,2.362
22.332000,0.0575,-1.6845,-1.6345,2.348
22.333000,0.2932,-1.5371,-1.6543,2.277
22.338000,0.5676,-1.3531,-1.6318,2.194
22.339000,0.7519,-1.2133,-1.6458,2.179
22.343000,0.9199,-1.0604,-1.5577,2.097
22.348000,1.0258,-0.9691,-1.4011,1.989
22.354000,1.1230,-0.8699,-1.1400,1.821
22.413000,1.1783,-0.7996,-0.8797,1.674
22.413000,1.1664,-0.7292,-0.6484,1.521
22.414000,1.0991,-0.6832,-0.5276,1.398
22.414000,1.0000,-0.6116,-0.3855,1.234
22.414000,0.9723,-0.5594,-0.0882,1.125
22.414000,1.0256,-0.4772,0.2160,1.152
22.415000,1.0742,-0.3456,0.4745,1.224
22.415000,1.1254,-0.1869,0.6637,1.320
22.415000,1.1617,-0.0516,0.6927,1.354
22.415000,1.2044,0.0747,0.8843,1.496
22.415000,0.7870,0.1443,1.0351,1.308
22.416000,0.4829,0.1158,1.0231,1.137
22.418000,0.3606,0.1059,1.1709,1.230
22.424000,0.3868,0.1359,1.2492,1.315
22.427000,0.4351,0.2299,1.4492,1.530
22.432000,0.5465,0.4470,1.8618,1.991
