time,ax,ay,az,aT
0.005000,0.3599,0.3576,-1.8351,1.904
0.005000,0.2170,0.4224,-1.5449,1.616
0.006000,0.1958,0.4395,-1.1668,1.262
0.007000,0.2357,0.4248,-0.7486,0.892
0.016000,0.2937,0.4059,-0.4306,0.661
0.017000,0.2955,0.4057,-0.2570,0.564
0.024000,0.2819,0.4496,-0.1912,0.564
0.026000,0.2722,0.4426,-0.2137,0.562
0.034000,0.2427,0.3847,-0.3668,0.584
0.037000,0.2484,0.3173,-0.5309,0.667
0.042000,0.1913,0.2527,-0.6610,0.733
0.047000,0.1288,0.2128,-0.7288,0.770
0.052000,0.0775,0.1808,-0.7393,0.765
0.056000,0.0536,0.2167,-0.6693,0.706
0.061000,0.0433,0.2937,-0.5524,0.627
0.066000,0.0441,0.3876,-0.4959,0.631
0.078000,0.0303,0.5293,-0.3779,0.651
0.079000,0.0236,0.6755,-0.2536,0.722
0.081000,0.0578,0.8524,-0.0917,0.859
0.086000,0.1565,1.0312,0.1884,1.060
0.091000,0.3517,1.1376,0.4365,1.268
0.096000,0.6406,1.2695,0.6860,1.579
0.101000,0.9015,1.3959,0.9276,1.903
0.107000,1.1112,1.5046,1.2280,2.238
0.112000,1.2628,1.5622,1.4775,2.494
0.120000,1.2633,1.5066,1.4643,2.452
0.122000,1.2011,1.3049,1.2254,2.156
0.126000,1.3439,1.0108,0.9190,1.916
0.133000,1.0246,0.8849,0.9362,1.646
0.136000,0.6746,0.9793,0.7439,1.403
0.151000,0.7693,0.9099,0.1454,1.200
0.153000,0.8088,0.7352,-0.1836,1.108
0.153000,0.7615,0.5628,-0.0206,0.947
0.157000,0.6621,0.3853,0.1720,0.785
0.161000,0.4164,0.1502,0.5707,0.722
0.168000,0.0803,-0.0326,1.0890,1.092
0.182000,-0.2203,-0.1183,1.6768,1.695
0.183000,-0.4157,-0.2080,2.2624,2.310
0.184000,-0.4530,-0.3481,2.7774,2.836
0.186000,-0.3974,-0.4942,3.0389,3.104
0.192000,-0.1984,-0.6061,2.8528,2.923
0.196000,-0.0058,-0.6675,2.3950,2.486
0.200000,0.4471,-0.5927,1.8669,2.009
0.207000,1.0125,-0.3300,1.3330,1.706
0.213000,1.4582,0.0302,0.7859,1.657
0.216000,1.6310,0.3719,0.2420,1.690
0.220000,1.5265,0.6363,-0.2321,1.670
0.225000,1.5403,0.5453,-0.5155,1.713
0.230000,1.9042,0.0100,-0.4687,1.961
0.235000,1.0404,0.2673,-0.3698,1.136
0.251000,-0.0224,0.4961,-0.3452,0.605
0.252000,-0.5675,0.6391,-0.6303,1.062
0.252000,-0.5894,0.7897,-0.9281,1.354
0.257000,-0.4295,0.9098,-1.2457,1.601
0.260000,-0.3290,0.7591,-1.4122,1.637
0.265000,-0.3932,0.4579,-1.4829,1.601
0.270000,-0.3558,0.2410,-1.6348,1.690
0.276000,-0.3049,0.0813,-1.6461,1.676
0.280000,-0.3134,0.0403,-1.5367,1.569
0.285000,-0.3860,0.0129,-1.2764,1.334
0.290000,-0.5681,0.0148,-0.9801,1.133
0.298000,-0.6971,0.0214,-0.7289,1.009
0.299000,-0.8043,-0.0911,-0.4506,0.926
0.306000,-0.8797,-0.3054,-0.1851,0.949
0.310000,-0.8515,-0.4972,0.1131,0.993
0.315000,-0.7113,-0.6597,0.4987,1.091
0.319000,-0.6528,-0.8080,0.7019,1.254
0.325000,-0.6317,-0.9925,0.7024,1.370
0.332000,-0.7966,-1.1656,0.5874,1.529
0.334000,-1.1306,-1.2967,0.2689,1.741
0.340000,-1.3705,-1.3450,-0.0161,1.920
0.345000,-1.4547,-1.3562,-0.0174,1.989
0.349000,-1.3169,-1.3164,-0.0101,1.862
0.354000,-1.0504,-1.1709,0.0678,1.574
0.360000,-0.7255,-0.9753,0.2614,1.243
0.369000,-0.4667,-0.7853,0.4199,1.005
0.372000,-0.3332,-0.5934,0.4553,0.819
0.383000,-0.2393,-0.4737,0.3513,0.636
0.387000,-0.3284,-0.4181,0.1613,0.556
0.388000,-0.4585,-0.3283,0.0282,0.565
0.391000,-0.4812,-0.1443,-0.0371,0.504
0.397000,-0.3232,0.1388,-0.2712,0.444
0.399000,-0.2493,0.3359,-0.6726,0.792
0.405000,-0.3119,0.4634,-1.1183,1.250
0.414000,-0.4621,0.5896,-1.5628,1.733
0.415000,-0.6587,0.6798,-1.8756,2.101
0.419000,-0.8180,0.6494,-2.0145,2.269
0.423000,-1.0339,0.5869,-1.9645,2.296
0.429000,-1.3737,0.4322,-1.5858,2.142
0.434000,-1.6681,0.2369,-1.0894,2.006
0.440000,-1.8059,0.0562,-0.7667,1.963
0.444000,-1.8647,-0.0372,-0.3454,1.897
0.448000,-1.8846,-0.1291,-0.0457,1.890
0.454000,-2.2058,-0.4478,1.2390,2.569
0.458000,-3.3427,-0.9443,5.4783,6.487
0.463000,-3.1350,-0.5582,3.1669,4.491
0.469000,-2.2137,-0.0709,0.1963,2.223
0.473000,-2.0408,0.1240,-0.0563,2.045
0.480000,-2.5222,0.1035,-0.0030,2.524
0.484000,-3.0087,-0.1435,-0.4670,3.048
0.499000,-3.2994,-0.7827,-1.2756,3.623
0.500000,-3.3830,-1.4733,-2.0342,4.213
0.501000,-3.0615,-1.0201,-2.7128,4.216
0.504000,-3.3934,-1.4742,-3.7115,5.241
0.508000,-3.8087,-2.8476,-4.4682,6.525
0.515000,-1.5638,-1.5646,-4.1363,4.691
0.518000,0.8038,0.5560,-4.5248,4.629
0.523000,2.3561,2.8246,-4.2258,5.602
0.528000,3.8354,5.0463,-2.4741,6.804
0.533000,4.9683,6.5621,-0.3973,8.240
0.539000,5.5562,7.0825,0.6924,9.028
0.543000,5.8044,6.7010,0.6855,8.892
0.550000,6.2385,6.0005,-0.0794,8.656
0.553000,6.5282,5.2776,-0.8906,8.442
0.558000,6.4045,4.6532,-1.2626,8.016
0.563000,6.0848,4.2772,-1.1972,7.533
0.568000,5.9407,4.0977,-1.0556,7.294
0.582000,5.7631,3.9821,-0.9305,7.067
0.583000,5.3047,3.8070,-0.5143,6.550
0.584000,5.0356,3.7791,-0.4063,6.309
0.588000,4.0651,3.3249,-0.0947,5.253
0.593000,3.2611,2.9020,0.2505,4.373
0.597000,2.3640,2.4037,0.4078,3.396
0.603000,1.4354,1.9368,0.5090,2.464
0.609000,0.3656,1.4407,0.6259,1.613
0.613000,-0.5344,1.0715,0.6180,1.347
0.617000,-0.7642,1.1443,0.2420,1.397
0.623000,-1.5836,0.9722,0.0525,1.859
0.627000,-2.6997,0.5691,0.1580,2.764
0.632000,-3.3698,0.2990,2.1316,3.999
0.637000,-2.8706,1.0004,4.8748,5.745
0.642000,-3.3244,0.4429,3.4842,4.836
0.647000,-3.7793,-1.0381,2.6106,4.709
0.652000,-2.3577,-1.1676,0.6690,2.715
0.657000,-0.7966,-0.7429,-1.6198,1.952
0.662000,0.2413,-0.2083,-2.9373,2.955
0.667000,0.7503,0.4576,-3.7166,3.819
0.682000,0.6736,0.8610,-3.9928,4.140
0.684000,0.3413,1.0852,-4.3116,4.459
0.684000,0.1629,1.3120,-4.8493,5.026
0.687000,0.1365,1.5614,-5.2121,5.443
0.692000,0.0285,1.7689,-5.1339,5.430
0.697000,-0.0378,1.9644,-5.0315,5.402
0.702000,0.2262,2.0945,-5.1722,5.585
0.715000,0.6802,2.1688,-5.5649,6.011
0.716000,1.1244,2.2450,-5.8037,6.324
0.717000,1.3919,2.2729,-5.6264,6.226
0.724000,1.3601,2.3336,-5.4732,6.103
0.726000,1.2708,2.3719,-5.5395,6.159
0.732000,1.2650,2.4309,-5.8441,6.455
0.736000,1.0200,2.2842,-6.1888,6.675
0.741000,0.3680,1.9534,-6.2358,6.545
0.746000,-0.1254,1.5119,-5.9533,6.144
0.751000,-0.6252,0.9564,-5.4236,5.543
0.756000,-0.9180,0.3972,-4.7536,4.858
0.761000,-1.2833,-0.0450,-3.9670,4.170
0.766000,-1.5937,-0.3144,-3.1700,3.562
0.772000,-1.7146,-0.3263,-2.4351,2.996
0.776000,-1.8151,-0.1347,-1.8736,2.612
0.781000,-1.3532,0.2072,-1.8233,2.280
0.786000,-0.8471,0.6617,-2.1964,2.445
0.798000,-0.0823,1.0699,-2.8989,3.091
0.799000,0.5827,1.3383,-3.4145,3.713
0.801000,0.8307,1.5423,-3.5176,3.930
0.808000,1.1574,1.7159,-3.3500,3.938
0.813000,1.3511,1.8998,-3.2369,3.989
0.816000,1.3448,1.9316,-3.1255,3.913
0.822000,1.3736,1.9955,-2.9511,3.818
0.829000,1.4908,1.9552,-2.6515,3.616
0.831000,1.5470,1.7658,-1.8357,2.980
0.836000,1.5157,1.4436,-0.0647,2.094
0.841000,1.5500,1.0333,0.6704,1.980
0.849000,1.5974,0.6380,-1.0484,2.014
0.851000,1.9723,0.4694,-2.5031,3.221
0.856000,1.9317,0.4792,-2.1499,2.930
0.861000,1.4465,0.4885,-1.1681,1.922
0.866000,0.9530,0.4030,-0.6046,1.198
0.870000,0.7071,0.2184,-0.9193,1.180
0.876000,0.6987,0.0907,-1.3866,1.555
0.880000,0.7333,0.1135,-1.5499,1.718
0.885000,0.5388,0.2215,-1.5437,1.650
0.892000,0.3169,0.3454,-1.6310,1.697
0.898000,0.3936,0.4166,-1.7997,1.889
0.900000,0.6629,0.5560,-2.0118,2.190
0.919000,1.4590,0.5524,-2.3561,2.826
0.921000,1.5622,0.6084,-2.5842,3.080
0.922000,2.1440,0.5597,-2.8976,3.648
0.923000,2.2417,0.5143,-2.7989,3.623
0.927000,2.0869,0.4736,-2.5446,3.325
0.930000,1.6972,0.2254,-2.0464,2.668
0.935000,0.7589,-0.0355,-1.3087,1.513
0.940000,0.7048,-0.3880,-0.6867,1.058
0.945000,1.1669,-0.7481,-0.2823,1.415
0.949000,1.5657,-1.0802,-0.3094,1.927
0.956000,1.8194,-1.5132,-0.5187,2.423
0.960000,1.3324,-1.8932,-0.4848,2.365
0.965000,0.9568,-2.2053,-0.4594,2.447
0.969000,1.1293,-2.5322,-0.4479,2.809
0.975000,1.0464,-2.7393,-0.4816,2.972
0.980000,1.5550,-3.0191,-0.8101,3.491
0.984000,1.6008,-3.0696,-1.0248,3.610
0.990000,1.7727,-2.9912,-1.1994,3.678
0.995000,2.0692,-2.9398,-1.2572,3.808
0.999000,2.1785,-2.8874,-1.2313,3.821
1.008000,2.4664,-2.9682,-1.0872,4.009
1.010000,2.7070,-3.2448,-1.0166,4.346
1.018000,2.7186,-3.4633,-1.1169,4.542
1.019000,2.6889,-3.3944,-1.1694,4.486
1.031000,2.8636,-3.3482,-1.3941,4.621
1.032000,2.9540,-3.5718,-1.9630,5.034
1.035000,2.8959,-3.9963,-2.3671,5.474
1.041000,2.6953,-4.4625,-2.3400,5.714
1.044000,2.4303,-4.7882,-2.1425,5.781
1.049000,2.2532,-4.9690,-2.0128,5.815
1.054000,2.5061,-5.0790,-1.8683,5.964
1.059000,2.8962,-5.1291,-1.7898,6.156
1.064000,3.0807,-5.2141,-1.6570,6.279
1.068000,3.0506,-5.3487,-1.3913,6.313
1.073000,3.0114,-5.5439,-1.1191,6.407
1.078000,3.1185,-5.6358,-0.7851,6.489
1.083000,3.3967,-5.5937,-0.3332,6.553
1.090000,3.5285,-5.5886,0.0219,6.609
1.093000,3.4018,-5.6699,0.0966,6.613
1.098000,3.2295,-5.8227,0.1121,6.659
1.104000,3.2305,-5.9775,0.0647,6.795
1.111000,3.3217,-6.0879,-0.0871,6.936
1.115000,3.3573,-6.1302,-0.2809,6.995
1.122000,3.3131,-6.1839,-0.3250,7.023
1.125000,3.2505,-6.2578,-0.3382,7.060
1.133000,3.2054,-6.4228,-0.2414,7.182
1.135000,3.2774,-6.4829,-0.0676,7.265
1.145000,3.3378,-6.5960,0.0916,7.393
1.147000,3.5146,-6.5927,0.1677,7.473
1.149000,3.8782,-6.5037,0.3891,7.582
1.154000,4.2231,-6.2300,0.7930,7.568
1.159000,4.3259,-6.0313,1.1482,7.511
1.163000,4.2529,-5.9878,1.3558,7.469
1.168000,3.9966,-6.1571,1.5258,7.497
1.173000,3.6496,-6.3486,1.6598,7.509
1.178000,3.4540,-6.4234,1.9092,7.539
1.183000,3.3406,-6.3939,2.1081,7.516
1.191000,3.2819,-6.3407,2.2963,7.500
1.193000,3.2492,-6.2994,2.6936,7.583
1.198000,3.0856,-6.3394,3.1734,7.732
1.203000,2.8733,-6.3118,3.5643,7.797
1.210000,2.7970,-6.2126,3.8241,7.813
1.216000,2.7814,-6.0578,3.9139,7.730
1.218000,2.7162,-5.8391,4.0589,7.612
1.231000,2.7063,-5.5746,4.2155,7.495
1.233000,2.6694,-5.3020,4.3359,7.351
1.233000,2.6218,-5.0536,4.4583,7.231
1.238000,2.4580,-4.8013,4.5834,7.078
1.243000,2.2804,-4.5440,4.6963,6.921
1.248000,2.2082,-4.2754,4.7565,6.766
1.253000,2.1693,-3.9940,4.7686,6.588
1.257000,2.0967,-3.7130,4.8084,6.427
1.263000,2.1146,-3.3354,4.9221,6.311
1.267000,2.2965,-2.8943,5.0422,6.251
1.273000,2.4245,-2.4847,5.3110,6.345
1.277000,2.3839,-2.0294,5.5476,6.370
1.283000,2.2902,-1.6388,5.6618,6.323
1.288000,2.2224,-1.2873,5.6334,6.191
1.292000,2.2116,-1.0043,5.5543,6.062
1.297000,2.1288,-0.7281,5.4543,5.900
1.302000,1.9406,-0.4493,5.2166,5.584
1.307000,1.6782,-0.2664,5.0209,5.301
1.312000,1.4496,-0.2028,4.9760,5.187
1.317000,1.4630,-0.1229,4.9732,5.185
1.336000,1.6084,0.1028,4.8893,5.148
1.338000,1.5578,0.3728,4.7242,4.988
1.339000,1.4688,0.6481,4.6029,4.875
1.340000,1.4395,0.9137,4.6090,4.914
1.342000,1.4406,1.1592,4.5943,4.952
1.347000,1.5606,1.4212,4.5789,5.042
1.352000,1.8394,1.6698,4.6818,5.300
1.358000,2.1662,1.9972,4.9760,5.783
1.362000,2.3546,2.3699,5.1744,6.159
1.367000,2.4379,2.6746,5.2771,6.399
1.374000,2.4899,2.9440,5.2660,6.527
1.379000,2.5350,3.0864,5.1525,6.519
1.385000,2.5539,3.1690,5.1400,6.556
1.392000,2.5821,3.3035,5.1471,6.639
1.393000,2.5528,3.4786,5.1960,6.754
1.396000,2.5661,3.6220,5.2479,6.873
1.402000,2.5936,3.7868,5.3349,7.038
1.410000,2.5868,3.9200,5.4522,7.196
1.412000,2.5193,3.9875,5.6327,7.347
1.416000,2.4011,3.9904,5.7214,7.377
1.422000,2.3399,4.0769,5.7584,7.433
1.429000,2.3546,4.1489,5.7739,7.490
1.431000,2.3953,4.2861,5.7570,7.566
1.436000,2.3805,4.4543,5.7945,7.687
1.446000,2.3057,4.5466,5.7688,7.698
1.448000,2.2619,4.5963,5.6739,7.644
1.451000,2.2371,4.6206,5.5674,7.573
1.459000,2.2815,4.6746,5.3850,7.487
1.461000,2.2083,4.7797,5.2041,7.403
1.466000,1.9629,4.7996,5.0638,7.248
1.472000,1.8611,4.7683,4.9310,7.107
1.476000,1.8481,4.6867,4.7250,6.907
1.482000,1.8952,4.6197,4.6518,6.824
1.486000,1.8661,4.5746,4.5669,6.728
1.490000,1.6059,4.5638,4.2233,6.422
1.496000,1.3025,4.5079,3.7785,6.025
1.501000,1.1265,4.4510,3.3634,5.692
1.505000,1.3573,4.4077,3.3341,5.691
1.511000,1.8168,4.3649,3.4139,5.832
1.515000,2.1558,4.4172,3.4400,5.999
1.520000,2.5865,4.6155,3.6234,6.413
1.525000,2.9424,4.8812,3.8069,6.854
1.531000,3.0580,5.0674,4.0579,7.176
1.535000,3.0296,5.0361,4.3017,7.283
1.540000,2.8934,4.7925,4.4922,7.178
1.549000,2.8918,4.4867,4.5218,6.996
1.550000,2.8290,4.1672,4.4892,6.747
1.567000,2.7081,3.9232,4.5033,6.558
1.568000,2.5850,3.7296,4.5696,6.440
1.568000,2.5057,3.5846,4.7029,6.422
1.570000,2.5945,3.6247,4.7931,6.545
1.580000,2.9016,3.6825,4.8114,6.718
1.582000,3.3114,3.7550,4.8314,6.958
1.585000,3.6539,3.8298,4.8310,7.166
1.590000,3.9596,3.8202,4.8669,7.346
1.595000,4.3503,3.8668,4.9711,7.654
1.600000,4.7707,3.9332,5.0828,8.004
1.607000,5.2608,4.0260,5.0584,8.335
1.610000,5.6599,4.0056,4.9802,8.537
1.615000,5.8893,3.9034,4.8588,8.575
1.619000,5.9208,3.7748,4.6764,8.436
1.626000,5.8862,3.5958,4.4724,8.221
1.632000,6.0106,3.4555,4.3217,8.170
1.635000,6.1476,3.2342,4.1779,8.106
1.642000,6.1897,2.9749,4.0407,7.968
1.652000,6.1324,2.7328,3.9917,7.811
1.653000,6.0954,2.4887,3.9204,7.663
1.659000,6.1076,2.2786,3.8205,7.556
1.660000,6.1163,2.0927,3.5156,7.359
1.665000,6.2167,1.9427,2.9268,7.141
1.669000,6.3547,1.8321,2.2127,6.974
1.675000,6.2973,1.8226,1.5881,6.745
1.679000,6.0371,1.8180,1.1619,6.411
1.684000,5.7706,1.7444,0.9818,6.108
1.689000,5.4819,1.5696,1.1369,5.814
1.694000,5.1650,1.2922,1.6937,5.587
1.699000,4.7688,0.9689,2.4414,5.444
1.706000,4.2855,0.6706,3.1401,5.355
1.709000,4.1991,0.5246,3.6056,5.560
1.714000,4.2822,0.5356,3.9325,5.839
1.719000,4.3809,0.6831,4.1967,6.105
1.725000,4.4180,0.9108,4.2601,6.205
1.729000,4.4118,1.1698,4.1767,6.187
1.734000,4.4645,1.2984,4.0061,6.137
1.740000,4.4272,1.3276,3.7906,5.978
1.743000,4.2972,1.3282,3.4709,5.681
1.749000,4.1389,1.2192,3.0679,5.294
1.755000,4.0309,1.0606,2.7057,4.969
1.760000,3.9539,0.8376,2.3270,4.664
1.763000,3.7977,0.5365,1.9714,4.312
1.769000,3.5031,0.2487,1.6305,3.872
1.783000,3.2183,-0.0809,1.2588,3.457
1.784000,3.0155,-0.4870,0.9197,3.190
1.785000,2.8974,-0.8439,0.7045,3.099
1.790000,2.7089,-1.1493,0.5410,2.992
1.794000,2.5697,-1.3793,0.4882,2.957
1.798000,2.4876,-1.5832,0.4691,2.986
1.803000,2.5081,-1.8968,0.3782,3.167
1.809000,2.6695,-2.1640,0.4961,3.472
1.814000,2.7654,-2.4100,0.8059,3.756
1.818000,2.7343,-2.4956,1.2223,3.899
1.823000,2.6659,-2.5586,1.5927,4.024
1.829000,2.5456,-2.6170,1.8133,4.076
1.833000,2.4510,-2.7173,1.8972,4.122
1.841000,2.3791,-2.7264,1.9470,4.109
1.845000,2.3088,-2.6300,1.9214,3.992
1.848000,2.2231,-2.4284,1.7796,3.743
1.853000,2.1863,-2.2639,1.5962,3.529
1.858000,2.1480,-2.0956,1.3186,3.278
1.863000,2.0508,-1.9948,0.9695,3.021
1.868000,1.8681,-1.9288,0.7271,2.782
1.877000,1.7029,-1.9184,0.6107,2.637
1.879000,1.5363,-1.9628,0.5559,2.554
1.884000,1.3559,-2.0078,0.6343,2.504
1.896000,1.2031,-2.0476,0.8300,2.516
1.897000,1.0227,-2.0834,0.9891,2.523
1.897000,0.8821,-2.1164,1.1029,2.544
1.903000,0.7643,-2.1167,1.1716,2.537
1.909000,0.6285,-2.1748,1.1506,2.539
1.913000,0.4673,-2.2169,1.1488,2.540
1.918000,0.3977,-2.2640,1.1528,2.572
1.924000,0.4097,-2.3077,1.1972,2.632
1.928000,0.3073,-2.4139,1.2584,2.740
1.933000,0.1263,-2.5546,1.3057,2.872
1.938000,-0.0849,-2.6783,1.4679,3.055
1.943000,-0.3404,-2.8299,1.6555,3.296
1.947000,-0.5351,-2.9050,1.7440,3.430
1.953000,-0.6831,-2.9701,1.7755,3.527
1.959000,-0.7700,-3.0346,1.6942,3.560
1.964000,-0.9276,-3.0782,1.5268,3.559
1.969000,-1.0410,-3.1242,1.2851,3.535
1.977000,-1.1584,-3.2048,1.0395,3.563
1.979000,-1.2653,-3.2930,0.8460,3.628
1.983000,-1.3929,-3.3759,0.7696,3.732
1.988000,-1.4957,-3.4444,0.7649,3.832
1.992000,-1.5952,-3.5393,0.7622,3.956
1.997000,-1.6841,-3.6619,0.7746,4.104
2.002000,-1.8293,-3.8275,0.7235,4.303
2.007000,-1.9949,-3.9949,0.7688,4.531
2.012000,-2.1855,-4.0942,0.7165,4.696
2.017000,-2.3413,-4.2016,0.7704,4.871
2.022000,-2.3645,-4.3409,0.8203,5.011
2.027000,-2.4035,-4.4129,0.9477,5.114
2.033000,-2.4966,-4.5344,1.0084,5.274
2.038000,-2.6076,-4.6379,1.0210,5.418
2.042000,-2.7464,-4.8605,1.0964,5.689
2.048000,-3.0727,-5.1071,1.1524,6.071
2.052000,-3.3833,-5.3038,1.2108,6.406
2.057000,-3.6064,-5.4517,1.3410,6.673
2.062000,-3.7733,-5.5524,1.3919,6.856
2.066000,-3.6858,-5.6163,1.4697,6.877
2.072000,-3.4615,-5.6434,1.5852,6.808
2.077000,-3.3110,-5.5518,1.5946,6.658
2.082000,-3.3059,-5.4495,1.6022,6.572
2.086000,-3.3981,-5.5127,1.6356,6.679
2.091000,-3.6139,-5.6106,1.5602,6.854
2.098000,-3.8933,-5.6702,1.4191,7.023
2.101000,-4.0905,-5.7438,1.3253,7.175
2.113000,-4.1747,-5.8099,1.1605,7.248
2.115000,-4.2346,-5.7799,1.0016,7.235
2.116000,-4.2846,-5.7709,0.8722,7.240
2.122000,-4.3056,-5.7695,0.7719,7.240
2.127000,-4.2570,-5.7801,0.6349,7.207
2.131000,-4.3015,-5.8726,0.4591,7.294
2.136000,-4.4009,-6.0875,0.2876,7.517
2.141000,-4.5789,-6.3188,0.1802,7.805
2.147000,-4.7709,-6.5205,0.1228,8.080
2.162000,-4.9029,-6.8137,0.1532,8.396
2.164000,-5.0229,-7.0327,0.1492,8.644
2.165000,-5.0185,-7.2371,0.1947,8.809
2.166000,-5.0144,-7.3958,0.1869,8.937
2.171000,-5.0511,-7.5352,0.2194,9.074
2.175000,-5.1119,-7.6887,0.2735,9.237
2.180000,-5.1465,-7.8748,0.2660,9.411
2.186000,-5.1980,-8.0502,0.4700,9.594
2.191000,-5.2521,-8.1234,0.7181,9.700
2.197000,-5.2849,-8.1592,0.8767,9.761
2.201000,-5.1600,-8.1930,1.0159,9.736
2.210000,-4.8920,-8.1294,1.0984,9.551
2.211000,-4.5863,-7.9643,1.2924,9.281
2.215000,-4.2357,-7.7221,1.5334,8.940
2.220000,-3.8568,-7.5000,1.6702,8.597
2.230000,-3.4568,-7.3628,1.6501,8.300
2.231000,-3.0954,-7.2947,1.5230,8.069
2.235000,-2.8012,-7.3063,1.3704,7.944
2.240000,-2.6075,-7.3802,1.1542,7.912
2.245000,-2.4711,-7.4433,0.9850,7.904
2.251000,-2.3703,-7.5662,0.7814,7.967
2.256000,-2.3243,-7.7583,0.5321,8.116
2.259000,-2.1678,-7.9066,0.4358,8.210
2.265000,-1.7934,-8.0597,0.3602,8.265
2.270000,-1.3495,-8.1632,0.2788,8.279
2.275000,-1.2401,-8.2650,0.1073,8.358
2.280000,-1.2803,-8.2436,0.0343,8.343
2.285000,-1.1088,-8.0163,0.0270,8.093
2.291000,-0.9719,-7.7768,-0.1235,7.838
2.295000,-0.8960,-7.4813,-0.2286,7.538
2.301000,-0.8355,-7.1532,-0.2305,7.206
2.305000,-0.6707,-6.7882,-0.0171,6.821
2.314000,-0.3969,-6.4428,0.3399,6.464
2.315000,-0.2104,-6.0608,0.9143,6.133
2.321000,-0.1229,-5.6575,1.4971,5.853
2.325000,-0.1053,-5.2886,2.0037,5.656
2.333000,-0.0045,-4.9614,2.3264,5.480
2.334000,0.2033,-4.6331,2.5470,5.291
2.341000,0.4315,-4.2766,2.5203,4.983
2.344000,0.6231,-3.9458,2.3556,4.637
2.350000,0.7322,-3.6522,2.2654,4.360
2.357000,0.9074,-3.4278,2.0837,4.113
2.361000,1.1243,-3.3168,1.8928,3.981
2.365000,1.3612,-3.3528,1.7339,4.013
2.369000,1.5149,-3.3855,1.5884,4.035
2.375000,1.6747,-3.3177,1.4579,3.992
2.381000,1.8615,-3.2632,1.2065,3.946
2.384000,2.0519,-3.1847,0.8987,3.894
2.390000,2.2576,-3.0972,0.5606,3.873
2.394000,2.4830,-2.9633,0.2562,3.875
2.399000,2.6235,-2.6981,-0.1105,3.765
2.410000,2.6762,-2.4704,-0.4028,3.664
2.411000,2.6911,-2.1854,-0.6471,3.527
2.419000,2.6114,-1.8896,-0.8771,3.341
2.421000,2.5705,-1.6515,-1.0546,3.232
2.440000,2.6142,-1.4267,-1.1865,3.206
2.443000,2.6535,-1.2302,-1.1995,3.161
2.443000,2.6834,-1.0247,-1.0970,3.075
2.444000,2.7520,-0.7588,-0.9204,2.999
2.446000,2.7944,-0.5078,-0.7355,2.934
2.448000,2.7265,-0.3009,-0.5837,2.804
2.454000,2.6348,-0.0464,-0.3957,2.665
2.459000,2.4351,0.1446,-0.2598,2.453
2.464000,2.2215,0.2569,-0.1402,2.241
2.468000,2.0031,0.3429,-0.0535,2.033
2.474000,1.8302,0.3735,-0.0928,1.870
2.478000,1.7101,0.5340,0.1397,1.797
2.483000,1.7119,0.8214,0.3580,1.932
2.491000,1.5559,0.9632,0.3734,1.868
2.493000,1.3805,1.0596,0.2798,1.763
2.498000,1.2838,1.1584,0.1325,1.734
2.503000,1.2543,1.2991,-0.0969,1.808
2.509000,1.2031,1.5001,-0.3529,1.955
2.513000,1.1134,1.6537,-0.4672,2.048
2.518000,0.8916,1.7407,-0.4470,2.006
2.527000,0.6415,1.8553,-0.3516,1.994
2.529000,0.4325,1.9140,-0.3437,1.992
2.533000,0.3480,2.0098,-0.3276,2.066
2.547000,0.3092,2.0740,-0.2670,2.114
2.549000,0.2945,2.0585,-0.2674,2.097
2.549000,0.2206,2.0861,-0.2371,2.111
2.553000,0.4435,2.3307,0.0412,2.373
2.559000,0.6273,2.4636,0.1407,2.546
2.563000,0.6693,2.5662,0.2742,2.666
2.568000,0.6620,2.6567,0.3818,2.764
2.574000,0.5706,2.5951,0.3891,2.685
2.578000,0.5618,2.5028,0.3732,2.592
2.582000,0.5835,2.3759,0.4181,2.482
2.590000,0.5184,2.2742,0.4856,2.383
2.594000,0.4654,2.1769,0.4942,2.280
2.597000,0.5107,2.0699,0.4967,2.189
2.602000,0.6876,1.9725,0.5054,2.149
2.609000,0.8237,1.9273,0.5058,2.156
2.613000,0.9291,1.8943,0.4551,2.158
2.617000,0.7859,1.7417,0.3129,1.936
2.625000,0.9287,1.7073,0.4025,1.985
2.628000,1.1754,1.7695,0.6228,2.214
2.633000,1.3554,1.8436,0.7002,2.393
2.637000,1.5976,1.9628,0.7691,2.645
2.650000,1.9089,2.0431,0.8103,2.911
2.652000,2.0690,2.0293,0.8856,3.030
2.652000,2.2917,2.0155,1.0220,3.219
2.659000,2.5241,1.9730,1.1210,3.394
2.662000,2.7279,1.9901,1.1948,3.582
2.667000,3.2599,2.1987,1.6164,4.251
2.674000,3.7545,2.4774,1.9122,4.888
2.678000,4.1613,2.6750,2.0988,5.374
2.682000,4.4317,2.9011,2.2790,5.766
2.687000,4.7568,3.1003,2.2926,6.123
2.691000,5.2586,3.3133,2.3202,6.634
2.697000,5.3527,3.4561,2.4214,6.816
2.701000,4.7936,3.3327,2.6121,6.396
2.709000,4.1120,3.1362,2.8556,5.908
2.713000,3.7959,2.8958,2.9068,5.590
2.716000,3.9459,2.7959,2.8257,5.601
2.727000,4.3051,2.7191,2.6362,5.734
2.728000,4.6869,2.7634,2.3180,5.914
2.733000,4.9907,2.8759,2.1302,6.141
2.736000,5.1468,2.8913,1.9725,6.224
2.742000,5.2557,2.8286,1.8500,6.249
2.746000,5.2533,2.6478,1.7894,6.149
2.751000,5.0919,2.3776,1.6446,5.855
2.758000,5.0045,2.1073,1.6239,5.668
2.762000,5.0605,1.9592,1.7156,5.691
2.766000,5.1834,1.9427,1.9316,5.863
2.773000,5.2943,2.0315,2.1873,6.078
2.777000,5.3145,2.1826,2.2957,6.187
2.781000,5.4832,2.4101,2.5774,6.521
2.786000,5.8669,2.7138,2.9593,7.109
2.791000,6.3013,2.9800,3.1272,7.640
2.796000,6.6782,3.2609,3.1557,8.074
2.801000,7.0279,3.5701,3.1239,8.479
2.808000,7.2684,3.7085,2.9130,8.664
2.811000,7.3925,3.7478,2.6120,8.690
2.817000,7.5104,3.6619,2.3031,8.667
2.820000,7.5356,3.5752,1.9775,8.572
2.826000,7.5093,3.4063,1.7459,8.429
2.831000,7.3288,3.1294,1.5130,8.111
2.844000,7.0976,2.8788,1.3460,7.777
2.846000,6.8929,2.6096,1.1568,7.461
2.849000,6.7728,2.3941,1.1272,7.271
2.852000,6.7371,2.1795,1.1439,7.173
2.877000,6.6547,1.9759,1.0540,7.021
2.879000,6.6333,1.7475,0.9629,6.927
2.880000,6.6609,1.5277,0.9878,6.905
2.881000,6.6639,1.3098,1.1312,6.885
2.881000,6.6635,1.1151,1.3756,6.895
2.884000,6.6743,0.9867,1.6079,6.936
2.886000,6.6799,0.8985,1.9281,7.010
2.892000,6.6755,0.7931,2.2350,7.084
2.896000,6.5775,0.7447,2.4209,7.048
2.901000,6.4749,0.7583,2.5575,7.003
2.907000,6.3503,0.8929,2.7568,6.980
2.910000,6.1705,1.1153,3.0279,6.963
2.915000,6.0887,1.3725,3.3102,7.065
2.923000,6.0206,1.6881,3.5460,7.188
2.924000,5.8635,1.9304,3.7063,7.200
2.933000,5.7028,2.1395,3.7026,7.128
2.935000,5.6009,2.2079,3.5501,6.989
2.941000,5.5215,2.2308,3.3475,6.831
2.944000,5.4164,2.1819,3.0717,6.598
2.949000,5.2905,2.0851,2.8288,6.351
2.957000,5.1775,1.9358,2.4858,6.061
2.959000,4.9859,1.7479,2.1462,5.703
2.964000,4.8290,1.5054,1.7922,5.366
2.969000,4.6201,1.2700,1.4526,5.007
2.984000,4.4625,0.9538,1.2116,4.721
2.986000,4.4093,0.6816,1.0557,4.585
2.986000,4.3545,0.4505,0.9441,4.478
2.992000,4.2418,0.2089,0.8698,4.335
2.994000,4.1686,-0.0296,0.7561,4.237
2.999000,4.1711,-0.2170,0.6604,4.229
3.006000,4.1660,-0.4245,0.5758,4.227
3.009000,4.0810,-0.6907,0.5525,4.176
3.014000,4.0006,-0.9363,0.6333,4.157
3.019000,3.8990,-1.0839,0.7745,4.120
3.024000,3.8260,-1.2253,0.9327,4.124
3.029000,3.8153,-1.2885,1.1098,4.177
3.034000,3.7044,-1.2662,1.2524,4.110
3.041000,3.6074,-1.2364,1.4006,4.063
3.044000,3.5418,-1.2484,1.6521,4.103
3.050000,3.3751,-1.2243,1.9251,4.074
3.054000,3.1272,-1.1519,2.0923,3.935
3.063000,2.8152,-1.1288,2.2391,3.770
3.064000,2.5054,-1.0938,2.2339,3.530
3.069000,2.3036,-1.0943,2.1053,3.307
3.073000,2.0592,-1.1012,2.0454,3.104
3.079000,1.5687,-1.2320,2.1572,2.938
3.084000,1.0465,-1.4226,2.2774,2.882
3.090000,0.6287,-1.4699,2.2718,2.778
3.093000,0.3634,-1.4952,2.1888,2.676
3.098000,-0.0003,-1.6200,2.0891,2.644
3.104000,-0.3647,-1.8563,2.0597,2.797
3.109000,-0.6287,-1.9375,2.1172,2.938
3.114000,-0.8043,-1.8109,2.0558,2.855
3.118000,-0.9117,-1.5811,1.9547,2.674
3.123000,-0.9363,-1.4366,1.9173,2.572
3.129000,-0.8910,-1.3429,1.9025,2.493
3.133000,-0.7544,-1.3097,1.7594,2.319
3.139000,-0.6415,-1.2700,1.5242,2.085
3.146000,-0.5863,-1.3378,1.3101,1.962
3.148000,-0.6628,-1.4649,1.1671,1.987
3.153000,-0.8586,-1.5263,0.9733,2.004
3.160000,-1.1022,-1.5852,0.8634,2.115
3.165000,-1.3140,-1.7073,0.9205,2.343
3.168000,-1.4130,-1.7978,0.9267,2.467
3.185000,-1.4110,-2.0258,0.8651,2.616
3.186000,-1.6091,-3.0240,0.9649,3.559
3.188000,-1.8468,-2.8857,0.9630,3.559
3.193000,-2.0880,-2.1836,1.0628,3.203
3.195000,-2.0657,-2.0943,1.4239,3.268
3.199000,-1.7413,-2.2670,1.3890,3.178
3.203000,-1.4335,-2.5868,1.0725,3.146
3.208000,-1.3095,-3.1730,0.5948,3.484
3.213000,-1.6445,-3.6324,-0.3908,4.006
3.217000,-2.4467,-3.8238,-0.6725,4.589
3.223000,-3.0841,-3.8980,-0.2869,4.979
3.228000,-3.4227,-3.8609,0.3003,5.168
3.232000,-3.6014,-3.8768,0.7699,5.347
3.240000,-3.8072,-4.0042,1.0298,5.620
3.243000,-3.9083,-4.1678,1.2887,5.857
3.247000,-4.0339,-4.3238,1.5582,6.115
3.253000,-4.1126,-4.4136,1.8091,6.298
3.257000,-4.1251,-4.5031,1.9064,6.398
3.263000,-4.0766,-4.5982,1.9053,6.434
3.267000,-4.0507,-4.6531,1.8682,6.446
3.273000,-4.0953,-4.6695,1.9000,6.495
3.277000,-4.1533,-4.7098,1.9466,6.574
3.282000,-4.2701,-4.7009,2.0294,6.667
3.287000,-4.3999,-4.7549,2.3536,6.893
3.292000,-4.4690,-5.0133,3.9016,7.767
3.297000,-3.6334,-5.0947,5.7999,8.532
3.302000,-3.5663,-5.0172,4.1653,7.432
3.307000,-4.9430,-4.9059,1.6435,7.156
3.312000,-5.6044,-4.8120,1.5627,7.550
3.317000,-5.3459,-4.7808,1.7766,7.389
3.323000,-4.8644,-4.7299,1.6148,6.974
3.327000,-4.7488,-4.8499,1.1904,6.891
3.332000,-4.9029,-5.1645,0.8250,7.169
3.337000,-4.9819,-5.4863,0.5660,7.432
3.342000,-4.8882,-5.6964,0.2437,7.510
3.346000,-4.7413,-5.8877,-0.1752,7.561
3.352000,-4.7685,-6.1719,-0.4696,7.814
3.359000,-4.9720,-6.4871,-0.5198,8.190
3.361000,-5.2223,-6.8034,-0.4634,8.589
3.367000,-5.5554,-6.9622,-0.4215,8.917
3.376000,-5.8087,-7.0877,-0.3872,9.172
3.377000,-6.0611,-7.1940,-0.3299,9.413
3.382000,-6.2435,-7.2515,-0.2645,9.573
3.386000,-6.2936,-7.2479,-0.1214,9.600
3.391000,-6.3576,-7.2260,0.1585,9.626
3.396000,-6.3471,-7.2383,0.3410,9.633
3.402000,-6.3147,-7.3037,0.4853,9.667
3.407000,-6.1697,-7.3672,0.6468,9.631
3.411000,-5.9791,-7.4428,0.8308,9.583
3.416000,-5.6952,-7.4450,1.0421,9.431
3.420000,-5.3322,-7.3643,1.3266,9.188
3.426000,-4.9789,-7.2901,1.5359,8.961
3.431000,-4.5707,-7.2397,1.6893,8.727
3.435000,-4.2126,-7.2324,1.7992,8.561
3.441000,-3.8498,-7.2114,1.8278,8.377
3.447000,-3.5036,-7.2657,1.8836,8.283
3.451000,-3.1643,-7.3711,1.8927,8.242
3.457000,-2.9157,-7.5805,1.8411,8.328
3.461000,-2.6807,-7.8355,1.9394,8.505
3.466000,-2.5408,-7.9492,2.0601,8.596
3.471000,-2.4050,-7.9410,2.0320,8.542
3.477000,-2.2898,-7.8659,1.9268,8.416
3.481000,-2.1498,-7.7601,1.7922,8.249
3.486000,-2.0232,-7.6770,1.6405,8.107
3.519000,-1.9575,-7.5749,1.5896,7.984
3.521000,-1.9695,-7.4689,1.5940,7.887
3.522000,-1.9845,-7.3174,1.6227,7.753
3.523000,-1.9594,-7.1041,1.6275,7.547
3.523000,-1.8895,-6.7504,1.6916,7.211
3.524000,-1.8344,-6.3344,1.7550,6.824
3.524000,-1.7341,-5.8737,1.8197,6.389
3.528000,-1.6224,-5.4314,1.8848,5.974
3.530000,-1.4584,-4.9924,1.9285,5.547
3.536000,-1.2590,-4.5487,1.9339,5.101
3.542000,-1.0289,-4.2383,1.9274,4.768
3.546000,-0.7060,-3.9042,1.9982,4.442
3.550000,-0.3574,-3.5956,2.1014,4.180
3.557000,0.0147,-3.3450,2.1967,4.002
3.560000,0.4053,-3.1223,2.2343,3.861
3.565000,0.8140,-2.9673,2.2363,3.804
3.570000,1.1887,-2.8333,2.1937,3.775
3.576000,1.5980,-2.7631,2.1260,3.835
3.580000,2.0349,-2.7752,2.0719,4.017
3.585000,2.4088,-2.8233,2.0647,4.247
3.592000,2.7815,-2.8627,2.0610,4.492
3.600000,3.0932,-2.8795,2.0270,4.687
3.601000,3.4272,-2.7619,1.9411,4.811
3.629000,3.7142,-2.6249,1.7649,4.879
3.631000,3.8965,-2.4783,1.4678,4.846
3.632000,3.9888,-2.3625,1.1434,4.775
3.632000,3.9903,-2.2814,0.9234,4.688
3.632000,3.9524,-2.1062,0.7412,4.540
3.633000,3.8905,-1.9399,0.5869,4.387
3.635000,3.7742,-1.7668,0.5420,4.202
3.640000,3.7449,-1.5956,0.5584,4.109
3.645000,3.6538,-1.4031,0.5491,3.952
3.649000,3.5605,-1.1800,0.6642,3.809
3.655000,3.3985,-0.9825,0.7622,3.619
3.660000,3.2462,-0.7973,0.8920,3.460
3.666000,3.1063,-0.4773,1.0415,3.311
3.669000,2.9642,-0.1166,1.1929,3.197
3.677000,2.8840,0.2299,1.3390,3.188
3.679000,2.7366,0.6122,1.4721,3.167
3.685000,2.7057,0.9440,1.6852,3.324
3.706000,2.6431,1.2519,1.8490,3.460
3.706000,2.5844,1.5619,1.9541,3.597
3.707000,2.5624,1.7969,2.0361,3.734
3.707000,2.5923,2.0586,2.0711,3.905
3.709000,2.5748,2.2929,2.0906,4.032
3.715000,2.5679,2.4696,2.0565,4.114
3.725000,2.5639,2.6670,2.0000,4.206
3.726000,2.5096,2.8678,1.9983,4.303
3.730000,2.4105,2.9795,1.9580,4.304
3.734000,2.3908,3.0569,1.8294,4.290
3.740000,2.4238,3.1285,1.6997,4.307
3.744000,2.4286,3.2260,1.6047,4.345
3.749000,2.3689,3.3249,1.5405,4.363
3.755000,2.2283,3.3875,1.4514,4.307
3.759000,1.9782,3.3848,1.3188,4.136
3.764000,1.6809,3.3291,1.1482,3.902
3.768000,1.2991,3.2286,0.9303,3.602
3.774000,1.0222,3.1508,0.8141,3.411
3.778000,0.7881,3.0838,0.6229,3.243
3.784000,0.6071,3.0165,0.4808,3.114
3.794000,0.4767,2.8748,0.3264,2.932
3.795000,0.4404,2.7144,0.2190,2.759
3.799000,0.4815,2.6356,0.1804,2.685
3.803000,0.5740,2.4598,0.1265,2.529
3.827000,0.6030,2.3350,0.1046,2.414
3.829000,0.6403,2.1682,0.1142,2.264
3.829000,0.6858,2.0977,0.0237,2.207
3.830000,0.8118,2.1313,-0.0495,2.281
3.830000,0.9242,2.2704,-0.0716,2.452
3.833000,1.0544,2.4411,-0.0308,2.659
3.840000,1.1829,2.5616,-0.0510,2.822
3.843000,1.3810,2.6698,-0.0224,3.006
3.848000,1.6228,2.7232,-0.0001,3.170
3.853000,1.9961,2.7644,0.0591,3.410
3.858000,2.4118,2.8478,0.1408,3.734
3.863000,2.8506,2.9448,0.1940,4.103
3.868000,3.1920,2.9948,0.1639,4.380
3.876000,3.5225,2.9550,0.1651,4.601
3.878000,3.7434,2.9016,0.1807,4.740
3.883000,3.9168,2.8152,0.2295,4.829
3.896000,4.0642,2.7703,0.2558,4.925
3.899000,4.1788,2.7477,0.2472,5.007
3.899000,4.2677,2.7164,0.1796,5.062
3.903000,4.3048,2.6812,0.0842,5.072
3.908000,4.3667,2.6353,-0.0005,5.100
3.913000,4.4917,2.6406,-0.1194,5.212
3.918000,4.6730,2.6329,-0.2630,5.370
3.927000,4.8742,2.6383,-0.3497,5.553
3.929000,5.0380,2.5613,-0.5324,5.677
3.936000,5.1932,2.4353,-0.7105,5.780
3.939000,5.3826,2.2627,-0.9004,5.908
3.942000,5.5153,2.1010,-1.0950,6.003
3.948000,5.5797,1.9695,-1.3156,6.062
3.952000,5.5877,1.9087,-1.4563,6.082
3.958000,5.6329,1.8613,-1.5890,6.142
3.962000,5.7391,1.8658,-1.7325,6.279
3.967000,5.8107,1.9602,-1.7909,6.389
3.973000,5.9360,2.0368,-1.8575,6.545
3.977000,6.0191,2.0931,-1.9509,6.665
3.982000,6.1509,2.1769,-2.0206,6.830
3.987000,6.3405,2.2568,-2.1020,7.051
3.997000,6.5279,2.2897,-2.0417,7.213
3.999000,6.7201,2.2827,-2.0459,7.386
4.006000,6.8497,2.2906,-1.9710,7.487
4.032000,6.9575,2.1865,-1.8819,7.532
4.034000,7.0673,2.0160,-1.9028,7.592
4.034000,7.1841,1.7913,-1.8495,7.632
4.035000,7.3125,1.5457,-1.8156,7.691
4.036000,7.4145,1.3082,-1.7464,7.729
4.036000,7.4375,1.0500,-1.6041,7.681
4.037000,7.4317,0.7948,-1.4226,7.608
4.045000,7.4047,0.5646,-1.2909,7.538
4.047000,7.3472,0.3689,-1.1253,7.442
4.052000,7.3095,0.2389,-0.9573,7.376
4.058000,7.2799,0.1603,-0.8235,7.328
4.062000,7.3228,0.1304,-0.8023,7.368
4.066000,7.3089,0.0941,-0.7363,7.347
4.072000,7.2599,0.1352,-0.6349,7.289
4.076000,7.1540,0.1720,-0.6317,7.184
4.081000,6.9246,0.2573,-0.6261,6.958
4.086000,6.6723,0.3192,-0.6199,6.709
4.091000,6.3833,0.3965,-0.5511,6.419
4.096000,6.1177,0.5109,-0.5227,6.161
4.100000,5.8706,0.6765,-0.4840,5.929
4.110000,5.6303,0.8625,-0.4260,5.712
4.112000,5.4091,1.0117,-0.3581,5.515
4.120000,5.2447,1.2648,-0.2374,5.400
4.122000,5.1110,1.5237,-0.1383,5.335
4.134000,4.9546,1.7518,-0.0225,5.255
4.136000,4.8403,1.9471,0.0385,5.217
4.137000,4.7465,2.0616,0.1046,5.176
4.147000,4.6678,2.1114,0.1997,5.127
4.148000,4.5757,2.0563,0.2546,5.023
4.151000,4.4394,1.9371,0.3071,4.853
4.157000,4.3540,1.7796,0.3405,4.716
4.161000,4.2700,1.5749,0.3071,4.562
4.166000,4.1891,1.2984,0.2865,4.395
4.170000,4.0520,1.0295,0.3095,4.192
4.176000,3.9168,0.6660,0.2876,3.983
4.180000,3.7949,0.2910,0.2829,3.817
4.186000,3.6773,-0.0446,0.2644,3.687
4.192000,3.6148,-0.3763,0.2964,3.646
4.196000,3.4613,-0.6515,0.3214,3.537
4.200000,3.2430,-0.8754,0.2916,3.372
4.215000,3.0370,-1.0381,0.2383,3.218
4.216000,2.7814,-1.1728,0.1956,3.025
4.217000,2.5509,-1.2788,0.1519,2.858
4.220000,2.3425,-1.3402,0.1079,2.701
4.225000,2.0636,-1.4041,0.0592,2.497
4.231000,1.8581,-1.4916,0.0201,2.383
4.235000,1.6990,-1.5173,-0.0353,2.278
4.240000,1.4843,-1.5352,-0.0454,2.136
4.245000,1.2827,-1.5150,0.0167,1.985
4.250000,1.1448,-1.4589,0.0257,1.855
4.257000,1.0252,-1.3952,0.0319,1.732
4.260000,0.8947,-1.3461,0.1238,1.621
4.265000,0.7129,-1.3472,0.1286,1.530
4.270000,0.5662,-1.2712,0.1751,1.403
4.276000,0.4014,-1.1647,0.2469,1.256
4.280000,0.2522,-1.1060,0.3436,1.185
4.285000,0.1500,-1.0111,0.4529,1.118
4.290000,0.0248,-0.9213,0.5322,1.064
4.295000,-0.0273,-0.9079,0.6763,1.132
4.300000,-0.0667,-0.8233,0.7993,1.149
4.311000,-0.0765,-0.7845,0.9322,1.221
4.313000,-0.0616,-0.8295,1.0358,1.328
4.315000,-0.1344,-0.8820,1.1747,1.475
4.320000,-0.2021,-0.8876,1.3654,1.641
4.345000,-0.3196,-0.8915,1.4326,1.717
4.347000,-0.4174,-0.8651,1.5030,1.784
4.347000,-0.5026,-0.8269,1.5833,1.856
4.348000,-0.5566,-0.8211,1.5830,1.868
4.348000,-0.6630,-0.8282,1.6071,1.926
4.350000,-0.7139,-0.8333,1.5644,1.911
4.354000,-0.7601,-0.9095,1.5631,1.962
4.360000,-0.8134,-0.9893,1.5986,2.048
4.364000,-0.8880,-1.0675,1.6248,2.137
4.369000,-0.9747,-1.1502,1.6160,2.210
4.375000,-1.0779,-1.2575,1.6580,2.344
4.380000,-1.2145,-1.3572,1.6915,2.486
4.385000,-1.3174,-1.4701,1.7118,2.613
4.390000,-1.5011,-1.5766,1.7142,2.771
4.395000,-1.6604,-1.7039,1.7953,2.980
4.402000,-1.8381,-1.8465,1.8574,3.200
4.410000,-2.0339,-2.0492,1.9312,3.474
4.412000,-2.1236,-2.2312,1.9957,3.670
4.413000,-2.2337,-2.4009,2.0770,3.882
4.419000,-2.3693,-2.5545,2.1729,4.106
4.436000,-2.4822,-2.6818,2.2422,4.287
4.437000,-2.6082,-2.7701,2.2255,4.408
4.438000,-2.6925,-2.8803,2.2022,4.516
4.446000,-2.7709,-2.9881,2.2366,4.649
4.447000,-2.8839,-3.1072,2.2401,4.795
4.449000,-3.0103,-3.2960,2.2867,5.015
4.454000,-3.1881,-3.4215,2.3666,5.241
4.459000,-3.3121,-3.6043,2.4290,5.465
4.463000,-3.4208,-3.7477,2.4209,5.622
4.468000,-3.5044,-3.8869,2.4567,5.781
4.475000,-3.5658,-3.9919,2.4957,5.906
4.479000,-3.6861,-4.1363,2.6019,6.121
4.484000,-3.8296,-4.3171,2.6479,6.349
4.490000,-3.9436,-4.4272,2.6773,6.505
4.494000,-4.0162,-4.5234,2.6849,6.618
4.499000,-4.0833,-4.6482,2.7022,6.751
4.504000,-4.1426,-4.8002,2.7271,6.902
4.508000,-4.1843,-4.9754,2.7141,7.045
4.513000,-4.2254,-5.1342,2.6372,7.153
4.519000,-4.2324,-5.3215,2.5013,7.245
4.528000,-4.2196,-5.4941,2.3403,7.312
4.530000,-4.1966,-5.7242,2.2334,7.441
4.533000,-4.1253,-5.9731,2.1401,7.568
4.559000,-4.1014,-6.2117,1.9788,7.702
4.561000,-4.0315,-6.4646,1.7904,7.826
4.561000,-4.0425,-6.6617,1.6707,7.969
4.562000,-4.1511,-6.8850,1.5481,8.187
4.562000,-4.2326,-7.0907,1.5136,8.395
4.565000,-4.3422,-7.1966,1.5622,8.549
4.568000,-4.4464,-7.2605,1.7057,8.683
4.573000,-4.5380,-7.3701,1.7688,8.834
4.577000,-4.6243,-7.4100,1.8593,8.930
4.583000,-4.7315,-7.5023,1.9556,9.083
4.588000,-4.7664,-7.5002,2.0744,9.125
4.593000,-4.7960,-7.4133,2.1271,9.082
4.597000,-4.7629,-7.2680,2.0949,8.939
4.602000,-4.7269,-7.1718,1.9949,8.818
4.608000,-4.6353,-7.1442,1.8518,8.715
4.613000,-4.4307,-7.1178,1.7546,8.566
4.617000,-4.1706,-7.1938,1.6488,8.477
4.625000,-3.8479,-7.2858,1.5367,8.382
4.628000,-3.5343,-7.3656,1.4086,8.290
4.632000,-3.0698,-7.3258,1.2189,8.036
4.637000,-2.6339,-7.2345,1.0012,7.764
4.652000,-2.3056,-7.1479,0.9112,7.566
4.654000,-2.1135,-7.0186,0.9006,7.385
4.655000,-1.9211,-6.9471,0.9259,7.267
4.661000,-1.8195,-6.9746,0.9846,7.275
4.664000,-1.7079,-7.0167,1.1123,7.307
4.667000,-1.6869,-7.0759,1.2442,7.380
4.673000,-1.7325,-7.0707,1.3843,7.410
4.677000,-1.8732,-7.0104,1.5035,7.410
4.682000,-2.0920,-6.9252,1.6565,7.422
4.687000,-2.3841,-6.7295,1.8788,7.382
4.692000,-2.6416,-6.4937,2.0696,7.310
4.697000,-2.8093,-6.1775,2.2841,7.160
4.702000,-2.9421,-5.8683,2.5338,7.037
4.707000,-2.9946,-5.4687,2.7400,6.810
4.712000,-3.0288,-5.1056,2.9535,6.631
4.717000,-3.0254,-4.7255,3.0928,6.407
4.723000,-2.9388,-4.3937,3.2257,6.192
4.727000,-2.7402,-4.0481,3.2501,5.870
4.732000,-2.4775,-3.7848,3.2436,5.566
4.736000,-2.0740,-3.5817,3.1778,5.218
4.742000,-1.5823,-3.4325,3.0054,4.829
4.746000,-0.9477,-3.2542,2.7801,4.384
4.751000,-0.3788,-3.0725,2.4860,3.970
4.760000,0.1652,-2.9230,2.1849,3.653
4.761000,0.6267,-2.8358,1.9440,3.495
4.766000,1.0293,-2.7397,1.5262,3.301
4.771000,1.3777,-2.7263,1.1376,3.260
4.786000,1.6411,-2.7396,0.7446,3.279
4.788000,1.8360,-2.8114,0.3113,3.372
4.789000,1.9144,-2.8443,-0.0213,3.429
4.791000,1.9654,-2.7485,-0.3974,3.402
4.796000,1.9599,-2.6588,-0.7598,3.389
4.801000,1.9335,-2.4947,-1.0704,3.333
4.807000,1.8797,-2.3146,-1.3579,3.276
4.811000,1.7958,-2.1287,-1.6507,3.237
4.816000,1.7221,-1.9519,-1.8226,3.178
4.820000,1.6497,-1.7136,-1.9579,3.081
4.826000,1.5876,-1.5079,-2.0645,3.009
4.830000,1.5331,-1.2827,-2.1473,2.934
4.836000,1.4725,-1.0439,-2.1497,2.807
4.841000,1.4263,-0.8168,-2.1104,2.675
4.846000,1.4144,-0.5168,-2.0658,2.556
4.851000,1.4050,-0.2043,-1.9204,2.388
4.876000,1.3930,0.0625,-1.7411,2.231
4.877000,1.3644,0.2987,-1.5593,2.093
4.878000,1.2782,0.5350,-1.3527,1.936
4.878000,1.2562,0.7519,-1.1857,1.884
4.878000,1.2249,0.9696,-0.9532,1.830
4.880000,1.2241,1.1893,-0.7093,1.848
4.885000,1.2830,1.3785,-0.4542,1.937
4.892000,1.3104,1.6396,-0.2161,2.110
4.896000,1.3439,1.8568,-0.0044,2.292
4.900000,1.3385,2.0381,0.1928,2.446
4.909000,1.3011,2.2691,0.2540,2.628
4.911000,1.1834,2.4084,0.3067,2.701
4.916000,1.0653,2.4929,0.3339,2.731
4.921000,0.9127,2.6011,0.3002,2.773
4.925000,0.7671,2.6693,0.1552,2.782
4.931000,0.6712,2.7118,-0.0050,2.794
4.935000,0.5100,2.6829,-0.2112,2.739
4.940000,0.4420,2.6888,-0.3679,2.750
4.946000,0.3762,2.6481,-0.5944,2.740
4.950000,0.3339,2.6204,-0.7594,2.749
4.961000,0.3085,2.5898,-0.8822,2.753
4.963000,0.3186,2.5271,-0.9845,2.731
4.965000,0.3433,2.4807,-1.0782,2.727
4.971000,0.3153,2.4481,-1.1151,2.709
5.000000,0.2874,2.4173,-1.0473,2.650
5.001000,0.3486,2.2862,-0.9944,2.517
5.002000,0.4343,2.2534,-0.8989,2.465
5.002000,0.6185,2.2133,-0.7396,2.414
5.003000,0.8871,2.2502,-0.6029,2.493
5.003000,1.1842,2.2771,-0.4674,2.609
5.009000,1.4909,2.2990,-0.3858,2.767
5.010000,1.7348,2.3343,-0.2722,2.921
5.016000,1.9014,2.2991,-0.1987,2.990
5.019000,2.0773,2.2896,-0.0862,3.093
5.025000,2.1425,2.2934,0.0268,3.139
5.030000,2.1928,2.2962,0.1328,3.178
5.034000,2.3030,2.3585,0.2626,3.307
5.039000,2.4054,2.3744,0.3895,3.402
5.050000,2.6203,2.2275,0.4675,3.471
5.051000,2.6576,2.2641,0.4770,3.524
5.054000,2.8170,2.2433,0.5112,3.637
5.060000,2.9902,2.2768,0.4980,3.791
5.065000,3.1317,2.3383,0.5283,3.944
5.069000,3.2719,2.4177,0.5065,4.100
5.076000,3.3493,2.4986,0.5072,4.209
5.079000,3.4447,2.5232,0.5832,4.310
5.084000,3.5059,2.5207,0.6435,4.366
5.113000,3.6188,2.5365,0.6952,4.474
5.115000,3.7475,2.5057,0.6430,4.554
5.115000,3.8945,2.4169,0.5950,4.622
5.116000,4.0646,2.3249,0.5274,4.712
5.116000,4.2484,2.2373,0.5384,4.832
5.117000,4.4289,2.1226,0.4390,4.931
5.119000,4.5869,1.9714,0.3252,5.003
5.124000,4.7153,1.8602,0.2569,5.075
5.129000,4.8286,1.7412,0.1914,5.137
5.134000,4.9793,1.5786,0.1474,5.226
5.141000,5.0531,1.4779,0.0345,5.265
5.144000,5.1172,1.4489,-0.0329,5.318
5.148000,5.2096,1.4530,-0.1190,5.410
5.153000,5.3592,1.4544,-0.2045,5.557
5.158000,5.5060,1.5200,-0.1719,5.715
5.163000,5.6499,1.5611,-0.2580,5.867
5.168000,5.8316,1.6113,-0.3525,6.060
5.175000,6.0673,1.7036,-0.4048,6.315
5.179000,6.3092,1.7663,-0.4461,6.567
5.183000,6.5399,1.7775,-0.4667,6.793
5.206000,6.7379,1.7013,-0.4877,6.966
5.209000,6.9270,1.6119,-0.5332,7.132
5.209000,7.1336,1.5020,-0.5433,7.310
5.210000,7.3545,1.3523,-0.4465,7.491
5.210000,7.4943,1.2058,-0.3674,7.600
5.213000,7.6845,1.0338,-0.3037,7.760
5.218000,7.8056,0.8557,-0.1430,7.854
5.226000,8.0060,0.7861,0.0135,8.044
5.228000,8.1584,0.6958,0.1513,8.189
5.233000,8.2368,0.5823,0.3154,8.263
5.239000,8.2961,0.5317,0.4289,8.324
5.244000,8.2718,0.4889,0.5346,8.303
5.248000,8.2575,0.4423,0.5967,8.291
5.254000,8.2555,0.4205,0.6485,8.292
5.258000,8.2445,0.4356,0.6734,8.283
5.262000,8.2435,0.5161,0.6711,8.287
5.267000,8.1474,0.6285,0.7064,8.202
5.272000,8.0136,0.7345,0.7720,8.084
5.277000,7.9067,0.9415,0.9586,8.020
5.282000,7.7357,1.2401,1.1509,7.919
5.287000,7.5341,1.5821,1.3673,7.819
5.295000,7.2731,1.9625,1.6173,7.705
5.297000,7.0841,2.3645,1.8526,7.695
5.302000,6.9166,2.7137,2.0707,7.713
5.315000,6.7705,3.0724,2.2357,7.764
5.316000,6.6858,3.3440,2.3074,7.823
5.317000,6.6431,3.5047,2.3553,7.872
5.324000,6.5800,3.5400,2.3511,7.833
5.327000,6.5630,3.4733,2.2781,7.767
5.332000,6.4345,3.2356,2.2251,7.538
5.336000,6.2733,2.8770,2.1561,7.231
5.342000,6.0609,2.4480,2.0378,6.847
5.346000,5.8627,2.0189,1.8054,6.458
5.351000,5.6472,1.6678,1.5409,6.087
5.357000,5.4293,1.3641,1.2735,5.741
5.362000,5.1501,1.0388,1.0061,5.349
5.366000,4.8688,0.7176,0.7776,4.982
5.373000,4.5386,0.4322,0.5503,4.592
5.377000,4.1938,0.1739,0.3082,4.209
5.382000,3.9106,-0.0674,0.1162,3.913
5.388000,3.5898,-0.3145,-0.1444,3.606
5.393000,3.3051,-0.5368,-0.3729,3.369
5.398000,2.9686,-0.7457,-0.5831,3.116
5.403000,2.6074,-0.8591,-0.8510,2.874
5.412000,2.2999,-0.9566,-1.0306,2.696
5.414000,1.9966,-0.9992,-1.1840,2.527
5.421000,1.7195,-1.0054,-1.3565,2.410
5.423000,1.4201,-1.0237,-1.4836,2.295
5.457000,1.1474,-0.9811,-1.5345,2.153
5.459000,0.9101,-0.9001,-1.5475,2.008
5.461000,0.7397,-0.8136,-1.5709,1.917
5.462000,0.5886,-0.7164,-1.4901,1.755
5.462000,0.5277,-0.6070,-1.3677,1.587
5.463000,0.4902,-0.5141,-1.1589,1.359
5.464000,0.5022,-0.3894,-0.9626,1.153
5.464000,0.5225,-0.2962,-0.6763,0.905
5.466000,0.6157,-0.2341,-0.4089,0.775
5.470000,0.6255,-0.1660,-0.1198,0.658
5.476000,0.6476,-0.1418,0.1665,0.684
5.482000,0.6224,-0.0754,0.4109,0.750
5.486000,0.5348,-0.0779,0.6711,0.862
5.493000,0.4664,-0.1010,0.8770,0.998
5.496000,0.3936,-0.1513,1.1070,1.185
5.500000,0.2823,-0.2226,1.2920,1.341
5.519000,0.1689,-0.2613,1.4621,1.495
5.520000,0.0169,-0.3474,1.5267,1.566
5.521000,-0.1446,-0.4276,1.5889,1.652
5.521000,-0.3056,-0.4681,1.7013,1.791
5.527000,-0.4500,-0.5607,1.8095,1.947
5.531000,-0.6108,-0.6594,1.8561,2.062
5.536000,-0.7566,-0.7614,1.9035,2.185
5.540000,-0.9287,-0.8771,1.8900,2.281
5.546000,-1.1165,-1.0363,1.8856,2.424
5.550000,-1.2990,-1.2019,1.8453,2.557
5.556000,-1.4304,-1.3778,1.8391,2.707
5.560000,-1.5772,-1.5131,1.8238,2.847
5.566000,-1.7947,-1.7043,1.7426,3.027
5.570000,-1.9248,-1.9008,1.6891,3.189
5.576000,-2.0127,-2.0658,1.6274,3.312
5.580000,-2.1568,-2.2674,1.5674,3.500
5.585000,-2.2801,-2.5089,1.5544,3.730
5.590000,-2.3924,-2.7579,1.5547,3.968
5.595000,-2.5153,-2.9396,1.5990,4.186
5.600000,-2.5791,-3.0843,1.6553,4.348
5.606000,-2.6968,-3.2316,1.7429,4.556
5.610000,-2.8467,-3.3666,1.7708,4.751
5.615000,-2.9829,-3.4572,1.8655,4.933
5.620000,-3.0986,-3.4951,1.9081,5.046
5.626000,-3.2319,-3.5746,1.9791,5.210
5.630000,-3.3639,-3.6491,2.0552,5.372
5.635000,-3.5088,-3.7823,2.1835,5.602
5.659000,-3.5924,-3.9134,2.3060,5.791
5.661000,-3.5386,-4.0173,2.4107,5.871
5.661000,-3.5462,-4.1007,2.4227,5.938
5.662000,-3.5982,-4.1894,2.4758,6.052
5.662000,-3.6424,-4.2751,2.4719,6.136
5.665000,-3.6860,-4.4268,2.4633,6.265
5.669000,-3.7145,-4.5480,2.4023,6.345
5.675000,-3.7544,-4.7257,2.3568,6.479
5.680000,-3.8172,-4.9515,2.4295,6.708
5.685000,-3.7980,-5.2286,2.4220,6.901
5.689000,-3.7374,-5.5248,2.4709,7.113
5.695000,-3.6353,-5.8467,2.4370,7.303
5.699000,-3.5302,-6.1492,2.4807,7.512
5.704000,-3.4965,-6.4470,2.5038,7.750
5.710000,-3.5363,-6.7060,2.4824,7.977
5.714000,-3.6233,-6.8806,2.4162,8.143
5.719000,-3.7480,-7.0683,2.4290,8.361
5.727000,-3.9177,-7.1884,2.3388,8.514
5.730000,-4.1250,-7.2021,2.3110,8.616
5.735000,-4.3533,-7.1330,2.2976,8.667
5.762000,-4.5952,-7.0219,2.3417,8.712
5.764000,-4.8222,-6.9663,2.3642,8.796
5.765000,-5.0268,-6.9418,2.3969,8.900
5.765000,-5.1350,-6.9050,2.5188,8.966
5.766000,-5.0679,-6.9460,2.6368,8.993
5.766000,-4.8304,-6.9883,2.6984,8.914
5.769000,-4.5114,-7.0369,2.6799,8.778
5.775000,-4.2015,-7.0059,2.6393,8.585
5.779000,-3.9347,-6.9442,2.5453,8.378
5.784000,-3.7658,-6.8859,2.4602,8.225
5.792000,-3.6373,-6.8815,2.3150,8.121
5.795000,-3.6353,-6.8879,2.1144,8.070
5.798000,-3.6855,-6.9435,1.9373,8.096
5.803000,-3.7257,-7.0240,1.8025,8.153
5.810000,-3.6673,-7.0575,1.6573,8.124
5.814000,-3.5177,-7.0797,1.5832,8.062
5.818000,-3.3174,-7.0694,1.5539,7.962
5.837000,-3.1240,-6.9859,1.5139,7.801
5.839000,-2.9877,-6.9254,1.4684,7.684
5.839000,-2.8820,-6.8500,1.3841,7.559
5.839000,-2.7399,-6.7761,1.3020,7.424
5.843000,-2.6188,-6.6631,1.2482,7.267
5.848000,-2.6670,-6.4852,1.1912,7.113
5.853000,-2.8413,-6.2404,1.2261,6.966
5.858000,-3.0721,-5.9303,1.2946,6.803
5.863000,-3.2853,-5.6009,1.3299,6.628
5.868000,-3.3683,-5.1699,1.3821,6.323
5.875000,-3.3137,-4.7037,1.6016,5.972
5.878000,-3.1839,-4.1989,1.8744,5.593
5.883000,-2.9696,-3.7130,2.0952,5.196
5.887000,-2.6993,-3.3568,2.2168,4.844
5.894000,-2.4736,-3.0555,2.2873,4.548
5.898000,-2.1751,-2.8818,2.2861,4.273
5.903000,-1.8997,-2.7763,2.1776,4.007
5.910000,-1.6042,-2.7241,2.0121,3.747
5.913000,-1.3319,-2.7859,1.8045,3.576
5.918000,-1.0708,-2.7974,1.5023,3.351
5.929000,-0.7491,-2.8559,1.1945,3.185
5.930000,-0.5319,-3.0193,0.9124,3.199
5.933000,-0.4001,-3.1876,0.5918,3.267
5.937000,-0.2983,-3.3694,0.2947,3.395
5.968000,-0.2099,-3.4791,-0.0285,3.486
5.971000,-0.0702,-3.5862,-0.3103,3.600
5.972000,0.0637,-3.6707,-0.6271,3.724
5.972000,0.1772,-3.7186,-0.8784,3.825
5.973000,0.2678,-3.7808,-1.1046,3.948
5.974000,0.3335,-3.7726,-1.3325,4.015
5.975000,0.3285,-3.7143,-1.5883,4.053
5.983000,0.3011,-3.6359,-1.7770,4.058
5.984000,0.1699,-3.4877,-1.9201,3.985
5.987000,0.0663,-3.2678,-1.9417,3.802
5.993000,-0.0237,-2.9777,-1.8931,3.529
5.997000,-0.1388,-2.6879,-1.8009,3.238
6.003000,-0.2905,-2.3590,-1.6850,2.914
6.007000,-0.3808,-2.0562,-1.4450,2.542
6.013000,-0.3863,-1.7057,-1.2006,2.121
6.018000,-0.3758,-1.4047,-1.0096,1.770
6.023000,-0.3810,-1.1279,-0.8316,1.452
6.026000,-0.2723,-0.8386,-0.5639,1.047
6.033000,-0.1315,-0.5759,-0.3339,0.679
6.037000,-0.0570,-0.3496,-0.0508,0.358
6.043000,0.0417,-0.0864,0.1130,0.148
6.050000,0.1196,0.1714,0.2700,0.341
6.051000,0.1976,0.4943,0.4181,0.677
6.062000,0.2090,0.7323,0.5333,0.930
6.063000,0.2589,0.9710,0.5471,1.144
6.067000,0.2870,1.1715,0.6515,1.371
6.094000,0.3538,1.3157,0.7125,1.537
6.096000,0.4013,1.4339,0.7210,1.654
6.096000,0.4938,1.5475,0.7924,1.807
6.096000,0.5338,1.6237,0.8617,1.914
6.097000,0.5684,1.7335,0.8501,2.013
6.099000,0.6079,1.8730,0.8414,2.141
6.102000,0.5513,1.9220,0.7830,2.147
6.107000,0.4944,1.9357,0.6773,2.110
6.111000,0.4474,1.9508,0.5314,2.071
6.116000,0.3933,1.9480,0.3625,2.020
6.122000,0.3870,1.9989,0.1324,2.040
6.126000,0.4005,2.0087,-0.0558,2.049
6.131000,0.4211,2.0390,-0.2570,2.098
6.136000,0.5023,2.0953,-0.4589,2.203
6.145000,0.6365,2.0744,-0.6544,2.266
6.147000,0.7825,2.0575,-0.8766,2.369
6.151000,0.9771,2.0187,-0.9677,2.443
6.172000,1.1525,1.9555,-1.0593,2.505
6.173000,1.2919,1.8961,-1.1227,2.554
6.174000,1.4463,1.8150,-1.0887,2.563
6.174000,1.6316,1.7570,-1.0178,2.605
6.176000,1.8843,1.7753,-0.9603,2.761
6.181000,2.1010,1.7690,-0.7776,2.854
6.185000,2.3076,1.7998,-0.5229,2.973
6.190000,2.4929,1.8755,-0.2490,3.130
6.196000,2.6636,1.9646,-0.0159,3.310
6.200000,2.8000,2.0308,0.1786,3.464
6.208000,2.9819,2.0412,0.3846,3.634
6.210000,3.1296,2.1318,0.5350,3.824
6.216000,3.3514,2.1905,0.6465,4.056
6.222000,3.5629,2.2147,0.7000,4.253
6.226000,3.7542,2.2350,0.7936,4.441
6.231000,3.9113,2.2400,0.7211,4.565
6.235000,4.2395,2.2986,0.7555,4.881
6.243000,4.6066,2.3147,0.7936,5.216
6.245000,4.8669,2.3340,0.7731,5.453
6.253000,5.0148,2.2771,0.7565,5.559
6.280000,5.1134,2.2018,0.7606,5.619
6.282000,5.1530,2.1514,0.7116,5.629
6.282000,5.1910,2.0275,0.6955,5.616
6.283000,5.2188,1.8719,0.7410,5.594
6.283000,5.2987,1.7469,0.7404,5.628
6.284000,5.4138,1.6380,0.6481,5.693
6.285000,5.5791,1.5793,0.5625,5.825
6.291000,5.7654,1.5297,0.4597,5.983
6.295000,5.9849,1.5684,0.4161,6.201
6.300000,6.1892,1.6684,0.2978,6.417
6.307000,6.3859,1.7320,0.1934,6.619
6.309000,6.5792,1.9024,0.1436,6.850
6.315000,6.7711,2.0952,0.1007,7.089
6.319000,6.9114,2.2747,-0.0068,7.276
6.325000,7.0214,2.5149,-0.0546,7.458
6.331000,7.2514,2.7124,-0.1333,7.743
6.335000,7.4912,2.8269,-0.2069,8.010
6.342000,7.6830,2.8747,-0.3133,8.209
6.345000,7.8884,2.8842,-0.3617,8.407
6.349000,8.0861,2.8509,-0.3665,8.582
6.354000,8.2945,2.7743,-0.3804,8.754
6.379000,8.5133,2.6855,-0.3747,8.935
6.381000,8.7019,2.5031,-0.3925,9.063
6.381000,8.8289,2.3419,-0.3003,9.139
6.382000,8.9350,2.1946,-0.2299,9.203
6.382000,9.0012,2.0350,-0.2487,9.232
6.385000,9.0083,1.8630,-0.2370,9.202
6.391000,8.9419,1.6811,-0.2406,9.102
6.394000,8.7907,1.5133,-0.2593,8.924
6.401000,8.5335,1.3480,-0.3194,8.645
6.405000,8.2495,1.1828,-0.4091,8.344
6.409000,7.9179,1.1233,-0.4612,8.010
6.414000,7.5798,1.1077,-0.5114,7.677
6.419000,7.2330,1.1310,-0.5598,7.342
6.424000,6.9331,1.1746,-0.5317,7.052
6.429000,6.6440,1.2430,-0.4993,6.778
6.433000,6.3804,1.3820,-0.4550,6.544
6.439000,6.1282,1.6012,-0.3176,6.342
6.444000,5.9012,1.8330,-0.1688,6.182
6.449000,5.6851,2.0967,-0.0565,6.060
6.454000,5.4467,2.3541,0.0478,5.934
6.459000,5.2521,2.6357,0.1611,5.879
6.464000,5.1067,2.8604,0.1781,5.856
6.469000,4.9595,2.9920,0.2281,5.797
6.477000,4.8775,3.0185,0.1821,5.739
6.479000,4.7701,3.0143,0.1052,5.644
6.484000,4.6677,2.9502,-0.0765,5.522
6.518000,4.6185,2.7740,-0.2667,5.394
6.519000,4.5502,2.5258,-0.5322,5.231
6.520000,4.4297,2.2513,-0.7934,5.032
6.521000,4.2815,1.9583,-1.0258,4.819
6.525000,4.1553,1.6366,-1.2244,4.631
6.526000,3.9897,1.2868,-1.3793,4.413
6.526000,3.8522,0.9405,-1.5091,4.243
6.528000,3.7377,0.5880,-1.5754,4.099
6.528000,3.6325,0.2486,-1.6497,3.997
6.533000,3.4893,-0.1126,-1.6794,3.874
6.540000,3.3846,-0.4457,-1.6645,3.798
6.543000,3.2227,-0.7388,-1.6241,3.684
6.552000,3.0736,-1.0320,-1.5892,3.611
6.553000,2.9017,-1.1983,-1.5432,3.498
6.562000,2.7650,-1.3208,-1.5221,3.422
6.565000,2.6679,-1.4003,-1.4251,3.333
6.568000,2.5819,-1.4959,-1.2357,3.230
6.596000,2.5504,-1.5236,-1.0671,3.157
6.598000,2.5489,-1.4700,-0.8093,3.052
6.599000,2.5729,-1.4182,-0.5569,2.990
6.599000,2.5620,-1.3378,-0.2984,2.906
6.599000,2.5994,-1.1961,-0.0268,2.862
6.600000,2.6277,-1.0792,0.1874,2.847
6.603000,2.6635,-0.9323,0.3942,2.849
6.610000,2.6008,-0.8041,0.6655,2.802
6.613000,2.5092,-0.6899,0.9427,2.768
6.618000,2.3620,-0.6018,1.0987,2.674
6.624000,2.1980,-0.5275,1.3508,2.633
6.633000,1.9760,-0.4892,1.5867,2.581
6.634000,1.7801,-0.4459,1.7846,2.560
6.638000,1.5938,-0.4495,1.9582,2.564
6.644000,1.4358,-0.3957,2.1127,2.585
6.647000,1.3062,-0.4324,2.2218,2.613
6.652000,1.2031,-0.4466,2.2876,2.623
6.658000,1.0420,-0.4634,2.3276,2.592
6.664000,0.8497,-0.4870,2.3031,2.503
6.666000,0.6553,-0.5576,2.2981,2.454
6.676000,0.5015,-0.6614,2.2772,2.424
6.677000,0.2829,-0.7437,2.1787,2.319
6.682000,0.1077,-0.8328,2.0819,2.245
6.687000,-0.0862,-0.9307,2.0088,2.216
6.709000,-0.3006,-1.0202,1.9402,2.213
6.710000,-0.4884,-1.1478,1.8576,2.238
6.711000,-0.6919,-1.2982,1.7134,2.258
6.711000,-0.8487,-1.4708,1.6632,2.377
6.716000,-1.0429,-1.6070,1.6215,2.510
6.717000,-1.2285,-1.7796,1.5518,2.662
6.724000,-1.3626,-1.9027,1.4807,2.769
6.728000,-1.4981,-2.0754,1.4683,2.951
6.732000,-1.6609,-2.2155,1.4617,3.131
6.737000,-1.7863,-2.3587,1.5117,3.323
6.742000,-1.8573,-2.5400,1.5054,3.488
6.747000,-2.0012,-2.7178,1.5440,3.711
6.751000,-2.1290,-2.9535,1.6270,3.988
6.757000,-2.2932,-3.2293,1.7137,4.316
6.762000,-2.4126,-3.4791,1.8852,4.634
6.766000,-2.5661,-3.7211,2.0855,4.978
6.777000,-2.7727,-3.8565,2.2057,5.237
6.779000,-2.9467,-3.9916,2.3317,5.482
6.782000,-3.1215,-4.0684,2.3627,5.646
6.786000,-3.2851,-4.1791,2.4179,5.840
6.812000,-3.5213,-4.2988,2.4811,6.086
6.814000,-3.7439,-4.3589,2.5518,6.287
6.815000,-3.9029,-4.4777,2.6041,6.486
6.815000,-4.0341,-4.5801,2.6234,6.643
6.816000,-4.1135,-4.6559,2.6910,6.771
6.819000,-4.2493,-4.7494,2.7424,6.938
6.822000,-4.4267,-4.8331,2.7605,7.112
6.826000,-4.5696,-4.9438,2.7361,7.267
6.832000,-4.7207,-5.0185,2.7078,7.403
6.836000,-4.8466,-5.0972,2.6903,7.531
6.842000,-4.8829,-5.1879,2.6957,7.617
6.846000,-4.9251,-5.2709,2.6694,7.692
6.850000,-4.9830,-5.4435,2.6472,7.840
6.858000,-5.0804,-5.6586,2.6460,8.052
6.862000,-5.1267,-5.8343,2.6104,8.194
6.866000,-5.1313,-5.9700,2.5330,8.270
6.871000,-5.1569,-6.0953,2.4615,8.355
6.876000,-5.1866,-6.2645,2.3432,8.464
6.881000,-5.2636,-6.4804,2.2450,8.645
6.885000,-5.3807,-6.6823,2.1426,8.843
6.896000,-5.5164,-6.8556,2.0670,9.039
6.898000,-5.6015,-7.0147,2.0775,9.214
6.901000,-5.7723,-7.1183,2.0661,9.395
6.940000,-5.8783,-7.1641,2.0921,9.500
6.942000,-6.0343,-7.1588,2.1675,9.610
6.942000,-6.1636,-7.1424,2.2279,9.694
6.943000,-6.2663,-7.0527,2.2591,9.701
6.944000,-6.3255,-6.9375,2.3023,9.667
6.945000,-6.2647,-6.8468,2.2720,9.554
6.946000,-6.1005,-6.7254,2.2006,9.343
6.947000,-5.8999,-6.6577,2.1337,9.148
6.948000,-5.6295,-6.6270,2.0003,8.922
6.950000,-5.3108,-6.5859,1.8152,8.653
6.957000,-4.9414,-6.5657,1.6457,8.381
6.961000,-4.6002,-6.5408,1.5209,8.140
6.965000,-4.2801,-6.5353,1.3518,7.928
6.970000,-3.9762,-6.6076,1.1033,7.790
6.975000,-3.6837,-6.6711,0.8873,7.672
6.980000,-3.3836,-6.6641,0.7086,7.507
6.985000,-3.0830,-6.6754,0.5141,7.371
6.995000,-2.7725,-6.6913,0.3347,7.251
6.997000,-2.5046,-6.8077,0.0151,7.254
7.000000,-2.3103,-7.0001,-0.2078,7.374
7.022000,-2.0388,-7.1347,-0.3744,7.430
7.024000,-1.9055,-7.1907,-0.3947,7.449
7.024000,-1.9293,-7.1938,-0.3941,7.458
7.025000,-2.1199,-7.0841,-0.3619,7.403
7.027000,-2.3813,-6.8931,-0.3276,7.300
7.030000,-2.5626,-6.5596,-0.2295,7.046
7.034000,-2.6182,-6.0262,-0.0768,6.571
7.040000,-2.4454,-5.4586,0.0473,5.981
7.045000,-2.0822,-4.8013,0.2540,5.240
7.052000,-1.6583,-4.2144,0.4296,4.549
7.054000,-1.2691,-3.7216,0.6681,3.988
7.060000,-0.9268,-3.3336,0.8741,3.569
7.064000,-0.5792,-3.0613,1.0193,3.278
7.069000,-0.3047,-2.9012,1.0941,3.116
7.076000,-0.0200,-2.7917,1.1846,3.033
7.080000,0.2245,-2.7649,1.2332,3.036
7.085000,0.4314,-2.7789,1.2110,3.062
7.094000,0.5551,-2.8276,1.1134,3.089
7.095000,0.6725,-2.9287,1.0720,3.190
7.099000,0.7501,-3.0802,0.9074,3.298
7.125000,0.8740,-3.3083,0.7706,3.508
7.126000,0.9994,-3.5301,0.6618,3.728
7.126000,1.1857,-3.7034,0.5572,3.928
7.127000,1.3880,-3.8246,0.4543,4.094
7.128000,1.5463,-3.8848,0.3200,4.193
7.128000,1.7251,-3.9563,0.0658,4.317
7.134000,1.8701,-3.9014,-0.0441,4.327
7.138000,2.1005,-3.8315,-0.1389,4.372
7.144000,2.3186,-3.6096,-0.1947,4.295
7.148000,2.5407,-3.2989,-0.2164,4.170
7.154000,2.7354,-2.9528,-0.1855,4.029
7.159000,2.7755,-2.6488,-0.1168,3.838
7.163000,2.7453,-2.3261,-0.0400,3.598
7.169000,2.7229,-1.9934,0.0538,3.375
7.174000,2.7134,-1.6113,0.2331,3.164
7.178000,2.7114,-1.2214,0.3508,2.994
7.183000,2.6878,-0.7885,0.4276,2.834
7.189000,2.6712,-0.3983,0.5180,2.750
7.193000,2.5488,-0.0466,0.5616,2.610
7.197000,2.4158,0.2876,0.6251,2.512
7.202000,2.2846,0.6077,0.7129,2.469
7.209000,2.1641,0.9291,0.7580,2.474
7.213000,2.0809,1.2076,0.8464,2.550
7.218000,1.9748,1.4855,0.8683,2.619
7.247000,1.7883,1.7386,0.8983,2.651
7.249000,1.6535,1.8960,0.8719,2.663
7.249000,1.4649,2.0221,0.8519,2.638
7.250000,1.3397,2.1144,0.8506,2.644
7.250000,1.2377,2.2121,0.7415,2.641
7.251000,1.1205,2.3242,0.6026,2.650
7.252000,0.9741,2.4203,0.4673,2.650
7.258000,0.7939,2.4834,0.3509,2.631
7.262000,0.5796,2.5276,0.2066,2.601
7.267000,0.4063,2.5302,0.1041,2.565
7.274000,0.2524,2.5102,-0.0085,2.523
7.278000,0.1232,2.4686,-0.0907,2.473
7.283000,0.0213,2.4914,-0.1734,2.498
7.288000,-0.0132,2.4874,-0.2806,2.503
7.292000,-0.0491,2.5123,-0.4507,2.553
7.297000,-0.0247,2.4556,-0.5375,2.514
7.302000,-0.0309,2.4104,-0.6793,2.504
7.307000,0.0094,2.3871,-0.7925,2.515
7.312000,0.0697,2.3448,-0.8719,2.503
7.317000,0.2501,2.2784,-0.9894,2.497
7.335000,0.5031,2.2577,-1.0781,2.552
7.335000,0.7610,2.2749,-1.0612,2.623
7.336000,0.9427,2.2776,-1.0375,2.674
7.343000,1.0813,2.2508,-0.9905,2.686
7.345000,1.2076,2.2614,-0.9445,2.732
7.347000,1.3103,2.2072,-0.8588,2.707
7.352000,1.3606,2.2649,-0.6929,2.731
7.356000,1.4705,2.2907,-0.5907,2.785
7.361000,1.6025,2.3356,-0.4565,2.869
7.366000,1.7681,2.4064,-0.3312,3.004
7.372000,1.9096,2.5075,-0.1408,3.155
7.376000,2.0658,2.5797,0.0473,3.305
7.381000,2.2457,2.5914,0.2139,3.436
7.386000,2.4710,2.6674,0.2916,3.648
7.391000,2.7030,2.7378,0.3808,3.866
7.396000,2.9099,2.8786,0.4764,4.121
7.401000,3.0491,2.9465,0.6262,4.286
7.408000,3.1683,2.9988,0.7343,4.424
7.411000,3.3173,3.0690,0.6955,4.572
7.416000,3.4031,3.1212,0.7084,4.672
7.425000,3.4804,3.1432,0.6892,4.740
7.427000,3.5712,3.1451,0.6713,4.806
7.431000,3.6562,3.0910,0.6213,4.828
7.436000,3.8286,3.0287,0.5702,4.915
7.462000,4.1054,2.9706,0.4919,5.091
7.463000,4.4000,2.9210,0.3961,5.296
7.464000,4.7071,2.8174,0.3020,5.494
7.464000,4.9123,2.7127,0.2552,5.617
7.465000,5.0272,2.5302,0.2938,5.636
7.466000,5.1215,2.3969,0.2238,5.659
7.470000,5.1981,2.3323,0.2009,5.701
7.477000,5.2855,2.3289,0.1678,5.778
7.481000,5.4055,2.3678,0.1198,5.903
7.485000,5.4528,2.4632,0.0114,5.983
7.491000,5.5564,2.5504,-0.1185,6.115
7.495000,5.7021,2.6509,-0.2215,6.292
7.500000,5.8106,2.7621,-0.3308,6.442
7.506000,5.9301,2.8508,-0.3720,6.590
7.510000,6.1677,2.9214,-0.4240,6.838
7.515000,6.4153,2.9761,-0.4843,7.089
7.520000,6.6585,2.9573,-0.5433,7.306
7.525000,6.9494,2.9080,-0.5676,7.555
7.530000,7.2229,2.8397,-0.5571,7.781
7.535000,7.3904,2.7501,-0.5245,7.903
7.542000,7.5786,2.6270,-0.4962,8.036
7.545000,7.7251,2.5350,-0.5056,8.146
7.550000,7.8706,2.3878,-0.4741,8.239
7.577000,7.9719,2.1856,-0.4501,8.278
7.578000,8.0122,1.9760,-0.4408,8.264
7.579000,8.0441,1.7640,-0.4248,8.246
7.579000,7.9986,1.5806,-0.4762,8.167
7.580000,7.8230,1.3349,-0.5306,7.954
7.580000,7.6401,1.1829,-0.6048,7.755
7.585000,7.4187,0.9809,-0.6654,7.513
7.589000,7.1976,0.7795,-0.7863,7.282
7.595000,6.9656,0.6582,-0.8476,7.048
7.600000,6.7108,0.5522,-0.8733,6.790
7.606000,6.4598,0.6006,-0.8538,6.544
7.613000,6.2487,0.6814,-0.8252,6.340
7.615000,6.0270,0.8539,-0.7755,6.136
7.620000,5.7757,1.0800,-0.6158,5.908
7.625000,5.5381,1.3334,-0.3897,5.710
7.630000,5.2778,1.5921,-0.2047,5.516
7.635000,5.0335,1.8635,-0.0727,5.368
7.647000,4.8071,2.1496,0.0113,5.266
7.648000,4.6251,2.3167,0.0958,5.174
7.649000,4.4687,2.4176,0.1403,5.083
7.654000,4.3971,2.4064,0.1140,5.014
7.687000,4.3526,2.3312,0.0436,4.938
7.688000,4.3191,2.1729,-0.0540,4.835
7.689000,4.2718,1.9241,-0.1998,4.689
7.690000,4.2353,1.6329,-0.3601,4.553
7.690000,4.1182,1.2894,-0.5132,4.346
7.691000,4.0048,0.9394,-0.6544,4.165
7.691000,3.9267,0.5716,-0.7736,4.043
7.694000,3.7616,0.2069,-0.8087,3.853
7.699000,3.6299,-0.1706,-0.8266,3.727
7.705000,3.5106,-0.5054,-0.8128,3.639
7.709000,3.3794,-0.8146,-0.7983,3.567
7.714000,3.2828,-1.1021,-0.7499,3.543
7.720000,3.1914,-1.3350,-0.6292,3.516
7.724000,3.0628,-1.5438,-0.5345,3.471
7.729000,3.0028,-1.6443,-0.4183,3.449
7.733000,2.8910,-1.6924,-0.3071,3.364
7.741000,2.7757,-1.7067,-0.2105,3.265
7.743000,2.6094,-1.6416,-0.0982,3.084
7.748000,2.4727,-1.5123,-0.0151,2.899
7.753000,2.3424,-1.3466,0.0954,2.704
7.768000,2.2657,-1.1719,0.2192,2.560
7.769000,2.2041,-0.9999,0.3722,2.449
7.770000,2.1650,-0.7826,0.4916,2.354
7.776000,2.1046,-0.6143,0.6375,2.283
7.778000,2.0825,-0.4616,0.7521,2.262
7.783000,1.9984,-0.3193,0.9491,2.235
7.789000,1.8563,-0.1576,1.0849,2.156
7.793000,1.7524,-0.0832,1.1900,2.120
7.798000,1.6000,0.0057,1.2361,2.022
7.803000,1.4495,0.0904,1.3736,1.999
7.809000,1.3274,0.1686,1.4802,1.995
7.813000,1.1446,0.2348,1.5275,1.923
7.818000,1.0093,0.1986,1.6736,1.964
7.824000,0.9001,0.1082,1.7246,1.948
7.828000,0.7639,0.0729,1.7143,1.878
7.833000,0.5916,-0.0071,1.7120,1.811
7.840000,0.3927,-0.1037,1.7040,1.752
7.844000,0.1506,-0.1758,1.6949,1.711
7.847000,-0.0597,-0.2919,1.5991,1.627
7.853000,-0.2604,-0.3573,1.5679,1.629
7.858000,-0.4414,-0.4957,1.4746,1.617
7.863000,-0.5713,-0.6301,1.4367,1.670
7.867000,-0.7246,-0.7660,1.3303,1.698
7.875000,-0.8791,-0.9262,1.3138,1.832
7.878000,-0.9993,-1.0758,1.3824,2.017
7.882000,-1.0899,-1.2094,1.4112,2.155
7.887000,-1.2315,-1.3785,1.4550,2.352
7.902000,-1.3391,-1.5470,1.4788,2.525
7.903000,-1.4118,-1.6891,1.5151,2.672
7.904000,-1.4980,-1.8419,1.5359,2.828
7.908000,-1.6117,-2.0286,1.5697,3.029
7.912000,-1.6858,-2.2108,1.6379,3.227
7.917000,-1.6703,-2.3765,1.7329,3.382
7.923000,-1.7064,-2.5211,1.8281,3.551
7.932000,-1.7940,-2.7064,1.9351,3.780
7.937000,-1.9334,-2.8881,1.9943,4.007
7.939000,-2.0812,-2.9957,2.0508,4.185
7.943000,-2.2179,-3.1340,2.1669,4.409
7.948000,-2.3680,-3.2657,2.2972,4.642
7.952000,-2.4759,-3.3584,2.3742,4.801
7.961000,-2.6570,-3.4084,2.4675,4.977
7.963000,-2.7985,-3.5420,2.5430,5.181
7.967000,-2.9555,-3.6959,2.5813,5.391
8.002000,-3.0876,-3.7995,2.6902,5.586
8.003000,-3.3141,-3.9207,2.7418,5.820
8.003000,-3.5491,-3.9737,2.7962,6.017
8.004000,-3.7614,-4.0205,2.8960,6.221
8.007000,-3.9392,-4.0256,2.9338,6.351
8.007000,-4.0633,-4.0882,2.9021,6.453
8.008000,-4.1459,-4.1781,2.8492,6.539
8.009000,-4.2204,-4.3329,2.7824,6.658
8.011000,-4.2581,-4.4970,2.7951,6.795
8.016000,-4.3381,-4.6831,2.8201,6.979
8.022000,-4.3984,-4.8381,2.7659,7.100
8.028000,-4.4795,-4.9496,2.7453,7.218
8.031000,-4.4787,-5.0639,2.6604,7.265
8.036000,-4.5514,-5.2612,2.5522,7.410
8.042000,-4.6379,-5.4753,2.5237,7.606
8.046000,-4.6136,-5.6769,2.4817,7.725
8.058000,-4.5793,-5.9160,2.4284,7.865
8.059000,-4.5804,-6.1467,2.3138,8.007
8.062000,-4.5954,-6.3291,2.2957,8.151
8.098000,-4.6768,-6.4485,2.2931,8.289
8.099000,-4.8341,-6.5096,2.3253,8.435
8.099000,-5.0458,-6.5907,2.3466,8.626
8.100000,-5.2613,-6.6363,2.4050,8.804
8.100000,-5.4377,-6.6840,2.4984,8.971
8.101000,-5.5416,-6.6931,2.5882,9.067
8.101000,-5.5969,-6.7016,2.7055,9.141
8.103000,-5.6492,-6.6851,2.8073,9.192
8.106000,-5.7176,-6.5649,2.8336,9.155
8.111000,-5.7925,-6.5036,2.8062,9.150
8.115000,-5.8764,-6.4075,2.8377,9.145
8.121000,-5.8496,-6.3220,2.8368,9.068
8.126000,-5.6858,-6.2950,2.7513,8.918
8.131000,-5.4547,-6.2545,2.6672,8.717
8.135000,-5.0798,-6.2370,2.4651,8.413
8.141000,-4.7526,-6.2240,2.2769,8.155
8.146000,-4.4968,-6.2373,2.1215,7.977
8.151000,-4.2360,-6.2390,1.8699,7.770
8.157000,-4.0154,-6.2224,1.6926,7.597
8.161000,-3.8326,-6.2351,1.4720,7.465
8.165000,-3.6205,-6.1821,1.2329,7.270
8.173000,-3.3694,-6.1872,1.0160,7.118
8.176000,-3.0672,-6.2557,0.8028,7.013
8.180000,-2.7930,-6.3210,0.5529,6.933
8.186000,-2.5945,-6.4496,0.4096,6.964
8.196000,-2.4764,-6.5292,0.2311,6.987
8.197000,-2.4410,-6.5410,0.0696,6.982
8.201000,-2.5695,-6.5056,-0.0279,6.995
8.205000,-2.7396,-6.3230,-0.1504,6.893
8.243000,-2.8601,-6.0757,-0.2122,6.719
8.246000,-2.8664,-5.7325,-0.2227,6.413
8.247000,-2.7321,-5.3799,-0.2509,6.039
8.247000,-2.4187,-4.9908,-0.1794,5.549
8.248000,-1.9719,-4.5831,-0.1608,4.992
8.248000,-1.4637,-4.1798,-0.1825,4.432
8.249000,-0.9300,-3.8213,-0.1941,3.938
8.249000,-0.3758,-3.5115,-0.1524,3.535
8.250000,0.1292,-3.3163,-0.2894,3.331
8.257000,0.5946,-3.1874,-0.4257,3.270
8.264000,1.0465,-3.0761,-0.5703,3.299
8.266000,1.5472,-2.9291,-0.7374,3.394
8.270000,1.9862,-2.8267,-0.8405,3.556
8.275000,2.3488,-2.8036,-0.9176,3.771
8.280000,2.5781,-2.8130,-0.9903,3.942
8.285000,2.7311,-2.8657,-1.0507,4.096
8.292000,2.8730,-2.9244,-1.0416,4.230
8.294000,3.0037,-2.8962,-1.0006,4.291
8.299000,3.1588,-2.8487,-1.0212,4.374
8.304000,3.2957,-2.8020,-0.9382,4.426
8.324000,3.4429,-2.7114,-0.9312,4.480
8.325000,3.6143,-2.5248,-0.8996,4.500
8.325000,3.6715,-2.3303,-0.8176,4.425
8.326000,3.6788,-2.0903,-0.8528,4.316
8.329000,3.6549,-1.7816,-0.7636,4.137
8.334000,3.5884,-1.4392,-0.6458,3.920
8.339000,3.5095,-1.1339,-0.5267,3.726
8.345000,3.3493,-0.9026,-0.3950,3.491
8.349000,3.2464,-0.6213,-0.2635,3.316
8.354000,3.1475,-0.3361,-0.1261,3.168
8.359000,3.0456,-0.0461,0.0380,3.046
8.364000,2.9546,0.2503,0.1513,2.969
8.369000,2.8453,0.5695,0.2808,2.915
8.374000,2.7251,0.8138,0.4279,2.876
8.379000,2.5981,1.1116,0.5353,2.876
8.384000,2.4409,1.3729,0.6101,2.866
8.395000,2.2723,1.5685,0.6883,2.846
8.397000,2.1016,1.7604,0.6813,2.825
8.400000,1.9053,1.8776,0.7187,2.770
8.447000,1.6904,1.9437,0.7143,2.673
8.449000,1.4309,2.0140,0.6428,2.553
8.449000,1.1654,2.0556,0.6098,2.440
8.449000,0.9465,2.1044,0.5108,2.363
8.450000,0.7006,2.1250,0.4611,2.285
8.450000,0.4444,2.1031,0.3586,2.179
8.451000,0.2019,2.0484,0.2496,2.073
8.451000,-0.0190,1.9975,0.1414,2.003
8.452000,-0.2258,1.9744,-0.0131,1.987
8.452000,-0.4110,1.8977,-0.1127,1.945
8.453000,-0.5934,1.8255,-0.2460,1.935
8.458000,-0.7804,1.6788,-0.3170,1.878
8.463000,-0.9236,1.5610,-0.3760,1.852
8.468000,-1.0280,1.5152,-0.4303,1.881
8.474000,-1.1198,1.4840,-0.4797,1.920
8.478000,-1.2085,1.4268,-0.4695,1.928
8.483000,-1.2988,1.3678,-0.4763,1.945
8.492000,-1.3668,1.3213,-0.4380,1.951
8.496000,-1.3522,1.2809,-0.4215,1.910
8.498000,-1.3366,1.2223,-0.4415,1.864
8.503000,-1.3485,1.2200,-0.4527,1.874
8.521000,-1.2852,1.2283,-0.4386,1.831
8.523000,-1.2186,1.1920,-0.4305,1.758
8.524000,-1.1437,1.1211,-0.4069,1.652
8.524000,-1.0224,1.0634,-0.3564,1.518
8.528000,-0.8476,1.0209,-0.2624,1.353
8.533000,-0.6479,1.0276,-0.1634,1.226
8.537000,-0.5028,0.9989,0.0480,1.119
8.542000,-0.4333,1.0237,0.2759,1.145
8.548000,-0.3294,1.0183,0.4701,1.169
8.553000,-0.2416,1.0567,0.6590,1.269
8.557000,-0.1095,1.1321,0.8354,1.411
8.562000,0.0713,1.2131,1.0061,1.578
8.567000,0.2957,1.2779,1.1927,1.773
8.573000,0.4992,1.3648,1.3308,1.971
8.578000,0.6958,1.4161,1.4079,2.115
8.582000,0.9266,1.5038,1.4147,2.263
8.588000,1.1598,1.5962,1.4110,2.426
8.595000,1.3981,1.6458,1.4230,2.586
8.598000,1.5600,1.7098,1.3960,2.703
8.602000,1.7244,1.7713,1.4060,2.844
8.611000,1.8791,1.8778,1.3934,3.000
8.615000,2.0436,1.9294,1.3676,3.126
8.617000,2.2032,2.0023,1.2733,3.238
8.653000,2.3867,2.0390,1.1564,3.345
8.655000,2.6088,2.1046,0.9931,3.496
8.657000,2.9025,2.1627,0.8171,3.711
8.657000,3.1958,2.2442,0.6954,3.966
8.658000,3.5553,2.3201,0.5494,4.281
8.658000,3.9280,2.3827,0.4557,4.617
8.659000,4.2541,2.4442,0.3377,4.918
8.659000,4.5997,2.5348,0.2744,5.259
8.661000,4.8934,2.5520,0.2059,5.523
8.667000,5.1205,2.5744,0.1488,5.733
8.673000,5.3236,2.6207,0.0840,5.934
8.679000,5.4935,2.6268,-0.0054,6.089
8.682000,5.6874,2.6641,-0.0859,6.281
8.688000,5.7973,2.7300,-0.1668,6.410
8.692000,5.9286,2.8198,-0.3058,6.572
8.697000,6.0953,2.9044,-0.4522,6.767
8.702000,6.2300,3.0099,-0.5263,6.939
8.711000,6.3757,3.0715,-0.6674,7.108
8.715000,6.5010,3.0364,-0.8009,7.220
8.716000,6.6847,2.9764,-0.9268,7.376
8.757000,6.8761,2.7860,-1.0711,7.496
8.758000,7.0297,2.5178,-1.2406,7.569
8.759000,7.0882,2.1241,-1.3755,7.526
8.759000,7.1354,1.7343,-1.4376,7.483
8.760000,7.1381,1.3006,-1.4964,7.408
8.760000,7.0915,0.9163,-1.5213,7.310
8.760000,6.9412,0.4839,-1.4982,7.118
8.761000,6.7379,0.1063,-1.4847,6.900
8.761000,6.4987,-0.1396,-1.4734,6.665
8.766000,6.2626,-0.3084,-1.3738,6.419
8.772000,5.9508,-0.4505,-1.3084,6.110
8.778000,5.6689,-0.6036,-1.2866,5.844
8.781000,5.3386,-0.7075,-1.2842,5.536
8.785000,5.0483,-0.7433,-1.2249,5.248
8.791000,4.7245,-0.7201,-1.1515,4.916
8.796000,4.3646,-0.6236,-1.0623,4.535
8.800000,3.9860,-0.4800,-0.9643,4.129
8.807000,3.6314,-0.2845,-0.8150,3.733
8.812000,3.3037,-0.0894,-0.7219,3.383
8.816000,3.0173,0.1507,-0.5843,3.077
8.821000,2.8011,0.3595,-0.5214,2.872
8.827000,2.6425,0.5582,-0.4854,2.744
8.831000,2.5586,0.7326,-0.5068,2.709
8.837000,2.5557,0.8772,-0.4586,2.741
8.847000,2.4879,0.9253,-0.4556,2.693
8.848000,2.4964,0.9605,-0.5546,2.732
8.850000,2.4706,0.9560,-0.6311,2.723
8.890000,2.4370,0.9501,-0.7275,2.715
8.891000,2.4482,0.9168,-0.8121,2.737
8.891000,2.3961,0.8050,-0.9016,2.684
8.892000,2.3602,0.6562,-1.0145,2.652
8.892000,2.3399,0.4984,-1.0767,2.624
8.893000,2.3164,0.3223,-1.1715,2.616
8.893000,2.2805,0.1140,-1.2320,2.595
8.893000,2.2436,-0.1103,-1.2986,2.595
8.895000,2.1918,-0.3526,-1.3020,2.574
8.900000,2.1877,-0.5815,-1.3115,2.616
8.905000,2.1614,-0.8525,-1.2843,2.655
8.911000,2.1207,-1.0955,-1.1965,2.670
8.915000,2.1249,-1.2729,-1.0528,2.691
8.920000,2.1338,-1.4898,-0.9255,2.762
8.925000,2.1404,-1.6020,-0.7602,2.779
8.930000,2.1609,-1.7350,-0.6427,2.845
8.935000,2.2099,-1.8049,-0.5567,2.907
8.948000,2.1917,-1.9526,-0.4521,2.970
8.949000,2.1731,-2.0857,-0.3431,3.032
8.949000,2.1711,-2.2297,-0.2475,3.122
8.956000,2.1758,-2.3736,-0.1675,3.224
8.959000,2.1011,-2.5100,-0.0633,3.274
8.965000,2.0073,-2.6527,0.0551,3.327
8.969000,1.8674,-2.7527,0.1591,3.330
8.974000,1.7394,-2.8550,0.2479,3.352
8.979000,1.5660,-2.9757,0.4192,3.389
8.984000,1.4090,-3.1015,0.5770,3.455
8.990000,1.3024,-3.1499,0.7374,3.487
8.994000,1.1765,-3.2655,0.8742,3.579
8.999000,1.0313,-3.3881,1.0229,3.686
9.005000,0.9007,-3.4621,1.2188,3.779
9.009000,0.7101,-3.5030,1.3498,3.821
9.015000,0.5028,-3.6060,1.4846,3.932
9.019000,0.2937,-3.7080,1.5373,4.025
9.026000,0.0823,-3.8126,1.5770,4.127
9.029000,-0.1287,-3.9117,1.6473,4.246
9.034000,-0.3460,-4.0238,1.6999,4.382
9.073000,-0.5126,-4.2050,1.7374,4.579
9.074000,-0.7501,-4.4156,1.7785,4.819
9.074000,-0.9344,-4.6160,1.8036,5.043
9.075000,-1.1131,-4.7623,1.7619,5.198
9.075000,-1.3720,-4.8756,1.6464,5.326
9.076000,-1.6132,-4.9612,1.4569,5.416
9.076000,-1.8943,-5.0559,1.1384,5.518
9.077000,-2.1978,-5.2155,0.8110,5.717
9.079000,-2.4929,-5.3829,0.5086,5.954
9.083000,-2.7795,-5.5252,0.3071,6.193
9.089000,-3.0955,-5.7245,0.0347,6.508
9.096000,-3.4146,-5.9243,-0.2535,6.843
9.098000,-3.7533,-6.0735,-0.5117,7.158
9.104000,-4.0969,-6.2113,-0.6631,7.470
9.109000,-4.4360,-6.3389,-0.8400,7.782
9.114000,-4.7751,-6.3955,-1.0799,8.054
9.120000,-5.0712,-6.5219,-1.2007,8.348
9.125000,-5.3433,-6.6076,-1.3122,8.598
9.129000,-5.6294,-6.7087,-1.3824,8.866
9.135000,-5.9226,-6.8423,-1.4399,9.163
9.140000,-6.1728,-6.9274,-1.5398,9.405
9.143000,-6.4323,-6.9937,-1.6287,9.641
9.149000,-6.6439,-7.0292,-1.6462,9.811
9.153000,-6.8460,-7.0545,-1.6826,9.973
9.161000,-7.0315,-7.0273,-1.7354,10.091
9.166000,-7.1909,-7.0257,-1.7919,10.212
9.168000,-7.3126,-7.0235,-1.8155,10.300
9.216000,-7.4109,-7.0252,-1.8131,10.371
9.217000,-7.4431,-7.0183,-1.7840,10.385
9.218000,-7.5410,-7.0347,-1.7648,10.463
9.218000,-7.6160,-6.9785,-1.7521,10.477
9.219000,-7.6588,-6.9354,-1.6809,10.468
9.220000,-7.6912,-6.8822,-1.6087,10.445
9.220000,-7.6893,-6.8709,-1.5270,10.424
9.221000,-7.6845,-6.8280,-1.4263,10.378
9.222000,-7.6387,-6.7750,-1.3012,10.293
9.222000,-7.5185,-6.7836,-1.2017,10.198
9.224000,-7.4270,-6.7968,-1.0732,10.125
9.227000,-7.2948,-6.8075,-0.9560,10.023
9.233000,-7.1603,-6.8540,-0.8261,9.946
9.237000,-7.0163,-6.8504,-0.7080,9.831
9.242000,-6.8773,-6.8594,-0.6089,9.732
9.247000,-6.8077,-6.8881,-0.5507,9.700
9.252000,-6.7285,-6.9242,-0.4592,9.666
9.272000,-6.6898,-6.9392,-0.4068,9.647
9.273000,-6.6460,-6.8778,-0.3842,9.572
9.274000,-6.5995,-6.8187,-0.3992,9.498
9.275000,-6.4951,-6.8174,-0.4020,9.425
9.277000,-6.3495,-6.7560,-0.4095,9.281
9.282000,-6.1603,-6.7496,-0.5009,9.152
9.290000,-5.9300,-6.6649,-0.6170,8.942
9.294000,-5.6870,-6.6208,-0.6829,8.755
9.297000,-5.4840,-6.5536,-0.8118,8.584
9.303000,-5.3089,-6.5378,-0.9469,8.475
9.307000,-5.1161,-6.4771,-1.1215,8.330
9.313000,-4.9415,-6.4320,-1.2422,8.206
9.318000,-4.7683,-6.4097,-1.3472,8.102
9.323000,-4.5151,-6.3893,-1.4510,7.957
9.332000,-4.3086,-6.4035,-1.5721,7.877
9.334000,-4.0842,-6.4340,-1.6340,7.794
9.337000,-3.7942,-6.4573,-1.6465,7.668
9.342000,-3.5030,-6.4848,-1.5973,7.542
9.346000,-3.2201,-6.5772,-1.5059,7.476
9.353000,-2.8741,-6.6541,-1.3776,7.378
9.359000,-2.6848,-6.7771,-1.3146,7.407
9.362000,-2.5158,-6.8842,-1.2453,7.435
9.366000,-2.2570,-6.9978,-1.1291,7.439
9.393000,-2.0138,-7.0865,-0.9995,7.435
9.393000,-1.8218,-7.2887,-0.8799,7.564
9.394000,-1.6453,-7.4881,-0.7736,7.706
9.394000,-1.5249,-7.7396,-0.5989,7.911
9.394000,-1.4079,-7.9884,-0.3298,8.118
9.396000,-1.2820,-8.2024,-0.0447,8.302
9.402000,-1.1165,-8.3900,0.2915,8.469
9.407000,-0.9754,-8.5813,0.6867,8.664
9.412000,-0.8040,-8.7169,1.1090,8.824
9.417000,-0.6668,-8.7854,1.5581,8.947
9.422000,-0.5110,-8.8484,2.0041,9.087
9.426000,-0.3652,-8.8728,2.3842,9.195
9.431000,-0.1845,-8.8165,2.6336,9.203
9.436000,0.0006,-8.8029,2.9280,9.277
9.441000,0.2161,-8.7874,3.1952,9.353
9.446000,0.4139,-8.8184,3.4662,9.484
9.451000,0.6758,-8.8661,3.7341,9.644
9.456000,0.9124,-8.8988,3.9862,9.793
9.461000,1.1794,-8.9513,4.2040,9.959
9.466000,1.3973,-9.0364,4.4372,10.164
9.470000,1.5585,-9.0256,4.7403,10.313
9.476000,1.7021,-9.0066,5.0519,10.466
9.480000,1.8732,-8.8865,5.4385,10.586
9.486000,2.0450,-8.7495,5.8894,10.743
9.523000,2.2040,-8.5302,6.3124,10.838
9.524000,2.3563,-8.1722,6.7633,10.866
9.525000,2.4813,-7.8039,7.1633,10.880
9.525000,2.5926,-7.3301,7.5236,10.819
9.526000,2.6756,-6.8157,7.7403,10.655
9.526000,2.7285,-6.2456,7.9556,10.476
9.527000,2.8009,-5.6157,8.1641,10.297
9.529000,2.8828,-4.9910,8.2788,10.088
9.530000,2.9844,-4.3418,8.3845,9.902
9.535000,3.1832,-3.7196,8.4438,9.760
9.542000,3.3196,-3.1308,8.4792,9.629
9.549000,3.5171,-2.6575,8.4713,9.550
9.550000,3.6888,-2.2546,8.5411,9.573
9.557000,3.8039,-1.8017,8.5620,9.541
9.560000,3.9455,-1.3256,8.6215,9.574
9.567000,4.1102,-0.8293,8.6233,9.589
9.571000,4.2600,-0.4388,8.5603,9.572
9.576000,4.3796,-0.1262,8.4652,9.532
9.580000,4.4979,0.2146,8.3932,9.525
9.586000,4.6263,0.5139,8.1808,9.412
9.592000,4.7282,0.7378,7.8711,9.212
9.595000,4.8038,1.0063,7.5768,9.028
9.600000,4.8431,1.2209,7.0802,8.665
9.641000,4.7743,1.3838,6.4686,8.158
9.642000,4.6791,1.5049,5.9006,7.680
9.643000,4.5716,1.5620,5.4103,7.253
9.643000,4.3830,1.5533,4.8976,6.754
9.644000,4.1732,1.5122,4.4878,6.312
9.644000,3.9282,1.4437,4.1118,5.867
9.645000,3.6940,1.4055,3.8300,5.504
9.645000,3.4422,1.3857,3.5447,5.132
9.649000,3.1447,1.3394,3.3469,4.784
9.649000,2.8497,1.2546,3.1441,4.425
9.654000,2.5433,1.1751,2.9221,4.048
9.659000,2.2788,1.1129,2.8107,3.786
9.665000,2.0947,1.0327,2.7858,3.635
9.669000,1.9124,1.0327,2.6683,3.441
9.676000,1.7510,1.0435,2.5515,3.266
9.680000,1.5507,1.0102,2.5216,3.128
9.685000,1.3600,1.0335,2.4905,3.020
9.692000,1.1024,1.0849,2.4796,2.922
9.696000,0.8807,1.1284,2.4913,2.873
9.699000,0.7144,1.1356,2.4468,2.790
9.705000,0.5318,1.1904,2.4898,2.811
9.736000,0.3762,1.2211,2.5293,2.834
9.738000,0.2618,1.2709,2.5344,2.847
9.740000,0.1361,1.2799,2.5911,2.893
9.740000,0.0662,1.3297,2.6518,2.967
9.741000,-0.0557,1.3389,2.7137,3.027
9.741000,-0.0765,1.3172,2.8175,3.111
9.742000,-0.1087,1.2743,2.9387,3.205
9.746000,-0.1403,1.2676,3.0273,3.285
9.750000,-0.2120,1.2372,3.1834,3.422
9.754000,-0.2209,1.2313,3.3442,3.571
9.758000,-0.2438,1.2736,3.4498,3.685
9.766000,-0.2758,1.2997,3.5453,3.786
9.769000,-0.2764,1.3141,3.6595,3.898
9.775000,-0.2958,1.3100,3.7918,4.023
9.779000,-0.2572,1.2972,3.8609,4.081
9.785000,-0.1608,1.3186,3.9839,4.199
9.789000,-0.1169,1.3742,3.9905,4.222
9.794000,-0.0921,1.4373,4.0506,4.299
9.798000,-0.1054,1.4650,4.0928,4.348
9.803000,-0.1736,1.4596,4.0477,4.306
9.809000,-0.2918,1.3876,4.0443,4.286
9.813000,-0.3807,1.2830,4.0255,4.242
9.818000,-0.3732,1.1771,3.9725,4.160
9.840000,-0.3600,1.0655,3.9614,4.118
9.841000,-0.2453,0.9004,3.8799,3.991
9.842000,-0.1632,0.7537,3.8019,3.879
9.843000,-0.0540,0.6899,3.8584,3.920
9.844000,0.0582,0.6084,3.8070,3.856
9.853000,0.1159,0.5188,3.6288,3.667
9.853000,0.1147,0.3996,3.4654,3.490
9.858000,0.1292,0.2702,3.3870,3.400
9.863000,0.2243,0.1168,3.3050,3.315
9.868000,0.4384,0.0781,3.1792,3.210
9.875000,0.8310,0.0415,3.0666,3.178
9.879000,1.2822,-0.0075,2.9291,3.197
9.883000,1.7005,0.0262,2.9149,3.375
9.888000,1.9852,0.0870,2.8107,3.442
9.893000,2.0790,0.1055,2.6115,3.340
9.899000,2.1016,0.1487,2.4113,3.202
9.904000,2.0558,0.2549,2.2056,3.026
9.907000,2.0256,0.3905,2.0600,2.915
9.913000,2.0064,0.5199,1.9118,2.820
9.919000,2.0269,0.6815,1.7397,2.757
9.941000,2.1014,0.7888,1.5470,2.726
9.943000,2.2110,0.9905,1.4819,2.840
9.943000,2.3601,1.1905,1.4178,3.000
9.943000,2.5243,1.4265,1.3714,3.207
9.944000,2.7156,1.6317,1.2994,3.424
9.947000,2.9144,1.8057,1.1758,3.624
9.952000,3.1082,2.0077,1.1732,3.882
9.957000,3.3236,2.1374,1.1234,4.108
9.962000,3.6028,2.2446,1.0843,4.381
9.968000,3.9144,2.3219,1.1201,4.687
9.973000,4.2029,2.4358,1.1660,4.996
9.977000,4.4370,2.4546,1.1616,5.202
9.983000,4.6522,2.4331,1.1308,5.370
9.988000,4.7549,2.4188,1.1335,5.454
9.992000,4.8553,2.3807,1.1216,5.523
9.997000,4.9511,2.3620,1.0330,5.582
10.001000,4.9846,2.2811,0.9610,5.565
10.009000,5.0445,2.1597,0.8241,5.549
10.012000,5.0782,2.0315,0.6439,5.507
10.017000,5.0330,1.8915,0.4305,5.394
10.024000,5.0098,1.7185,0.2363,5.302
10.031000,5.0062,1.5390,0.0228,5.237
10.032000,4.9506,1.4081,-0.1310,5.149
10.037000,4.8932,1.3520,-0.4067,5.093
10.070000,4.8556,1.2677,-0.6194,5.056
10.081000,4.7230,1.2295,-0.7839,4.943
10.081000,4.5387,1.2445,-0.9668,4.804
10.082000,4.3818,1.2602,-1.1080,4.692
10.082000,4.2165,1.3127,-1.1551,4.565
10.083000,4.0262,1.3397,-1.1847,4.406
10.083000,3.8422,1.3988,-1.2257,4.269
10.083000,3.7266,1.4351,-1.2404,4.182
10.084000,3.5956,1.5416,-1.1997,4.092
10.087000,3.5234,1.7160,-1.2016,4.099
10.091000,3.4116,1.8407,-1.1124,4.033
10.097000,3.2100,1.8847,-1.1021,3.882
10.102000,3.0359,1.9220,-1.0609,3.746
10.106000,2.8538,1.9629,-1.0072,3.607
10.112000,2.6803,1.9542,-0.9394,3.448
10.117000,2.5370,1.9395,-0.8981,3.317
10.122000,2.3926,1.9349,-0.9074,3.208
10.127000,2.2545,1.8693,-0.8642,3.054
10.131000,2.0988,1.8307,-0.8408,2.909
10.136000,1.9184,1.7502,-0.9090,2.751
10.156000,1.7445,1.7042,-0.9371,2.613
10.157000,1.5654,1.6618,-1.0208,2.501
10.157000,1.3859,1.6206,-1.0953,2.397
10.157000,1.2442,1.6070,-1.2325,2.377
10.162000,1.0427,1.5398,-1.4222,2.341
10.166000,0.8503,1.4763,-1.5924,2.332
10.171000,0.6413,1.4122,-1.7646,2.349
10.175000,0.4275,1.3400,-1.9843,2.432
10.181000,0.2523,1.3034,-2.2144,2.582
10.185000,0.0629,1.2042,-2.4356,2.718
10.191000,-0.2384,1.0905,-2.6120,2.841
10.196000,-0.5343,0.9435,-2.7867,2.990
10.200000,-0.8312,0.8524,-3.0045,3.232
10.206000,-1.0715,0.7127,-3.1190,3.374
10.210000,-1.3271,0.6078,-3.1878,3.506
10.215000,-1.5783,0.4740,-3.1890,3.590
10.220000,-1.8055,0.3312,-3.1226,3.622
10.226000,-1.9177,0.2273,-2.9435,3.520
10.231000,-2.0176,0.1200,-2.7428,3.407
10.236000,-2.0358,0.0713,-2.5328,3.250
10.246000,-1.9460,0.0335,-2.2133,2.947
10.247000,-1.7772,0.0688,-1.9092,2.609
10.250000,-1.5491,0.1762,-1.4843,2.153
10.286000,-1.3121,0.2336,-1.0972,1.726
10.287000,-1.0907,0.2572,-0.8102,1.383
10.287000,-0.8825,0.2586,-0.5514,1.072
10.287000,-0.7191,0.2663,-0.2538,0.808
10.288000,-0.5289,0.3274,0.0655,0.625
10.288000,-0.3314,0.3675,0.3347,0.597
10.288000,-0.1625,0.3913,0.5776,0.716
10.296000,-0.0440,0.3840,0.7801,0.871
10.297000,0.0716,0.4051,1.0569,1.134
10.305000,0.1986,0.4447,1.3170,1.404
10.306000,0.2484,0.4238,1.5242,1.601
10.310000,0.2903,0.4379,1.6665,1.747
10.316000,0.3340,0.4416,1.8039,1.887
10.320000,0.4344,0.3966,1.8933,1.983
10.325000,0.5173,0.3747,1.9657,2.067
10.332000,0.5898,0.3087,2.0518,2.157
10.334000,0.5610,0.1937,2.0535,2.138
10.341000,0.4742,0.1066,2.0109,2.069
10.345000,0.3753,0.0095,2.0147,2.049
10.349000,0.3003,-0.0330,1.9999,2.023
10.354000,0.2064,-0.0757,1.9162,1.929
10.394000,0.0577,-0.1470,1.7709,1.778
10.395000,-0.0640,-0.1005,1.7436,1.748
10.395000,-0.0895,-0.0349,1.5920,1.595
10.396000,-0.1815,-0.0981,1.4003,1.415
10.396000,-0.1605,-0.1490,1.1209,1.142
10.396000,-0.0552,-0.2397,0.8809,0.915
10.397000,0.0746,-0.3440,0.5874,0.685
10.397000,0.2454,-0.4333,0.3385,0.602
10.399000,0.4016,-0.5632,0.0794,0.696
10.405000,0.5244,-0.7406,-0.1677,0.923
10.410000,0.5969,-0.8534,-0.3980,1.115
10.415000,0.6454,-0.9635,-0.6350,1.322
10.421000,0.6796,-1.0782,-0.7833,1.496
10.424000,0.8049,-1.2212,-1.0026,1.773
10.429000,0.8823,-1.3613,-1.2139,2.026
10.434000,0.9719,-1.4218,-1.3956,2.217
10.440000,1.0448,-1.4629,-1.6220,2.421
10.444000,1.0890,-1.5349,-1.9163,2.686
10.449000,1.0541,-1.5922,-2.2231,2.931
10.453000,1.0410,-1.6012,-2.4869,3.136
10.459000,0.9827,-1.6836,-2.7053,3.334
10.464000,0.9441,-1.8007,-2.8901,3.534
10.469000,0.9084,-1.8327,-3.1797,3.781
10.501000,0.8542,-1.9041,-3.4541,4.036
10.503000,0.8199,-1.9787,-3.6913,4.268
10.503000,0.8030,-2.0707,-3.8145,4.414
10.503000,0.8157,-2.2229,-3.9359,4.593
10.506000,0.8222,-2.3894,-3.9693,4.705
10.507000,0.8298,-2.4962,-3.9294,4.729
10.507000,0.7836,-2.5481,-3.8096,4.650
10.510000,0.7505,-2.4999,-3.7009,4.529
10.513000,0.7210,-2.3970,-3.3854,4.210
10.519000,0.7906,-2.2830,-3.0358,3.880
10.523000,0.9397,-2.2850,-2.6616,3.632
10.529000,1.1040,-2.3072,-2.2586,3.412
10.534000,1.3236,-2.3381,-1.7985,3.233
10.539000,1.4908,-2.4068,-1.3395,3.132
10.543000,1.6197,-2.4705,-0.9727,3.110
10.548000,1.7727,-2.5388,-0.5811,3.151
10.553000,1.8321,-2.5406,-0.1965,3.138
10.558000,1.8413,-2.5069,0.1947,3.117
10.563000,1.8385,-2.4450,0.5058,3.101
10.567000,1.8070,-2.2785,0.8563,3.031
10.574000,1.7347,-2.1464,1.1233,2.980
10.578000,1.6768,-1.9407,1.3983,2.921
10.582000,1.5928,-1.6614,1.6282,2.819
10.588000,1.5708,-1.3304,1.7860,2.725
10.615000,1.4865,-0.9432,1.9774,2.648
10.616000,1.3612,-0.5645,2.0105,2.493
10.616000,1.1684,-0.1301,2.0503,2.363
10.616000,0.9920,0.3674,2.0471,2.304
10.617000,0.8318,0.8489,2.0462,2.366
10.617000,0.6496,1.2951,1.9349,2.417
10.628000,0.5025,1.7155,1.7706,2.516
10.629000,0.4263,2.0836,1.5821,2.651
10.632000,0.3897,2.4067,1.3774,2.800
10.637000,0.4092,2.6391,1.1799,2.920
10.643000,0.4726,2.7855,0.9660,2.986
10.647000,0.5437,2.9341,0.8650,3.107
10.652000,0.6079,2.9936,0.6803,3.130
10.658000,0.6628,2.9164,0.4719,3.028
10.664000,0.6555,2.8577,0.3310,2.951
10.667000,0.6199,2.7173,0.2046,2.795
10.674000,0.5343,2.5310,0.0381,2.587
10.677000,0.4205,2.3419,-0.1040,2.382
10.683000,0.3145,2.1887,-0.2909,2.230
10.687000,0.1256,1.9877,-0.4335,2.038
10.739000,-0.0215,1.8084,-0.5909,1.903
10.741000,-0.1745,1.5818,-0.7031,1.740
10.741000,-0.3214,1.3440,-0.8203,1.607
10.742000,-0.4690,1.1217,-0.9229,1.526
10.743000,-0.6244,0.9220,-1.0183,1.509
10.743000,-0.8304,0.6950,-1.0890,1.536
10.743000,-1.0531,0.4915,-1.1135,1.610
10.744000,-1.3046,0.2681,-1.1326,1.748
10.744000,-1.5677,0.0664,-1.2058,1.979
10.745000,-1.8250,-0.0891,-1.2086,2.191
10.746000,-2.1056,-0.2275,-1.2153,2.442
10.747000,-2.3966,-0.3379,-1.1992,2.701
10.751000,-2.6220,-0.4259,-1.1965,2.913
10.757000,-2.9439,-0.4690,-1.1521,3.196
10.764000,-3.1993,-0.5219,-1.1285,3.432
10.766000,-3.4647,-0.4957,-1.0248,3.647
10.774000,-3.6944,-0.4786,-0.8942,3.831
10.776000,-3.8547,-0.4176,-0.7946,3.958
10.782000,-3.9842,-0.3370,-0.7187,4.063
10.787000,-4.0852,-0.2076,-0.6235,4.138
10.791000,-4.1362,-0.0608,-0.4662,4.163
10.797000,-4.1493,0.1105,-0.3397,4.165
10.801000,-4.1129,0.2582,-0.1892,4.125
10.814000,-4.1011,0.4181,-0.0172,4.122
10.817000,-4.0064,0.5708,0.2553,4.055
10.818000,-3.9008,0.6972,0.5254,3.997
10.821000,-3.7629,0.8207,0.6734,3.910
10.862000,-3.5260,0.8910,0.8623,3.738
10.863000,-3.2836,0.9080,1.1108,3.583
10.863000,-3.0477,0.9526,1.2846,3.442
10.864000,-2.8785,1.0221,1.3523,3.341
10.864000,-2.7665,1.0899,1.3236,3.255
10.865000,-2.6852,1.0650,1.1959,3.126
10.865000,-2.6587,1.0336,1.0438,3.037
10.865000,-2.6149,0.9815,0.8582,2.922
10.866000,-2.5227,0.8849,0.6946,2.762
10.870000,-2.4397,0.7655,0.4982,2.605
10.875000,-2.3657,0.6352,0.2762,2.465
10.881000,-2.2721,0.5514,0.1390,2.342
10.886000,-2.2088,0.4259,-0.0497,2.250
10.894000,-2.1472,0.3329,-0.1682,2.179
10.896000,-2.0849,0.2173,-0.2356,2.109
10.900000,-2.0360,0.1297,-0.3640,2.072
10.932000,-1.9526,0.0581,-0.4461,2.004
10.934000,-1.8799,-0.0163,-0.5226,1.951
10.936000,-1.7917,-0.0937,-0.5146,1.867
10.936000,-1.6379,-0.1070,-0.4681,1.707
10.937000,-1.4852,-0.0348,-0.4216,1.544
10.937000,-1.2909,-0.0160,-0.3612,1.341
10.937000,-1.1222,0.0589,-0.2295,1.147
10.940000,-0.9333,0.1473,-0.1011,0.950
10.945000,-0.7176,0.2100,0.0217,0.748
10.950000,-0.5514,0.2762,0.1124,0.627
10.956000,-0.4109,0.2976,0.1852,0.540
10.960000,-0.2845,0.3648,0.2475,0.525
10.965000,-0.1217,0.4327,0.3422,0.565
10.970000,0.0511,0.5152,0.3809,0.643
10.975000,0.1664,0.5856,0.3947,0.726
10.980000,0.2844,0.6395,0.3597,0.787
10.985000,0.3859,0.6431,0.3314,0.820
10.991000,0.4730,0.6275,0.3168,0.847
10.995000,0.5606,0.5596,0.2300,0.825
11.000000,0.7011,0.4299,0.1640,0.839
11.004000,0.8709,0.3178,0.0637,0.929
11.012000,1.0769,0.3041,-0.0473,1.120
11.015000,1.2518,0.2545,-0.1639,1.288
11.019000,1.4510,0.2102,-0.2574,1.489
11.064000,1.6217,0.0824,-0.3728,1.666
11.066000,1.7900,-0.0214,-0.4095,1.836
11.066000,1.9852,-0.0623,-0.4230,2.031
11.067000,2.1614,-0.1009,-0.4994,2.221
11.067000,2.3142,-0.1126,-0.6147,2.397
11.067000,2.4673,-0.0476,-0.7424,2.577
11.068000,2.6133,0.0101,-0.7652,2.723
11.068000,2.7502,0.0800,-0.8770,2.888
11.069000,2.9252,0.2378,-1.0200,3.107
11.069000,3.1001,0.4023,-1.2103,3.352
11.076000,3.2747,0.5613,-1.3758,3.596
11.080000,3.4681,0.6813,-1.5088,3.843
11.085000,3.7538,0.6972,-1.5920,4.137
11.090000,4.0648,0.6690,-1.6612,4.442
11.095000,4.3863,0.5652,-1.7183,4.745
11.099000,4.6580,0.4237,-1.6725,4.967
11.106000,4.9066,0.2378,-1.6653,5.187
11.110000,5.0813,0.0857,-1.5581,5.315
11.115000,5.1609,-0.0489,-1.4273,5.355
11.119000,5.1408,-0.2043,-1.2591,5.297
11.124000,5.1745,-0.3275,-1.0657,5.293
11.128000,5.2215,-0.4709,-0.7850,5.301
11.133000,5.2530,-0.6297,-0.5108,5.315
11.158000,5.2862,-0.6696,-0.3199,5.338
11.159000,5.2755,-0.6841,-0.1358,5.321
11.160000,5.2211,-0.6037,0.1301,5.257
11.160000,5.1707,-0.5124,0.4295,5.214
11.161000,5.0721,-0.4027,0.7238,5.139
11.163000,4.9493,-0.1979,1.0176,5.057
11.169000,4.9053,0.0755,1.3106,5.078
11.174000,4.8106,0.3456,1.5423,5.064
11.178000,4.6989,0.6915,1.8109,5.083
11.183000,4.5964,1.1225,2.0248,5.147
11.189000,4.4838,1.5091,2.1504,5.197
11.193000,4.4566,1.9374,2.2476,5.354
11.199000,4.5599,2.3283,2.3380,5.628
11.204000,4.7450,2.6309,2.3545,5.914
11.208000,4.9254,2.8999,2.2734,6.151
11.213000,5.1650,3.1229,2.1593,6.410
11.218000,5.4129,3.2083,2.0030,6.603
11.223000,5.6111,3.2347,1.7757,6.716
11.235000,5.7879,3.2018,1.5329,6.790
11.236000,5.8139,3.0565,1.2936,6.695
11.237000,5.7106,2.8610,1.0891,6.479
11.260000,5.5362,2.6159,0.7904,6.174
11.261000,5.2813,2.3260,0.4194,5.786
11.262000,4.9415,2.0060,0.0124,5.333
11.263000,4.6015,1.7642,-0.3984,4.944
11.263000,4.2686,1.5242,-0.7334,4.591
11.267000,3.9170,1.3056,-1.0711,4.266
11.273000,3.6003,1.0806,-1.2987,3.977
11.277000,3.2920,0.8561,-1.5116,3.722
11.282000,3.0359,0.6712,-1.7331,3.560
11.288000,2.8300,0.5503,-1.8839,3.444
11.297000,2.6334,0.4165,-1.9952,3.330
11.298000,2.4249,0.3133,-2.0644,3.200
11.303000,2.2097,0.2816,-2.1421,3.090
11.307000,2.0070,0.2330,-2.1759,2.969
11.313000,1.7955,0.1893,-2.1537,2.810
11.317000,1.6258,0.1915,-2.0954,2.659
11.323000,1.5214,0.2415,-2.0152,2.536
11.327000,1.4749,0.3225,-1.8731,2.406
11.332000,1.3934,0.4132,-1.5814,2.148
11.337000,1.3695,0.5056,-1.2575,1.927
11.343000,1.3481,0.6045,-0.9260,1.744
11.347000,1.3220,0.6979,-0.5373,1.589
11.352000,1.3386,0.7684,-0.1469,1.550
11.361000,1.2710,0.8088,0.1300,1.512
11.363000,1.2104,0.8338,0.4149,1.527
11.371000,1.1253,0.8261,0.6669,1.547
11.373000,1.0155,0.7997,0.9143,1.583
11.410000,0.8718,0.8004,1.0782,1.601
11.412000,0.7466,0.7947,1.2255,1.640
11.412000,0.6259,0.7994,1.3659,1.702
11.413000,0.4661,0.7659,1.4041,1.666
11.413000,0.2534,0.6687,1.4765,1.641
11.413000,0.0117,0.6224,1.5168,1.640
11.414000,-0.1657,0.4954,1.5662,1.651
11.416000,-0.3406,0.3838,1.6200,1.699
11.417000,-0.5394,0.2615,1.6350,1.741
11.423000,-0.7043,0.1646,1.5444,1.705
11.426000,-0.8711,0.0193,1.4753,1.713
11.439000,-1.0736,-0.1201,1.2969,1.688
11.440000,-1.2899,-0.2436,1.1627,1.754
11.447000,-1.4786,-0.3404,1.1015,1.875
11.447000,-1.6120,-0.4408,0.9513,1.923
11.452000,-1.7182,-0.5965,0.8507,2.008
11.459000,-1.8188,-0.7356,0.6922,2.080
11.462000,-1.8970,-0.8868,0.6100,2.181
11.466000,-1.9645,-1.0999,0.6035,2.331
11.471000,-2.0481,-1.2608,0.5554,2.468
11.508000,-2.1212,-1.4001,0.5754,2.606
11.510000,-2.2099,-1.5435,0.5840,2.758
11.510000,-2.3290,-1.7207,0.5786,2.953
11.511000,-2.4443,-1.9041,0.6401,3.164
11.511000,-2.5899,-2.0371,0.7418,3.378
11.512000,-2.7511,-2.1096,0.8045,3.559
11.512000,-2.8965,-2.1712,0.8659,3.722
11.515000,-3.0314,-2.2229,0.9216,3.870
11.516000,-3.1580,-2.3144,0.9808,4.036
11.522000,-3.2857,-2.3421,1.0312,4.165
11.527000,-3.3718,-2.4169,1.1046,4.293
11.532000,-3.4949,-2.4662,1.1764,4.436
11.537000,-3.6745,-2.5722,1.1466,4.630
11.542000,-3.7836,-2.6791,1.1779,4.783
11.546000,-3.8818,-2.8198,1.2034,4.946
11.550000,-3.9120,-2.9589,1.2614,5.065
11.557000,-3.9721,-3.1079,1.3161,5.212
11.561000,-4.0309,-3.2733,1.4104,5.381
11.565000,-4.0863,-3.3983,1.4964,5.521
11.571000,-4.1309,-3.5755,1.5617,5.682
11.610000,-4.1122,-3.7621,1.5566,5.787
11.612000,-4.1212,-3.9125,1.5556,5.892
11.612000,-4.0692,-4.1099,1.4987,5.975
11.613000,-4.0400,-4.3976,1.4202,6.138
11.613000,-3.9571,-4.6747,1.3061,6.262
11.615000,-3.8610,-4.9408,1.2637,6.397
11.616000,-3.7830,-5.2417,1.2068,6.576
11.617000,-3.7326,-5.5241,1.0684,6.752
11.618000,-3.5734,-5.6926,0.9994,6.795
11.620000,-3.4993,-5.8167,0.8923,6.847
11.627000,-3.5196,-5.9128,0.8571,6.934
11.631000,-3.4429,-5.9736,0.8099,6.942
11.636000,-3.3723,-5.9824,0.7698,6.910
11.640000,-3.2812,-5.8793,0.7393,6.773
11.645000,-3.1626,-5.7868,0.6664,6.628
11.650000,-2.9809,-5.7124,0.6107,6.472
11.656000,-2.8293,-5.6012,0.5957,6.303
11.660000,-2.6410,-5.5228,0.5862,6.150
11.665000,-2.3683,-5.4681,0.5677,5.986
11.669000,-2.0783,-5.4947,0.6002,5.905
11.675000,-1.7591,-5.5765,0.7191,5.891
11.680000,-1.4708,-5.6587,0.8402,5.907
11.684000,-1.1441,-5.6793,1.0012,5.879
11.694000,-0.8986,-5.6341,1.1422,5.819
11.696000,-0.8254,-5.5402,1.3391,5.759
11.700000,-0.7785,-5.4575,1.4766,5.707
11.704000,-0.7314,-5.3167,1.5404,5.583
11.745000,-0.7202,-5.1967,1.6114,5.488
11.746000,-0.7088,-5.0758,1.6652,5.389
11.747000,-0.6903,-4.9305,1.6851,5.256
11.747000,-0.7555,-4.8490,1.7017,5.194
11.748000,-0.8325,-4.7188,1.6981,5.084
11.749000,-0.8927,-4.5906,1.6982,4.975
11.749000,-0.9861,-4.4254,1.7568,4.862
11.750000,-1.0864,-4.2905,1.8069,4.781
11.750000,-1.1792,-4.1374,1.8959,4.701
11.755000,-1.2426,-3.9135,1.9167,4.531
11.760000,-1.3125,-3.6118,1.9682,4.318
11.764000,-1.3194,-3.3063,2.0077,4.087
11.770000,-1.2945,-2.9852,1.9929,3.816
11.777000,-1.2544,-2.6154,1.9252,3.481
11.780000,-1.1393,-2.2782,1.9652,3.217
11.784000,-1.0358,-1.9864,1.8581,2.911
11.789000,-0.9745,-1.7729,1.7333,2.664
11.821000,-0.8434,-1.6263,1.5529,2.402
11.822000,-0.6523,-1.4704,1.2960,2.066
11.823000,-0.4562,-1.3628,1.0438,1.776
11.823000,-0.2769,-1.3106,0.7408,1.531
11.824000,-0.1480,-1.2880,0.4039,1.358
11.824000,-0.0219,-1.2668,0.1020,1.271
11.825000,0.0319,-1.2614,-0.2130,1.280
11.829000,0.0208,-1.2477,-0.5701,1.372
11.834000,0.0046,-1.2520,-0.8716,1.525
11.839000,-0.0360,-1.2554,-1.0696,1.650
11.844000,-0.0936,-1.2884,-1.2579,1.803
11.849000,-0.1824,-1.3177,-1.4056,1.935
11.853000,-0.3097,-1.3478,-1.5821,2.101
11.860000,-0.3891,-1.3018,-1.6949,2.172
11.863000,-0.4758,-1.3021,-1.8009,2.273
11.869000,-0.5958,-1.3433,-1.8671,2.376
11.873000,-0.7395,-1.3559,-1.9346,2.475
11.878000,-0.9356,-1.3926,-2.0395,2.641
11.883000,-1.0905,-1.3787,-2.1195,2.754
11.889000,-1.2592,-1.3311,-2.0830,2.774
11.894000,-1.4320,-1.2495,-2.0334,2.783
11.898000,-1.6135,-1.1575,-1.9437,2.779
11.903000,-1.8037,-1.0386,-1.8422,2.780
11.942000,-1.9999,-0.9425,-1.7502,2.820
11.944000,-2.1207,-0.7662,-1.6195,2.776
11.944000,-2.2165,-0.6176,-1.4734,2.732
11.945000,-2.2799,-0.4006,-1.3456,2.677
11.945000,-2.3135,-0.1799,-1.1855,2.606
11.946000,-2.3007,-0.0160,-1.0642,2.535
11.946000,-2.2965,0.1562,-0.9655,2.496
11.946000,-2.2845,0.3551,-0.8839,2.475
11.948000,-2.2550,0.5212,-0.8222,2.456
11.952000,-2.2106,0.7115,-0.7347,2.436
11.958000,-2.2138,0.9111,-0.6953,2.493
11.963000,-2.2236,1.0439,-0.6180,2.533
11.968000,-2.2117,1.1430,-0.5481,2.549
11.977000,-2.2162,1.2278,-0.4621,2.575
11.978000,-2.2466,1.3127,-0.3651,2.627
11.983000,-2.2361,1.4093,-0.2860,2.659
11.987000,-2.2609,1.4703,-0.2538,2.709
11.992000,-2.2471,1.5481,-0.2448,2.740
11.997000,-2.2165,1.5873,-0.2445,2.737
12.002000,-2.2068,1.6795,-0.2218,2.782
12.008000,-2.1728,1.6833,-0.2388,2.759
12.012000,-2.1028,1.7012,-0.2882,2.720
12.017000,-1.9609,1.6881,-0.2669,2.601
12.052000,-1.8687,1.7161,-0.3020,2.555
12.053000,-1.7906,1.6557,-0.3601,2.465
12.054000,-1.7314,1.5668,-0.4675,2.381
12.055000,-1.6408,1.5018,-0.6170,2.308
12.056000,-1.5210,1.3609,-0.6457,2.141
12.056000,-1.4292,1.2447,-0.7312,2.031
12.056000,-1.2629,1.1672,-0.8424,1.915
12.057000,-1.1005,1.0883,-0.9336,1.808
12.066000,-0.9423,0.9862,-1.0097,1.697
12.067000,-0.7835,0.8679,-0.9630,1.515
12.071000,-0.6260,0.8297,-0.8946,1.371
12.076000,-0.4346,0.7871,-0.8144,1.213
12.081000,-0.2087,0.8077,-0.7221,1.103
12.086000,-0.0468,0.8646,-0.5919,1.049
12.091000,0.1298,0.9237,-0.4790,1.049
12.096000,0.2067,0.9595,-0.3953,1.058
12.101000,0.3513,1.1175,-0.3477,1.222
12.106000,0.5822,1.1771,-0.2068,1.329
12.111000,0.8208,1.1914,-0.1090,1.451
12.118000,1.0688,1.1885,-0.0761,1.600
12.122000,1.2810,1.2188,-0.0290,1.768
12.147000,1.5240,1.2102,-0.0253,1.946
12.147000,1.7614,1.2195,-0.0051,2.142
12.147000,1.9123,1.2304,0.0196,2.274
12.147000,2.0384,1.2160,0.0584,2.374
12.148000,2.0876,1.1459,0.1113,2.384
12.152000,2.2060,1.0464,0.1853,2.449
12.157000,2.3309,0.9414,0.2517,2.526
12.160000,2.4322,0.8387,0.2601,2.586
12.165000,2.5406,0.7381,0.3014,2.663
12.171000,2.6751,0.6467,0.3350,2.772
12.176000,2.7815,0.5652,0.3511,2.860
12.181000,2.9791,0.5269,0.3070,3.041
12.187000,3.1433,0.4860,0.2382,3.190
12.190000,3.3081,0.4431,0.1403,3.341
12.197000,3.5234,0.4073,0.0397,3.547
12.201000,3.7561,0.4031,-0.0488,3.778
12.206000,4.0059,0.4206,-0.0536,4.028
12.211000,4.3204,0.4187,-0.0607,4.341
12.217000,4.6160,0.5485,-0.1611,4.651
12.222000,4.8899,0.7328,-0.2804,4.952
12.233000,5.2516,0.9590,-0.2627,5.345
12.235000,5.6555,1.2009,-0.2256,5.786
12.237000,5.9643,1.3906,-0.2839,6.131
12.290000,6.2979,1.5500,-0.3847,6.497
12.291000,6.5982,1.6690,-0.4536,6.821
12.292000,6.8527,1.6897,-0.5909,7.083
12.292000,7.1718,1.7275,-0.7269,7.413
12.293000,7.4230,1.6574,-0.8018,7.648
12.293000,7.6064,1.7185,-0.8897,7.849
12.294000,7.8367,1.7768,-0.8588,8.081
12.294000,7.9917,1.7557,-0.7025,8.212
12.295000,8.0786,1.6480,-0.5840,8.266
12.297000,8.1312,1.5210,-0.4678,8.285
12.297000,8.0921,1.4705,-0.3472,8.232
12.298000,8.0881,1.4675,-0.1485,8.221
12.301000,8.0811,1.4956,-0.0225,8.218
12.306000,8.0399,1.5092,0.0739,8.181
12.310000,7.9696,1.6088,0.2554,8.134
12.315000,7.8821,1.6604,0.3992,8.065
12.322000,7.7892,1.6593,0.4625,7.977
12.324000,7.7032,1.6845,0.5338,7.903
12.330000,7.5211,1.7982,0.6106,7.757
12.334000,7.4156,1.9072,0.6761,7.687
12.340000,7.2118,2.1859,0.8715,7.586
12.362000,7.0147,2.5716,1.0816,7.549
12.363000,6.7882,2.8606,1.1410,7.454
12.363000,6.5782,3.0821,1.2564,7.372
12.363000,6.3628,3.2860,1.3894,7.295
12.378000,6.1613,3.3673,1.4395,7.167
12.379000,5.9638,3.3807,1.4569,7.009
12.379000,5.8137,3.2763,1.4227,6.823
12.382000,5.6273,3.1067,1.3346,6.565
12.384000,5.4504,2.8437,1.1976,6.263
12.390000,5.2781,2.5563,1.0360,5.955
12.394000,5.1465,2.2402,0.8239,5.673
12.399000,4.9964,1.9172,0.6502,5.391
12.405000,4.8752,1.5820,0.3856,5.140
12.409000,4.7334,1.3215,0.1794,4.918
12.415000,4.5945,1.0298,-0.0521,4.709
12.419000,4.4828,0.7168,-0.2962,4.549
12.424000,4.3055,0.4141,-0.3823,4.342
12.429000,4.1509,0.1069,-0.4615,4.178
12.433000,3.9025,-0.1921,-0.5863,3.951
12.441000,3.6471,-0.4177,-0.6892,3.735
12.444000,3.3796,-0.6159,-0.8108,3.530
12.450000,3.1682,-0.7878,-0.9703,3.406
12.454000,2.9260,-0.9294,-1.1622,3.283
12.480000,2.7091,-1.0132,-1.3363,3.186
12.481000,2.5169,-1.0568,-1.4588,3.095
12.481000,2.3546,-0.9855,-1.5681,2.996
12.481000,2.1864,-0.9333,-1.5829,2.856
12.482000,2.0125,-0.8951,-1.6450,2.749
12.483000,1.8873,-0.8476,-1.6681,2.658
12.493000,1.8186,-0.7255,-1.5954,2.526
12.493000,1.7648,-0.5755,-1.5229,2.401
12.499000,1.6949,-0.4574,-1.4128,2.253
12.504000,1.6330,-0.3372,-1.2275,2.071
12.509000,1.5805,-0.2428,-0.9937,1.883
12.514000,1.4612,-0.1950,-0.7743,1.665
12.519000,1.3593,-0.1291,-0.5241,1.463
12.525000,1.2451,-0.0796,-0.2770,1.278
12.528000,1.1098,-0.0647,-0.0001,1.112
12.533000,0.9575,-0.0638,0.2589,0.994
12.538000,0.8057,-0.0236,0.4302,0.914
12.543000,0.6751,-0.0933,0.6480,0.940
12.549000,0.5112,-0.1072,0.7638,0.925
12.554000,0.4072,-0.1419,0.9095,1.007
12.558000,0.3065,-0.2202,1.0729,1.137
12.563000,0.1023,-0.2705,1.2232,1.257
12.568000,-0.1974,-0.3633,1.2381,1.305
12.599000,-0.4199,-0.5031,1.2424,1.405
12.600000,-0.6035,-0.5437,1.2919,1.526
12.601000,-0.7216,-0.6162,1.3290,1.633
12.601000,-0.8485,-0.7879,1.3276,1.762
12.602000,-0.9918,-0.9517,1.3192,1.905
12.602000,-1.1510,-1.0831,1.2800,2.034
12.603000,-1.3691,-1.2348,1.2723,2.240
12.608000,-1.5739,-1.4536,1.3011,2.507
12.613000,-1.7514,-1.6089,1.3617,2.740
12.617000,-1.9706,-1.7691,1.3677,2.980
12.624000,-2.1426,-1.9477,1.3811,3.208
12.628000,-2.2728,-2.1031,1.3806,3.390
12.633000,-2.3679,-2.2531,1.2989,3.517
12.638000,-2.4925,-2.4141,1.3154,3.711
12.643000,-2.6016,-2.5587,1.3372,3.886
12.648000,-2.7569,-2.7046,1.3137,4.079
12.652000,-2.8104,-2.7644,1.4076,4.186
12.658000,-2.8962,-2.8838,1.3983,4.320
12.663000,-2.9351,-3.0454,1.3124,4.429
12.667000,-3.0399,-3.1929,1.2866,4.592
12.689000,-3.1936,-3.3256,1.3611,4.807
12.690000,-3.3315,-3.4668,1.3752,5.001
12.691000,-3.3990,-3.5721,1.3888,5.123
12.692000,-3.5559,-3.7289,1.4880,5.363
12.693000,-3.7594,-3.9499,1.5460,5.668
12.697000,-3.9710,-4.0474,1.5673,5.883
12.702000,-4.0232,-4.1022,1.5805,5.959
12.708000,-4.0836,-4.2178,1.6049,6.086
12.713000,-4.2794,-4.4737,1.5975,6.394
12.718000,-4.5238,-4.7175,1.5988,6.729
12.723000,-4.6902,-4.8969,1.5920,6.965
12.726000,-4.7428,-5.0735,1.5917,7.125
12.731000,-4.7462,-5.1729,1.5762,7.195
12.736000,-4.8204,-5.3415,1.6745,7.387
12.742000,-4.9555,-5.6141,1.5436,7.646
12.747000,-4.9819,-5.8716,1.3828,7.823
12.752000,-4.9379,-6.0989,1.2664,7.949
12.757000,-4.9144,-6.3389,1.1323,8.100
12.763000,-4.9284,-6.6425,1.0956,8.343
12.767000,-4.9009,-6.9061,0.9955,8.527
12.771000,-4.8773,-7.0767,0.9181,8.644
12.777000,-4.9607,-7.2769,0.8991,8.853
12.782000,-5.1197,-7.4246,0.8038,9.054
12.786000,-5.2875,-7.5173,0.7666,9.223
12.795000,-5.3969,-7.5521,0.8186,9.318
12.797000,-5.5245,-7.5382,0.8498,9.384
12.801000,-5.6464,-7.4948,0.8700,9.424
12.843000,-5.6956,-7.4860,0.8558,9.445
12.845000,-5.7317,-7.4180,0.8889,9.416
12.846000,-5.6832,-7.3841,0.8430,9.356
12.847000,-5.5476,-7.2909,0.7997,9.196
12.848000,-5.2031,-7.2418,0.7525,8.949
12.849000,-4.8364,-7.1701,0.6516,8.673
12.849000,-4.4788,-7.1507,0.5594,8.456
12.850000,-4.0417,-7.1481,0.4233,8.223
12.851000,-3.6737,-7.1847,0.3512,8.077
12.852000,-3.3197,-7.1464,0.2686,7.884
12.857000,-2.9750,-7.1314,0.2495,7.731
12.860000,-2.6659,-7.1096,0.2913,7.599
12.866000,-2.4211,-7.1286,0.4680,7.543
12.872000,-2.3100,-7.2054,0.7379,7.603
12.877000,-2.2870,-7.2275,0.9853,7.644
12.880000,-2.2251,-7.1988,1.2792,7.643
12.887000,-2.2367,-7.1005,1.5615,7.606
12.897000,-2.2883,-7.0305,1.7074,7.588
12.898000,-2.3319,-6.9257,1.8482,7.538
12.900000,-2.3961,-6.7773,1.9743,7.455
12.906000,-2.4497,-6.5506,2.0468,7.287
12.953000,-2.4855,-6.2655,2.2043,7.092
12.955000,-2.4437,-5.8890,2.3029,6.779
12.955000,-2.4056,-5.4443,2.4145,6.423
12.956000,-2.3591,-4.9776,2.5801,6.083
12.957000,-2.2445,-4.5208,2.7522,5.749
12.957000,-2.0951,-4.0635,2.7997,5.361
12.958000,-1.8871,-3.6765,2.7170,4.946
12.958000,-1.6562,-3.3829,2.6672,4.615
12.959000,-1.3692,-3.1456,2.4695,4.227
12.959000,-1.0381,-2.9794,2.2157,3.855
12.960000,-0.6534,-2.8673,1.9750,3.542
12.966000,-0.2418,-2.7241,1.7120,3.226
12.973000,0.1152,-2.6562,1.4533,3.030
12.977000,0.3363,-2.6582,1.1053,2.898
12.980000,0.5457,-2.6020,0.7401,2.760
12.985000,0.6599,-2.6015,0.4292,2.718
12.995000,0.7172,-2.5401,0.1583,2.644
12.996000,0.7675,-2.4900,-0.2163,2.615
13.001000,0.8186,-2.4548,-0.6156,2.660
13.006000,0.8580,-2.4376,-0.9433,2.751
13.012000,0.9268,-2.3279,-1.1591,2.761
13.015000,0.9720,-2.2050,-1.4379,2.806
13.020000,0.9671,-2.1077,-1.7152,2.884
13.065000,0.9695,-1.9859,-1.9430,2.943
13.067000,0.9174,-1.8149,-2.1094,2.930
13.068000,0.8341,-1.6771,-2.2124,2.899
13.069000,0.7178,-1.5738,-2.2264,2.819
13.070000,0.5897,-1.4481,-2.1541,2.662
13.071000,0.4784,-1.3480,-2.0321,2.485
13.073000,0.3317,-1.2199,-1.8726,2.259
13.074000,0.1830,-1.1119,-1.6114,1.966
13.075000,0.0346,-0.9715,-1.3468,1.661
13.076000,-0.0678,-0.8605,-1.0433,1.354
13.078000,-0.1790,-0.7135,-0.6964,1.013
13.081000,-0.3037,-0.5810,-0.3372,0.737
13.084000,-0.3871,-0.4225,-0.0491,0.575
13.090000,-0.4484,-0.2095,0.2355,0.548
13.094000,-0.5182,-0.0012,0.5307,0.742
13.099000,-0.5729,0.2117,0.7845,0.994
13.105000,-0.5698,0.4068,1.0187,1.236
13.113000,-0.5992,0.5855,1.2116,1.473
13.116000,-0.6016,0.7972,1.3515,1.680
13.119000,-0.6130,0.9581,1.4026,1.806
13.165000,-0.6263,1.1232,1.3367,1.855
13.166000,-0.6753,1.2848,1.3068,1.953
13.167000,-0.6972,1.4269,1.2859,2.043
13.169000,-0.6664,1.5465,1.1856,2.059
13.170000,-0.6183,1.6561,1.0205,2.041
13.171000,-0.6584,1.7553,0.8720,2.068
13.173000,-0.6674,1.8176,0.7598,2.080
13.174000,-0.7403,1.8868,0.6190,2.119
13.175000,-0.8222,1.9363,0.4761,2.157
13.175000,-0.8008,2.0091,0.3626,2.193
13.177000,-0.8289,2.0102,0.2734,2.192
13.183000,-0.8467,2.0351,0.1991,2.213
13.184000,-0.7945,2.0286,0.1303,2.183
13.189000,-0.6912,2.0008,0.0794,2.118
13.193000,-0.5675,2.0024,0.0242,2.081
13.198000,-0.4097,1.9730,-0.0493,2.016
13.203000,-0.2344,1.9842,-0.1121,2.001
13.209000,-0.0852,1.9568,-0.2334,1.973
13.214000,0.0746,1.9250,-0.3055,1.951
13.219000,0.2517,1.9004,-0.3494,1.949
13.226000,0.4719,1.9158,-0.4657,2.027
13.228000,0.6521,1.8451,-0.5539,2.034
13.233000,0.8228,1.8096,-0.4560,2.040
13.238000,1.0614,1.7675,-0.3904,2.098
13.271000,1.3078,1.7827,-0.3647,2.241
13.273000,1.6451,1.7854,-0.3577,2.454
13.273000,1.8703,1.8286,-0.3693,2.642
13.274000,2.0142,1.9044,-0.2801,2.786
13.274000,2.2437,1.9647,-0.2319,2.991
13.275000,2.4660,2.1126,-0.2242,3.255
13.275000,2.6113,2.2091,-0.2184,3.427
13.278000,2.8332,2.3169,-0.1427,3.663
13.283000,3.2027,2.4042,-0.0596,4.005
13.288000,3.6738,2.5473,-0.0986,4.472
13.293000,4.1621,2.7313,-0.1015,4.979
13.298000,4.5211,2.9199,-0.1208,5.383
13.303000,4.7668,2.9905,-0.0873,5.628
13.308000,4.9668,2.9746,-0.0493,5.790
13.313000,5.1180,2.8840,-0.0712,5.875
13.317000,5.1922,2.7669,-0.1508,5.885
13.327000,5.2618,2.6264,-0.2520,5.886
13.330000,5.3195,2.4480,-0.3028,5.864
13.332000,5.3945,2.2752,-0.3918,5.868
13.337000,5.4845,2.0868,-0.4831,5.888
13.389000,5.5011,1.8565,-0.5288,5.830
13.390000,5.5841,1.6521,-0.6750,5.862
13.391000,5.7568,1.4733,-0.6272,5.975
13.392000,5.8357,1.4066,-0.5866,6.031
13.392000,6.0004,1.4258,-0.5174,6.189
13.393000,6.1667,1.5017,-0.5152,6.368
13.393000,6.3750,1.6700,-0.4342,6.604
13.394000,6.5730,1.8279,-0.3530,6.832
13.394000,6.7911,1.9560,-0.2260,7.071
13.394000,7.0363,2.0613,-0.1323,7.333
13.397000,7.2844,2.1699,-0.0934,7.601
13.398000,7.6311,2.3059,-0.0252,7.972
13.403000,7.9867,2.4373,0.0334,8.350
13.409000,8.3245,2.4922,0.0586,8.690
13.412000,8.5293,2.4655,-0.0090,8.878
13.417000,8.7733,2.3884,0.0028,9.093
13.425000,8.9585,2.2370,-0.0020,9.234
13.428000,9.1659,2.1118,0.0004,9.406
13.431000,9.3190,2.0030,-0.0022,9.532
13.436000,9.4081,1.8722,0.0019,9.593
13.466000,9.3376,1.7578,0.0200,9.502
13.467000,9.2108,1.6359,0.0422,9.355
13.467000,9.0854,1.5474,0.0440,9.216
13.468000,8.9330,1.4923,0.0641,9.057
13.468000,8.8398,1.4324,0.0734,8.955
13.469000,8.6766,1.3318,0.0598,8.778
13.472000,8.4845,1.2481,0.0161,8.576
13.476000,8.2350,1.1743,0.0213,8.318
13.481000,7.9379,1.0912,-0.0276,8.013
13.486000,7.6488,1.0685,0.0415,7.723
13.491000,7.2788,1.0916,0.0727,7.361
13.496000,6.9052,1.1751,0.1833,7.007
13.501000,6.5019,1.3310,0.2989,6.643
13.506000,6.1164,1.5421,0.4458,6.324
13.511000,5.7084,1.7920,0.5261,6.006
13.516000,5.4002,2.0089,0.5236,5.786
13.520000,5.1099,2.1996,0.4577,5.582
13.526000,4.8401,2.3239,0.4153,5.385
13.531000,4.5997,2.4289,0.3274,5.212
13.535000,4.3936,2.4238,0.2373,5.023
13.543000,4.1982,2.2708,0.0432,4.773
13.545000,4.0584,2.0150,-0.1734,4.534
13.552000,3.9649,1.7453,-0.3378,4.345
13.583000,3.8512,1.4310,-0.4948,4.138
13.585000,3.7141,1.0691,-0.6539,3.920
13.585000,3.5356,0.6844,-0.7958,3.688
13.585000,3.3871,0.3625,-0.9324,3.532
13.586000,3.2069,0.0371,-1.0827,3.385
13.586000,3.0341,-0.2888,-1.1746,3.266
13.587000,2.9134,-0.5610,-1.2795,3.231
13.593000,2.8168,-0.8336,-1.3113,3.217
13.595000,2.6419,-1.1040,-1.2988,3.144
13.600000,2.4625,-1.3821,-1.3450,3.128
13.605000,2.2940,-1.5830,-1.2848,3.069
13.611000,2.1191,-1.7434,-1.2215,3.004
13.616000,1.9144,-1.8484,-1.2007,2.920
13.621000,1.7215,-1.8780,-1.1823,2.809
13.625000,1.4768,-1.8458,-1.0869,2.602
13.629000,1.2577,-1.8034,-1.0248,2.426
13.635000,1.0379,-1.6839,-0.8768,2.164
13.642000,0.8414,-1.5615,-0.6721,1.897
13.645000,0.7354,-1.3879,-0.5286,1.657
13.650000,0.6018,-1.2310,-0.2883,1.400
13.655000,0.4626,-1.0930,-0.1314,1.194
13.660000,0.3751,-0.9282,0.0589,1.003
13.665000,0.2787,-0.7544,0.1797,0.824
13.669000,0.1834,-0.6452,0.3573,0.760
13.701000,0.0909,-0.5417,0.5322,0.765
13.703000,-0.0200,-0.4459,0.6341,0.775
13.703000,-0.1397,-0.3600,0.7993,0.888
13.704000,-0.2687,-0.3111,0.9108,0.999
13.704000,-0.3877,-0.2389,0.9755,1.077
13.705000,-0.4868,-0.1601,1.0580,1.176
13.706000,-0.5880,-0.1277,1.1585,1.305
13.711000,-0.7227,-0.1349,1.2386,1.440
13.714000,-0.8761,-0.0951,1.2581,1.536
13.720000,-0.9884,-0.0875,1.2698,1.611
13.724000,-1.1241,-0.1114,1.2809,1.708
13.731000,-1.2787,-0.1511,1.2920,1.824
13.734000,-1.3921,-0.1938,1.2029,1.850
13.740000,-1.4953,-0.2728,1.1814,1.925
13.744000,-1.6435,-0.2908,1.1347,2.018
13.749000,-1.7840,-0.3431,1.1035,2.126
13.754000,-1.9164,-0.4339,1.0542,2.230
13.760000,-2.0243,-0.5471,1.0375,2.340
13.764000,-2.1359,-0.5693,1.0506,2.447
13.769000,-2.2159,-0.6546,1.0123,2.523
13.775000,-2.3142,-0.7142,0.9752,2.611
13.780000,-2.3684,-0.8048,0.9677,2.682
13.784000,-2.4030,-0.9106,0.9301,2.733
13.830000,-2.4726,-1.0694,0.9602,2.860
13.832000,-2.5461,-1.2138,1.0458,3.008
13.833000,-2.5736,-1.3280,1.0532,3.082
13.834000,-2.6170,-1.4761,1.0993,3.199
13.834000,-2.6571,-1.6026,1.2366,3.340
13.835000,-2.7015,-1.7805,1.4125,3.530
13.835000,-2.7833,-1.9846,1.5470,3.752
13.836000,-2.8812,-2.1345,1.7078,3.972
13.836000,-2.9806,-2.2942,1.8464,4.190
13.837000,-3.0790,-2.4414,1.9746,4.398
13.839000,-3.2315,-2.5915,2.0642,4.628
13.844000,-3.2825,-2.7436,2.1797,4.801
13.849000,-3.3133,-2.9953,2.1799,4.970
13.854000,-3.3550,-3.1797,2.1805,5.111
13.860000,-3.4530,-3.3416,2.3170,5.335
13.865000,-3.5980,-3.6038,2.3374,5.603
13.869000,-3.6415,-3.8050,2.3491,5.767
13.874000,-3.6744,-4.0214,2.3926,5.950
13.878000,-3.8596,-4.2607,2.3436,6.208
13.883000,-3.9908,-4.4764,2.3005,6.423
13.934000,-4.0490,-4.6607,2.2368,6.567
13.935000,-4.0009,-4.9121,2.1885,6.703
13.935000,-3.9831,-5.1374,2.1554,6.849
13.936000,-3.9739,-5.3888,2.1043,7.018
13.936000,-3.9710,-5.6186,2.0280,7.173
13.936000,-3.9385,-5.8478,1.8857,7.298
13.937000,-3.8933,-6.1030,1.8497,7.472
13.937000,-3.8737,-6.4033,1.8694,7.714
13.937000,-3.9180,-6.6260,1.8342,7.913
13.938000,-3.9473,-6.8165,1.8130,8.083
13.938000,-4.0501,-6.9168,1.8916,8.236
13.946000,-4.2096,-6.9013,1.9812,8.323
13.949000,-4.3637,-6.8434,2.1176,8.388
13.954000,-4.5192,-6.7668,2.1886,8.426
13.959000,-4.6047,-6.7479,2.2590,8.476
13.964000,-4.6007,-6.7575,2.3267,8.500
13.969000,-4.5147,-6.8286,2.3610,8.520
13.976000,-4.4376,-6.8710,2.4264,8.532
13.979000,-4.3001,-6.9130,2.4582,8.504
13.982000,-4.0952,-6.9403,2.4393,8.420
13.988000,-3.8994,-6.9008,2.3610,8.270
14.030000,-3.7294,-6.8380,2.2524,8.108
14.031000,-3.5757,-6.7904,2.1307,7.965
14.031000,-3.4334,-6.7511,2.0203,7.839
14.032000,-3.1948,-6.7250,1.9148,7.688
14.032000,-2.9270,-6.6596,1.7996,7.494
14.032000,-2.6253,-6.6296,1.7348,7.338
14.033000,-2.3807,-6.5804,1.6361,7.187
14.033000,-2.2770,-6.5100,1.5946,7.079
14.033000,-2.2422,-6.4474,1.5027,6.990
14.038000,-2.2332,-6.3756,1.4437,6.908
14.042000,-2.2140,-6.2731,1.3242,6.783
14.048000,-2.1680,-6.1854,1.2283,6.668
14.053000,-2.1262,-6.0763,1.1912,6.547
14.058000,-2.1843,-5.8747,1.2728,6.396
14.062000,-2.2967,-5.5875,1.4003,6.201
14.072000,-2.5543,-5.3367,1.5395,6.114
14.073000,-2.8134,-4.9860,1.7383,5.983
14.077000,-3.0185,-4.6276,1.9485,5.859
14.082000,-3.1219,-4.2923,2.1538,5.728
14.087000,-3.0995,-3.9541,2.2902,5.521
14.092000,-2.9322,-3.6221,2.4365,5.259
14.097000,-2.6919,-3.3061,2.5456,4.966
14.101000,-2.4362,-3.0719,2.5586,4.682
14.139000,-2.1124,-2.9500,2.5091,4.411
14.140000,-1.7806,-2.8795,2.4173,4.160
14.140000,-1.4550,-2.8192,2.2539,3.892
14.141000,-1.1097,-2.7462,2.0196,3.585
14.141000,-0.8047,-2.7788,1.6768,3.344
14.142000,-0.4824,-2.7439,1.3761,3.107
14.142000,-0.2603,-2.6761,1.0848,2.899
14.142000,-0.1193,-2.6503,0.8272,2.779
14.147000,-0.0449,-2.6537,0.5291,2.706
14.151000,0.0010,-2.7661,0.2150,2.774
14.156000,0.0119,-2.9834,-0.1556,2.988
14.161000,0.0761,-3.1597,-0.4962,3.199
14.167000,0.1842,-3.2711,-0.7542,3.362
14.172000,0.2645,-3.2977,-1.0617,3.475
14.176000,0.2666,-3.2213,-1.3210,3.492
14.182000,0.1928,-3.1477,-1.5804,3.527
14.186000,0.1417,-3.0422,-1.7635,3.519
14.192000,0.1177,-2.9128,-1.8707,3.464
14.196000,0.0543,-2.7730,-1.9028,3.364
14.201000,-0.0798,-2.5993,-1.8918,3.216
14.240000,-0.2107,-2.3922,-1.8881,3.055
14.241000,-0.3234,-2.1221,-1.7748,2.785
14.241000,-0.4684,-1.7990,-1.5810,2.440
14.242000,-0.5908,-1.4998,-1.3360,2.094
14.242000,-0.6160,-1.2141,-1.1190,1.762
14.242000,-0.6403,-0.9524,-0.9182,1.470
14.242000,-0.6536,-0.5919,-0.6356,1.087
14.243000,-0.6158,-0.2842,-0.3455,0.761
14.247000,-0.6012,0.0276,-0.1598,0.623
14.250000,-0.5689,0.3347,0.0337,0.661
14.257000,-0.5216,0.6099,0.2044,0.828
14.260000,-0.4908,0.8862,0.2738,1.049
14.265000,-0.4092,1.1283,0.3401,1.247
14.270000,-0.3875,1.3280,0.4182,1.445
14.276000,-0.3367,1.5146,0.4223,1.608
14.280000,-0.3817,1.6901,0.4003,1.778
14.285000,-0.4055,1.8661,0.3600,1.943
14.292000,-0.4073,1.9358,0.2418,1.993
14.296000,-0.4259,2.0091,0.1412,2.059
14.300000,-0.5188,2.0473,0.0299,2.112
14.346000,-0.5564,2.0441,-0.0854,2.120
14.346000,-0.5767,1.9951,-0.1883,2.085
14.347000,-0.5945,1.9931,-0.3983,2.118
14.347000,-0.5613,1.9815,-0.5740,2.138
14.347000,-0.5730,1.9721,-0.7392,2.183
14.347000,-0.5122,1.9459,-0.8817,2.197
14.348000,-0.3694,1.9605,-1.0613,2.260
14.348000,-0.1951,1.9842,-1.1916,2.323
14.348000,0.0039,1.9820,-1.2560,2.346
14.349000,0.1384,2.0509,-1.3263,2.446
14.355000,0.3118,2.0768,-1.4024,2.525
14.359000,0.4545,2.0185,-1.4986,2.555
14.366000,0.6115,2.0315,-1.5288,2.615
14.371000,0.8100,2.0040,-1.6052,2.692
14.376000,1.0037,2.0141,-1.6010,2.762
14.381000,1.3010,2.0341,-1.5861,2.889
14.384000,1.5911,2.0821,-1.5414,3.040
14.391000,1.8401,2.1147,-1.4693,3.165
14.395000,2.0724,2.1301,-1.3391,3.260
14.399000,2.2735,2.1448,-1.1897,3.344
14.404000,2.5551,2.3207,-1.0020,3.594
14.410000,2.8119,2.4902,-0.9172,3.866
14.414000,3.1082,2.6626,-0.8705,4.184
14.419000,3.3459,2.7783,-0.7512,4.413
14.447000,3.4695,2.7507,-0.5788,4.465
14.449000,3.5845,2.7236,-0.4257,4.522
14.450000,3.7293,2.7475,-0.3307,4.644
14.450000,3.8511,2.8199,-0.3464,4.786
14.450000,3.9542,2.8422,-0.3675,4.884
14.451000,4.0321,2.8390,-0.4010,4.948
14.454000,4.0631,2.7384,-0.4252,4.918
14.459000,4.1525,2.6698,-0.5170,4.964
14.464000,4.2865,2.5741,-0.5709,5.032
14.474000,4.4504,2.4509,-0.6656,5.124
14.475000,4.5966,2.2886,-0.7771,5.193
14.479000,4.8259,2.1401,-0.8310,5.344
14.485000,5.0132,1.9931,-0.8990,5.469
14.491000,5.1781,1.8621,-0.8834,5.573
14.494000,5.3594,1.8290,-0.9227,5.738
14.499000,5.5418,1.9072,-0.9234,5.933
14.504000,5.7977,1.9798,-0.8949,6.191
14.509000,6.0018,2.1158,-0.9065,6.428
14.513000,6.2308,2.2288,-0.8576,6.673
14.518000,6.4297,2.3360,-0.7935,6.887
14.525000,6.6675,2.4583,-0.8317,7.155
14.529000,6.9109,2.5816,-0.7829,7.419
14.567000,7.1281,2.6242,-0.7838,7.636
14.569000,7.4387,2.7367,-0.8463,7.971
14.569000,7.7748,2.8301,-0.9436,8.327
14.569000,8.0546,2.8011,-1.0065,8.587
14.570000,8.2325,2.7718,-1.0132,8.746
14.570000,8.4475,2.6633,-1.0357,8.918
14.571000,8.6440,2.5065,-1.0336,9.059
14.571000,8.8721,2.3610,-0.9663,9.232
14.576000,9.0023,2.2147,-0.8653,9.311
14.578000,9.1279,1.9909,-0.7407,9.372
14.583000,9.1867,1.7567,-0.6002,9.372
14.590000,9.1000,1.4952,-0.4347,9.232
14.593000,8.9635,1.2975,-0.3452,9.064
14.598000,8.7392,1.0750,-0.2694,8.809
14.604000,8.4254,0.8903,-0.1861,8.474
14.609000,8.0155,0.7531,-0.0714,8.051
14.613000,7.6010,0.6162,-0.0070,7.626
14.618000,7.2136,0.5659,0.0122,7.236
14.624000,6.8080,0.5448,0.0868,6.830
14.628000,6.3747,0.5721,0.2143,6.404
14.632000,5.9048,0.7007,0.3941,5.959
14.638000,5.4583,0.8852,0.5588,5.558
14.680000,5.0762,1.1618,0.5842,5.240
14.682000,4.7581,1.4940,0.6379,5.028
14.683000,4.4468,1.8150,0.5937,4.839
14.684000,4.1758,2.0747,0.5409,4.694
14.684000,3.9085,2.2150,0.4513,4.515
14.685000,3.7100,2.3250,0.2496,4.385
14.685000,3.5938,2.3156,-0.0277,4.275
14.686000,3.4979,2.1965,-0.1861,4.135
14.686000,3.3747,1.9538,-0.3995,3.920
14.689000,3.2740,1.6471,-0.6342,3.719
14.692000,3.1651,1.3483,-0.8493,3.544
14.697000,2.9792,0.9768,-1.0491,3.306
14.705000,2.8356,0.6422,-1.1714,3.135
14.707000,2.6464,0.2781,-1.3044,2.964
14.712000,2.4867,-0.0547,-1.4455,2.877
14.718000,2.3633,-0.4593,-1.4511,2.811
14.722000,2.2294,-0.8604,-1.4552,2.798
14.727000,2.0919,-1.2416,-1.5270,2.872
14.732000,2.0280,-1.5089,-1.5711,2.976
14.737000,1.9781,-1.6859,-1.5659,3.034
14.745000,1.9467,-1.8232,-1.5784,3.099
14.747000,1.8980,-1.9160,-1.5752,3.123
14.752000,1.8588,-1.9279,-1.5134,3.076
14.790000,1.9050,-1.8381,-1.4025,2.996
14.791000,1.9386,-1.6489,-1.2268,2.825
14.792000,1.9996,-1.4595,-0.9503,2.652
14.792000,2.0496,-1.2890,-0.5069,2.474
14.792000,2.0240,-1.0250,-0.1562,2.274
14.792000,1.9820,-0.7834,0.2136,2.142
14.793000,1.9140,-0.5521,0.5178,2.058
14.793000,1.8035,-0.3261,0.8295,2.012
14.796000,1.7239,-0.0584,1.0394,2.014
14.802000,1.6323,0.1673,1.2067,2.037
14.806000,1.5525,0.3390,1.3904,2.111
14.811000,1.5174,0.5111,1.5360,2.219
14.816000,1.4578,0.6242,1.6813,2.311
14.823000,1.3830,0.7351,1.8523,2.426
14.826000,1.3189,0.8455,1.9440,2.497
14.831000,1.2559,0.9031,2.0517,2.570
14.836000,1.1487,0.9148,2.1112,2.572
14.842000,1.0498,0.9140,2.1895,2.595
14.847000,0.9141,0.8343,2.2649,2.581
14.851000,0.7579,0.7105,2.3138,2.536
14.860000,0.5747,0.6395,2.2863,2.443
14.863000,0.3450,0.5674,2.2430,2.339
14.866000,0.1075,0.4303,2.1598,2.205
14.871000,-0.1851,0.2864,2.0640,2.092
14.908000,-0.4923,0.0991,1.9943,2.057
14.909000,-0.7561,-0.0828,1.8699,2.019
14.910000,-1.0239,-0.2633,1.6913,1.994
14.910000,-1.2578,-0.4601,1.5020,2.012
14.910000,-1.4762,-0.6289,1.3835,2.119
14.911000,-1.6415,-0.7828,1.2886,2.229
14.911000,-1.7768,-0.9657,1.1644,2.334
14.914000,-1.9759,-1.2098,1.0572,2.547
14.916000,-2.1786,-1.4354,1.0575,2.815
14.921000,-2.2747,-1.6279,1.0190,2.977
14.926000,-2.3479,-1.8346,1.0685,3.165
14.931000,-2.4655,-2.0471,1.1412,3.402
14.936000,-2.5530,-2.2473,1.2267,3.616
14.942000,-2.6777,-2.4818,1.3158,3.881
14.947000,-2.7962,-2.6494,1.4465,4.115
14.950000,-2.8678,-2.8500,1.5703,4.337
14.996000,-3.0028,-3.0438,1.7092,4.605
14.997000,-3.1627,-3.2613,1.8119,4.891
14.998000,-3.3760,-3.4704,1.8876,5.197
14.998000,-3.5951,-3.6817,1.9604,5.507
14.998000,-3.7908,-3.8122,2.0369,5.749
14.999000,-3.9493,-3.9325,2.0311,5.932
14.999000,-3.9890,-4.0559,2.0648,6.052
15.000000,-4.0750,-4.1700,2.2144,6.237
15.000000,-4.2124,-4.3213,2.2977,6.457
15.001000,-4.2743,-4.4969,2.2547,6.601
15.005000,-4.3611,-4.7270,2.2124,6.801
15.010000,-4.5614,-4.9123,2.2065,7.057
15.016000,-4.7173,-5.1348,2.1551,7.298
15.021000,-4.8026,-5.2973,1.9646,7.415
15.025000,-4.8343,-5.4377,1.7908,7.493
15.031000,-4.8791,-5.6461,1.6314,7.638
15.034000,-4.9182,-5.7896,1.5109,7.745
15.039000,-4.8606,-6.0277,1.3143,7.854
15.045000,-4.9026,-6.2523,1.1115,8.023
15.050000,-4.9746,-6.4974,0.9268,8.235
15.060000,-5.0265,-6.7452,0.8436,8.454
15.062000,-5.0440,-6.9534,0.8232,8.630
15.066000,-5.1037,-7.0757,0.7865,8.760
15.121000,-5.2438,-7.1365,0.7671,8.889
15.124000,-5.4475,-7.1661,0.8223,9.039
15.125000,-5.5999,-7.1598,0.9498,9.139
15.126000,-5.7320,-7.1360,1.0514,9.213
15.126000,-5.8941,-7.1277,1.1849,9.325
15.127000,-5.9880,-7.0198,1.3138,9.320
15.127000,-5.9684,-6.8719,1.3501,9.201
15.128000,-5.8066,-6.7391,1.3109,8.992
15.128000,-5.5818,-6.5594,1.2543,8.704
15.129000,-5.2582,-6.4218,1.2376,8.392
15.129000,-4.9029,-6.3269,1.0888,8.078
15.130000,-4.5639,-6.1748,0.8684,7.727
15.130000,-4.2652,-6.0500,0.6532,7.431
15.134000,-4.0281,-5.9696,0.4437,7.215
15.141000,-3.8385,-5.9152,0.2571,7.056
15.144000,-3.6458,-5.8843,0.0504,6.922
15.149000,-3.4240,-5.8963,-0.1091,6.819
15.155000,-3.1633,-5.9081,-0.1832,6.704
15.160000,-2.9094,-5.9512,-0.2653,6.630
15.165000,-2.6719,-5.9472,-0.3987,6.532
15.169000,-2.5105,-6.0274,-0.4879,6.548
15.175000,-2.3799,-6.1515,-0.5879,6.622
15.179000,-2.2989,-6.2717,-0.6364,6.710
15.183000,-2.2364,-6.3728,-0.6073,6.781
15.234000,-2.3958,-6.4652,-0.4634,6.910
15.235000,-2.6593,-6.4711,-0.3204,7.004
15.235000,-3.0123,-6.3518,-0.1337,7.031
15.236000,-3.3351,-6.1645,0.1611,7.011
15.236000,-3.4933,-5.8412,0.4757,6.823
15.236000,-3.4701,-5.4675,0.8653,6.533
15.237000,-3.3493,-5.1083,1.2682,6.239
15.237000,-3.1574,-4.7592,1.6059,5.933
15.237000,-2.8252,-4.3927,1.8981,5.557
15.237000,-2.4340,-4.0583,2.1427,5.195
15.242000,-2.0103,-3.7714,2.3375,4.871
15.243000,-1.5616,-3.5427,2.4398,4.576
15.249000,-1.1786,-3.3863,2.4136,4.322
15.253000,-0.7948,-3.2602,2.3289,4.085
15.260000,-0.4652,-3.1963,2.1338,3.871
15.263000,-0.1346,-3.2199,1.9262,3.755
15.268000,0.0580,-3.3514,1.6849,3.752
15.276000,0.2446,-3.4344,1.3738,3.707
15.278000,0.4325,-3.5066,1.0980,3.700
15.282000,0.7292,-3.5997,0.7663,3.752
15.287000,1.0602,-3.7024,0.3958,3.871
15.322000,1.4044,-3.7012,0.1474,3.961
15.323000,1.6562,-3.6878,-0.0699,4.043
15.323000,1.8589,-3.6914,-0.3421,4.147
15.324000,2.0070,-3.5481,-0.4731,4.104
15.324000,2.1135,-3.3228,-0.5012,3.970
15.324000,2.1155,-3.0512,-0.4561,3.741
15.325000,2.0519,-2.7320,-0.3956,3.440
15.328000,2.0660,-2.3132,-0.2652,3.113
15.334000,1.9566,-1.8572,-0.1682,2.703
15.337000,1.8866,-1.3714,0.0742,2.334
15.342000,1.8245,-0.8942,0.2198,2.044
15.347000,1.7579,-0.4144,0.3323,1.836
15.352000,1.6921,0.0762,0.4617,1.756
15.359000,1.7050,0.5331,0.5568,1.871
15.365000,1.6942,0.9762,0.5310,2.026
15.370000,1.7446,1.4304,0.4611,2.303
15.375000,1.8301,1.8027,0.4762,2.613
15.378000,1.8401,2.1691,0.4585,2.881
15.384000,1.8771,2.4002,0.4251,3.077
15.388000,1.8283,2.6843,0.3833,3.270
15.393000,1.7513,2.9312,0.3091,3.428
15.397000,1.7269,3.0346,0.2417,3.500
15.402000,1.5617,3.1081,0.2002,3.484
15.459000,1.3706,3.1729,0.1709,3.461
15.460000,1.1727,3.1909,0.1591,3.403
15.460000,0.9609,3.1693,0.1726,3.316
15.461000,0.7190,3.0902,0.1735,3.177
15.461000,0.4519,2.9867,0.1314,3.024
15.463000,0.1291,2.8672,0.0850,2.871
15.465000,-0.0984,2.7201,0.0183,2.722
15.466000,-0.3070,2.6412,-0.0681,2.660
15.466000,-0.4485,2.4900,-0.1458,2.534
15.468000,-0.5515,2.3936,-0.2286,2.467
15.469000,-0.6187,2.2440,-0.3757,2.358
15.472000,-0.6710,2.0685,-0.5105,2.234
15.473000,-0.7156,1.9195,-0.6086,2.137
15.474000,-0.7258,1.8048,-0.6225,2.043
15.478000,-0.7087,1.6457,-0.6766,1.915
15.483000,-0.6930,1.5330,-0.6946,1.820
15.487000,-0.6304,1.4169,-0.6890,1.697
15.491000,-0.5283,1.3046,-0.7509,1.595
15.497000,-0.4346,1.2484,-0.7964,1.543
15.502000,-0.2413,1.2009,-0.7849,1.455
15.509000,0.0056,1.2690,-0.7380,1.468
15.512000,0.3493,1.3359,-0.6108,1.510
15.516000,0.6242,1.4678,-0.4708,1.663
15.521000,0.8777,1.5827,-0.3304,1.840
15.544000,1.0815,1.6285,-0.1995,1.965
15.545000,1.2688,1.6933,-0.0474,2.116
15.545000,1.4607,1.7865,0.1137,2.310
15.545000,1.6531,1.8485,0.2162,2.489
15.545000,1.8884,1.9579,0.2839,2.735
15.552000,2.0728,2.0592,0.3860,2.947
15.557000,2.1760,2.1003,0.4454,3.057
15.561000,2.2930,2.2220,0.4407,3.223
15.566000,2.4819,2.3313,0.4840,3.439
15.574000,2.6534,2.4181,0.4293,3.616
15.576000,2.8267,2.4156,0.3676,3.736
15.581000,2.9994,2.4194,0.2967,3.865
15.585000,3.1669,2.4776,0.2071,4.026
15.591000,3.2997,2.4962,0.1423,4.140
15.596000,3.4250,2.4543,0.0234,4.214
15.600000,3.5281,2.3208,-0.1086,4.224
15.608000,3.6716,2.1557,-0.2197,4.263
15.611000,3.8121,1.9639,-0.2881,4.298
15.615000,3.9480,1.8272,-0.5029,4.379
15.620000,4.1506,1.7762,-0.5548,4.549
15.676000,4.4802,1.7398,-0.6023,4.844
15.676000,4.7348,1.7840,-0.6974,5.108
15.677000,4.9391,1.8517,-0.8595,5.344
15.677000,5.1620,1.9547,-1.0307,5.615
15.677000,5.3483,1.9947,-1.2294,5.839
15.678000,5.6102,2.0672,-1.3643,6.133
15.678000,5.8928,2.1987,-1.5264,6.472
15.679000,6.2097,2.3312,-1.6339,6.831
15.679000,6.5439,2.4621,-1.7845,7.216
15.679000,6.9091,2.4764,-1.8751,7.575
15.679000,7.2285,2.4265,-1.9914,7.881
15.680000,7.5422,2.3695,-1.9568,8.144
15.685000,7.9579,2.3007,-1.9559,8.512
15.691000,8.3001,2.1598,-1.9359,8.792
15.695000,8.5473,1.9755,-1.8706,8.970
15.700000,8.7401,1.7957,-1.7651,9.096
15.705000,8.8858,1.6345,-1.5961,9.175
15.710000,9.1156,1.5518,-1.4214,9.355
15.718000,9.2716,1.3701,-1.2248,9.452
15.719000,9.2768,1.1898,-1.0569,9.412
15.758000,9.1842,1.0802,-0.9202,9.293
15.759000,8.9750,0.9984,-0.7744,9.063
15.760000,8.6904,0.8562,-0.6674,8.758
15.760000,8.3402,0.7636,-0.4991,8.390
15.760000,7.9466,0.7043,-0.3987,7.988
15.761000,7.4767,0.7575,-0.2660,7.520
15.761000,7.0118,0.9517,-0.0562,7.076
15.761000,6.5026,1.1439,0.0871,6.603
15.765000,6.0017,1.3268,0.1614,6.149
15.770000,5.6313,1.5748,0.2986,5.855
15.774000,5.3364,1.8305,0.3292,5.651
15.780000,5.0497,2.0099,0.3349,5.445
15.784000,4.8287,2.1419,0.3142,5.292
15.790000,4.6352,2.2315,0.2865,5.152
