time,ax,ay,az,aT
0.003000,0.4127,-0.0241,-1.3507,1.413
0.004000,0.5140,0.1522,-1.3031,1.409
0.009000,0.5570,0.3445,-1.2153,1.381
0.012000,0.5513,0.5283,-1.1136,1.350
0.016000,0.4772,0.6389,-0.9883,1.270
0.021000,0.3066,0.6018,-0.9784,1.189
0.026000,0.2531,0.7805,-0.7614,1.119
0.032000,0.2642,0.7933,-0.4444,0.947
0.036000,0.1985,0.7354,-0.2760,0.810
0.047000,0.1058,0.6418,-0.1121,0.660
0.047000,0.0915,0.5720,0.0187,0.580
0.052000,0.1584,0.5116,0.0855,0.542
0.068000,0.1970,0.4751,0.0742,0.520
0.069000,0.2201,0.4531,0.0709,0.509
0.069000,0.2736,0.4102,0.0804,0.500
0.072000,0.3678,0.2773,0.0979,0.471
0.077000,0.4456,0.3419,0.0587,0.565
0.081000,0.5253,0.3365,0.2189,0.661
0.086000,0.6421,0.3429,0.2411,0.767
0.092000,0.6812,0.3306,0.1922,0.781
0.097000,0.6158,0.2930,0.1149,0.692
0.101000,0.4792,0.1873,0.0474,0.517
0.109000,0.6064,0.2461,-0.0705,0.658
0.112000,0.6528,0.3617,-0.2075,0.775
0.117000,0.5285,0.4907,-0.2969,0.780
0.127000,0.2972,0.5489,-0.3675,0.724
0.129000,0.0989,0.5244,-0.4051,0.670
0.133000,0.0081,0.4822,-0.4816,0.682
0.137000,-0.0860,0.5060,-0.5158,0.728
0.142000,-0.0067,0.5401,-0.4740,0.719
0.148000,0.1882,0.5387,-0.4303,0.715
0.152000,0.3704,0.4556,-0.4038,0.713
0.169000,0.4591,0.3545,-0.3967,0.703
0.171000,0.5247,0.2442,-0.3206,0.662
0.172000,0.5889,0.1573,-0.1846,0.637
0.173000,0.6528,0.0935,-0.1247,0.671
0.178000,0.7487,0.0698,-0.0833,0.757
0.185000,0.8831,0.0842,-0.1033,0.893
0.187000,0.9754,0.2230,-0.1389,1.010
0.197000,0.8741,0.1892,-0.1211,0.903
0.198000,0.6920,-0.1552,-0.3702,0.800
0.202000,0.6087,-0.2347,-0.5255,0.838
0.215000,0.4491,-0.1668,-0.6445,0.803
0.216000,0.5566,0.1365,-0.3059,0.650
0.217000,0.8065,0.3062,-0.2558,0.900
0.226000,0.8496,0.2615,-0.3506,0.956
0.226000,0.7720,0.0992,-0.4590,0.904
0.232000,0.7243,-0.0967,-0.5476,0.913
0.236000,0.5221,-0.0607,-0.4299,0.679
0.241000,0.6555,0.0130,-0.3140,0.727
0.247000,0.7876,0.0410,-0.3769,0.874
0.251000,0.7504,0.0000,-0.4633,0.882
0.259000,0.7037,-0.0642,-0.4489,0.837
0.263000,0.7145,-0.1277,-0.3963,0.827
0.266000,0.6858,-0.2258,-0.3270,0.793
0.271000,0.6443,-0.4441,-0.2390,0.818
0.277000,0.4810,-0.4566,-0.1299,0.676
0.282000,0.4209,-0.4999,0.0120,0.654
0.286000,0.4942,-0.4104,0.0001,0.642
0.303000,0.4558,-0.2693,-0.0772,0.535
0.304000,0.3853,-0.0915,-0.0837,0.405
0.304000,0.3448,0.1222,-0.0550,0.370
0.310000,0.3155,0.3253,0.0091,0.453
0.312000,0.2448,0.4999,0.0991,0.565
0.317000,0.2025,0.6143,0.1961,0.676
0.322000,0.1489,0.6942,0.3239,0.780
0.327000,0.1050,0.7151,0.4493,0.851
0.332000,0.0615,0.7245,0.5438,0.908
0.337000,0.0552,0.7152,0.5813,0.923
0.353000,0.0722,0.7015,0.5714,0.908
0.354000,0.0633,0.6358,0.5310,0.831
0.355000,-0.0148,0.5935,0.3690,0.699
0.359000,0.0088,0.6476,0.1587,0.667
0.363000,0.0992,0.6795,0.0960,0.693
0.368000,0.2258,0.7661,0.0569,0.801
0.387000,0.3922,0.8423,-0.1067,0.935
0.388000,0.5693,0.8807,-0.2317,1.074
0.388000,0.6506,0.8389,-0.3468,1.117
0.388000,0.6774,0.7160,-0.5114,1.110
0.392000,0.7010,0.6000,-0.7423,1.184
0.398000,0.7292,0.5619,-0.9579,1.329
0.403000,0.7112,0.5491,-1.2111,1.508
0.416000,0.7086,0.5186,-1.4660,1.709
0.417000,0.7560,0.4499,-1.7276,1.939
0.418000,0.8799,0.3041,-2.0369,2.240
0.425000,0.8974,0.1690,-2.6550,2.808
0.427000,0.8437,-0.0263,-2.9723,3.090
0.433000,0.8341,-0.1814,-3.3355,3.443
0.437000,0.9876,-0.2894,-3.5414,3.688
0.442000,1.2980,-0.3403,-3.7432,3.976
0.448000,2.2638,-0.2995,-4.0347,4.636
0.453000,2.5730,-0.3068,-3.6165,4.449
0.458000,2.4022,-0.1581,-3.6246,4.351
0.463000,1.7836,0.0554,-3.5445,3.968
0.467000,1.1052,0.2181,-3.5981,3.770
0.476000,0.0623,-0.3375,-3.5340,3.551
0.478000,-0.0810,-0.3338,-4.0336,4.048
0.483000,0.0351,-0.2437,-4.5251,4.532
0.488000,0.1721,-0.2273,-4.8121,4.821
0.501000,0.3728,-0.2752,-4.9808,5.002
0.502000,0.6601,-0.3376,-5.0092,5.064
0.503000,0.5381,-0.4053,-4.9544,5.000
0.508000,1.3573,-0.4720,-4.8302,5.039
0.517000,1.6855,-0.4928,-4.5308,4.859
0.534000,1.8911,-0.4980,-4.2275,4.658
0.535000,1.9597,-0.5791,-4.0391,4.527
0.536000,1.9660,-0.7536,-4.0558,4.570
0.536000,2.0213,-0.9539,-4.3010,4.847
0.538000,2.1140,-1.0928,-4.6024,5.181
0.544000,2.0349,-1.1451,-4.9101,5.437
0.548000,1.8614,-1.1888,-5.2267,5.674
0.554000,1.6171,-1.2601,-5.5416,5.909
0.560000,1.3745,-1.3794,-5.9131,6.225
0.563000,1.0771,-1.5236,-6.2558,6.528
0.567000,0.6538,-1.7232,-6.6684,6.918
0.574000,0.2140,-1.9533,-6.9695,7.241
0.578000,-0.2413,-2.1562,-7.1733,7.494
0.583000,-0.6147,-2.3677,-7.3596,7.755
0.588000,-0.8847,-2.5737,-7.4748,7.955
0.600000,-1.0540,-2.7779,-7.5368,8.101
0.601000,-1.2117,-2.9937,-7.5049,8.170
0.602000,-1.4193,-3.2538,-7.3858,8.195
0.608000,-1.5410,-3.4183,-7.0106,7.950
0.618000,-1.4352,-3.4113,-6.2697,7.281
0.619000,-1.2501,-3.3731,-5.3662,6.460
0.633000,-1.0349,-3.4263,-4.6234,5.847
0.634000,-0.7983,-3.5656,-4.2002,5.567
0.635000,-0.6036,-3.7371,-4.0897,5.573
0.638000,-0.1701,-3.9249,-4.2579,5.793
0.644000,0.1985,-3.9247,-4.2058,5.756
0.648000,0.3077,-3.9543,-3.9742,5.615
0.654000,0.2052,-3.8160,-3.8502,5.425
0.657000,-0.0197,-3.6276,-4.0076,5.406
0.663000,-0.2885,-3.4469,-4.1037,5.367
0.668000,-0.5422,-3.2493,-4.3306,5.441
0.673000,-0.7335,-3.2189,-4.5964,5.659
0.678000,-0.8627,-3.1947,-4.8884,5.903
0.683000,-0.7808,-3.1532,-5.2231,6.151
0.687000,-0.7129,-3.1418,-5.5886,6.451
0.694000,-0.8179,-3.2521,-5.9143,6.799
0.698000,-0.9697,-3.4060,-6.0268,6.990
0.703000,-1.1135,-3.5785,-5.9341,7.019
0.719000,-1.0856,-3.8452,-5.6403,6.912
0.720000,-0.7878,-4.1567,-4.9061,6.478
0.721000,-0.2758,-4.4397,-3.6328,5.743
0.725000,0.3185,-4.7084,-1.9496,5.106
0.728000,0.8418,-4.9496,-0.1831,5.024
0.733000,1.2563,-5.1368,1.5896,5.522
0.738000,1.3575,-5.3958,3.0376,6.339
0.746000,1.2075,-5.6250,4.0965,7.063
0.748000,0.8579,-5.7530,4.6218,7.429
0.754000,0.7303,-5.9179,4.5666,7.511
0.759000,0.8400,-5.8350,4.4690,7.398
0.763000,0.2673,-5.6077,4.5657,7.236
0.768000,-0.3330,-5.4633,4.1226,6.852
0.775000,-0.5411,-5.0769,3.2728,6.065
0.778000,-0.4731,-4.7985,1.9508,5.201
0.783000,-0.0196,-4.6508,0.4878,4.676
0.788000,0.5689,-4.1631,-0.5956,4.244
0.795000,1.0439,-3.4651,-1.6504,3.978
0.799000,1.7559,-2.9224,-2.4927,4.223
0.803000,3.0063,-2.5143,-2.7950,4.814
0.818000,4.7698,-2.1423,-2.4637,5.780
0.820000,6.5308,-1.8480,-1.5401,6.960
0.820000,7.8706,-1.9644,-0.5579,8.131
0.825000,8.7440,-1.9575,1.0487,9.022
0.831000,9.1124,-1.5791,3.1143,9.758
0.834000,9.0304,-0.9503,5.3528,10.541
0.840000,8.7586,-0.3555,7.1717,11.326
0.848000,8.3840,0.1534,8.2458,11.760
0.850000,8.0792,0.5735,8.4545,11.708
0.854000,7.7918,0.8300,7.9052,11.131
0.859000,7.5668,1.0590,6.7826,10.217
0.865000,7.5212,1.3490,5.2907,9.294
0.869000,8.0319,1.6574,3.6032,8.958
0.875000,8.4562,1.5309,1.8100,8.782
0.878000,8.4834,1.4752,0.6552,8.636
0.884000,7.6296,1.9681,0.4610,7.893
0.889000,6.2887,2.8411,0.7253,6.939
0.894000,5.4099,3.4072,1.1065,6.489
0.899000,5.4168,3.3406,1.5437,6.549
0.903000,6.1369,3.1562,2.3137,7.278
0.915000,7.1454,3.3111,3.4054,8.580
0.916000,8.1264,3.8745,4.5636,10.093
0.918000,9.0418,4.5945,5.6127,11.592
0.937000,9.8120,5.2159,6.4699,12.858
0.938000,10.3051,5.6709,7.1019,13.740
0.939000,10.3274,6.0451,7.4513,14.097
0.939000,9.9367,6.3776,7.4291,13.950
0.946000,9.2484,6.6394,6.9976,13.363
0.948000,8.3588,6.8550,6.2749,12.499
0.954000,7.4694,6.9860,5.3918,11.562
0.958000,6.7626,7.0161,4.4994,10.733
0.963000,6.2550,7.0044,3.7456,10.110
0.968000,5.9612,7.1025,3.1984,9.809
0.974000,5.9291,7.3107,2.7794,9.815
0.978000,6.0887,7.5412,2.4449,9.996
0.983000,6.2173,7.6884,2.2832,10.148
0.991000,5.6241,7.0949,2.4981,9.392
0.994000,5.3753,7.1540,2.5874,9.315
0.999000,5.6208,7.8587,2.2715,9.925
1.003000,6.1485,8.6893,1.8439,10.803
1.011000,6.5979,9.2643,1.3722,11.456
1.014000,6.7871,9.4662,0.8078,11.676
1.019000,6.7758,9.3482,0.2115,11.548
1.031000,6.8156,9.0192,-0.3217,11.309
1.033000,6.8630,8.6281,-0.6374,11.043
1.043000,6.8273,8.2870,-0.6887,10.759
1.044000,6.7016,7.9834,-0.6409,10.443
1.045000,6.4862,7.6866,-0.6223,10.077
1.061000,6.2365,7.4021,-0.6527,9.701
1.064000,5.9431,7.1395,-0.6958,9.315
1.064000,5.6107,6.9253,-0.7481,8.944
1.065000,5.2967,6.7763,-0.7924,8.637
1.069000,5.0226,6.6952,-0.7873,8.407
1.075000,4.8125,6.6341,-0.7164,8.227
1.078000,4.6519,6.5618,-0.6180,8.067
1.084000,4.5455,6.4687,-0.5329,7.924
1.089000,4.4312,6.3616,-0.4777,7.767
1.095000,4.2445,6.2363,-0.4839,7.559
1.100000,3.9689,6.0905,-0.5584,7.291
1.103000,3.6502,5.9127,-0.7155,6.985
1.109000,3.4438,5.6511,-0.9378,6.684
1.114000,3.5390,5.2322,-1.1037,6.412
1.118000,3.8228,4.7110,-1.1234,6.170
1.131000,4.1592,4.1997,-0.9691,5.990
1.133000,4.4954,3.7422,-0.7320,5.895
1.159000,4.6808,3.3543,-0.4642,5.777
1.160000,4.5794,3.0166,-0.1881,5.487
1.160000,4.3401,2.7579,0.0414,5.142
1.161000,4.0253,2.5411,0.1579,4.763
1.161000,3.6328,2.3639,0.1539,4.337
1.162000,3.1434,2.2104,0.0037,3.843
1.164000,2.5931,2.0812,-0.3180,3.340
1.169000,2.0224,1.9530,-0.7740,2.916
1.174000,1.5050,1.8212,-1.2914,2.693
1.179000,1.1365,1.6181,-1.7500,2.641
1.184000,0.8830,1.3314,-2.0745,2.618
1.191000,0.7564,1.0164,-2.2456,2.578
1.194000,0.7376,0.6709,-2.1714,2.389
1.200000,0.8100,0.3043,-1.8142,2.010
1.206000,0.8567,-0.1106,-1.2806,1.545
1.210000,0.8017,-0.5410,-0.6543,1.168
1.214000,0.5592,-0.8984,0.0131,1.058
1.218000,0.1010,-1.1057,0.6054,1.265
1.229000,-0.4914,-1.2768,1.0406,1.719
1.230000,-1.0647,-1.5043,1.1401,2.167
1.234000,-1.4974,-1.7092,1.0769,2.515
1.259000,-1.8021,-1.8553,0.9245,2.747
1.261000,-2.0342,-1.9238,0.7348,2.895
1.261000,-2.2922,-1.9274,0.5936,3.053
1.262000,-2.4492,-2.0003,0.3676,3.184
1.262000,-2.5966,-2.1449,0.1605,3.372
1.265000,-2.7056,-2.3529,-0.0330,3.586
1.268000,-2.7000,-2.7050,-0.2563,3.831
1.274000,-2.4220,-2.9122,-0.3729,3.806
1.279000,-2.1136,-2.9694,-0.3450,3.661
1.284000,-1.8605,-2.8950,-0.2813,3.453
1.288000,-1.6843,-2.8482,-0.2627,3.319
1.294000,-1.5516,-2.9315,-0.2497,3.326
1.300000,-1.5363,-3.1517,-0.1576,3.510
1.303000,-1.6385,-3.3887,-0.0754,3.765
1.310000,-1.7671,-3.6704,-0.1487,4.076
1.315000,-1.8625,-4.0058,-0.2976,4.428
1.319000,-1.9989,-4.2600,-0.4210,4.724
1.325000,-1.9610,-4.1913,-0.5752,4.663
1.329000,-2.1316,-4.2743,-0.7582,4.836
1.335000,-2.1946,-4.2573,-1.0123,4.895
1.347000,-2.2338,-4.2243,-1.1918,4.925
1.349000,-2.2467,-4.1589,-1.3145,4.906
1.382000,-2.2548,-4.0404,-1.3513,4.820
1.383000,-2.3083,-3.9058,-1.3045,4.721
1.384000,-2.3857,-3.8394,-1.2237,4.683
1.385000,-2.4917,-3.8794,-1.0938,4.739
1.385000,-2.6189,-4.0324,-0.9292,4.897
1.386000,-2.8343,-4.2813,-0.7277,5.186
1.386000,-3.1066,-4.5611,-0.6054,5.552
1.387000,-3.4860,-4.8062,-0.5584,5.963
1.392000,-4.0035,-5.0328,-0.6304,6.462
1.394000,-4.6712,-5.3307,-0.7182,7.124
1.400000,-5.3527,-5.6809,-0.7164,7.838
1.404000,-5.8543,-6.0045,-0.7353,8.418
1.410000,-6.1045,-6.2227,-0.8573,8.759
1.415000,-6.0820,-6.3338,-0.9690,8.834
1.419000,-5.8444,-6.3388,-1.0283,8.683
1.425000,-5.4612,-6.2390,-1.1088,8.365
1.430000,-5.0113,-6.0973,-1.2323,7.988
1.434000,-4.5900,-5.9639,-1.4017,7.655
1.441000,-4.2187,-5.8823,-1.5936,7.412
1.445000,-3.8828,-5.7880,-1.7924,7.197
1.449000,-3.5485,-5.6790,-1.8972,6.960
1.455000,-3.0839,-5.5795,-1.5989,6.573
1.462000,-2.3576,-5.4701,-1.0532,6.049
1.465000,-1.6424,-5.4220,-0.8523,5.729
1.470000,-1.6319,-5.4046,-1.3405,5.803
1.488000,-0.9410,-5.3759,-2.0213,5.820
1.489000,-0.6275,-5.3032,-2.5749,5.929
1.489000,-0.3397,-5.2225,-3.0157,6.040
1.489000,-0.1156,-5.0976,-3.4772,6.172
1.496000,0.0134,-4.9855,-3.8698,6.311
1.500000,0.0831,-4.8737,-4.1397,6.395
1.505000,0.1008,-4.7719,-4.2939,6.420
1.509000,0.1048,-4.6774,-4.3514,6.389
1.516000,0.1311,-4.5845,-4.3597,6.328
1.519000,0.2008,-4.4633,-4.3114,6.209
1.524000,0.2948,-4.3325,-4.2107,6.049
1.530000,0.3675,-4.2022,-4.0861,5.873
1.534000,0.4142,-4.1178,-3.9349,5.711
1.540000,0.4204,-4.0576,-3.7307,5.528
1.544000,0.3983,-4.0229,-3.4712,5.328
1.549000,0.4340,-3.9904,-3.1191,5.083
1.554000,0.5658,-3.9978,-2.6777,4.845
1.560000,0.6999,-3.9974,-2.1608,4.598
1.565000,0.8246,-3.9557,-1.6218,4.354
1.569000,0.9180,-3.8659,-1.1028,4.124
1.576000,0.9756,-3.7324,-0.5802,3.901
1.579000,0.8630,-3.5894,-0.0407,3.692
1.585000,0.6142,-3.4288,0.5007,3.519
1.601000,0.2774,-3.2306,1.0049,3.395
1.603000,-0.1375,-2.9964,1.4238,3.320
1.604000,-0.5991,-2.7303,1.7028,3.273
1.605000,-1.0328,-2.4409,1.8645,3.241
1.613000,-1.4219,-2.1214,1.9746,3.228
1.616000,-1.7588,-1.8211,2.0339,3.248
1.620000,-1.9715,-1.5419,2.0692,3.247
1.627000,-2.0577,-1.2812,2.0856,3.198
1.630000,-2.0532,-1.0314,2.1140,3.122
1.636000,-1.9775,-0.8202,2.1326,3.022
1.641000,-1.8449,-0.6616,2.1432,2.904
1.645000,-1.6820,-0.5250,2.1499,2.780
1.650000,-1.4816,-0.3750,2.1427,2.632
1.655000,-1.2560,-0.2003,2.1355,2.486
1.662000,-1.0052,-0.0130,2.0805,2.311
1.665000,-0.8110,0.1400,1.9503,2.117
1.670000,-0.6587,0.2737,1.8296,1.964
1.683000,-0.5147,0.4141,1.7360,1.857
1.686000,-0.3482,0.5635,1.6652,1.792
1.686000,-0.1445,0.7318,1.5645,1.733
1.714000,0.0643,0.8646,1.3903,1.639
1.715000,0.2424,0.9002,1.1769,1.501
1.716000,0.3920,0.8861,0.9641,1.367
1.716000,0.5249,0.8702,0.7866,1.285
1.716000,0.6311,0.8571,0.6431,1.244
1.718000,0.7301,0.8879,0.5292,1.266
1.719000,0.8306,0.9686,0.4459,1.352
1.725000,0.9085,1.0874,0.3911,1.470
1.730000,0.9685,1.2226,0.3913,1.608
1.735000,0.9937,1.3599,0.4563,1.745
1.741000,1.0104,1.4826,0.5498,1.876
1.745000,0.9782,1.5863,0.6499,1.974
1.750000,0.9136,1.6825,0.7396,2.052
1.756000,0.8360,1.7695,0.8330,2.127
1.760000,0.7625,1.8500,0.9322,2.207
1.765000,0.7029,1.9241,1.0250,2.291
1.770000,0.6456,1.9927,1.1422,2.386
1.779000,0.6406,2.0504,1.2613,2.491
1.781000,0.6789,2.1169,1.4224,2.639
1.785000,0.8464,2.1994,1.5936,2.845
1.806000,1.0282,2.3098,1.7882,3.097
1.807000,1.2124,2.4096,1.9647,3.337
1.808000,1.3825,2.4823,2.1318,3.552
1.808000,1.5593,2.5346,2.2378,3.723
1.810000,1.7384,2.5810,2.3162,3.879
1.815000,1.9052,2.6456,2.3666,4.029
1.820000,2.0790,2.7353,2.4033,4.193
1.826000,2.2210,2.8570,2.4240,4.356
1.830000,2.3554,3.0014,2.4361,4.527
1.835000,2.4697,3.1486,2.4632,4.699
1.841000,2.5615,3.2941,2.4650,4.847
1.846000,2.6191,3.4213,2.4537,4.958
1.850000,2.6544,3.5087,2.3961,5.010
1.858000,2.7060,3.5495,2.2954,5.019
1.860000,2.8047,3.5507,2.1806,5.023
1.865000,2.9508,3.5127,2.0784,5.037
1.870000,3.1441,3.4499,2.0086,5.082
1.876000,3.3800,3.3645,2.0165,5.178
1.881000,3.6510,3.2209,2.0756,5.293
1.886000,3.9336,3.0193,2.1929,5.422
1.899000,4.2274,2.8220,2.3531,5.601
1.900000,4.5208,2.6673,2.5441,5.833
1.901000,4.8185,2.5719,2.7416,6.111
1.905000,5.0917,2.5550,2.9215,6.402
1.928000,5.3165,2.5925,3.0765,6.667
1.931000,5.4904,2.6602,3.1942,6.886
1.933000,5.5872,2.7560,3.2748,7.038
1.933000,5.6550,2.8941,3.3495,7.182
1.934000,5.7201,3.0771,3.4424,7.351
1.935000,5.7895,3.3023,3.5725,7.562
1.942000,5.8754,3.5649,3.7256,7.817
1.945000,5.9796,3.8528,3.8673,8.097
1.950000,6.1093,4.1516,3.9833,8.392
1.955000,6.2573,4.4660,4.0781,8.702
1.960000,6.4063,4.7767,4.1536,9.006
1.965000,6.5751,5.0595,4.1805,9.290
1.970000,6.7418,5.3023,4.1370,9.523
1.975000,6.9584,5.5166,4.0181,9.747
1.981000,7.1862,5.6854,3.8527,9.940
1.985000,7.4106,5.7918,3.6695,10.096
1.995000,7.5853,5.8208,3.4778,10.174
1.997000,7.6601,5.7677,3.2776,10.133
2.000000,7.6131,5.6921,3.0755,9.991
2.021000,7.4420,5.6226,2.8883,9.764
2.023000,7.1447,5.5328,2.7161,9.436
2.024000,6.7482,5.4354,2.5857,9.043
2.026000,6.2918,5.3427,2.5021,8.625
2.027000,5.8360,5.2291,2.4517,8.211
2.031000,5.4321,5.1145,2.4353,7.848
2.037000,5.1211,4.9993,2.4367,7.560
2.042000,4.9416,4.8839,2.4446,7.365
2.046000,4.8915,4.7730,2.4192,7.250
2.051000,4.9536,4.6858,2.3443,7.210
2.056000,5.1014,4.6050,2.2112,7.219
2.061000,5.3058,4.5328,2.0785,7.281
2.066000,5.5399,4.4304,1.9705,7.362
2.070000,5.7845,4.2808,1.9090,7.445
2.076000,6.0367,4.0813,1.8559,7.520
2.081000,6.3108,3.8534,1.8206,7.615
2.085000,6.5989,3.6130,1.7865,7.732
2.092000,6.8939,3.3387,1.7540,7.858
2.096000,7.1860,2.9870,1.7159,7.969
2.100000,7.4939,2.5577,1.6843,8.096
2.106000,7.7961,2.0936,1.6611,8.241
2.110000,8.0727,1.6537,1.6435,8.403
2.116000,8.2690,1.2836,1.5996,8.520
2.120000,8.3749,0.9559,1.4811,8.558
2.130000,8.3618,0.6609,1.2711,8.484
2.132000,8.2061,0.3936,0.9866,8.275
2.136000,7.9445,0.1351,0.6827,7.975
2.153000,7.6204,-0.1265,0.3812,7.631
2.155000,7.2759,-0.3946,0.1295,7.288
2.156000,6.9373,-0.6790,-0.0730,6.971
2.157000,6.6122,-0.9527,-0.2413,6.685
2.163000,6.2792,-1.2352,-0.3379,6.408
2.167000,5.9145,-1.5022,-0.3589,6.113
2.171000,5.5203,-1.7756,-0.3244,5.808
2.177000,5.0979,-2.0156,-0.2379,5.487
2.181000,4.6233,-2.2102,-0.0787,5.125
2.186000,4.1303,-2.3613,0.1118,4.759
2.192000,3.6505,-2.4612,0.3165,4.414
2.196000,3.1741,-2.5151,0.5161,4.083
2.201000,2.7214,-2.5209,0.7202,3.779
2.208000,2.2923,-2.4839,0.8980,3.497
2.210000,1.8940,-2.4156,1.0452,3.243
2.217000,1.5531,-2.3469,1.1433,3.038
2.220000,1.2936,-2.2872,1.2170,2.896
2.230000,1.1411,-2.2062,1.2952,2.801
2.233000,1.0652,-2.1244,1.3858,2.751
2.237000,1.0770,-2.0571,1.4724,2.749
2.268000,1.1549,-2.0241,1.5458,2.796
2.269000,1.2913,-2.0020,1.6302,2.887
2.269000,1.4381,-2.0155,1.7405,3.026
2.269000,1.5636,-2.0589,1.8523,3.180
2.271000,1.6517,-2.1288,1.9375,3.319
2.273000,1.6926,-2.2000,2.1014,3.482
2.273000,1.6409,-2.3326,2.0763,3.528
2.278000,1.5041,-2.4715,2.1090,3.580
2.281000,1.2632,-2.6416,2.1231,3.617
2.288000,0.9620,-2.8335,2.1100,3.661
2.295000,0.6152,-3.0212,2.0745,3.716
2.297000,0.2301,-3.2354,2.0409,3.832
2.302000,-0.1594,-3.4492,1.9879,3.984
2.307000,-0.5316,-3.6499,1.9371,4.166
2.311000,-0.8843,-3.8550,1.8767,4.378
2.317000,-1.2002,-4.0618,1.8070,4.605
2.322000,-1.4770,-4.2687,1.7399,4.840
2.331000,-1.6765,-4.4678,1.6301,5.043
2.332000,-1.8131,-4.6449,1.5259,5.214
2.336000,-1.9252,-4.8117,1.4318,5.377
2.356000,-2.0251,-4.9742,1.3116,5.528
2.356000,-2.1579,-5.1446,1.1698,5.700
2.357000,-2.2711,-5.3046,1.0182,5.859
2.357000,-2.4007,-5.4612,0.8756,6.029
2.362000,-2.5253,-5.5973,0.7222,6.183
2.366000,-2.6856,-5.7280,0.5933,6.354
2.371000,-2.8553,-5.8586,0.4643,6.534
2.376000,-3.0370,-6.0038,0.3657,6.738
2.381000,-3.2307,-6.1561,0.2970,6.959
2.386000,-3.4223,-6.3246,0.2483,7.195
2.392000,-3.5952,-6.5017,0.2213,7.433
2.396000,-3.7687,-6.6615,0.2159,7.657
2.401000,-3.9311,-6.8045,0.2249,7.862
2.409000,-4.0825,-6.9360,0.2651,8.053
2.411000,-4.2086,-7.0772,0.3176,8.240
2.416000,-4.3266,-7.2110,0.3683,8.417
2.421000,-4.4485,-7.3300,0.4195,8.585
2.427000,-4.5577,-7.3967,0.4544,8.700
2.432000,-4.6856,-7.4359,0.4519,8.801
2.436000,-4.8298,-7.4723,0.4290,8.908
2.448000,-4.9666,-7.4864,0.4078,8.993
2.450000,-5.0865,-7.5114,0.3815,9.080
2.452000,-5.1705,-7.5166,0.3336,9.129
2.489000,-5.1711,-7.5104,0.2576,9.122
2.493000,-5.1243,-7.5033,0.1587,9.087
2.494000,-5.0421,-7.4929,0.0322,9.031
2.496000,-4.9318,-7.4990,-0.1026,8.976
2.496000,-4.8269,-7.5339,-0.2460,8.951
2.497000,-4.7729,-7.5929,-0.3838,8.977
2.497000,-4.7413,-7.6803,-0.5305,9.041
2.498000,-4.7511,-7.7938,-0.6863,9.154
2.498000,-4.7810,-7.9187,-0.8345,9.288
2.502000,-4.8334,-8.0594,-0.9464,9.445
2.507000,-4.8966,-8.2273,-1.0246,9.629
2.512000,-4.9514,-8.3983,-1.0809,9.809
2.517000,-5.0028,-8.5645,-1.1130,9.981
2.522000,-5.0509,-8.7089,-1.1255,10.130
2.526000,-5.0886,-8.8263,-1.1162,10.249
2.532000,-5.1327,-8.9260,-1.0875,10.354
2.536000,-5.1522,-8.9909,-1.0563,10.416
2.542000,-5.1327,-9.0114,-1.0391,10.423
2.547000,-5.0718,-8.9849,-1.0167,10.367
2.551000,-4.9550,-8.9066,-0.9962,10.241
2.562000,-4.7751,-8.7960,-0.9870,10.057
2.564000,-4.5343,-8.6796,-0.9987,9.843
2.567000,-4.2254,-8.5716,-1.0453,9.613
2.571000,-3.8313,-8.5258,-1.1266,9.415
2.593000,-3.3422,-8.5206,-1.2376,9.236
2.595000,-2.7820,-8.5566,-1.3924,9.105
2.597000,-2.1958,-8.6083,-1.5741,9.022
2.598000,-1.6455,-8.6330,-1.7635,8.964
2.599000,-1.1883,-8.5899,-1.9424,8.887
2.602000,-0.8692,-8.4461,-2.0898,8.744
2.608000,-0.6952,-8.1740,-2.1658,8.485
2.612000,-0.6947,-7.8003,-2.1451,8.120
2.617000,-0.8557,-7.3895,-2.0133,7.707
2.622000,-0.8597,-6.9597,-1.7563,7.229
2.627000,-1.3310,-6.5856,-1.4384,6.871
2.632000,-1.5109,-6.2708,-1.0663,6.538
2.637000,-1.5812,-6.0221,-0.6396,6.259
2.647000,-1.5349,-5.8060,-0.1442,6.007
2.648000,-1.3983,-5.6491,0.3861,5.832
2.653000,-1.2096,-5.5412,0.9293,5.747
2.657000,-0.9545,-5.4529,1.4274,5.717
2.671000,-0.6425,-5.3741,1.8249,5.712
2.674000,-0.2641,-5.2954,2.1315,5.714
2.675000,0.1878,-5.1934,2.3114,5.688
2.677000,0.6917,-5.0689,2.3696,5.638
2.682000,1.1974,-4.9292,2.3156,5.576
2.687000,1.6830,-4.7674,2.1375,5.489
2.692000,2.1555,-4.6027,1.8523,5.409
2.697000,2.5575,-4.4503,1.4699,5.339
2.702000,2.8697,-4.3396,0.9794,5.294
2.709000,3.0874,-4.2630,0.4437,5.282
2.713000,3.1936,-4.2341,-0.1123,5.305
2.719000,3.2052,-4.2159,-0.6425,5.335
2.722000,3.1175,-4.1748,-1.1033,5.326
2.727000,2.9354,-4.1130,-1.4990,5.271
2.732000,2.6734,-4.0322,-1.7961,5.161
2.737000,2.3463,-3.9168,-2.0375,5.000
2.748000,2.0138,-3.7842,-2.1965,4.817
2.749000,1.6955,-3.6376,-2.2657,4.609
2.752000,1.4130,-3.4480,-2.2525,4.354
2.787000,1.1856,-3.2364,-2.1981,4.088
2.789000,1.0587,-2.9815,-2.1124,3.804
2.790000,1.0325,-2.6944,-2.0075,3.515
2.790000,1.0846,-2.3796,-1.8793,3.220
2.791000,1.1792,-2.0680,-1.7447,2.951
2.792000,1.2776,-1.7720,-1.5992,2.707
2.793000,1.3749,-1.5089,-1.4527,2.505
2.793000,1.4425,-1.2734,-1.2788,2.310
2.797000,1.5059,-1.0575,-1.0543,2.121
2.803000,1.5462,-0.8440,-0.7865,1.929
2.808000,1.5727,-0.6211,-0.4569,1.752
2.813000,1.5709,-0.3912,-0.0777,1.621
2.817000,1.5479,-0.1426,0.3217,1.587
2.824000,1.5065,0.1138,0.7578,1.690
2.828000,1.4698,0.3982,1.2133,1.947
2.832000,1.4334,0.6875,1.6326,2.279
2.839000,1.4068,0.9724,1.9869,2.622
2.843000,1.3924,1.2338,2.2519,2.921
2.848000,1.4141,1.5100,2.4156,3.180
2.852000,1.4480,1.8088,2.4807,3.394
2.859000,1.4742,2.1239,2.4472,3.560
2.864000,1.5144,2.4198,2.3062,3.670
2.867000,1.5709,2.7108,2.0606,3.750
2.880000,1.6480,2.9988,1.7209,3.830
2.882000,1.7389,3.2698,1.3165,3.930
2.884000,1.8137,3.5058,0.8863,4.045
2.909000,1.8393,3.6904,0.4358,4.146
2.911000,1.8323,3.8284,-0.0009,4.244
2.912000,1.7880,3.9103,-0.3967,4.318
2.912000,1.7017,3.9484,-0.7369,4.362
2.913000,1.6003,3.9336,-0.9828,4.359
2.913000,1.4881,3.8921,-1.1320,4.318
2.918000,1.3777,3.8174,-1.1940,4.230
2.924000,1.2670,3.7242,-1.1810,4.107
2.928000,1.1803,3.6156,-1.1099,3.962
2.933000,1.1632,3.5157,-0.9857,3.832
2.937000,1.1922,3.4057,-0.8182,3.700
2.943000,1.2618,3.2998,-0.6296,3.588
2.948000,1.3389,3.2028,-0.4203,3.497
2.952000,1.4378,3.1102,-0.2097,3.433
2.965000,1.5443,3.0195,-0.0102,3.392
2.966000,1.6705,2.9456,0.1950,3.392
2.968000,1.8206,2.8855,0.3957,3.435
2.999000,1.9996,2.8393,0.6082,3.526
3.000000,2.1931,2.8071,0.8681,3.666
3.000000,2.4151,2.7936,1.1172,3.858
3.001000,2.6391,2.8034,1.3457,4.079
3.001000,2.8532,2.8508,1.5298,4.314
3.002000,3.0687,2.9162,1.6666,4.550
3.003000,3.2832,3.0068,1.7780,4.794
3.009000,3.4943,3.1129,1.8592,5.036
3.014000,3.6826,3.2153,1.9198,5.252
3.019000,3.8385,3.3043,1.9526,5.428
3.022000,3.9526,3.3731,1.9673,5.556
3.028000,4.0462,3.4331,1.9471,5.652
3.035000,4.1122,3.4848,1.9235,5.723
3.038000,4.1559,3.5259,1.8989,5.771
3.043000,4.2010,3.5565,1.8927,5.821
3.048000,4.2599,3.6008,1.8830,5.887
3.054000,4.3227,3.6586,1.8458,5.956
3.058000,4.3895,3.7036,1.7765,6.012
3.069000,4.4772,3.7290,1.6753,6.063
3.072000,4.5976,3.7441,1.5710,6.134
3.073000,4.7388,3.7346,1.4494,6.205
3.098000,4.9152,3.7126,1.3324,6.302
3.100000,5.1116,3.7109,1.2176,6.433
3.100000,5.3328,3.7439,1.1005,6.608
3.101000,5.5258,3.7657,1.0028,6.762
3.101000,5.6809,3.7787,0.9292,6.886
3.104000,5.7887,3.7758,0.8679,6.966
3.109000,5.8658,3.7402,0.8355,7.007
3.113000,5.8980,3.6553,0.8177,6.987
3.120000,5.9050,3.5622,0.8192,6.945
3.124000,5.8941,3.4610,0.8301,6.885
3.128000,5.8872,3.3881,0.8432,6.845
3.134000,5.8775,3.3244,0.8587,6.807
3.138000,5.9176,3.2820,0.8739,6.823
3.142000,6.0005,3.2538,0.8818,6.883
3.148000,6.1212,3.2397,0.9203,6.987
3.153000,6.2820,3.2254,0.9869,7.130
3.158000,6.4826,3.2681,1.0334,7.333
3.162000,6.7345,3.3532,1.0766,7.600
3.167000,7.0058,3.4657,1.0946,7.892
3.177000,7.2722,3.5576,1.0949,8.169
3.179000,7.5215,3.6141,1.0752,8.414
3.185000,7.7341,3.6399,1.0355,8.610
3.188000,7.8831,3.6656,1.0404,8.756
3.197000,7.9299,3.7387,1.0869,8.834
3.198000,7.8501,3.8662,1.1745,8.829
3.204000,7.6292,4.0477,1.2763,8.730
3.208000,7.3129,4.2737,1.4255,8.589
3.214000,6.9593,4.5158,1.5812,8.445
3.222000,6.5589,4.7548,1.7146,8.281
3.224000,6.1436,4.9412,1.8096,8.089
3.228000,5.7356,5.0416,1.8494,7.857
3.234000,5.3592,5.0829,1.8538,7.615
3.239000,5.0627,5.0628,1.8067,7.384
3.244000,4.8513,4.9530,1.7229,7.144
3.248000,4.7366,4.7821,1.6291,6.925
3.254000,4.6952,4.5624,1.5424,6.726
3.259000,4.7555,4.3105,1.4680,6.584
3.263000,4.8886,4.0647,1.4154,6.513
3.276000,5.4125,3.5735,1.4112,6.638
3.277000,5.3650,3.5379,1.3884,6.575
3.279000,5.6839,3.2920,1.3755,6.711
3.287000,6.0267,3.0416,1.3487,6.884
3.289000,6.3808,2.8125,1.3101,7.095
3.311000,6.6815,2.5158,1.2384,7.246
3.313000,6.9286,2.1778,1.1097,7.347
3.314000,7.1173,1.8098,0.9243,7.402
3.314000,7.2890,1.4317,0.6997,7.461
3.314000,7.4505,1.0714,0.4484,7.540
3.319000,7.6042,0.7289,0.1970,7.642
3.325000,7.7047,0.3964,-0.0253,7.715
3.328000,7.7807,0.0547,-0.1777,7.783
3.334000,7.8010,-0.3206,-0.2892,7.813
3.339000,7.7715,-0.7285,-0.3573,7.814
3.344000,7.7017,-1.1142,-0.3803,7.791
3.349000,7.5895,-1.4947,-0.3321,7.742
3.354000,7.4302,-1.8530,-0.2400,7.662
3.360000,7.2169,-2.1556,-0.0902,7.533
3.364000,6.9519,-2.4247,0.1023,7.363
3.368000,6.6412,-2.6325,0.3318,7.152
3.377000,6.3133,-2.8129,0.5713,6.935
3.379000,5.9519,-2.9515,0.8085,6.693
3.384000,5.5669,-3.0790,1.0378,6.446
3.398000,5.1795,-3.1864,1.2186,6.202
3.400000,4.7816,-3.2840,1.3819,5.963
3.400000,4.3968,-3.3817,1.5371,5.756
3.403000,4.0325,-3.4746,1.6768,5.581
3.431000,3.6770,-3.5624,1.7818,5.421
3.433000,3.3064,-3.6164,1.8544,5.239
3.433000,2.9229,-3.6661,1.8971,5.058
3.434000,2.5348,-3.6833,1.9371,4.873
3.434000,2.1275,-3.6807,1.9626,4.682
3.435000,1.7323,-3.6726,1.9644,4.511
3.439000,1.3469,-3.6658,1.9335,4.358
3.444000,0.9762,-3.6746,1.8726,4.238
3.451000,0.6416,-3.7045,1.8134,4.174
3.454000,0.3416,-3.7701,1.7451,4.168
3.460000,0.0662,-3.8504,1.6872,4.204
3.464000,-0.1630,-3.9429,1.6423,4.274
3.469000,-0.3651,-4.0234,1.6085,4.348
3.474000,-0.5286,-4.0951,1.5788,4.421
3.479000,-0.6505,-4.1611,1.5660,4.493
3.483000,-0.7599,-4.2030,1.5582,4.547
3.489000,-0.8785,-4.2402,1.5578,4.602
3.494000,-0.9968,-4.2440,1.5480,4.626
3.499000,-1.1148,-4.2194,1.5312,4.625
3.503000,-1.2353,-4.2176,1.5047,4.645
3.514000,-1.3529,-4.2583,1.4761,4.706
3.516000,-1.4609,-4.3303,1.4594,4.797
3.520000,-1.5759,-4.4262,1.4587,4.920
3.538000,-1.6885,-4.5294,1.4495,5.047
3.540000,-1.8179,-4.6406,1.4073,5.179
3.540000,-1.9782,-4.7414,1.3511,5.312
3.541000,-2.1623,-4.8110,1.2735,5.426
3.544000,-2.3799,-4.8899,1.1815,5.565
3.550000,-2.5997,-4.9780,1.0681,5.717
3.553000,-2.8265,-5.0677,0.9550,5.881
3.559000,-3.0509,-5.1882,0.8494,6.078
3.564000,-3.2511,-5.3112,0.7369,6.271
3.568000,-3.4179,-5.4634,0.6247,6.475
3.575000,-3.5465,-5.6090,0.5222,6.657
3.579000,-3.6466,-5.7525,0.4175,6.824
3.583000,-3.7327,-5.8822,0.3034,6.973
3.591000,-3.8168,-6.0061,0.1678,7.118
3.594000,-3.9134,-6.1537,0.0112,7.293
3.599000,-4.0296,-6.2920,-0.1636,7.474
3.603000,-4.1752,-6.4566,-0.3350,7.696
3.609000,-4.3381,-6.6449,-0.4936,7.951
3.615000,-4.5209,-6.8426,-0.6393,8.226
3.622000,-4.6999,-7.0430,-0.7792,8.503
3.625000,-4.8823,-7.2299,-0.9182,8.772
3.635000,-5.0540,-7.3980,-1.0488,9.021
3.638000,-5.2151,-7.5442,-1.1732,9.246
3.639000,-5.3612,-7.6589,-1.2886,9.437
3.645000,-5.4660,-7.7733,-1.3878,9.604
3.651000,-5.5539,-7.8957,-1.4731,9.765
3.654000,-5.6082,-8.0095,-1.5375,9.898
3.670000,-5.6412,-8.1218,-1.5858,10.015
3.674000,-5.6553,-8.2373,-1.6134,10.121
3.676000,-5.6366,-8.3390,-1.6325,10.197
3.677000,-5.6089,-8.4345,-1.6310,10.260
3.680000,-5.5581,-8.5445,-1.5949,10.317
3.684000,-5.4989,-8.6740,-1.5339,10.384
3.691000,-5.4287,-8.8276,-1.4699,10.467
3.695000,-5.4149,-8.9717,-1.4008,10.572
3.699000,-5.2612,-9.1255,-1.3341,10.618
3.704000,-5.1927,-9.2574,-1.2702,10.690
3.710000,-5.1377,-9.3460,-1.2168,10.734
3.714000,-5.0986,-9.3746,-1.1574,10.734
3.719000,-5.0729,-9.3507,-1.0952,10.694
3.729000,-5.0535,-9.2599,-1.0258,10.599
3.731000,-5.0259,-9.1362,-0.9760,10.473
3.734000,-5.0187,-9.0183,-0.9966,10.369
3.765000,-5.0294,-8.9253,-1.1184,10.306
3.767000,-5.0461,-8.8859,-1.3193,10.303
3.767000,-5.0757,-8.8998,-1.5914,10.368
3.768000,-5.0822,-8.9620,-1.8817,10.473
3.768000,-5.0587,-9.0409,-2.1322,10.577
3.769000,-5.0023,-9.1344,-2.3261,10.671
3.770000,-4.9252,-9.2609,-2.4463,10.771
3.775000,-4.7960,-9.4080,-2.4947,10.851
3.779000,-4.5884,-9.5731,-2.4801,10.902
3.784000,-4.3119,-9.7764,-2.4233,10.956
3.789000,-3.9924,-9.9619,-2.3521,10.987
3.794000,-3.6513,-10.0838,-2.2708,10.962
3.800000,-3.3193,-10.0851,-2.1890,10.841
3.805000,-3.0008,-9.8831,-2.0972,10.539
3.811000,-2.7362,-9.4575,-1.9771,10.042
3.814000,-2.5705,-8.8782,-1.8145,9.419
3.820000,-2.4770,-8.2601,-1.5980,8.770
3.828000,-2.3958,-7.6670,-1.3514,8.146
3.834000,-2.2475,-7.1257,-1.0743,7.549
3.835000,-2.0107,-6.6577,-0.7714,6.997
3.839000,-1.6470,-6.2783,-0.4620,6.507
3.875000,-1.1708,-6.0015,-0.1413,6.116
3.876000,-0.6086,-5.8108,0.1640,5.845
3.877000,0.0061,-5.6724,0.4514,5.690
3.877000,0.6612,-5.5726,0.6869,5.654
3.878000,1.2849,-5.5119,0.8419,5.722
3.878000,1.8819,-5.4754,0.9330,5.864
3.879000,2.4425,-5.4702,0.9644,6.068
3.879000,2.9378,-5.4671,0.8977,6.271
3.885000,3.3440,-5.4471,0.7115,6.431
3.891000,3.6872,-5.4176,0.4751,6.571
3.894000,3.9770,-5.3716,0.1547,6.685
3.900000,4.2040,-5.2917,-0.2089,6.762
3.904000,4.3724,-5.1799,-0.6206,6.807
3.909000,4.4894,-5.0188,-1.0682,6.818
3.914000,4.5336,-4.8013,-1.5081,6.773
3.919000,4.5144,-4.5491,-1.9015,6.685
3.924000,4.4437,-4.3005,-2.2103,6.567
3.929000,4.3386,-4.0354,-2.4223,6.401
3.934000,4.2296,-3.7598,-2.5477,6.206
3.941000,4.1385,-3.4683,-2.6223,6.003
3.944000,4.0602,-3.1753,-2.6295,5.786
3.949000,3.9803,-2.8735,-2.5860,5.549
3.954000,3.8677,-2.5895,-2.4989,5.283
3.965000,3.7368,-2.3033,-2.3517,4.980
3.966000,3.5607,-2.0378,-2.1688,4.641
3.970000,3.3683,-1.7922,-1.9456,4.283
4.000000,3.1501,-1.5640,-1.6870,3.901
4.002000,2.9252,-1.3458,-1.3740,3.501
4.002000,2.7130,-1.1391,-1.0212,3.115
4.003000,2.5129,-0.9498,-0.6316,2.760
4.003000,2.3275,-0.7508,-0.2126,2.455
4.004000,2.1520,-0.5468,0.2164,2.231
4.007000,1.9959,-0.3328,0.6551,2.127
4.012000,1.8496,-0.0849,1.0938,2.150
4.015000,1.6990,0.1951,1.5013,2.276
4.020000,1.5700,0.5089,1.8608,2.487
4.026000,1.4700,0.8235,2.1536,2.734
4.030000,1.4110,1.1605,2.3776,2.998
4.035000,1.4119,1.5244,2.5329,3.276
4.039000,1.4558,1.8961,2.6415,3.563
4.045000,1.5307,2.2682,2.6773,3.828
4.050000,1.5998,2.6110,2.6573,4.054
4.054000,1.6847,2.9199,2.5673,4.237
4.064000,1.7685,3.1874,2.4243,4.378
4.066000,1.8460,3.4231,2.2357,4.486
4.070000,1.9270,3.6200,2.0087,4.566
4.098000,1.9771,3.7747,1.7438,4.604
4.100000,1.9773,3.8970,1.4627,4.608
4.101000,1.9350,3.9824,1.1971,4.587
4.101000,1.8309,4.0285,0.9517,4.526
4.102000,1.6750,4.0333,0.7509,4.431
4.102000,1.4845,4.0118,0.5851,4.317
4.106000,1.2952,3.9544,0.4758,4.188
4.110000,1.1005,3.8882,0.4039,4.061
4.115000,0.9149,3.8230,0.3598,3.947
4.120000,0.7339,3.7687,0.3554,3.856
4.125000,0.5866,3.7234,0.3833,3.789
4.130000,0.4704,3.6773,0.4314,3.732
4.135000,0.3688,3.6236,0.4947,3.676
4.141000,0.2915,3.5604,0.5706,3.618
4.145000,0.2555,3.4805,0.6565,3.551
4.150000,0.2511,3.3937,0.7282,3.480
4.155000,0.3121,3.3028,0.7954,3.411
4.160000,0.4045,3.2310,0.8552,3.367
4.165000,0.5475,3.1762,0.9102,3.349
4.169000,0.7265,3.1215,0.9624,3.346
4.179000,0.8909,3.0929,0.9829,3.365
4.181000,1.0383,3.0615,0.9668,3.374
4.185000,1.1376,3.0298,0.9145,3.363
4.203000,1.1979,2.9829,0.8401,3.322
4.204000,1.2292,2.9020,0.7728,3.245
4.205000,1.2389,2.7922,0.7031,3.135
4.206000,1.2392,2.6536,0.6526,3.000
4.213000,1.2568,2.5034,0.5954,2.864
4.215000,1.2652,2.3437,0.5434,2.718
4.220000,1.2694,2.1964,0.5160,2.589
4.225000,1.2840,2.0686,0.4988,2.485
4.230000,1.3235,1.9581,0.4991,2.416
4.235000,1.3618,1.8722,0.5027,2.369
4.241000,1.4161,1.7922,0.5145,2.341
4.245000,1.5125,1.7130,0.5203,2.344
4.250000,1.6683,1.6565,0.5298,2.410
4.255000,1.8860,1.6085,0.5528,2.540
4.261000,2.1798,1.5879,0.5917,2.761
4.266000,2.5257,1.5755,0.6249,3.042
4.282000,3.5336,1.4900,0.6623,3.892
4.283000,3.5855,1.5293,0.6920,3.959
4.284000,3.6393,1.5690,0.7237,4.029
4.285000,4.0488,1.5730,0.8243,4.421
4.310000,4.5051,1.5654,0.9767,4.868
4.312000,4.9819,1.5461,1.2071,5.354
4.312000,5.4616,1.5146,1.4640,5.854
4.313000,5.9251,1.5213,1.7424,6.361
4.313000,6.3434,1.5733,2.0415,6.847
4.315000,6.7379,1.6895,2.3536,7.334
4.319000,7.1273,1.8340,2.6423,7.819
4.325000,7.5501,2.0069,2.9002,8.333
4.330000,7.9908,2.2146,3.1240,8.861
4.335000,8.4562,2.4406,3.3039,9.401
4.342000,8.8999,2.6891,3.4274,9.909
4.345000,9.2947,2.9283,3.4633,10.342
4.350000,9.6205,3.1245,3.4308,10.681
4.355000,9.8871,3.2537,3.3328,10.929
4.360000,10.1267,3.3176,3.2268,11.134
4.365000,10.3345,3.3474,3.1418,11.308
4.370000,10.4980,3.3717,3.0921,11.452
4.380000,10.5784,3.4021,3.0532,11.524
4.382000,10.5679,3.4647,3.0250,11.525
4.385000,10.4380,3.5570,3.0097,11.431
4.408000,10.2076,3.6791,3.0120,11.261
4.410000,9.8848,3.8095,3.0345,11.020
4.411000,9.5058,3.9415,3.0817,10.742
4.411000,9.1215,4.0729,3.1370,10.470
4.412000,8.7589,4.1657,3.1787,10.207
4.415000,8.4421,4.2251,3.1495,9.952
4.420000,8.1598,4.2416,3.0691,9.695
4.425000,7.9360,4.2032,2.9332,9.447
4.430000,7.7733,4.1195,2.7496,9.217
4.435000,7.6622,3.9905,2.5285,9.002
4.441000,7.5785,3.8349,2.2704,8.792
4.445000,7.5395,3.6552,2.0264,8.620
4.450000,7.5016,3.4967,1.7896,8.468
4.455000,7.4890,3.3111,1.5509,8.334
4.462000,7.4778,3.1225,1.3346,8.213
4.465000,7.4846,2.9018,1.1341,8.107
4.470000,7.4829,2.6701,0.9637,8.003
4.479000,7.4875,2.4279,0.8170,7.914
4.481000,7.4813,2.1912,0.7034,7.827
4.486000,7.4428,1.9360,0.5946,7.713
4.506000,7.3794,1.6431,0.4882,7.576
4.509000,7.3200,1.3125,0.3893,7.447
4.510000,7.2763,0.9511,0.3219,7.345
4.511000,7.2280,0.5549,0.2933,7.255
4.511000,7.1699,0.1785,0.3007,7.178
4.518000,7.0878,-0.1640,0.3318,7.097
4.520000,6.9913,-0.4701,0.4030,7.019
4.526000,6.8369,-0.7432,0.4876,6.894
4.530000,6.6238,-1.0058,0.5827,6.725
4.535000,6.3660,-1.2394,0.6666,6.520
4.542000,6.0497,-1.4510,0.7506,6.266
4.545000,5.7062,-1.6548,0.8013,5.995
4.550000,5.3362,-1.8292,0.8447,5.704
4.555000,4.9273,-1.9912,0.8639,5.384
4.560000,4.4957,-2.1514,0.8734,5.060
4.565000,4.0388,-2.2788,0.8874,4.721
4.570000,3.5903,-2.3924,0.8867,4.405
4.576000,3.1484,-2.4992,0.8834,4.116
4.581000,2.7277,-2.6105,0.8776,3.876
4.585000,2.3350,-2.7269,0.8810,3.697
4.597000,1.9791,-2.8631,0.9085,3.597
4.599000,1.6545,-2.9957,0.9333,3.547
4.602000,1.3735,-3.1292,0.9649,3.551
4.606000,1.1025,-3.2322,0.9819,3.553
4.630000,0.8459,-3.3246,0.9886,3.570
4.632000,0.5927,-3.3856,0.9737,3.572
4.632000,0.3642,-3.4347,0.9756,3.589
4.633000,0.1554,-3.4575,0.9706,3.595
4.633000,-0.0359,-3.4684,0.9566,3.598
4.638000,-0.2123,-3.4697,0.9599,3.606
4.641000,-0.3696,-3.4481,0.9661,3.600
4.646000,-0.5046,-3.4330,0.9782,3.605
4.652000,-0.6129,-3.4253,1.0011,3.621
4.656000,-0.6780,-3.4204,1.0542,3.643
4.661000,-0.7216,-3.4136,1.0994,3.658
4.666000,-0.7653,-3.4052,1.1560,3.677
4.670000,-0.8214,-3.3987,1.2094,3.700
4.676000,-0.9133,-3.4190,1.2381,3.749
4.681000,-1.0247,-3.4574,1.2448,3.815
4.686000,-1.1648,-3.5210,1.2415,3.911
4.697000,-1.3242,-3.6027,1.2402,4.034
4.700000,-1.5052,-3.6933,1.2530,4.180
4.701000,-1.6859,-3.8127,1.2512,4.352
4.706000,-1.8472,-3.9493,1.2541,4.537
4.728000,-2.0083,-4.1079,1.2735,4.747
4.730000,-2.1619,-4.2690,1.2971,4.958
4.731000,-2.3129,-4.4348,1.3152,5.172
4.732000,-2.4876,-4.6036,1.3275,5.399
4.732000,-2.6762,-4.7615,1.3265,5.621
4.736000,-2.8813,-4.9280,1.3219,5.860
4.742000,-3.1003,-5.0837,1.3181,6.099
4.746000,-3.3191,-5.2330,1.2957,6.331
4.751000,-3.5327,-5.3755,1.2525,6.553
4.756000,-3.7319,-5.5092,1.2123,6.764
4.761000,-3.9093,-5.6490,1.1818,6.971
4.766000,-4.0461,-5.7810,1.1371,7.147
4.770000,-4.1664,-5.9171,1.0806,7.317
4.776000,-4.2799,-6.0761,1.0071,7.500
4.782000,-4.3700,-6.2299,0.9287,7.666
4.786000,-4.4463,-6.3696,0.8430,7.814
4.799000,-4.4972,-6.5127,0.7690,7.952
4.801000,-4.5466,-6.6637,0.6969,8.097
4.802000,-4.5925,-6.8203,0.6218,8.246
4.805000,-4.6468,-6.9725,0.5197,8.395
4.825000,-4.7001,-7.1234,0.3980,8.544
4.826000,-4.7310,-7.2644,0.2950,8.674
4.826000,-4.7517,-7.4058,0.1987,8.801
4.827000,-4.7718,-7.5451,0.1259,8.928
4.831000,-4.8082,-7.6988,0.0596,9.077
4.836000,-4.8396,-7.8598,-0.0051,9.230
4.842000,-4.8659,-8.0021,-0.0655,9.366
4.846000,-4.8875,-8.1772,-0.1196,9.527
4.851000,-4.9211,-8.3663,-0.1769,9.708
4.856000,-4.9357,-8.5668,-0.2374,9.890
4.861000,-4.9364,-8.7713,-0.3064,10.070
4.866000,-4.9376,-8.9988,-0.3982,10.272
4.870000,-4.9539,-9.2390,-0.4870,10.495
4.876000,-4.9998,-9.4511,-0.5373,10.706
4.881000,-5.0873,-9.6444,-0.5854,10.920
4.886000,-5.2190,-9.7924,-0.6075,11.113
4.893000,-5.3829,-9.8943,-0.6251,11.281
4.897000,-5.5623,-9.9357,-0.6260,11.404
4.900000,-5.7165,-9.9395,-0.6120,11.482
4.905000,-5.8216,-9.8937,-0.5783,11.494
4.918000,-5.8682,-9.8171,-0.5437,11.450
4.920000,-5.8441,-9.7287,-0.4936,11.360
4.921000,-5.7279,-9.6476,-0.4708,11.230
4.929000,-5.4645,-9.5906,-0.4630,11.048
4.933000,-5.0442,-9.5465,-0.4743,10.808
4.937000,-4.4980,-9.5446,-0.4998,10.563
4.942000,-3.9023,-9.5594,-0.5322,10.339
4.946000,-3.3215,-9.5610,-0.5767,10.138
4.951000,-2.8273,-9.4902,-0.6073,9.921
4.958000,-2.4837,-9.3155,-0.5931,9.659
4.961000,-2.3003,-9.0538,-0.5204,9.356
4.967000,-2.2695,-8.7271,-0.3945,9.026
4.971000,-2.3336,-8.3590,-0.2127,8.681
4.977000,-2.4398,-7.9924,0.0131,8.357
4.982000,-2.5472,-7.6598,0.2900,8.077
4.986000,-2.5911,-7.3574,0.6018,7.823
4.991000,-2.5282,-7.0940,0.9364,7.589
4.996000,-2.3779,-6.8507,1.3106,7.369
5.001000,-2.1304,-6.6276,1.7243,7.172
5.006000,-1.8192,-6.4229,2.1484,7.013
5.012000,-1.4442,-6.2265,2.5372,6.877
5.017000,-1.0104,-6.0213,2.8576,6.741
5.021000,-0.5225,-5.7881,3.0787,6.577
5.031000,-0.0282,-5.5490,3.1606,6.386
5.032000,0.4724,-5.3123,3.1041,6.171
5.038000,0.9842,-5.1089,2.9099,5.961
5.073000,1.4732,-4.9268,2.5672,5.747
5.074000,1.9492,-4.7873,2.1173,5.586
5.075000,2.3617,-4.6771,1.5703,5.470
5.076000,2.6986,-4.5891,0.9460,5.407
5.077000,2.9574,-4.5264,0.3046,5.415
5.077000,3.1382,-4.4811,-0.3297,5.481
5.078000,3.2454,-4.4500,-0.9282,5.585
5.078000,3.2790,-4.3868,-1.4671,5.670
5.081000,3.2344,-4.2937,-1.9514,5.719
5.086000,3.1451,-4.1873,-2.3502,5.740
5.091000,3.0064,-4.0619,-2.6637,5.712
5.096000,2.8421,-3.9158,-2.8949,5.638
5.101000,2.6547,-3.7481,-3.0298,5.502
5.106000,2.4610,-3.5825,-3.0882,5.332
5.112000,2.2803,-3.4043,-3.0901,5.132
5.116000,2.1125,-3.2084,-3.0647,4.914
5.121000,1.9505,-3.0041,-2.9861,4.663
5.132000,1.7842,-2.8139,-2.8720,4.399
5.134000,1.6019,-2.6419,-2.7011,4.104
5.137000,1.3987,-2.4929,-2.4764,3.782
5.168000,1.1770,-2.3475,-2.2271,3.443
5.169000,0.9250,-2.2008,-1.9486,3.082
5.170000,0.6524,-2.0593,-1.6603,2.724
5.170000,0.3519,-1.9237,-1.3525,2.378
5.170000,0.0739,-1.7788,-1.0421,2.063
5.171000,-0.1766,-1.5981,-0.7217,1.762
5.171000,-0.4091,-1.4150,-0.3864,1.523
5.178000,-0.6234,-1.2193,-0.0457,1.370
5.181000,-0.7935,-1.0239,0.2984,1.329
5.187000,-0.9406,-0.8066,0.6484,1.398
5.191000,-1.0431,-0.5601,1.0022,1.551
5.197000,-1.1034,-0.2989,1.3479,1.767
5.204000,-1.1192,-0.0182,1.6738,2.014
5.207000,-1.0877,0.2824,1.9536,2.254
5.213000,-0.9954,0.6208,2.1872,2.482
5.217000,-0.8876,0.9614,2.3532,2.692
5.223000,-0.7646,1.2894,2.4464,2.869
5.227000,-0.6505,1.5950,2.4671,3.009
5.232000,-0.5477,1.8636,2.4227,3.105
5.238000,-0.4441,2.1029,2.3137,3.158
5.264000,-0.3404,2.3164,2.1642,3.188
5.266000,-0.2338,2.5048,1.9556,3.186
5.267000,-0.1222,2.6677,1.7195,3.176
5.267000,-0.0272,2.8289,1.4802,3.193
5.267000,0.0491,2.9744,1.2572,3.230
5.270000,0.1106,3.0792,1.0577,3.258
5.276000,0.1362,3.1534,0.8724,3.275
5.277000,0.1668,3.1901,0.7062,3.272
5.282000,0.1951,3.1656,0.5447,3.218
5.287000,0.2502,3.0682,0.3974,3.104
5.292000,0.3778,2.9392,0.2789,2.977
5.297000,0.5508,2.7707,0.1959,2.832
5.301000,0.7505,2.5608,0.1579,2.673
5.308000,0.9696,2.3215,0.1886,2.523
5.312000,1.1841,2.0768,0.2801,2.407
5.316000,1.3894,1.8150,0.4247,2.325
5.321000,1.5836,1.5606,0.6079,2.305
5.327000,1.7615,1.3226,0.8458,2.360
5.332000,1.9282,1.0800,1.1457,2.489
5.338000,2.0938,0.8716,1.5328,2.737
5.349000,2.2606,0.6973,1.9324,3.055
5.350000,2.4460,0.6057,2.3105,3.419
5.352000,2.6349,0.6222,2.6739,3.805
5.392000,2.8420,0.7207,3.0226,4.211
5.393000,3.0744,0.8939,3.3275,4.618
5.394000,3.3582,1.1439,3.5886,5.046
5.394000,3.6954,1.4487,3.7558,5.464
5.395000,4.0524,1.8105,3.8487,5.875
5.395000,4.4090,2.1614,3.8603,6.246
5.396000,4.7870,2.4944,3.8199,6.613
5.396000,5.1883,2.8138,3.7202,6.977
5.397000,5.5622,3.1172,3.5522,7.299
5.402000,5.9442,3.3896,3.2993,7.597
5.408000,6.3510,3.6407,2.9695,7.900
5.412000,6.7644,3.8766,2.5899,8.215
5.417000,7.1532,4.0733,2.1970,8.520
5.423000,7.4909,4.2213,1.8057,8.786
5.427000,7.7773,4.2749,1.4451,8.992
5.432000,8.0150,4.2753,1.1129,9.152
5.437000,8.2059,4.1981,0.8048,9.252
5.442000,8.3673,4.0726,0.5471,9.322
5.447000,8.5091,3.9159,0.3351,9.373
5.452000,8.6577,3.7378,0.1713,9.432
5.463000,8.8062,3.5767,0.0868,9.505
5.464000,8.9478,3.4329,0.0885,9.584
5.468000,9.0604,3.3013,0.1257,9.644
5.492000,9.1324,3.1943,0.1741,9.677
5.493000,9.1809,3.1214,0.2003,9.699
5.494000,9.2249,3.0756,0.2089,9.726
5.494000,9.2619,3.0351,0.1905,9.748
5.494000,9.2992,3.0071,0.1526,9.774
5.497000,9.3217,2.9745,0.1045,9.785
5.502000,9.3485,2.9468,0.0682,9.802
5.507000,9.3699,2.8712,0.0724,9.800
5.512000,9.4000,2.7885,0.1335,9.806
5.517000,9.4457,2.7294,0.2727,9.836
5.524000,9.4871,2.7368,0.5011,9.887
5.527000,9.4665,2.7889,0.8273,9.903
5.533000,9.3694,2.8689,1.2338,9.876
5.537000,9.2074,2.9841,1.6690,9.822
5.542000,8.9712,3.1322,2.1151,9.735
5.547000,8.6729,3.3062,2.5285,9.620
5.553000,8.3417,3.5113,2.9131,9.508
5.566000,8.0067,3.7598,3.2565,9.426
5.568000,7.7209,4.0255,3.5084,9.388
5.569000,7.4893,4.2727,3.6832,9.376
5.607000,7.3431,4.4848,3.8004,9.406
5.610000,7.2510,4.6590,3.8793,9.452
5.610000,7.1915,4.7646,3.9083,9.471
5.611000,7.1500,4.8177,3.8923,9.460
5.613000,7.0903,4.7753,3.8343,9.369
5.613000,7.0270,4.6659,3.7370,9.226
5.614000,6.9431,4.4917,3.5938,9.017
5.615000,6.8466,4.2554,3.4199,8.757
5.615000,6.7518,3.9662,3.2276,8.470
5.617000,6.6922,3.6337,3.0245,8.194
5.625000,6.6630,3.2554,2.8111,7.931
5.627000,6.6357,2.8312,2.5804,7.662
5.633000,6.5931,2.4012,2.3497,7.400
5.639000,6.5672,1.9588,2.1171,7.173
5.643000,6.5291,1.5346,1.8803,6.966
5.648000,6.4406,1.1236,1.6516,6.743
5.654000,6.3711,0.7256,1.4218,6.568
5.662000,6.2372,0.3430,1.2007,6.361
5.665000,6.0480,-0.0369,1.0099,6.132
5.668000,5.7979,-0.3890,0.8519,5.873
5.702000,5.5346,-0.7257,0.7075,5.627
5.704000,5.2492,-1.0466,0.6271,5.389
5.705000,4.9494,-1.3658,0.5961,5.169
5.705000,4.6732,-1.6666,0.6191,5.000
5.706000,4.3937,-1.9499,0.6600,4.852
5.708000,4.1057,-2.2183,0.7018,4.719
5.710000,3.8121,-2.4283,0.7490,4.582
5.711000,3.5275,-2.6085,0.8112,4.462
5.714000,3.2568,-2.7490,0.9002,4.356
5.718000,3.0285,-2.8501,1.0490,4.289
5.723000,2.8221,-2.9128,1.2192,4.235
5.729000,2.6752,-2.9424,1.4244,4.224
5.734000,2.5565,-2.9535,1.6621,4.245
5.738000,2.4468,-2.9319,1.8934,4.262
5.743000,2.3884,-2.8854,2.1015,4.295
5.748000,2.3798,-2.8060,2.2915,4.334
5.754000,2.3890,-2.7400,2.4536,4.386
5.763000,2.4016,-2.6831,2.5830,4.432
5.765000,2.4317,-2.6474,2.6656,4.475
5.768000,2.4266,-2.6526,2.7013,4.497
5.772000,2.3762,-2.6663,2.7068,4.481
5.793000,2.2719,-2.6703,2.6924,4.421
5.795000,2.1157,-2.6609,2.6768,4.327
5.795000,1.9103,-2.6737,2.6311,4.210
5.796000,1.6679,-2.7039,2.5459,4.071
5.798000,1.4007,-2.7415,2.4287,3.921
5.803000,1.1493,-2.7778,2.3252,3.800
5.808000,0.9169,-2.8277,2.2143,3.707
5.814000,0.6962,-2.8918,2.0939,3.638
5.819000,0.5016,-2.9986,1.9714,3.623
5.823000,0.3260,-3.1167,1.8274,3.628
5.827000,0.1765,-3.2445,1.6499,3.644
5.834000,0.0416,-3.3610,1.4369,3.655
5.839000,-0.0909,-3.4863,1.1956,3.687
5.843000,-0.2304,-3.6251,0.9499,3.755
5.848000,-0.3674,-3.7844,0.7024,3.867
5.854000,-0.5137,-3.9570,0.4794,4.019
5.862000,-0.6696,-4.1198,0.3000,4.185
5.864000,-0.8535,-4.2924,0.1811,4.380
5.867000,-1.0800,-4.4731,0.1156,4.603
5.896000,-1.3203,-4.6497,0.0890,4.834
5.897000,-1.5718,-4.8242,0.0895,5.075
5.898000,-1.8226,-5.0130,0.1294,5.336
5.898000,-2.0609,-5.2430,0.1658,5.636
5.899000,-2.2742,-5.4758,0.1895,5.932
5.899000,-2.4487,-5.7360,0.2008,6.240
5.903000,-2.6033,-5.9945,0.1950,6.538
5.908000,-2.7408,-6.2582,0.1796,6.834
5.914000,-2.8587,-6.5040,0.1263,7.106
5.918000,-2.9883,-6.7537,0.0404,7.385
5.923000,-3.1129,-6.9768,-0.0756,7.640
5.928000,-3.2542,-7.1948,-0.2096,7.899
5.934000,-3.4098,-7.3834,-0.3474,8.140
5.938000,-3.5823,-7.5590,-0.4605,8.378
5.943000,-3.7790,-7.7317,-0.5634,8.624
5.948000,-3.9809,-7.8897,-0.6493,8.861
5.953000,-4.1833,-8.0286,-0.7376,9.083
5.959000,-4.3674,-8.1386,-0.7973,9.271
5.963000,-4.5285,-8.2431,-0.8335,9.442
5.968000,-4.6669,-8.3492,-0.8587,9.603
5.974000,-4.7971,-8.4500,-0.9068,9.759
5.979000,-4.9171,-8.5440,-0.9640,9.905
5.983000,-5.0223,-8.6361,-1.0114,10.041
5.988000,-5.1080,-8.7074,-1.0733,10.152
6.000000,-5.1746,-8.7624,-1.1212,10.238
6.002000,-5.2173,-8.8086,-1.1552,10.303
6.003000,-5.2293,-8.8952,-1.1923,10.387
6.047000,-5.2252,-8.9889,-1.2467,10.472
6.049000,-5.1907,-9.0755,-1.3137,10.537
6.049000,-5.1284,-9.1574,-1.4073,10.590
6.050000,-5.0406,-9.2181,-1.4913,10.612
6.051000,-4.9587,-9.2579,-1.5584,10.617
6.051000,-4.8826,-9.2694,-1.6183,10.601
6.052000,-4.8124,-9.2553,-1.6805,10.566
6.053000,-4.7839,-9.2351,-1.7189,10.542
6.053000,-4.7924,-9.2227,-1.7429,10.539
6.054000,-4.8091,-9.2160,-1.7405,10.540
6.058000,-4.8173,-9.2096,-1.7023,10.532
6.064000,-4.7836,-9.2298,-1.6691,10.529
6.068000,-4.6626,-9.2811,-1.6502,10.517
6.074000,-4.4662,-9.3729,-1.6333,10.510
6.079000,-4.2161,-9.4840,-1.6261,10.506
6.083000,-3.9743,-9.5786,-1.6338,10.498
6.088000,-3.8101,-9.6026,-1.6501,10.462
6.096000,-3.7184,-9.5299,-1.6728,10.366
6.098000,-3.7277,-9.3536,-1.6640,10.206
6.103000,-3.7948,-9.0884,-1.5761,9.974
6.122000,-3.8980,-8.7700,-1.4162,9.701
6.123000,-4.0084,-8.4435,-1.1961,9.423
6.124000,-4.0828,-8.1406,-0.9083,9.152
6.124000,-4.1091,-7.8560,-0.5740,8.884
6.129000,-4.0634,-7.5561,-0.1860,8.581
6.133000,-3.9311,-7.2508,0.2293,8.251
6.139000,-3.7026,-6.9358,0.6337,7.888
6.143000,-3.3802,-6.6204,1.0201,7.503
6.149000,-2.9614,-6.3043,1.3695,7.099
6.154000,-2.4678,-5.9757,1.6414,6.670
6.159000,-1.9327,-5.6763,1.8216,6.267
6.164000,-1.3705,-5.3856,1.8841,5.868
6.169000,-0.7859,-5.1015,1.8178,5.472
6.175000,-0.2006,-4.8338,1.6326,5.106
6.179000,0.3495,-4.6065,1.3241,4.806
6.184000,0.3551,-4.4206,0.9048,4.526
6.190000,1.3040,-4.2792,0.3820,4.490
6.195000,1.6835,-4.1829,-0.2343,4.515
6.199000,1.9965,-4.1218,-0.9174,4.671
6.204000,2.2069,-4.0973,-1.6117,4.925
6.215000,2.2692,-4.0924,-2.2742,5.203
6.217000,2.1788,-4.1427,-2.8835,5.498
6.219000,1.9453,-4.2236,-3.4254,5.775
6.250000,1.6264,-4.3454,-3.8811,6.049
6.251000,1.2484,-4.4772,-4.2273,6.283
6.251000,0.8404,-4.6268,-4.4741,6.491
6.252000,0.4573,-4.7649,-4.6389,6.666
6.252000,0.1136,-4.8858,-4.7288,6.800
6.253000,-0.2025,-5.0010,-4.7418,6.895
6.254000,-0.4885,-5.0879,-4.6753,6.927
6.260000,-0.7373,-5.1162,-4.5299,6.873
6.266000,-0.9631,-5.1140,-4.3106,6.757
6.269000,-1.1684,-5.0835,-4.0152,6.582
6.282000,-1.5204,-5.0485,-3.2760,6.207
6.282000,-1.4976,-4.9584,-3.2583,6.119
6.284000,-1.6576,-4.8858,-2.8495,5.894
6.289000,-1.8375,-4.7870,-2.4444,5.680
6.294000,-2.0251,-4.6645,-2.0620,5.487
6.299000,-2.2226,-4.5060,-1.6826,5.299
6.304000,-2.3845,-4.3185,-1.3081,5.104
6.336000,-2.5294,-4.1040,-0.9284,4.909
6.337000,-2.5908,-3.8469,-0.5098,4.666
6.337000,-2.5780,-3.5730,-0.0878,4.407
6.337000,-2.4981,-3.3019,0.3382,4.154
6.338000,-2.3489,-3.0026,0.7491,3.885
6.338000,-2.1544,-2.7044,1.1234,3.636
6.338000,-1.8880,-2.3902,1.4614,3.378
6.347000,-1.5888,-2.0690,1.7578,3.146
6.349000,-1.2496,-1.7313,2.0124,2.934
6.354000,-0.9187,-1.3825,2.2103,2.764
6.359000,-0.6535,-1.0685,2.3416,2.656
6.364000,-0.4566,-0.8037,2.4012,2.573
6.369000,-0.3085,-0.5922,2.3842,2.476
6.376000,-0.1929,-0.4209,2.2929,2.339
6.379000,-0.1120,-0.2913,2.1611,2.183
6.384000,-0.0488,-0.1843,2.0080,2.017
6.390000,0.0183,-0.0877,1.8506,1.853
6.394000,0.0657,0.0016,1.7179,1.719
6.399000,0.1240,0.0895,1.5908,1.598
6.403000,0.1864,0.1696,1.4721,1.493
6.413000,0.2891,0.2612,1.3501,1.405
6.416000,0.4176,0.3786,1.2513,1.372
6.419000,0.5838,0.5000,1.1689,1.399
6.446000,0.7571,0.6139,1.0816,1.456
6.448000,0.9436,0.6855,1.0011,1.537
6.448000,1.1393,0.7371,0.9304,1.645
6.448000,1.3536,0.7541,0.8956,1.790
6.449000,1.5818,0.7200,0.8944,1.955
6.449000,1.8170,0.6279,0.9289,2.135
6.455000,2.0694,0.4953,0.9967,2.350
6.460000,2.3452,0.3498,1.1135,2.620
6.464000,2.6284,0.1996,1.2600,2.922
6.469000,2.9407,0.0687,1.4263,3.269
6.475000,3.2607,-0.0214,1.5950,3.630
6.479000,3.6390,-0.0557,1.7420,4.035
6.484000,4.0386,-0.0286,1.8833,4.456
6.490000,4.4501,0.0748,2.0138,4.885
6.496000,4.8901,0.2254,2.1166,5.333
6.499000,5.3654,0.4682,2.2128,5.823
6.505000,5.8419,0.7549,2.2805,6.316
6.512000,6.3173,1.0617,2.2813,6.800
6.515000,6.7731,1.3920,2.2199,7.262
6.519000,7.2118,1.7170,2.1399,7.716
6.546000,7.6569,2.0461,2.0753,8.193
6.547000,8.0793,2.3501,2.0092,8.651
6.548000,8.4900,2.6599,1.9417,9.106
6.548000,8.8894,2.9493,1.8543,9.548
6.548000,9.2802,3.2099,1.7659,9.977
6.549000,9.6913,3.4491,1.6843,10.424
6.554000,10.1220,3.6642,1.6409,10.889
6.560000,10.5380,3.7953,1.6523,11.322
6.564000,10.9176,3.8546,1.7039,11.703
6.570000,11.2684,3.8845,1.7472,12.047
6.574000,11.5737,3.8901,1.7895,12.340
6.580000,11.7826,3.8736,1.8617,12.542
6.584000,11.9022,3.8185,1.9710,12.654
6.591000,11.9252,3.7203,2.1241,12.671
6.594000,11.8641,3.6106,2.3161,12.616
6.599000,11.7281,3.4752,2.5007,12.485
6.604000,11.5345,3.3529,2.7041,12.312
6.610000,11.2954,3.2345,2.9065,12.104
6.615000,11.0090,3.1133,3.0958,11.852
6.620000,10.6755,3.0014,3.2597,11.559
6.626000,10.3053,2.8947,3.3526,11.217
6.630000,9.9371,2.7791,3.3768,10.857
6.635000,9.6005,2.6502,3.3136,10.496
6.640000,9.3224,2.4868,3.1801,10.159
6.670000,9.0771,2.3107,3.0030,9.836
6.671000,8.8217,2.1673,2.8305,9.515
6.672000,8.4922,2.1046,2.6795,9.150
6.672000,8.0839,2.1752,2.5404,8.748
6.673000,7.5880,2.3599,2.3966,8.300
6.674000,7.0408,2.6372,2.2558,7.850
6.674000,6.4911,2.9499,2.1351,7.443
6.680000,5.9703,3.2815,2.0753,7.122
6.684000,5.5295,3.6226,2.0502,6.921
6.692000,5.2189,3.9424,2.0479,6.854
6.695000,5.0431,4.2670,2.0614,6.920
6.700000,4.9923,4.5702,2.0715,7.078
6.704000,5.0539,4.8635,2.0567,7.309
6.710000,5.1986,5.1084,2.0269,7.565
6.715000,5.3897,5.3186,1.9749,7.825
6.719000,5.5811,5.4819,1.9033,8.051
6.726000,5.7553,5.5811,1.8266,8.222
6.730000,5.8953,5.5894,1.7642,8.313
6.735000,5.9912,5.4997,1.7326,8.315
6.740000,6.0481,5.3073,1.7467,8.234
6.747000,6.0947,5.0456,1.7822,8.110
6.789000,6.1383,4.7221,1.8438,7.961
6.791000,6.1813,4.3560,1.9168,7.801
6.792000,6.2431,3.9975,1.9580,7.667
6.792000,6.3161,3.6202,1.9719,7.542
6.793000,6.4224,3.2411,1.9565,7.455
6.793000,6.5450,2.8479,1.8928,7.384
6.794000,6.6766,2.4738,1.7905,7.342
6.795000,6.8004,2.0708,1.6597,7.300
6.795000,6.8920,1.6503,1.5123,7.246
6.796000,6.9379,1.2389,1.3729,7.180
6.800000,6.9740,0.8318,1.2485,7.133
6.805000,7.0098,0.4432,1.1583,7.119
6.810000,7.0362,0.1043,1.1261,7.127
6.815000,7.0411,-0.1900,1.1419,7.136
6.820000,7.0121,-0.4161,1.1692,7.121
6.826000,6.9146,-0.5974,1.1796,7.040
6.830000,6.7746,-0.7199,1.1826,6.915
6.835000,6.5900,-0.7957,1.1876,6.743
6.844000,6.3872,-0.8249,1.2041,6.552
6.847000,6.1687,-0.8029,1.2323,6.342
6.850000,5.9078,-0.7519,1.2812,6.092
6.856000,5.6223,-0.7093,1.3392,5.823
6.884000,5.2978,-0.6899,1.3865,5.520
6.886000,4.9656,-0.7126,1.4400,5.219
6.886000,4.6427,-0.7702,1.4949,4.938
6.887000,4.3408,-0.8631,1.5865,4.702
6.887000,4.0492,-0.9874,1.7057,4.503
6.887000,3.7892,-1.1271,1.8375,4.359
6.895000,3.5369,-1.2937,1.9578,4.245
6.896000,3.2808,-1.4776,2.0688,4.151
6.900000,3.0258,-1.6355,2.1320,4.047
6.906000,2.7667,-1.7659,2.1737,3.937
6.911000,2.5167,-1.8720,2.1780,3.819
6.915000,2.2398,-1.9760,2.1712,3.693
6.920000,1.9599,-2.0708,2.1537,3.573
6.925000,1.6941,-2.1632,2.1304,3.477
6.930000,1.4496,-2.2580,2.0780,3.394
6.935000,1.2166,-2.3586,2.0014,3.324
6.942000,1.0128,-2.4629,1.9114,3.278
6.945000,0.8212,-2.5840,1.8010,3.255
6.951000,0.6513,-2.7287,1.6732,3.266
6.955000,0.5127,-2.9019,1.5117,3.312
6.966000,0.4170,-3.0900,1.3360,3.392
6.967000,0.3651,-3.3008,1.1974,3.530
6.971000,0.3349,-3.5207,1.0859,3.700
7.004000,0.3145,-3.7451,0.9702,3.881
7.007000,0.2775,-3.9642,0.8359,4.061
7.007000,0.2240,-4.1902,0.6807,4.251
7.008000,0.1466,-4.4479,0.5408,4.483
7.011000,0.0413,-4.7374,0.4498,4.759
7.013000,-0.0945,-5.0379,0.3954,5.054
7.013000,-0.2606,-5.3274,0.3552,5.346
7.014000,-0.4785,-5.5840,0.3240,5.614
7.015000,-0.7363,-5.7942,0.2511,5.846
7.020000,-1.0239,-5.9626,0.1393,6.051
7.026000,-1.3366,-6.0948,0.0482,6.240
7.034000,-1.6719,-6.2094,-0.0104,6.431
7.035000,-2.0084,-6.3247,-0.0700,6.636
7.042000,-2.3220,-6.4688,-0.1546,6.875
7.046000,-2.5843,-6.6349,-0.2618,7.125
7.050000,-2.7642,-6.7799,-0.3529,7.330
7.057000,-2.8979,-6.9311,-0.4256,7.525
7.065000,-2.9905,-7.1215,-0.4848,7.739
7.067000,-3.0612,-7.3005,-0.5520,7.936
7.070000,-3.1246,-7.4846,-0.6371,8.136
7.105000,-3.2168,-7.6291,-0.7497,8.313
7.106000,-3.3068,-7.7657,-0.8683,8.485
7.106000,-3.4020,-7.8784,-0.9855,8.638
7.107000,-3.4475,-8.0005,-1.0583,8.776
7.107000,-3.5059,-8.1268,-1.1134,8.921
7.107000,-3.5725,-8.2293,-1.1414,9.044
7.108000,-3.6475,-8.2684,-1.1333,9.108
7.111000,-3.6998,-8.2952,-1.1037,9.150
7.116000,-3.7466,-8.3119,-1.0549,9.178
7.121000,-3.7759,-8.3257,-0.9920,9.196
7.125000,-3.7904,-8.3605,-0.9484,9.228
7.131000,-3.8021,-8.3977,-0.9264,9.265
7.135000,-3.7969,-8.4435,-0.9096,9.303
7.141000,-3.7940,-8.5271,-0.9030,9.377
7.146000,-3.7672,-8.6413,-0.9161,9.471
7.150000,-3.7286,-8.7808,-0.9752,9.589
7.157000,-3.6641,-8.9505,-1.0590,9.729
7.162000,-3.5834,-9.1170,-1.1766,9.866
7.167000,-3.5175,-9.2417,-1.2900,9.972
7.171000,-3.4881,-9.3085,-1.4039,10.039
7.178000,-3.5071,-9.3484,-1.4487,10.089
7.181000,-3.5960,-9.3593,-1.4557,10.132
7.185000,-3.7430,-9.3767,-1.4319,10.197
7.226000,-3.9240,-9.4186,-1.4154,10.301
7.229000,-4.0771,-9.4989,-1.4160,10.433
7.229000,-4.1737,-9.5887,-1.4286,10.555
7.230000,-4.2425,-9.6662,-1.4799,10.660
7.231000,-4.2716,-9.6862,-1.5410,10.698
7.232000,-4.3088,-9.6270,-1.6000,10.668
7.232000,-4.4378,-9.4560,-1.6960,10.582
7.233000,-4.6105,-9.2065,-1.8229,10.457
7.233000,-4.7862,-8.9240,-1.9285,10.308
7.236000,-4.9193,-8.6347,-1.9723,10.131
7.242000,-4.9476,-8.3602,-1.9111,9.901
7.246000,-4.8831,-8.1243,-1.7043,9.631
7.251000,-4.7735,-7.9112,-1.3610,9.339
7.258000,-4.6354,-7.7162,-0.9049,9.047
7.262000,-4.4710,-7.5109,-0.3932,8.750
7.267000,-4.2587,-7.3194,0.0859,8.469
7.271000,-4.0128,-7.1464,0.5063,8.212
7.279000,-3.7162,-7.0170,0.8256,7.983
7.281000,-3.3882,-6.8860,1.0826,7.750
7.286000,-3.0262,-6.7680,1.2587,7.520
7.294000,-2.6539,-6.7016,1.3208,7.328
7.297000,-2.2738,-6.6774,1.2190,7.158
7.300000,-1.8834,-6.6852,0.9588,7.011
7.306000,-1.4322,-6.6523,0.5510,6.827
7.346000,-0.9109,-6.5596,0.0416,6.623
7.348000,-0.3983,-6.3599,-0.4487,6.388
7.348000,0.2203,-6.1594,-0.9028,6.229
7.349000,0.8683,-5.9544,-1.2920,6.155
7.349000,1.4737,-5.7742,-1.6714,6.189
7.350000,1.9767,-5.6044,-2.0844,6.298
7.350000,2.3439,-5.4136,-2.4880,6.402
7.351000,2.5585,-5.1880,-2.8154,6.433
7.351000,2.6397,-4.9157,-3.0527,6.360
7.356000,2.6236,-4.6131,-3.2822,6.240
7.361000,2.5292,-4.3172,-3.4377,6.071
7.367000,2.3710,-4.0489,-3.4044,5.797
7.372000,2.1465,-3.8078,-3.2593,5.453
7.381000,1.8631,-3.6009,-3.1260,5.120
7.384000,1.5208,-3.4632,-3.0630,4.867
7.386000,1.1750,-3.4175,-3.0059,4.701
7.414000,0.8492,-3.4018,-2.9075,4.555
7.416000,0.5390,-3.3461,-2.7324,4.353
7.416000,0.1701,-3.2191,-2.5072,4.084
7.417000,-0.2501,-3.0684,-2.2803,3.831
7.417000,-0.6688,-2.9217,-2.0562,3.635
7.418000,-1.0383,-2.8014,-1.8375,3.507
7.421000,-1.3417,-2.7112,-1.6026,3.423
7.426000,-1.5957,-2.6198,-1.3677,3.359
7.431000,-1.7811,-2.4959,-1.1350,3.270
7.437000,-1.9099,-2.3038,-0.8990,3.125
7.442000,-1.9677,-2.0529,-0.6251,2.912
7.446000,-1.9526,-1.7827,-0.3441,2.666
7.452000,-1.8836,-1.5053,-0.0573,2.412
7.457000,-1.8087,-1.2184,0.2138,2.191
7.463000,-1.7449,-0.9201,0.4882,2.032
7.467000,-1.7017,-0.6202,0.7253,1.951
7.472000,-1.6837,-0.3231,0.9394,1.955
7.477000,-1.6747,-0.0443,1.1016,2.005
7.482000,-1.6720,0.2120,1.2286,2.086
7.486000,-1.6804,0.4483,1.3252,2.186
7.523000,-1.6735,0.6359,1.3744,2.257
7.524000,-1.6274,0.7778,1.4029,2.285
7.525000,-1.5497,0.8800,1.4317,2.286
7.526000,-1.4617,0.9646,1.4346,2.264
7.527000,-1.4329,1.0485,1.4015,2.262
7.527000,-1.4296,1.1485,1.3109,2.254
7.528000,-1.4039,1.2552,1.2326,2.251
7.528000,-1.3578,1.3214,1.2317,2.260
7.531000,-1.3850,1.3344,1.2745,2.307
7.536000,-1.4896,1.2667,1.3353,2.368
7.542000,-1.6304,1.1548,1.3880,2.433
7.546000,-1.8236,1.0113,1.3971,2.510
7.551000,-1.9587,0.8586,1.3318,2.519
7.556000,-1.9680,0.6951,1.1954,2.405
7.561000,-1.7279,0.5648,1.0553,2.102
7.566000,-1.2267,0.5201,0.8327,1.571
7.571000,-0.4797,0.5288,0.5853,0.923
7.577000,0.4546,0.5988,0.3727,0.839
7.581000,1.4152,0.6956,0.2356,1.594
7.586000,2.2521,0.8098,0.2086,2.402
7.600000,2.9125,0.9221,0.2887,3.069
7.601000,3.3796,1.0250,0.4590,3.561
7.602000,3.6942,1.0974,0.7046,3.918
7.612000,3.8781,1.1490,0.9963,4.166
7.613000,3.9511,1.1855,1.3073,4.327
7.640000,3.9272,1.2092,1.5954,4.408
7.643000,3.8528,1.2453,1.8245,4.441
7.643000,3.7881,1.2727,2.0280,4.481
7.644000,3.7668,1.3040,2.2011,4.553
7.644000,3.8153,1.3559,2.3389,4.676
7.645000,3.9388,1.4530,2.4252,4.848
7.648000,4.0980,1.5989,2.4765,5.048
7.652000,4.3075,1.7963,2.4982,5.294
7.658000,4.5549,2.0374,2.5053,5.583
7.662000,4.8088,2.2693,2.5484,5.896
7.667000,5.0622,2.4658,2.6228,6.212
7.672000,5.3261,2.6262,2.7210,6.532
7.677000,5.5792,2.7437,2.8096,6.823
7.682000,5.8264,2.7872,2.8457,7.058
7.686000,6.1322,2.7449,2.8296,7.290
7.692000,6.5156,2.6839,2.7904,7.579
7.696000,6.9578,2.5851,2.7813,7.926
7.701000,7.3978,2.4384,2.8014,8.278
7.716000,7.7906,2.2561,2.8486,8.596
7.718000,8.1027,2.0672,2.9250,8.859
7.720000,8.3441,1.8813,3.0399,9.078
7.723000,8.5174,1.6965,3.2290,9.266
7.761000,8.6375,1.5635,3.4655,9.437
7.762000,8.7374,1.5132,3.7431,9.625
7.763000,8.8030,1.5174,4.0493,9.808
7.764000,8.8534,1.5999,4.3525,9.994
7.764000,8.8955,1.7514,4.6232,10.177
7.765000,8.9484,1.9644,4.8613,10.371
7.765000,9.0279,2.2266,5.0349,10.574
7.766000,9.1384,2.5042,5.1441,10.782
7.769000,9.2722,2.7947,5.1793,10.982
7.772000,9.4358,3.0569,5.1523,11.177
7.777000,9.5640,3.2545,5.0656,11.301
7.782000,9.6253,3.4352,4.9696,11.364
7.787000,9.6048,3.6225,4.8785,11.365
7.793000,9.4905,3.8260,4.8139,11.308
7.799000,9.3043,4.0432,4.7805,11.215
7.802000,9.0510,4.2074,4.7807,11.067
7.816000,8.7363,4.3024,4.7688,10.843
7.818000,8.3368,4.3263,4.7090,10.507
7.853000,7.8298,4.2776,4.5274,10.005
7.854000,7.2574,4.1667,4.2082,9.367
7.854000,6.7358,4.0302,3.7334,8.692
7.855000,6.3352,3.8851,3.1481,8.071
7.855000,6.0008,3.7266,2.5399,7.507
7.855000,5.7496,3.5997,1.9656,7.063
7.855000,5.7414,3.5782,1.5000,6.929
7.856000,5.6333,3.6495,1.2033,6.819
7.863000,5.7974,3.8292,1.1039,7.035
7.864000,6.0836,4.0447,1.1627,7.397
7.868000,6.4664,4.2659,1.3401,7.862
7.873000,6.8675,4.4324,1.6183,8.332
7.877000,7.2166,4.4980,1.9530,8.725
7.882000,7.4817,4.4647,2.2759,9.005
7.887000,7.6458,4.3203,2.5361,9.141
7.892000,7.7109,4.0718,2.7212,9.135
7.897000,7.6659,3.7363,2.8167,8.981
7.902000,7.5371,3.3040,2.8227,8.700
7.907000,7.3395,2.8088,2.7440,8.324
7.913000,7.0452,2.2268,2.5979,7.832
7.917000,6.6790,1.5992,2.3798,7.268
7.922000,6.2654,0.9451,2.1140,6.680
7.927000,5.8064,0.2900,1.8183,6.091
7.933000,5.3266,-0.3636,1.4789,5.540
7.937000,4.8245,-0.9410,1.1132,5.040
7.948000,4.3178,-1.4488,0.7459,4.615
7.950000,3.8288,-1.8532,0.4302,4.275
7.954000,3.3262,-2.1615,0.1664,3.970
7.998000,2.8381,-2.3722,-0.0448,3.699
7.999000,2.3713,-2.4881,-0.2201,3.444
8.000000,1.9261,-2.5136,-0.3425,3.185
8.000000,1.4979,-2.4772,-0.4118,2.924
8.001000,1.1367,-2.4104,-0.3993,2.695
8.001000,0.8505,-2.3144,-0.3238,2.487
8.002000,0.6579,-2.2086,-0.1926,2.313
8.002000,0.5514,-2.0813,0.0254,2.153
8.003000,0.5046,-1.9371,0.3154,2.026
8.005000,0.5197,-1.7977,0.6369,1.977
8.009000,0.6055,-1.6518,0.9487,1.999
8.014000,0.7554,-1.4866,1.2441,2.080
8.018000,0.9376,-1.3293,1.5106,2.220
8.023000,1.1564,-1.1683,1.7672,2.414
8.028000,1.3590,-1.0350,2.0062,2.635
8.034000,1.5308,-0.9011,2.1938,2.823
8.038000,1.6690,-0.7792,2.3609,2.994
8.045000,1.7600,-0.6851,2.4929,3.128
8.048000,1.8033,-0.6051,2.5611,3.190
8.053000,1.8088,-0.5440,2.5369,3.163
8.088000,1.8100,-0.5089,2.4160,3.061
8.089000,1.8137,-0.4672,2.2511,2.928
8.089000,1.8015,-0.4249,2.0521,2.764
8.089000,1.7539,-0.3925,1.8285,2.564
8.090000,1.6924,-0.4085,1.6092,2.371
8.090000,1.6364,-0.4678,1.3818,2.192
8.090000,1.5785,-0.5684,1.1703,2.046
8.095000,1.5211,-0.7132,1.0127,1.962
8.098000,1.4336,-0.8696,0.8891,1.898
8.103000,1.2897,-1.0551,0.7944,1.846
8.109000,1.1085,-1.2384,0.7328,1.816
8.118000,0.8995,-1.4343,0.6992,1.832
8.119000,0.6851,-1.6675,0.6643,1.921
8.124000,0.4912,-1.9191,0.6133,2.074
8.128000,0.2965,-2.1891,0.5891,2.286
8.135000,0.0891,-2.4533,0.5938,2.526
8.139000,-0.1404,-2.7257,0.6251,2.800
8.147000,-0.3874,-2.9808,0.6658,3.079
8.150000,-0.6322,-3.2308,0.7235,3.371
8.154000,-0.8749,-3.4859,0.8030,3.683
8.183000,-1.1368,-3.7434,0.8998,4.014
8.184000,-1.3964,-4.0005,0.9974,4.353
8.186000,-1.4241,-4.2379,1.0672,4.596
8.186000,-1.8730,-4.4801,1.1050,4.980
8.186000,-2.0512,-4.7227,1.0990,5.265
8.187000,-2.2031,-4.9617,1.0473,5.529
8.189000,-2.3169,-5.1971,0.9956,5.777
8.195000,-2.4380,-5.4312,0.9487,6.028
8.198000,-2.5473,-5.6926,0.9217,6.304
8.203000,-2.6592,-5.9674,0.8906,6.593
8.207000,-2.7665,-6.2392,0.8869,6.882
8.213000,-2.8955,-6.5135,0.8868,7.183
8.217000,-3.0535,-6.7638,0.8665,7.471
8.222000,-3.2429,-6.9965,0.8405,7.757
8.228000,-3.4589,-7.2115,0.8115,8.039
8.233000,-3.6730,-7.3684,0.7677,8.269
8.238000,-3.8684,-7.4943,0.7306,8.465
8.244000,-4.0382,-7.6064,0.6858,8.639
8.248000,-4.1873,-7.7046,0.6407,8.792
8.255000,-4.3064,-7.8174,0.5974,8.945
8.261000,-4.4003,-7.9612,0.5585,9.113
8.265000,-4.5076,-8.1578,0.5262,9.335
8.267000,-4.5972,-8.3578,0.5073,9.552
8.273000,-4.7030,-8.5710,0.4966,9.789
8.297000,-4.8202,-8.7657,0.4699,10.015
8.298000,-4.9539,-8.9394,0.4461,10.230
8.299000,-5.1137,-9.0800,0.3916,10.428
8.299000,-5.2400,-9.1768,0.2991,10.572
8.300000,-5.3330,-9.2444,0.1548,10.673
8.304000,-5.3688,-9.2899,-0.0125,10.730
8.309000,-5.3882,-9.3159,-0.1790,10.763
8.314000,-5.4178,-9.3176,-0.3547,10.784
8.318000,-5.4526,-9.3045,-0.5252,10.797
8.325000,-5.4738,-9.2670,-0.6984,10.786
8.329000,-5.4885,-9.2266,-0.8194,10.767
8.334000,-5.4897,-9.1714,-0.9102,10.728
8.338000,-5.4461,-9.0897,-0.9925,10.643
8.344000,-5.3580,-9.0101,-1.0644,10.537
8.348000,-5.1965,-8.9352,-1.1114,10.396
8.354000,-4.9570,-8.8726,-1.1509,10.228
8.365000,-4.6274,-8.8395,-1.1949,10.049
8.367000,-4.2247,-8.8480,-1.2340,9.882
8.368000,-3.7845,-8.8988,-1.2948,9.756
8.373000,-3.4025,-8.9681,-1.3988,9.693
8.404000,-3.1551,-9.0235,-1.5581,9.685
8.406000,-3.0849,-8.9976,-1.7510,9.672
8.407000,-3.1678,-8.8666,-1.9440,9.614
8.409000,-3.3556,-8.6185,-2.0917,9.482
8.410000,-3.5284,-8.2868,-2.1461,9.259
8.411000,-3.6384,-7.9021,-2.0785,8.944
8.412000,-3.6542,-7.4824,-1.9103,8.543
8.413000,-3.5878,-7.0613,-1.6483,8.090
8.418000,-3.4390,-6.6656,-1.2972,7.612
8.423000,-3.2008,-6.3246,-0.8928,7.144
8.428000,-2.8755,-6.0668,-0.4544,6.729
8.434000,-2.5133,-5.8962,-0.0151,6.410
8.439000,-2.1311,-5.8004,0.3985,6.192
8.443000,-1.7071,-5.7724,0.7532,6.066
8.448000,-1.2750,-5.7931,1.0156,6.018
8.453000,-0.8416,-5.8481,1.1768,6.024
8.464000,-0.4213,-5.9129,1.1940,6.047
8.467000,-0.0189,-5.9605,1.0445,6.051
8.468000,0.3779,-6.0023,0.7341,6.059
8.473000,0.7356,-6.0243,0.2902,6.076
8.496000,0.7553,-6.0245,-0.2288,6.076
8.498000,1.3678,-6.0128,-0.7359,6.210
8.499000,1.6398,-5.9506,-1.2138,6.291
8.499000,1.8606,-5.8612,-1.6238,6.360
8.500000,2.0114,-5.7322,-1.9393,6.377
8.504000,2.0899,-5.5733,-2.1652,6.334
8.509000,2.1151,-5.3821,-2.2754,6.214
8.514000,2.1089,-5.1603,-2.2941,6.028
8.519000,2.1425,-4.9191,-2.2127,5.804
8.525000,2.1898,-4.6386,-2.0341,5.518
8.529000,2.2146,-4.3336,-1.7835,5.183
8.535000,2.2145,-4.0089,-1.5049,4.821
8.540000,2.1752,-3.6902,-1.2179,4.453
8.545000,2.0867,-3.3908,-0.9881,4.102
8.550000,2.0233,-3.0932,-0.8111,3.784
8.554000,1.9896,-2.8072,-0.6440,3.501
8.559000,1.9710,-2.5090,-0.4707,3.225
8.564000,1.9313,-2.2133,-0.2941,2.952
8.569000,1.8371,-1.9364,-0.0860,2.671
8.575000,1.7022,-1.6676,0.1602,2.388
8.579000,1.5362,-1.4132,0.4298,2.131
8.584000,1.3609,-1.1683,0.7061,1.928
8.591000,1.2001,-0.9518,1.0105,1.835
8.599000,1.0084,-0.7491,1.3452,1.841
8.602000,0.8053,-0.5020,1.6767,1.927
8.606000,0.5928,-0.2137,1.9954,2.093
8.642000,0.3807,0.1116,2.2588,2.293
8.643000,0.1932,0.4572,2.4478,2.498
8.644000,0.0733,0.8089,2.5536,2.680
8.644000,0.0402,1.1597,2.5768,2.826
8.645000,0.0813,1.5131,2.5205,2.941
8.645000,0.1701,1.8620,2.4356,3.070
8.645000,0.2514,2.1797,2.3318,3.202
8.646000,0.3034,2.4706,2.2263,3.339
8.649000,0.3069,2.7227,2.1170,3.463
8.654000,0.2813,2.9413,1.9753,3.554
8.659000,0.2285,3.1210,1.8232,3.622
8.664000,0.2135,3.2573,1.6491,3.657
8.669000,0.2552,3.3719,1.4416,3.676
8.676000,0.3391,3.4765,1.2341,3.705
8.679000,0.3960,3.5427,1.0558,3.718
8.684000,0.3989,3.5698,0.9112,3.706
8.690000,0.3269,3.5490,0.8148,3.656
8.697000,0.2281,3.4999,0.7689,3.591
8.700000,0.1292,3.4300,0.7518,3.514
8.704000,0.0400,3.3349,0.7373,3.416
8.736000,-0.0176,3.2107,0.7563,3.299
8.738000,-0.0437,3.0522,0.7891,3.153
8.740000,-0.0310,2.8792,0.8019,2.989
8.742000,0.0039,2.6823,0.8399,2.811
8.742000,0.0447,2.4763,0.9220,2.643
8.743000,0.1391,2.2901,1.0143,2.509
8.744000,0.3090,2.1359,1.1408,2.441
8.745000,0.5344,2.0178,1.3148,2.467
8.749000,0.7941,1.9481,1.4764,2.570
8.755000,1.0781,1.8955,1.6278,2.721
8.760000,1.3601,1.8477,1.7329,2.875
8.765000,1.6570,1.8290,1.8040,3.057
8.769000,1.9585,1.8171,1.8288,3.238
8.775000,2.2456,1.7976,1.8365,3.413
8.779000,2.5183,1.7730,1.8344,3.585
8.784000,2.7790,1.7551,1.8271,3.760
8.790000,3.0276,1.7368,1.8195,3.936
8.794000,3.2405,1.7350,1.8214,4.102
8.800000,3.4460,1.7397,1.8301,4.272
8.804000,3.6516,1.7489,1.8124,4.436
8.814000,3.8957,1.7673,1.7826,4.634
8.817000,4.1805,1.7781,1.7507,4.869
8.819000,4.4989,1.7790,1.7238,5.136
8.850000,4.8318,1.8058,1.7140,5.435
8.851000,5.1640,1.8317,1.7207,5.743
8.852000,5.4791,1.8377,1.7583,6.041
8.852000,5.7937,1.8337,1.8146,6.342
8.853000,6.1153,1.8269,1.8821,6.654
8.853000,6.4562,1.8297,1.9392,6.985
8.854000,6.8228,1.8585,2.0045,7.350
8.860000,7.2249,1.8944,2.0968,7.758
8.865000,7.6478,1.9828,2.1700,8.193
8.869000,8.0316,2.1450,2.1690,8.591
8.877000,8.3736,2.3690,2.0437,8.939
8.880000,8.6931,2.6567,1.8165,9.270
8.886000,9.0129,2.9689,1.5456,9.614
8.890000,9.3520,3.2765,1.2556,9.989
8.896000,9.7044,3.5857,0.9923,10.393
8.900000,10.0477,3.9006,0.7966,10.808
8.905000,10.3498,4.1966,0.7209,11.191
8.910000,10.5670,4.4471,0.7838,11.491
8.915000,10.7078,4.6492,0.9461,11.712
8.920000,10.8220,4.7888,1.1996,11.895
8.950000,10.8714,4.8277,1.5147,11.991
8.951000,10.8579,4.7662,1.8570,12.002
8.952000,10.7484,4.6192,2.1562,11.896
8.953000,10.4883,4.4205,2.4165,11.635
8.953000,10.0928,4.1948,2.6641,11.250
8.954000,9.5916,3.9907,2.9126,10.789
8.958000,8.9907,3.8567,3.1211,10.269
8.960000,8.3414,3.8149,3.2825,9.742
8.965000,7.6970,3.8394,3.3896,9.245
8.970000,7.0779,3.8851,3.4288,8.772
8.975000,6.5586,3.9403,3.3600,8.356
8.980000,6.1203,4.0050,3.2129,7.989
8.985000,5.7800,4.0742,2.9932,7.679
8.993000,5.4993,4.1619,2.7428,7.422
8.997000,5.2181,4.2198,2.5078,7.164
8.999000,4.9154,4.2311,2.3113,6.885
9.004000,4.6175,4.2005,2.1703,6.609
9.012000,4.3389,4.1352,2.0517,6.335
9.016000,4.1085,4.0353,1.9346,6.075
9.020000,3.9067,3.9030,1.8144,5.813
9.033000,3.7248,3.7315,1.6708,5.531
9.036000,3.5672,3.4967,1.5304,5.224
9.037000,3.4724,3.2371,1.4030,4.950
9.039000,3.4356,2.9433,1.3222,4.713
9.080000,3.4136,2.6416,1.2618,4.497
9.081000,3.4157,2.3511,1.2238,4.323
9.082000,3.4329,2.0746,1.2083,4.189
9.082000,3.4696,1.7976,1.2246,4.095
9.083000,3.5594,1.5393,1.2533,4.075
9.083000,3.7090,1.3188,1.3493,4.161
9.084000,3.8726,1.1164,1.4999,4.300
9.084000,4.0264,0.9108,1.6521,4.446
9.086000,4.1868,0.6971,1.7626,4.596
9.090000,4.3586,0.4752,1.8312,4.751
9.096000,4.5559,0.2712,1.8770,4.935
9.100000,4.7428,0.0897,1.9002,5.110
9.106000,4.9306,-0.0651,1.9150,5.290
9.111000,5.1102,-0.2169,1.9167,5.462
9.115000,5.3027,-0.3591,1.9221,5.652
9.121000,5.5078,-0.5278,1.9764,5.875
9.144000,5.6729,-0.6754,2.0674,6.075
9.145000,5.7616,-0.7832,2.1801,6.210
9.145000,5.7100,-0.8438,2.2640,6.200
9.146000,5.5539,-0.8551,2.3524,6.092
9.146000,5.3462,-0.8292,2.4093,5.922
9.151000,5.1442,-0.7709,2.4368,5.744
9.155000,4.9601,-0.7188,2.4304,5.570
9.160000,4.7527,-0.6902,2.4710,5.401
9.165000,4.4872,-0.6960,2.5084,5.188
9.170000,4.1728,-0.7128,2.5543,4.944
9.175000,3.7862,-0.7331,2.5678,4.633
9.181000,3.3515,-0.7709,2.5827,4.301
9.185000,2.9528,-0.8312,2.5725,4.003
9.192000,2.6363,-0.8908,2.5302,3.761
9.196000,2.4113,-0.9740,2.4701,3.587
9.201000,2.2445,-1.0834,2.3949,3.456
9.206000,2.1262,-1.2187,2.3645,3.405
9.211000,2.0492,-1.3705,2.2807,3.358
9.216000,1.9846,-1.5321,2.1174,3.282
9.220000,1.9333,-1.6352,1.8615,3.143
9.234000,1.8757,-1.6977,1.6116,3.000
9.235000,1.7808,-1.7317,1.3584,2.831
9.236000,1.6653,-1.7662,1.1524,2.687
9.280000,1.5222,-1.8086,0.9887,2.562
9.281000,1.3513,-1.8739,0.8485,2.461
9.282000,1.1605,-1.9702,0.7486,2.406
9.282000,0.9903,-2.0910,0.6578,2.405
9.282000,0.8432,-2.2268,0.5858,2.452
9.283000,0.6572,-2.3846,0.5661,2.537
9.283000,0.4440,-2.5748,0.6155,2.684
9.284000,0.2117,-2.7927,0.7098,2.889
9.287000,-0.2384,-3.2160,1.0279,3.385
9.288000,-0.2815,-3.3630,1.0314,3.529
9.292000,-0.5422,-3.6952,1.2176,3.928
9.297000,-0.8026,-4.0038,1.4185,4.323
9.301000,-1.0770,-4.3298,1.6029,4.741
9.307000,-1.3435,-4.6685,1.7705,5.171
9.312000,-1.5830,-5.0059,1.9143,5.588
9.317000,-1.7837,-5.3105,2.0150,5.953
9.321000,-1.9743,-5.5797,2.0776,6.273
9.329000,-2.1310,-5.8036,2.0975,6.529
9.332000,-2.2541,-5.9833,2.0655,6.719
9.335000,-2.3361,-6.1433,1.9720,6.862
9.368000,-2.4086,-6.2750,1.8364,6.968
9.369000,-2.4691,-6.3882,1.6806,7.052
9.370000,-2.5273,-6.5069,1.5336,7.147
9.370000,-2.5594,-6.6225,1.3786,7.232
9.371000,-2.6085,-6.7166,1.2394,7.311
9.371000,-2.6794,-6.8117,1.1378,7.408
9.372000,-2.7985,-6.9099,1.0496,7.529
9.379000,-2.9465,-7.0232,0.9511,7.675
9.380000,-3.1117,-7.1488,0.8466,7.843
9.388000,-3.2748,-7.3133,0.7359,8.047
9.391000,-3.4075,-7.5051,0.6114,8.265
9.396000,-3.5050,-7.7220,0.4900,8.494
9.401000,-3.5916,-7.9397,0.3924,8.723
9.407000,-3.6842,-8.1556,0.3397,8.956
9.412000,-3.8092,-8.4073,0.3266,9.236
9.416000,-3.9479,-8.6495,0.3573,9.515
9.420000,-4.0861,-8.8421,0.4217,9.750
9.426000,-4.2217,-8.9832,0.5384,9.940
9.431000,-4.3932,-9.0940,0.6639,10.121
9.436000,-4.6008,-9.1789,0.7887,10.298
9.444000,-4.8182,-9.2453,0.8864,10.463
9.447000,-5.0171,-9.2749,0.9167,10.585
9.450000,-5.1737,-9.2894,0.8797,10.669
9.455000,-5.2690,-9.2771,0.7902,10.698
9.482000,-5.3031,-9.2451,0.6650,10.679
9.484000,-5.2930,-9.1767,0.4946,10.605
9.484000,-5.2434,-9.0820,0.3055,10.491
9.485000,-5.1496,-8.9587,0.1339,10.334
9.485000,-5.0404,-8.8263,-0.0202,10.164
9.486000,-4.9299,-8.6997,-0.1468,10.001
9.492000,-4.8015,-8.5790,-0.2504,9.834
9.496000,-4.6716,-8.4716,-0.3284,9.680
9.502000,-4.5739,-8.4017,-0.3997,9.574
9.507000,-4.4865,-8.3809,-0.4544,9.517
9.511000,-4.3712,-8.4019,-0.5543,9.487
9.517000,-4.1682,-8.4956,-0.6895,9.488
9.521000,-3.8751,-8.6836,-0.8789,9.549
9.527000,-3.5516,-8.9344,-1.1153,9.679
9.531000,-3.3387,-9.1936,-1.3866,9.879
9.536000,-3.3010,-9.3508,-1.6574,10.054
9.542000,-3.4332,-9.3052,-1.8967,10.098
9.546000,-3.6395,-9.0497,-2.0760,9.973
9.551000,-3.7832,-8.6489,-2.1591,9.684
9.557000,-3.8093,-8.1697,-2.1529,9.268
9.561000,-3.6721,-7.6785,-2.0235,8.749
9.566000,-3.4123,-7.2068,-1.7663,8.167
9.571000,-3.0514,-6.7628,-1.3936,7.549
9.581000,-2.6324,-6.3545,-0.9849,6.948
9.582000,-2.1842,-5.9893,-0.5766,6.401
9.587000,-1.7259,-5.6932,-0.2000,5.952
9.621000,-1.2932,-5.4757,0.1136,5.627
9.625000,-0.8933,-5.3012,0.3072,5.385
9.626000,-0.5310,-5.1843,0.4027,5.227
9.627000,-0.2181,-5.1230,0.4171,5.145
9.628000,0.0478,-5.1428,0.3245,5.153
9.629000,0.2716,-5.2187,0.1469,5.228
9.629000,0.4534,-5.3188,-0.0986,5.339
9.630000,0.5549,-5.4262,-0.3805,5.468
9.631000,0.5740,-5.5503,-0.7032,5.624
9.636000,0.5658,-5.6571,-1.0257,5.777
9.643000,0.5497,-5.7649,-1.3139,5.938
9.646000,0.5089,-5.8578,-1.5460,6.080
9.651000,0.4820,-5.9301,-1.7408,6.199
9.656000,0.5239,-5.9579,-1.8890,6.272
9.663000,0.6036,-5.9414,-1.9836,6.293
9.667000,0.7163,-5.8825,-2.0086,6.257
9.672000,0.8306,-5.7995,-1.9859,6.186
9.678000,0.9370,-5.6776,-1.8946,6.058
9.682000,1.0213,-5.5288,-1.7803,5.897
9.686000,1.0978,-5.3175,-1.6483,5.674
9.715000,1.1304,-5.0562,-1.4750,5.387
9.716000,1.1338,-4.7539,-1.3089,5.059
9.717000,1.1097,-4.4100,-1.1411,4.689
9.717000,1.0774,-4.0505,-1.0102,4.311
9.717000,1.0488,-3.6756,-0.8970,3.926
9.718000,1.0044,-3.3096,-0.7874,3.547
9.722000,0.9418,-2.9625,-0.6746,3.181
9.727000,0.8419,-2.6409,-0.5348,2.823
9.732000,0.6993,-2.3461,-0.3515,2.473
9.737000,0.5359,-2.0916,-0.1490,2.164
9.742000,0.3613,-1.8484,0.0799,1.885
9.747000,0.2184,-1.6522,0.3277,1.699
9.751000,0.0957,-1.4328,0.5874,1.551
9.758000,-0.0122,-1.2008,0.8352,1.463
9.763000,-0.1264,-0.9578,1.0902,1.457
9.767000,-0.2421,-0.6918,1.3240,1.513
9.772000,-0.3522,-0.4266,1.5174,1.615
9.792000,-0.4445,-0.1477,1.6588,1.724
9.793000,-0.4996,0.1407,1.7436,1.819
9.793000,-0.5229,0.4300,1.7818,1.906
9.794000,-0.4809,0.6919,1.7761,1.966
9.797000,-0.3953,0.9691,1.7172,2.011
9.802000,-0.2807,1.2445,1.6008,2.047
9.807000,-0.1635,1.5058,1.4296,2.083
9.811000,-0.0581,1.7580,1.2185,2.140
9.816000,0.0325,1.9853,0.9847,2.216
9.821000,0.0939,2.1811,0.7432,2.306
9.826000,0.1120,2.3212,0.5206,2.381
9.832000,0.1010,2.4035,0.3481,2.431
9.837000,0.0662,2.4405,0.1856,2.448
9.842000,0.0119,2.4390,0.0687,2.440
9.846000,-0.0448,2.4115,-0.0096,2.412
9.852000,-0.1155,2.3513,-0.0423,2.355
9.858000,-0.1881,2.2422,-0.0585,2.251
9.862000,-0.2407,2.1013,-0.0655,2.116
9.868000,-0.2466,1.9558,-0.0729,1.973
9.872000,-0.2157,1.8268,-0.0714,1.841
9.877000,-0.1429,1.7098,-0.0658,1.717
9.883000,-0.0304,1.6075,-0.0465,1.608
9.886000,0.1192,1.5079,0.0126,1.513
9.908000,0.2778,1.3946,0.0946,1.425
9.909000,0.4590,1.2982,0.1991,1.391
9.910000,0.6728,1.2143,0.3188,1.424
9.910000,0.8857,1.1237,0.4654,1.505
9.912000,1.1192,1.0455,0.6146,1.650
9.916000,1.4046,1.0063,0.7567,1.886
9.921000,1.7634,1.0180,0.8847,2.220
9.927000,2.1732,1.0414,0.9431,2.588
9.932000,2.6148,1.1242,0.9824,3.011
9.936000,3.0734,1.2253,0.9860,3.452
9.942000,3.5103,1.3393,0.9730,3.881
9.947000,3.9252,1.4781,0.9624,4.303
9.952000,4.2990,1.6201,0.9831,4.698
9.958000,4.6307,1.7644,1.0178,5.059
9.962000,4.9014,1.8945,1.0714,5.363
9.967000,5.1183,2.0080,1.1365,5.614
9.971000,5.3101,2.0957,1.1748,5.828
9.977000,5.4965,2.1244,1.2082,6.015
9.982000,5.6744,2.0938,1.2146,6.169
9.986000,5.8587,2.0331,1.1896,6.314
9.997000,6.0614,1.9662,1.1599,6.477
9.998000,6.2874,1.8982,1.1493,6.667
10.002000,6.5272,1.8387,1.1961,6.886
10.006000,6.7669,1.7880,1.2835,7.116
10.036000,6.8239,1.7673,1.4204,7.191
10.037000,7.2944,1.7626,1.5899,7.671
10.037000,7.5491,1.8004,1.7584,7.957
10.037000,7.8179,1.8808,1.9205,8.267
10.038000,8.1081,2.0614,2.0737,8.619
10.038000,8.4389,2.3207,2.1796,9.019
10.045000,8.7900,2.6268,2.2499,9.446
10.046000,9.1518,2.9582,2.2843,9.886
10.052000,9.5309,3.2907,2.2542,10.332
10.058000,9.9435,3.6288,2.1813,10.807
10.062000,10.4058,3.9648,2.0586,11.324
10.066000,10.8731,4.2859,1.9077,11.842
10.071000,11.2970,4.5511,1.7192,12.300
10.076000,11.6695,4.7241,1.5077,12.679
10.082000,11.9687,4.8024,1.2973,12.961
10.087000,12.1725,4.8191,1.1528,13.142
10.102000,12.2785,4.8293,1.0981,13.240
10.107000,12.2407,4.8806,1.1709,13.230
10.108000,12.0165,4.9877,1.3489,13.080
10.108000,11.6254,5.1414,1.5737,12.809
10.112000,11.1305,5.3038,1.7732,12.456
10.116000,10.5589,5.4851,1.9372,12.055
10.122000,9.9352,5.6520,2.0039,11.605
10.138000,9.3223,5.7860,1.9613,11.146
10.139000,8.7878,5.9086,1.7932,10.740
10.140000,8.2984,5.9983,1.5771,10.360
10.149000,7.8688,6.0433,1.3592,10.014
10.150000,7.4942,6.0505,1.1639,9.702
10.152000,7.1490,6.0298,1.0133,9.407
10.159000,6.8497,5.9834,0.9005,9.140
10.162000,6.6277,5.8996,0.7946,8.909
10.169000,6.4495,5.7950,0.6837,8.697
10.172000,6.3104,5.6361,0.5775,8.481
10.177000,6.2244,5.4420,0.4548,8.280
10.182000,6.2137,5.2106,0.3232,8.116
10.187000,6.2757,4.9656,0.1853,8.005
10.195000,6.4052,4.7189,0.0578,7.956
10.198000,6.5589,4.4893,-0.1021,7.949
10.203000,6.7222,4.2787,-0.2847,7.974
10.208000,6.8908,4.1018,-0.4771,8.033
10.250000,7.0453,3.9246,-0.6551,8.091
10.251000,7.1760,3.7179,-0.8133,8.123
10.253000,7.3091,3.4841,-0.9323,8.151
10.254000,7.4424,3.2255,-0.9564,8.168
10.254000,7.5802,2.9439,-0.8767,8.179
10.255000,7.6802,2.6590,-0.7387,8.161
10.256000,7.7108,2.3609,-0.5522,8.083
10.256000,7.6559,2.0234,-0.3679,7.927
10.256000,7.5324,1.6612,-0.1716,7.715
10.257000,7.4173,1.3007,-0.0452,7.531
10.263000,7.3534,0.9272,0.0690,7.412
10.267000,7.3774,0.5536,0.1921,7.401
10.273000,7.4721,0.1890,0.3380,7.482
10.277000,7.5605,-0.1359,0.5254,7.580
10.289000,7.5060,-0.5508,0.9137,7.581
10.290000,7.4158,-0.6450,0.9208,7.501
10.294000,7.1521,-0.8505,1.0535,7.279
10.297000,6.7891,-1.0148,1.1749,6.964
10.302000,6.3775,-1.1615,1.3067,6.613
10.307000,5.9965,-1.3073,1.4820,6.314
10.331000,5.6466,-1.4519,1.6530,6.060
10.333000,5.3202,-1.6053,1.8027,5.842
10.333000,5.0211,-1.7301,1.9619,5.662
10.334000,4.7870,-1.8460,2.0730,5.534
10.334000,4.5702,-1.9507,2.1339,5.408
10.338000,4.3686,-2.0491,2.1975,5.302
10.343000,4.1845,-2.1579,2.2305,5.210
10.347000,4.0319,-2.2830,2.2546,5.153
10.353000,3.9239,-2.4395,2.2799,5.152
10.358000,3.8553,-2.6307,2.3302,5.217
10.362000,3.7784,-2.8757,2.3841,5.313
10.367000,3.6480,-3.1648,2.4104,5.398
10.372000,3.4476,-3.4452,2.4071,5.436
10.377000,3.1820,-3.6745,2.4009,5.421
10.382000,2.8168,-3.8911,2.3636,5.354
10.388000,2.4331,-4.0956,2.3079,5.293
10.395000,2.0482,-4.3020,2.2149,5.254
10.398000,1.6765,-4.4980,2.1213,5.248
10.403000,1.3612,-4.6834,2.0296,5.283
10.408000,1.0614,-4.8278,1.9637,5.319
10.412000,0.7992,-4.9866,1.9187,5.402
10.417000,0.5695,-5.1318,1.8369,5.480
10.422000,0.3579,-5.2778,1.7374,5.568
10.432000,0.1547,-5.4436,1.6178,5.681
10.433000,-0.0427,-5.6137,1.4996,5.811
10.437000,-0.2314,-5.7998,1.3995,5.971
10.475000,-0.4283,-6.0099,1.3222,6.169
10.476000,-0.6167,-6.2271,1.2912,6.389
10.477000,-0.8063,-6.4559,1.2799,6.631
10.477000,-0.9946,-6.7125,1.2836,6.906
10.478000,-1.1770,-6.9880,1.2902,7.203
10.478000,-1.3677,-7.2464,1.2975,7.488
10.479000,-1.5715,-7.4836,1.3124,7.759
10.479000,-1.7792,-7.6871,1.2966,7.996
10.483000,-1.9882,-7.8806,1.2574,8.224
10.487000,-2.1869,-8.0804,1.1902,8.455
10.492000,-2.3418,-8.3041,1.1096,8.699
10.497000,-2.4580,-8.4966,1.0323,8.905
10.503000,-2.5500,-8.6589,0.9414,9.076
10.509000,-2.6373,-8.7983,0.8560,9.225
10.514000,-2.7892,-8.9241,0.7496,9.380
10.518000,-2.9749,-9.0371,0.6651,9.537
10.523000,-3.1898,-9.1353,0.6191,9.696
10.534000,-3.4053,-9.2123,0.6020,9.840
10.535000,-3.6216,-9.2631,0.6163,9.965
10.537000,-3.8268,-9.2754,0.6332,10.054
10.585000,-4.0190,-9.2971,0.6647,10.150
10.586000,-4.1741,-9.3071,0.6890,10.224
10.587000,-4.2952,-9.3328,0.6870,10.297
10.588000,-4.3775,-9.3796,0.6730,10.373
10.592000,-4.4164,-9.4499,0.6471,10.451
10.594000,-4.4074,-9.5511,0.6139,10.537
10.594000,-4.4008,-9.6640,0.5900,10.635
10.595000,-4.4015,-9.7963,0.5562,10.754
10.596000,-4.4577,-9.9494,0.5266,10.915
10.596000,-4.5502,-10.1187,0.4893,11.105
10.597000,-4.6649,-10.2989,0.4513,11.315
10.597000,-4.8187,-10.4849,0.4033,11.546
10.603000,-4.9734,-10.6527,0.3356,11.761
10.609000,-5.1653,-10.7939,0.2698,11.969
10.613000,-5.3848,-10.8847,0.2034,12.146
10.618000,-5.6179,-10.9103,0.1149,12.272
10.624000,-5.8526,-10.8775,0.0044,12.352
10.630000,-6.0843,-10.8054,-0.1351,12.401
10.634000,-6.3011,-10.6915,-0.2579,12.413
10.639000,-6.4768,-10.5593,-0.3808,12.393
10.672000,-6.5899,-10.4208,-0.4821,12.339
10.673000,-6.6164,-10.2736,-0.5737,12.233
10.674000,-6.5470,-10.1155,-0.6556,12.067
10.674000,-6.3433,-9.9848,-0.7256,11.852
10.675000,-5.9645,-9.9133,-0.8049,11.597
10.675000,-5.4130,-9.9326,-0.8791,11.346
10.675000,-4.8417,-10.0480,-0.9913,11.198
10.678000,-4.4131,-10.1761,-1.1633,11.153
10.684000,-4.2392,-10.2411,-1.3904,11.171
10.689000,-4.2838,-10.1613,-1.6318,11.147
10.695000,-4.4077,-9.9197,-1.8016,11.003
10.699000,-4.4648,-9.5738,-1.8636,10.727
10.703000,-4.3449,-9.1908,-1.8225,10.328
10.709000,-4.0529,-8.8356,-1.6830,9.865
10.715000,-3.6409,-8.5196,-1.4498,9.378
10.718000,-3.1688,-8.2598,-1.1328,8.919
10.725000,-2.6676,-8.0355,-0.7538,8.500
10.729000,-2.1731,-7.8592,-0.3662,8.162
10.735000,-1.6900,-7.7075,0.0033,7.891
10.738000,-1.2158,-7.5705,0.3425,7.675
10.745000,-0.7385,-7.4404,0.6492,7.505
10.749000,-0.2939,-7.3121,0.8521,7.367
10.754000,0.1541,-7.1737,0.9278,7.235
10.768000,0.5578,-7.0138,0.8648,7.089
10.770000,0.8908,-6.8732,0.6492,6.961
10.771000,1.1151,-6.7802,0.2906,6.877
10.773000,1.2188,-6.7408,-0.2032,6.853
10.810000,1.2141,-6.7496,-0.7768,6.902
10.812000,1.1418,-6.7750,-1.3196,6.996
10.813000,1.0117,-6.7881,-1.7404,7.080
10.814000,0.8288,-6.7811,-2.0202,7.124
10.814000,0.6338,-6.7551,-2.2094,7.135
10.814000,0.4867,-6.6850,-2.3438,7.101
10.815000,0.4378,-6.5554,-2.3918,6.992
10.816000,0.4345,-6.3855,-2.3728,6.826
10.820000,0.4601,-6.2019,-2.3082,6.634
10.824000,0.5051,-5.9882,-2.1865,6.395
10.828000,0.5719,-5.7628,-2.0125,6.131
10.833000,0.6675,-5.5469,-1.7799,5.864
10.842000,0.7511,-5.3159,-1.5272,5.582
10.846000,0.8468,-5.0677,-1.2934,5.298
10.849000,0.9304,-4.7882,-1.0739,4.995
10.853000,0.9806,-4.4986,-0.8521,4.682
10.881000,1.0137,-4.2032,-0.6355,4.370
10.883000,1.0512,-3.9110,-0.4290,4.072
10.884000,1.1147,-3.6320,-0.2182,3.806
10.887000,1.1681,-3.3545,0.0066,3.552
10.888000,1.1850,-3.0929,0.2452,3.321
10.889000,1.1418,-2.8727,0.4976,3.131
10.890000,1.1122,-2.6763,0.7517,2.994
10.897000,1.0846,-2.4976,0.9981,2.900
10.899000,1.0637,-2.3055,1.2344,2.823
10.904000,1.0666,-2.1093,1.4728,2.785
10.909000,1.0620,-1.8708,1.7036,2.744
10.914000,1.0840,-1.6057,1.9055,2.717
10.918000,1.1582,-1.2919,2.0882,2.715
10.925000,1.2680,-0.9599,2.2494,2.755
10.929000,1.3918,-0.6243,2.3939,2.839
10.934000,1.5678,-0.2493,2.5053,2.966
10.938000,1.7861,0.1357,2.5737,3.136
10.943000,2.0300,0.5121,2.5823,3.324
10.948000,2.2696,0.8947,2.5408,3.522
10.954000,2.5004,1.2909,2.4732,3.746
10.966000,2.7362,1.6622,2.3867,3.993
10.968000,2.9433,2.0083,2.2910,4.236
10.970000,3.1532,2.3344,2.1602,4.479
11.015000,3.4002,2.6390,2.0300,4.759
11.016000,3.6537,2.9033,1.8671,5.026
11.017000,3.8749,3.1489,1.6955,5.273
11.017000,4.0421,3.3611,1.5322,5.476
11.018000,4.1073,3.5424,1.4106,5.604
11.019000,4.1023,3.6528,1.3285,5.651
11.019000,4.0622,3.7158,1.3072,5.658
11.020000,4.0355,3.7540,1.3320,5.670
11.020000,4.0582,3.7939,1.3930,5.727
11.021000,4.0945,3.8408,1.4874,5.808
11.026000,4.1303,3.8930,1.6269,5.904
11.029000,4.1793,3.9475,1.7819,6.019
11.034000,4.2587,3.9957,1.9304,6.150
11.040000,4.3968,4.0400,2.0718,6.320
11.045000,4.6127,4.1093,2.1745,6.549
11.050000,4.9059,4.2297,2.2096,6.844
11.055000,5.2836,4.4085,2.1727,7.216
11.065000,5.6989,4.6418,2.0639,7.634
11.070000,6.1109,4.9176,1.9052,8.072
11.072000,6.4664,5.1731,1.6944,8.453
11.090000,6.7436,5.3769,1.4343,8.743
11.093000,6.9763,5.5316,1.1567,8.978
11.094000,7.1496,5.6246,0.8981,9.141
11.095000,7.2495,5.6610,0.6876,9.224
11.096000,7.2452,5.6364,0.5038,9.193
11.100000,7.1849,5.5414,0.3517,9.080
11.104000,7.0739,5.3861,0.2290,8.894
11.109000,6.9367,5.1662,0.1479,8.650
11.115000,6.7566,4.9418,0.1105,8.372
11.120000,6.5606,4.7084,0.1288,8.076
11.126000,6.3442,4.4978,0.1859,7.779
11.130000,6.1317,4.3029,0.2766,7.496
11.136000,5.9497,4.1385,0.4176,7.259
11.140000,5.8293,3.9782,0.5848,7.082
11.145000,5.7683,3.8465,0.7684,6.976
11.150000,5.7738,3.7552,0.9370,6.951
11.154000,5.8338,3.6995,1.1074,6.996
11.160000,5.9171,3.6795,1.2748,7.084
11.164000,5.9977,3.6666,1.4438,7.176
11.170000,6.0826,3.6535,1.5955,7.273
11.183000,6.1649,3.6238,1.7010,7.351
11.185000,6.2472,3.5585,1.7581,7.401
11.185000,6.3272,3.4864,1.8028,7.446
11.190000,6.4144,3.4171,1.8637,7.503
11.227000,6.5187,3.3746,1.9504,7.595
11.228000,6.6401,3.3472,2.0554,7.715
11.229000,6.8048,3.3588,2.2167,7.906
11.229000,6.9768,3.4477,2.4146,8.148
11.230000,7.1557,3.6184,2.5936,8.428
11.230000,7.3652,3.8255,2.7461,8.742
11.232000,7.5999,4.0349,2.8768,9.073
11.235000,7.8331,4.2655,2.9423,9.392
11.236000,8.0594,4.5122,2.9497,9.696
11.239000,8.2709,4.7481,2.9111,9.971
11.244000,8.4220,4.9297,2.8433,10.164
11.252000,8.5409,5.0234,2.7748,10.290
11.254000,8.5891,5.0577,2.7131,10.330
11.259000,8.5213,5.0947,2.6798,10.283
11.265000,8.3354,5.1727,2.6914,10.172
11.271000,8.1132,5.3351,2.7265,10.086
11.276000,7.9122,5.5579,2.7608,10.056
11.280000,7.7135,5.8028,2.7874,10.047
11.292000,7.4166,6.2562,2.6341,10.054
11.292000,7.3876,6.2457,2.5883,10.014
11.294000,7.3511,6.3696,2.2847,9.991
11.300000,7.3859,6.3927,1.8560,9.943
11.304000,7.4799,6.3315,1.3560,9.893
11.316000,7.6019,6.2214,0.8318,9.858
11.318000,7.7015,6.0812,0.3416,9.819
11.319000,7.7712,5.9007,-0.0636,9.758
11.324000,7.8254,5.6465,-0.3455,9.656
11.363000,7.9217,5.3305,-0.5616,9.565
11.365000,8.1362,5.0028,-0.8103,9.586
11.365000,8.4956,4.6922,-1.0858,9.766
11.366000,9.0062,4.4241,-1.3782,10.128
11.366000,9.5407,4.1450,-1.6963,10.540
11.367000,9.9839,3.8208,-2.0472,10.884
11.367000,10.3191,3.4295,-2.4207,11.140
11.368000,10.5440,3.0277,-2.8068,11.323
11.369000,10.6862,2.5758,-3.1738,11.441
11.376000,10.8224,2.0754,-3.5071,11.564
11.379000,10.9625,1.5601,-3.7256,11.683
11.384000,11.0133,1.0175,-3.8324,11.705
11.389000,10.8985,0.4186,-3.8595,11.569
11.394000,10.6081,-0.2779,-3.8030,11.273
11.399000,10.1836,-1.0043,-3.6115,10.852
11.404000,9.5970,-1.7384,-3.2720,10.287
11.414000,8.8517,-2.4549,-2.8867,9.629
11.416000,8.0633,-3.1070,-2.4882,8.992
11.419000,7.3299,-3.6374,-2.0733,8.441
11.456000,6.7431,-4.0461,-1.6152,8.028
11.457000,6.3284,-4.3456,-1.1583,7.764
11.458000,6.0851,-4.5743,-0.7495,7.649
11.460000,5.9360,-4.7326,-0.4206,7.603
11.460000,5.8161,-4.8113,-0.1864,7.551
11.461000,5.7273,-4.8405,0.0440,7.499
11.461000,5.6368,-4.8282,0.3396,7.430
11.462000,5.5226,-4.8212,0.6598,7.361
11.465000,5.4116,-4.8074,0.9811,7.305
11.470000,5.2634,-4.8034,1.2997,7.243
11.474000,5.0499,-4.8235,1.6472,7.175
11.480000,4.7137,-4.9044,1.9855,7.086
11.484000,4.2756,-5.0097,2.2612,6.963
11.491000,3.7908,-5.1015,2.4704,6.819
11.495000,3.2959,-5.1530,2.6192,6.654
11.500000,2.8246,-5.1687,2.7403,6.496
11.505000,2.3863,-5.1951,2.8631,6.394
11.512000,1.9820,-5.2104,2.9990,6.330
11.515000,1.6471,-5.2397,3.1001,6.307
11.520000,1.3910,-5.2641,3.1719,6.301
11.540000,1.2135,-5.2933,3.2077,6.307
11.541000,1.0786,-5.3277,3.1961,6.306
11.542000,0.9215,-5.4165,3.1731,6.345
11.543000,0.7498,-5.5574,3.1684,6.441
11.544000,0.5370,-5.7418,3.1507,6.571
11.549000,0.2855,-5.9645,3.0989,6.728
11.554000,0.0168,-6.2107,3.0656,6.926
11.560000,-0.2907,-6.4669,3.0071,7.138
11.565000,-0.6154,-6.7160,2.9019,7.342
11.569000,-0.9480,-6.9492,2.7236,7.524
11.577000,-1.2645,-7.1326,2.5270,7.672
11.580000,-1.5749,-7.2803,2.3189,7.801
11.585000,-1.8841,-7.4280,2.0745,7.939
11.591000,-2.1612,-7.5788,1.7862,8.081
11.595000,-2.4137,-7.7304,1.4824,8.233
11.600000,-2.6730,-7.8837,1.1886,8.409
11.605000,-2.9033,-8.0239,0.8995,8.580
11.616000,-3.0501,-8.1507,0.6388,8.726
11.618000,-3.1087,-8.2666,0.4446,8.843
11.620000,-3.1127,-8.3536,0.3409,8.921
11.665000,-3.1342,-8.4028,0.3135,8.974
11.666000,-3.2092,-8.4633,0.3141,9.057
11.667000,-3.2993,-8.5204,0.3047,9.142
11.667000,-3.3809,-8.6101,0.2855,9.254
11.668000,-3.4466,-8.7377,0.2376,9.396
11.669000,-3.5305,-8.8800,0.1638,9.557
11.669000,-3.6397,-9.0615,0.0781,9.765
11.670000,-3.7623,-9.2795,-0.0216,10.013
11.670000,-3.8939,-9.5073,-0.1566,10.275
11.671000,-4.0298,-9.7159,-0.2763,10.522
11.677000,-4.2084,-9.9009,-0.4046,10.766
11.680000,-4.4493,-10.0774,-0.4765,11.026
11.685000,-4.7263,-10.2002,-0.5733,11.257
11.692000,-5.0228,-10.3023,-0.6611,11.481
11.694000,-5.3344,-10.3881,-0.7351,11.701
11.700000,-5.6493,-10.4218,-0.8168,11.883
11.706000,-5.9275,-10.4120,-0.9111,12.016
11.711000,-6.1546,-10.3756,-1.0132,12.106
11.716000,-6.3167,-10.3008,-1.1425,12.137
11.721000,-6.4210,-10.2141,-1.2724,12.132
11.728000,-6.4652,-10.1157,-1.3913,12.086
11.730000,-6.4638,-9.9989,-1.4608,11.996
11.735000,-6.4551,-9.8899,-1.5074,11.906
11.740000,-6.3984,-9.7723,-1.5240,11.780
11.769000,-6.3009,-9.6633,-1.5059,11.634
11.770000,-6.2390,-9.6182,-1.4510,11.556
11.770000,-6.2440,-9.6416,-1.3576,11.567
11.771000,-6.2967,-9.7188,-1.2334,11.646
11.772000,-6.3711,-9.8135,-1.1198,11.754
11.772000,-6.4171,-9.9202,-1.0047,11.857
11.778000,-6.4348,-10.0292,-0.8978,11.950
11.780000,-6.4412,-10.1281,-0.7873,12.029
11.785000,-6.4553,-10.2261,-0.6709,12.112
11.791000,-6.4627,-10.3112,-0.5775,12.183
11.795000,-6.4324,-10.3759,-0.4904,12.218
11.801000,-6.3213,-10.4199,-0.4071,12.194
11.807000,-6.1340,-10.4291,-0.3202,12.103
11.813000,-5.8416,-10.3986,-0.2536,11.930
11.816000,-5.4368,-10.3597,-0.2359,11.702
11.820000,-4.9645,-10.3231,-0.2547,11.458
11.863000,-4.4125,-10.2843,-0.3003,11.195
11.864000,-3.8163,-10.2676,-0.3460,10.959
11.865000,-3.2089,-10.2784,-0.4680,10.778
11.865000,-2.6664,-10.2957,-0.6995,10.658
11.866000,-2.2557,-10.2691,-1.0471,10.566
11.866000,-2.0092,-10.1525,-1.4364,10.449
11.866000,-1.8598,-9.9384,-1.8053,10.271
11.867000,-1.7617,-9.6819,-2.1230,10.067
11.867000,-1.6239,-9.4050,-2.3658,9.833
11.871000,-1.4081,-9.1499,-2.5129,9.593
11.877000,-1.1139,-8.9594,-2.5599,9.384
11.880000,-0.7749,-8.8352,-2.5098,9.217
11.885000,-0.4055,-8.7750,-2.3487,9.093
11.890000,-0.0199,-8.7572,-2.0341,8.990
11.895000,0.3725,-8.7722,-1.5663,8.919
11.900000,0.7669,-8.8189,-0.9651,8.905
11.904000,1.1277,-8.8583,-0.2952,8.935
11.911000,1.4695,-8.8795,0.3620,9.008
11.915000,1.8859,-8.8801,0.9041,9.123
11.920000,2.4224,-8.8458,1.2820,9.261
11.937000,3.0649,-8.7653,1.4822,9.403
11.940000,3.7896,-8.6171,1.5199,9.536
11.943000,4.5581,-8.4216,1.3985,9.678
11.945000,5.2987,-8.1671,1.1259,9.800
11.945000,5.9347,-7.8668,0.7485,9.883
11.982000,6.4709,-7.5316,0.3442,9.936
11.984000,6.8883,-7.1708,-0.0571,9.943
11.984000,7.1912,-6.7993,-0.3971,9.905
11.985000,7.3963,-6.3734,-0.7136,9.790
11.986000,7.4079,-5.9776,-0.9729,9.568
11.986000,7.2689,-5.6068,-1.1777,9.255
11.987000,7.0056,-5.2921,-1.2924,8.874
11.987000,6.6496,-5.0485,-1.3009,8.450
11.993000,6.2767,-4.8723,-1.2020,8.036
11.995000,5.9208,-4.7333,-1.0373,7.651
12.000000,5.5866,-4.6018,-0.8105,7.283
12.005000,5.2669,-4.4703,-0.5512,6.930
12.010000,4.9764,-4.3303,-0.2650,6.602
12.016000,4.6880,-4.1736,0.0204,6.277
12.021000,4.4234,-4.0109,0.3258,5.980
12.029000,4.2019,-3.8349,0.6458,5.725
12.031000,3.9967,-3.6409,1.0036,5.499
12.036000,3.8320,-3.4286,1.3823,5.324
12.049000,3.6959,-3.1853,1.7815,5.194
12.050000,3.5803,-2.8936,2.2056,5.104
12.051000,3.4808,-2.5454,2.6307,5.051
12.056000,3.4166,-2.1505,3.0185,5.041
12.098000,3.4113,-1.7090,3.3332,5.066
12.100000,3.5269,-1.1854,3.5679,5.155
12.100000,3.7396,-0.6153,3.7399,5.324
12.101000,3.9807,0.0228,3.8729,5.554
12.101000,4.2431,0.7241,3.9863,5.867
12.102000,4.4974,1.4618,4.0778,6.244
12.102000,4.7337,2.2019,4.1161,6.648
12.103000,4.9563,2.9346,4.0920,7.065
12.103000,5.1533,3.6577,3.9409,7.448
12.107000,5.3495,4.3695,3.6921,7.832
12.110000,5.5592,5.0080,3.3484,8.197
12.116000,5.7603,5.5990,2.9581,8.560
12.123000,5.8805,6.1374,2.5505,8.874
12.127000,5.9366,6.6019,2.1718,9.140
12.132000,5.9613,7.0155,1.8654,9.393
12.137000,5.9380,7.3524,1.6362,9.591
12.141000,5.7875,7.6245,1.4770,9.685
12.146000,5.5293,7.8156,1.3879,9.674
12.151000,5.2114,7.9141,1.3543,9.572
12.155000,4.8298,7.8781,1.3714,9.342
12.162000,4.3776,7.7678,1.4341,9.031
12.166000,3.9104,7.5890,1.5300,8.673
12.170000,3.4553,7.3451,1.6609,8.285
12.205000,3.0174,7.0750,1.8051,7.901
12.207000,2.6022,6.8061,1.9499,7.543
12.208000,2.2459,6.5508,2.0451,7.221
12.210000,1.9728,6.3071,2.0690,6.925
12.210000,1.7639,6.0729,2.0505,6.648
12.211000,1.6457,5.8270,1.9799,6.370
12.211000,1.5751,5.6006,1.8718,6.112
12.212000,1.5618,5.4010,1.7070,5.876
12.217000,1.5649,5.2470,1.5198,5.682
12.222000,1.5896,5.1195,1.2843,5.512
12.226000,1.6118,5.0280,1.0011,5.374
12.232000,1.6055,4.9390,0.7211,5.243
12.236000,1.5803,4.8813,0.4709,5.152
12.242000,1.5746,4.8187,0.2417,5.075
12.247000,1.6220,4.7779,0.0575,5.046
12.251000,1.7440,4.7826,-0.0791,5.091
12.256000,1.8757,4.8157,-0.1681,5.171
12.261000,2.0241,4.8628,-0.2262,5.272
12.266000,2.1773,4.9094,-0.2341,5.376
12.271000,2.3233,4.9293,-0.2013,5.453
12.282000,2.4693,4.9463,-0.1422,5.530
12.284000,2.6199,4.9246,-0.0738,5.579
12.289000,2.7897,4.8668,-0.0272,5.610
12.327000,2.9644,4.7585,-0.0191,5.606
12.328000,3.1561,4.6121,-0.0611,5.589
12.328000,3.3908,4.4273,-0.1460,5.579
12.328000,3.6879,4.2065,-0.2589,5.600
12.329000,4.0302,3.9951,-0.3398,5.685
12.329000,4.3913,3.8069,-0.3167,5.820
12.330000,4.7304,3.6300,-0.1565,5.965
12.330000,5.0160,3.4330,0.1208,6.080
12.332000,5.2412,3.2257,0.4788,6.173
12.337000,5.4300,3.0227,0.8710,6.275
12.342000,5.5754,2.8267,1.2417,6.373
12.346000,5.6894,2.6284,1.5880,6.465
12.351000,5.7771,2.4663,1.9286,6.571
12.357000,5.8623,2.3501,2.2721,6.712
12.362000,5.9547,2.2609,2.6160,6.886
12.367000,6.0879,2.2012,2.9119,7.098
12.372000,6.2499,2.1951,3.1980,7.356
12.377000,6.4166,2.2305,3.4023,7.598
12.382000,6.6024,2.3216,3.5082,7.829
12.385000,6.8093,2.4656,3.5398,8.061
12.416000,6.9866,2.6453,3.5118,8.255
12.417000,7.1222,2.8485,3.4507,8.411
12.418000,7.1991,3.0482,3.3804,8.517
12.418000,7.1979,3.2637,3.3294,8.576
12.418000,7.1400,3.4755,3.2881,8.595
12.419000,7.0544,3.6549,3.2325,8.577
12.423000,6.9889,3.7520,3.1554,8.537
12.428000,6.9362,3.7954,3.0930,8.490
12.431000,6.8365,3.8496,3.0807,8.429
12.438000,6.6777,3.9936,3.1633,8.399
12.442000,6.4334,4.2224,3.2708,8.362
12.450000,6.1562,4.4976,3.3458,8.326
12.458000,5.8990,4.7570,3.4145,8.312
12.459000,5.6519,4.9932,3.4649,8.299
12.464000,5.4220,5.1679,3.4946,8.266
12.467000,5.2552,5.2980,3.4517,8.222
12.472000,5.1606,5.3522,3.3939,8.173
12.477000,5.1621,5.3064,3.2522,8.086
12.481000,5.2644,5.1725,3.0489,7.985
12.486000,5.4408,4.9741,2.7534,7.869
12.495000,5.6648,4.7370,2.4501,7.780
12.496000,5.9219,4.4493,2.1378,7.709
12.534000,6.1786,4.1129,1.8238,7.643
12.535000,6.4060,3.7611,1.5352,7.585
12.536000,6.5969,3.3937,1.2532,7.524
12.536000,6.7206,3.0228,0.9735,7.433
12.536000,6.7961,2.6527,0.6772,7.327
12.537000,6.8505,2.2866,0.4372,7.235
12.537000,6.8790,1.9457,0.2294,7.153
12.537000,6.8866,1.6015,0.0325,7.070
12.544000,6.8878,1.2730,-0.1916,7.007
12.547000,6.9088,0.9527,-0.4163,6.987
12.551000,6.9215,0.6175,-0.5744,6.973
12.557000,6.9067,0.2528,-0.6214,6.939
12.561000,6.8860,-0.1435,-0.5863,6.912
12.566000,6.8719,-0.5734,-0.5488,6.918
12.572000,6.9147,-1.0245,-0.4449,7.004
12.577000,6.9879,-1.5043,-0.2471,7.152
12.583000,7.0513,-1.9636,0.0048,7.320
12.587000,7.0401,-2.3289,0.2493,7.419
12.592000,6.9232,-2.6001,0.5047,7.413
12.597000,6.6819,-2.7460,0.7799,7.266
12.603000,6.3876,-2.8197,0.9380,7.045
12.626000,6.0533,-2.8204,0.9310,6.743
12.628000,5.7239,-2.7632,0.8718,6.415
12.628000,5.3850,-2.6989,0.7747,6.073
12.629000,5.0366,-2.6539,0.6045,5.725
12.629000,4.7148,-2.6070,0.3903,5.402
12.632000,4.3785,-2.5878,0.2522,5.092
12.636000,4.0310,-2.5712,0.2006,4.785
12.642000,3.6625,-2.5509,0.1733,4.467
12.646000,3.2875,-2.5626,0.1541,4.171
12.651000,2.9516,-2.5587,0.0931,3.907
12.658000,2.6142,-2.5464,-0.0138,3.649
12.662000,2.2416,-2.5411,-0.0799,3.389
12.670000,1.8467,-2.5484,-0.1140,3.149
12.672000,1.4413,-2.5954,-0.0896,2.970
12.677000,1.0184,-2.6506,-0.0468,2.840
12.690000,0.5856,-2.7496,0.0122,2.811
12.691000,0.1474,-2.9045,0.0518,2.909
12.693000,-0.2759,-3.1060,0.0732,3.119
12.699000,-0.6631,-3.3374,0.0741,3.403
12.707000,-1.0116,-3.5862,0.0673,3.727
12.708000,-1.3500,-3.8447,0.0554,4.075
12.735000,-1.6568,-4.0548,0.0627,4.381
12.736000,-1.9297,-4.2339,0.1063,4.654
12.737000,-2.1612,-4.3369,0.2056,4.850
12.738000,-2.3492,-4.3863,0.3220,4.986
12.738000,-2.5060,-4.3869,0.4438,5.072
12.744000,-2.6362,-4.3749,0.5686,5.139
12.746000,-2.7211,-4.3466,0.6822,5.173
12.747000,-2.7820,-4.3267,0.7698,5.201
12.752000,-2.8215,-4.3189,0.8387,5.227
12.757000,-2.8899,-4.3351,0.8933,5.286
12.763000,-2.9678,-4.3800,0.9693,5.379
12.768000,-3.0769,-4.4488,1.0516,5.510
12.772000,-3.1956,-4.5659,1.0708,5.675
12.777000,-3.3141,-4.7342,1.0715,5.877
12.782000,-3.4014,-4.9492,1.0752,6.101
12.786000,-3.4959,-5.2226,1.0670,6.375
12.793000,-3.6022,-5.5156,1.0348,6.669
12.797000,-3.7349,-5.8112,1.0258,6.984
12.801000,-3.8724,-6.0760,1.0112,7.276
12.827000,-4.0078,-6.3345,1.0066,7.563
12.829000,-4.1243,-6.5705,1.0048,7.822
12.830000,-4.2126,-6.7955,1.0290,8.061
12.830000,-4.3280,-6.9998,1.0934,8.302
12.831000,-4.4801,-7.1669,1.1930,8.536
12.834000,-4.6644,-7.3143,1.3291,8.776
12.837000,-4.8499,-7.4184,1.4660,8.983
12.843000,-5.0154,-7.4788,1.5675,9.140
12.848000,-5.1396,-7.5315,1.6430,9.265
12.853000,-5.2394,-7.5547,1.6807,9.346
12.860000,-5.3007,-7.5730,1.6999,9.399
12.863000,-5.3118,-7.5855,1.6954,9.414
12.868000,-5.2728,-7.5952,1.6865,9.399
12.875000,-5.2030,-7.6264,1.6879,9.385
12.878000,-5.0810,-7.6886,1.6902,9.370
12.882000,-4.9166,-7.7677,1.6767,9.345
12.887000,-4.7430,-7.8667,1.6909,9.340
12.893000,-4.6061,-7.9753,1.7275,9.371
12.897000,-4.5154,-8.0964,1.7746,9.439
12.902000,-4.4565,-8.2273,1.8204,9.532
12.912000,-4.4224,-8.3701,1.8553,9.647
12.913000,-4.3890,-8.5559,1.8989,9.802
12.917000,-4.3567,-8.7456,1.9627,9.966
12.922000,-4.3495,-8.9248,2.0612,10.140
12.949000,-4.3697,-9.0742,2.1653,10.302
12.950000,-4.4487,-9.2102,2.2389,10.470
12.951000,-4.5338,-9.3179,2.2845,10.611
12.952000,-4.6370,-9.4233,2.3021,10.752
12.952000,-4.6963,-9.5023,2.3058,10.847
12.953000,-4.7022,-9.5712,2.2623,10.901
12.959000,-4.6331,-9.6013,2.1622,10.878
12.965000,-4.4914,-9.5785,2.0080,10.768
12.967000,-4.2867,-9.5052,1.8381,10.588
12.973000,-4.0690,-9.4232,1.6715,10.399
12.978000,-3.8287,-9.3491,1.5031,10.214
12.982000,-3.5490,-9.3169,1.3401,10.060
12.987000,-3.2298,-9.3266,1.1632,9.938
12.995000,-2.8590,-9.3952,0.9554,9.867
12.997000,-2.5035,-9.4792,0.7068,9.830
13.002000,-2.2470,-9.5512,0.4173,9.821
13.007000,-2.1298,-9.5486,0.0912,9.784
13.013000,-2.1158,-9.4451,-0.2692,9.683
13.017000,-2.1592,-9.2626,-0.5773,9.528
13.022000,-2.2453,-8.9912,-0.7567,9.298
13.028000,-2.2806,-8.6712,-0.8168,9.003
13.034000,-2.2289,-8.3470,-0.7452,8.672
13.038000,-2.0568,-8.0229,-0.5350,8.300
13.073000,-1.7928,-7.7233,-0.2059,7.931
13.074000,-1.4489,-7.4293,0.1844,7.572
13.075000,-0.9963,-7.1310,0.5996,7.225
13.075000,-0.4446,-6.8210,1.0067,6.909
13.075000,0.1681,-6.4944,1.3292,6.631
13.076000,0.7965,-6.1642,1.5245,6.400
13.076000,1.4238,-5.8479,1.5503,6.215
13.078000,1.9879,-5.5606,1.3501,6.058
13.083000,2.4701,-5.3024,0.9347,5.924
13.087000,2.8319,-5.1095,0.3561,5.853
13.095000,3.1095,-4.9692,-0.3273,5.871
13.098000,3.3196,-4.8795,-1.0307,5.991
13.105000,3.4359,-4.8191,-1.7269,6.165
13.108000,3.4417,-4.7762,-2.3724,6.347
13.113000,3.3372,-4.7640,-2.9284,6.512
13.117000,3.1582,-4.7598,-3.3446,6.619
13.122000,2.8928,-4.7836,-3.6116,6.655
13.128000,2.5868,-4.8226,-3.7251,6.620
13.132000,2.3169,-4.8858,-3.7097,6.557
13.137000,2.1285,-4.9150,-3.5662,6.435
13.160000,2.0361,-4.8854,-3.2902,6.232
13.161000,2.0272,-4.8154,-2.9090,5.980
13.161000,2.0468,-4.7283,-2.4762,5.716
13.162000,2.0805,-4.6025,-2.0474,5.450
13.162000,2.1116,-4.4647,-1.6563,5.209
13.168000,2.1282,-4.3167,-1.2744,4.979
13.175000,2.1871,-4.1410,-0.8851,4.766
13.177000,2.2263,-3.9707,-0.4913,4.579
13.184000,2.2218,-3.7915,-0.1267,4.396
13.187000,2.1880,-3.6036,0.1989,4.221
13.195000,2.1104,-3.4020,0.4807,4.032
13.199000,2.0255,-3.1551,0.7307,3.820
13.204000,1.9277,-2.8740,0.9704,3.594
13.207000,1.8220,-2.5630,1.2310,3.377
13.214000,1.7012,-2.2364,1.5337,3.201
13.218000,1.5751,-1.8799,1.8716,3.085
13.225000,1.4680,-1.5045,2.2275,3.063
13.228000,1.4077,-1.1116,2.5465,3.115
13.235000,1.3924,-0.6791,2.8071,3.206
13.239000,1.4265,-0.2024,2.9833,3.313
13.244000,1.4908,0.2967,3.1136,3.465
13.251000,1.5729,0.8079,3.2103,3.665
13.253000,1.6707,1.3271,3.2542,3.891
13.284000,1.8022,1.8189,3.2431,4.132
13.285000,1.9626,2.3006,3.1605,4.374
13.285000,2.1111,2.7265,3.0091,4.577
13.286000,2.2641,3.1081,2.8034,4.759
13.286000,2.4073,3.4748,2.5581,4.941
13.286000,2.5494,3.8132,2.2854,5.125
13.296000,2.7908,4.3748,1.7202,5.467
13.297000,2.8586,4.4537,1.7289,5.567
13.298000,3.0182,4.7461,1.4524,5.809
13.303000,3.1762,4.9986,1.1856,6.040
13.309000,3.3318,5.2126,0.9402,6.257
13.314000,3.4897,5.3981,0.7165,6.468
13.320000,3.6713,5.5502,0.5577,6.678
13.326000,3.8811,5.6521,0.4661,6.872
13.329000,4.1261,5.7255,0.4342,7.071
13.334000,4.3610,5.7467,0.4429,7.228
13.338000,4.5824,5.7367,0.4843,7.358
13.345000,4.7980,5.7271,0.5296,7.490
13.349000,4.9884,5.7180,0.5954,7.611
13.354000,5.1224,5.6615,0.6857,7.666
13.363000,5.1763,5.5342,0.7858,7.618
13.365000,5.1410,5.3583,0.8976,7.480
13.369000,5.0405,5.1364,1.0345,7.270
13.406000,4.8945,4.8933,1.2079,7.026
13.409000,4.7059,4.6773,1.4051,6.782
13.409000,4.4869,4.5153,1.6160,6.567
13.410000,4.2522,4.4100,1.8234,6.392
13.410000,4.0310,4.3668,2.0032,6.271
13.411000,3.8543,4.3854,2.1482,6.221
13.411000,3.7581,4.4397,2.2514,6.237
13.412000,3.7879,4.5177,2.3061,6.331
13.414000,3.9001,4.6023,2.3749,6.483
13.418000,4.0324,4.6670,2.4102,6.622
13.425000,4.1461,4.6996,2.3571,6.696
13.428000,4.2462,4.7097,2.2138,6.717
13.435000,4.3065,4.6851,2.0241,6.678
13.440000,4.2912,4.6093,1.8246,6.557
13.444000,4.2079,4.4632,1.6422,6.350
13.449000,4.0908,4.2760,1.5034,6.106
13.456000,3.9618,4.0601,1.4086,5.845
13.460000,3.8621,3.8398,1.3556,5.612
13.464000,3.7898,3.6156,1.3350,5.405
13.469000,3.7548,3.3926,1.3371,5.234
13.474000,3.7813,3.1879,1.3500,5.127
13.510000,3.8742,3.0279,1.3877,5.109
13.511000,3.9952,2.8959,1.4238,5.136
13.512000,4.1202,2.8133,1.4603,5.198
13.512000,4.2659,2.7587,1.4729,5.289
13.513000,4.4658,2.7345,1.4782,5.441
13.514000,4.7627,2.7762,1.4810,5.708
13.514000,5.1033,2.8785,1.4929,6.046
13.515000,5.4439,3.0243,1.5018,6.406
13.519000,5.7675,3.1989,1.4858,6.761
13.526000,6.0617,3.3827,1.4066,7.083
13.529000,6.3525,3.5586,1.3221,7.400
13.534000,6.6301,3.6953,1.2369,7.690
13.539000,6.9012,3.7782,1.1630,7.953
13.545000,7.1895,3.8191,1.0885,8.213
13.550000,7.4903,3.8324,1.0209,8.475
13.555000,7.7840,3.8321,0.9600,8.729
13.562000,8.0466,3.8253,0.9323,8.958
13.565000,8.2254,3.8287,0.9232,9.120
13.569000,8.3563,3.8566,0.9377,9.251
13.574000,8.4896,3.9040,0.9948,9.397
13.610000,8.6058,3.9685,1.1230,9.543
13.611000,8.6666,4.0453,1.2785,9.649
13.611000,8.6913,4.1343,1.4447,9.732
13.612000,8.7276,4.2427,1.6143,9.838
13.612000,8.8235,4.3730,1.7823,10.008
13.612000,8.9664,4.5389,1.9442,10.236
13.613000,9.0890,4.6973,2.1210,10.449
13.615000,9.1527,4.8046,2.2506,10.579
13.619000,9.1788,4.8844,2.3352,10.656
13.624000,9.1672,4.9009,2.3680,10.661
13.631000,9.1250,4.8393,2.3660,10.596
13.635000,9.0737,4.6973,2.3771,10.490
13.641000,8.9991,4.4988,2.3534,10.333
13.646000,8.9130,4.2603,2.3163,10.147
13.652000,8.8063,3.9846,2.2613,9.927
13.656000,8.6741,3.7119,2.2170,9.692
13.662000,8.4807,3.4088,2.1378,9.387
13.664000,8.2719,3.0897,2.0144,9.057
13.670000,8.0746,2.7381,1.8662,8.728
13.675000,7.9029,2.3441,1.6910,8.415
13.680000,7.7364,1.9373,1.4823,8.112
13.684000,7.5750,1.5292,1.2381,7.826
13.690000,7.4310,1.1081,0.9756,7.576
13.723000,7.3001,0.6933,0.7431,7.371
13.725000,7.2299,0.2796,0.5431,7.256
13.726000,7.1712,-0.1082,0.3926,7.183
13.727000,7.0806,-0.4704,0.2772,7.102
13.727000,6.9201,-0.7808,0.1610,6.966
13.727000,6.7044,-1.0201,0.0416,6.782
13.728000,6.4385,-1.2027,-0.0713,6.550
13.730000,6.1534,-1.3555,-0.1633,6.303
13.735000,5.8573,-1.4749,-0.2106,6.044
13.740000,5.5784,-1.5735,-0.2180,5.800
13.745000,5.3146,-1.6440,-0.1812,5.566
13.750000,5.0395,-1.6866,-0.1028,5.315
13.755000,4.7479,-1.7355,-0.0050,5.055
13.761000,4.4385,-1.7914,0.1143,4.788
13.764000,4.1040,-1.8479,0.2428,4.507
13.769000,3.7515,-1.9287,0.3875,4.236
13.779000,3.4030,-2.0165,0.5456,3.993
13.782000,3.1040,-2.1279,0.7073,3.829
13.785000,2.8543,-2.2608,0.8864,3.748
13.790000,2.6882,-2.4087,1.0494,3.759
13.821000,2.5981,-2.5365,1.2007,3.824
13.822000,2.5479,-2.6465,1.3330,3.908
13.823000,2.4898,-2.7294,1.4249,3.960
13.823000,2.3925,-2.7767,1.4718,3.950
13.823000,2.2638,-2.8011,1.4649,3.888
13.824000,2.1108,-2.8299,1.3975,3.797
13.825000,1.9408,-2.8561,1.2819,3.683
13.831000,1.7418,-2.8990,1.1281,3.565
13.835000,1.5163,-2.9491,0.9751,3.456
13.840000,1.2428,-3.0239,0.8326,3.374
13.845000,0.9530,-3.1191,0.7488,3.346
13.850000,0.6613,-3.2449,0.6856,3.382
13.854000,0.3484,-3.3725,0.6692,3.456
13.860000,0.0387,-3.5230,0.6760,3.587
13.865000,-0.2826,-3.6827,0.7202,3.763
13.871000,-0.6099,-3.8662,0.8139,3.998
13.876000,-0.9196,-4.0476,0.9378,4.255
13.881000,-1.2285,-4.2410,1.0652,4.542
13.886000,-1.4981,-4.4270,1.1675,4.817
13.892000,-1.7406,-4.6389,1.2565,5.112
13.895000,-1.9418,-4.8605,1.3253,5.399
13.900000,-2.1325,-5.0826,1.4049,5.688
13.905000,-2.3226,-5.3180,1.4595,5.984
13.915000,-2.4929,-5.5543,1.5035,6.271
13.917000,-2.6722,-5.7937,1.5418,6.564
13.921000,-2.8390,-6.0503,1.5530,6.861
13.973000,-3.0007,-6.3269,1.5587,7.174
13.976000,-3.1620,-6.6212,1.5588,7.501
13.977000,-3.3519,-6.9050,1.5604,7.833
13.977000,-3.5848,-7.1350,1.5538,8.135
13.979000,-3.8082,-7.3060,1.5321,8.380
13.980000,-4.0198,-7.4500,1.5028,8.598
13.980000,-4.2150,-7.5696,1.4565,8.786
13.981000,-4.3582,-7.6585,1.3863,8.920
13.982000,-4.4448,-7.7429,1.2782,9.019
13.982000,-4.4917,-7.8419,1.1514,9.110
13.983000,-4.4991,-7.9367,1.0252,9.181
13.983000,-4.4861,-8.0326,0.8924,9.244
13.986000,-4.4771,-8.1452,0.7547,9.325
13.991000,-4.5103,-8.2582,0.6215,9.430
13.996000,-4.5740,-8.3858,0.5046,9.565
14.001000,-4.6658,-8.5515,0.3943,9.750
14.005000,-4.7213,-8.7412,0.3169,9.940
14.011000,-4.7314,-8.9579,0.2673,10.134
14.015000,-4.7321,-9.1830,0.2544,10.334
14.020000,-4.7381,-9.3730,0.2658,10.506
14.072000,-4.7447,-9.5207,0.2916,10.641
14.073000,-4.7258,-9.6284,0.3313,10.731
14.073000,-4.6625,-9.7299,0.3801,10.796
14.074000,-4.5526,-9.8150,0.4566,10.829
14.074000,-4.4442,-9.9201,0.5343,10.883
14.074000,-4.3396,-10.0405,0.6132,10.955
14.076000,-4.2006,-10.1738,0.6809,11.028
14.078000,-4.0729,-10.3058,0.7638,11.108
14.081000,-4.0067,-10.4388,0.8307,11.212
14.082000,-3.9830,-10.5677,0.8787,11.328
14.083000,-3.9993,-10.6734,0.9056,11.434
14.085000,-4.0414,-10.7673,0.9306,11.538
14.086000,-4.0710,-10.8326,0.9538,11.612
14.091000,-4.1097,-10.8811,0.9823,11.673
14.096000,-4.1216,-10.8910,0.9563,11.684
14.100000,-4.0851,-10.8505,0.8714,11.627
14.106000,-3.9738,-10.7883,0.7517,11.521
14.111000,-3.7782,-10.7479,0.6068,11.409
14.115000,-3.5267,-10.7414,0.4391,11.314
14.121000,-3.2720,-10.7594,0.2916,11.250
14.150000,-3.0522,-10.7668,0.1422,11.192
14.152000,-2.9172,-10.7465,-0.0208,11.135
14.152000,-2.8668,-10.6531,-0.1401,11.033
14.153000,-2.8888,-10.4439,-0.2135,10.838
14.153000,-2.9375,-10.1382,-0.2414,10.558
14.153000,-2.9722,-9.7836,-0.2264,10.228
14.156000,-2.9470,-9.4295,-0.1445,9.880
14.160000,-2.8380,-9.1088,0.0209,9.541
14.165000,-2.6665,-8.7910,0.2676,9.190
14.170000,-2.4228,-8.4596,0.5404,8.816
14.176000,-2.0830,-8.1215,0.8679,8.429
14.180000,-1.6372,-7.7812,1.1975,8.041
14.185000,-1.1405,-7.4460,1.4505,7.671
14.192000,-0.6430,-7.1407,1.6056,7.347
14.197000,-0.2091,-6.8373,1.6299,7.032
14.202000,0.1375,-6.5697,1.5384,6.749
14.207000,0.3779,-6.3686,1.3032,6.512
14.212000,0.5195,-6.2475,0.9303,6.338
14.215000,0.6462,-6.1696,0.4754,6.222
14.221000,0.7891,-6.1229,-0.0085,6.174
14.231000,0.9171,-6.1100,-0.4877,6.198
14.233000,1.0208,-6.0963,-0.9719,6.257
14.236000,1.1072,-6.0760,-1.4681,6.348
14.279000,1.1979,-6.0675,-1.9520,6.485
14.281000,1.3314,-6.0346,-2.3781,6.621
14.281000,1.4549,-5.9988,-2.7656,6.764
14.282000,1.5853,-5.9338,-3.0830,6.872
14.282000,1.6868,-5.8413,-3.2924,6.914
14.283000,1.7593,-5.7347,-3.4012,6.896
14.283000,1.8102,-5.6082,-3.4287,6.818
14.284000,1.8969,-5.4522,-3.3920,6.696
14.284000,2.0577,-5.2595,-3.3079,6.545
14.287000,2.2446,-5.0259,-3.1556,6.345
14.299000,2.5581,-4.5882,-2.7320,5.921
14.300000,2.5910,-4.4511,-2.7221,5.825
14.301000,2.7190,-4.1356,-2.4417,5.519
14.307000,2.7794,-3.8190,-2.1572,5.193
14.312000,2.7767,-3.5134,-1.8736,4.854
14.316000,2.7209,-3.2089,-1.5933,4.499
14.320000,2.6234,-2.9044,-1.3000,4.124
14.354000,2.4938,-2.6281,-0.9937,3.757
14.356000,2.3419,-2.3559,-0.6792,3.391
14.356000,2.2178,-2.0806,-0.3324,3.059
14.357000,2.1001,-1.7997,0.0446,2.766
14.357000,1.9913,-1.5006,0.4350,2.531
14.358000,1.8934,-1.2012,0.8102,2.384
14.358000,1.8282,-0.9033,1.1657,2.349
14.360000,1.8003,-0.6187,1.5250,2.439
14.366000,1.7905,-0.3140,1.9024,2.631
14.371000,1.8273,0.0131,2.2640,2.909
14.375000,1.8872,0.3799,2.6073,3.241
14.380000,1.9596,0.7946,2.9105,3.598
14.385000,2.0327,1.2286,3.1709,3.962
14.390000,2.1014,1.6769,3.3527,4.297
14.395000,2.1822,2.1129,3.4606,4.605
14.400000,2.2223,2.5100,3.4828,4.834
14.405000,2.2578,2.8592,3.4049,4.987
14.411000,2.3021,3.1735,3.2395,5.086
14.415000,2.3841,3.4486,3.0108,5.162
14.420000,2.4818,3.6985,2.7354,5.227
14.457000,2.6022,3.9374,2.4255,5.306
14.459000,2.6730,4.1697,2.0501,5.360
14.460000,2.6875,4.3290,1.5930,5.339
14.460000,2.6783,4.4311,1.0789,5.289
14.461000,2.6984,4.4956,0.5347,5.270
14.462000,2.7380,4.5488,0.0496,5.310
14.462000,2.7420,4.5741,-0.3787,5.346
14.463000,2.6726,4.5791,-0.7788,5.359
14.466000,2.5174,4.5110,-1.1768,5.298
14.470000,2.2940,4.3923,-1.5651,5.197
14.475000,2.0701,4.2262,-1.9127,5.080
14.482000,1.8555,4.0325,-2.2001,4.954
14.486000,1.6555,3.8477,-2.3988,4.827
14.491000,1.4875,3.6916,-2.5282,4.715
14.496000,1.3515,3.5427,-2.5955,4.595
14.501000,1.2886,3.4256,-2.6128,4.497
14.506000,1.3037,3.3451,-2.5901,4.427
14.511000,1.3751,3.2868,-2.5273,4.368
14.516000,1.5100,3.2505,-2.4201,4.325
14.521000,1.7083,3.2509,-2.2899,4.328
14.527000,1.9550,3.2680,-2.1419,4.369
14.531000,2.2214,3.3184,-1.9738,4.455
14.536000,2.5000,3.3948,-1.7952,4.582
14.581000,2.7665,3.4848,-1.5968,4.727
14.582000,3.0355,3.5693,-1.4335,4.900
14.582000,3.3107,3.6572,-1.2959,5.101
14.583000,3.6019,3.7245,-1.1836,5.315
14.583000,3.8587,3.7665,-1.0918,5.502
14.583000,4.0786,3.7829,-1.0276,5.657
14.584000,4.2758,3.7595,-0.9836,5.778
14.584000,4.4770,3.7085,-0.9570,5.892
14.585000,4.6222,3.6130,-0.9383,5.941
14.586000,4.7548,3.4756,-0.9128,5.960
14.594000,4.8775,3.2943,-0.8398,5.945
14.597000,5.0144,3.0981,-0.7504,5.942
14.602000,5.1828,2.9113,-0.6279,5.978
14.606000,5.3679,2.7384,-0.4895,6.046
14.611000,5.5844,2.5845,-0.3304,6.162
14.617000,5.8204,2.4591,-0.1316,6.320
14.622000,6.0927,2.3647,0.0895,6.536
14.626000,6.3582,2.3109,0.3162,6.772
14.631000,6.6265,2.2905,0.5460,7.032
14.637000,6.8996,2.3318,0.8021,7.327
14.645000,7.1748,2.4323,1.0387,7.647
14.648000,7.4402,2.5751,1.2390,7.970
14.651000,7.6977,2.7386,1.4290,8.294
14.656000,7.9567,2.9129,1.5872,8.621
14.696000,8.2222,3.1124,1.7401,8.962
14.697000,8.5457,3.3319,1.8965,9.366
14.697000,8.8958,3.5831,2.0589,9.809
14.697000,9.2386,3.8489,2.2101,10.249
14.698000,9.5805,4.1125,2.3188,10.681
14.698000,9.9048,4.3592,2.4186,11.089
14.699000,10.1841,4.5959,2.5496,11.460
14.699000,10.4016,4.8346,2.7067,11.785
14.702000,10.5450,5.0918,2.8727,12.057
14.707000,10.6236,5.3866,3.0396,12.293
14.711000,10.6299,5.7117,3.1952,12.483
14.717000,10.5472,6.0216,3.3344,12.594
14.721000,10.4158,6.3187,3.4304,12.656
14.726000,10.2479,6.5647,3.4834,12.659
14.732000,10.0770,6.7549,3.4885,12.623
14.736000,9.9054,6.8940,3.4388,12.549
14.745000,9.8766,6.9771,3.3296,12.542
14.747000,9.5864,7.0044,3.1640,12.287
14.751000,9.4345,6.9587,2.9616,12.092
14.756000,9.2342,6.8401,2.7419,11.814
14.790000,8.9764,6.6511,2.5247,11.454
14.791000,8.6830,6.4012,2.3125,11.033
14.792000,8.3807,6.1122,2.1009,10.583
14.792000,8.1186,5.7703,1.8740,10.135
14.793000,7.9733,5.3853,1.6487,9.762
14.793000,7.9571,4.9572,1.4779,9.491
14.794000,8.0388,4.5196,1.3662,9.323
14.796000,8.1393,4.0581,1.2296,9.178
14.801000,8.2203,3.6225,1.0325,9.042
14.806000,8.2900,3.2327,0.8189,8.936
14.812000,8.3673,2.8594,0.5987,8.863
14.817000,8.5215,2.5216,0.3244,8.893
14.822000,8.7739,2.2284,0.0233,9.052
14.826000,9.0900,1.9714,-0.2924,9.306
14.832000,9.4319,1.7483,-0.5881,9.611
14.836000,9.6907,1.5242,-0.8450,9.846
14.842000,9.8327,1.2863,-1.0387,9.971
14.846000,9.7888,1.0081,-1.1432,9.907
14.853000,9.5524,0.6990,-1.1658,9.649
14.857000,9.1452,0.3324,-1.0904,9.216
14.862000,8.5886,-0.0896,-0.9581,8.642
14.867000,7.9524,-0.5478,-0.8128,8.013
14.872000,7.3119,-1.0031,-0.6285,7.407
14.879000,6.7083,-1.4379,-0.4679,6.877
14.882000,6.1462,-1.8216,-0.2477,6.415
14.886000,5.6344,-2.1546,0.0149,6.032
14.927000,5.1172,-2.4353,0.2837,5.674
14.929000,4.5928,-2.6753,0.5922,5.348
14.930000,4.0948,-2.9030,0.8757,5.095
14.930000,3.6403,-3.1372,1.1275,4.936
14.931000,3.2625,-3.3973,1.3454,4.899
14.932000,2.9794,-3.6693,1.5078,4.961
14.933000,2.7400,-3.9035,1.6126,5.034
14.933000,2.5038,-4.0905,1.6407,5.069
14.934000,2.2848,-4.1969,1.5710,5.030
14.936000,2.0689,-4.2278,1.4307,4.919
14.942000,1.8434,-4.2082,1.2560,4.763
14.947000,1.5974,-4.1678,1.0763,4.591
14.952000,1.3158,-4.1172,0.9013,4.415
14.957000,1.0084,-4.0803,0.7503,4.270
14.962000,0.6848,-4.0499,0.6283,4.155
14.966000,0.3329,-4.0507,0.5618,4.103
14.973000,-0.0344,-4.0827,0.5556,4.120
15.015000,-0.4008,-4.1106,0.5853,4.171
15.016000,-0.7350,-4.1605,0.6603,4.276
15.017000,-1.0490,-4.2128,0.7445,4.405
15.017000,-1.2878,-4.2769,0.8544,4.548
15.017000,-1.4637,-4.3798,0.9635,4.717
15.018000,-1.6075,-4.4980,1.0759,4.896
15.018000,-1.7171,-4.6253,1.2108,5.080
15.019000,-1.8428,-4.7639,1.3587,5.286
15.019000,-1.9846,-4.9135,1.5027,5.508
15.023000,-2.0898,-5.1122,1.6216,5.756
15.028000,-2.1563,-5.3078,1.7104,5.979
15.032000,-2.1744,-5.5081,1.7239,6.168
15.037000,-2.1466,-5.6948,1.7005,6.319
15.042000,-2.1330,-5.8442,1.6334,6.432
15.047000,-2.1430,-5.9682,1.5226,6.522
15.051000,-2.1960,-6.0610,1.4042,6.598
15.057000,-2.3349,-6.1349,1.3039,6.692
15.063000,-2.5213,-6.2217,1.2124,6.822
15.068000,-2.7553,-6.3258,1.1129,6.989
15.073000,-3.0296,-6.4252,1.0006,7.174
15.077000,-3.3038,-6.5316,0.9037,7.375
15.082000,-3.5397,-6.6143,0.8317,7.548
15.086000,-3.7518,-6.7192,0.7645,7.734
15.112000,-3.9236,-6.8349,0.7166,7.914
15.114000,-4.0841,-6.9636,0.6850,8.102
15.114000,-4.2142,-7.0858,0.6767,8.272
15.115000,-4.3190,-7.2022,0.6533,8.423
15.116000,-4.3702,-7.3326,0.6161,8.558
15.116000,-4.3680,-7.5088,0.5437,8.704
15.122000,-4.3222,-7.7424,0.4694,8.880
15.127000,-4.2378,-7.9857,0.4073,9.050
15.132000,-4.1629,-8.2242,0.3332,9.224
15.138000,-4.0905,-8.4418,0.2853,9.385
15.143000,-4.0710,-8.6349,0.2466,9.550
15.147000,-4.0159,-8.8087,0.2410,9.684
15.152000,-4.0045,-8.9586,0.2495,9.816
15.159000,-4.0222,-9.1132,0.2912,9.966
15.162000,-4.0693,-9.2846,0.3664,10.144
15.167000,-4.1196,-9.4477,0.4581,10.317
15.172000,-4.1780,-9.5980,0.5499,10.482
15.178000,-4.2780,-9.7424,0.6421,10.660
15.189000,-4.3789,-9.8878,0.7326,10.839
15.189000,-4.5265,-10.0147,0.7928,11.019
15.194000,-4.6800,-10.1276,0.8156,11.186
15.197000,-4.8062,-10.2256,0.8328,11.329
15.203000,-4.9243,-10.3038,0.8515,11.452
15.224000,-5.0031,-10.3357,0.8505,11.514
15.226000,-5.0118,-10.3045,0.8208,11.488
15.228000,-4.9310,-10.1936,0.7985,11.352
15.228000,-4.8135,-10.0414,0.7720,11.162
15.229000,-4.6878,-9.8870,0.7581,10.968
15.232000,-4.5323,-9.7615,0.7496,10.788
15.237000,-4.2991,-9.6793,0.7394,10.617
15.243000,-3.9738,-9.6598,0.7111,10.469
15.248000,-3.6018,-9.7269,0.6454,10.392
15.253000,-3.2523,-9.8550,0.5160,10.391
15.258000,-2.9921,-9.9317,0.3396,10.378
15.262000,-2.8831,-9.8758,0.1252,10.289
15.268000,-2.9229,-9.6351,-0.0607,10.069
15.272000,-2.9962,-9.2411,-0.1563,9.716
15.277000,-3.0504,-8.7847,-0.1429,9.300
15.282000,-3.0110,-8.3343,-0.0086,8.862
15.286000,-2.8829,-7.9185,0.2130,8.430
15.296000,-2.6995,-7.5352,0.4905,8.019
15.297000,-2.4630,-7.2114,0.7927,7.662
15.305000,-2.1759,-6.9137,1.0883,7.329
15.306000,-1.8286,-6.6326,1.3486,7.011
15.334000,-1.4353,-6.3721,1.5806,6.720
15.335000,-0.9960,-6.1300,1.7943,6.464
15.335000,-0.5753,-5.9545,1.9846,6.303
15.335000,-0.1995,-5.8364,2.1398,6.219
15.336000,0.0885,-5.8085,2.1858,6.207
15.338000,0.2626,-5.8526,2.0849,6.218
15.343000,0.3397,-5.9292,1.8068,6.208
15.347000,0.4326,-6.0117,1.3808,6.183
15.353000,0.5603,-6.0713,0.8677,6.159
15.358000,0.7087,-6.0941,0.3208,6.144
15.362000,0.8635,-6.0940,-0.1949,6.158
15.367000,0.9720,-6.0917,-0.6789,6.206
15.374000,1.0703,-6.0722,-1.1357,6.269
15.378000,1.1464,-6.0282,-1.5341,6.325
15.383000,1.2076,-5.9625,-1.8714,6.365
15.388000,1.2539,-5.8821,-2.1142,6.375
15.395000,1.2856,-5.7982,-2.2552,6.353
15.398000,1.2905,-5.7123,-2.2899,6.288
15.402000,1.2879,-5.6256,-2.2354,6.189
15.431000,1.2780,-5.5285,-2.1279,6.060
15.433000,1.2917,-5.4138,-1.9750,5.906
15.433000,1.3246,-5.2595,-1.7626,5.703
15.434000,1.3641,-5.0981,-1.4941,5.485
15.434000,1.4080,-4.9269,-1.1941,5.261
15.435000,1.4107,-4.7508,-0.8803,5.033
15.438000,1.3768,-4.5436,-0.5657,4.781
15.442000,1.2779,-4.3385,-0.2723,4.531
15.449000,1.1715,-4.1109,0.0024,4.275
15.454000,1.0741,-3.8455,0.2772,4.002
15.459000,1.0024,-3.5777,0.5594,3.757
15.463000,0.9663,-3.3048,0.8250,3.541
15.468000,0.9727,-3.0080,1.0956,3.346
15.477000,0.9883,-2.6822,1.3567,3.164
15.478000,0.9838,-2.3386,1.6036,3.001
15.484000,0.9928,-1.9862,1.8459,2.888
15.489000,1.0059,-1.6131,2.0599,2.803
15.495000,1.0517,-1.2219,2.2315,2.753
15.498000,1.1230,-0.8199,2.3538,2.734
15.503000,1.2342,-0.3996,2.4269,2.752
15.518000,1.3844,0.0156,2.4607,2.823
15.521000,1.5450,0.4477,2.4577,2.937
15.522000,1.6941,0.8960,2.4087,3.078
15.524000,1.8243,1.3316,2.3139,3.233
15.566000,1.9427,1.7637,2.1475,3.391
15.568000,2.0231,2.1663,1.9339,3.539
15.568000,2.0548,2.5498,1.7024,3.691
15.569000,2.0214,2.8886,1.4483,3.812
15.569000,1.9445,3.1660,1.1791,3.898
15.570000,1.8625,3.3774,0.8927,3.959
15.570000,1.8211,3.5477,0.5941,4.032
15.570000,1.8196,3.6880,0.2741,4.122
15.570000,1.8225,3.8155,-0.0241,4.229
15.574000,1.8058,3.9256,-0.2811,4.330
15.578000,1.8029,4.0112,-0.4826,4.424
15.584000,1.8236,4.0677,-0.6404,4.504
15.589000,1.8729,4.0886,-0.7186,4.554
15.596000,1.8977,4.1116,-0.7130,4.584
15.599000,1.9269,4.1110,-0.6502,4.586
15.603000,1.9608,4.1133,-0.5523,4.590
15.611000,1.9944,4.1138,-0.4317,4.592
15.614000,2.0423,4.1296,-0.3127,4.618
15.617000,2.1406,4.1325,-0.1621,4.657
15.623000,2.2527,4.1338,-0.0092,4.708
15.657000,2.3958,4.1316,0.1313,4.778
15.658000,2.5408,4.1402,0.2425,4.864
15.658000,2.7095,4.1502,0.3050,4.966
15.659000,2.8782,4.1667,0.3385,5.075
15.659000,3.0628,4.1985,0.3595,5.209
15.659000,3.2614,4.2435,0.3729,5.365
15.660000,3.4641,4.2921,0.3862,5.529
15.666000,3.6998,4.3276,0.3850,5.707
15.670000,3.9707,4.3857,0.3648,5.927
15.675000,4.2769,4.4737,0.3761,6.201
15.679000,4.5745,4.5573,0.3757,6.468
15.685000,4.8707,4.6487,0.3614,6.743
15.690000,5.1442,4.7168,0.3381,6.988
15.694000,5.4092,4.7617,0.3395,7.214
15.699000,5.6780,4.7859,0.3870,7.436
15.704000,5.9593,4.8178,0.4707,7.678
15.709000,6.2392,4.8647,0.5423,7.930
15.714000,6.4957,4.9338,0.5945,8.179
15.718000,6.7790,5.0058,0.6128,8.449
15.727000,7.0939,5.0474,0.5758,8.725
15.729000,7.4346,5.0483,0.4881,9.000
15.734000,7.7749,4.9704,0.3811,9.236
15.738000,8.0976,4.8303,0.2429,9.432
15.775000,8.3739,4.6399,0.1382,9.574
15.776000,8.6372,4.4206,0.0479,9.703
15.776000,8.8660,4.1440,-0.0089,9.787
15.777000,9.0026,3.8386,0.0033,9.787
15.777000,9.0739,3.5287,0.0794,9.736
15.777000,9.0682,3.2459,0.1903,9.633
15.778000,9.0191,2.9879,0.3501,9.508
15.779000,8.9345,2.7598,0.5368,9.366
15.784000,8.8791,2.5788,0.7431,9.276
15.789000,8.9011,2.4714,0.9446,9.286
15.794000,9.0075,2.4496,1.1219,9.402
15.800000,9.1212,2.4987,1.2508,9.540
15.803000,9.1895,2.6496,1.3216,9.655
15.809000,9.1333,2.8445,1.2891,9.652
15.815000,8.9907,3.0234,1.1918,9.560
15.818000,8.8410,3.1457,1.0803,9.446
15.825000,8.7251,3.1901,1.0171,9.345
15.830000,8.6071,3.2164,1.0117,9.244
15.835000,8.4152,3.3229,1.0659,9.110
15.840000,8.1015,3.5522,1.1194,8.917
15.851000,7.7478,3.8758,1.1653,8.741
15.853000,7.4044,4.2220,1.2297,8.612
15.905000,7.0785,4.5308,1.3006,8.504
15.906000,6.7919,4.7428,1.3610,8.395
15.907000,6.5278,4.8701,1.3941,8.263
15.908000,6.2726,4.8772,1.3909,8.066
15.908000,5.9955,4.7551,1.3229,7.766
15.909000,5.6544,4.4854,1.1666,7.311
15.909000,5.3030,4.2077,0.8321,6.820
15.910000,5.0567,4.0273,0.3710,6.475
15.911000,4.8960,3.8983,-0.1246,6.260
15.912000,4.9070,3.8084,-0.5698,6.238
15.912000,5.1270,3.7045,-0.8471,6.382
15.913000,5.5096,3.5428,-1.0022,6.627
