time,ax,ay,az,aT
0.003000,-0.5223,0.2305,-1.6028,1.701
0.004000,-0.3985,0.3169,-1.3542,1.447
0.004000,-0.2766,0.4016,-1.0398,1.148
0.005000,-0.1617,0.4547,-0.7143,0.862
0.013000,-0.0566,0.4847,-0.3894,0.624
0.015000,0.0389,0.4743,-0.0913,0.485
0.022000,0.1228,0.4491,0.1637,0.494
0.025000,0.2072,0.4134,0.3732,0.594
0.030000,0.2615,0.3789,0.5159,0.691
0.044000,0.3005,0.3430,0.5944,0.749
0.045000,0.3143,0.3200,0.6063,0.754
0.045000,0.2986,0.3078,0.5278,0.680
0.050000,0.2626,0.2827,0.4114,0.564
0.055000,0.2204,0.2597,0.3025,0.456
0.061000,0.1866,0.2435,0.1986,0.365
0.066000,0.1515,0.2274,0.0471,0.277
0.072000,0.1150,0.2164,-0.1282,0.277
0.076000,0.0818,0.1944,-0.2986,0.366
0.081000,0.0563,0.1855,-0.4381,0.479
0.089000,0.0381,0.1946,-0.5202,0.557
0.090000,0.0244,0.2168,-0.5524,0.594
0.096000,0.0250,0.2449,-0.5394,0.593
0.100000,0.0349,0.2500,-0.4812,0.543
0.105000,0.0448,0.2678,-0.4281,0.507
0.111000,0.0621,0.2860,-0.3727,0.474
0.115000,0.0817,0.2855,-0.2840,0.411
0.121000,0.0702,0.2562,-0.2097,0.338
0.126000,0.0636,0.2030,-0.1451,0.257
0.131000,0.0621,0.1687,-0.1020,0.207
0.135000,0.0390,0.1389,-0.1114,0.182
0.141000,-0.0179,0.1040,-0.0944,0.142
0.146000,-0.0799,0.0591,-0.0821,0.129
0.150000,-0.1398,0.0137,-0.0912,0.168
0.165000,-0.1928,-0.0250,-0.1002,0.219
0.166000,-0.2389,-0.0763,-0.1138,0.275
0.166000,-0.2784,-0.1159,-0.1368,0.331
0.172000,-0.3373,-0.1297,-0.1955,0.411
0.182000,-0.3658,-0.1389,-0.2159,0.447
0.182000,-0.3685,-0.1483,-0.2290,0.458
0.185000,-0.3550,-0.1315,-0.2397,0.448
0.193000,-0.3493,-0.1269,-0.2336,0.439
0.197000,-0.3514,-0.1103,-0.2585,0.450
0.201000,-0.3444,-0.0983,-0.2692,0.448
0.206000,-0.3234,-0.0623,-0.2894,0.438
0.211000,-0.2931,-0.0380,-0.2953,0.418
0.216000,-0.2633,-0.0230,-0.2773,0.383
0.222000,-0.2458,0.0017,-0.2761,0.370
0.226000,-0.2240,0.0122,-0.2630,0.346
0.231000,-0.2148,0.0276,-0.2834,0.357
0.239000,-0.1993,0.0313,-0.3061,0.367
0.240000,-0.2062,0.0159,-0.3456,0.403
0.246000,-0.2284,0.0056,-0.3994,0.460
0.251000,-0.2514,-0.0140,-0.4485,0.514
0.257000,-0.2703,-0.0283,-0.4760,0.548
0.261000,-0.2803,-0.0230,-0.4796,0.556
0.266000,-0.2905,-0.0004,-0.4259,0.516
0.281000,-0.2700,0.0538,-0.3508,0.446
0.283000,-0.2445,0.1083,-0.2519,0.367
0.283000,-0.1972,0.1510,-0.1819,0.308
0.287000,-0.0996,0.2129,-0.1669,0.288
0.291000,-0.0814,0.2387,-0.1160,0.278
0.297000,-0.1514,0.2214,-0.0508,0.273
0.302000,-0.2198,0.2119,-0.1101,0.324
0.314000,-0.1985,0.1939,-0.2484,0.372
0.315000,-0.1535,0.1605,-0.3462,0.411
0.318000,-0.1472,0.1733,-0.3291,0.400
0.323000,-0.1843,0.1987,-0.2955,0.401
0.326000,-0.2191,0.2412,-0.2858,0.433
0.331000,-0.2070,0.3320,-0.3120,0.500
0.337000,-0.2569,0.3797,-0.2353,0.515
0.341000,-0.3417,0.3888,-0.1059,0.528
0.346000,-0.3935,0.3623,-0.0722,0.540
0.351000,-0.3856,0.3169,-0.1055,0.510
0.364000,-0.3094,0.2865,-0.1101,0.436
0.365000,-0.2273,0.3043,-0.0882,0.390
0.366000,-0.1990,0.3413,-0.0257,0.396
0.372000,-0.2263,0.3782,0.0417,0.443
0.380000,-0.3045,0.3891,0.0732,0.499
0.381000,-0.3925,0.3713,0.0785,0.546
0.388000,-0.4691,0.3205,0.1198,0.581
0.391000,-0.5148,0.3010,0.2423,0.644
0.396000,-0.5050,0.2983,0.4438,0.735
0.401000,-0.4631,0.3070,0.6499,0.855
0.406000,-0.3815,0.3026,0.7962,0.933
0.412000,-0.2916,0.2778,0.8828,0.970
0.416000,-0.3155,0.2061,0.9576,1.029
0.421000,-0.1034,0.1429,1.0038,1.019
0.426000,-0.0092,0.0929,1.0094,1.014
0.431000,0.0584,0.0587,1.0127,1.016
0.436000,0.1072,0.0404,1.0016,1.008
0.442000,0.1253,0.0213,0.9427,0.951
0.448000,0.1054,-0.0100,0.8335,0.840
0.453000,0.0637,-0.0293,0.6979,0.701
0.470000,0.0286,-0.0385,0.5743,0.576
0.472000,0.0069,-0.0519,0.4888,0.492
0.473000,-0.0061,-0.0715,0.4581,0.464
0.473000,-0.0128,-0.0884,0.4584,0.467
0.476000,-0.0207,-0.0954,0.4753,0.485
0.482000,-0.0323,-0.0953,0.4873,0.498
0.488000,-0.0552,-0.0999,0.5136,0.526
0.516000,-0.0751,-0.1117,0.5350,0.552
0.518000,-0.1063,-0.1261,0.5421,0.567
0.518000,-0.1133,-0.1480,0.5277,0.560
0.518000,-0.1225,-0.1656,0.5253,0.564
0.519000,-0.1340,-0.1789,0.5135,0.560
0.525000,-0.1335,-0.2000,0.5353,0.587
0.526000,-0.1118,-0.2147,0.5572,0.607
0.528000,-0.0810,-0.2304,0.5817,0.631
0.531000,-0.0505,-0.2307,0.6255,0.669
0.539000,-0.0182,-0.2398,0.6314,0.676
0.541000,0.0110,-0.2362,0.6112,0.655
0.548000,0.0344,-0.2342,0.5700,0.617
0.551000,0.0640,-0.2341,0.5459,0.597
0.557000,0.0855,-0.2190,0.5247,0.575
0.562000,0.0920,-0.2561,0.4918,0.562
0.567000,0.0911,-0.3066,0.4522,0.554
0.581000,0.0779,-0.3540,0.4105,0.548
0.582000,0.0689,-0.4054,0.4266,0.593
0.583000,0.0542,-0.4607,0.4575,0.651
0.588000,0.0294,-0.5130,0.5054,0.721
0.592000,-0.0005,-0.5744,0.5321,0.783
0.597000,-0.0208,-0.6046,0.5067,0.789
0.602000,-0.0290,-0.6297,0.3813,0.737
0.613000,-0.0376,-0.6495,0.1847,0.676
0.614000,-0.0731,-0.6275,-0.0662,0.635
0.617000,-0.0927,-0.5846,-0.3764,0.701
0.623000,-0.1110,-0.5109,-0.7075,0.880
0.627000,-0.1427,-0.4197,-1.0261,1.118
0.633000,-0.1784,-0.3156,-1.3228,1.372
0.637000,-0.2349,-0.1976,-1.5620,1.592
0.642000,-0.2551,-0.0872,-1.7316,1.752
0.647000,-0.2578,0.0063,-1.8033,1.822
0.654000,-0.2356,0.0757,-1.7914,1.808
0.657000,-0.1927,0.1184,-1.7272,1.742
0.662000,-0.1427,0.1583,-1.6181,1.632
0.667000,-0.0708,0.1736,-1.4544,1.466
0.672000,0.0065,0.1783,-1.2650,1.277
0.678000,0.0897,0.1839,-1.0809,1.100
0.682000,0.1622,0.1686,-0.9474,0.976
0.700000,0.2000,0.1225,-0.8598,0.891
0.701000,0.2102,0.0624,-0.8106,0.840
0.702000,0.1997,0.0120,-0.8286,0.852
0.702000,0.1680,-0.0378,-0.8778,0.894
0.707000,0.1410,-0.0703,-0.9389,0.952
0.713000,0.1233,-0.0757,-1.0097,1.020
0.717000,0.1075,-0.0612,-1.0947,1.102
0.728000,0.0888,-0.0407,-1.1584,1.162
0.729000,0.0839,-0.0235,-1.2054,1.209
0.733000,0.1024,0.0026,-1.2383,1.243
0.738000,0.1495,0.0163,-1.2501,1.259
0.742000,0.2085,0.0558,-1.2335,1.252
0.747000,0.2771,0.1042,-1.1958,1.232
0.754000,0.3506,0.1448,-1.1202,1.183
0.757000,0.4149,0.1750,-1.0021,1.099
0.763000,0.4751,0.2111,-0.8869,1.028
0.767000,0.5121,0.2388,-0.7745,0.959
0.773000,0.5308,0.2578,-0.7008,0.916
0.777000,0.5477,0.2537,-0.6632,0.897
0.782000,0.5289,0.2338,-0.6426,0.865
0.800000,0.4865,0.1886,-0.6151,0.807
0.802000,0.3896,0.1015,-0.5377,0.672
0.802000,0.3078,0.0085,-0.4271,0.526
0.803000,0.2628,-0.0885,-0.3168,0.421
0.807000,0.2282,-0.1634,-0.1854,0.336
0.812000,0.2062,-0.2212,-0.0494,0.306
0.817000,0.1632,-0.2599,0.0816,0.318
0.831000,0.1468,-0.2773,0.2078,0.376
0.833000,0.1572,-0.2545,0.3506,0.461
0.833000,0.1728,-0.2444,0.4934,0.577
0.841000,0.1771,-0.2232,0.6097,0.673
0.843000,0.1966,-0.2055,0.7069,0.762
0.847000,0.1933,-0.1891,0.7682,0.814
0.855000,0.1886,-0.1692,0.7840,0.824
0.858000,0.2016,-0.1434,0.7737,0.812
0.862000,0.2035,-0.1042,0.7179,0.753
0.867000,0.2013,-0.0683,0.6647,0.698
0.873000,0.1998,-0.0282,0.5877,0.621
0.877000,0.2036,0.0093,0.4844,0.525
0.882000,0.1840,0.0495,0.3595,0.407
0.894000,0.1625,0.0904,0.2179,0.286
0.895000,0.1513,0.1300,0.0715,0.212
0.899000,0.1406,0.1471,-0.0632,0.213
0.913000,0.1710,0.1660,-0.1884,0.304
0.914000,0.3400,0.2465,-0.2994,0.516
0.914000,0.2599,0.2119,-0.2287,0.406
0.918000,0.0873,0.1166,-0.1011,0.177
0.923000,-0.0643,0.0275,0.0308,0.076
0.929000,-0.1516,-0.0559,0.1957,0.254
0.932000,-0.2345,-0.1416,0.4175,0.499
0.938000,-0.2696,-0.2062,0.6532,0.736
0.943000,-0.2863,-0.2390,0.8553,0.933
0.949000,-0.3045,-0.2621,1.0335,1.109
0.952000,-0.3297,-0.2688,1.1879,1.262
0.958000,-0.3142,-0.2427,1.2350,1.297
0.963000,-0.1773,-0.1932,1.1080,1.139
0.969000,0.0609,-0.1701,0.8957,0.914
0.973000,0.3596,-0.1389,0.6099,0.722
0.978000,0.7494,-0.1180,0.3319,0.828
0.982000,0.8147,-0.0968,0.2721,0.864
0.990000,0.7524,-0.0368,0.2622,0.798
0.992000,0.7298,0.0866,0.2326,0.771
0.998000,0.7628,0.2330,0.1567,0.813
1.011000,0.8036,0.3526,0.0251,0.878
1.013000,0.8395,0.4288,-0.0929,0.947
1.013000,0.8746,0.4689,-0.2018,1.013
1.018000,0.9479,0.5128,-0.2367,1.103
1.034000,1.1087,0.5455,-0.2597,1.263
1.035000,1.2815,0.5423,-0.3208,1.428
1.036000,1.4361,0.4953,-0.4196,1.576
1.042000,1.5687,0.3849,-0.5656,1.711
1.043000,1.6175,0.0844,-1.0693,1.941
1.049000,1.2063,-0.0548,-1.3201,1.789
1.053000,0.7469,0.0210,-1.0959,1.326
1.058000,0.5728,0.0148,-0.7541,0.947
1.062000,0.5123,-0.1130,-0.6321,0.821
1.073000,0.3657,-0.3254,-0.8346,0.968
1.074000,0.1614,-0.4855,-0.8922,1.028
1.078000,0.0488,-0.4915,-0.5201,0.717
1.083000,0.0409,-0.3522,0.2547,0.437
1.088000,0.0881,-0.1628,1.1470,1.162
1.093000,0.1888,0.0728,1.9722,1.983
1.099000,0.3570,0.3029,2.7711,2.810
1.115000,0.7478,0.4884,3.6081,3.717
1.116000,1.2587,0.5335,4.2689,4.482
1.117000,1.7088,0.3565,4.1707,4.521
1.118000,2.2136,0.0317,3.8239,4.419
1.138000,2.6998,-0.3879,3.2481,4.241
1.140000,3.0188,-0.8197,2.1607,3.802
1.141000,3.1568,-1.1534,0.7230,3.438
1.142000,3.0938,-1.3730,-0.5546,3.430
1.143000,2.7870,-1.4346,-1.4586,3.457
1.148000,2.1749,-1.4086,-2.2563,3.436
1.155000,1.2600,-1.3634,-3.2554,3.748
1.158000,0.2914,-1.2473,-4.2925,4.480
1.163000,-0.5329,-1.0640,-5.1856,5.320
1.168000,-1.1726,-0.8913,-5.9282,6.108
1.172000,-1.5954,-0.7621,-6.5017,6.738
1.179000,-1.8772,-0.6662,-6.8950,7.177
1.184000,-2.0105,-0.5795,-7.1300,7.431
1.188000,-1.9689,-0.4761,-7.1759,7.456
1.193000,-1.7588,-0.3662,-7.0187,7.245
1.199000,-1.3807,-0.2689,-6.7420,6.887
1.204000,-0.8640,-0.2462,-6.3746,6.438
1.209000,-0.5305,-0.6598,-6.0286,6.088
1.213000,0.1599,-0.8069,-5.7183,5.777
1.217000,0.9323,-0.7463,-5.3308,5.463
1.223000,1.6772,-0.4882,-4.9046,5.206
1.229000,2.2558,-0.1693,-4.3150,4.872
1.233000,2.6494,0.1241,-3.7100,4.561
1.239000,2.9202,0.3402,-3.2021,4.347
1.243000,3.0861,0.4632,-2.8031,4.195
1.249000,3.3500,0.5166,-1.8940,3.883
1.253000,3.3787,0.7543,2.7482,4.420
1.258000,2.3080,0.9182,2.8842,3.806
1.263000,2.0918,0.7726,1.8219,2.880
1.272000,2.8493,0.4358,2.4805,3.803
1.276000,3.8594,0.1680,2.6335,4.675
1.278000,4.5028,0.0739,1.7746,4.840
1.283000,4.6904,0.0145,1.1734,4.835
1.289000,4.5557,-0.1294,1.3916,4.765
1.293000,4.2892,-0.4177,2.3240,4.896
1.299000,3.7555,-0.7787,3.1657,4.973
1.305000,3.1453,-0.8912,1.6636,3.668
1.308000,3.2599,-0.7957,-0.6621,3.420
1.314000,3.5247,-0.7211,-2.1216,4.177
1.319000,3.6775,-0.6968,-2.9042,4.738
1.324000,3.7326,-0.7389,-3.3944,5.099
1.329000,3.7554,-0.7692,-4.0183,5.553
1.333000,3.8380,-0.6678,-4.9557,6.304
1.347000,3.9154,-0.4985,-5.8656,7.070
1.354000,4.0334,-0.3057,-6.4805,7.639
1.355000,4.1474,-0.1722,-6.9006,8.053
1.357000,4.1480,-0.1559,-7.2087,8.318
1.358000,4.0468,-0.2438,-7.5571,8.576
1.364000,3.9333,-0.3842,-7.9140,8.846
1.369000,3.8935,-0.5137,-8.3601,9.237
1.380000,3.9442,-0.6149,-8.7973,9.661
1.382000,4.0881,-0.6957,-9.1696,10.064
1.384000,4.3502,-0.7651,-9.4239,10.408
1.393000,4.6557,-0.8199,-9.6525,10.748
1.395000,4.9749,-0.8911,-9.8140,11.039
1.400000,5.2978,-0.9785,-9.9356,11.302
1.405000,5.5845,-1.1017,-10.0063,11.512
1.409000,5.8428,-1.2642,-9.9980,11.649
1.414000,6.0883,-1.4883,-9.8757,11.697
1.419000,6.2785,-1.7563,-9.6063,11.610
1.423000,6.3651,-2.0909,-9.2647,11.433
1.430000,6.3481,-2.4377,-8.8487,11.160
1.434000,6.2725,-2.8076,-8.3934,10.848
1.440000,6.1366,-3.2246,-8.0048,10.589
1.444000,5.9569,-3.6908,-7.7269,10.431
1.449000,5.7454,-4.2031,-7.5108,10.348
1.456000,5.5070,-4.7317,-7.2829,10.284
1.459000,5.2563,-5.2719,-6.9679,10.197
1.464000,4.9989,-5.7915,-6.6176,10.115
1.469000,4.6969,-6.3260,-6.2370,10.049
1.483000,4.3698,-6.9037,-5.8410,10.044
1.485000,4.0442,-7.5380,-5.4073,10.120
1.486000,3.7198,-8.1822,-4.8896,10.232
1.492000,3.4108,-8.8122,-4.3025,10.383
1.494000,3.0861,-9.3829,-3.6549,10.532
1.499000,2.7574,-9.8408,-2.9993,10.651
1.505000,2.4268,-10.1709,-2.4456,10.739
1.509000,2.1047,-10.3838,-2.0139,10.785
1.514000,1.8630,-10.5056,-1.6491,10.796
1.519000,1.7981,-10.5840,-1.2968,10.814
1.524000,1.8315,-10.6937,-0.9151,10.888
1.529000,1.9226,-10.8462,-0.4313,11.024
1.533000,2.0933,-11.0301,0.1815,11.228
1.544000,2.3480,-11.1930,0.9374,11.475
1.546000,2.6842,-11.2749,1.7997,11.729
1.549000,3.0440,-11.2352,2.7991,11.972
1.569000,3.4143,-11.0560,3.8631,12.199
1.571000,3.7344,-10.7370,4.9246,12.389
1.572000,3.9232,-10.2908,5.9578,12.521
1.574000,3.9505,-9.7446,6.9707,12.616
1.577000,3.8463,-9.1558,7.9378,12.713
1.578000,3.6481,-8.6230,8.7775,12.834
1.583000,3.3765,-8.1680,9.4669,12.951
1.589000,3.0979,-7.8022,9.9552,13.022
1.596000,2.8593,-7.5336,10.1591,12.967
1.600000,2.6979,-7.3489,10.0852,12.767
1.605000,2.5748,-7.2272,9.8310,12.470
1.609000,2.5138,-7.1148,9.5616,12.180
1.614000,2.5455,-7.0132,9.2908,11.916
1.619000,2.6376,-6.9224,9.0555,11.699
1.624000,2.7674,-6.8335,8.8617,11.528
1.629000,2.9208,-6.7098,8.7092,11.376
1.635000,3.1217,-6.5418,8.5928,11.242
1.639000,3.3604,-6.3051,8.5407,11.135
1.644000,3.6245,-6.0051,8.5321,11.045
1.649000,3.9273,-5.6305,8.5102,10.934
1.656000,4.2225,-5.2418,8.4281,10.786
1.659000,4.5081,-4.8939,8.2726,10.616
1.664000,4.7720,-4.5767,8.0631,10.427
1.669000,5.0484,-4.2822,7.8606,10.277
1.679000,5.3149,-3.9919,7.6488,10.133
1.680000,5.4110,-3.6530,7.4592,9.913
1.684000,5.5005,-3.4275,7.3038,9.765
1.707000,5.7606,-3.2710,6.9531,9.604
1.709000,6.0102,-3.2119,6.5142,9.427
1.710000,6.2797,-3.1927,6.0737,9.302
1.710000,6.4995,-3.1874,5.6442,9.179
1.711000,6.6415,-3.1834,5.2399,9.039
1.714000,6.7591,-3.2055,4.8421,8.911
1.720000,6.7865,-3.2289,4.4484,8.733
1.725000,6.7768,-3.2485,4.0564,8.540
1.729000,6.7022,-3.2807,3.6547,8.309
1.734000,6.6360,-3.3535,3.2073,8.098
1.739000,6.5650,-3.4102,2.7392,7.889
1.745000,6.5480,-3.4479,2.2770,7.743
1.749000,6.5636,-3.4167,1.7973,7.615
1.759000,6.6332,-3.2927,1.3343,7.525
1.761000,6.7552,-3.1000,0.9170,7.489
1.765000,6.9437,-2.8396,0.5084,7.519
1.769000,7.1896,-2.5355,0.1495,7.625
1.783000,7.4801,-2.2117,-0.1570,7.802
1.785000,7.8143,-1.8899,-0.4036,8.050
1.786000,8.1851,-1.5773,-0.5980,8.357
1.794000,8.5676,-1.2528,-0.7417,8.690
1.796000,8.9215,-0.9258,-0.8041,9.005
1.800000,9.2363,-0.5936,-0.8095,9.291
1.806000,9.5425,-0.2801,-0.8036,9.580
1.809000,9.7895,0.0460,-0.7870,9.821
1.814000,10.0038,0.3493,-0.7437,10.038
1.822000,10.2028,0.6344,-0.6874,10.246
1.824000,10.3581,0.9065,-0.6430,10.418
1.829000,10.4862,1.1323,-0.6344,10.566
1.834000,10.5892,1.3073,-0.6807,10.691
1.839000,10.6579,1.4294,-0.7320,10.778
1.845000,10.6744,1.5201,-0.7942,10.811
1.849000,10.6464,1.5964,-0.8965,10.803
1.856000,10.5551,1.6586,-1.0431,10.735
1.859000,10.4177,1.7283,-1.2217,10.631
1.864000,10.2636,1.7984,-1.4154,10.516
1.870000,10.1403,1.8979,-1.6275,10.444
1.874000,10.0361,2.0291,-1.8580,10.406
1.879000,9.9462,2.1897,-2.1396,10.407
1.885000,9.8277,2.3081,-2.4408,10.386
1.893000,9.6759,2.3391,-2.7423,10.325
1.895000,9.5176,2.3045,-3.0497,10.257
1.899000,9.3388,2.2211,-3.4131,10.188
1.920000,9.1425,2.1157,-3.7529,10.107
1.922000,8.9077,1.9645,-4.1304,10.013
1.923000,8.5990,1.8226,-4.5121,9.880
1.924000,8.2747,1.7121,-4.8271,9.732
1.930000,7.9665,1.6065,-5.1498,9.621
1.932000,7.6360,1.5038,-5.4297,9.489
1.935000,7.3099,1.3847,-5.6547,9.345
1.941000,6.9526,1.2399,-5.8111,9.146
1.945000,6.6149,1.0598,-5.9059,8.931
1.950000,6.2826,0.8230,-5.9138,8.667
1.955000,5.9511,0.5485,-5.8333,8.351
1.959000,5.6542,0.2506,-5.6366,7.988
1.965000,5.3486,-0.0231,-5.3682,7.578
1.972000,4.9969,-0.2223,-5.0719,7.123
1.975000,4.6470,-0.3857,-4.7679,6.669
1.980000,4.3110,-0.4846,-4.4761,6.233
1.985000,4.0152,-0.5385,-4.2308,5.858
1.995000,3.8000,-0.5739,-4.0396,5.576
1.997000,3.6681,-0.6145,-3.8976,5.387
2.000000,3.6234,-0.6535,-3.8095,5.298
2.022000,3.5816,-0.6908,-3.7533,5.234
2.023000,3.4848,-0.7456,-3.7620,5.182
2.024000,3.3063,-0.7988,-3.8061,5.105
2.024000,3.0207,-0.8502,-3.8728,4.985
2.025000,2.6426,-0.8709,-3.9496,4.831
2.030000,2.2112,-0.8608,-4.0073,4.657
2.035000,1.7510,-0.8436,-4.0433,4.486
2.045000,1.2912,-0.8337,-4.0814,4.361
2.046000,0.8810,-0.8186,-4.1188,4.291
2.050000,0.5993,-0.8031,-4.1768,4.295
2.066000,0.4700,-0.7751,-4.2573,4.353
2.070000,0.4950,-0.7179,-4.3719,4.458
2.070000,0.6943,-0.6363,-4.5124,4.610
2.083000,1.0103,-0.5496,-4.6257,4.767
2.085000,1.3743,-0.4939,-4.6968,4.919
2.086000,1.6898,-0.5029,-4.6822,5.003
2.086000,1.9758,-0.5408,-4.5556,4.995
2.098000,2.2075,-0.6368,-4.3745,4.941
2.100000,2.3953,-0.7596,-4.1324,4.836
2.100000,2.5245,-0.9072,-3.8863,4.722
2.105000,2.5930,-1.0893,-3.6125,4.578
2.112000,2.5893,-1.3106,-3.2346,4.346
2.114000,2.5430,-1.5234,-2.7865,4.068
2.133000,2.4543,-1.7301,-2.2755,3.768
2.136000,2.3799,-1.9019,-1.7870,3.532
2.137000,2.3435,-2.0582,-1.3544,3.400
2.138000,2.3575,-2.1846,-0.9417,3.349
2.140000,2.3955,-2.2909,-0.5564,3.361
2.146000,2.4426,-2.3798,-0.1506,3.414
2.150000,2.4571,-2.4679,0.2717,3.493
2.155000,2.4556,-2.5648,0.6865,3.616
2.160000,2.4623,-2.6513,1.1053,3.783
2.165000,2.4297,-2.7513,1.4841,3.959
2.172000,2.3507,-2.8625,1.8544,4.142
2.176000,2.2603,-2.9482,2.2023,4.319
2.180000,2.1775,-2.9774,2.4994,4.456
2.187000,2.0857,-2.9739,2.7337,4.546
2.192000,2.0541,-2.9377,2.9052,4.614
2.195000,2.0510,-2.8835,3.0025,4.641
2.200000,2.0602,-2.8014,3.0867,4.650
2.205000,2.1048,-2.6630,3.1991,4.664
2.210000,2.1937,-2.5093,3.3370,4.716
2.215000,2.3001,-2.3788,3.5336,4.841
2.226000,2.3606,-2.2865,3.7390,4.978
2.229000,2.3255,-2.2247,3.9272,5.077
2.229000,2.2229,-2.1506,4.0918,5.129
2.236000,2.0389,-2.0737,4.2785,5.173
2.250000,1.7837,-1.9866,4.4683,5.205
2.252000,1.5552,-1.9036,4.6804,5.287
2.253000,1.3783,-1.8574,4.8941,5.413
2.259000,1.2139,-1.8626,5.1002,5.564
2.261000,1.0379,-1.8809,5.2791,5.699
2.266000,0.8575,-1.9169,5.4428,5.834
2.272000,0.6510,-1.9301,5.5823,5.942
2.276000,0.3931,-1.9627,5.6680,6.011
2.280000,0.1027,-1.9812,5.6930,6.029
2.286000,-0.2006,-2.0022,5.6766,6.023
2.291000,-0.5118,-2.0133,5.6333,6.004
2.296000,-0.7931,-2.0317,5.5781,5.989
2.300000,-1.0364,-2.0420,5.5054,5.963
2.311000,-1.2301,-2.0542,5.4349,5.939
2.313000,-1.3865,-2.0635,5.3500,5.899
2.316000,-1.5058,-2.0723,5.2891,5.877
2.336000,-1.5956,-2.0762,5.2476,5.865
2.338000,-1.6723,-2.0556,5.2104,5.846
2.339000,-1.7438,-2.0324,5.1730,5.825
2.340000,-1.8364,-1.9994,5.1520,5.824
2.340000,-1.9454,-1.9662,5.1256,5.824
2.345000,-2.0684,-1.9278,5.0891,5.822
2.350000,-2.2033,-1.8943,5.0212,5.801
2.356000,-2.3423,-1.8456,4.9457,5.775
2.361000,-2.4641,-1.7942,4.8700,5.745
2.365000,-2.5782,-1.7471,4.7919,5.715
2.371000,-2.6752,-1.7091,4.7066,5.677
2.375000,-2.7459,-1.6664,4.6384,5.642
2.380000,-2.7969,-1.5895,4.5894,5.605
2.388000,-2.8358,-1.4935,4.5386,5.556
2.392000,-2.8557,-1.3713,4.4956,5.500
2.396000,-2.8184,-1.2496,4.4700,5.430
2.400000,-2.7654,-1.1528,4.4429,5.359
2.406000,-2.6987,-1.0830,4.3947,5.270
2.411000,-2.6690,-1.0502,4.3782,5.234
2.415000,-2.6670,-1.0283,4.3979,5.245
2.426000,-2.7335,-1.0197,4.4368,5.310
2.428000,-2.8901,-1.0510,4.4873,5.440
2.431000,-3.1553,-1.1114,4.5583,5.654
2.436000,-3.5170,-1.2106,4.6040,5.919
2.454000,-3.9818,-1.3526,4.5834,6.220
2.457000,-4.4989,-1.5367,4.4752,6.529
2.459000,-4.9936,-1.7220,4.2893,6.804
2.460000,-5.4671,-1.9264,4.0722,7.084
2.461000,-5.9620,-2.1139,3.9489,7.457
2.465000,-6.4684,-2.3148,3.8404,7.871
2.470000,-6.9168,-2.5359,3.6839,8.237
2.476000,-7.3166,-2.7936,3.5468,8.597
2.480000,-7.6692,-3.1032,3.4461,8.962
2.488000,-8.0224,-3.4212,3.3214,9.332
2.491000,-8.3329,-3.7494,3.2133,9.686
2.495000,-8.5717,-4.0130,3.1120,9.963
2.501000,-8.7124,-4.2000,3.0490,10.141
2.506000,-8.7474,-4.2980,3.0321,10.207
2.511000,-8.7007,-4.3264,3.0543,10.186
2.516000,-8.5436,-4.2756,3.1970,10.075
2.521000,-8.3364,-4.2059,3.3661,9.926
2.527000,-8.1485,-4.1888,3.4992,9.808
2.531000,-7.9486,-4.1982,3.6851,9.715
2.543000,-7.7029,-4.1858,3.8445,9.573
2.544000,-7.3924,-4.0947,3.9846,9.343
2.550000,-7.0842,-3.9876,4.1200,9.114
2.551000,-6.7785,-3.9174,4.1909,8.880
2.571000,-6.4635,-3.8876,4.1956,8.631
2.574000,-6.1035,-3.8769,4.1197,8.322
2.575000,-5.7613,-3.9313,3.9818,8.031
2.575000,-5.4703,-4.0275,3.7869,7.777
2.577000,-5.2522,-4.1466,3.5540,7.577
2.581000,-5.0894,-4.2593,3.3121,7.417
2.586000,-4.9847,-4.3717,3.0193,7.285
2.591000,-4.8705,-4.4356,2.7523,7.139
2.596000,-4.7014,-4.4228,2.5565,6.943
2.601000,-4.5017,-4.3553,2.3982,6.707
2.607000,-4.2831,-4.2739,2.2645,6.461
2.612000,-4.0590,-4.1824,2.1197,6.202
2.616000,-3.8028,-4.1237,1.9132,5.927
2.622000,-3.5170,-4.0719,1.6497,5.628
2.626000,-3.2045,-4.0396,1.3509,5.330
2.631000,-2.8749,-4.0123,1.0068,5.038
2.644000,-2.5271,-3.9965,0.6406,4.772
2.646000,-2.1708,-3.9968,0.2493,4.555
2.647000,-1.8087,-3.9850,-0.1447,4.379
2.651000,-1.4747,-3.9710,-0.5197,4.268
2.675000,-1.1851,-3.9568,-0.8638,4.220
2.676000,-0.9653,-3.9316,-1.1682,4.214
2.678000,-0.8432,-3.8902,-1.4069,4.222
2.678000,-0.7588,-3.8513,-1.5749,4.229
2.679000,-0.4702,-3.8220,-1.7223,4.218
2.682000,-0.1665,-3.7854,-1.8855,4.232
2.689000,0.1076,-3.7400,-2.0725,4.277
2.691000,0.3332,-3.6880,-2.2499,4.333
2.698000,0.5126,-3.6270,-2.4031,4.381
2.702000,0.6770,-3.5663,-2.5197,4.419
2.706000,0.8125,-3.5008,-2.6095,4.441
2.711000,0.9416,-3.4095,-2.6740,4.434
2.716000,1.0771,-3.2991,-2.7156,4.407
2.721000,1.2354,-3.2079,-2.7176,4.382
2.726000,1.4402,-3.1476,-2.7036,4.392
2.731000,1.6535,-3.1085,-2.6666,4.417
2.735000,1.8812,-3.0551,-2.5915,4.426
2.744000,2.0877,-2.9822,-2.4762,4.403
2.746000,2.2775,-2.8827,-2.3039,4.336
2.751000,2.4289,-2.7566,-2.0824,4.223
2.771000,2.5330,-2.6012,-1.8193,4.061
2.773000,2.6007,-2.4241,-1.5505,3.879
2.774000,2.6710,-2.2392,-1.2958,3.718
2.775000,2.7652,-2.0609,-1.0720,3.611
2.776000,2.8952,-1.9035,-0.9198,3.585
2.781000,3.0606,-1.7788,-0.8128,3.632
2.787000,3.2473,-1.6797,-0.7463,3.731
2.791000,3.4158,-1.6253,-0.7320,3.853
2.796000,3.5881,-1.6155,-0.7627,4.008
2.801000,3.7523,-1.6859,-0.8572,4.202
2.806000,3.8582,-1.8579,-1.0034,4.398
2.811000,3.9233,-2.1118,-1.1435,4.600
2.816000,4.0050,-2.4070,-1.2608,4.840
2.821000,4.0679,-2.7192,-1.3745,5.082
2.826000,4.0720,-3.0411,-1.4369,5.281
2.831000,4.0084,-3.3078,-1.3932,5.381
2.838000,3.8378,-3.4834,-1.2248,5.326
2.842000,3.5676,-3.5153,-0.9472,5.097
2.847000,3.2949,-3.4058,-0.5663,4.773
2.852000,3.0874,-3.1528,-0.1528,4.415
2.857000,3.0045,-2.7731,0.2469,4.096
2.862000,3.0416,-2.3435,0.6248,3.890
2.866000,3.1562,-1.8766,0.9515,3.793
2.878000,3.3216,-1.3772,1.2289,3.800
2.880000,3.5179,-0.8791,1.4400,3.902
2.882000,3.7230,-0.3657,1.5726,4.058
2.915000,3.9459,0.1223,1.6053,4.262
2.917000,4.1541,0.5560,1.5647,4.474
2.921000,4.3404,0.9282,1.4629,4.673
2.922000,4.5019,1.2438,1.3096,4.851
2.923000,4.6525,1.5195,1.1243,5.022
2.923000,4.7825,1.7339,0.9214,5.170
2.924000,4.8697,1.8894,0.6846,5.268
2.924000,4.9095,2.0075,0.4092,5.320
2.927000,4.9212,2.0765,0.1193,5.343
2.932000,4.8858,2.1156,-0.1705,5.327
2.939000,4.8492,2.1345,-0.4820,5.320
2.941000,4.7826,2.1332,-0.8166,5.300
2.947000,4.6910,2.1095,-1.1787,5.277
2.952000,4.5604,2.0897,-1.5486,5.250
2.956000,4.4030,2.0788,-1.9471,5.244
2.962000,4.2334,2.0744,-2.3567,5.271
2.966000,4.0660,2.0935,-2.7379,5.330
2.975000,3.9179,2.1266,-3.0780,5.417
2.981000,3.7747,2.1665,-3.3573,5.497
2.982000,3.6340,2.2373,-3.5876,5.575
3.001000,3.5219,2.3294,-3.7686,5.660
3.004000,3.4216,2.4022,-3.8997,5.717
3.005000,3.3162,2.4987,-3.9760,5.749
3.005000,3.1934,2.6238,-3.9904,5.745
3.007000,3.0749,2.7677,-3.9144,5.695
3.012000,2.9437,2.9112,-3.7674,5.598
3.016000,2.7948,3.0614,-3.5859,5.481
3.023000,2.6287,3.2088,-3.4013,5.364
3.027000,2.4882,3.3437,-3.2141,5.263
3.033000,2.3663,3.4636,-3.0148,5.166
3.038000,2.2820,3.5733,-2.7874,5.074
3.041000,2.1869,3.6582,-2.6013,4.993
3.047000,2.0816,3.6969,-2.4308,4.890
3.055000,1.9684,3.7108,-2.2782,4.779
3.059000,1.8451,3.6736,-2.1750,4.651
3.062000,1.7119,3.6190,-2.0971,4.519
3.066000,1.5783,3.5204,-2.0396,4.364
3.072000,1.4021,3.3543,-1.9836,4.142
3.078000,1.1646,3.1326,-1.9365,3.863
3.082000,0.8641,2.8794,-1.9365,3.576
3.095000,0.5064,2.6142,-1.9668,3.310
3.097000,0.1613,2.3562,-1.9792,3.081
3.098000,-0.1481,2.1441,-1.9668,2.913
3.104000,-0.4026,1.9468,-1.9198,2.764
3.130000,-0.6355,1.7860,-1.8431,2.644
3.132000,-0.8106,1.6735,-1.7728,2.569
3.133000,-0.9521,1.6142,-1.6800,2.517
3.133000,-1.0454,1.6033,-1.5722,2.477
3.133000,-1.0885,1.6287,-1.4325,2.427
3.134000,-1.0627,1.6711,-1.2756,2.356
3.140000,-0.9972,1.7137,-1.1041,2.269
3.142000,-0.8975,1.7849,-0.9302,2.204
3.148000,-0.7946,1.8417,-0.7403,2.138
3.153000,-0.6866,1.8839,-0.5510,2.079
3.158000,-0.5738,1.9330,-0.3650,2.049
3.162000,-0.4519,1.9721,-0.1898,2.032
3.169000,-0.3427,1.9891,-0.0326,2.019
3.178000,-0.2579,2.0033,0.1062,2.023
3.179000,-0.1931,1.9905,0.2027,2.010
3.182000,-0.1651,1.9510,0.2451,1.973
3.207000,-0.1640,1.8750,0.2287,1.896
3.209000,-0.1998,1.7866,0.1612,1.805
3.209000,-0.2572,1.6717,0.0500,1.692
3.209000,-0.3362,1.5542,-0.0755,1.592
3.210000,-0.4292,1.4271,-0.2146,1.506
3.212000,-0.5048,1.2882,-0.3574,1.429
3.218000,-0.5510,1.1423,-0.4961,1.362
3.223000,-0.5510,1.0109,-0.6089,1.302
3.229000,-0.5142,0.8823,-0.6958,1.236
3.232000,-0.4909,0.7539,-0.7447,1.168
3.239000,-0.4309,0.6448,-0.7409,1.073
3.242000,-0.3510,0.5360,-0.7015,0.950
3.248000,-0.2634,0.4296,-0.6312,0.808
3.253000,-0.1824,0.3210,-0.5117,0.631
3.258000,-0.1106,0.2267,-0.3671,0.445
3.263000,-0.0625,0.1442,-0.2072,0.260
3.269000,-0.0524,0.0521,-0.0348,0.082
3.274000,-0.0540,-0.0282,0.1644,0.175
3.278000,-0.0596,-0.0893,0.3776,0.393
3.282000,-0.0717,-0.1503,0.5923,0.615
3.295000,-0.0784,-0.2159,0.8103,0.842
3.298000,-0.0939,-0.2671,1.0143,1.053
3.299000,-0.1185,-0.3157,1.2018,1.248
3.303000,-0.1636,-0.3520,1.3766,1.430
3.339000,-0.2246,-0.3903,1.5290,1.594
3.343000,-0.2892,-0.4209,1.6371,1.715
3.343000,-0.3430,-0.4508,1.7247,1.815
3.343000,-0.3743,-0.4705,1.7700,1.869
3.344000,-0.3733,-0.4751,1.7703,1.871
3.344000,-0.3617,-0.4647,1.7283,1.826
3.344000,-0.3806,-0.4513,1.6583,1.760
3.345000,-0.4178,-0.4303,1.5676,1.678
3.349000,-0.4854,-0.3847,1.4684,1.594
3.355000,-0.5686,-0.3170,1.3511,1.500
3.358000,-0.6484,-0.2559,1.2065,1.393
3.363000,-0.7078,-0.2037,1.0324,1.268
3.369000,-0.7539,-0.1794,0.8386,1.142
3.373000,-0.7798,-0.1761,0.6110,1.006
3.378000,-0.7923,-0.1696,0.3576,0.886
3.383000,-0.8299,-0.1600,0.0788,0.849
3.393000,-0.8587,-0.1855,-0.1890,0.899
3.394000,-0.8836,-0.2294,-0.4453,1.016
3.401000,-0.9138,-0.2461,-0.6684,1.159
3.403000,-0.9134,-0.2498,-0.8575,1.278
3.423000,-0.8849,-0.2312,-1.0318,1.379
3.424000,-0.8355,-0.1735,-1.1958,1.469
3.425000,-0.7321,-0.0770,-1.3205,1.512
3.425000,-0.5822,0.0295,-1.4347,1.549
3.429000,-0.4007,0.1314,-1.5165,1.574
3.433000,-0.1879,0.2572,-1.5708,1.603
3.439000,0.0222,0.3732,-1.6239,1.666
3.444000,0.2509,0.5080,-1.6758,1.769
3.449000,0.4977,0.6421,-1.7359,1.917
3.452000,0.7695,0.7755,-1.8282,2.130
3.458000,1.0536,0.8887,-1.9357,2.376
3.463000,1.3186,0.9743,-2.0798,2.648
3.472000,1.5354,0.9939,-2.2506,2.900
3.473000,1.6729,0.9380,-2.4047,3.076
3.478000,1.7122,0.7996,-2.5635,3.185
3.483000,1.6564,0.5981,-2.7337,3.252
3.489000,1.5371,0.3674,-2.9078,3.310
3.493000,1.3886,0.1843,-3.0998,3.402
3.500000,1.2571,0.0109,-3.2182,3.455
3.512000,1.1598,-0.1740,-3.3923,3.589
3.514000,1.1662,-0.3680,-3.5909,3.793
3.515000,1.2549,-0.5519,-3.7654,4.007
3.550000,1.4020,-0.6778,-3.8625,4.165
3.551000,1.5764,-0.7961,-3.7357,4.132
3.553000,1.7728,-0.9835,-3.6828,4.204
3.553000,2.0077,-1.1851,-3.6400,4.323
3.554000,2.2737,-1.3701,-3.5615,4.442
3.555000,2.5443,-1.5099,-3.4573,4.550
3.555000,2.7859,-1.6382,-3.2846,4.608
3.556000,2.9720,-1.7431,-3.0218,4.583
3.558000,3.1289,-1.8583,-2.6844,4.522
3.563000,3.2664,-1.9479,-2.2996,4.444
3.572000,3.3867,-1.9856,-1.8611,4.345
3.575000,3.4779,-1.9785,-1.4038,4.240
3.580000,3.5398,-1.9148,-0.9163,4.128
3.583000,3.5796,-1.7992,-0.4365,4.030
3.592000,3.5947,-1.6412,-0.0102,3.952
3.593000,3.5921,-1.4314,0.3811,3.886
3.599000,3.5764,-1.1865,0.7368,3.839
3.605000,3.5234,-0.9211,1.0306,3.785
3.609000,3.4545,-0.6492,1.2472,3.730
3.613000,3.3888,-0.3950,1.3990,3.687
3.618000,3.3258,-0.1346,1.4836,3.644
3.629000,3.2702,0.1006,1.4682,3.586
3.630000,3.2215,0.2985,1.3725,3.514
3.636000,3.1559,0.4255,1.2329,3.415
3.659000,3.0706,0.4695,1.0668,3.284
3.660000,2.9561,0.4471,0.8773,3.116
3.661000,2.8149,0.3752,0.6840,2.921
3.661000,2.6398,0.2510,0.5091,2.700
3.661000,2.4532,0.0896,0.3432,2.479
3.663000,2.2360,-0.0901,0.1961,2.246
3.671000,1.9981,-0.2663,0.0875,2.018
3.674000,1.7518,-0.4461,-0.0043,1.808
3.678000,1.4665,-0.6079,-0.0767,1.589
3.683000,1.1902,-0.7516,-0.1148,1.412
3.690000,0.9214,-0.8598,-0.1284,1.267
3.693000,0.6914,-0.9350,-0.1196,1.169
3.700000,0.4906,-0.9724,-0.1001,1.094
3.704000,0.3312,-1.0055,-0.0342,1.059
3.709000,0.2127,-1.0488,0.0256,1.070
3.713000,0.1095,-1.0971,0.0962,1.107
3.719000,0.0091,-1.1434,0.2060,1.162
3.729000,-0.1074,-1.1639,0.3287,1.214
3.730000,-0.2425,-1.1753,0.4620,1.286
3.733000,-0.3867,-1.1777,0.6032,1.379
3.761000,-0.5129,-1.1632,0.7787,1.491
3.762000,-0.6356,-1.1680,0.9642,1.643
3.763000,-0.7572,-1.1943,1.1430,1.818
3.763000,-0.8967,-1.2058,1.3267,2.005
3.763000,-1.0349,-1.2243,1.5343,2.219
3.765000,-1.1762,-1.2419,1.7078,2.417
3.769000,-1.3016,-1.2491,1.8495,2.584
3.774000,-1.4132,-1.2410,1.9572,2.714
3.779000,-1.5184,-1.2366,2.0404,2.828
3.783000,-1.6220,-1.2002,2.1184,2.926
3.790000,-1.7236,-1.1671,2.1883,3.020
3.794000,-1.8115,-1.1185,2.2501,3.098
3.799000,-1.9074,-1.0805,2.2989,3.177
3.804000,-2.0014,-1.0435,2.3466,3.256
3.809000,-2.0986,-1.0026,2.3813,3.329
3.814000,-2.1986,-0.9528,2.4025,3.393
3.822000,-2.2777,-0.8774,2.3987,3.422
3.825000,-2.3407,-0.7885,2.3889,3.436
3.830000,-2.3926,-0.6789,2.3755,3.439
3.833000,-2.4336,-0.5655,2.3680,3.442
3.839000,-2.4588,-0.4387,2.3520,3.431
3.844000,-2.4637,-0.3299,2.3348,3.410
3.849000,-2.4412,-0.2174,2.3354,3.385
3.861000,-2.4109,-0.1351,2.3394,3.362
3.863000,-2.4016,-0.0831,2.3326,3.349
3.865000,-2.3845,-0.0420,2.3076,3.319
3.869000,-2.3765,-0.0193,2.2933,3.303
3.895000,-2.3776,-0.0078,2.2587,3.279
3.898000,-2.3664,0.0020,2.2159,3.242
3.899000,-2.3572,0.0005,2.1601,3.197
3.900000,-2.3405,-0.0147,2.0819,3.132
3.900000,-2.3619,-0.0199,2.0173,3.106
3.901000,-2.3973,-0.0101,1.9521,3.092
3.906000,-2.4369,0.0122,1.8792,3.077
3.908000,-2.4737,0.0374,1.8083,3.064
3.914000,-2.5077,0.0582,1.7301,3.047
3.919000,-2.5411,0.0796,1.6568,3.035
3.924000,-2.5643,0.0847,1.5813,3.014
3.929000,-2.5751,0.0782,1.4892,2.976
3.933000,-2.5855,0.0649,1.4095,2.945
3.943000,-2.5955,0.0352,1.3446,2.923
3.944000,-2.6096,-0.0181,1.2758,2.905
3.949000,-2.6446,-0.0566,1.2221,2.914
3.967000,-2.6931,-0.1112,1.1909,2.947
3.969000,-2.7382,-0.1603,1.1747,2.984
3.969000,-2.7680,-0.1944,1.1596,3.007
3.970000,-2.7561,-0.2062,1.1620,2.998
3.977000,-2.7147,-0.2221,1.1796,2.968
3.979000,-2.6582,-0.2326,1.2074,2.929
3.983000,-2.6082,-0.2617,1.2428,2.901
3.989000,-2.5576,-0.2902,1.2786,2.874
3.994000,-2.5135,-0.3205,1.3124,2.854
3.999000,-2.4855,-0.3669,1.3488,2.852
4.005000,-2.4737,-0.4438,1.3851,2.870
4.009000,-2.4924,-0.5102,1.4069,2.907
4.013000,-2.5317,-0.5853,1.4045,2.954
4.019000,-2.5867,-0.6472,1.3850,3.005
4.024000,-2.6214,-0.7030,1.3724,3.041
4.029000,-2.6405,-0.7384,1.3524,3.057
4.033000,-2.6439,-0.7507,1.3319,3.054
4.039000,-2.6315,-0.7783,1.2968,3.035
4.044000,-2.6204,-0.8212,1.2587,3.021
4.049000,-2.6079,-0.8674,1.2008,2.999
4.062000,-2.5918,-0.9192,1.1328,2.974
4.063000,-2.5647,-0.9671,1.0520,2.936
4.064000,-2.5148,-1.0182,0.9826,2.886
4.107000,-2.4588,-1.0702,0.9100,2.832
4.109000,-2.3943,-1.1134,0.8463,2.773
4.110000,-2.3096,-1.1386,0.7867,2.692
4.110000,-2.2188,-1.1719,0.7240,2.612
4.110000,-2.1028,-1.1991,0.6727,2.512
4.111000,-1.9785,-1.2106,0.6233,2.402
4.112000,-1.8342,-1.2309,0.5686,2.281
4.112000,-1.6821,-1.2791,0.5086,2.174
4.112000,-1.5269,-1.3456,0.4456,2.083
4.115000,-1.3568,-1.4376,0.3866,2.014
4.121000,-1.2100,-1.5288,0.3221,1.976
4.124000,-1.0558,-1.6051,0.2809,1.942
4.129000,-0.8893,-1.6547,0.2746,1.899
4.134000,-0.6870,-1.6656,0.2885,1.825
4.139000,-0.5229,-1.8220,0.2770,1.916
4.144000,-0.3514,-2.0206,0.2496,2.066
4.150000,-0.2040,-2.2237,0.1992,2.242
4.161000,-0.0425,-2.3977,0.1208,2.401
4.163000,0.1280,-2.4951,0.0315,2.499
4.165000,0.2788,-2.5065,-0.0497,2.522
4.169000,0.3647,-2.4677,-0.1370,2.498
4.190000,0.3733,-2.4438,-0.2325,2.483
4.191000,0.3554,-2.4559,-0.3554,2.507
4.192000,0.3687,-2.4969,-0.5075,2.575
4.192000,0.4251,-2.5452,-0.7122,2.677
4.196000,0.5366,-2.6200,-0.9186,2.828
4.199000,0.6738,-2.7005,-1.1331,3.005
4.204000,0.8223,-2.7892,-1.3433,3.203
4.209000,0.9960,-2.8839,-1.5274,3.412
4.214000,1.1514,-2.9708,-1.6968,3.610
4.219000,1.2836,-3.0237,-1.8322,3.761
4.225000,1.3467,-3.0551,-1.9044,3.844
4.229000,1.3455,-3.0625,-1.8942,3.844
4.234000,1.3040,-3.0531,-1.8186,3.785
4.239000,1.2392,-3.0794,-1.7161,3.737
4.244000,1.1655,-3.1292,-1.5915,3.699
4.249000,1.0710,-3.2097,-1.4522,3.682
4.255000,0.9513,-3.3395,-1.2960,3.706
4.259000,0.8306,-3.4851,-1.1111,3.751
4.264000,0.7163,-3.6029,-0.8766,3.777
4.282000,0.5943,-3.6665,-0.5979,3.762
4.283000,0.4600,-3.6828,-0.2925,3.723
4.283000,0.3039,-3.6539,0.0198,3.667
4.285000,0.1457,-3.5892,0.3433,3.609
4.292000,0.0024,-3.4810,0.6797,3.547
4.294000,-0.1213,-3.3294,1.0142,3.483
4.300000,-0.2564,-3.1603,1.3314,3.439
4.305000,-0.4147,-2.9449,1.6071,3.380
4.310000,-0.5819,-2.6832,1.8482,3.310
4.314000,-0.7435,-2.3513,2.0688,3.219
4.319000,-0.9020,-1.9659,2.2590,3.128
4.325000,-1.0455,-1.5581,2.3897,3.038
4.330000,-1.1839,-1.1306,2.4707,2.964
4.334000,-1.3196,-0.7050,2.4877,2.903
4.340000,-1.4385,-0.3054,2.4408,2.850
4.345000,-1.5552,0.0585,2.3399,2.810
4.350000,-1.6385,0.3794,2.1852,2.757
4.355000,-1.7057,0.6546,2.0014,2.710
4.360000,-1.7592,0.8769,1.7983,2.664
4.365000,-1.7989,1.0485,1.5668,2.606
4.379000,-1.8250,1.1814,1.3001,2.533
4.381000,-1.8566,1.2756,1.0295,2.477
4.381000,-1.8916,1.3331,0.7320,2.427
4.385000,-1.9322,1.3564,0.3934,2.393
4.420000,-1.9784,1.3406,0.0239,2.390
4.422000,-2.0469,1.2786,-0.3612,2.440
4.423000,-2.1181,1.1848,-0.7255,2.533
4.424000,-2.1680,1.0904,-1.0681,2.651
4.425000,-2.1915,0.9979,-1.3812,2.776
4.425000,-2.2031,0.9095,-1.6428,2.895
4.425000,-2.1764,0.8491,-1.8427,2.975
4.429000,-2.1495,0.8120,-1.9805,3.033
4.430000,-2.1034,0.8124,-2.0150,3.024
4.434000,-2.0143,0.8215,-1.9465,2.919
4.439000,-1.9183,0.8368,-1.7898,2.754
4.445000,-1.8084,0.8465,-1.5428,2.523
4.451000,-1.7156,0.8602,-1.2325,2.281
4.455000,-1.6018,0.8731,-0.9026,2.035
4.461000,-1.4932,0.8733,-0.5583,1.818
4.466000,-1.3969,0.8636,-0.1981,1.654
4.471000,-1.3248,0.8486,0.1489,1.580
4.475000,-1.2624,0.8288,0.4845,1.586
4.479000,-1.2453,0.8041,0.8295,1.699
4.485000,-1.2542,0.7822,1.1762,1.889
4.490000,-1.2838,0.7395,1.4739,2.090
4.495000,-1.3598,0.6500,1.7578,2.315
4.500000,-1.4933,0.4929,2.0204,2.560
4.528000,-1.6428,0.3047,2.2134,2.773
4.529000,-1.7382,0.1409,2.2435,2.842
4.530000,-1.7887,0.0136,2.2523,2.876
4.531000,-1.7943,-0.0772,2.2160,2.852
4.532000,-1.7667,-0.1482,2.2299,2.849
4.532000,-1.6895,-0.2163,2.2987,2.861
4.536000,-1.5723,-0.3008,2.4242,2.905
4.540000,-1.4247,-0.3466,2.6013,2.986
4.546000,-1.2710,-0.3108,2.8268,3.115
4.550000,-1.1400,-0.1699,3.1312,3.337
4.556000,-1.0008,0.0832,3.5132,3.654
4.560000,-0.8499,0.3928,3.8260,3.939
4.565000,-0.7066,0.7082,4.0567,4.178
4.571000,-0.5784,0.9647,4.1740,4.323
4.575000,-0.4460,1.1479,4.1632,4.342
4.580000,-0.3163,1.2603,4.0438,4.247
4.585000,-0.1824,1.3228,3.8432,4.069
4.591000,0.0016,1.3404,3.5737,3.817
4.595000,0.2166,1.3175,3.2315,3.496
4.601000,0.4459,1.2636,2.8679,3.165
4.614000,0.7046,1.2241,2.5093,2.879
4.616000,1.0130,1.2150,2.1745,2.689
4.616000,1.3450,1.2552,1.7990,2.573
4.643000,1.4253,1.2871,1.3983,2.376
4.644000,2.0380,1.3032,1.0023,2.618
4.645000,2.3316,1.3275,0.6709,2.766
4.645000,2.5850,1.3571,0.4158,2.949
4.646000,2.8176,1.3778,0.2294,3.145
4.647000,3.0246,1.4159,0.1048,3.341
4.651000,3.2013,1.4668,-0.0033,3.521
4.656000,3.3410,1.5472,-0.0931,3.683
4.660000,3.4692,1.6523,-0.1729,3.846
4.665000,3.5980,1.8155,-0.2433,4.037
4.671000,3.7294,2.0032,-0.3448,4.247
4.675000,3.8607,2.2107,-0.4964,4.476
4.680000,3.9726,2.3517,-0.7245,4.673
4.688000,3.7296,2.0845,-0.9825,4.384
4.690000,3.7244,2.1393,-0.9896,4.408
4.696000,3.9317,2.3264,-1.2367,4.733
4.700000,4.3117,2.6001,-1.6217,5.290
4.713000,4.8013,2.9701,-1.9501,5.973
4.716000,5.2568,3.2781,-2.2036,6.575
4.717000,5.6251,3.3976,-2.4275,7.006
4.741000,5.8940,3.3841,-2.6096,7.280
4.743000,6.0343,3.2977,-2.7098,7.391
4.744000,6.0755,3.2246,-2.7763,7.417
4.744000,6.0455,3.1864,-2.8378,7.400
4.745000,5.9712,3.1833,-2.9259,7.372
4.745000,5.8456,3.2106,-3.0165,7.320
4.751000,5.6931,3.2469,-3.0761,7.240
4.756000,5.5164,3.2829,-3.1120,7.134
4.760000,5.3708,3.2875,-3.1596,7.045
4.766000,5.2855,3.2445,-3.2020,6.980
4.773000,5.2702,3.1992,-3.2151,6.953
4.776000,5.3322,3.1161,-3.1964,6.954
4.781000,5.4686,3.0094,-3.1744,7.003
4.788000,5.6051,2.8624,-3.1299,7.029
4.791000,5.7678,2.7110,-3.0534,7.067
4.796000,5.9444,2.5742,-2.9283,7.109
4.801000,6.1395,2.4183,-2.7766,7.159
4.806000,6.3072,2.2313,-2.6082,7.181
4.811000,6.4837,1.9866,-2.4000,7.193
4.815000,6.6044,1.6339,-2.1741,7.142
4.828000,6.6846,1.2093,-1.9137,7.058
4.830000,6.7110,0.7704,-1.5975,6.941
4.831000,6.7458,0.3315,-1.2424,6.867
4.862000,6.8205,-0.1485,-0.8955,6.881
4.864000,6.8510,-0.6456,-0.5952,6.907
4.864000,6.8141,-1.0452,-0.2847,6.900
4.865000,6.7222,-1.3377,0.0429,6.854
4.865000,6.6210,-1.5928,0.3297,6.818
4.866000,6.4984,-1.8655,0.5374,6.782
4.868000,6.4107,-2.1509,0.7034,6.798
4.872000,6.3628,-2.4203,0.8253,6.857
4.876000,6.4002,-2.6808,0.8886,6.996
4.882000,6.4893,-2.9493,0.9121,7.186
4.887000,6.5841,-3.2330,0.8914,7.389
4.891000,6.6876,-3.5054,0.8523,7.599
4.895000,6.8213,-3.7523,0.8500,7.831
4.901000,6.9992,-3.9044,0.8844,8.063
4.907000,7.2067,-3.9714,0.9170,8.279
4.912000,7.4186,-3.9659,0.9458,8.465
4.917000,7.5780,-3.9261,0.9966,8.593
4.924000,7.7010,-3.8403,1.0957,8.675
4.927000,7.8043,-3.7805,1.2810,8.766
4.931000,7.8379,-3.7754,1.5779,8.842
4.936000,7.7636,-3.7771,1.9331,8.847
4.973000,7.5948,-3.7111,2.3379,8.770
4.975000,7.3531,-3.5322,2.7057,8.594
4.976000,7.0722,-3.2213,3.0311,8.342
4.977000,6.8003,-2.8192,3.3137,8.073
4.977000,6.5893,-2.3766,3.4886,7.825
4.978000,6.4590,-1.9362,3.5202,7.607
4.978000,6.4321,-1.5274,3.3780,7.424
4.979000,6.4622,-1.1936,3.1110,7.271
4.981000,6.4980,-0.9185,2.7185,7.103
4.989000,6.5383,-0.7198,2.2687,6.958
4.992000,6.5309,-0.5994,1.7945,6.799
4.998000,6.5013,-0.5677,1.3376,6.662
5.003000,6.4182,-0.6439,0.8993,6.513
5.007000,6.2436,-0.8115,0.5237,6.318
5.011000,5.9412,-1.0564,0.2258,6.039
5.016000,5.5423,-1.3560,-0.0007,5.706
5.026000,5.1094,-1.7104,-0.1434,5.390
5.028000,4.6840,-2.1213,-0.1731,5.145
5.031000,4.2528,-2.5909,0.0177,4.980
5.056000,3.7689,-3.1187,0.3680,4.906
5.057000,3.2826,-3.6759,0.7764,4.989
5.058000,2.8038,-4.2680,1.2179,5.250
5.058000,2.2558,-4.8329,1.8256,5.637
5.058000,1.6230,-5.3387,2.4947,6.112
5.062000,0.9065,-5.7106,3.1875,6.603
5.066000,0.1208,-5.9128,3.8811,7.074
5.071000,-0.6768,-5.9025,4.5359,7.475
5.076000,-1.4267,-5.7279,5.1033,7.803
5.082000,-2.0856,-5.4600,5.5451,8.057
5.086000,-2.6292,-5.1414,5.8946,8.252
5.092000,-3.0415,-4.8104,6.1354,8.369
5.096000,-3.3071,-4.4846,6.2823,8.397
5.102000,-3.4342,-4.1837,6.3234,8.324
5.112000,-3.4210,-3.9101,6.2903,8.158
5.114000,-3.2874,-3.6497,6.1904,7.902
5.116000,-3.0584,-3.4276,6.0380,7.587
5.142000,-2.7650,-3.1952,5.8456,7.213
5.143000,-2.4779,-2.9277,5.6394,6.820
5.143000,-2.2023,-2.6305,5.4218,6.416
5.144000,-1.9768,-2.3161,5.2022,6.028
5.144000,-1.8046,-1.9878,4.9975,5.673
5.146000,-1.6469,-1.6524,4.8113,5.347
5.152000,-1.4829,-1.3347,4.6387,5.050
5.157000,-1.3083,-1.0375,4.4705,4.772
5.162000,-1.1473,-0.7830,4.3024,4.521
5.167000,-1.0007,-0.5531,4.1126,4.269
5.171000,-0.8828,-0.3525,3.9026,4.017
5.177000,-0.7870,-0.1678,3.6604,3.748
5.181000,-0.7471,-0.0306,3.3988,3.480
5.188000,-0.7825,0.0754,3.1228,3.220
5.192000,-0.9078,0.1422,2.8540,2.998
5.197000,-1.0887,0.1878,2.5843,2.811
5.202000,-1.3495,0.2476,2.2998,2.678
5.207000,-1.6567,0.2928,1.9798,2.598
5.212000,-2.0316,0.3214,1.6420,2.632
5.216000,-2.4364,0.3232,1.3324,2.796
5.230000,-2.8703,0.3239,1.0479,3.073
5.231000,-3.2978,0.3137,0.7840,3.404
5.232000,-3.6972,0.2761,0.5003,3.741
5.262000,-4.0828,0.2353,0.1878,4.094
5.264000,-4.4454,0.1695,-0.1171,4.450
5.264000,-4.8011,0.1167,-0.4040,4.819
5.265000,-5.1522,0.0548,-0.6683,5.196
5.265000,-5.4890,-0.0108,-0.9318,5.568
5.266000,-5.8206,-0.0986,-1.1877,5.941
5.269000,-6.1497,-0.1876,-1.4191,6.314
5.273000,-6.4681,-0.3231,-1.6215,6.676
5.277000,-6.7496,-0.4910,-1.8066,7.004
5.282000,-7.0395,-0.7194,-1.8912,7.325
5.288000,-7.3111,-0.9862,-1.9334,7.626
5.292000,-7.6024,-1.2715,-1.9293,7.946
5.298000,-7.8847,-1.5754,-1.9222,8.267
5.304000,-8.1404,-1.8456,-1.8940,8.559
5.308000,-8.3793,-2.1134,-1.8426,8.836
5.312000,-8.5918,-2.3832,-1.8044,9.097
5.316000,-8.7898,-2.6569,-1.7296,9.344
5.323000,-8.9783,-2.9371,-1.6589,9.591
5.328000,-9.1401,-3.1982,-1.5716,9.810
5.332000,-9.2637,-3.4503,-1.4797,9.995
5.344000,-9.3180,-3.6694,-1.3907,10.111
5.346000,-9.3082,-3.8843,-1.3451,10.175
5.347000,-9.2538,-4.0862,-1.2948,10.198
5.352000,-9.1498,-4.3077,-1.2334,10.188
5.377000,-9.0420,-4.5449,-1.2060,10.192
5.378000,-8.8972,-4.7955,-1.1408,10.171
5.379000,-8.7392,-5.1075,-1.0812,10.180
5.379000,-8.5922,-5.5099,-1.0651,10.263
5.380000,-8.4726,-5.9588,-1.0527,10.412
5.382000,-8.3877,-6.4590,-1.0488,10.638
5.388000,-8.3590,-6.9813,-1.0416,10.941
5.392000,-8.3575,-7.5206,-1.0217,11.289
5.397000,-8.3809,-8.0143,-0.9981,11.639
5.403000,-8.4267,-8.4521,-0.9191,11.970
5.408000,-8.4661,-8.8382,-0.7719,12.263
5.412000,-8.4703,-9.1747,-0.6064,12.502
5.417000,-8.4251,-9.4683,-0.4033,12.680
5.428000,-8.3135,-9.7114,-0.1930,12.785
5.430000,-8.1332,-9.9402,0.0212,12.844
5.432000,-7.9006,-10.1831,0.1991,12.890
5.456000,-7.6133,-10.4402,0.3334,12.926
5.458000,-7.3214,-10.7186,0.4337,12.988
5.459000,-7.0125,-10.9941,0.4978,13.050
5.459000,-6.6792,-11.2030,0.5165,13.053
5.460000,-6.2830,-11.3143,0.5233,12.952
5.463000,-5.8406,-11.3072,0.5579,12.739
5.467000,-5.3519,-11.2019,0.5811,12.428
5.472000,-4.8693,-11.0632,0.5881,12.102
5.478000,-4.4100,-10.9032,0.5963,11.776
5.482000,-4.0048,-10.7243,0.5721,11.462
5.489000,-3.6683,-10.5274,0.5005,11.159
5.492000,-3.3930,-10.3273,0.4078,10.878
5.499000,-3.1768,-10.1842,0.2646,10.671
5.505000,-3.0071,-10.1117,0.1120,10.550
5.508000,-2.8534,-10.1207,-0.0319,10.515
5.512000,-2.6769,-10.1840,-0.1839,10.532
5.517000,-2.4705,-10.2705,-0.3175,10.568
5.523000,-2.2317,-10.3517,-0.4137,10.598
5.528000,-1.9936,-10.4173,-0.4246,10.615
5.533000,-1.7950,-10.4977,-0.3725,10.657
5.544000,-1.6210,-10.5561,-0.2955,10.684
5.546000,-1.4138,-10.5516,-0.2341,10.648
5.550000,-1.1539,-10.4460,-0.1951,10.511
5.553000,-0.8191,-10.2267,-0.1584,10.261
5.584000,-0.4105,-9.8988,-0.1476,9.908
5.586000,0.0912,-9.4720,-0.1833,9.474
5.587000,0.6879,-8.9573,-0.2861,8.988
5.587000,1.3261,-8.4014,-0.4314,8.516
5.588000,1.9508,-7.8382,-0.5944,8.099
5.588000,2.5430,-7.3020,-0.7768,7.771
5.590000,3.0572,-6.8405,-0.9684,7.555
5.593000,3.4665,-6.4207,-1.1445,7.386
5.598000,3.7611,-6.0667,-1.3212,7.259
5.603000,3.9798,-5.7130,-1.4549,7.113
5.608000,4.1520,-5.3830,-1.5521,6.973
5.613000,4.2761,-5.0707,-1.6196,6.828
5.618000,4.3925,-4.7784,-1.6500,6.697
5.625000,4.5035,-4.5036,-1.6693,6.584
5.631000,4.6216,-4.2744,-1.6676,6.512
5.632000,4.7449,-4.0299,-1.6519,6.441
5.646000,4.8403,-3.8269,-1.6126,6.378
5.648000,4.9196,-3.6342,-1.5495,6.310
5.655000,4.9635,-3.4447,-1.4579,6.215
5.657000,4.9695,-3.2725,-1.3115,6.093
5.658000,4.9358,-3.1075,-1.1105,5.937
5.677000,4.8732,-2.9479,-0.8462,5.758
5.678000,4.7920,-2.7809,-0.5406,5.567
5.679000,4.7045,-2.5990,-0.1776,5.378
5.679000,4.6225,-2.4093,0.1990,5.216
5.683000,4.5396,-2.1751,0.5723,5.066
5.687000,4.4787,-1.9304,0.9576,4.970
5.692000,4.4329,-1.6556,1.3424,4.919
5.698000,4.3879,-1.3744,1.7164,4.908
5.702000,4.3581,-1.0816,2.0691,4.944
5.708000,4.3151,-0.7937,2.3837,4.993
5.713000,4.2699,-0.4868,2.6492,5.048
5.717000,4.2515,-0.1798,2.8964,5.147
5.725000,4.2286,0.1635,3.1345,5.266
5.730000,4.2154,0.5192,3.3272,5.395
5.733000,4.2147,0.8636,3.4817,5.535
5.738000,4.2013,1.2014,3.5854,5.652
5.743000,4.1925,1.5185,3.6457,5.760
5.749000,4.1903,1.8268,3.6316,5.838
5.753000,4.1685,2.1048,3.5793,5.884
5.761000,4.1177,2.3744,3.4844,5.894
5.762000,4.0469,2.6183,3.3544,5.872
5.768000,3.9494,2.8251,3.1995,5.815
5.784000,3.8235,3.0212,3.0344,5.741
5.785000,3.7123,3.1946,2.8477,5.665
5.785000,3.6019,3.3385,2.6305,5.571
5.794000,3.5040,3.4740,2.4193,5.495
5.795000,3.4454,3.5941,2.2363,5.458
5.799000,3.4069,3.6750,2.0960,5.432
5.804000,3.4052,3.7381,1.9867,5.433
5.810000,3.4381,3.8051,1.9107,5.473
5.812000,3.4858,3.8829,1.8539,5.538
5.818000,3.5244,3.9571,1.7924,5.594
5.824000,3.5586,3.9991,1.7455,5.631
5.829000,3.5812,4.0328,1.7039,5.656
5.833000,3.5946,4.0581,1.6771,5.675
5.838000,3.5889,4.0725,1.6416,5.671
5.843000,3.5691,4.0737,1.6190,5.653
5.850000,3.5257,4.0761,1.6071,5.624
5.854000,3.4849,4.0629,1.5845,5.582
5.859000,3.4350,4.0509,1.5966,5.546
5.863000,3.3733,4.0090,1.6197,5.484
5.879000,3.3052,3.9709,1.6632,5.428
5.881000,3.2138,3.9079,1.7175,5.343
5.883000,3.1257,3.8416,1.7873,5.265
5.883000,3.0292,3.7674,1.8702,5.183
5.918000,2.9149,3.7045,1.9419,5.098
5.920000,2.7997,3.6555,2.0361,5.035
5.921000,2.6840,3.6013,2.1309,4.971
5.923000,2.5706,3.5445,2.2477,4.922
5.924000,2.4620,3.4757,2.3578,4.868
5.925000,2.3634,3.3806,2.4513,4.798
5.925000,2.2772,3.2690,2.5140,4.711
5.925000,2.2227,3.1480,2.5316,4.611
5.929000,2.2073,3.0488,2.5213,4.530
5.933000,2.1951,2.9642,2.5285,4.472
5.939000,2.1908,2.8750,2.5555,4.427
5.943000,2.2018,2.7765,2.5545,4.368
5.950000,2.2210,2.6520,2.6261,4.343
5.954000,2.2486,2.5352,2.7244,4.348
5.958000,2.3039,2.4237,2.8230,4.376
5.964000,2.3959,2.3389,2.9741,4.478
5.970000,2.5103,2.2761,3.1152,4.603
5.975000,2.6301,2.2161,3.2723,4.747
5.979000,2.7770,2.1758,3.3923,4.894
5.983000,2.9463,2.1004,3.5157,5.045
5.996000,3.1350,2.0136,3.5820,5.168
5.998000,3.4821,2.0329,3.4115,5.282
5.999000,3.7672,2.0170,3.5572,5.560
6.007000,3.9486,1.8868,3.7424,5.758
6.008000,4.1618,1.7404,3.8448,5.927
6.013000,4.3971,1.5656,3.8431,6.046
6.018000,4.6329,1.4293,3.6760,6.084
6.023000,4.9204,1.4130,3.5047,6.204
6.029000,5.2737,1.5713,3.3722,6.454
6.033000,5.6321,1.7724,3.3211,6.774
6.038000,5.9110,1.8775,3.2427,6.999
6.043000,6.1391,1.8554,3.1180,7.131
6.048000,6.3620,1.7400,2.9040,7.207
6.055000,6.6110,1.5813,2.6014,7.278
6.058000,6.8480,1.4128,2.2612,7.349
6.063000,7.0158,1.2370,2.0106,7.402
6.070000,7.2893,1.0681,1.6991,7.561
6.074000,7.6205,0.8583,1.3465,7.786
6.079000,7.9420,0.5881,0.9749,8.023
6.083000,8.2061,0.3125,0.6140,8.235
6.089000,8.4292,0.0599,0.2167,8.432
6.094000,8.6065,-0.1555,-0.1632,8.609
6.099000,8.7951,-0.3198,-0.4485,8.812
6.115000,8.9876,-0.4641,-0.6174,9.021
6.116000,9.2006,-0.5839,-0.6651,9.243
6.117000,9.3928,-0.7103,-0.6280,9.441
6.122000,9.5690,-0.8363,-0.5016,9.619
6.123000,9.7003,-0.9403,-0.2750,9.750
6.154000,9.7865,-1.0055,0.0294,9.838
6.156000,9.8421,-1.0319,0.3600,9.903
6.156000,9.8882,-1.0242,0.6656,9.963
6.156000,9.9448,-1.0134,0.8952,10.036
6.157000,10.0256,-0.9996,1.1129,10.137
6.157000,10.1160,-0.9997,1.3371,10.253
6.159000,10.1748,-0.9947,1.5048,10.333
6.164000,10.1799,-0.9873,1.6416,10.359
6.170000,10.1034,-1.0085,1.6897,10.293
6.174000,9.9332,-1.0465,1.6970,10.131
6.179000,9.7103,-1.0752,1.6632,9.910
6.184000,9.4136,-1.0754,1.5766,9.605
6.191000,9.1097,-1.0573,1.4277,9.281
6.194000,8.8121,-1.0468,1.1960,8.954
6.199000,8.5156,-1.0422,0.9444,8.631
6.212000,8.2228,-1.0627,0.6907,8.320
6.213000,7.9626,-1.0919,0.4334,8.049
6.214000,7.7037,-1.1494,0.1783,7.791
6.220000,7.4455,-1.2190,-0.0836,7.545
6.256000,7.2252,-1.3123,-0.3461,7.352
6.258000,7.0205,-1.4228,-0.6176,7.190
6.259000,6.8122,-1.5845,-0.9044,7.052
6.260000,6.6338,-1.7809,-1.1503,6.964
6.261000,6.4368,-2.0104,-1.3473,6.877
6.261000,6.2230,-2.2625,-1.4867,6.786
6.262000,5.9823,-2.5213,-1.5419,6.673
6.262000,5.7126,-2.8228,-1.5342,6.554
6.264000,5.4027,-3.1309,-1.4711,6.415
6.272000,5.0165,-3.4463,-1.3475,6.234
6.275000,4.6166,-3.7550,-1.1779,6.066
6.280000,4.2222,-4.0526,-0.9574,5.930
6.284000,3.8004,-4.3436,-0.7216,5.816
6.290000,3.3785,-4.6060,-0.4086,5.727
6.294000,2.9348,-4.8402,-0.0520,5.661
6.300000,2.4862,-5.0342,0.3424,5.625
6.310000,2.0826,-5.1741,0.7456,5.627
6.311000,1.7149,-5.2835,1.1475,5.672
6.316000,1.3418,-5.3678,1.5477,5.745
6.319000,0.9654,-5.4291,1.9540,5.850
6.351000,0.5709,-5.4608,2.3326,5.965
6.352000,0.1704,-5.4575,2.6655,6.076
6.353000,-0.2288,-5.4427,2.9664,6.203
6.353000,-0.6147,-5.4040,3.2179,6.319
6.353000,-0.9831,-5.3349,3.4155,6.410
6.354000,-1.3400,-5.2520,3.6080,6.511
6.354000,-1.6933,-5.1823,3.7763,6.632
6.360000,-2.0145,-5.1134,3.9388,6.762
6.365000,-2.3277,-5.0500,4.0663,6.889
6.370000,-2.5953,-5.0046,4.1588,7.006
6.374000,-2.8456,-4.9392,4.2248,7.095
6.380000,-3.0672,-4.8763,4.2814,7.177
6.384000,-3.2988,-4.8279,4.3329,7.278
6.390000,-3.5240,-4.7889,4.3813,7.386
6.395000,-3.7669,-4.7449,4.4262,7.503
6.399000,-3.9969,-4.7037,4.4245,7.594
6.404000,-4.0321,-4.6349,4.4042,7.559
6.410000,-4.4185,-4.5657,4.3583,7.705
6.415000,-4.6155,-4.4769,4.3034,7.737
6.420000,-4.8172,-4.4021,4.2345,7.779
6.431000,-5.0312,-4.3394,4.1494,7.833
6.433000,-5.2214,-4.2776,4.0525,7.873
6.435000,-5.4074,-4.2246,3.9080,7.897
6.466000,-5.5845,-4.1732,3.7567,7.919
6.468000,-5.7073,-4.1158,3.6082,7.908
6.469000,-5.7980,-4.0726,3.4600,7.885
6.470000,-5.8516,-4.0303,3.3259,7.845
6.471000,-5.8568,-3.9968,3.2249,7.790
6.471000,-5.8306,-4.0181,3.1370,7.745
6.472000,-5.7877,-4.1588,3.0784,7.763
6.475000,-5.7404,-4.4095,3.0959,7.873
6.479000,-5.6984,-4.7515,3.2289,8.092
6.484000,-5.7194,-5.1467,3.4827,8.446
6.489000,-5.8301,-5.5371,3.7791,8.884
6.495000,-6.0111,-5.9081,4.0792,9.364
6.499000,-6.3054,-6.2185,4.3439,9.864
6.506000,-6.7099,-6.4213,4.5573,10.345
6.510000,-7.2050,-6.5375,4.6835,10.797
6.514000,-7.7278,-6.5781,4.6950,11.182
6.519000,-8.2035,-6.5518,4.6134,11.468
6.525000,-8.5862,-6.4679,4.4835,11.647
6.529000,-8.8798,-6.3783,4.3211,11.756
6.534000,-9.0270,-6.2856,4.1348,11.751
6.544000,-9.0324,-6.2477,3.9313,11.665
6.546000,-8.9273,-6.2721,3.6861,11.516
6.550000,-8.7021,-6.3355,3.4342,11.299
6.584000,-8.4192,-6.4338,3.1496,11.054
6.586000,-8.0980,-6.5370,2.8877,10.800
6.587000,-7.7793,-6.6171,2.6263,10.545
6.588000,-7.4659,-6.6846,2.3322,10.289
6.589000,-7.1769,-6.7451,2.0320,10.057
6.589000,-6.9150,-6.8225,1.7350,9.868
6.590000,-6.6778,-6.8675,1.4425,9.687
6.591000,-6.4440,-6.9136,1.1567,9.522
6.595000,-6.1994,-6.9732,0.8682,9.371
6.599000,-5.9346,-7.0250,0.5677,9.214
6.606000,-5.6976,-7.0906,0.2651,9.100
6.610000,-5.4837,-7.1729,-0.0145,9.029
6.615000,-5.2788,-7.2622,-0.2595,8.982
6.622000,-5.0540,-7.3246,-0.4678,8.911
6.625000,-4.8477,-7.3484,-0.6398,8.827
6.630000,-4.6669,-7.3592,-0.8027,8.751
6.635000,-4.4735,-7.3411,-0.9443,8.648
6.639000,-4.2432,-7.3101,-1.0557,8.518
6.661000,-3.9498,-7.2567,-1.1734,8.345
6.662000,-3.1653,-7.2025,-1.4075,7.992
6.663000,-3.1382,-7.1019,-1.4092,7.891
6.665000,-2.5982,-7.0116,-1.5405,7.635
6.665000,-1.9811,-6.9248,-1.7034,7.401
6.674000,-1.3255,-6.8544,-1.8655,7.226
6.675000,-0.6983,-6.7819,-2.0232,7.112
6.700000,-0.1595,-6.6670,-2.2041,7.024
6.702000,0.2955,-6.5114,-2.4001,6.946
6.703000,0.6333,-6.2840,-2.6074,6.833
6.704000,0.8492,-6.0355,-2.8656,6.735
6.704000,0.9552,-5.7898,-3.1509,6.660
6.708000,0.9922,-5.5774,-3.4732,6.645
6.710000,0.9385,-5.4492,-3.7983,6.708
6.715000,0.8472,-5.3606,-4.0657,6.781
6.721000,0.7569,-5.3059,-4.2846,6.862
6.726000,0.6606,-5.3012,-4.4350,6.943
6.731000,0.5854,-5.3283,-4.5358,7.022
6.735000,0.5429,-5.3825,-4.5650,7.078
6.740000,0.5053,-5.4411,-4.4990,7.078
6.746000,0.4464,-5.4343,-4.3694,6.987
6.750000,0.4407,-5.3071,-4.2031,6.784
6.757000,0.5076,-5.0640,-4.0411,6.499
6.760000,0.6677,-4.7262,-3.9280,6.182
6.765000,0.8920,-4.3349,-3.8602,5.873
6.796000,1.1272,-3.9438,-3.7980,5.590
6.798000,1.3153,-3.5993,-3.7402,5.355
6.799000,1.4849,-3.3107,-3.6498,5.147
6.800000,1.6159,-3.0679,-3.5236,4.944
6.805000,1.7321,-2.8826,-3.3493,4.746
6.807000,1.8165,-2.7358,-3.1555,4.554
6.807000,1.8617,-2.6232,-2.9326,4.353
6.808000,1.8991,-2.5273,-2.6879,4.150
6.810000,1.9207,-2.4302,-2.4433,3.945
6.815000,1.9196,-2.3722,-2.2015,3.763
6.822000,1.9054,-2.3341,-1.9795,3.605
6.825000,1.9041,-2.3565,-1.7751,3.511
6.830000,1.9210,-2.3911,-1.5788,3.450
6.837000,1.9101,-2.4720,-1.4107,3.428
6.841000,1.8813,-2.5769,-1.2757,3.436
6.846000,1.8278,-2.6819,-1.1811,3.454
6.850000,1.7903,-2.7770,-1.1029,3.483
6.857000,1.7714,-2.8643,-1.0501,3.528
6.860000,1.7613,-2.9443,-1.0090,3.576
6.865000,1.7483,-3.0260,-0.9718,3.627
6.877000,1.7183,-3.0902,-0.9096,3.651
6.879000,1.6977,-3.0770,-0.7986,3.604
6.880000,1.6771,-3.0007,-0.6461,3.498
6.889000,1.6641,-2.8396,-0.4590,3.323
6.890000,1.6557,-2.6254,-0.2455,3.114
6.919000,1.6523,-2.3580,-0.0101,2.879
6.921000,1.6729,-2.0376,0.2326,2.647
6.922000,1.7316,-1.6932,0.4729,2.468
6.924000,1.8047,-1.3318,0.7298,2.359
6.925000,1.9130,-0.9374,0.9851,2.347
6.925000,2.0682,-0.5054,1.2363,2.462
6.926000,2.2220,-0.0457,1.4636,2.661
6.930000,2.4100,0.4413,1.6712,2.966
6.936000,2.6148,0.9386,1.8400,3.332
6.940000,2.7948,1.4333,1.9685,3.707
6.945000,2.9521,1.9134,2.0853,4.090
6.950000,3.0598,2.3570,2.1614,4.426
6.955000,3.0769,2.7401,2.1799,4.661
6.961000,3.0611,3.0509,2.1674,4.835
6.966000,2.9687,3.2679,2.1037,4.891
6.975000,2.7883,3.4080,2.0108,4.841
6.976000,2.5464,3.4814,1.8771,4.704
6.981000,2.2604,3.4790,1.7291,4.495
6.987000,1.9451,3.4346,1.5747,4.250
7.012000,1.6157,3.3349,1.4043,3.963
7.013000,1.2922,3.2283,1.2810,3.706
7.014000,0.9441,3.1154,1.2266,3.479
7.014000,0.6318,3.0231,1.2337,3.326
7.014000,0.3387,2.9612,1.2929,3.249
7.017000,0.0916,2.9160,1.4126,3.241
7.022000,-0.1219,2.9040,1.5403,3.289
7.025000,-0.2753,2.9109,1.6615,3.363
7.031000,-0.4097,2.9223,1.7500,3.431
7.036000,-0.5300,2.8969,1.8328,3.469
7.041000,-0.6672,2.8472,1.9211,3.499
7.046000,-0.8142,2.7754,2.0036,3.519
7.051000,-0.9636,2.6889,2.0969,3.543
7.057000,-1.1248,2.5663,2.2059,3.566
7.061000,-1.2763,2.4436,2.3739,3.638
7.066000,-1.4203,2.3285,2.5879,3.760
7.077000,-1.5494,2.2235,2.8335,3.921
7.079000,-1.6565,2.1386,3.1055,4.118
7.081000,-1.7248,2.0524,3.3869,4.320
7.086000,-1.7685,1.9556,3.6730,4.521
7.122000,-1.7827,1.8463,3.9296,4.693
7.125000,-1.7841,1.7344,4.1688,4.855
7.125000,-1.7704,1.6103,4.3785,4.990
7.126000,-1.7367,1.5174,4.5681,5.117
7.127000,-1.6638,1.4460,4.7331,5.221
7.128000,-1.5711,1.4203,4.8849,5.324
7.128000,-1.4658,1.3923,4.9952,5.389
7.129000,-1.3431,1.3571,5.0593,5.408
7.131000,-1.2196,1.3004,5.0776,5.382
7.136000,-1.1047,1.2270,5.0533,5.316
7.142000,-0.9647,1.1298,4.9917,5.208
7.146000,-0.8162,1.0017,4.9076,5.075
7.150000,-0.6398,0.8545,4.8397,4.956
7.156000,-0.4356,0.7076,4.7594,4.831
7.161000,-0.1917,0.5514,4.6428,4.679
7.165000,0.1253,0.4214,4.5043,4.526
7.171000,0.5008,0.2960,4.3300,4.369
7.176000,0.9345,0.2270,4.1226,4.233
7.181000,1.3663,0.1925,3.9209,4.157
7.186000,1.8008,0.1871,3.7396,4.155
7.190000,2.2212,0.1987,3.5722,4.211
7.196000,2.6585,0.2555,3.4233,4.342
7.201000,3.1459,0.3596,3.2814,4.560
7.216000,3.6856,0.5057,3.1083,4.848
7.218000,4.2173,0.7027,2.8998,5.166
7.218000,4.7504,0.9212,2.6686,5.526
7.223000,5.2963,1.1843,2.4195,5.942
7.249000,5.8378,1.4554,2.1699,6.396
7.250000,6.3744,1.6857,1.9371,6.872
7.251000,6.8820,1.8507,1.7881,7.347
7.251000,7.3436,1.9429,1.7353,7.792
7.252000,7.7066,1.9718,1.7494,8.145
7.252000,7.9426,1.9519,1.8709,8.390
7.262000,8.0662,1.8692,2.0777,8.537
7.263000,8.0517,1.6910,2.3449,8.555
7.267000,7.9263,1.3825,2.6602,8.474
7.271000,7.7532,0.9553,2.9503,8.350
7.275000,7.5811,0.4346,3.2603,8.264
7.280000,7.4344,-0.1161,3.6107,8.266
7.286000,7.2771,-0.6645,4.0019,8.331
7.291000,7.0923,-1.1836,4.3656,8.412
7.297000,6.9032,-1.6386,4.6633,8.490
7.302000,6.6709,-2.0390,4.8075,8.472
7.307000,6.3949,-2.3390,4.8260,8.346
7.312000,6.1037,-2.5073,4.7541,8.133
7.317000,6.0936,-2.5367,4.6563,8.078
7.345000,5.5225,-2.4629,4.5012,7.538
7.347000,5.3143,-2.2886,4.2891,7.202
7.348000,5.1981,-2.0284,3.9890,6.859
7.348000,5.2237,-1.7096,3.6182,6.580
7.349000,5.3190,-1.3808,3.1847,6.351
7.349000,5.4309,-1.0336,2.7705,6.184
7.351000,5.5232,-0.6549,2.3953,6.056
7.356000,5.5717,-0.2907,2.0425,5.941
7.361000,5.5594,0.0680,1.7309,5.823
7.366000,5.5221,0.4110,1.4607,5.727
7.371000,5.4930,0.7165,1.1908,5.666
7.376000,5.4726,0.9598,0.9132,5.631
7.381000,5.4728,1.1334,0.6163,5.623
7.387000,5.4556,1.2441,0.3655,5.608
7.391000,5.4498,1.3056,0.0850,5.605
7.396000,5.4363,1.3440,-0.2298,5.605
7.401000,5.4012,1.3802,-0.5649,5.603
7.407000,5.3541,1.4042,-0.8935,5.607
7.412000,5.2618,1.4322,-1.2267,5.589
7.416000,5.1077,1.4066,-1.5347,5.516
7.425000,4.8635,1.3079,-1.8095,5.352
7.428000,4.5330,1.1322,-2.0561,5.105
7.431000,4.1165,0.8680,-2.2477,4.770
7.468000,3.6652,0.5498,-2.3787,4.404
7.469000,3.2060,0.2167,-2.4369,4.033
7.469000,2.7797,-0.1163,-2.4560,3.711
7.470000,2.3920,-0.4264,-2.4446,3.447
7.470000,2.0858,-0.7134,-2.4389,3.288
7.472000,1.8827,-0.9530,-2.4914,3.265
7.473000,1.7681,-1.1547,-2.5781,3.333
7.473000,1.7033,-1.3190,-2.6489,3.414
7.476000,1.6813,-1.4670,-2.6436,3.459
7.482000,1.6633,-1.5632,-2.6110,3.468
7.487000,1.6491,-1.6198,-2.5589,3.448
7.493000,1.6503,-1.6156,-2.4972,3.401
7.497000,1.6952,-1.5611,-2.3904,3.320
7.501000,1.8124,-1.4823,-2.2437,3.243
7.506000,1.9797,-1.3734,-2.0509,3.164
7.511000,2.1104,-1.2326,-1.8630,3.073
7.518000,2.1947,-1.0729,-1.7092,2.981
7.523000,2.2035,-0.9455,-1.5585,2.860
7.527000,2.1037,-0.8858,-1.3830,2.669
7.531000,1.8978,-0.9083,-1.1804,2.413
7.551000,1.5983,-1.0341,-0.9683,2.136
7.551000,1.1934,-1.2503,-0.7640,1.890
7.552000,0.6742,-1.4913,-0.5280,1.720
7.552000,0.0504,-1.7157,-0.2852,1.740
7.562000,-0.5742,-1.8994,-0.0438,1.985
7.563000,-1.1663,-2.0449,0.1479,2.359
7.568000,-1.7041,-2.1585,0.2923,2.766
7.572000,-2.2259,-2.2801,0.3678,3.208
7.577000,-2.7435,-2.3933,0.3745,3.660
7.582000,-3.2494,-2.4721,0.3200,4.095
7.588000,-3.7197,-2.5502,0.2572,4.517
7.592000,-4.1544,-2.6033,0.1961,4.907
7.597000,-4.5414,-2.6262,0.1109,5.247
7.602000,-4.8786,-2.6314,0.0496,5.543
7.609000,-5.1658,-2.6153,-0.0039,5.790
7.612000,-5.3983,-2.5877,-0.0014,5.987
7.617000,-5.5477,-2.5656,0.0572,6.112
7.624000,-5.6739,-2.5444,0.1263,6.220
7.628000,-5.7915,-2.5292,0.2204,6.323
7.632000,-5.8740,-2.5264,0.3352,6.403
7.674000,-5.9480,-2.5389,0.4634,6.484
7.675000,-6.0136,-2.5812,0.5766,6.569
7.676000,-6.0492,-2.6293,0.7012,6.633
7.676000,-6.0647,-2.6884,0.8464,6.688
7.676000,-6.0505,-2.7413,0.9814,6.715
7.677000,-6.0427,-2.8172,1.0915,6.756
7.678000,-6.0340,-2.8993,1.2103,6.803
7.678000,-6.0175,-2.9926,1.3257,6.850
7.681000,-5.9979,-3.0928,1.4093,6.894
7.682000,-6.0014,-3.1849,1.4599,6.949
7.689000,-6.0137,-3.2670,1.5065,7.008
7.693000,-6.0370,-3.3557,1.5523,7.079
7.698000,-6.0523,-3.4344,1.5881,7.138
7.703000,-6.0810,-3.5174,1.5736,7.199
7.707000,-6.1279,-3.6138,1.5313,7.277
7.713000,-6.1762,-3.7187,1.4878,7.361
7.718000,-6.1972,-3.8081,1.4383,7.415
7.724000,-6.2150,-3.8890,1.3945,7.463
7.728000,-6.1578,-3.9593,1.3564,7.445
7.732000,-6.0904,-4.0426,1.3000,7.425
7.750000,-6.0319,-4.1247,1.2299,7.410
7.751000,-5.9799,-4.2033,1.1654,7.402
7.751000,-5.9058,-4.2735,1.1302,7.377
7.752000,-5.8096,-4.3472,1.1000,7.339
7.761000,-5.7057,-4.4316,1.0866,7.306
7.762000,-5.5774,-4.5289,1.0681,7.264
7.768000,-5.4533,-4.6580,1.0349,7.246
7.772000,-5.3310,-4.8307,0.9817,7.261
7.778000,-5.2105,-4.9963,0.8800,7.272
7.782000,-5.0679,-5.1551,0.7941,7.272
7.787000,-4.9174,-5.2850,0.7186,7.255
7.792000,-4.7255,-5.3767,0.6819,7.191
7.797000,-4.4924,-5.4421,0.6447,7.086
7.802000,-4.2085,-5.4859,0.5967,6.940
7.808000,-3.8620,-5.4987,0.4920,6.737
7.812000,-3.4625,-5.4982,0.3369,6.506
7.817000,-2.9934,-5.4608,0.1477,6.229
7.823000,-2.4574,-5.4111,-0.0929,5.944
7.829000,-1.9025,-5.3429,-0.3805,5.684
7.832000,-1.8883,-5.2660,-0.7346,5.642
7.838000,-0.8673,-5.1796,-1.1333,5.373
7.842000,-0.4212,-5.0455,-1.5407,5.292
7.848000,-0.0115,-4.8956,-1.9544,5.271
7.853000,0.3498,-4.7713,-2.3742,5.341
7.863000,0.7058,-4.7177,-2.7808,5.522
7.865000,1.0086,-4.7836,-3.1277,5.804
7.868000,1.2418,-4.9344,-3.3626,6.099
7.908000,1.4103,-5.1238,-3.5312,6.381
7.910000,1.5384,-5.3370,-3.6146,6.627
7.910000,1.6263,-5.5399,-3.6175,6.813
7.911000,1.6597,-5.7066,-3.5678,6.932
7.912000,1.6271,-5.8362,-3.4341,6.964
7.913000,1.5693,-5.9144,-3.2781,6.942
7.913000,1.4531,-5.9575,-3.1257,6.883
7.914000,1.3338,-5.9746,-2.9715,6.805
7.914000,1.2448,-5.9545,-2.8330,6.711
7.917000,1.1551,-5.9304,-2.7234,6.627
7.924000,1.0671,-5.8804,-2.5887,6.513
7.928000,1.0194,-5.8141,-2.4397,6.387
7.933000,0.9903,-5.7263,-2.2803,6.243
7.939000,1.0034,-5.6134,-2.1139,6.082
7.943000,1.0802,-5.4464,-1.9230,5.876
7.948000,1.2157,-5.1900,-1.7239,5.602
7.959000,1.4478,-4.8185,-1.4994,5.250
7.961000,1.7331,-4.3564,-1.2807,4.860
7.963000,2.0637,-3.8322,-1.0109,4.468
7.970000,2.3889,-3.2775,-0.7478,4.124
8.001000,2.7034,-2.7388,-0.4903,3.879
8.004000,2.9590,-2.2506,-0.2821,3.728
8.005000,3.1364,-1.8225,-0.1283,3.630
8.005000,3.1947,-1.4814,0.0039,3.521
8.006000,3.1392,-1.2145,0.1449,3.369
8.008000,3.0133,-1.0520,0.3104,3.207
8.009000,2.8461,-0.9596,0.5277,3.049
8.009000,2.6596,-0.9313,0.8287,2.937
8.013000,2.4712,-0.9300,1.1810,2.892
8.018000,2.3120,-0.9196,1.5443,2.928
8.023000,2.1726,-0.8752,1.8539,2.987
8.030000,2.0678,-0.8085,2.1381,3.082
8.033000,1.9927,-0.6904,2.3490,3.157
8.039000,1.9286,-0.5850,2.4535,3.175
8.043000,1.9086,-0.4641,2.5016,3.181
8.050000,1.9424,-0.3130,2.4526,3.144
8.054000,2.0345,-0.1488,2.2970,3.072
8.059000,2.1749,0.0421,2.0537,2.992
8.063000,2.3084,0.2237,1.7063,2.879
8.070000,2.3888,0.3801,1.3148,2.753
8.076000,2.3801,0.4947,0.9057,2.594
8.079000,2.2920,0.5170,0.4841,2.399
8.083000,2.1340,0.4831,0.0522,2.189
8.119000,1.9163,0.4176,-0.3658,1.995
8.120000,1.7007,0.3725,-0.7550,1.898
8.122000,1.5018,0.3938,-1.1055,1.906
8.124000,1.2911,0.4908,-1.4046,1.970
8.124000,1.0827,0.6632,-1.6371,2.072
8.125000,0.8719,0.8655,-1.8071,2.185
8.125000,0.6608,1.0565,-1.9161,2.286
8.126000,0.4375,1.2339,-1.9756,2.370
8.128000,0.2212,1.3908,-1.9495,2.405
8.133000,0.0239,1.5150,-1.8591,2.398
8.140000,-0.1544,1.6141,-1.7644,2.396
8.142000,-0.3285,1.7162,-1.6075,2.374
8.148000,-0.4741,1.8217,-1.4124,2.353
8.154000,-0.6178,1.9352,-1.2222,2.371
8.160000,-0.7380,2.0448,-1.0204,2.401
8.165000,-0.8753,2.1126,-0.7978,2.422
8.178000,-0.8504,2.1598,-0.5813,2.393
8.179000,-1.1250,2.2132,-0.3928,2.514
8.180000,-1.2395,2.2560,-0.2614,2.587
8.219000,-1.3567,2.2908,-0.1632,2.667
8.220000,-1.4883,2.3249,-0.0791,2.762
8.222000,-1.6131,2.3533,-0.0116,2.853
8.223000,-1.7547,2.3765,0.0395,2.954
8.223000,-1.8986,2.4183,0.0839,3.076
8.223000,-2.0399,2.4502,0.0979,3.190
8.224000,-2.1617,2.4773,0.1175,3.290
8.224000,-2.2666,2.4897,0.1454,3.370
8.225000,-2.3496,2.5308,0.1669,3.457
8.228000,-2.4109,2.5596,0.1748,3.521
8.233000,-2.4673,2.5930,0.1715,3.583
8.239000,-2.5283,2.6022,0.1598,3.632
8.247000,-2.5913,2.6114,0.1637,3.683
8.249000,-2.6540,2.6156,0.1642,3.730
8.255000,-2.6876,2.6222,0.1685,3.759
8.258000,-2.7232,2.6168,0.1769,3.781
8.264000,-2.7344,2.5875,0.1846,3.769
8.268000,-2.7473,2.5560,0.1991,3.758
8.272000,-2.7573,2.5223,0.2299,3.744
8.277000,-2.7544,2.4818,0.2888,3.719
8.282000,-2.7482,2.4513,0.3544,3.700
8.299000,-2.7148,2.4020,0.4314,3.650
8.300000,-2.6730,2.3582,0.5247,3.603
8.300000,-2.6209,2.3172,0.6265,3.554
8.303000,-2.5629,2.2551,0.7443,3.494
8.309000,-2.4871,2.1601,0.8851,3.411
8.315000,-2.4030,2.0441,1.0389,3.321
8.318000,-2.3175,1.9053,1.2031,3.232
8.325000,-2.2238,1.7911,1.3555,3.161
8.329000,-2.1121,1.6826,1.4984,3.088
8.333000,-2.0063,1.5820,1.6485,3.041
8.339000,-1.9089,1.4896,1.7961,3.015
8.342000,-1.8051,1.3695,1.9268,2.974
8.348000,-1.6833,1.2288,2.0234,2.905
8.353000,-1.5670,1.0464,2.1079,2.827
8.357000,-1.4727,0.8296,2.2183,2.789
8.363000,-1.3738,0.6074,2.3521,2.791
8.368000,-1.2818,0.3802,2.5022,2.837
8.375000,-1.1612,0.1382,2.6867,2.930
8.378000,-1.0042,-0.1348,2.9127,3.084
8.383000,-0.8489,-0.4265,3.2034,3.341
8.394000,-0.6662,-0.6838,3.5363,3.663
8.395000,-0.4511,-0.8777,3.8938,4.017
8.398000,-0.2524,-1.0186,4.2434,4.371
8.404000,-0.0410,-1.0893,4.5273,4.657
8.408000,0.0372,-1.1044,4.7265,4.854
8.413000,0.4465,-1.0857,4.8412,4.981
8.418000,0.7377,-1.0494,4.8742,5.040
8.423000,1.0915,-0.9729,4.8399,5.056
8.431000,1.5419,-0.8654,4.7866,5.103
8.433000,2.0810,-0.7349,4.6852,5.179
8.438000,2.7102,-0.5797,4.5190,5.301
8.443000,3.3694,-0.4096,4.3212,5.495
8.448000,4.0274,-0.2576,4.1015,5.754
8.454000,4.6623,-0.1428,3.8263,6.033
8.460000,5.2325,-0.0540,3.5051,6.298
8.465000,5.7256,0.0206,3.1382,6.529
8.471000,6.1561,0.0858,2.7094,6.726
8.474000,6.5537,0.1548,2.2274,6.924
8.479000,6.8709,0.1895,1.7193,7.085
8.483000,7.0169,0.1923,1.2243,7.125
8.489000,6.6265,0.0225,0.8341,6.679
8.493000,6.5174,-0.1110,0.3625,6.528
8.499000,6.6130,-0.2295,-0.0820,6.617
8.509000,6.9593,-0.2574,-0.4572,6.979
8.510000,7.4430,-0.2573,-0.7941,7.490
8.513000,7.9697,-0.2224,-1.1083,8.049
8.518000,8.4521,-0.1460,-1.3776,8.565
8.538000,8.8733,-0.0640,-1.6522,9.026
8.538000,9.2325,0.0114,-1.9169,9.429
8.539000,9.5179,0.0947,-2.1502,9.758
8.539000,9.7463,0.1597,-2.3565,10.028
8.544000,9.9151,0.1923,-2.4946,10.226
8.549000,9.9935,0.1948,-2.5215,10.309
8.555000,9.9644,0.1719,-2.4032,10.252
8.558000,9.8257,0.1479,-2.1164,10.052
8.564000,9.5947,0.1204,-1.6763,9.741
8.568000,9.2791,0.0875,-1.1418,9.350
8.573000,8.9753,0.0806,-0.5308,8.991
8.579000,8.6910,0.0905,0.0974,8.692
8.583000,8.4360,0.1580,0.6362,8.461
8.593000,8.2512,0.2642,1.0867,8.327
8.594000,8.2152,0.3779,1.4839,8.357
8.602000,8.0452,0.4798,1.7695,8.251
8.604000,8.0092,0.5723,1.9672,8.267
8.623000,7.9987,0.6216,2.0694,8.285
8.625000,7.9512,0.5986,2.0884,8.243
8.625000,7.8665,0.5414,2.0749,8.154
8.626000,7.7251,0.4641,2.0336,8.002
8.629000,7.5254,0.3620,1.9412,7.780
8.634000,7.2387,0.2683,1.8004,7.464
8.639000,6.8896,0.1662,1.6117,7.078
8.644000,6.4952,0.0630,1.3809,6.641
8.653000,6.1013,-0.0393,1.1180,6.203
8.655000,5.7307,-0.1615,0.8243,5.792
8.659000,5.4168,-0.3112,0.5125,5.450
8.663000,5.1335,-0.4981,0.2385,5.163
8.669000,4.8666,-0.7173,-0.0065,4.919
8.674000,4.6259,-0.9401,-0.2341,4.726
8.679000,4.3801,-1.1623,-0.4199,4.551
8.684000,4.1186,-1.3686,-0.5632,4.376
8.690000,3.8510,-1.5402,-0.6567,4.199
8.695000,3.5534,-1.6963,-0.7027,4.000
8.699000,2.8698,-2.0904,0.0534,3.551
8.713000,1.9877,-2.3898,0.9157,3.240
8.715000,1.6470,-2.3931,0.6909,2.986
8.716000,1.6907,-2.2905,0.2450,2.857
8.757000,1.7562,-2.1954,-0.0832,2.813
8.759000,1.5654,-2.1374,-0.2633,2.662
8.760000,1.1157,-2.0741,-0.1962,2.363
8.760000,0.5603,-2.0365,0.0424,2.113
8.761000,0.0984,-2.0265,0.3031,2.051
8.761000,-0.2243,-2.0388,0.4737,2.105
8.762000,-0.4946,-2.0522,0.6004,2.195
8.762000,-0.7493,-2.0750,0.7072,2.317
8.763000,-1.0272,-2.0979,0.8297,2.479
8.764000,-1.3044,-2.1038,0.9890,2.666
8.769000,-1.5665,-2.0976,1.1343,2.853
8.774000,-1.7922,-2.0744,1.2818,3.026
8.779000,-2.0082,-2.0346,1.4031,3.185
8.784000,-2.2328,-2.0082,1.5147,3.363
8.789000,-2.4521,-1.9931,1.6454,3.563
8.794000,-2.6492,-1.9820,1.7950,3.764
8.799000,-2.8268,-1.9531,1.9536,3.952
8.813000,-2.9734,-1.8976,2.0682,4.089
8.826000,-3.0358,-1.8502,2.1554,4.158
8.827000,-3.1461,-1.7782,2.2155,4.239
8.828000,-3.1900,-1.7417,2.2628,4.281
8.829000,-3.3158,-1.7576,2.3475,4.427
8.830000,-3.5906,-1.8140,2.4670,4.719
8.836000,-3.8746,-1.8853,2.5654,5.015
8.856000,-4.1679,-1.9571,2.6501,5.313
8.857000,-4.3964,-2.0051,2.6873,5.529
8.857000,-4.5551,-2.0052,2.6700,5.648
8.858000,-4.6160,-2.0034,2.6108,5.669
8.860000,-4.6242,-2.0038,2.5457,5.646
8.864000,-4.6256,-2.0021,2.4559,5.607
8.870000,-4.6349,-2.0323,2.3536,5.581
8.874000,-4.6497,-2.0920,2.2341,5.567
8.880000,-4.6848,-2.1508,2.0879,5.562
8.885000,-4.7184,-2.2078,1.9197,5.552
8.889000,-4.7506,-2.2540,1.7464,5.541
8.894000,-4.7863,-2.2894,1.5443,5.526
8.899000,-4.7180,-2.2878,1.3112,5.405
8.908000,-4.6156,-2.2765,1.0953,5.262
8.910000,-4.7155,-2.3794,0.9280,5.363
8.914000,-4.8955,-2.5051,0.7639,5.552
8.919000,-5.1075,-2.6556,0.6104,5.789
8.944000,-5.3297,-2.8112,0.4722,6.044
8.945000,-5.5381,-2.9502,0.3519,6.285
8.947000,-5.6847,-3.0643,0.2372,6.462
8.947000,-5.7957,-3.1322,0.1453,6.590
8.948000,-5.8689,-3.1560,0.0713,6.664
8.949000,-5.9498,-3.1716,0.0535,6.743
8.954000,-6.0001,-3.1885,0.0490,6.795
8.959000,-6.0605,-3.2285,0.0674,6.867
8.964000,-6.0904,-3.2716,0.0726,6.914
8.970000,-6.0945,-3.3397,0.0911,6.950
8.974000,-6.0372,-3.4255,0.1203,6.942
8.979000,-5.9495,-3.5170,0.1818,6.914
8.984000,-5.8365,-3.6167,0.2586,6.871
8.989000,-5.6671,-3.7151,0.3479,6.785
8.994000,-5.5325,-3.8484,0.4545,6.755
8.999000,-5.3727,-3.9807,0.5688,6.711
9.005000,-5.2119,-4.1145,0.6740,6.674
9.009000,-5.0811,-4.2545,0.8009,6.675
9.014000,-4.9779,-4.3864,0.9206,6.698
9.030000,-4.8520,-4.5051,1.0188,6.699
9.032000,-4.7322,-4.6082,1.1073,6.697
9.032000,-4.6302,-4.7174,1.1839,6.715
9.034000,-4.5366,-4.8157,1.2464,6.732
9.065000,-4.4392,-4.9223,1.2758,6.750
9.066000,-4.3403,-5.0324,1.2773,6.767
9.067000,-4.2519,-5.1506,1.2584,6.796
9.068000,-4.1236,-5.2363,1.2189,6.776
9.068000,-4.0223,-5.3278,1.1927,6.781
9.068000,-3.8979,-5.3942,1.1793,6.759
9.074000,-3.7313,-5.4259,1.1833,6.691
9.075000,-3.5561,-5.4353,1.2355,6.612
9.079000,-3.3725,-5.4537,1.2775,6.538
9.086000,-3.1423,-5.4717,1.3163,6.446
9.089000,-2.9401,-5.5426,1.3604,6.420
9.095000,-2.7494,-5.6211,1.3784,6.408
9.099000,-2.5846,-5.7338,1.3649,6.436
9.104000,-2.4458,-5.8591,1.2932,6.479
9.109000,-2.3401,-6.0089,1.1705,6.554
9.114000,-2.3204,-6.1858,1.0106,6.684
9.126000,-2.3862,-6.3728,0.8282,6.855
9.128000,-2.5300,-6.5574,0.5971,7.054
9.130000,-2.7130,-6.7199,0.3489,7.255
9.135000,-2.8892,-6.8644,0.0841,7.448
9.171000,-3.0966,-7.0412,-0.1796,7.694
9.172000,-3.2866,-7.2491,-0.4392,7.971
9.172000,-3.4129,-7.4518,-0.6700,8.224
9.173000,-3.4776,-7.6654,-0.8644,8.462
9.173000,-3.4750,-7.8889,-1.0123,8.680
9.174000,-3.3765,-8.1015,-1.0942,8.845
9.175000,-3.1981,-8.2809,-1.0527,8.939
9.176000,-2.9611,-8.3771,-0.9262,8.933
9.179000,-2.6772,-8.4094,-0.7367,8.856
9.184000,-2.3918,-8.3758,-0.4894,8.724
9.191000,-2.0968,-8.2878,-0.2014,8.551
9.195000,-1.7332,-8.1041,0.0717,8.288
9.199000,-1.2816,-7.8178,0.3129,7.928
9.205000,-0.7566,-7.4680,0.5313,7.525
9.210000,-0.1707,-7.0916,0.7314,7.131
9.215000,0.4165,-6.6986,0.9027,6.772
9.221000,1.0027,-6.3203,1.0038,6.478
9.225000,1.6095,-5.9378,1.0273,6.237
9.230000,2.2170,-5.5112,1.0854,6.039
9.235000,2.8051,-5.0490,1.1439,5.888
9.241000,3.3259,-4.5728,1.1716,5.774
9.245000,3.7694,-4.0923,1.2046,5.693
9.250000,4.1074,-3.5976,1.2213,5.595
9.262000,4.3747,-3.0844,1.2289,5.492
9.264000,4.5854,-2.5676,1.1824,5.387
9.267000,4.7179,-2.0753,1.1173,5.274
9.302000,4.8133,-1.6281,1.0532,5.189
9.303000,4.8600,-1.2302,0.9610,5.105
9.304000,4.8744,-0.9100,0.8384,5.029
9.304000,4.8896,-0.6124,0.6999,4.977
9.306000,4.9324,-0.3607,0.5261,4.973
9.307000,4.9984,-0.1394,0.2918,5.009
9.307000,5.0615,0.0617,0.0569,5.062
9.308000,5.1215,0.2427,-0.2450,5.133
9.310000,5.1494,0.4299,-0.6348,5.206
9.315000,5.1456,0.6261,-1.0612,5.291
9.321000,5.0921,0.8354,-1.4552,5.361
9.325000,4.9657,1.0513,-1.8403,5.399
9.330000,4.7784,1.2787,-2.2058,5.416
9.335000,4.5333,1.5228,-2.5340,5.412
9.340000,4.2406,1.7365,-2.7935,5.367
9.345000,3.9028,1.9414,-2.9637,5.271
9.350000,3.5639,2.1598,-3.0304,5.153
9.360000,3.2462,2.3683,-2.9960,5.012
9.361000,2.9622,2.5529,-2.8513,4.840
9.365000,2.7221,2.7310,-2.6258,4.665
9.404000,2.5090,2.8907,-2.3723,4.503
9.406000,2.3332,3.0347,-2.0988,4.366
9.406000,2.2138,3.1895,-1.8229,4.289
9.406000,2.1532,3.3337,-1.5545,4.262
9.407000,2.1371,3.4770,-1.3303,4.293
9.407000,2.1435,3.5857,-1.1070,4.322
9.408000,2.1699,3.7005,-0.8902,4.381
9.408000,2.2111,3.8262,-0.7089,4.476
9.411000,2.2552,3.9602,-0.5514,4.591
9.415000,2.2899,4.1144,-0.3940,4.725
9.421000,2.3080,4.2554,-0.2538,4.848
9.425000,2.3066,4.4021,-0.1597,4.972
9.430000,2.3097,4.5115,-0.1070,5.069
9.435000,2.3026,4.6218,-0.1150,5.165
9.440000,2.3093,4.7329,-0.1690,5.269
9.445000,2.3152,4.8426,-0.2308,5.373
9.450000,2.3105,4.9338,-0.3047,5.456
9.458000,2.2951,5.0162,-0.4051,5.531
9.461000,2.2450,5.0753,-0.5507,5.577
9.465000,2.2079,5.1256,-0.7005,5.625
9.498000,2.2027,5.1382,-0.8377,5.653
9.499000,2.1861,5.1394,-0.9762,5.670
9.500000,2.1677,5.1101,-1.0799,5.655
9.501000,2.1236,5.0646,-1.1895,5.619
9.501000,2.0589,4.9673,-1.2783,5.527
9.502000,1.9857,4.8372,-1.3229,5.394
9.504000,1.9166,4.6771,-1.3852,5.241
9.508000,1.8443,4.5109,-1.4223,5.077
9.510000,1.7693,4.3339,-1.4176,4.891
9.516000,1.6561,4.1702,-1.3688,4.691
9.521000,1.5332,3.9934,-1.2880,4.467
9.525000,1.3969,3.8110,-1.2087,4.235
9.531000,1.2473,3.5968,-1.1765,3.985
9.535000,1.0943,3.3677,-1.1551,3.725
9.541000,0.9456,3.1096,-1.1182,3.437
9.546000,0.7850,2.8133,-1.1040,3.122
9.551000,0.5897,2.5128,-1.1720,2.835
9.562000,0.4009,2.2037,-1.2619,2.571
9.566000,0.2168,1.9006,-1.3255,2.327
9.568000,0.0143,1.6183,-1.3175,2.087
9.608000,-0.1989,1.3381,-1.2499,1.842
9.608000,-0.4192,1.0272,-1.1281,1.582
9.609000,-0.6315,0.7145,-1.0002,1.382
9.609000,-0.8423,0.3983,-0.8711,1.275
9.610000,-1.0460,0.0838,-0.7313,1.279
9.611000,-1.2063,-0.2024,-0.6046,1.364
9.611000,-1.3296,-0.4505,-0.4626,1.478
9.612000,-1.4109,-0.6698,-0.2437,1.581
9.612000,-1.4642,-0.8962,0.0181,1.717
9.616000,-1.4938,-1.1342,0.3007,1.900
9.621000,-1.4868,-1.3405,0.5724,2.082
9.627000,-1.4099,-1.4987,0.7824,2.201
9.631000,-1.2458,-1.5584,0.9664,2.217
9.635000,-0.9782,-1.4701,1.1454,2.105
9.641000,-0.5674,-1.2729,1.2616,1.880
9.646000,-0.0075,-1.0086,1.2505,1.607
9.655000,0.7028,-0.6849,1.1582,1.518
9.656000,1.4602,-0.3537,1.0185,1.815
9.661000,2.2037,-0.0491,0.8319,2.356
9.667000,2.9104,0.2044,0.6033,2.979
9.671000,3.6125,0.4252,0.3617,3.655
9.678000,4.3523,0.6324,0.1167,4.400
9.681000,5.0955,0.8128,-0.1819,5.163
9.687000,5.8126,0.9424,-0.4857,5.909
9.697000,6.1154,0.9087,-0.7300,6.225
9.699000,6.2798,0.8032,-0.9625,6.404
9.743000,6.6843,0.7649,-1.1257,6.821
9.744000,7.2477,0.7503,-1.2076,7.386
9.744000,7.8973,0.7807,-1.2754,8.038
9.745000,8.5144,0.8249,-1.3937,8.667
9.745000,9.0720,0.8946,-1.5169,9.241
9.746000,9.5409,0.9444,-1.6405,9.727
9.746000,9.8985,0.9862,-1.8051,10.110
9.747000,10.1212,0.9986,-2.0392,10.373
9.747000,10.1924,1.0057,-2.2747,10.491
9.749000,10.1028,1.0052,-2.4364,10.441
9.751000,9.8771,0.9640,-2.4830,10.230
9.757000,9.5449,0.9086,-2.4380,9.893
9.762000,9.1528,0.8488,-2.3227,9.481
9.767000,8.7810,0.7755,-2.2160,9.089
9.774000,8.4445,0.6791,-2.1364,8.737
9.776000,8.1843,0.5599,-2.1003,8.468
9.782000,8.0105,0.3822,-2.0978,8.289
9.787000,7.9492,0.1553,-2.0807,8.218
9.813000,7.9953,-0.1016,-2.0757,8.261
9.814000,8.0766,-0.3887,-2.0927,8.352
9.815000,8.1420,-0.7161,-2.0697,8.431
9.815000,8.1636,-1.0549,-1.9837,8.467
9.816000,8.0932,-1.4341,-1.8760,8.431
9.816000,7.9266,-1.8083,-1.7188,8.310
9.823000,7.6692,-2.1537,-1.5559,8.116
9.826000,7.3162,-2.4250,-1.3733,7.829
9.831000,6.8505,-2.5837,-1.1650,7.414
9.836000,6.2602,-2.6536,-0.8332,6.850
9.842000,5.4296,-2.7329,0.1319,6.080
9.846000,4.4874,-2.7033,1.1401,5.361
9.851000,3.7982,-2.5409,1.4372,4.790
9.856000,3.4084,-2.3335,1.3338,4.341
9.861000,3.1948,-2.1747,1.1973,4.046
9.867000,3.0161,-2.0669,1.1570,3.835
9.873000,2.8099,-2.0005,1.1933,3.650
9.876000,2.6259,-1.9373,1.2415,3.491
9.881000,2.5531,-1.8557,1.2209,3.384
9.887000,2.5475,-1.7656,1.0803,3.282
9.891000,2.5486,-1.6530,0.9044,3.169
9.897000,2.4532,-1.5205,0.7205,2.975
9.901000,2.2831,-1.3779,0.5772,2.728
9.912000,2.1168,-1.2349,0.4676,2.495
9.920000,1.9433,-1.1127,0.3899,2.273
9.921000,1.7762,-1.0379,0.2799,2.076
9.921000,1.5963,-1.0058,0.1790,1.895
9.957000,1.4133,-1.0403,0.0927,1.757
9.958000,1.2221,-1.1009,0.0312,1.645
9.958000,1.0048,-1.1964,0.0353,1.563
9.959000,0.8186,-1.3317,0.0789,1.565
9.959000,0.6469,-1.4876,0.1284,1.627
9.959000,0.4349,-1.6759,0.2126,1.744
9.959000,0.2232,-1.8681,0.3193,1.908
9.962000,-0.0037,-2.0392,0.4625,2.091
9.966000,-0.2435,-2.1988,0.6325,2.301
9.972000,-0.4862,-2.3373,0.8793,2.544
9.978000,-0.7222,-2.4617,1.1377,2.806
9.981000,-0.9637,-2.5960,1.4073,3.106
9.986000,-1.2525,-2.7178,1.6990,3.441
9.992000,-1.5791,-2.8222,1.9697,3.787
9.997000,-1.9430,-2.8871,2.2166,4.126
10.001000,-2.2600,-2.9099,2.5042,4.455
10.026000,-2.5618,-2.8715,2.8269,4.775
10.028000,-2.8451,-2.7784,3.1287,5.060
10.028000,-3.1199,-2.6571,3.3883,5.317
10.029000,-3.3766,-2.4930,3.6200,5.543
10.029000,-3.5815,-2.3002,3.8283,5.725
10.032000,-3.7352,-2.0935,3.9676,5.838
10.037000,-3.8135,-1.8912,4.0590,5.882
10.042000,-3.8672,-1.6796,4.0857,5.871
10.046000,-3.8920,-1.4710,4.0792,5.827
10.052000,-3.8739,-1.2511,4.0419,5.737
10.057000,-3.8135,-1.0253,3.9790,5.606
10.062000,-3.7441,-0.8222,3.9238,5.485
10.066000,-3.6761,-0.6255,3.8404,5.353
10.072000,-3.6336,-0.4548,3.7410,5.235
10.077000,-3.6097,-0.2960,3.6591,5.148
10.082000,-3.6119,-0.1373,3.5423,5.061
10.087000,-3.6328,0.0381,3.4072,4.981
10.092000,-3.6821,0.1893,3.2374,4.907
10.098000,-3.7455,0.3164,3.0642,4.850
10.102000,-3.8158,0.4240,2.9024,4.813
10.114000,-3.8834,0.4979,2.7424,4.780
10.116000,-3.9603,0.5570,2.5820,4.760
10.119000,-4.0678,0.5685,2.4310,4.773
10.154000,-4.1914,0.5538,2.2632,4.795
10.155000,-4.3166,0.5324,2.1049,4.832
10.156000,-4.4362,0.5305,1.9392,4.870
10.156000,-4.5622,0.5171,1.8094,4.935
10.157000,-4.6678,0.5286,1.6917,4.993
10.158000,-4.7556,0.5528,1.6028,5.049
10.158000,-4.8449,0.5635,1.5454,5.117
10.160000,-4.9282,0.5750,1.4908,5.181
10.162000,-5.0083,0.5825,1.4320,5.241
10.168000,-5.0703,0.5793,1.3788,5.286
10.173000,-5.1216,0.5604,1.3242,5.320
10.177000,-5.1789,0.5021,1.2780,5.358
10.182000,-5.2278,0.4259,1.2307,5.388
10.189000,-5.2587,0.3368,1.1776,5.399
10.192000,-5.2692,0.2303,1.1045,5.389
10.197000,-5.2736,0.0965,1.0258,5.373
10.202000,-5.2745,-0.0860,0.9513,5.360
10.208000,-5.3053,-0.3098,0.8904,5.388
10.212000,-5.3418,-0.5652,0.8720,5.442
10.217000,-5.3910,-0.8061,0.8744,5.521
10.226000,-5.4287,-1.0252,0.8930,5.596
10.228000,-5.4500,-1.2224,0.9138,5.660
10.232000,-5.4452,-1.4070,0.9586,5.705
10.264000,-5.4117,-1.6049,1.0348,5.739
10.266000,-5.3493,-1.8231,1.1467,5.767
10.266000,-5.2725,-2.0232,1.2966,5.794
10.268000,-5.1357,-2.2053,1.4531,5.775
10.269000,-4.9845,-2.3598,1.6329,5.752
10.270000,-4.7926,-2.4917,1.8214,5.700
10.270000,-4.5819,-2.6013,1.9747,5.627
10.274000,-4.3403,-2.6886,2.1099,5.524
10.279000,-4.0801,-2.7612,2.2409,5.412
10.282000,-3.7751,-2.8264,2.3937,5.289
10.288000,-3.4543,-2.9205,2.5274,5.182
10.292000,-3.1301,-3.0199,2.6336,5.085
10.298000,-2.7643,-3.1177,2.7432,4.989
10.302000,-2.3647,-3.1976,2.8487,4.892
10.307000,-1.9795,-3.2770,2.9518,4.834
10.312000,-1.5805,-3.3466,3.0257,4.780
10.317000,-1.2499,-3.4315,3.0621,4.766
10.330000,-0.9926,-3.5221,3.0343,4.754
10.332000,-0.8255,-3.6187,2.9300,4.729
10.334000,-0.7703,-3.7500,2.7014,4.685
10.379000,-0.7811,-3.9230,2.3418,4.635
10.380000,-0.8433,-4.1518,1.8877,4.638
10.381000,-0.9450,-4.4197,1.4117,4.735
10.382000,-1.0570,-4.7167,0.9070,4.918
10.382000,-1.1792,-5.0188,0.4386,5.174
10.383000,-1.3161,-5.3184,0.0044,5.479
10.383000,-1.4745,-5.5913,-0.3500,5.793
10.384000,-1.7090,-5.9352,-0.6605,6.212
10.384000,-1.9138,-6.2848,-0.9748,6.642
10.385000,-2.1100,-6.5823,-1.1998,7.016
10.389000,-2.2977,-6.8252,-1.4028,7.337
10.392000,-2.5097,-7.0227,-1.5718,7.622
10.398000,-2.7841,-7.1699,-1.7061,7.878
10.403000,-3.1079,-7.2875,-1.8461,8.135
10.408000,-3.4399,-7.3583,-1.9885,8.363
10.413000,-3.7530,-7.4345,-2.1729,8.607
10.418000,-4.0201,-7.5200,-2.3908,8.856
10.423000,-4.1953,-7.6388,-2.6187,9.100
10.428000,-4.2707,-7.7710,-2.7954,9.297
10.433000,-4.1887,-7.8809,-2.8692,9.375
10.446000,-3.9634,-7.9971,-2.7797,9.348
10.447000,-3.5589,-8.0768,-2.5315,9.182
10.449000,-3.0100,-8.0999,-2.1064,8.894
10.454000,-2.4149,-8.0383,-1.5534,8.536
10.490000,-1.8127,-7.9047,-0.9315,8.163
10.490000,-1.2588,-7.7238,-0.3017,7.831
10.491000,-0.7290,-7.4789,0.3155,7.521
10.491000,-0.1986,-7.1406,0.9233,7.203
10.492000,0.3227,-6.7352,1.4701,6.901
10.494000,0.8250,-6.2943,1.9527,6.642
10.494000,1.2860,-5.8257,2.3365,6.407
10.494000,1.7059,-5.3412,2.6042,6.182
10.500000,2.1186,-4.8374,2.7669,5.962
10.505000,2.4906,-4.3000,2.8653,5.736
10.508000,2.8260,-3.7437,2.9013,5.515
10.513000,3.1288,-3.2024,2.9106,5.340
10.518000,3.3775,-2.6736,2.8881,5.186
10.523000,3.5702,-2.1582,2.8596,5.058
10.530000,3.7165,-1.6537,2.8011,4.939
10.533000,3.8135,-1.1507,2.7146,4.820
10.539000,3.8967,-0.6827,2.6002,4.734
10.543000,3.9593,-0.2612,2.4510,4.664
10.549000,3.9949,0.0915,2.2481,4.585
10.558000,4.0280,0.3590,1.9777,4.502
10.558000,4.0489,0.5654,1.6882,4.423
10.563000,4.0551,0.7036,1.3706,4.338
10.568000,4.0160,0.8052,1.0349,4.225
10.588000,3.9573,0.8601,0.6940,4.109
10.589000,3.8677,0.9167,0.3463,3.990
10.589000,3.7548,0.9297,0.0066,3.868
10.589000,3.6189,0.9328,-0.3437,3.753
10.594000,3.4680,0.9145,-0.6754,3.650
10.598000,3.2805,0.9369,-0.9584,3.544
10.603000,3.0643,1.0053,-1.2238,3.449
10.608000,2.8321,1.1221,-1.4421,3.370
10.613000,2.6320,1.2661,-1.6225,3.341
10.618000,2.4476,1.4446,-1.7764,3.352
10.623000,2.2985,1.6435,-1.8917,3.400
10.628000,2.1463,1.8340,-1.9652,3.440
10.633000,1.9939,2.0309,-1.9565,3.454
10.640000,1.8464,2.2606,-1.9137,3.490
10.644000,1.7277,2.5040,-1.8438,3.557
10.649000,1.6261,2.7517,-1.7809,3.659
10.662000,1.5505,2.9676,-1.7267,3.767
10.664000,1.4939,3.1805,-1.6359,3.876
10.665000,1.4489,3.3616,-1.5015,3.957
10.669000,1.4104,3.5158,-1.3359,4.017
10.711000,1.3716,3.6456,-1.1781,4.069
10.712000,1.3438,3.7459,-1.0403,4.113
10.712000,1.3463,3.8266,-0.8920,4.153
10.713000,1.3406,3.8923,-0.7935,4.192
10.713000,1.2909,3.9693,-0.6992,4.232
10.714000,1.2454,4.0340,-0.5618,4.259
10.714000,1.2254,4.1100,-0.4460,4.312
10.715000,1.2358,4.1521,-0.3811,4.349
10.717000,1.2453,4.1984,-0.3791,4.396
10.718000,1.2777,4.2417,-0.4304,4.451
10.724000,1.2945,4.2916,-0.5250,4.513
10.730000,1.3074,4.3647,-0.6075,4.597
10.733000,1.2831,4.4179,-0.6705,4.649
10.739000,1.2380,4.4800,-0.7548,4.709
10.744000,1.2010,4.5437,-0.8743,4.780
10.749000,1.1696,4.6043,-0.9951,4.854
10.755000,1.1412,4.6593,-1.1048,4.923
10.759000,1.1206,4.6802,-1.2011,4.960
10.764000,1.1005,4.6812,-1.2503,4.969
10.770000,1.1097,4.6529,-1.2932,4.955
10.775000,1.1408,4.6192,-1.3012,4.933
10.779000,1.1795,4.5681,-1.3100,4.896
10.783000,1.2210,4.4972,-1.3102,4.841
10.813000,1.2485,4.4115,-1.3210,4.771
10.815000,1.2598,4.3204,-1.3255,4.691
10.815000,1.2527,4.2217,-1.3142,4.596
10.816000,1.2200,4.1273,-1.2681,4.487
10.816000,1.1763,4.0542,-1.1945,4.387
10.816000,1.1579,3.9878,-1.0938,4.294
10.819000,1.1622,3.9283,-1.0021,4.217
10.826000,1.1604,3.8588,-0.9891,4.149
10.830000,1.1430,3.7698,-1.0254,4.071
10.833000,1.1224,3.6543,-1.0584,3.967
10.839000,1.0798,3.5052,-1.0927,3.827
10.844000,1.0371,3.3372,-1.1163,3.669
10.849000,0.9802,3.1504,-1.1315,3.488
10.853000,0.9214,2.9592,-1.1767,3.315
10.859000,0.8469,2.7591,-1.1920,3.123
10.864000,0.7571,2.5550,-1.2061,2.925
10.871000,0.6785,2.3423,-1.2188,2.726
10.875000,0.6091,2.1523,-1.2371,2.556
10.879000,0.5538,1.9754,-1.2367,2.395
10.884000,0.5226,1.8093,-1.1965,2.231
10.891000,0.5107,1.6374,-1.1307,2.054
10.898000,0.5423,1.4693,-1.0419,1.881
10.899000,0.6386,1.3049,-0.9067,1.713
10.924000,0.7805,1.1489,-0.7566,1.582
10.925000,0.9746,0.9773,-0.6043,1.507
10.925000,1.2038,0.8090,-0.4837,1.529
10.926000,1.4584,0.6462,-0.3691,1.637
10.926000,1.7425,0.5224,-0.3061,1.845
10.929000,2.0511,0.4228,-0.2566,2.110
10.934000,2.3425,0.3113,-0.2139,2.373
10.939000,2.6286,0.1949,-0.2093,2.644
10.944000,2.8994,0.0617,-0.2358,2.910
10.949000,3.1262,-0.0861,-0.2673,3.139
10.954000,3.3568,-0.2006,-0.2922,3.376
10.959000,3.6052,-0.3442,-0.4060,3.644
10.966000,3.9023,-0.5025,-0.5866,3.978
10.971000,4.2001,-0.6946,-0.7761,4.327
10.975000,4.4936,-0.9110,-0.9597,4.684
10.979000,4.7877,-1.1613,-1.1254,5.053
10.984000,5.0513,-1.3522,-1.2396,5.374
10.991000,5.2818,-1.6080,-1.3453,5.683
10.994000,5.5585,-1.8904,-1.5594,6.075
10.998000,5.8386,-2.1370,-1.7640,6.463
11.024000,6.1146,-2.3647,-1.9798,6.848
11.025000,6.4030,-2.5401,-2.1872,7.227
11.026000,6.6465,-2.7134,-2.3684,7.560
11.026000,6.8334,-2.8512,-2.4873,7.811
11.026000,6.9566,-2.9199,-2.5464,7.963
11.029000,6.9973,-2.9410,-2.5335,8.002
11.034000,7.0108,-2.8834,-2.4801,7.976
11.039000,6.9830,-2.7783,-2.3551,7.876
11.044000,6.9260,-2.6138,-2.1421,7.707
11.049000,6.8591,-2.3827,-1.8798,7.501
11.054000,6.8037,-2.1042,-1.5452,7.287
11.059000,6.7785,-1.7955,-1.2686,7.126
11.064000,6.7640,-1.4591,-0.9884,6.990
11.069000,6.7523,-1.1264,-0.7675,6.888
11.074000,6.7525,-0.8048,-0.6086,6.827
11.079000,6.7760,-0.5066,-0.5210,6.815
11.084000,6.7812,-0.2416,-0.5260,6.806
11.090000,6.7799,-0.0077,-0.5947,6.806
11.095000,6.7759,0.1829,-0.7342,6.818
11.100000,6.7427,0.3108,-0.8957,6.809
11.135000,6.6750,0.3879,-1.0742,6.772
11.136000,6.5081,0.4329,-1.2378,6.639
11.137000,6.3095,0.4534,-1.3576,6.470
11.138000,6.0626,0.4443,-1.4522,6.250
11.139000,5.7820,0.4249,-1.5645,6.005
11.140000,5.4873,0.3711,-1.7153,5.761
11.140000,5.2046,0.3045,-1.8775,5.541
11.141000,4.9377,0.2088,-2.0576,5.353
11.144000,4.6814,0.1028,-2.2069,5.177
11.149000,4.4025,-0.0087,-2.2889,4.962
11.155000,4.1349,-0.1496,-2.2864,4.727
11.160000,3.8854,-0.3322,-2.2325,4.493
11.164000,3.6223,-0.5462,-2.1320,4.239
11.169000,3.3575,-0.7965,-1.9705,3.974
11.174000,3.1085,-1.0756,-1.8200,3.759
11.180000,2.8709,-1.3595,-1.6132,3.563
11.185000,2.5946,-1.6365,-1.3619,3.356
11.190000,2.2837,-1.8840,-1.0222,3.132
11.195000,1.9405,-2.1072,-0.6781,2.944
11.199000,1.6253,-2.3033,-0.3089,2.836
11.212000,1.3360,-2.4531,0.0561,2.794
11.214000,1.0866,-2.5714,0.4506,2.828
11.214000,0.8521,-2.6523,0.8777,2.921
11.220000,0.6869,-2.6915,1.3322,3.081
11.254000,0.5597,-2.7058,1.8037,3.300
11.256000,0.4439,-2.7026,2.2478,3.543
11.256000,0.3125,-2.6585,2.6386,3.759
11.257000,0.1713,-2.6083,3.0151,3.990
11.257000,0.0293,-2.5406,3.3560,4.209
11.257000,-0.1134,-2.4887,3.6804,4.444
11.258000,-0.2665,-2.4572,3.9996,4.702
11.260000,-0.4159,-2.4417,4.2685,4.935
11.265000,-0.5729,-2.4170,4.5525,5.186
11.270000,-0.7738,-2.3788,4.8538,5.460
11.275000,-1.0188,-2.3173,5.1260,5.717
11.280000,-1.2815,-2.2683,5.3568,5.957
11.285000,-1.5743,-2.2344,5.5344,6.173
11.292000,-1.8793,-2.2115,5.6366,6.340
11.295000,-2.1774,-2.1927,5.6905,6.475
11.300000,-2.4567,-2.1656,5.7297,6.600
11.305000,-2.6978,-2.1395,5.7186,6.675
11.310000,-2.8868,-2.0979,5.6285,6.664
11.315000,-3.1700,-2.0842,5.5602,6.731
11.328000,-3.5130,-2.0779,5.4677,6.823
11.331000,-3.8680,-2.0623,5.3585,6.923
11.332000,-4.2012,-2.0298,5.2496,7.023
11.334000,-4.4529,-1.9897,5.1127,7.066
11.371000,-4.6571,-1.9377,4.9789,7.087
11.373000,-4.8059,-1.8991,4.8414,7.081
11.374000,-4.9193,-1.8485,4.6954,7.047
11.374000,-4.9950,-1.8076,4.5053,6.965
11.375000,-5.0476,-1.8006,4.2884,6.864
11.376000,-5.1015,-1.7922,4.0404,6.750
11.376000,-5.1584,-1.7843,3.7266,6.609
11.377000,-5.2400,-1.7824,3.4295,6.511
11.380000,-5.3486,-1.7861,3.2024,6.485
11.384000,-5.3239,-1.5684,3.0242,6.321
11.392000,-5.4654,-1.5438,2.9285,6.390
11.396000,-5.6336,-1.5725,2.9649,6.557
11.401000,-5.7955,-1.6930,2.9648,6.726
11.406000,-6.0537,-1.8973,2.8261,6.945
11.410000,-6.3426,-2.0769,2.6701,7.188
11.415000,-6.5616,-2.1501,2.5623,7.365
11.420000,-6.6124,-2.1138,2.5167,7.384
11.425000,-6.5938,-2.0693,2.4870,7.345
11.430000,-6.5301,-2.0550,2.4248,7.263
11.435000,-6.4240,-2.0951,2.2919,7.135
11.472000,-6.3451,-2.1613,2.1268,7.032
11.473000,-6.2789,-2.2463,1.9421,6.946
11.474000,-6.2160,-2.3387,1.7525,6.869
11.474000,-6.1376,-2.4291,1.6419,6.802
11.475000,-6.0795,-2.4936,1.6074,6.765
11.475000,-6.0227,-2.5515,1.6411,6.744
11.476000,-5.9862,-2.6334,1.6947,6.756
11.478000,-5.9367,-2.7370,1.7439,6.766
11.480000,-5.8717,-2.8717,1.7912,6.777
11.486000,-5.7818,-3.0111,1.8699,6.782
11.491000,-5.6646,-3.1410,1.9174,6.755
11.495000,-5.5657,-3.2924,1.9286,6.748
11.500000,-5.4538,-3.4485,1.9350,6.737
11.506000,-5.3268,-3.6142,1.9245,6.719
11.510000,-5.1918,-3.8063,1.8682,6.703
11.515000,-5.1325,-4.1034,1.7636,6.804
11.523000,-5.0884,-4.4112,1.7574,6.960
11.526000,-5.0018,-4.6597,1.8132,7.072
11.531000,-4.8874,-4.8874,1.8037,7.143
11.536000,-4.7619,-5.1376,1.7384,7.218
11.541000,-4.6588,-5.3935,1.6633,7.319
11.549000,-4.5659,-5.6645,1.6048,7.450
11.554000,-4.4856,-5.9074,1.5676,7.581
11.557000,-4.4032,-6.1410,1.5326,7.710
11.589000,-4.3232,-6.3460,1.4903,7.822
11.592000,-4.2097,-6.5222,1.4169,7.891
11.592000,-4.0742,-6.7266,1.3152,7.973
11.593000,-3.9144,-6.9498,1.1999,8.066
11.593000,-3.7274,-7.1986,1.1214,8.184
11.594000,-3.5156,-7.4369,1.0600,8.294
11.594000,-3.3220,-7.6672,0.9916,8.415
11.596000,-3.1484,-7.8818,0.8991,8.535
11.600000,-2.9928,-8.0434,0.7798,8.617
11.605000,-2.8882,-8.1230,0.6389,8.645
11.611000,-2.7865,-8.0946,0.4955,8.575
11.616000,-2.6589,-7.9943,0.3639,8.433
11.622000,-2.4906,-7.8720,0.2463,8.260
11.625000,-2.2848,-7.7748,0.1233,8.104
11.631000,-2.0601,-7.7430,-0.0245,8.012
11.635000,-1.7976,-7.7339,-0.2111,7.943
11.641000,-1.4732,-7.7287,-0.4078,7.878
11.646000,-1.1129,-7.7249,-0.6119,7.829
11.650000,-0.7109,-7.7029,-0.8117,7.778
11.660000,-0.2814,-7.6342,-0.9811,7.702
11.662000,0.1370,-7.5074,-1.0940,7.588
11.665000,0.5342,-7.3233,-1.1506,7.432
11.712000,0.8964,-7.1006,-1.1493,7.249
11.714000,1.2364,-6.8485,-1.1141,7.048
11.715000,1.5642,-6.5545,-1.0860,6.825
11.715000,1.8867,-6.2262,-1.0818,6.595
11.716000,2.1916,-5.8520,-1.1180,6.348
11.716000,2.4794,-5.4414,-1.1777,6.094
11.716000,2.7480,-5.0200,-1.2390,5.856
11.717000,2.9932,-4.5851,-1.2758,5.622
11.718000,3.2384,-4.1464,-1.3146,5.423
11.721000,3.4855,-3.6996,-1.3289,5.254
11.722000,3.7082,-3.2324,-1.3525,5.102
11.726000,3.9239,-2.7630,-1.3465,4.984
11.732000,4.1184,-2.3053,-1.3207,4.901
11.737000,4.2699,-1.8642,-1.2798,4.832
11.741000,4.3804,-1.4013,-1.2290,4.761
11.745000,4.4935,-0.9211,-1.1803,4.736
11.751000,4.5954,-0.4436,-1.1569,4.759
11.774000,4.7105,0.0220,-1.1682,4.853
11.775000,4.8334,0.4373,-1.1803,4.995
11.775000,4.9686,0.7905,-1.2432,5.182
11.775000,5.0778,1.0675,-1.3258,5.356
11.775000,5.1694,1.2679,-1.4512,5.517
11.781000,5.2461,1.4040,-1.6118,5.665
11.787000,5.2817,1.5024,-1.7426,5.761
11.792000,5.2570,1.5778,-1.8529,5.793
11.797000,5.1819,1.6280,-1.9666,5.777
11.801000,5.0546,1.6654,-2.0787,5.713
11.805000,4.8749,1.7115,-2.1717,5.604
11.811000,4.6627,1.7597,-2.2264,5.458
11.816000,4.4353,1.8509,-2.2738,5.317
11.821000,4.2238,1.9732,-2.2971,5.197
11.826000,4.0456,2.1103,-2.2963,5.108
11.832000,3.9121,2.2691,-2.2471,5.050
11.837000,3.7923,2.4521,-2.1380,4.997
11.841000,3.6839,2.6404,-2.0075,4.957
11.847000,3.5916,2.8338,-1.8489,4.934
11.851000,3.5152,3.0276,-1.6819,4.935
11.857000,3.4379,3.2098,-1.5136,4.941
11.861000,3.3498,3.3948,-1.3638,4.960
11.866000,3.2629,3.5802,-1.2519,5.003
11.879000,3.1582,3.7348,-1.1873,5.033
11.881000,3.0284,3.8397,-1.1008,5.013
11.883000,2.8642,3.9284,-1.0046,4.964
11.887000,2.6778,4.0035,-0.9274,4.905
11.920000,2.4860,4.0674,-0.8477,4.842
11.922000,2.2820,4.1082,-0.8040,4.768
11.923000,2.0921,4.1285,-0.8080,4.698
11.924000,1.9023,4.1235,-0.8261,4.616
11.924000,1.6985,4.0839,-0.8320,4.501
11.925000,1.5096,4.0385,-0.8590,4.396
11.925000,1.3168,3.9850,-0.8616,4.284
11.927000,1.1201,3.9354,-0.8876,4.187
11.931000,0.9344,3.8923,-0.8985,4.103
11.937000,0.7597,3.8677,-0.9038,4.044
11.944000,0.6010,3.8329,-0.9396,3.992
11.947000,0.4512,3.7785,-0.9575,3.924
11.951000,0.2985,3.7356,-0.9554,3.867
11.961000,0.1481,3.6781,-0.9284,3.796
11.963000,0.0047,3.6083,-0.9029,3.720
11.966000,-0.1388,3.5504,-0.8573,3.655
11.994000,-0.2725,3.4947,-0.8130,3.598
11.995000,-0.4083,3.4677,-0.7534,3.572
11.995000,-0.5273,3.4501,-0.7024,3.560
11.996000,-0.6219,3.4374,-0.6576,3.555
11.996000,-0.7042,3.4317,-0.5808,3.551
11.998000,-0.7647,3.4261,-0.5033,3.546
12.001000,-0.8060,3.4179,-0.4467,3.540
12.006000,-0.8282,3.3999,-0.4155,3.524
12.012000,-0.8073,3.3651,-0.4265,3.487
12.017000,-0.7842,3.3181,-0.4315,3.437
12.023000,-0.7471,3.2612,-0.4280,3.373
12.026000,-0.7082,3.2015,-0.4065,3.304
12.032000,-0.6678,3.1292,-0.3718,3.221
12.037000,-0.6495,3.0469,-0.3122,3.131
12.041000,-0.6653,2.9353,-0.2302,3.019
12.046000,-0.7153,2.8137,-0.1427,2.907
12.055000,-0.8062,2.6870,-0.0615,2.806
12.061000,-0.8975,2.5838,-0.0034,2.735
12.063000,-0.9765,2.4854,0.0339,2.671
12.069000,-1.0266,2.4061,0.0411,2.616
12.083000,-1.0454,2.3291,-0.0009,2.553
12.084000,-1.0734,2.2472,-0.0535,2.491
12.084000,-1.0967,2.1507,-0.1286,2.418
12.086000,-1.1123,2.0041,-0.2571,2.306
12.132000,-1.1009,1.8457,-0.3856,2.183
12.132000,-1.0791,1.6996,-0.4613,2.065
12.133000,-1.0682,1.5875,-0.4102,1.957
12.133000,-1.1471,1.3156,-0.3478,1.780
12.134000,-1.1832,1.0450,-0.3726,1.622
12.134000,-1.2314,0.7471,-0.3457,1.481
12.134000,-1.2557,0.4294,-0.2819,1.357
12.135000,-1.2483,0.1377,-0.2082,1.273
12.135000,-1.2356,-0.1137,-0.0934,1.244
12.137000,-1.1955,-0.3170,0.0781,1.239
12.141000,-1.1688,-0.5154,0.2390,1.300
12.146000,-1.1217,-0.7469,0.4584,1.423
12.151000,-1.0898,-0.9800,0.6973,1.623
12.157000,-1.0585,-1.2074,0.9791,1.881
12.162000,-1.0086,-1.3881,1.2595,2.128
12.167000,-0.9139,-1.5412,1.5024,2.338
12.174000,-0.7818,-1.6574,1.7097,2.506
12.177000,-0.6100,-1.7439,1.8882,2.642
12.182000,-0.4130,-1.8150,2.0116,2.741
12.186000,-0.1839,-1.9022,2.0820,2.826
12.225000,0.1012,-2.0077,2.1113,2.915
12.227000,0.4157,-2.1484,2.0730,3.014
12.228000,0.7620,-2.3198,1.9697,3.137
12.229000,1.1231,-2.5098,1.8322,3.304
12.229000,1.5101,-2.6952,1.5986,3.479
12.229000,1.9181,-2.8668,1.3078,3.689
12.230000,2.3133,-2.9962,0.9935,3.913
12.230000,2.6664,-3.0982,0.6514,4.139
12.232000,2.9683,-3.1850,0.2937,4.364
12.237000,3.2419,-3.2619,-0.0759,4.599
12.242000,3.5209,-3.2907,-0.4427,4.840
12.247000,3.8291,-3.2814,-0.8229,5.109
12.252000,4.1517,-3.2582,-1.1679,5.405
12.258000,4.4692,-3.2237,-1.4797,5.706
12.262000,4.7791,-3.2042,-1.7274,6.008
12.267000,5.0758,-3.1693,-1.9605,6.297
12.273000,5.3688,-3.1261,-2.1790,6.584
12.277000,5.6459,-3.0819,-2.3588,6.851
12.282000,5.8901,-3.0273,-2.5190,7.085
12.287000,6.0801,-2.9430,-2.6550,7.258
12.293000,6.2222,-2.8198,-2.7377,7.360
12.297000,6.3098,-2.6552,-2.8081,7.399
12.302000,6.3547,-2.4302,-2.8662,7.383
12.311000,6.3496,-2.1495,-2.8930,7.301
12.313000,6.3187,-1.8229,-2.9032,7.189
12.352000,6.2542,-1.4767,-2.8915,7.047
12.353000,6.1539,-1.0919,-2.8918,6.887
12.354000,6.0489,-0.6733,-2.8753,6.731
12.355000,5.9748,-0.2162,-2.8685,6.631
12.355000,5.9530,0.2602,-2.8690,6.613
12.356000,5.9560,0.7435,-2.8811,6.658
12.356000,5.9883,1.2191,-2.9265,6.776
12.357000,6.0468,1.6605,-3.0260,6.963
12.358000,6.1263,2.0413,-3.1815,7.199
12.362000,6.2140,2.3996,-3.3375,7.451
12.367000,6.2877,2.6920,-3.5239,7.694
12.372000,6.2968,2.9112,-3.7138,7.869
12.378000,6.2410,3.0430,-3.9281,7.977
12.382000,6.0894,3.0970,-4.1180,7.977
12.389000,5.8399,3.0684,-4.2904,7.869
12.393000,5.5437,2.9819,-4.4302,7.698
12.398000,5.2277,2.8423,-4.5563,7.494
12.402000,4.9089,2.6666,-4.6659,7.279
12.411000,4.6193,2.4765,-4.7587,7.079
12.413000,4.3612,2.2458,-4.8319,6.886
12.418000,4.1383,1.9989,-4.8567,6.686
12.460000,3.9528,1.7164,-4.8019,6.452
12.462000,3.8050,1.4344,-4.6796,6.199
12.463000,3.6807,1.1286,-4.4543,5.887
12.463000,3.5417,0.7990,-4.1501,5.514
12.464000,3.4011,0.4747,-3.7686,5.099
12.464000,3.2110,0.1721,-3.3200,4.622
12.465000,3.0294,-0.0919,-2.8481,4.159
12.465000,2.8685,-0.3126,-2.3706,3.734
12.466000,2.7303,-0.4905,-1.8875,3.355
12.469000,2.5824,-0.6131,-1.3644,2.984
12.472000,2.4365,-0.6999,-0.8446,2.672
12.478000,2.3308,-0.7726,-0.3050,2.474
12.483000,2.2536,-0.8454,0.2468,2.420
12.489000,2.2044,-0.9307,0.8031,2.524
12.493000,2.1963,-1.0133,1.3216,2.756
12.499000,2.1496,-1.0912,1.8549,3.042
12.502000,2.0380,-1.1525,2.3850,3.342
12.509000,1.8665,-1.2162,2.8394,3.609
12.514000,1.6282,-1.2676,3.2247,3.828
12.518000,1.3228,-1.2950,3.5816,4.032
12.525000,0.9734,-1.2923,3.8798,4.204
12.530000,0.5774,-1.2905,4.0884,4.326
12.533000,0.1664,-1.2748,4.2267,4.418
12.565000,-0.2282,-1.2543,4.3475,4.531
12.567000,-0.6091,-1.2149,4.4294,4.633
12.568000,-0.9297,-1.1671,4.4242,4.669
12.569000,-1.2289,-1.1210,4.3563,4.663
12.569000,-1.4756,-1.0574,4.2790,4.648
12.570000,-1.6890,-0.9929,4.1973,4.632
12.570000,-1.9055,-0.9304,4.0900,4.607
12.573000,-2.1291,-0.8641,3.9595,4.578
12.578000,-2.3481,-0.8015,3.8160,4.552
12.584000,-2.5650,-0.7593,3.6833,4.552
12.589000,-2.7796,-0.7014,3.5738,4.582
12.594000,-2.9970,-0.6664,3.4924,4.650
12.598000,-3.1900,-0.6483,3.4344,4.732
12.605000,-3.3734,-0.6210,3.3832,4.818
12.609000,-3.5280,-0.6036,3.3078,4.874
12.613000,-3.6730,-0.5651,3.1967,4.902
12.617000,-3.8015,-0.5441,3.0717,4.918
12.625000,-3.9203,-0.5278,2.9407,4.929
12.630000,-4.0366,-0.5117,2.7991,4.939
12.633000,-4.1387,-0.4864,2.6736,4.951
12.656000,-4.2217,-0.4613,2.5382,4.947
12.657000,-4.2908,-0.4464,2.3883,4.931
12.657000,-4.3479,-0.4482,2.2173,4.901
12.657000,-4.3624,-0.4671,2.0327,4.835
12.658000,-4.3917,-0.5033,1.8253,4.782
12.664000,-4.3593,-0.5615,1.6268,4.687
12.670000,-4.3229,-0.6275,1.4518,4.603
12.672000,-4.2874,-0.6826,1.2792,4.526
12.678000,-4.4775,-0.9989,1.1544,4.731
12.684000,-4.5412,-1.1860,0.8904,4.777
12.689000,-4.4929,-1.1221,0.7494,4.691
12.692000,-4.4691,-0.9152,0.7655,4.626
12.699000,-4.3938,-0.6690,0.7780,4.512
12.704000,-4.2719,-0.4339,0.7367,4.357
12.710000,-4.1780,-0.3229,0.7014,4.249
12.712000,-4.2338,-0.4265,0.6962,4.312
12.717000,-4.3575,-0.6626,0.6945,4.462
12.726000,-4.4558,-0.9255,0.7155,4.607
12.729000,-4.4756,-1.1023,0.7686,4.673
12.733000,-4.3885,-1.1501,0.8395,4.614
12.765000,-4.2307,-1.1509,0.9259,4.481
12.767000,-4.0549,-1.1550,1.0279,4.340
12.768000,-3.8829,-1.2299,1.1574,4.234
12.768000,-3.7338,-1.3656,1.2824,4.177
12.769000,-3.5907,-1.5143,1.4221,4.148
12.769000,-3.4395,-1.6712,1.5397,4.122
12.769000,-3.2827,-1.8102,1.6231,4.085
12.775000,-3.1083,-1.9458,1.6793,4.033
12.778000,-2.9404,-2.0830,1.7397,4.001
12.782000,-2.7814,-2.2431,1.7987,4.000
12.789000,-2.6098,-2.4121,1.8803,4.021
12.792000,-2.4282,-2.5924,1.9795,4.066
12.799000,-2.2485,-2.7648,2.1148,4.144
12.803000,-2.0686,-2.9464,2.2837,4.263
12.811000,-1.8956,-3.1344,2.4585,4.412
12.814000,-1.7131,-3.3218,2.6489,4.581
12.819000,-1.5520,-3.5350,2.8352,4.790
12.824000,-1.4101,-3.7450,3.0029,5.003
12.829000,-1.2920,-3.9780,3.1594,5.242
12.832000,-1.1951,-4.2216,3.3016,5.491
12.867000,-1.0980,-4.4515,3.4296,5.726
12.868000,-1.0050,-4.6627,3.5289,5.933
12.869000,-0.9045,-4.8622,3.6017,6.118
12.869000,-0.8033,-5.0546,3.6291,6.274
12.869000,-0.7326,-5.2254,3.6369,6.408
12.870000,-0.6708,-5.3814,3.6228,6.522
12.870000,-0.6153,-5.5226,3.5746,6.607
12.874000,-0.5494,-5.6511,3.5017,6.671
12.878000,-0.4921,-5.7737,3.3947,6.716
12.883000,-0.4171,-5.8810,3.2651,6.740
12.889000,-0.3340,-5.9633,3.1298,6.743
12.892000,-0.2477,-6.0088,3.0027,6.722
12.898000,-0.1844,-6.0199,2.8670,6.670
12.903000,-0.1443,-5.9489,2.7317,6.548
12.908000,-0.0777,-5.8110,2.6155,6.373
12.912000,-0.0039,-5.6377,2.4798,6.159
12.917000,0.0885,-5.4582,2.3190,5.931
12.924000,0.1587,-5.3279,2.1236,5.738
12.929000,0.2330,-5.2326,1.8789,5.565
12.933000,0.2821,-5.2113,1.5874,5.455
12.940000,0.3398,-5.2352,1.2611,5.396
12.943000,0.4012,-5.2997,0.9456,5.398
12.948000,0.4663,-5.3881,0.6602,5.448
12.953000,0.4997,-5.5072,0.4117,5.545
12.986000,0.5183,-5.6211,0.1676,5.647
12.989000,0.5300,-5.6933,-0.0508,5.718
12.990000,0.5184,-5.7477,-0.3004,5.779
12.992000,0.4867,-5.6997,-0.5370,5.746
12.993000,0.4477,-5.5561,-0.7508,5.624
12.993000,0.4063,-5.3387,-1.0119,5.449
12.994000,0.3248,-5.0019,-1.2481,5.165
12.996000,0.2679,-4.5769,-1.5829,4.850
12.999000,0.2761,-4.0979,-2.0341,4.583
13.005000,0.2443,-3.6224,-2.4973,4.407
13.010000,0.2224,-3.1107,-2.9124,4.267
13.014000,0.2534,-2.5867,-3.2911,4.194
13.019000,0.3081,-2.0867,-3.6491,4.215
13.025000,0.3696,-1.6183,-3.9639,4.297
13.030000,0.4496,-1.1501,-4.2616,4.437
13.034000,0.5328,-0.7169,-4.4979,4.586
13.042000,0.6645,-0.3163,-4.6585,4.716
13.044000,0.8342,0.0797,-4.7461,4.820
13.049000,1.0484,0.4610,-4.7687,4.904
13.054000,1.2706,0.8223,-4.7175,4.954
13.089000,1.4807,1.1506,-4.6505,5.014
13.090000,1.6497,1.4317,-4.5757,5.070
13.091000,1.7773,1.6436,-4.4984,5.108
13.091000,1.8633,1.7985,-4.4335,5.134
13.092000,1.9198,1.8989,-4.3811,5.146
13.092000,1.9251,1.9231,-4.3489,5.130
13.093000,1.8772,1.8862,-4.3490,5.099
13.094000,1.7883,1.7956,-4.3601,5.043
13.100000,1.6899,1.6852,-4.3702,4.979
13.104000,1.5608,1.5723,-4.3697,4.899
13.110000,1.4134,1.4522,-4.3538,4.802
13.114000,1.2479,1.3303,-4.3009,4.672
13.120000,1.0769,1.1900,-4.2208,4.516
13.126000,0.8911,1.0654,-4.0873,4.317
13.130000,0.6981,0.9568,-3.8957,4.072
13.135000,0.4957,0.8596,-3.6610,3.793
13.139000,0.3012,0.7886,-3.3807,3.485
13.144000,0.1388,0.7394,-3.0527,3.144
13.151000,0.0133,0.7142,-2.6725,2.766
13.157000,-0.0632,0.6966,-2.2547,2.361
13.160000,-0.1197,0.7200,-1.8150,1.956
13.164000,-0.1609,0.7531,-1.3583,1.561
13.169000,-0.2039,0.8078,-0.8686,1.204
13.196000,-0.2298,0.8839,-0.3967,0.996
13.198000,-0.2576,0.9719,0.0833,1.009
13.199000,-0.2829,1.0861,0.5449,1.248
13.200000,-0.2698,1.2002,0.9966,1.583
13.200000,-0.3261,1.3262,1.3976,1.954
13.201000,-0.3345,1.4474,1.7478,2.294
13.208000,-0.3335,1.5710,2.0613,2.613
13.210000,-0.3351,1.6755,2.3500,2.906
13.214000,-0.3323,1.7658,2.6085,3.167
13.219000,-0.3322,1.8633,2.8226,3.398
13.225000,-0.3351,1.9538,2.9872,3.585
13.230000,-0.3481,2.0492,3.1122,3.742
13.235000,-0.3734,2.1399,3.1954,3.864
13.241000,-0.4209,2.2236,3.2463,3.957
13.245000,-0.5023,2.3123,3.2580,4.027
13.249000,-0.5814,2.3940,3.2525,4.080
13.256000,-0.6583,2.4689,3.2395,4.126
13.259000,-0.7376,2.5371,3.2170,4.163
13.264000,-0.8288,2.5962,3.1779,4.186
13.269000,-0.9053,2.6415,3.1131,4.182
13.274000,-0.9934,2.6756,3.0324,4.164
13.279000,-1.0666,2.6746,2.9290,4.107
13.284000,-1.1366,2.6865,2.8365,4.069
13.294000,-1.2009,2.6851,2.7548,4.030
13.295000,-1.2596,2.6873,2.6602,3.986
13.300000,-1.2791,2.6786,2.5359,3.904
13.343000,-1.2975,2.6901,2.3875,3.824
13.345000,-1.2909,2.6908,2.2413,3.732
13.345000,-1.2667,2.6875,2.0979,3.637
13.346000,-1.2294,2.6780,1.9361,3.526
13.346000,-1.1622,2.6647,1.8064,3.423
13.347000,-1.0962,2.6619,1.7065,3.347
13.348000,-1.0293,2.6597,1.6338,3.287
13.349000,-0.9543,2.6631,1.5643,3.233
13.350000,-0.8619,2.6717,1.4837,3.175
13.350000,-0.7616,2.7261,1.4567,3.183
13.356000,-0.6466,2.7664,1.4780,3.202
13.359000,-0.5145,2.7878,1.4777,3.197
13.366000,-0.3728,2.7639,1.4530,3.145
13.371000,-0.1833,2.7068,1.4228,3.063
13.376000,0.0538,2.6547,1.3937,2.999
13.380000,0.3813,2.6602,1.3607,3.012
13.385000,0.8082,2.7466,1.3065,3.147
13.391000,1.2903,2.9228,1.2116,3.417
13.394000,1.8026,3.1924,1.0618,3.817
13.400000,2.3297,3.5137,0.8407,4.299
13.445000,2.7942,3.8498,0.5655,4.790
13.446000,3.1448,4.1519,0.2079,5.213
13.447000,3.3714,4.3881,-0.2455,5.539
13.450000,3.4810,4.5412,-0.7431,5.770
13.451000,3.4523,4.6993,-1.1546,5.944
13.456000,3.2524,4.6428,-1.6034,5.891
13.457000,2.9565,4.4535,-2.0453,5.723
13.459000,2.6132,4.1940,-2.4364,5.509
13.459000,2.2020,3.8391,-2.6641,5.166
13.460000,1.7719,3.4013,-2.7644,4.728
13.460000,1.3453,2.8843,-2.7571,4.211
13.461000,0.9259,2.3204,-2.6643,3.652
13.466000,0.5028,1.7371,-2.5081,3.092
13.470000,0.0563,1.1865,-2.2507,2.545
13.474000,-0.3793,0.6506,-1.9241,2.066
13.479000,-0.7505,0.1497,-1.5459,1.725
13.487000,-1.0375,-0.2770,-1.1049,1.541
13.491000,-1.2284,-0.6195,-0.6043,1.503
13.494000,-1.2845,-0.8794,-0.0909,1.559
13.499000,-1.2325,-1.0376,0.4302,1.668
13.532000,-1.0870,-1.1157,0.9109,1.804
13.533000,-0.8339,-1.1545,1.3272,1.947
13.533000,-0.4974,-1.1304,1.6863,2.090
13.533000,-0.0874,-1.0746,2.0031,2.275
13.534000,0.3982,-1.0022,2.2874,2.529
13.534000,0.9853,-0.9206,2.5180,2.856
13.534000,1.6467,-0.8665,2.7139,3.291
13.542000,2.3603,-0.8573,2.8443,3.794
13.545000,3.0821,-0.8674,2.9325,4.342
13.549000,3.7729,-0.8857,2.9663,4.880
13.555000,4.4273,-0.9366,2.9571,5.406
13.559000,5.0397,-1.0114,2.8999,5.902
13.564000,5.5668,-1.1124,2.7777,6.320
13.571000,6.0222,-1.2144,2.6049,6.673
13.575000,6.4058,-1.3485,2.3510,6.956
13.580000,6.7082,-1.5222,2.0885,7.189
13.585000,6.9486,-1.7283,1.8535,7.396
13.589000,7.1202,-1.9782,1.6964,7.582
13.594000,7.2280,-2.2528,1.5905,7.736
13.599000,7.2796,-2.5108,1.5473,7.854
13.605000,7.2826,-2.6920,1.5471,7.917
13.610000,7.2828,-2.7795,1.5899,7.956
13.614000,7.3042,-2.7181,1.6441,7.965
13.619000,7.3943,-2.4965,1.7266,7.993
13.645000,7.5024,-2.1557,1.8007,8.011
13.646000,7.6088,-1.7513,1.8641,8.027
13.646000,7.7345,-1.2600,1.9305,8.071
13.647000,7.8477,-0.7447,1.9804,8.128
13.648000,7.9618,-0.2445,1.9732,8.206
13.650000,8.0714,0.2233,1.9063,8.296
13.656000,8.1305,0.6508,1.8253,8.358
13.664000,8.1029,1.0065,1.6846,8.337
13.665000,8.0148,1.3045,1.4965,8.257
13.670000,7.8639,1.5397,1.2666,8.113
13.676000,7.6648,1.7264,0.9785,7.918
13.681000,7.4227,1.8336,0.6570,7.674
13.685000,7.1260,1.9068,0.2815,7.382
13.691000,6.8183,1.9388,-0.1205,7.090
13.696000,6.5140,1.9368,-0.5459,6.818
13.700000,6.2069,1.9083,-0.9737,6.566
13.718000,5.8875,1.8627,-1.3865,6.329
13.719000,5.5679,1.7930,-1.7665,6.110
13.719000,5.2295,1.7089,-2.1154,5.894
13.720000,4.9129,1.6078,-2.4182,5.707
13.743000,4.6142,1.4953,-2.6640,5.534
13.743000,4.3096,1.3739,-2.8792,5.362
13.744000,3.9970,1.2462,-3.0369,5.172
13.744000,3.7008,1.0934,-3.1680,4.993
13.745000,3.3871,0.9390,-3.2412,4.781
13.750000,3.0669,0.7773,-3.2445,4.532
13.755000,2.7734,0.5984,-3.2232,4.294
13.760000,2.4831,0.4122,-3.1559,4.037
13.765000,2.1964,0.2168,-3.0237,3.743
13.770000,1.9347,-0.0023,-2.8101,3.412
13.776000,1.7086,-0.2318,-2.5280,3.060
13.780000,1.5035,-0.4480,-2.1635,2.672
13.785000,1.3075,-0.6316,-1.7514,2.275
13.790000,1.0896,-0.7896,-1.3594,1.913
13.795000,0.8878,-0.9035,-0.9593,1.589
13.800000,0.6791,-0.9789,-0.5377,1.307
13.805000,0.4749,-1.0428,-0.0784,1.148
13.810000,0.2561,-1.0950,0.3983,1.193
13.815000,0.0873,-1.1473,0.8697,1.442
13.821000,-0.0514,-1.1741,1.2826,1.740
13.827000,-0.2073,-1.2053,1.6737,2.073
13.830000,-0.3857,-1.2342,2.0019,2.383
13.836000,-0.5819,-1.2488,2.2504,2.639
13.850000,-0.8126,-1.2875,2.4405,2.876
13.852000,-1.0828,-1.3361,2.5580,3.082
13.854000,-1.3728,-1.3932,2.6072,3.259
13.899000,-1.6852,-1.4517,2.6027,3.424
13.900000,-2.0079,-1.5140,2.5757,3.600
13.900000,-2.3217,-1.5749,2.5214,3.772
13.900000,-2.6389,-1.6300,2.4450,3.950
13.901000,-2.9661,-1.6802,2.3490,4.140
13.901000,-3.2817,-1.7235,2.2579,4.340
13.902000,-3.5882,-1.7619,2.1670,4.547
13.902000,-3.8856,-1.7998,2.0861,4.763
13.902000,-4.1523,-1.8489,2.0078,4.969
13.903000,-4.4005,-1.8927,1.9588,5.175
13.908000,-4.6203,-1.9347,1.9293,5.368
13.911000,-4.8143,-1.9680,1.9030,5.538
13.917000,-4.9706,-1.9852,1.9039,5.681
13.921000,-5.0941,-2.0030,1.8886,5.790
13.926000,-5.1850,-2.0169,1.9152,5.884
13.931000,-5.2384,-2.0145,1.9357,5.937
13.935000,-5.2451,-2.0202,1.9193,5.939
13.941000,-5.2290,-2.0414,1.8617,5.914
13.946000,-5.2021,-2.0687,1.8017,5.881
13.950000,-5.1742,-2.0928,1.7562,5.851
13.989000,-5.1451,-2.1254,1.7157,5.825
13.990000,-5.1149,-2.1642,1.6830,5.803
13.991000,-5.0957,-2.1881,1.6583,5.788
13.991000,-5.0395,-2.1948,1.6392,5.736
13.992000,-4.9754,-2.2087,1.5736,5.667
13.992000,-4.9127,-2.2369,1.5361,5.612
13.992000,-4.8419,-2.2534,1.5243,5.554
13.993000,-4.7847,-2.2918,1.5143,5.517
13.997000,-4.7337,-2.3329,1.4920,5.484
14.001000,-4.6986,-2.3794,1.4744,5.469
14.007000,-4.6530,-2.4335,1.4543,5.449
14.011000,-4.5922,-2.4903,1.4389,5.418
14.015000,-4.5280,-2.5811,1.4449,5.409
14.021000,-4.4558,-2.6795,1.4603,5.401
14.027000,-4.3779,-2.7950,1.4969,5.405
14.032000,-4.3090,-2.9013,1.5419,5.419
14.036000,-4.2439,-3.0056,1.5885,5.438
14.042000,-4.1949,-3.0958,1.6506,5.469
14.047000,-4.1403,-3.1694,1.7402,5.497
14.051000,-4.1110,-3.2548,1.8500,5.560
14.095000,-4.0881,-3.3207,1.9484,5.616
14.096000,-4.0547,-3.3789,2.0258,5.653
14.097000,-3.9987,-3.4435,2.0796,5.672
14.098000,-3.9108,-3.5099,2.0885,5.655
14.098000,-3.8074,-3.5778,2.0671,5.619
14.099000,-3.6650,-3.6478,2.0245,5.553
14.100000,-3.5051,-3.7509,1.9823,5.503
14.100000,-3.3229,-3.8587,1.9617,5.457
14.101000,-3.1617,-3.9711,1.9673,5.444
14.102000,-2.9904,-4.0714,1.9750,5.424
14.106000,-2.8282,-4.1578,2.0080,5.415
14.111000,-2.6729,-4.2374,2.0447,5.411
14.116000,-2.5316,-4.3030,2.1019,5.417
14.122000,-2.3947,-4.3737,2.1962,5.449
14.126000,-2.2599,-4.4447,2.3125,5.496
14.131000,-2.1344,-4.4918,2.4314,5.536
14.135000,-2.1118,-4.5324,2.5310,5.604
14.140000,-1.9072,-4.5708,2.6351,5.610
14.146000,-1.8102,-4.6022,2.7221,5.645
14.151000,-1.7298,-4.6386,2.8014,5.688
14.161000,-1.6562,-4.6722,2.8708,5.728
14.162000,-1.5489,-4.7086,2.9301,5.758
14.166000,-1.4317,-4.7757,2.9697,5.803
14.210000,-1.3189,-4.8498,2.9611,5.833
14.211000,-1.1816,-4.9641,2.9283,5.883
14.212000,-1.0435,-5.0846,2.8977,5.945
14.212000,-0.8929,-5.2215,2.8524,6.016
14.213000,-0.7320,-5.3529,2.7778,6.075
14.213000,-0.5511,-5.4811,2.6619,6.118
14.214000,-0.3693,-5.6111,2.4980,6.153
14.214000,-0.1551,-5.7543,2.3076,6.202
14.215000,0.0864,-5.9071,2.0912,6.267
14.218000,0.3219,-6.0069,1.8513,6.294
14.222000,0.5657,-6.0519,1.6072,6.287
14.227000,0.7962,-6.0379,1.3539,6.239
14.232000,1.0085,-5.9483,1.0842,6.130
14.237000,1.1974,-5.7658,0.8133,5.945
14.242000,1.3772,-5.5288,0.5413,5.723
14.246000,1.5167,-5.2500,0.2662,5.471
14.252000,1.5991,-4.9871,0.0148,5.237
14.257000,1.6559,-4.7541,-0.1862,5.038
14.261000,1.6938,-4.5758,-0.3626,4.893
14.267000,1.7203,-4.4754,-0.5149,4.822
14.271000,1.7378,-4.4384,-0.6766,4.814
14.307000,1.7750,-4.4643,-0.8458,4.878
14.308000,1.8298,-4.5261,-1.0302,4.989
14.308000,1.8778,-4.5767,-1.2035,5.091
14.309000,1.9143,-4.5606,-1.3593,5.129
14.309000,1.9035,-4.4585,-1.5150,5.079
14.310000,1.8286,-4.2706,-1.7021,4.948
14.310000,1.6854,-3.9844,-1.9640,4.751
14.311000,1.4925,-3.6060,-2.3376,4.549
14.316000,1.2912,-3.1733,-2.8197,4.437
14.323000,1.1080,-2.7176,-3.3633,4.464
14.328000,0.9385,-2.2822,-3.9328,4.643
14.331000,0.8239,-1.8525,-4.4238,4.866
14.337000,0.7683,-1.4440,-4.8199,5.090
14.342000,0.7623,-1.1115,-5.0727,5.249
14.347000,0.8203,-0.8238,-5.1050,5.236
14.351000,0.9539,-0.6099,-4.9196,5.048
14.357000,1.1318,-0.4241,-4.4720,4.632
14.362000,1.3898,-0.2468,-3.8073,4.061
14.366000,1.6834,-0.0692,-3.0400,3.476
14.379000,2.0052,0.0897,-2.3109,3.061
14.381000,2.3669,0.2325,-1.6022,2.868
14.382000,2.7127,0.4069,-1.0016,2.920
14.387000,3.0306,0.5939,-0.5506,3.137
14.428000,3.3361,0.7662,-0.2643,3.433
14.430000,3.5932,0.9239,-0.1234,3.712
14.431000,3.7801,1.0643,-0.1302,3.929
14.431000,3.9039,1.1705,-0.2553,4.084
14.432000,3.9504,1.2618,-0.4907,4.176
14.432000,3.9264,1.3302,-0.7775,4.218
14.433000,3.8277,1.3859,-1.0862,4.213
14.433000,3.7025,1.4289,-1.3679,4.198
14.433000,3.5559,1.4785,-1.6027,4.171
14.442000,3.3979,1.5400,-1.7686,4.129
14.442000,3.2236,1.6154,-1.8723,4.063
14.448000,3.0694,1.7099,-1.9184,4.003
14.453000,2.9113,1.8380,-1.8658,3.916
14.458000,2.7448,2.0071,-1.7439,3.821
14.463000,2.5796,2.1885,-1.5865,3.736
14.466000,2.4345,2.3966,-1.4010,3.692
14.475000,2.3096,2.5907,-1.2139,3.677
14.477000,2.2024,2.8019,-1.0303,3.710
14.481000,2.0935,3.0181,-0.8600,3.772
14.486000,1.9733,3.2346,-0.6815,3.850
14.527000,1.8486,3.4248,-0.5310,3.928
14.527000,1.7122,3.6221,-0.3606,4.023
14.528000,1.6046,3.8051,-0.1896,4.134
14.528000,1.4876,3.9570,-0.0374,4.228
14.528000,1.3539,4.0778,0.1198,4.298
14.529000,1.2154,4.1532,0.2554,4.335
14.529000,1.0842,4.2001,0.3408,4.351
14.529000,0.9652,4.2211,0.4449,4.353
14.532000,0.8606,4.2353,0.5078,4.352
14.538000,0.7155,4.2452,0.5387,4.339
14.542000,0.5827,4.2365,0.4876,4.304
14.547000,0.5673,4.2091,0.4218,4.268
14.552000,0.3491,4.1513,0.3536,4.181
14.557000,0.1866,4.0775,0.2974,4.093
14.562000,0.0251,3.9926,0.2533,4.001
14.567000,-0.1544,3.9184,0.2164,3.927
14.573000,-0.3206,3.8477,0.1918,3.866
14.577000,-0.4926,3.7759,0.1867,3.813
14.582000,-0.6723,3.7032,0.1843,3.768
14.587000,-0.8524,3.6417,0.2111,3.746
14.593000,-1.0425,3.5771,0.2263,3.733
14.596000,-1.2059,3.4861,0.2491,3.697
14.603000,-1.3928,3.3736,0.2721,3.660
14.644000,-1.5717,3.2569,0.3000,3.629
14.646000,-1.7303,3.1336,0.3234,3.594
14.646000,-1.8545,3.0063,0.3448,3.549
14.647000,-1.9437,2.9065,0.3524,3.514
14.648000,-2.0150,2.8027,0.3892,3.474
14.648000,-2.0660,2.6927,0.4431,3.423
14.649000,-2.0920,2.5574,0.4736,3.338
14.650000,-2.0976,2.3824,0.5144,3.216
14.651000,-2.0945,2.2041,0.5970,3.099
14.652000,-2.0946,2.0249,0.7333,3.004
14.658000,-2.0978,1.8520,0.9278,2.948
14.667000,-2.1064,1.6713,1.1658,2.931
14.668000,-2.0987,1.4974,1.4208,2.944
14.672000,-2.0841,1.3474,1.6588,2.985
14.677000,-2.0816,1.2165,1.8677,3.050
14.682000,-2.0717,1.0884,2.0309,3.099
14.689000,-2.0521,0.9559,2.1581,3.128
14.692000,-1.9864,0.8362,2.2519,3.117
14.697000,-1.8963,0.7171,2.3389,3.095
14.702000,-1.7722,0.6417,2.4215,3.069
14.708000,-1.6332,0.5670,2.4971,3.037
14.712000,-1.4723,0.5096,2.5801,3.014
14.721000,-1.2680,0.4551,2.6582,2.980
14.765000,-1.0372,0.3939,2.7287,2.946
14.767000,-0.7946,0.3352,2.7721,2.903
14.768000,-0.5573,0.2766,2.8167,2.885
14.768000,-0.3253,0.2345,2.8502,2.878
14.769000,-0.1012,0.2161,2.8675,2.877
14.770000,0.1268,0.2045,2.8707,2.881
14.770000,0.3440,0.1921,2.8452,2.872
14.771000,0.5478,0.1740,2.8052,2.864
14.772000,0.7383,0.1645,2.7340,2.837
14.772000,0.9416,0.1492,2.6389,2.806
14.779000,1.1651,0.1494,2.5320,2.791
14.780000,1.4176,0.1551,2.4302,2.818
14.782000,1.6918,0.1662,2.3452,2.897
14.789000,1.9612,0.1799,2.2794,3.012
14.792000,2.2326,0.1913,2.2182,3.153
14.797000,2.4940,0.2052,2.1444,3.296
14.802000,2.7566,0.2065,2.0890,3.465
14.808000,2.9941,0.1906,2.0350,3.625
14.813000,3.2206,0.1740,1.9631,3.776
14.818000,3.4406,0.1661,1.8562,3.913
14.825000,3.6110,0.1667,1.7168,4.002
14.828000,3.7630,0.1686,1.5544,4.075
14.832000,3.8960,0.1930,1.3600,4.131
14.837000,3.9887,0.2277,1.1577,4.160
14.875000,4.0722,0.2776,0.9450,4.190
14.877000,4.1558,0.3279,0.7010,4.227
14.877000,4.2348,0.3788,0.4231,4.273
14.878000,4.3424,0.4202,0.1105,4.364
14.879000,4.4499,0.4497,-0.2320,4.479
14.879000,4.6000,0.4336,-0.6392,4.664
14.880000,4.7353,0.3766,-1.0240,4.859
14.880000,4.8628,0.3336,-1.3697,5.063
14.883000,4.9511,0.2686,-1.7015,5.242
14.890000,5.0096,0.2029,-2.0191,5.405
14.893000,5.0503,0.1173,-2.2933,5.548
14.897000,5.0707,0.0287,-2.5263,5.665
14.903000,5.0494,-0.0797,-2.7564,5.753
14.908000,4.9795,-0.1838,-2.9489,5.790
14.913000,4.8659,-0.3000,-3.0918,5.773
14.917000,4.7091,-0.4235,-3.1825,5.699
14.922000,4.5311,-0.5489,-3.1850,5.566
14.929000,4.3537,-0.7311,-3.1596,5.429
14.932000,4.1895,-0.9096,-3.1203,5.302
14.948000,4.0675,-1.0939,-3.0675,5.211
14.950000,3.9256,-1.2670,-2.9773,5.087
14.952000,3.8958,-1.4093,-2.8142,5.008
14.955000,3.5883,-1.5162,-2.6029,4.685
14.998000,3.3725,-1.5725,-2.3653,4.409
14.999000,3.1576,-1.5710,-2.0924,4.101
14.999000,2.9894,-1.5426,-1.8373,3.833
15.000000,2.8490,-1.4822,-1.5646,3.572
15.000000,2.7411,-1.4019,-1.3249,3.352
15.001000,2.6850,-1.3109,-1.1209,3.191
15.001000,2.6877,-1.2120,-0.9621,3.101
15.003000,2.7462,-1.0766,-0.8534,3.071
15.004000,2.8552,-0.9005,-0.7329,3.082
15.005000,2.9926,-0.7225,-0.6702,3.151
15.009000,3.1410,-0.5574,-0.6650,3.259
15.012000,3.2808,-0.3530,-0.6886,3.371
15.018000,3.3732,-0.1482,-0.7308,3.455
15.023000,3.4252,0.0402,-0.8252,3.523
15.028000,3.4389,0.2093,-0.9641,3.578
15.033000,3.4475,0.3398,-1.1373,3.646
15.045000,3.4561,0.4366,-1.3466,3.735
15.047000,3.4524,0.4780,-1.5579,3.818
15.047000,3.4269,0.4709,-1.7492,3.876
15.052000,3.3436,0.4274,-1.8844,3.862
15.091000,3.2003,0.3809,-1.9418,3.763
15.092000,3.0840,0.2507,-2.0104,3.690
15.092000,2.9826,0.0918,-2.0919,3.644
15.093000,2.8700,-0.0815,-2.1121,3.564
15.093000,2.7272,-0.2641,-2.0762,3.438
15.093000,2.5519,-0.4133,-1.9889,3.262
15.093000,2.3404,-0.5402,-1.8463,3.030
15.094000,2.1044,-0.6377,-1.6344,2.740
15.097000,1.8589,-0.7247,-1.3753,2.423
15.106000,1.5991,-0.8202,-1.1222,2.119
15.108000,1.3469,-0.9026,-0.8417,1.827
15.112000,1.0790,-0.9662,-0.5947,1.566
15.117000,0.7571,-1.0015,-0.3044,1.292
15.123000,0.4199,-1.0106,0.0066,1.094
15.128000,0.0962,-1.0219,0.2757,1.063
15.132000,-0.1973,-1.0138,0.5104,1.152
15.138000,-0.4574,-1.0022,0.7554,1.336
15.142000,-0.7037,-0.9919,1.0153,1.584
15.148000,-0.9622,-0.9708,1.2658,1.863
15.153000,-1.2210,-0.9409,1.5040,2.154
15.162000,-1.4733,-0.8763,1.7227,2.430
15.164000,-1.7185,-0.8072,1.9211,2.701
15.168000,-1.9449,-0.7075,2.0874,2.939
15.204000,-2.1407,-0.6035,2.2000,3.128
15.206000,-2.3082,-0.4927,2.2807,3.282
15.206000,-2.4598,-0.3754,2.3392,3.415
15.207000,-2.5785,-0.2512,2.3682,3.510
15.207000,-2.6766,-0.1230,2.3633,3.573
15.207000,-2.7472,-0.0196,2.3152,3.593
15.208000,-2.7954,0.0849,2.2483,3.588
15.210000,-2.8427,0.1783,2.1866,3.591
15.212000,-2.8772,0.2681,2.1281,3.589
15.218000,-2.8943,0.3323,2.0418,3.558
15.223000,-2.9014,0.3875,1.9517,3.518
15.229000,-2.9057,0.4383,1.8677,3.482
15.232000,-2.9123,0.4700,1.7802,3.445
15.244000,-2.9449,0.4925,1.7062,3.439
15.247000,-2.9892,0.5008,1.6292,3.441
15.248000,-3.0452,0.5043,1.5612,3.459
15.253000,-3.1057,0.4865,1.5073,3.486
15.284000,-3.1659,0.4783,1.4509,3.515
15.285000,-3.2377,0.4537,1.3850,3.551
15.285000,-3.3090,0.4269,1.3050,3.583
15.286000,-3.3750,0.4149,1.2113,3.610
15.286000,-3.4334,0.3911,1.1112,3.630
15.286000,-3.4962,0.3723,0.9956,3.654
15.293000,-3.5440,0.3442,0.8742,3.666
15.294000,-3.5818,0.2948,0.7521,3.672
15.298000,-3.6263,0.2338,0.6129,3.685
15.304000,-3.6725,0.1802,0.4808,3.708
15.308000,-3.7206,0.1268,0.3610,3.740
15.312000,-3.7634,0.0544,0.2582,3.773
15.319000,-3.8054,-0.0173,0.1821,3.810
15.325000,-3.8443,-0.1052,0.1160,3.847
15.329000,-3.8655,-0.2139,0.0910,3.873
15.334000,-3.8882,-0.3480,0.0948,3.905
15.339000,-3.8932,-0.4809,0.1274,3.925
15.344000,-3.8708,-0.6075,0.1878,3.923
15.348000,-3.8544,-0.7469,0.2594,3.935
15.355000,-3.8226,-0.8966,0.3274,3.940
15.360000,-3.7704,-1.0300,0.4038,3.929
15.365000,-3.7003,-1.1617,0.4935,3.910
15.369000,-3.6099,-1.2795,0.5893,3.875
15.380000,-3.5158,-1.3953,0.6938,3.846
15.382000,-3.4111,-1.5190,0.8094,3.821
15.384000,-3.2811,-1.6528,0.9388,3.792
15.431000,-3.1357,-1.7560,1.0985,3.758
15.432000,-2.9773,-1.8360,1.2781,3.724
15.432000,-2.7966,-1.9289,1.4534,3.695
15.433000,-2.5888,-2.0372,1.5904,3.658
15.433000,-2.3639,-2.1491,1.7514,3.643
15.434000,-2.1458,-2.2672,1.9145,3.662
15.434000,-1.9133,-2.4350,1.9878,3.680
15.435000,-1.6833,-2.6475,2.0126,3.727
15.435000,-1.4749,-2.8834,2.0487,3.832
15.436000,-1.3047,-3.1520,2.0985,4.005
15.440000,-1.1751,-3.4174,2.1835,4.222
15.444000,-1.0955,-3.6675,2.2866,4.459
15.449000,-1.0538,-3.8948,2.4008,4.695
15.455000,-1.0354,-4.1109,2.5476,4.946
15.459000,-1.0137,-4.3228,2.7223,5.208
15.464000,-0.9885,-4.5371,2.8984,5.474
15.469000,-0.9694,-4.7321,3.0296,5.702
15.476000,-0.9324,-4.9002,3.1282,5.888
15.482000,-0.8868,-5.0463,3.1771,6.029
15.483000,-0.8519,-5.1556,3.1716,6.113
15.507000,-0.8058,-5.2330,3.1048,6.138
15.509000,-0.7535,-5.2785,2.9885,6.112
15.509000,-0.6996,-5.3257,2.8277,6.070
15.510000,-0.6227,-5.3554,2.6560,6.010
15.510000,-0.5134,-5.3919,2.4423,5.941
15.514000,-0.3835,-5.4209,2.1844,5.857
15.519000,-0.2407,-5.4503,1.9135,5.781
15.525000,-0.1041,-5.4755,1.6609,5.723
15.530000,0.0475,-5.5039,1.4384,5.689
15.535000,0.1616,-5.5332,1.2482,5.675
15.540000,0.2286,-5.5634,1.0852,5.673
15.544000,0.2674,-5.5543,0.9634,5.644
15.549000,0.2947,-5.5082,0.8683,5.584
15.556000,0.2724,-5.4369,0.7972,5.502
15.560000,0.2411,-5.3024,0.7405,5.359
15.564000,0.1725,-5.1380,0.7171,5.191
15.569000,0.0804,-4.9895,0.7246,5.043
15.581000,0.0082,-4.8519,0.7555,4.910
15.584000,-0.0440,-4.7536,0.7999,4.821
15.585000,-0.0783,-4.6918,0.8385,4.767
15.636000,-0.1136,-4.6039,0.8731,4.687
15.639000,-0.1312,-4.5240,0.8559,4.606
15.640000,-0.1307,-4.3942,0.7891,4.466
15.640000,-0.1096,-4.1932,0.7139,4.255
15.641000,-0.0894,-3.9355,0.6109,3.984
15.641000,-0.0817,-3.6615,0.4828,3.694
15.642000,-0.0868,-3.3794,0.3471,3.398
15.642000,-0.0876,-3.0744,0.2062,3.083
15.642000,-0.0408,-2.7275,-0.0064,2.728
15.643000,0.0582,-2.3606,-0.2685,2.377
15.644000,0.2001,-1.9498,-0.5581,2.038
15.645000,0.3671,-1.5659,-0.8860,1.836
15.649000,0.5643,-1.1752,-1.2203,1.786
15.654000,0.8055,-0.7929,-1.5508,1.919
15.659000,1.0639,-0.4219,-1.8626,2.186
15.669000,1.3081,-0.0839,-2.1338,2.504
15.671000,1.5394,0.2319,-2.3273,2.800
15.676000,1.7746,0.5541,-2.4430,3.070
15.679000,1.9893,0.8634,-2.4809,3.295
15.685000,2.1854,1.1716,-2.4458,3.483
15.691000,2.3460,1.4666,-2.3548,3.633
15.694000,2.4687,1.7270,-2.2371,3.753
15.700000,2.5550,1.9666,-2.1021,3.849
15.708000,2.6433,2.1736,-1.9645,3.946
15.711000,2.7190,2.3458,-1.8317,4.031
15.714000,2.7962,2.4831,-1.7205,4.116
15.719000,2.8796,2.5784,-1.6574,4.206
15.759000,2.9208,2.6313,-1.6159,4.250
15.761000,2.9222,2.6205,-1.5722,4.228
15.761000,2.8838,2.5748,-1.5143,4.152
15.761000,2.8249,2.4968,-1.4664,4.045
15.762000,2.7147,2.3726,-1.4142,3.873
15.762000,2.5366,2.2381,-1.3531,3.643
15.762000,2.3152,2.0844,-1.2594,3.360
15.763000,2.0630,1.9359,-1.1479,3.053
15.764000,1.7995,1.7953,-1.0213,2.739
15.769000,1.5206,1.6919,-0.8703,2.436
15.774000,1.2456,1.6306,-0.7073,2.170
15.781000,0.9655,1.5808,-0.5300,1.927
15.785000,0.6927,1.5667,-0.3722,1.753
15.793000,0.4491,1.5719,-0.2032,1.647
15.798000,0.2300,1.6014,-0.0231,1.618
15.799000,0.0570,1.6577,0.1274,1.664
15.841000,-0.0864,1.7527,0.2696,1.775
15.843000,-0.2051,1.8674,0.4083,1.922
15.844000,-0.3064,2.0112,0.5316,2.103
15.845000,-0.3736,2.1770,0.6155,2.293
15.845000,-0.4258,2.3167,0.7103,2.460
15.846000,-0.4562,2.4447,0.7826,2.607
15.846000,-0.4554,2.5846,0.8203,2.750
