time,ax,ay,az,aT
0.002000,-0.4734,-0.0519,-0.4267,0.639
0.003000,-0.3185,0.0862,-0.3584,0.487
0.006000,-0.1209,0.1511,-0.2691,0.331
0.008000,0.0250,0.1258,-0.1180,0.174
0.013000,0.1018,0.0456,0.1071,0.155
0.019000,0.1067,-0.0184,0.3204,0.338
0.023000,0.0839,-0.0286,0.4576,0.466
0.029000,0.0389,-0.0072,0.4904,0.492
0.033000,-0.0301,0.0364,0.4117,0.414
0.050000,-0.1179,0.0809,0.2596,0.296
0.050000,-0.1788,0.1555,0.0746,0.248
0.051000,-0.1940,0.2248,-0.0884,0.310
0.054000,-0.2139,0.2605,-0.1915,0.388
0.059000,-0.2602,0.2674,-0.2372,0.442
0.064000,-0.3045,0.2335,-0.2494,0.458
0.068000,-0.3448,0.1805,-0.2400,0.457
0.119000,-0.3598,0.1202,-0.2282,0.443
0.120000,-0.3523,0.0576,-0.2236,0.421
0.120000,-0.3079,0.0024,-0.2310,0.385
0.120000,-0.2416,-0.0691,-0.2625,0.363
0.120000,-0.1899,-0.1493,-0.2872,0.375
0.120000,-0.2274,-0.3407,-0.1762,0.446
0.120000,-0.1330,-0.3628,-0.2814,0.478
0.121000,0.0877,-0.2733,-0.4543,0.537
0.121000,0.2910,-0.1301,-0.4361,0.540
0.121000,0.4031,-0.0388,-0.1984,0.451
0.130000,0.3997,0.0001,0.1081,0.414
0.131000,0.3009,-0.0278,0.3570,0.468
0.133000,0.1695,-0.0516,0.5342,0.563
0.144000,0.0752,-0.0427,0.5849,0.591
0.145000,0.0259,-0.0134,0.5573,0.558
0.148000,0.0035,0.0483,0.4634,0.466
0.154000,-0.0125,0.0997,0.3221,0.337
0.160000,-0.0473,0.1099,0.1669,0.205
0.163000,-0.0785,0.1010,0.0237,0.130
0.168000,-0.0479,0.1303,-0.1074,0.176
0.214000,-0.0129,0.1763,-0.1930,0.262
0.214000,0.0024,0.1932,-0.2258,0.297
0.215000,0.0075,0.1836,-0.2249,0.290
0.215000,0.0092,0.1807,-0.2357,0.297
0.215000,0.0306,0.1749,-0.2677,0.321
0.215000,0.0989,0.2046,-0.2850,0.365
0.216000,0.1945,0.2244,-0.2757,0.405
0.216000,0.2907,0.2319,-0.2302,0.437
0.216000,0.3396,0.2298,-0.1608,0.440
0.226000,0.3838,0.2226,-0.1437,0.466
0.226000,0.4297,0.2057,-0.1313,0.494
0.238000,0.4209,0.1530,-0.1332,0.467
0.239000,0.3568,0.0126,-0.0050,0.357
0.239000,0.2238,-0.1396,0.6063,0.661
0.252000,0.1385,-0.3795,1.0733,1.147
0.252000,0.1916,-0.4661,1.0700,1.183
0.254000,0.3002,-0.3976,0.6463,0.816
0.260000,0.3197,-0.2730,0.0481,0.423
0.265000,0.2701,-0.1174,-0.5078,0.587
0.270000,0.1794,0.0102,-0.8974,0.915
0.275000,0.0689,0.0506,-1.1332,1.136
0.280000,-0.0662,0.0350,-1.2155,1.218
0.285000,-0.1775,-0.0031,-1.2257,1.238
0.337000,-0.2655,-0.0261,-1.1802,1.210
0.338000,-0.3159,-0.0227,-1.0000,1.049
0.339000,-0.3144,-0.0056,-0.7826,0.843
0.339000,-0.2751,0.0245,-0.5805,0.643
0.339000,-0.2415,0.0692,-0.3716,0.449
0.339000,-0.2209,0.0945,-0.1915,0.307
0.339000,-0.2156,0.1145,-0.0592,0.251
0.340000,-0.2066,0.1310,0.0209,0.246
0.340000,-0.1673,0.1465,0.1684,0.279
0.340000,-0.1186,0.1436,0.3358,0.384
0.340000,-0.0593,0.1247,0.4370,0.458
0.349000,0.0080,0.1018,0.4602,0.471
0.349000,0.0686,0.0631,0.4269,0.437
0.363000,0.1004,0.0349,0.3992,0.413
0.363000,0.1271,0.0055,0.3483,0.371
0.365000,0.1241,-0.0175,0.1999,0.236
0.369000,0.0664,-0.0916,0.0926,0.146
0.383000,0.0399,-0.1041,0.0813,0.138
0.384000,0.0603,-0.0690,0.0583,0.109
0.384000,0.1384,-0.0027,-0.0629,0.152
0.456000,0.1956,0.0570,-0.2297,0.307
0.456000,0.2005,0.0939,-0.3754,0.436
0.456000,0.1532,0.0935,-0.4521,0.486
0.457000,0.0945,0.0681,-0.4647,0.479
0.457000,0.0292,0.0318,-0.4636,0.466
0.457000,0.0023,0.0394,-0.5298,0.531
0.457000,0.0299,0.0862,-0.5581,0.566
0.457000,0.0425,0.1096,-0.5175,0.531
0.458000,0.0281,0.1118,-0.4629,0.477
0.458000,0.0130,0.1049,-0.4109,0.424
0.458000,-0.0460,0.0812,-0.3807,0.392
0.458000,-0.1250,0.0576,-0.3553,0.381
0.458000,-0.1829,0.0435,-0.3848,0.428
0.459000,-0.2150,0.0511,-0.4408,0.493
0.468000,-0.2401,0.0662,-0.5042,0.562
0.468000,-0.2462,0.0794,-0.5820,0.637
0.469000,-0.2209,0.0719,-0.6721,0.711
0.481000,-0.2072,0.0605,-0.7864,0.816
0.481000,-0.1815,0.0286,-0.9179,0.936
0.486000,-0.1341,0.0051,-1.0426,1.051
0.501000,-0.0533,-0.0195,-1.1989,1.200
0.501000,0.0486,-0.1189,-1.4180,1.424
0.502000,0.0256,-0.1640,-1.3962,1.406
0.505000,0.0129,-0.1669,-1.4756,1.485
0.575000,-0.0041,-0.1202,-1.6202,1.625
0.575000,-0.1094,-0.1366,-1.7391,1.748
0.576000,-0.2273,-0.1300,-1.8801,1.898
0.576000,-0.2502,-0.0572,-1.9356,1.953
0.576000,-0.2662,-0.0402,-2.0684,2.086
0.577000,-0.3005,-0.2050,-2.5036,2.530
0.577000,0.0245,-0.2782,-2.7295,2.744
0.577000,0.1901,-0.3455,-2.9306,2.957
0.578000,0.2132,-0.4132,-3.1192,3.154
0.578000,0.1890,-0.4737,-3.2857,3.325
0.578000,0.1350,-0.4902,-3.4159,3.454
0.579000,0.0704,-0.4867,-3.5722,3.606
0.579000,0.0586,-0.4366,-3.7114,3.737
0.580000,0.0723,-0.3730,-3.8577,3.876
0.580000,0.0868,-0.3495,-4.0415,4.058
0.585000,0.0886,-0.3278,-4.1624,4.176
0.599000,0.0573,-0.3419,-4.1915,4.206
0.599000,0.0280,-0.3635,-4.1404,4.156
0.600000,0.0192,-0.4314,-4.1717,4.194
0.617000,0.0289,-0.5615,-4.2662,4.303
0.617000,-0.0178,-0.6884,-4.1194,4.177
0.618000,-0.0606,-0.8861,-3.9443,4.043
0.620000,-0.0666,-1.1042,-4.0132,4.163
0.672000,0.0355,-1.3331,-4.1416,4.351
0.673000,0.2910,-1.5174,-4.1666,4.444
0.674000,0.6362,-1.6832,-4.2139,4.582
0.674000,0.9631,-1.8134,-4.3262,4.789
0.675000,1.1748,-1.9173,-4.5866,5.108
0.675000,1.2125,-2.0232,-5.0090,5.537
0.676000,0.9989,-2.1253,-5.3679,5.859
0.677000,0.6178,-2.2094,-5.4916,5.952
0.677000,0.1828,-2.2568,-5.5162,5.963
0.678000,-0.2841,-2.2558,-5.4566,5.911
0.678000,-0.6700,-2.2271,-5.3322,5.817
0.680000,-0.9975,-2.2394,-5.1695,5.721
0.685000,-1.3253,-2.2707,-4.4014,5.127
0.690000,-1.5905,-2.3451,-3.4774,4.486
0.696000,-1.7606,-2.4410,-2.4661,3.891
0.700000,-1.7454,-2.4733,-1.4194,3.343
0.717000,-1.4743,-2.4093,-0.3800,2.850
0.718000,-1.0063,-2.2936,0.2148,2.514
0.718000,-0.5155,-2.1268,0.3033,2.209
0.720000,-0.2747,-2.0272,0.1511,2.051
0.725000,-0.3262,-1.9881,-0.1131,2.018
0.729000,-0.6628,-2.0847,-0.5257,2.250
0.734000,-0.9630,-2.0101,-0.6687,2.327
0.772000,-1.2948,-1.8977,-0.6743,2.394
0.773000,-1.6034,-1.7312,-0.6586,2.450
0.773000,-1.8533,-1.5345,-0.3902,2.438
0.774000,-2.0892,-1.3512,0.0742,2.489
0.774000,-2.4359,-1.2847,0.3288,2.773
0.774000,-2.8052,-1.2506,0.5432,3.119
0.775000,-3.1228,-1.2261,0.6632,3.420
0.775000,-3.3299,-1.2331,0.6426,3.609
0.780000,-3.4000,-1.2541,0.5000,3.658
0.786000,-3.3555,-1.3025,0.1639,3.603
0.790000,-3.2001,-1.3652,-0.3509,3.497
0.795000,-2.9803,-1.4542,-0.9334,3.445
0.800000,-2.7135,-1.5804,-1.5093,3.484
0.817000,-2.4036,-1.6895,-2.0393,3.576
0.818000,-2.0860,-1.7569,-2.4411,3.660
0.818000,-1.8595,-1.7894,-2.5805,3.649
0.821000,-1.9076,-1.8748,-2.3883,3.586
0.883000,-2.1868,-2.0529,-1.8398,3.519
0.883000,-2.5457,-2.2211,-1.3031,3.621
0.884000,-2.8402,-2.2728,-0.9146,3.751
0.884000,-2.9622,-2.2227,-0.4784,3.734
0.884000,-2.7863,-2.1189,0.0071,3.500
0.885000,-2.3558,-1.9832,0.4423,3.111
0.885000,-1.8572,-1.8302,0.9526,2.776
0.885000,-1.2960,-1.7256,1.5927,2.682
0.886000,-0.7231,-1.7305,2.2736,2.947
0.886000,-0.2658,-1.8197,2.8538,3.395
0.886000,-0.0726,-1.9314,3.1706,3.713
0.887000,-0.1776,-1.9873,3.1211,3.704
0.887000,-0.4645,-1.9902,2.8163,3.480
0.895000,-0.7751,-1.9504,2.4266,3.208
0.896000,-0.9953,-1.8380,2.1082,2.969
0.901000,-1.0966,-1.6739,1.8708,2.739
0.908000,-1.1198,-1.5259,1.6834,2.533
0.910000,-1.1731,-1.4960,1.5605,2.460
0.915000,-1.3807,-1.6292,1.3993,2.553
0.921000,-1.6850,-1.8024,1.1426,2.719
0.956000,-1.9489,-1.8663,0.8458,2.828
0.957000,-2.0756,-1.7975,0.6143,2.814
0.957000,-2.1316,-1.6602,0.5244,2.752
0.957000,-2.1009,-1.5269,0.5472,2.654
0.958000,-1.9868,-1.4269,0.6463,2.530
0.958000,-2.0424,-1.5711,0.4174,2.610
0.958000,-1.8002,-1.5141,0.6121,2.431
0.961000,-1.3656,-1.3264,0.8079,2.068
0.966000,-1.2971,-1.2252,0.8090,1.959
0.973000,-1.3904,-1.3181,0.9357,2.132
0.976000,-1.3733,-1.4855,1.0345,2.272
0.980000,-1.1167,-1.7051,0.8930,2.225
0.986000,-0.6888,-1.8864,0.6932,2.124
0.990000,-0.2094,-1.9445,0.5863,2.042
0.995000,0.5642,-1.9225,0.2593,2.020
1.000000,1.0570,-2.1268,-0.5357,2.435
1.007000,1.4982,-2.0562,-0.3613,2.570
1.010000,1.8320,-1.7137,0.2999,2.526
1.015000,2.1229,-1.3420,0.7215,2.613
1.020000,2.3424,-1.0600,0.7178,2.669
1.062000,3.7418,0.4041,0.2224,3.770
1.063000,4.5613,1.4402,0.3289,4.795
1.063000,4.5704,1.4606,0.6537,4.842
1.063000,4.2256,1.0020,0.5982,4.384
1.064000,3.5626,0.2574,0.2934,3.584
1.064000,2.6030,-0.5419,0.0990,2.661
1.064000,1.6359,-0.6587,0.5459,1.846
1.064000,1.4408,-0.6393,0.4223,1.632
1.066000,1.5196,-0.5888,-0.0402,1.630
1.071000,1.6201,-0.6975,-0.3512,1.798
1.075000,1.5570,-0.9496,-0.1617,1.831
1.081000,1.3520,-1.4988,0.5795,2.100
1.085000,1.2956,-2.1628,1.3135,2.843
1.091000,1.3009,-2.6968,1.6436,3.416
1.096000,1.2759,-2.9916,1.6220,3.634
1.100000,1.2233,-3.0978,1.5462,3.672
1.106000,1.3177,-3.0226,1.5167,3.629
1.110000,1.2095,-3.1570,1.6625,3.767
1.115000,0.7871,-3.6391,1.3838,3.972
1.121000,0.2778,-4.1530,0.4887,4.191
1.133000,-0.1029,-4.5041,-0.7048,4.560
1.134000,-0.3024,-4.8061,-1.6597,5.094
1.136000,-0.3014,-5.1543,-1.8746,5.493
1.195000,0.0484,-5.2624,-1.3608,5.436
1.196000,1.1185,-4.5442,-0.5274,4.709
1.196000,2.8054,-3.3104,0.3275,4.352
1.196000,4.6933,-1.9885,1.2577,5.250
1.197000,6.4852,-0.9007,2.0649,6.865
1.197000,7.7628,-0.1193,2.9457,8.304
1.198000,8.4587,0.4711,3.9426,9.344
1.198000,8.7779,0.9349,4.8851,10.089
1.198000,8.7077,1.2910,5.7061,10.490
1.199000,8.3671,1.5463,6.2885,10.580
1.199000,7.9654,1.7037,6.5930,10.479
1.200000,7.3743,1.7427,6.6650,10.092
1.201000,6.3709,1.5406,6.5082,9.237
1.207000,5.1105,1.1549,6.1455,8.076
1.211000,3.8815,0.7603,5.6998,6.938
1.216000,2.8709,0.4280,5.3912,6.123
1.222000,2.2857,0.2720,5.0633,5.562
1.226000,2.1478,0.3555,4.6675,5.150
1.230000,2.5426,0.5926,4.2737,5.008
1.236000,3.3359,0.7226,3.6926,5.029
1.242000,4.3070,0.7384,3.4044,5.539
1.247000,5.4368,0.8188,3.1960,6.360
1.252000,6.4835,0.9056,2.9480,7.180
1.256000,7.4268,1.0653,2.6154,7.946
1.262000,8.3846,1.2372,2.2482,8.768
1.267000,9.1566,1.4185,1.8922,9.457
1.271000,9.7346,1.6015,1.5546,9.987
1.321000,10.0277,1.7739,1.1851,10.252
1.323000,9.8981,1.8356,0.9371,10.110
1.324000,9.2987,1.7919,0.8139,9.505
1.324000,8.3018,1.5477,0.8557,8.488
1.324000,7.2076,1.7117,0.5954,7.432
1.325000,6.0997,1.8487,0.5796,6.400
1.325000,4.9804,1.4026,0.8201,5.239
1.326000,4.3387,0.8632,0.9456,4.524
1.326000,4.4059,0.4678,1.0311,4.549
1.327000,5.2365,0.3112,1.2539,5.394
1.327000,6.5041,0.4637,1.3698,6.663
1.331000,7.7410,0.8231,1.1807,7.874
1.336000,8.6078,1.2594,0.7145,8.729
1.342000,9.0323,1.6768,0.1157,9.187
1.346000,9.1060,2.0230,-0.4448,9.339
1.352000,8.9191,2.2580,-0.8349,9.238
1.358000,8.6690,2.3800,-1.0740,9.054
1.361000,8.5406,2.4227,-1.2410,8.964
1.368000,8.5799,2.4388,-1.3916,9.028
1.371000,8.6526,2.3875,-1.4275,9.089
1.422000,8.8790,2.4626,-1.6341,9.358
1.423000,9.0537,2.5985,-1.7161,9.574
1.424000,9.0818,2.8837,-1.5993,9.662
1.424000,9.0340,3.3463,-1.5295,9.755
1.425000,8.5758,3.3281,-1.3704,9.300
1.425000,7.9071,3.2369,-1.7400,8.719
1.427000,7.6674,3.2458,-1.9088,8.542
1.427000,7.6811,3.2417,-1.1227,8.412
1.428000,7.5294,3.3168,-0.0378,8.228
1.428000,7.6126,3.4011,1.2644,8.433
1.429000,7.9416,3.3519,2.5390,8.986
1.432000,8.2689,3.2426,3.0604,9.394
1.437000,8.4849,3.2716,2.6046,9.459
1.442000,8.4941,3.6354,1.2010,9.317
1.447000,8.3203,4.1235,-0.3971,9.295
1.452000,7.9688,4.3572,-1.6373,9.229
1.458000,7.6494,4.2469,-2.4823,9.095
1.461000,7.4852,4.0214,-3.0347,9.023
1.467000,7.2894,3.7739,-3.2704,8.836
1.471000,6.9086,3.5541,-3.2069,8.405
1.519000,6.4705,3.4267,-2.8941,7.873
1.520000,5.9477,3.2132,-2.3590,7.160
1.520000,5.4099,2.9232,-1.9644,6.455
1.521000,5.3139,2.6023,-1.7766,6.178
1.521000,6.4954,1.7556,-1.5920,6.914
1.521000,5.9921,1.3808,-1.0956,6.246
1.522000,4.7207,1.4665,-0.7455,4.999
1.522000,3.5576,1.5645,0.1804,3.891
1.522000,2.6123,1.4730,1.0142,3.166
1.528000,1.5884,1.4418,1.3532,2.536
1.529000,0.8157,1.5336,1.5694,2.341
1.532000,0.8384,1.3743,2.1451,2.682
1.537000,1.6140,1.0300,2.5680,3.203
1.543000,2.5506,0.7308,2.6005,3.715
1.547000,3.3165,0.6190,2.7304,4.340
1.551000,3.6403,0.3414,2.9447,4.695
1.556000,3.6870,-0.0361,2.9260,4.707
1.561000,3.8966,-0.2645,2.3948,4.581
1.567000,5.5493,-0.5893,1.4195,5.758
1.606000,5.9047,-0.4800,0.5440,5.949
1.606000,5.4623,-0.0282,-0.0887,5.463
1.607000,4.9281,0.4420,-0.4781,4.971
1.607000,4.4078,0.6564,-0.7575,4.520
1.607000,3.9616,0.5534,-1.1164,4.153
1.608000,3.5629,0.3082,-1.4885,3.874
1.608000,3.3260,0.0375,-1.7256,3.747
1.608000,3.0749,-0.2198,-1.6311,3.488
1.612000,2.5069,-0.4339,-1.3733,2.891
1.618000,1.9191,-0.5449,-1.0290,2.245
1.622000,1.3501,-0.3590,-1.0229,1.731
1.628000,0.7353,-0.1870,-1.2336,1.448
1.631000,0.0657,-0.1551,-1.0951,1.108
1.637000,-0.7468,-0.1309,-1.1144,1.348
1.642000,-1.5215,-0.1670,-1.2102,1.951
1.647000,-1.9790,-0.2971,-1.3802,2.431
1.652000,-2.2058,-0.4513,-1.4988,2.705
1.657000,-2.2165,-0.6487,-1.6206,2.821
1.662000,-2.0743,-0.8708,-1.7884,2.874
1.667000,-1.8386,-1.0904,-2.0667,2.973
1.726000,-1.5821,-1.2730,-2.2731,3.048
1.727000,-1.2694,-1.3666,-2.5365,3.149
1.727000,-1.0659,-1.3871,-2.7400,3.251
1.728000,-1.0368,-1.3716,-2.9016,3.373
1.728000,-1.1549,-1.3814,-3.0071,3.505
1.728000,-1.3891,-1.4457,-3.0141,3.620
1.729000,-1.7942,-1.5975,-2.9792,3.827
1.729000,-2.2954,-1.8435,-2.8920,4.127
1.730000,-2.8400,-2.1467,-2.7686,4.510
1.730000,-3.2819,-2.4305,-2.5383,4.808
1.730000,-3.6421,-2.6951,-2.1304,5.007
1.731000,-3.9546,-2.8595,-1.7327,5.179
1.733000,-4.2311,-2.9829,-1.4374,5.373
1.738000,-4.4550,-3.0960,-1.1295,5.541
1.742000,-4.4807,-3.2111,-0.8845,5.583
1.748000,-4.2677,-3.3202,-0.7001,5.452
1.752000,-3.9769,-3.4889,-0.5822,5.322
1.757000,-3.6370,-3.6313,-0.6035,5.175
1.762000,-3.1957,-3.7288,-0.7187,4.963
1.768000,-2.6172,-3.7703,-0.7902,4.657
1.774000,-2.1460,-3.8225,-0.8168,4.459
1.778000,-1.7028,-3.9138,-0.7822,4.339
1.782000,-1.2829,-4.0740,-0.6499,4.320
1.787000,-1.0343,-4.3105,-0.4836,4.459
1.818000,-0.9065,-4.6130,-0.2805,4.710
1.818000,-0.8538,-4.9290,-0.0748,5.003
1.819000,-0.8540,-5.2613,0.1036,5.331
1.819000,-0.8855,-5.5858,0.2238,5.660
1.819000,-0.8765,-5.8945,0.2827,5.966
1.820000,-0.8200,-6.2058,0.3972,6.272
1.826000,-0.7712,-6.5579,0.6018,6.630
1.827000,-0.8043,-6.9294,0.6625,7.007
1.833000,-0.8550,-7.1893,0.6008,7.265
1.839000,-0.8522,-6.8538,-0.0917,6.907
1.842000,-0.6316,-7.1152,0.1706,7.145
1.848000,-0.8382,-7.6867,0.5026,7.749
1.853000,-1.0194,-8.3349,0.6602,8.423
1.857000,-1.1108,-8.8524,0.6573,8.946
1.862000,-1.0364,-9.1464,0.5812,9.223
1.867000,-0.8781,-9.2606,0.5047,9.316
1.873000,-0.7605,-9.2962,0.4350,9.337
1.878000,-0.6788,-9.3280,0.2993,9.357
1.882000,-0.6545,-9.3454,0.1096,9.369
1.943000,-0.6708,-9.3366,-0.0841,9.361
1.944000,-0.7758,-9.3565,-0.2454,9.392
1.945000,-0.8809,-9.3473,-0.3648,9.396
1.945000,-0.9529,-9.2951,-0.4417,9.354
1.946000,-1.0541,-9.2527,-0.4380,9.323
1.946000,-1.2273,-9.2319,-0.4119,9.322
1.947000,-1.3720,-9.1468,-0.3883,9.257
1.947000,-1.5217,-9.0745,-0.2523,9.205
1.947000,-1.6955,-9.0264,-0.0908,9.185
1.948000,-1.8836,-9.0146,0.0507,9.209
1.948000,-2.0145,-9.0341,0.1459,9.257
1.948000,-2.0833,-9.0467,0.1612,9.285
1.950000,-2.0877,-9.0739,0.1043,9.312
1.952000,-2.0328,-9.1038,-0.0245,9.328
1.958000,-1.9737,-9.1317,-0.2106,9.345
1.962000,-1.9340,-9.1573,-0.4445,9.370
1.969000,-1.8971,-9.1474,-0.7096,9.369
1.972000,-1.8820,-9.1018,-1.0156,9.350
1.979000,-1.8430,-8.9800,-1.3342,9.264
1.983000,-1.8305,-8.8398,-1.6461,9.176
1.990000,-1.8561,-8.7120,-1.9253,9.113
1.994000,-1.9078,-8.6065,-2.1722,9.079
1.997000,-1.9950,-8.5062,-2.3798,9.055
2.002000,-2.1366,-8.4276,-2.6464,9.088
2.037000,-2.3205,-8.3081,-2.9978,9.132
2.038000,-2.4988,-8.1063,-3.3381,9.116
2.039000,-2.5375,-7.6554,-3.6890,8.869
2.039000,-2.5320,-7.1450,-3.9626,8.554
2.040000,-2.5492,-6.7114,-4.2174,8.326
2.040000,-2.5408,-6.2926,-4.4711,8.127
2.041000,-2.4707,-5.8743,-4.6956,7.916
2.043000,-2.3006,-5.4473,-4.8387,7.641
2.047000,-1.9900,-4.9727,-4.8747,7.242
2.052000,-1.5534,-4.4157,-4.8017,6.706
2.058000,-1.0245,-3.8615,-4.6562,6.135
2.063000,-0.5134,-3.3545,-4.4722,5.614
2.068000,-0.0610,-2.9047,-4.2979,5.188
2.073000,0.3611,-2.5165,-4.1188,4.840
2.080000,0.7743,-2.1802,-3.9538,4.581
2.084000,1.1760,-1.8677,-3.7883,4.384
2.089000,1.5205,-1.5721,-3.6194,4.229
2.094000,1.7933,-1.3035,-3.4059,4.064
2.099000,1.9847,-1.0876,-3.1257,3.859
2.107000,2.0727,-0.8968,-2.7876,3.588
2.109000,2.0382,-0.7786,-2.3841,3.232
2.114000,1.8525,-0.7542,-1.9842,2.817
2.118000,1.5517,-0.7942,-1.5994,2.366
2.132000,1.1837,-0.8522,-1.2339,1.910
2.134000,0.7817,-0.9259,-0.8937,1.506
2.135000,0.3387,-0.9975,-0.6000,1.212
2.200000,-0.0997,-1.0351,-0.3690,1.103
2.201000,-0.5217,-1.0311,-0.2214,1.177
2.201000,-0.9439,-1.0109,-0.1090,1.387
2.202000,-1.3524,-0.9554,-0.0067,1.656
2.202000,-1.7686,-0.8858,0.1000,1.981
2.202000,-2.2116,-0.8254,0.2136,2.370
2.203000,-2.6765,-0.7907,0.3223,2.809
2.204000,-3.0626,-0.6042,0.3754,3.144
2.204000,-3.5825,-0.5767,0.3842,3.649
2.205000,-4.1020,-0.6043,0.4494,4.171
2.206000,-4.5057,-0.5740,0.4319,4.563
2.207000,-4.8800,-0.5596,0.3104,4.922
2.207000,-5.1027,-0.4244,0.1211,5.122
2.208000,-5.1285,-0.0828,-0.1334,5.131
2.210000,-5.2259,0.1102,-0.3864,5.241
2.214000,-5.3103,0.2847,-0.7583,5.372
2.219000,-5.3241,0.6946,-1.5167,5.579
2.224000,-5.1677,1.2462,-2.2643,5.778
2.228000,-4.9098,1.5403,-2.3260,5.647
2.234000,-4.4972,1.7005,-2.1009,5.247
2.278000,-4.0281,1.7283,-1.9138,4.783
2.279000,-3.6488,1.6923,-1.8030,4.408
2.279000,-3.3642,1.7090,-1.7156,4.145
2.280000,-3.1245,1.7966,-1.6110,3.948
2.280000,-2.9821,1.9362,-1.4340,3.834
2.280000,-2.9274,2.0886,-1.3532,3.842
2.281000,-2.9364,2.2594,-1.4563,3.981
2.281000,-2.8536,2.4849,-1.6697,4.136
2.281000,-2.6268,2.7889,-1.8153,4.240
2.283000,-2.2690,3.1173,-1.8504,4.277
2.288000,-1.8425,3.4840,-1.7758,4.323
2.294000,-1.2999,4.0073,-1.6519,4.525
2.325000,-1.0173,4.2058,-1.4202,4.554
2.326000,-0.8643,4.2410,-1.2756,4.512
2.326000,-0.7669,4.1320,-1.2276,4.378
2.326000,-0.6980,3.9424,-1.2904,4.207
2.326000,-0.6095,3.7904,-1.4753,4.113
2.327000,-0.4630,3.7195,-1.6904,4.112
2.330000,-0.2634,3.7322,-1.8326,4.166
2.334000,-0.0200,3.8311,-1.9358,4.292
2.371000,0.2451,3.9962,-2.0307,4.489
2.372000,0.2783,4.1557,-2.0384,4.637
2.372000,0.7586,4.2348,-1.9349,4.717
2.373000,0.9631,4.2046,-1.7636,4.660
2.373000,1.1862,4.0581,-1.5958,4.519
2.374000,1.4158,3.8459,-1.5003,4.364
2.374000,1.6728,3.5846,-1.4782,4.223
2.383000,1.9909,3.3606,-1.4906,4.181
2.383000,2.3126,3.1908,-1.4726,4.207
2.385000,2.6017,3.0702,-1.4123,4.265
2.392000,2.8942,3.0035,-1.3029,4.370
2.393000,3.2310,2.9523,-1.1950,4.537
2.401000,3.5778,2.9350,-1.0861,4.753
2.403000,3.9081,2.9657,-0.9211,4.992
2.408000,4.1283,3.0055,-0.7504,5.161
2.414000,4.2742,3.0161,-0.5739,5.263
2.419000,4.3270,2.9452,-0.4037,5.250
2.424000,4.2892,2.7833,-0.2949,5.122
2.429000,4.2118,2.5864,-0.2379,4.948
2.436000,4.1311,2.3648,-0.2158,4.765
2.465000,4.0667,2.1502,-0.2502,4.607
2.466000,4.0621,1.9695,-0.3459,4.528
2.467000,4.1247,1.8231,-0.4426,4.531
2.468000,4.2208,1.6918,-0.5019,4.575
2.469000,4.3599,1.5660,-0.5479,4.665
2.469000,4.5326,1.4122,-0.5738,4.782
2.474000,4.7102,1.2662,-0.5537,4.909
2.476000,4.8902,1.1374,-0.4976,5.045
2.478000,5.0579,1.0227,-0.3699,5.173
2.483000,5.2013,0.9030,-0.2047,5.283
2.488000,5.3159,0.7660,-0.0264,5.371
2.493000,5.3752,0.6215,0.1672,5.414
2.498000,5.3914,0.4885,0.3592,5.425
2.503000,5.3720,0.3626,0.5398,5.411
2.509000,5.3435,0.2557,0.6895,5.394
2.514000,5.3179,0.1609,0.7678,5.375
2.519000,5.3145,0.0998,0.8085,5.377
2.524000,5.2879,0.0606,0.8022,5.349
2.530000,5.2335,0.0341,0.7637,5.289
2.533000,5.1489,0.0058,0.7029,5.197
2.540000,5.0392,-0.0310,0.6726,5.084
2.544000,4.9502,-0.0543,0.6416,4.992
2.549000,4.9083,-0.0258,0.5503,4.939
2.553000,4.9351,0.0641,0.4205,4.953
2.595000,5.0087,0.2057,0.2718,5.020
2.597000,5.0998,0.3672,0.1309,5.115
2.597000,5.2059,0.5365,0.0217,5.234
2.597000,5.3291,0.7323,-0.0704,5.380
2.598000,5.4668,0.9591,-0.1696,5.553
2.598000,5.6214,1.1856,-0.3311,5.755
2.599000,5.7900,1.4375,-0.5551,5.992
2.599000,5.9581,1.7365,-0.8147,6.259
2.604000,6.1423,2.1278,-1.1214,6.596
2.604000,6.3350,2.6037,-1.4625,7.004
2.611000,6.5236,3.1328,-1.7585,7.447
2.614000,6.7074,3.6663,-2.0259,7.908
2.621000,6.9025,4.1991,-2.2262,8.381
2.627000,7.0870,4.6923,-2.3737,8.825
2.628000,7.2553,5.1094,-2.4278,9.200
2.634000,7.3808,5.4547,-2.4250,9.493
2.642000,7.4799,5.7206,-2.3826,9.713
2.645000,7.5498,5.8945,-2.2942,9.849
2.649000,7.5737,5.9692,-2.1959,9.890
2.657000,7.5586,5.9108,-2.1288,9.829
2.661000,7.4831,5.7412,-2.0877,9.660
2.664000,7.3569,5.4797,-2.0268,9.395
2.669000,7.1734,5.1435,-1.9798,9.046
2.696000,6.9022,4.7190,-1.9412,8.584
2.696000,6.5869,4.2474,-1.8250,8.047
2.697000,6.2595,3.7534,-1.6484,7.482
2.697000,5.9469,3.2637,-1.4404,6.935
2.697000,5.6753,2.8046,-1.2085,6.445
2.703000,5.3980,2.3720,-1.0154,5.983
2.711000,5.1222,1.9614,-0.8901,5.557
2.712000,4.8675,1.6112,-0.8378,5.195
2.714000,4.6032,1.3218,-0.8391,4.862
2.719000,4.3627,1.0953,-0.8747,4.582
2.729000,4.1249,0.9324,-0.9160,4.327
2.729000,3.8872,0.8349,-0.9652,4.091
2.734000,3.6185,0.7836,-1.0510,3.849
2.750000,3.3092,0.7592,-1.1494,3.584
2.750000,2.9759,0.7494,-1.2723,3.322
2.751000,2.6314,0.7480,-1.3910,3.069
2.767000,2.2563,0.7524,-1.5170,2.821
2.768000,1.8794,0.7938,-1.6404,2.618
2.768000,1.5153,0.8437,-1.7300,2.450
2.770000,1.1542,0.9164,-1.7666,2.301
2.775000,0.7841,0.9970,-1.7645,2.173
2.780000,0.4319,1.0939,-1.7025,2.069
2.784000,0.1069,1.2039,-1.5908,1.998
2.814000,-0.2053,1.3319,-1.4677,1.993
2.814000,-0.4807,1.4656,-1.3410,2.044
2.815000,-0.7435,1.5808,-1.2035,2.121
2.815000,-0.9765,1.6831,-1.0533,2.213
2.815000,-1.1631,1.7623,-0.8667,2.282
2.815000,-1.3226,1.8209,-0.6872,2.353
2.822000,-1.4597,1.8586,-0.5244,2.421
2.830000,-1.5914,1.9016,-0.4094,2.513
2.831000,-1.7178,1.9301,-0.3065,2.602
2.835000,-1.8503,1.9333,-0.2420,2.687
2.845000,-1.9797,1.9200,-0.1703,2.763
2.847000,-2.1082,1.8784,-0.1175,2.826
2.849000,-2.2765,1.7823,-0.0833,2.892
2.861000,-2.4465,1.6647,-0.0457,2.960
2.862000,-2.6487,1.5271,0.0052,3.057
2.866000,-2.8400,1.3811,0.0429,3.158
2.878000,-3.0229,1.2222,0.0771,3.262
2.879000,-3.1756,1.0338,0.0744,3.340
2.880000,-3.3101,0.8378,0.0684,3.415
2.886000,-3.4193,0.6267,0.0519,3.477
2.934000,-3.5173,0.4184,0.0013,3.542
2.936000,-3.6089,0.2007,-0.0475,3.615
2.942000,-3.6894,-0.0167,-0.0874,3.690
2.942000,-3.7514,-0.2504,-0.1400,3.762
2.943000,-3.7952,-0.5223,-0.1745,3.835
2.943000,-3.7966,-0.8288,-0.1934,3.891
2.943000,-3.7699,-1.1843,-0.2042,3.957
2.944000,-3.7270,-1.6028,-0.2357,4.064
2.944000,-3.6513,-2.0361,-0.2449,4.188
2.944000,-3.5570,-2.5148,-0.2464,4.363
2.945000,-3.4370,-3.0080,-0.2405,4.574
2.945000,-3.3031,-3.5094,-0.2030,4.824
2.950000,-3.1579,-4.0001,-0.1341,5.098
2.955000,-2.9894,-4.5040,-0.0601,5.406
2.960000,-2.7929,-5.0255,0.0189,5.749
2.965000,-2.5159,-5.5669,0.0645,6.109
2.971000,-2.2303,-6.1104,0.0755,6.505
2.975000,-1.9341,-6.6036,0.0786,6.881
2.979000,-1.6584,-7.0657,0.0862,7.258
2.984000,-1.3912,-7.4795,0.0982,7.608
3.015000,-1.1256,-7.8357,0.0857,7.917
3.016000,-0.8686,-8.1428,0.0636,8.189
3.016000,-0.5986,-8.3912,0.0526,8.413
3.016000,-0.5908,-8.5975,0.0455,8.618
3.016000,0.1236,-8.7427,0.0734,8.744
3.017000,0.5655,-8.8464,0.1222,8.865
3.021000,1.0654,-8.9166,0.1533,8.981
3.024000,1.5724,-8.9439,0.1679,9.083
3.029000,2.0388,-8.9077,0.2163,9.141
3.036000,2.5096,-8.8471,0.2465,9.199
3.040000,2.9630,-8.7367,0.2952,9.230
3.046000,3.3511,-8.6112,0.3364,9.246
3.050000,3.6088,-8.4784,0.3663,9.222
3.054000,3.7313,-8.3676,0.3952,9.170
3.060000,3.7114,-8.3268,0.3927,9.125
3.065000,3.5250,-8.3676,0.3453,9.086
3.070000,3.2151,-8.4724,0.2825,9.066
3.075000,2.8558,-8.6190,0.1689,9.081
3.080000,2.4900,-8.7829,0.0156,9.129
3.085000,2.1460,-8.9329,-0.1480,9.188
3.097000,1.8475,-9.0713,-0.3477,9.264
3.099000,1.5803,-9.2173,-0.6051,9.371
3.102000,1.3182,-9.3587,-0.9228,9.496
3.157000,1.0400,-9.5238,-1.2776,9.665
3.158000,0.7723,-9.6857,-1.6244,9.851
3.159000,0.5060,-9.8178,-1.9545,10.023
3.159000,0.2053,-9.8814,-2.2946,10.146
3.160000,-0.1317,-9.8956,-2.6115,10.235
3.161000,-0.5092,-9.8841,-2.8805,10.308
3.161000,-0.9052,-9.8538,-3.0452,10.353
3.162000,-1.3216,-9.8163,-3.1574,10.396
3.162000,-1.7458,-9.7332,-3.2764,10.417
3.163000,-2.1630,-9.5755,-3.4397,10.402
3.164000,-2.5706,-9.3164,-3.6480,10.330
3.164000,-2.9369,-8.9515,-3.8988,10.196
3.165000,-3.2164,-8.4902,-4.1495,9.982
3.171000,-3.4065,-7.9518,-4.4158,9.713
3.174000,-3.4953,-7.3605,-4.7249,9.419
3.180000,-3.4494,-6.7666,-5.0532,9.123
3.186000,-3.2426,-6.1619,-5.3628,8.789
3.190000,-2.8896,-5.5777,-5.6249,8.432
3.196000,-2.4722,-5.0294,-5.8511,8.102
3.200000,-1.9882,-4.5108,-6.0266,7.786
3.208000,-1.4857,-4.0270,-6.1292,7.483
3.211000,-0.9844,-3.5586,-6.1629,7.184
3.216000,-0.4822,-3.1345,-6.1199,6.893
3.270000,-0.0297,-2.7699,-5.9877,6.597
3.270000,0.3658,-2.4747,-5.8179,6.333
3.271000,0.7016,-2.2206,-5.5812,6.048
3.271000,0.9800,-1.9832,-5.2816,5.726
3.271000,1.2029,-1.7283,-4.9278,5.359
3.272000,1.3368,-1.4725,-4.4505,4.875
3.272000,1.3553,-1.2640,-3.8520,4.275
3.272000,1.2966,-1.1290,-3.1512,3.590
3.273000,1.1391,-1.0675,-2.4102,2.872
3.273000,0.8779,-1.0392,-1.6671,2.152
3.273000,0.5491,-1.0340,-0.9598,1.514
3.276000,0.1432,-1.0465,-0.2933,1.096
3.280000,-0.3036,-1.0521,0.3159,1.140
3.286000,-0.7721,-1.0220,0.8919,1.561
3.290000,-1.2764,-0.9670,1.4440,2.156
3.295000,-1.7925,-0.8922,1.9487,2.794
3.300000,-2.3344,-0.7872,2.3984,3.438
3.307000,-2.8591,-0.6541,2.7742,4.037
3.310000,-3.3591,-0.5140,3.0759,4.584
3.315000,-3.8152,-0.3615,3.2822,5.046
3.321000,-4.2395,-0.1993,3.3623,5.415
3.351000,-4.6318,-0.0365,3.2996,5.687
3.351000,-4.9944,0.1130,3.1304,5.895
3.352000,-5.2581,0.2709,2.8575,5.991
3.352000,-5.4252,0.4425,2.4765,5.980
3.352000,-5.4985,0.6152,2.0478,5.900
3.353000,-5.4876,0.7964,1.5500,5.758
3.362000,-5.4215,0.9692,1.0290,5.603
3.363000,-5.3530,1.1500,0.5379,5.501
3.365000,-5.3014,1.3338,0.1343,5.468
3.371000,-5.2642,1.5062,-0.1750,5.478
3.375000,-5.2630,1.7048,-0.4125,5.548
3.381000,-5.2760,1.8818,-0.6558,5.640
3.386000,-5.2647,2.0779,-0.9081,5.732
3.390000,-5.2289,2.2763,-1.1796,5.824
3.396000,-5.1781,2.4775,-1.4657,5.924
3.400000,-5.1174,2.6663,-1.6801,6.010
3.405000,-5.0515,2.8404,-1.8109,6.072
3.410000,-4.9661,2.9952,-1.8872,6.099
3.415000,-4.8349,3.1114,-1.9070,6.058
3.426000,-4.6769,3.2011,-1.9162,5.983
3.427000,-4.4995,3.2589,-1.9125,5.876
3.430000,-4.3245,3.3111,-1.8694,5.758
3.435000,-4.1973,3.3220,-1.8203,5.654
3.487000,-4.0652,3.3181,-1.7146,5.520
3.489000,-3.9139,3.2994,-1.5810,5.358
3.490000,-3.7838,3.2759,-1.3547,5.185
3.491000,-3.6514,3.2472,-1.0500,4.998
3.491000,-3.4855,3.1896,-0.7004,4.776
3.492000,-3.2694,3.1101,-0.3225,4.524
3.492000,-3.0370,3.0255,0.0888,4.288
3.493000,-2.8048,2.9141,0.5285,4.079
3.493000,-2.5901,2.7824,0.9938,3.929
3.493000,-2.4021,2.5923,1.4578,3.823
3.494000,-2.2361,2.3273,1.8795,3.735
3.495000,-2.0819,2.0045,2.2798,3.681
3.500000,-1.9084,1.6791,2.6032,3.638
3.505000,-1.6887,1.3566,2.8495,3.579
3.511000,-1.4447,1.0246,3.0354,3.514
3.516000,-1.1929,0.6811,3.1897,3.473
3.521000,-0.9259,0.3095,3.2595,3.403
3.527000,-0.6557,-0.0614,3.1759,3.243
3.531000,-0.3438,-0.4119,2.9416,2.990
3.536000,0.0310,-0.7497,2.5552,2.663
3.542000,0.4018,-1.0768,2.0629,2.361
3.546000,0.7781,-1.3810,1.5040,2.185
3.551000,1.1813,-1.6359,0.8865,2.204
3.605000,1.5638,-1.8220,0.3018,2.420
3.606000,1.9442,-1.9281,-0.2832,2.753
3.607000,2.3346,-1.9350,-0.8327,3.145
3.607000,2.7179,-1.9198,-1.3372,3.586
3.607000,3.0655,-1.8897,-1.7871,4.020
3.607000,3.3870,-1.8640,-2.1538,4.425
3.608000,3.6874,-1.8135,-2.5119,4.816
3.609000,4.0023,-1.7555,-2.7964,5.188
3.609000,4.3152,-1.6945,-2.9932,5.518
3.609000,4.6309,-1.6185,-3.1288,5.818
3.610000,4.9349,-1.5088,-3.2030,6.074
3.611000,5.2248,-1.3986,-3.1947,6.282
3.617000,5.4906,-1.3031,-3.1373,6.457
3.622000,5.7063,-1.2291,-3.0598,6.591
3.626000,5.8960,-1.1670,-2.9503,6.695
3.631000,6.1027,-1.1262,-2.8064,6.811
3.636000,6.3454,-1.0877,-2.6302,6.955
3.643000,6.6242,-1.0633,-2.3686,7.115
3.646000,6.9119,-1.0009,-2.0599,7.281
3.651000,7.1488,-0.9581,-1.6893,7.408
3.658000,7.4065,-0.9182,-1.2645,7.570
3.661000,7.6561,-0.8864,-0.8313,7.752
3.666000,7.8881,-0.8457,-0.4474,7.946
3.710000,8.0611,-0.7877,-0.0888,8.100
3.711000,8.1536,-0.7025,0.2660,8.188
3.712000,8.1898,-0.5544,0.6098,8.231
3.712000,8.1671,-0.3603,0.9231,8.227
3.712000,8.1384,-0.0914,1.2010,8.227
3.713000,8.1079,0.2347,1.4451,8.239
3.713000,8.0708,0.5700,1.6481,8.257
3.714000,8.0295,0.8714,1.7496,8.264
3.716000,8.0220,1.1724,1.7590,8.296
3.717000,7.9982,1.4655,1.6500,8.297
3.723000,7.9628,1.7870,1.4444,8.288
3.726000,7.9272,2.1482,1.1803,8.298
3.732000,7.8747,2.5347,0.8676,8.318
3.737000,7.8075,2.9417,0.5399,8.361
3.742000,7.7157,3.3522,0.1854,8.415
3.746000,7.5684,3.7448,-0.2336,8.447
3.752000,7.3913,4.1409,-0.6303,8.496
3.793000,7.1822,4.5094,-0.9470,8.533
3.794000,6.9457,4.8359,-1.1836,8.546
3.794000,6.6557,5.0872,-1.3188,8.480
3.794000,6.3577,5.2728,-1.3867,8.375
3.795000,6.0497,5.4073,-1.4762,8.247
3.795000,5.7510,5.4884,-1.5732,8.104
3.795000,5.4691,5.5188,-1.6584,7.945
3.796000,5.2207,5.4869,-1.7249,7.768
3.796000,5.0348,5.4094,-1.7914,7.604
3.801000,4.9043,5.2509,-1.8865,7.428
3.806000,4.7911,5.0093,-1.9644,7.205
3.812000,4.7194,4.7448,-2.0008,6.985
3.817000,4.6916,4.4647,-2.0316,6.788
3.821000,4.6598,4.1905,-2.0088,6.581
3.827000,4.6144,3.9101,-1.9059,6.341
3.831000,4.5868,3.6477,-1.7859,6.127
3.839000,4.6033,3.4366,-1.6916,5.989
3.841000,4.6445,3.2719,-1.6561,5.918
3.847000,4.6048,3.1291,-1.6172,5.798
3.851000,4.4702,2.9628,-1.5222,5.575
3.857000,4.2788,2.8064,-1.4051,5.306
3.862000,4.0653,2.6320,-1.3094,5.017
3.866000,3.8512,2.4467,-1.2708,4.736
3.896000,3.6537,2.2870,-1.3158,4.507
3.897000,3.4896,2.2103,-1.3959,4.360
3.897000,3.3587,2.2138,-1.4391,4.272
3.898000,3.2542,2.2526,-1.4553,4.217
3.898000,3.1852,2.3308,-1.4400,4.201
3.900000,3.1205,2.4360,-1.3362,4.178
3.901000,3.0454,2.5751,-1.1350,4.147
3.906000,2.9595,2.7208,-0.9324,4.127
3.912000,2.8681,2.8879,-0.7104,4.132
3.916000,2.7419,3.0636,-0.4809,4.139
3.922000,2.5833,3.2213,-0.2827,4.139
3.926000,2.3995,3.3560,-0.1420,4.128
3.931000,2.1497,3.4771,-0.0466,4.088
3.936000,1.8841,3.5746,0.0681,4.041
3.941000,1.5964,3.6400,0.1924,3.979
3.947000,1.3127,3.6704,0.3644,3.915
3.951000,1.0237,3.6517,0.5960,3.839
3.958000,0.7464,3.6201,0.8034,3.783
3.961000,0.4543,3.5439,0.9581,3.699
3.966000,0.1531,3.4271,1.0920,3.600
3.977000,-0.1500,3.2744,1.2126,3.495
3.979000,-0.4379,3.1006,1.3013,3.391
3.982000,-0.7035,2.9155,1.3466,3.288
3.987000,-0.9370,2.7170,1.3227,3.164
4.045000,-1.1578,2.5216,1.2516,3.044
4.045000,-1.3460,2.3186,1.1815,2.930
4.046000,-1.5116,2.1289,1.0622,2.819
4.046000,-1.6641,1.9359,0.9562,2.726
4.046000,-1.8298,1.7277,0.8848,2.668
4.047000,-1.9826,1.4868,0.8597,2.623
4.047000,-2.0931,1.2482,0.8225,2.572
4.047000,-2.1615,0.9896,0.7633,2.497
4.048000,-2.2237,0.7040,0.6553,2.423
4.048000,-2.2892,0.3652,0.5101,2.374
4.048000,-2.3269,0.0182,0.3466,2.353
4.048000,-2.3623,-0.3566,0.0969,2.391
4.052000,-2.3622,-0.7429,-0.1889,2.483
4.057000,-2.3551,-1.1426,-0.4534,2.657
4.061000,-2.3411,-1.5482,-0.6676,2.885
4.066000,-2.3488,-1.9690,-0.7978,3.167
4.073000,-2.3998,-2.3716,-0.7985,3.467
4.077000,-2.4674,-2.7331,-0.6531,3.740
4.081000,-2.5709,-3.0707,-0.4337,4.028
4.133000,-2.6863,-3.4053,-0.1856,4.341
4.133000,-2.7562,-3.7510,0.0986,4.656
4.134000,-2.7616,-4.1055,0.3252,4.959
4.134000,-2.6736,-4.4604,0.4656,5.221
4.134000,-2.5667,-4.8135,0.5218,5.480
4.135000,-2.4433,-5.1575,0.5515,5.734
4.135000,-2.2651,-5.4681,0.5838,5.947
4.135000,-2.0014,-5.7306,0.6096,6.101
4.136000,-1.6501,-5.9317,0.6840,6.195
4.136000,-1.2974,-6.1258,0.7644,6.308
4.137000,-0.9411,-6.3307,0.8480,6.456
4.144000,-0.6174,-6.5822,0.9163,6.674
4.147000,-0.3668,-6.8805,1.0124,6.964
4.153000,-0.1297,-7.1850,1.0717,7.266
4.157000,0.0964,-7.4448,1.0832,7.524
4.162000,0.3376,-7.6460,1.0185,7.721
4.168000,0.5433,-7.8056,0.8857,7.874
4.172000,0.7014,-7.9333,0.7333,7.998
4.178000,0.8502,-8.0579,0.5949,8.124
4.182000,0.9918,-8.1551,0.5144,8.231
4.187000,1.1333,-8.2327,0.4340,8.322
4.192000,1.2388,-8.3003,0.3708,8.400
4.197000,1.3369,-8.3559,0.2313,8.465
4.202000,1.4562,-8.3875,0.0207,8.513
4.208000,1.5894,-8.4413,-0.1366,8.591
4.213000,1.7341,-8.5169,-0.3413,8.698
4.217000,1.8688,-8.5978,-0.5934,8.819
4.277000,1.9502,-8.6605,-0.9070,8.924
4.278000,1.9518,-8.6907,-1.2642,8.996
4.278000,1.8832,-8.6887,-1.5954,9.032
4.278000,1.7587,-8.6686,-1.9408,9.056
4.279000,1.5784,-8.6805,-2.1378,9.078
4.279000,1.3520,-8.7743,-2.1776,9.141
4.280000,1.0752,-8.9521,-2.2022,9.281
4.280000,0.8008,-9.1579,-2.3222,9.482
4.280000,0.5649,-9.2858,-2.4832,9.629
4.280000,0.3676,-9.2996,-2.7042,9.692
4.281000,0.1539,-9.2329,-2.8968,9.678
4.281000,-0.0593,-9.1263,-3.0157,9.612
4.283000,-0.2889,-9.0520,-3.0206,9.547
4.288000,-0.5105,-9.0240,-2.9914,9.521
4.295000,-0.7097,-8.9921,-2.9768,9.499
4.297000,-0.8623,-8.8965,-3.0177,9.434
4.303000,-1.0355,-8.7067,-3.1739,9.325
4.307000,-1.2723,-8.4036,-3.3996,9.154
4.312000,-1.5391,-7.9896,-3.6800,8.930
4.317000,-1.8048,-7.5059,-3.9557,8.674
4.358000,-2.0358,-7.0051,-4.2242,8.430
4.358000,-2.1771,-6.5281,-4.4452,8.192
4.359000,-2.2335,-6.1085,-4.6883,8.018
4.359000,-2.2244,-5.7371,-4.9052,7.869
4.360000,-2.1548,-5.3947,-5.0501,7.697
4.360000,-2.0774,-5.0538,-5.0704,7.454
4.361000,-1.9924,-4.7240,-4.9542,7.129
4.361000,-1.9117,-4.4369,-4.7306,6.762
4.363000,-1.8233,-4.1834,-4.3934,6.335
4.368000,-1.7176,-3.9826,-4.0077,5.905
4.373000,-1.6187,-3.7905,-3.5884,5.465
4.380000,-1.5362,-3.6238,-3.1284,5.028
4.382000,-1.5109,-3.4929,-2.6780,4.653
4.390000,-1.5405,-3.3595,-2.2424,4.323
4.393000,-1.6558,-3.2668,-1.8050,4.083
4.399000,-1.8376,-3.2119,-1.3562,3.941
4.405000,-2.0693,-3.2142,-0.8979,3.927
4.409000,-2.3579,-3.2611,-0.4752,4.052
4.413000,-2.6845,-3.3283,-0.1137,4.277
4.418000,-3.0798,-3.3913,0.2039,4.586
4.482000,-3.5245,-3.4443,0.4970,4.953
4.483000,-3.9802,-3.4655,0.7636,5.332
4.484000,-4.3870,-3.4255,0.9752,5.651
4.484000,-4.7423,-3.3477,1.1561,5.919
4.484000,-5.0462,-3.2726,1.3110,6.156
4.485000,-5.2889,-3.1881,1.4758,6.349
4.485000,-5.5496,-3.1089,1.6093,6.561
4.486000,-5.7872,-3.0010,1.6971,6.736
4.486000,-5.9944,-2.9050,1.7125,6.878
4.486000,-6.1209,-2.8109,1.6056,6.924
4.487000,-6.1741,-2.7143,1.3745,6.883
4.487000,-6.1419,-2.5978,1.0485,6.751
4.487000,-6.0152,-2.4697,0.6276,6.533
4.488000,-5.8035,-2.3060,0.2026,6.248
4.494000,-5.5644,-2.1001,-0.2219,5.952
4.498000,-5.3507,-1.8906,-0.6075,5.707
4.503000,-5.2027,-1.6893,-0.9856,5.558
4.507000,-5.0561,-1.4874,-1.3370,5.437
4.513000,-4.8724,-1.2818,-1.6357,5.297
4.518000,-4.6943,-1.0532,-1.9417,5.188
4.524000,-4.5074,-0.7779,-2.2335,5.090
4.528000,-4.2901,-0.4747,-2.5040,4.990
4.533000,-4.0764,-0.1542,-2.7076,4.896
4.539000,-3.8468,0.1791,-2.8612,4.798
4.543000,-3.6348,0.5107,-3.0056,4.744
4.548000,-3.4119,0.8404,-3.1382,4.711
4.553000,-3.1207,1.1894,-3.1992,4.625
4.610000,-2.7925,1.5601,-3.1859,4.515
4.610000,-2.4330,1.9583,-3.1368,4.426
4.611000,-2.0852,2.3478,-3.0515,4.379
4.611000,-1.7256,2.7164,-2.9110,4.339
4.611000,-1.0006,3.2455,-2.5958,4.275
4.612000,-0.9487,3.3198,-2.6009,4.323
4.612000,-0.6536,3.5570,-2.4493,4.368
4.612000,-0.4321,3.7141,-2.2559,4.367
4.613000,-0.2648,3.8204,-1.9943,4.318
4.613000,-0.1109,3.8928,-1.7223,4.258
4.613000,0.0536,3.9388,-1.5021,4.216
4.613000,0.2406,3.9729,-1.2616,4.175
4.618000,0.4158,3.9966,-0.9386,4.126
4.623000,0.5650,3.9767,-0.5426,4.053
4.628000,0.6690,3.8581,-0.0961,3.917
4.633000,0.7832,3.6672,0.3018,3.762
4.641000,0.9583,3.4237,0.5402,3.596
4.645000,1.1868,3.1561,0.6072,3.426
4.648000,1.4927,2.8695,0.6015,3.290
4.653000,1.8638,2.6050,0.4762,3.238
4.707000,2.2328,2.3625,0.3686,3.271
4.708000,2.5827,2.1180,0.3364,3.357
4.709000,2.9231,1.9048,0.2718,3.500
4.709000,3.2082,1.6773,0.1815,3.625
4.709000,3.4290,1.4764,0.0727,3.734
4.710000,3.6168,1.2903,-0.0071,3.840
4.710000,3.6906,1.0574,-0.0384,3.839
4.710000,3.7704,0.8428,-0.1216,3.865
4.710000,3.8302,0.6252,-0.1991,3.886
4.711000,3.8895,0.4147,-0.3044,3.923
4.711000,3.9651,0.2234,-0.4161,3.993
4.714000,4.0623,0.0849,-0.5228,4.097
4.720000,4.1428,-0.0698,-0.6170,4.189
4.726000,4.2404,-0.2096,-0.7015,4.303
4.730000,4.3578,-0.3340,-0.7930,4.442
4.735000,4.4809,-0.4214,-0.8725,4.584
4.741000,4.6360,-0.4668,-0.9424,4.754
4.745000,4.8401,-0.4536,-1.0075,4.965
4.748000,5.0859,-0.3936,-1.0606,5.210
4.754000,5.3274,-0.3018,-1.0967,5.447
4.806000,5.5380,-0.1785,-1.0846,5.646
4.807000,5.7728,-0.0310,-1.0269,5.864
4.807000,5.9885,0.1163,-0.9647,6.067
4.807000,6.1779,0.2490,-0.8910,6.247
4.808000,6.2999,0.3476,-0.8129,6.362
4.808000,6.3763,0.4074,-0.7161,6.429
4.808000,6.4886,0.4311,-0.6199,6.532
4.809000,6.6179,0.4117,-0.5173,6.651
4.809000,6.7934,0.3665,-0.4616,6.819
4.809000,7.0770,0.3167,-0.4929,7.101
4.810000,7.4085,0.3031,-0.5242,7.433
4.814000,7.6990,0.3733,-0.5477,7.727
4.820000,7.9312,0.5505,-0.5606,7.970
4.825000,8.1237,0.8006,-0.5557,8.182
4.829000,8.2048,1.0469,-0.5136,8.287
4.834000,8.1909,1.2819,-0.4229,8.301
4.839000,8.1950,1.5249,-0.3585,8.343
4.845000,8.2697,1.7711,-0.2916,8.462
4.850000,8.3741,2.0155,-0.2489,8.617
4.853000,8.4244,2.2892,-0.2636,8.734
4.859000,8.4820,2.5892,-0.2539,8.872
4.863000,8.4751,2.9105,-0.2318,8.964
4.868000,8.3627,3.2646,-0.2147,8.980
4.923000,8.1761,3.6250,-0.2290,8.947
4.924000,7.9055,3.9939,-0.3325,8.863
4.924000,7.5753,4.3666,-0.5775,8.763
4.924000,7.2356,4.7386,-0.9036,8.696
4.925000,6.9103,5.1003,-1.2505,8.679
4.925000,6.6232,5.4134,-1.5535,8.694
4.926000,6.2836,5.6397,-1.8699,8.648
4.926000,5.9391,5.8130,-2.1298,8.579
4.926000,5.5997,5.9477,-2.3575,8.502
4.927000,5.3034,6.0463,-2.5858,8.448
4.927000,5.0528,6.1281,-2.6832,8.384
4.929000,4.8596,6.1834,-2.6859,8.310
4.934000,4.7190,6.1448,-2.6497,8.188
4.938000,4.5979,5.9674,-2.6158,7.975
4.947000,4.6064,5.7232,-2.6899,7.824
4.949000,4.7899,5.4839,-2.8812,7.831
4.954000,4.9824,5.1964,-3.1291,7.850
4.961000,5.0883,4.8798,-3.3486,7.805
4.964000,5.0883,4.5678,-3.3977,7.636
4.969000,5.0217,4.2419,-3.2746,7.344
5.019000,4.9031,3.8876,-3.0732,6.971
5.020000,4.7544,3.5460,-2.8584,6.584
5.021000,4.6141,3.2197,-2.6278,6.210
5.021000,4.4298,2.9061,-2.3882,5.811
5.022000,4.2546,2.6465,-2.1333,5.446
5.022000,4.0429,2.4212,-1.9589,5.103
5.022000,3.7878,2.2328,-1.7861,4.746
5.023000,3.5062,2.0694,-1.6940,4.410
5.023000,3.2677,1.8973,-1.5989,4.103
5.023000,3.1183,1.7414,-1.5306,3.886
5.026000,3.0053,1.6156,-1.5685,3.755
5.029000,2.9572,1.5032,-1.6987,3.727
5.033000,2.9141,1.4253,-1.8010,3.710
5.040000,2.8517,1.3624,-1.8296,3.652
5.044000,2.7625,1.2949,-1.7819,3.533
5.050000,2.6235,1.2595,-1.6926,3.367
5.055000,2.4869,1.2964,-1.5546,3.207
5.061000,2.3812,1.3331,-1.3443,3.042
5.065000,2.2203,1.3671,-1.1098,2.834
5.070000,2.0324,1.4383,-0.9037,2.649
5.076000,1.8327,1.5068,-0.6713,2.466
5.080000,1.6018,1.5698,-0.4512,2.288
5.084000,1.3399,1.6488,-0.2576,2.140
5.139000,1.1162,1.7151,-0.0688,2.047
5.140000,0.8617,1.7376,0.1610,1.946
5.140000,0.6311,1.7327,0.4271,1.893
5.140000,0.3966,1.7115,0.5857,1.852
5.140000,0.1411,1.6660,0.6758,1.803
5.141000,-0.1352,1.5895,0.7244,1.752
5.141000,-0.4082,1.5111,0.8206,1.767
5.141000,-0.6254,1.4373,0.9715,1.844
5.142000,-0.7934,1.3744,1.1148,1.939
5.142000,-0.9006,1.3025,1.2218,2.000
5.143000,-0.9709,1.1976,1.2830,2.006
5.145000,-1.0953,1.0358,1.3009,1.991
5.151000,-1.2426,0.8118,1.2849,1.963
5.157000,-1.3884,0.5679,1.2256,1.937
5.159000,-1.5064,0.3131,1.0893,1.885
5.166000,-1.6588,0.0380,0.8735,1.875
5.169000,-1.8215,-0.2475,0.6089,1.936
5.176000,-1.9417,-0.5409,0.3575,2.047
5.180000,-2.0220,-0.8475,0.1814,2.200
5.184000,-2.1098,-1.1751,0.0754,2.416
5.191000,-2.1860,-1.5362,0.0390,2.672
5.196000,-2.2625,-1.9111,0.0790,2.963
5.199000,-2.3345,-2.2616,0.0830,3.251
5.247000,-2.4165,-2.6309,0.1156,3.574
5.248000,-2.5128,-2.9886,0.1291,3.907
5.248000,-2.5997,-3.3395,0.1332,4.234
5.248000,-2.6460,-3.7026,0.1732,4.554
5.249000,-2.6757,-4.1155,0.2731,4.916
5.249000,-2.6890,-4.5109,0.3562,5.264
5.249000,-2.6954,-4.9036,0.4564,5.614
5.250000,-2.7284,-5.2844,0.5283,5.971
5.250000,-2.7571,-5.6155,0.5482,6.280
5.250000,-2.7863,-5.9136,0.6124,6.566
5.256000,-2.8161,-6.2045,0.7448,6.854
5.260000,-2.8755,-6.4788,0.8564,7.140
5.265000,-2.8925,-6.6895,0.9145,7.345
5.269000,-2.8602,-6.8633,0.9260,7.493
5.276000,-2.7694,-6.9883,0.9083,7.572
5.281000,-2.6609,-7.0984,0.8787,7.631
5.284000,-2.5254,-7.1867,0.8442,7.664
5.291000,-2.3892,-7.2884,0.8410,7.716
5.296000,-2.2261,-7.3942,0.8711,7.771
5.300000,-1.9979,-7.4852,0.8717,7.796
5.367000,-1.7214,-7.5855,0.8284,7.822
5.368000,-1.4422,-7.6880,0.7794,7.861
5.368000,-1.0959,-7.8073,0.7275,7.917
5.368000,-0.6970,-7.9051,0.6997,7.967
5.369000,-0.2745,-7.9631,0.7085,7.999
5.369000,0.1358,-8.0013,0.7490,8.037
5.369000,0.4571,-8.0396,0.7928,8.092
5.370000,0.6753,-8.1192,0.7969,8.186
5.370000,0.8046,-8.2110,0.7071,8.281
5.370000,0.8595,-8.3220,0.5691,8.386
5.371000,0.8949,-8.4639,0.4212,8.521
5.371000,0.9398,-8.6339,0.2823,8.690
5.371000,0.9653,-8.7962,0.0805,8.849
5.372000,0.9906,-8.9410,-0.1312,8.997
5.378000,1.0346,-9.0563,-0.3619,9.122
5.379000,1.1069,-9.1780,-0.5660,9.262
5.386000,1.1597,-9.3181,-0.7363,9.419
5.393000,1.2264,-9.4619,-0.9113,9.585
5.396000,1.2758,-9.5951,-1.0738,9.739
5.400000,1.2745,-9.7059,-1.2141,9.864
5.405000,1.2465,-9.7319,-1.3634,9.906
5.457000,1.1751,-9.7044,-1.5215,9.893
5.458000,1.0674,-9.6261,-1.6836,9.830
5.458000,0.9140,-9.5424,-1.7924,9.752
5.458000,0.7247,-9.4754,-1.8912,9.689
5.458000,0.4995,-9.4320,-2.0304,9.661
5.458000,0.3198,-9.3829,-2.2528,9.655
5.459000,0.2024,-9.3161,-2.5439,9.659
5.459000,0.1639,-9.1764,-2.9636,9.645
5.459000,0.1399,-8.9683,-3.4420,9.607
5.459000,0.1063,-8.6873,-3.8832,9.516
5.460000,0.0682,-8.3216,-4.2540,9.346
5.466000,-0.0198,-7.8813,-4.5093,9.080
5.471000,-0.1312,-7.3763,-4.6741,8.734
5.475000,-0.2751,-6.8377,-4.8045,8.361
5.480000,-0.3939,-6.2687,-4.8540,7.938
5.485000,-0.4373,-5.7103,-4.8352,7.495
5.491000,-0.4268,-5.2177,-4.7921,7.097
5.495000,-0.3433,-4.7768,-4.7684,6.758
5.500000,-0.2178,-4.3708,-4.7429,6.453
5.557000,-0.0362,-3.9747,-4.6798,6.140
5.557000,0.1845,-3.6007,-4.5866,5.834
5.558000,0.4252,-3.2401,-4.4441,5.516
5.558000,0.6830,-2.9055,-4.2330,5.179
5.558000,0.9124,-2.6025,-4.0178,4.873
5.559000,1.0869,-2.3456,-3.7264,4.535
5.559000,1.1774,-2.1268,-3.3399,4.131
5.559000,1.1625,-1.9676,-2.8845,3.680
5.560000,1.0061,-1.8969,-2.3671,3.196
5.560000,0.7252,-1.8858,-1.8113,2.713
5.560000,0.3221,-1.9049,-1.3003,2.329
5.561000,-0.1887,-1.9471,-0.8457,2.131
5.566000,-0.7829,-2.0089,-0.3921,2.191
5.572000,-1.4485,-2.1013,0.0275,2.552
5.577000,-2.1612,-2.2112,0.4204,3.120
5.586000,-2.8705,-2.3328,0.7989,3.784
5.586000,-3.5259,-2.4431,1.1443,4.440
5.591000,-4.1323,-2.5324,1.4618,5.062
5.596000,-4.6750,-2.5904,1.7443,5.622
5.601000,-5.1444,-2.6070,1.9869,6.100
5.608000,-5.5525,-2.6179,2.1895,6.518
5.615000,-5.8847,-2.6083,2.3424,6.850
5.616000,-6.1553,-2.5856,2.4042,7.096
5.620000,-6.3667,-2.5233,2.3989,7.256
5.661000,-6.5233,-2.4140,2.3069,7.328
5.662000,-6.6037,-2.3033,2.1517,7.317
5.663000,-6.6004,-2.1527,1.8566,7.186
5.663000,-6.4754,-1.9679,1.4524,6.922
5.664000,-6.2313,-1.7254,0.9655,6.537
5.664000,-5.9402,-1.4618,0.4870,6.137
5.665000,-5.6310,-1.2138,0.0481,5.760
5.665000,-5.2990,-0.9771,-0.3395,5.399
5.665000,-4.9730,-0.7518,-0.6973,5.078
5.671000,-4.6846,-0.5487,-1.0346,4.829
5.676000,-4.4409,-0.3293,-1.3392,4.650
5.681000,-4.2490,-0.1082,-1.5848,4.536
5.686000,-4.1448,0.1098,-1.7523,4.501
5.692000,-4.1638,0.3157,-1.8945,4.585
5.696000,-4.2488,0.5065,-1.9633,4.708
5.701000,-4.4113,0.6733,-1.9732,4.879
5.708000,-4.5814,0.8095,-1.9508,5.045
5.710000,-4.6943,0.9446,-1.9320,5.163
5.716000,-4.6871,1.1009,-1.8908,5.173
5.720000,-4.5463,1.2751,-1.8435,5.069
5.783000,-4.2527,1.4626,-1.7513,4.826
5.784000,-3.9026,1.6530,-1.5901,4.527
5.784000,-3.5298,1.8387,-1.3527,4.204
5.785000,-3.1488,2.0478,-1.0684,3.905
5.785000,-2.7404,2.2563,-0.7810,3.635
5.785000,-2.3007,2.4913,-0.5381,3.434
5.785000,-1.8705,2.7382,-0.3423,3.334
5.786000,-1.5199,2.9320,-0.1786,3.307
5.786000,-1.2058,3.0699,-0.0393,3.299
5.786000,-0.9117,3.1309,0.1403,3.264
5.787000,-0.6457,3.0949,0.3632,3.182
5.787000,-0.4001,2.9504,0.5740,3.032
5.787000,-0.1941,2.7288,0.6790,2.819
5.794000,0.0324,2.4691,0.6835,2.562
5.796000,0.3349,2.2126,0.5972,2.316
5.802000,0.7028,1.9778,0.4042,2.137
5.809000,1.1387,1.7558,0.1265,2.097
5.811000,1.6377,1.5300,-0.1444,2.246
5.817000,2.1397,1.3123,-0.3581,2.535
5.821000,2.6350,1.0979,-0.5075,2.899
5.827000,3.0882,0.8870,-0.5693,3.263
5.831000,3.5153,0.7269,-0.5795,3.636
5.836000,3.9622,0.5532,-0.6056,4.046
5.842000,4.3810,0.3657,-0.5904,4.436
5.846000,4.7645,0.1668,-0.6543,4.812
5.851000,5.1134,-0.0598,-0.8331,5.181
5.918000,5.4392,-0.2638,-1.0995,5.555
5.919000,5.7401,-0.4396,-1.4149,5.928
5.920000,6.0188,-0.5868,-1.6809,6.277
5.920000,6.2780,-0.7028,-1.8953,6.595
5.920000,6.5254,-0.7512,-2.0724,6.888
5.921000,6.7751,-0.7323,-2.2720,7.183
5.921000,7.0679,-0.6386,-2.5152,7.529
5.921000,7.3797,-0.4798,-2.7512,7.890
5.922000,7.7244,-0.2728,-2.8648,8.243
5.922000,8.0705,-0.0349,-2.9038,8.577
5.923000,8.4082,0.2146,-2.8495,8.880
5.923000,8.7175,0.4843,-2.7714,9.160
5.923000,8.9889,0.7478,-2.6170,9.392
5.924000,9.2050,0.9832,-2.4652,9.580
5.928000,9.3467,1.1854,-2.2779,9.693
5.932000,9.4022,1.3356,-2.0362,9.712
5.936000,9.3905,1.4453,-1.7936,9.669
5.941000,9.3528,1.5435,-1.5909,9.612
5.947000,9.3226,1.6281,-1.3824,9.564
5.951000,9.3094,1.6797,-1.1300,9.527
5.957000,9.2897,1.6652,-0.8819,9.479
5.961000,9.2876,1.6352,-0.6550,9.453
5.966000,9.2698,1.6591,-0.4877,9.430
6.026000,9.2816,1.7606,-0.4107,9.456
6.027000,9.2842,1.9347,-0.2803,9.488
6.028000,9.2534,2.1640,-0.1995,9.505
6.028000,9.1581,2.4245,-0.2067,9.476
6.028000,9.0510,2.6658,-0.1970,9.437
6.029000,8.9200,2.8662,-0.1800,9.371
6.029000,8.7772,3.0045,-0.2132,9.280
6.029000,8.6442,3.1118,-0.3226,9.193
6.030000,8.4830,3.2150,-0.4406,9.082
6.030000,8.3130,3.3357,-0.6391,8.980
6.030000,8.1630,3.5124,-0.8650,8.929
6.030000,8.0449,3.7427,-1.0584,8.936
6.031000,7.9466,3.9784,-1.2672,8.977
6.037000,7.8320,4.2505,-1.5250,9.041
6.041000,7.6508,4.5419,-1.8080,9.079
6.048000,7.4340,4.8382,-2.1108,9.117
6.052000,7.1884,5.1370,-2.3515,9.143
6.058000,6.8902,5.3616,-2.4941,9.080
6.062000,6.5896,5.5457,-2.4719,8.960
6.066000,6.2771,5.6888,-2.3763,8.798
6.139000,5.9840,5.8174,-2.2055,8.632
6.140000,5.6766,5.9098,-1.9693,8.428
6.140000,5.4221,5.9657,-1.7520,8.250
6.140000,5.2109,5.9754,-1.6097,8.090
6.141000,5.0118,5.8981,-1.5494,7.893
6.141000,4.8132,5.7293,-1.5400,7.640
6.141000,4.5554,5.4766,-1.5523,7.291
6.142000,4.2698,5.1714,-1.5308,6.879
6.142000,3.9928,4.8738,-1.4423,6.463
6.143000,3.7745,4.5840,-1.2987,6.078
6.143000,3.5610,4.2763,-1.2158,5.696
6.143000,3.3836,3.9868,-1.2534,5.377
6.144000,3.3091,3.7181,-1.2820,5.140
6.144000,3.2801,3.4340,-1.2801,4.918
6.145000,3.2894,3.1565,-1.3838,4.764
6.148000,3.3271,2.8732,-1.4273,4.622
6.153000,3.3408,2.5917,-1.4107,4.457
6.157000,3.3594,2.3288,-1.4779,4.347
6.161000,3.3876,2.0842,-1.4185,4.223
6.166000,3.4040,1.8724,-1.1516,4.052
6.172000,3.4104,1.6901,-1.1872,3.987
6.177000,3.3573,1.5189,-1.4506,3.960
6.181000,3.2374,1.3923,-1.7114,3.918
6.187000,3.1345,1.2840,-1.8831,3.876
6.252000,2.9791,1.1674,-1.8916,3.717
6.253000,2.8265,1.0738,-1.8407,3.540
6.254000,2.7625,1.0121,-1.7717,3.434
6.254000,2.6605,0.9683,-1.6562,3.280
6.254000,2.5230,0.9372,-1.5566,3.109
6.255000,2.3499,0.9550,-1.4774,2.935
6.255000,2.1845,1.0572,-1.3348,2.770
6.255000,2.0380,1.2000,-1.2176,2.660
6.256000,1.8606,1.3286,-1.0303,2.508
6.256000,1.6713,1.4114,-0.7993,2.329
6.256000,1.4079,1.4843,-0.5947,2.131
6.256000,1.1544,1.5473,-0.2845,1.951
6.257000,0.8985,1.6310,0.0160,1.862
6.259000,0.6553,1.7412,0.2587,1.878
6.262000,0.4723,1.8175,0.3861,1.917
6.268000,0.3066,1.8406,0.4319,1.915
6.272000,0.1891,1.8416,0.4512,1.905
6.278000,0.0933,1.8155,0.3966,1.861
6.282000,-0.0503,1.7448,0.3500,1.780
6.287000,-0.2434,1.6024,0.3237,1.653
6.292000,-0.4572,1.4314,0.3274,1.538
6.297000,-0.6724,1.2462,0.3832,1.467
6.301000,-0.8555,1.0736,0.4457,1.443
6.358000,-0.9993,0.8987,0.4069,1.404
6.359000,-1.1176,0.7012,0.3577,1.367
6.359000,-1.2012,0.4448,0.2909,1.314
6.359000,-1.2810,0.1487,0.1682,1.301
6.359000,-1.3474,-0.1580,0.0476,1.358
6.360000,-1.3673,-0.4570,-0.0179,1.442
6.360000,-1.4261,-0.7826,-0.0741,1.628
6.360000,-1.4904,-1.1233,-0.1217,1.870
6.360000,-1.5553,-1.4430,-0.1393,2.126
6.361000,-1.6375,-1.7773,-0.1460,2.421
6.361000,-1.7344,-2.1164,-0.1922,2.743
6.362000,-1.8222,-2.4749,-0.2131,3.081
6.368000,-1.8861,-2.8583,-0.2425,3.433
6.373000,-1.9670,-3.2476,-0.2350,3.804
6.378000,-2.0599,-3.6784,-0.1835,4.220
6.382000,-2.1696,-4.1238,-0.0546,4.660
6.388000,-2.3009,-4.5767,0.0364,5.123
6.393000,-2.4177,-5.0039,0.0587,5.558
6.398000,-2.5009,-5.4056,0.0550,5.956
6.402000,-2.5507,-5.8004,0.0185,6.337
6.463000,-2.5648,-6.1593,-0.0031,6.672
6.464000,-2.5695,-6.5058,0.0165,6.995
6.464000,-2.5125,-6.7851,0.0912,7.236
6.464000,-2.4202,-7.0463,0.2169,7.454
6.465000,-2.2833,-7.2540,0.3197,7.612
6.465000,-2.1117,-7.3985,0.3496,7.702
6.465000,-1.8840,-7.4996,0.3095,7.739
6.466000,-1.6268,-7.5866,0.2547,7.763
6.466000,-1.3692,-7.7071,0.2243,7.831
6.466000,-1.1398,-7.8592,0.1941,7.944
6.467000,-0.9508,-8.0189,0.1070,8.076
6.467000,-0.7448,-8.1742,0.0162,8.208
6.467000,-0.5339,-8.3301,-0.0858,8.348
6.475000,-0.3111,-8.5192,-0.2126,8.528
6.478000,-0.0454,-8.7007,-0.3499,8.708
6.482000,0.2413,-8.8938,-0.4488,8.908
6.491000,0.5417,-9.0269,-0.5211,9.058
6.493000,0.8390,-9.1389,-0.5573,9.194
6.497000,1.1260,-9.2208,-0.6177,9.310
6.502000,1.3811,-9.3063,-0.7069,9.435
6.555000,1.6164,-9.3741,-0.7747,9.544
6.556000,1.8820,-9.4509,-0.8498,9.674
6.556000,2.1182,-9.5158,-0.9371,9.794
6.556000,2.3200,-9.5738,-1.0603,9.908
6.557000,2.4780,-9.6109,-1.2121,9.999
6.557000,2.5803,-9.6344,-1.4000,10.072
6.558000,2.6438,-9.6349,-1.6122,10.120
6.558000,2.6876,-9.6936,-1.8627,10.230
6.558000,2.6997,-9.8319,-2.1061,10.411
6.559000,2.6253,-10.0732,-2.2753,10.655
6.560000,2.5146,-10.2873,-2.4807,10.877
6.563000,2.3894,-10.3350,-2.7557,10.960
6.569000,2.2304,-10.1635,-3.0830,10.852
6.573000,1.9897,-9.8429,-3.4334,10.613
6.578000,1.6434,-9.4951,-3.6768,10.314
6.584000,1.2130,-9.2163,-3.7127,10.010
6.587000,0.7922,-9.0157,-3.5999,9.740
6.594000,0.4173,-8.8454,-3.4637,9.509
6.597000,0.0836,-8.6576,-3.4176,9.308
6.602000,-0.2853,-8.4260,-3.5070,9.131
6.679000,-0.6366,-8.1077,-3.7300,8.947
6.680000,-0.9487,-7.6906,-4.0383,8.738
6.680000,-1.2240,-7.2247,-4.3580,8.526
6.681000,-1.4360,-6.6982,-4.6631,8.287
6.681000,-1.5537,-6.1688,-4.9134,8.038
6.682000,-1.5459,-5.6488,-5.0518,7.734
6.683000,-1.4007,-5.1539,-5.0865,7.375
6.683000,-1.1948,-4.6897,-5.0469,6.992
6.683000,-0.9545,-4.2953,-4.9529,6.625
6.684000,-0.7495,-3.9429,-4.7996,6.257
6.684000,-0.6106,-3.6305,-4.5826,5.878
6.685000,-0.5598,-3.3735,-4.3518,5.535
6.685000,-0.6161,-3.1810,-4.0493,5.186
6.685000,-0.7629,-3.0577,-3.6406,4.815
6.686000,-0.9476,-2.9605,-3.1351,4.415
6.686000,-1.1248,-2.8865,-2.5806,4.032
6.688000,-1.3017,-2.8317,-2.0109,3.709
6.692000,-1.5071,-2.7912,-1.4906,3.505
6.699000,-1.7696,-2.7936,-1.0120,3.458
6.703000,-2.1108,-2.8191,-0.5772,3.569
6.709000,-2.5283,-2.8580,-0.1330,3.818
6.713000,-2.9693,-2.9022,0.3091,4.164
6.718000,-3.4625,-2.9541,0.6969,4.604
6.782000,-3.9504,-3.0077,1.0426,5.073
6.783000,-4.4208,-3.0528,1.3223,5.533
6.783000,-4.8354,-3.0891,1.5986,5.956
6.783000,-5.2108,-3.1063,1.8521,6.343
6.784000,-5.5590,-3.1141,2.0441,6.692
6.784000,-5.8581,-3.0811,2.1672,6.965
6.785000,-6.1368,-3.0236,2.2115,7.190
6.785000,-6.3948,-2.9465,2.1816,7.371
6.785000,-6.5652,-2.8589,2.0773,7.456
6.786000,-6.6432,-2.7666,1.8768,7.437
6.786000,-6.6311,-2.6499,1.5676,7.311
6.787000,-6.5529,-2.5214,1.1666,7.118
6.787000,-6.4446,-2.3740,0.7142,6.905
6.795000,-6.3586,-2.2173,0.2562,6.739
6.796000,-6.2590,-2.0507,-0.1427,6.588
6.799000,-6.1436,-1.8585,-0.4610,6.435
6.805000,-6.0144,-1.6498,-0.7616,6.283
6.808000,-5.8354,-1.4293,-1.0473,6.098
6.815000,-5.5588,-1.1517,-1.3322,5.831
6.819000,-5.2397,-0.8292,-1.6118,5.544
6.826000,-4.8810,-0.4824,-1.8904,5.256
6.829000,-4.4971,-0.1089,-2.0723,4.953
6.833000,-4.1289,0.2285,-2.2127,4.690
6.903000,-3.7717,0.5344,-2.3689,4.486
6.904000,-3.4303,0.8493,-2.5190,4.340
6.904000,-3.1094,1.1711,-2.6340,4.240
6.904000,-2.8385,1.5106,-2.6369,4.158
6.905000,-2.6150,1.8488,-2.5177,4.074
6.905000,-2.4296,2.1614,-2.2717,3.967
6.906000,-2.2871,2.4361,-1.9328,3.860
6.906000,-2.1945,2.6448,-1.5829,3.784
6.906000,-2.1354,2.8198,-1.2413,3.749
6.907000,-2.0760,2.9499,-0.8723,3.711
6.907000,-2.0282,3.0376,-0.5332,3.691
6.907000,-1.9945,3.0760,-0.1783,3.670
6.907000,-1.9170,3.0801,0.1825,3.633
6.908000,-1.8131,3.0635,0.5327,3.599
6.908000,-1.6369,3.0507,0.8528,3.566
6.915000,-1.3671,3.0080,1.1355,3.494
6.919000,-1.0494,2.9089,1.3782,3.386
6.925000,-0.6648,2.7843,1.5596,3.260
6.928000,-0.2638,2.6198,1.6537,3.109
6.934000,0.1647,2.4240,1.6323,2.927
6.942000,0.6160,2.1925,1.4504,2.700
6.945000,1.0539,1.9277,1.1537,2.481
6.948000,1.4713,1.6297,0.7860,2.332
7.006000,1.8543,1.3163,0.3689,2.304
7.007000,2.2072,0.9728,-0.0321,2.412
7.007000,2.5521,0.6027,-0.4406,2.659
7.007000,2.9251,0.2448,-0.8253,3.049
7.008000,3.3647,-0.0598,-1.2052,3.574
7.008000,3.8498,-0.3176,-1.5708,4.170
7.008000,4.4229,-0.4961,-1.9055,4.841
7.009000,5.0219,-0.6429,-2.2047,5.522
7.009000,5.6372,-0.7555,-2.4205,6.181
7.010000,6.2662,-0.8296,-2.5529,6.817
7.010000,6.8370,-0.8629,-2.6306,7.376
7.010000,7.3162,-0.8839,-2.6418,7.829
7.015000,7.7321,-0.8601,-2.6126,8.207
7.019000,8.0391,-0.7745,-2.5021,8.455
7.026000,8.1893,-0.6873,-2.2555,8.522
7.029000,8.2070,-0.5939,-1.9043,8.446
7.034000,8.1739,-0.4675,-1.5209,8.327
7.041000,8.1163,-0.3065,-1.1730,8.206
7.046000,8.0870,-0.1273,-0.8773,8.135
7.048000,8.0740,0.0700,-0.6413,8.100
7.054000,8.0435,0.2636,-0.4429,8.060
7.109000,8.0119,0.4606,-0.2916,8.030
7.109000,8.0392,0.6538,-0.1800,8.068
7.110000,7.8763,0.8287,-0.1056,7.920
7.110000,7.8368,0.9880,-0.0470,7.899
7.110000,7.7988,1.1388,0.0339,7.882
7.111000,7.7957,1.2862,0.2020,7.904
7.111000,7.7769,1.4174,0.4994,7.921
7.111000,7.7521,1.5229,0.7987,7.941
7.112000,7.7716,1.5715,1.0658,8.000
7.112000,7.8070,1.5345,1.3214,8.065
7.112000,7.8824,1.5056,1.4503,8.155
7.114000,7.9997,1.5870,1.3236,8.262
7.119000,8.0361,1.7761,1.0891,8.302
7.125000,7.9606,1.9966,0.8336,8.249
7.130000,7.8280,2.2557,0.5770,8.167
7.134000,7.6745,2.4865,0.3790,8.076
7.142000,7.5554,2.6557,0.2178,8.011
7.145000,7.4612,2.7276,0.0833,7.945
7.148000,7.4233,2.7864,-0.0558,7.929
7.153000,7.4155,2.9107,-0.2332,7.970
7.220000,7.4160,3.1079,-0.4892,8.056
7.222000,7.4030,3.3681,-0.8161,8.174
7.222000,7.3716,3.6580,-1.0693,8.299
7.223000,7.3430,3.9295,-1.3038,8.430
7.224000,7.3197,4.1802,-1.4770,8.558
7.225000,7.3375,4.4527,-1.6856,8.747
7.225000,7.3461,4.7133,-1.9560,8.945
7.226000,7.2876,4.9546,-2.2279,9.090
7.226000,7.1618,5.1527,-2.5295,9.178
7.227000,7.0499,5.3099,-2.7454,9.243
7.227000,6.9446,5.3927,-2.8042,9.229
7.228000,6.7983,5.4394,-2.8045,9.147
7.228000,6.6468,5.4501,-2.7863,9.036
7.229000,6.5549,5.4609,-2.6424,8.931
7.229000,6.4317,5.4475,-2.4671,8.782
7.234000,6.3373,5.4146,-2.3805,8.669
7.239000,6.2355,5.3527,-2.4083,8.563
7.245000,6.0808,5.2402,-2.3225,8.356
7.249000,5.9448,5.1153,-2.2045,8.147
7.254000,5.7325,4.9808,-2.1431,7.891
7.261000,5.5133,4.7888,-2.1380,7.609
7.266000,5.2492,4.5781,-2.1270,7.283
7.268000,5.0462,4.3775,-2.1320,7.012
7.276000,4.8295,4.1893,-2.1667,6.750
7.282000,4.6260,4.0304,-2.1161,6.490
7.284000,4.4067,3.8912,-2.0663,6.231
7.349000,4.1718,3.7596,-2.0032,5.963
7.350000,3.9863,3.6239,-1.9053,5.714
7.351000,3.8047,3.4959,-1.8110,5.475
7.351000,3.6276,3.4049,-1.7476,5.273
7.351000,3.5097,3.3503,-1.6578,5.127
7.352000,3.3792,3.2910,-1.5229,4.957
7.352000,3.2289,3.2555,-1.3171,4.771
7.353000,3.0756,3.2557,-1.0818,4.608
7.353000,2.9022,3.2498,-0.8441,4.438
7.354000,2.7260,3.2385,-0.6693,4.286
7.355000,2.5420,3.2308,-0.6481,4.162
7.355000,2.3309,3.2074,-0.6003,4.010
7.356000,2.0640,3.1755,-0.5186,3.823
7.356000,1.6983,3.1014,-0.4148,3.560
7.362000,1.3090,3.0007,-0.2434,3.283
7.364000,0.9416,2.9069,-0.0546,3.056
7.369000,0.6034,2.8297,0.1301,2.896
7.375000,0.3208,2.7549,0.3753,2.799
7.379000,0.0961,2.6775,0.6329,2.753
7.384000,-0.1141,2.5776,0.7378,2.684
7.427000,-0.3209,2.4685,0.7764,2.608
7.428000,-0.5320,2.3545,0.7757,2.535
7.428000,-0.7639,2.2238,0.7817,2.478
7.428000,-0.9877,2.0695,0.8013,2.429
7.429000,-1.1890,1.8699,0.7676,2.345
7.429000,-1.3696,1.6481,0.7240,2.262
7.430000,-1.5033,1.4299,0.7902,2.220
7.430000,-1.6094,1.2106,0.8078,2.170
7.430000,-1.6568,1.0187,0.7051,2.069
7.435000,-1.6936,0.8031,0.6018,1.969
7.440000,-1.7358,0.5607,0.4662,1.883
7.445000,-1.7262,0.3101,0.3462,1.788
7.449000,-1.6744,0.0274,0.2270,1.690
7.455000,-1.6689,-0.3114,0.1011,1.701
7.461000,-1.6760,-0.6484,0.0310,1.797
7.466000,-1.6934,-1.0108,0.0377,1.972
7.470000,-1.7372,-1.4084,0.0562,2.237
7.476000,-1.7763,-1.8392,0.0498,2.557
7.480000,-1.7651,-2.3051,0.0092,2.903
7.485000,-1.7251,-2.7697,-0.0394,3.263
7.550000,-1.6517,-3.2403,-0.1271,3.639
7.551000,-1.5684,-3.6864,-0.2366,4.013
7.551000,-1.4636,-4.1179,-0.3272,4.382
7.552000,-1.3587,-4.5393,-0.3555,4.752
7.552000,-1.2109,-4.9192,-0.3431,5.078
7.553000,-1.0131,-5.2441,-0.3071,5.350
7.553000,-0.8611,-5.5509,-0.1893,5.620
7.553000,-0.6855,-5.8449,-0.0210,5.885
7.554000,-0.5225,-6.1546,0.1765,6.179
7.554000,-0.3170,-6.4751,0.3771,6.494
7.554000,-0.0931,-6.7468,0.5401,6.769
7.555000,0.1250,-6.9944,0.6197,7.023
7.555000,0.3112,-7.2286,0.6571,7.265
7.555000,0.4628,-7.4454,0.6482,7.488
7.562000,0.6299,-7.6949,0.6487,7.748
7.565000,0.7739,-7.9626,0.6261,8.025
7.570000,0.9089,-8.2111,0.5595,8.280
7.576000,1.0179,-8.4225,0.4020,8.493
7.581000,1.0937,-8.6021,0.1947,8.674
7.585000,1.1289,-8.7738,-0.0546,8.846
7.591000,1.1400,-8.9040,-0.3287,8.983
7.595000,1.1150,-8.9996,-0.6296,9.090
7.599000,1.0658,-9.0754,-0.8854,9.181
7.604000,0.9969,-9.1353,-1.1271,9.258
7.666000,0.9206,-9.2081,-1.3337,9.350
7.667000,0.8416,-9.2602,-1.4864,9.416
7.668000,0.7575,-9.2915,-1.5715,9.454
7.668000,0.6541,-9.3336,-1.6136,9.495
7.668000,0.5484,-9.3594,-1.5921,9.510
7.669000,0.4093,-9.3742,-1.5433,9.509
7.670000,0.2299,-9.3729,-1.4632,9.489
7.670000,0.0174,-9.3914,-1.3472,9.488
7.671000,-0.1659,-9.3866,-1.2891,9.476
7.671000,-0.3129,-9.3798,-1.2671,9.470
7.672000,-0.4644,-9.3661,-1.3455,9.474
7.672000,-0.6110,-9.3381,-1.4710,9.473
7.673000,-0.7479,-9.2622,-1.6289,9.434
7.676000,-0.8585,-9.1886,-1.8233,9.407
7.680000,-0.9382,-9.1695,-1.9777,9.427
7.685000,-0.9868,-9.2666,-2.0443,9.541
7.690000,-0.9780,-9.4337,-2.0525,9.704
7.695000,-0.8996,-9.5245,-2.0794,9.790
7.700000,-0.8353,-9.3816,-2.1893,9.670
7.708000,-0.8450,-8.9482,-2.3796,9.298
7.710000,-0.8999,-8.3313,-2.5304,8.753
7.714000,-0.9855,-7.7300,-2.5339,8.194
7.719000,-1.0300,-7.2503,-2.3957,7.705
7.786000,-0.9973,-6.9118,-2.1766,7.315
7.787000,-0.9399,-6.6550,-2.0088,7.015
7.787000,-0.9202,-6.3855,-1.9951,6.753
7.788000,-0.9693,-6.0507,-2.1130,6.482
7.788000,-1.0778,-5.6603,-2.3398,6.219
7.789000,-1.2242,-5.2431,-2.6364,5.995
7.789000,-1.3418,-4.8538,-2.9638,5.843
7.789000,-1.3779,-4.4898,-3.2692,5.722
7.790000,-1.3254,-4.1543,-3.5191,5.603
7.790000,-1.1678,-3.8475,-3.7524,5.500
7.793000,-0.9481,-3.5988,-3.9093,5.397
7.794000,-0.7191,-3.4183,-3.9811,5.296
7.794000,-0.5331,-3.3207,-3.9377,5.178
7.795000,-0.4787,-3.2735,-3.8304,5.061
7.796000,-0.5412,-3.2549,-3.6744,4.938
7.801000,-0.7155,-3.2457,-3.4273,4.774
7.806000,-0.9823,-3.2266,-3.1160,4.592
7.811000,-1.2888,-3.2286,-2.7769,4.449
7.816000,-1.6013,-3.2532,-2.4677,4.386
7.821000,-1.9126,-3.2768,-2.1764,4.374
7.826000,-2.2155,-3.3320,-1.8837,4.423
7.830000,-2.5435,-3.4158,-1.5674,4.538
7.834000,-2.8751,-3.5205,-1.2175,4.706
7.906000,-3.1766,-3.6067,-0.8571,4.882
7.908000,-3.4123,-3.6654,-0.5195,5.035
7.909000,-3.6061,-3.6721,-0.2529,5.153
7.910000,-3.7939,-3.6650,-0.0542,5.275
7.911000,-3.9661,-3.6297,0.1441,5.378
7.912000,-4.1346,-3.5706,0.3399,5.474
7.913000,-4.3165,-3.4859,0.5144,5.572
7.913000,-4.5212,-3.3779,0.6753,5.684
7.914000,-4.7367,-3.2585,0.8082,5.806
7.915000,-4.9414,-3.1062,0.8964,5.905
7.915000,-5.1207,-2.9300,0.9063,5.969
7.916000,-5.2556,-2.7331,0.8402,5.983
7.917000,-5.3079,-2.5294,0.7271,5.925
7.917000,-5.3013,-2.3120,0.5622,5.811
7.918000,-5.2050,-2.0955,0.3668,5.623
7.918000,-4.9975,-1.8469,0.1333,5.330
7.921000,-4.7459,-1.6068,-0.1431,5.013
7.927000,-4.4983,-1.3624,-0.4817,4.725
7.930000,-4.2907,-1.1204,-0.7988,4.506
7.934000,-4.1228,-0.8953,-1.0563,4.349
7.942000,-4.0115,-0.6655,-1.2518,4.255
7.946000,-3.9585,-0.4566,-1.3855,4.219
7.950000,-3.9283,-0.2550,-1.4771,4.205
8.028000,-3.8702,-0.0289,-1.5240,4.160
8.029000,-3.8152,0.1811,-1.5264,4.113
8.029000,-3.7178,0.3917,-1.4967,4.027
8.030000,-3.5368,0.6180,-1.4832,3.885
8.030000,-3.2757,0.8585,-1.4683,3.691
8.030000,-3.0061,1.0967,-1.3968,3.491
8.031000,-2.7715,1.3392,-1.2971,3.340
8.031000,-2.5505,1.5857,-1.1835,3.228
8.031000,-2.3356,1.8103,-1.0298,3.129
8.032000,-2.1036,1.9687,-0.8409,3.001
8.032000,-1.8782,2.0997,-0.6982,2.902
8.032000,-1.6403,2.2272,-0.5896,2.828
8.032000,-1.3613,2.3058,-0.4695,2.719
8.033000,-1.1085,2.3378,-0.2943,2.604
8.033000,-0.8529,2.3570,-0.0640,2.507
8.033000,-0.6026,2.3434,0.1547,2.425
8.036000,-0.3668,2.3190,0.3836,2.379
8.041000,-0.0976,2.3342,0.6510,2.425
8.046000,0.1522,2.3383,0.8702,2.500
8.050000,0.3927,2.3628,1.0124,2.600
8.059000,0.6588,2.3902,1.1494,2.733
8.064000,0.9079,2.3752,1.2384,2.828
8.066000,1.1519,2.3254,1.3008,2.903
8.070000,1.4098,2.2455,1.3750,2.987
8.116000,1.6700,2.1476,1.4510,3.083
8.117000,1.9783,2.0490,1.5023,3.220
8.117000,2.3363,1.9630,1.5121,3.406
8.117000,2.7368,1.8590,1.4615,3.617
8.117000,3.1796,1.7510,1.3576,3.875
8.118000,3.6549,1.6388,1.2031,4.182
8.118000,4.1435,1.5057,0.9643,4.513
8.118000,4.6495,1.3850,0.6467,4.894
8.118000,5.1394,1.2814,0.2939,5.305
8.125000,5.5796,1.2022,-0.0673,5.708
8.126000,5.9888,1.1475,-0.3791,6.110
8.132000,6.3388,1.1199,-0.6965,6.475
8.137000,6.6504,1.1020,-0.9496,6.808
8.145000,6.9000,1.0754,-1.1649,7.080
8.151000,7.0783,1.0256,-1.3641,7.281
8.151000,7.2071,0.9941,-1.5441,7.437
8.156000,7.3010,0.9760,-1.6335,7.545
8.210000,7.3701,0.9599,-1.7376,7.633
8.211000,7.4378,0.9407,-1.8251,7.716
8.211000,7.4853,0.9187,-1.8529,7.766
8.211000,7.5343,0.9181,-1.8449,7.811
8.212000,7.5682,0.9459,-1.8133,7.840
8.212000,7.5535,0.9786,-1.7241,7.809
8.213000,7.4946,0.9870,-1.4337,7.694
8.213000,7.4301,1.0001,-1.0070,7.564
8.213000,7.3889,1.0342,-0.5172,7.479
8.213000,7.3828,1.0772,-0.1562,7.463
8.214000,7.3972,1.1575,0.1095,7.488
8.217000,7.4316,1.2483,0.2847,7.541
8.221000,7.4743,1.3356,0.4367,7.605
8.225000,7.5180,1.4001,0.5510,7.667
8.231000,7.5868,1.4132,0.6703,7.746
8.238000,7.6999,1.4539,0.7347,7.870
8.242000,7.8260,1.5174,0.7060,8.003
8.247000,7.8976,1.6342,0.6274,8.089
8.250000,7.8954,1.7898,0.5469,8.114
8.309000,7.8269,1.9534,0.4623,8.080
8.310000,7.7689,2.1346,0.4000,8.067
8.311000,7.7790,2.3025,0.4074,8.123
8.311000,7.8547,2.4498,0.4264,8.239
8.311000,7.9839,2.6027,0.5072,8.413
8.312000,8.1615,2.7846,0.5248,8.639
8.312000,8.2914,3.0049,0.4265,8.829
8.312000,8.2994,3.2898,0.2272,8.930
8.313000,8.1947,3.6150,-0.0125,8.957
8.313000,8.0252,4.0095,-0.1819,8.973
8.313000,7.7932,4.4300,-0.3717,8.972
8.314000,7.5540,4.8214,-0.5917,8.981
8.315000,7.3482,5.1482,-0.8202,9.010
8.322000,7.1637,5.4244,-1.0310,9.045
8.326000,7.0217,5.6378,-1.1503,9.078
8.330000,6.8502,5.7859,-1.2449,9.053
8.337000,6.6681,5.8902,-1.3720,9.002
8.341000,6.4970,5.9579,-1.4596,8.935
8.346000,6.3462,5.9793,-1.4932,8.846
8.351000,6.2020,5.9427,-1.5166,8.722
8.358000,6.0549,5.8698,-1.5228,8.569
8.361000,5.9074,5.7604,-1.4880,8.384
8.366000,5.7857,5.6291,-1.4570,8.203
8.370000,5.6542,5.4831,-1.4104,8.001
8.417000,5.4650,5.2866,-1.2954,7.713
8.418000,5.2982,5.0621,-1.0982,7.410
8.418000,5.1970,4.8714,-0.7908,7.167
8.419000,5.1469,4.6928,-0.4485,6.980
8.419000,5.1142,4.5139,-0.1220,6.822
8.420000,5.0410,4.3435,0.0403,6.654
8.420000,4.9255,4.1465,0.1847,6.441
8.420000,4.7653,3.9489,0.3953,6.201
8.421000,4.5846,3.7795,0.6189,5.974
8.421000,4.3860,3.6286,0.7255,5.739
8.429000,4.2174,3.4626,0.6406,5.494
8.432000,4.0651,3.2581,0.4510,5.229
8.437000,3.8568,3.0054,0.3133,4.900
8.441000,3.6117,2.7834,0.2568,4.567
8.446000,3.3516,2.5898,0.1863,4.240
8.451000,3.0382,2.4460,0.0825,3.901
8.458000,2.7325,2.3315,0.0064,3.592
8.461000,2.4726,2.2026,-0.1214,3.314
8.465000,2.1724,2.0332,-0.3033,2.991
8.472000,1.8488,1.8308,-0.4376,2.638
8.523000,1.5261,1.6148,-0.4580,2.269
8.524000,1.1802,1.4709,-0.4172,1.931
8.525000,0.8574,1.4122,-0.4641,1.716
8.525000,0.6244,1.4142,-0.4481,1.610
8.525000,0.4044,1.3831,-0.2999,1.472
8.526000,0.1137,1.3192,-0.1658,1.334
8.526000,-0.1305,1.2652,-0.0215,1.272
8.526000,-0.3659,1.2126,0.1711,1.278
8.526000,-0.6046,1.1585,0.4093,1.369
8.527000,-0.8226,1.1055,0.6021,1.504
8.527000,-1.0007,1.0348,0.7494,1.623
8.531000,-1.1197,0.9129,0.8544,1.678
8.536000,-1.1418,0.7754,0.9051,1.650
8.541000,-1.1046,0.6448,0.8224,1.521
8.546000,-1.0517,0.5110,0.7813,1.406
8.551000,-1.0453,0.3716,0.7990,1.367
8.558000,-1.0733,0.1979,0.8276,1.370
8.561000,-1.0882,0.0351,0.8553,1.385
8.566000,-1.0343,-0.1230,0.9011,1.377
8.574000,-0.9408,-0.3205,0.9860,1.400
8.581000,-0.8914,-0.5574,1.0212,1.466
8.583000,-0.8980,-0.7978,1.0045,1.566
8.587000,-0.9390,-1.0509,0.9796,1.716
8.647000,-1.0169,-1.3485,0.9560,1.941
8.647000,-1.0902,-1.6765,0.9579,2.217
8.647000,-1.1089,-2.0182,0.9803,2.503
8.648000,-1.0874,-2.3736,0.9490,2.778
8.648000,-1.0089,-2.7209,0.8665,3.028
8.648000,-0.9000,-3.0486,0.6876,3.252
8.648000,-0.8035,-3.3623,0.4848,3.491
8.649000,-0.7077,-3.6460,0.2916,3.725
8.649000,-0.5886,-3.9281,0.1677,3.976
8.649000,-0.5157,-4.2589,0.1633,4.293
8.650000,-0.4506,-4.6163,0.2012,4.643
8.650000,-0.3597,-4.9337,0.2404,4.953
8.651000,-0.2432,-5.2123,0.2958,5.226
8.656000,-0.1466,-5.4864,0.3384,5.499
8.661000,-0.0699,-5.7724,0.3873,5.786
8.666000,0.0085,-6.0677,0.4737,6.086
8.671000,0.0882,-6.3945,0.6116,6.424
8.676000,0.1217,-6.7921,0.7441,6.834
8.681000,0.1661,-7.1934,0.8113,7.241
8.687000,0.2526,-7.5529,0.7849,7.598
8.691000,0.3330,-7.8920,0.7444,7.934
8.696000,0.4071,-8.1729,0.7236,8.215
8.701000,0.4749,-8.4041,0.6824,8.445
8.769000,0.5385,-8.6005,0.5875,8.637
8.770000,0.6313,-8.7647,0.4728,8.800
8.771000,0.7244,-8.9064,0.2640,8.940
8.771000,0.7796,-9.0638,0.0307,9.097
8.771000,0.8518,-9.2129,-0.2322,9.255
8.772000,0.9124,-9.3364,-0.5488,9.397
8.772000,0.9544,-9.4274,-0.8914,9.517
8.772000,1.0160,-9.4859,-1.1911,9.614
8.773000,1.0472,-9.5313,-1.4528,9.698
8.773000,1.0550,-9.5615,-1.6937,9.767
8.774000,1.0418,-9.5521,-1.9447,9.804
8.774000,0.9932,-9.5298,-2.1650,9.823
8.774000,0.9307,-9.4995,-2.3682,9.834
8.775000,0.8277,-9.4729,-2.5394,9.842
8.777000,0.7151,-9.4477,-2.6828,9.847
8.782000,0.5880,-9.4189,-2.7861,9.840
8.787000,0.4726,-9.3672,-2.8747,9.810
8.791000,0.3496,-9.3453,-2.9321,9.801
8.797000,0.2573,-9.3744,-2.9438,9.829
8.802000,0.1935,-9.4543,-2.9417,9.903
8.809000,0.1724,-9.5346,-2.9669,9.987
8.811000,0.1106,-9.5743,-3.0484,10.049
8.816000,-0.0182,-9.5160,-3.2079,10.042
8.878000,-0.2904,-9.3453,-3.3519,9.932
8.879000,-0.6101,-9.1101,-3.3684,9.732
8.879000,-0.9221,-8.8705,-3.2773,9.501
8.880000,-1.2141,-8.6724,-3.1152,9.295
8.880000,-1.4718,-8.5447,-2.9830,9.169
8.880000,-1.7238,-8.4443,-2.9164,9.099
8.881000,-1.9369,-8.3040,-2.9602,9.026
8.881000,-2.1375,-8.0449,-3.1419,8.897
8.881000,-2.3165,-7.6644,-3.4337,8.712
8.882000,-2.4429,-7.2374,-3.7389,8.504
8.882000,-2.5145,-6.8018,-3.9734,8.269
8.883000,-2.5146,-6.4155,-4.1110,8.024
8.883000,-2.4167,-6.0810,-4.1380,7.742
8.887000,-2.2351,-5.8127,-4.1030,7.458
8.891000,-1.9984,-5.5499,-3.9758,7.113
8.897000,-1.7161,-5.2592,-3.7809,6.701
8.901000,-1.4336,-4.9561,-3.5191,6.245
8.908000,-1.1747,-4.6508,-3.2411,5.789
8.911000,-0.9730,-4.3749,-2.9088,5.343
8.916000,-0.8404,-4.1512,-2.5223,4.930
8.921000,-0.7840,-3.9821,-2.0700,4.556
8.959000,-0.8038,-3.8604,-1.5931,4.253
8.959000,-0.8636,-3.7908,-1.1326,4.050
8.960000,-0.9753,-3.7561,-0.7101,3.945
8.960000,-1.1366,-3.7400,-0.3252,3.922
8.960000,-1.3357,-3.7107,0.0369,3.944
8.960000,-1.5629,-3.6704,0.3672,4.006
8.961000,-1.8111,-3.6547,0.6781,4.135
8.961000,-2.0564,-3.6297,0.9507,4.279
8.966000,-2.2867,-3.5925,1.2233,4.431
8.972000,-2.5380,-3.5484,1.4216,4.588
8.979000,-2.8126,-3.5184,1.5822,4.774
8.982000,-3.1105,-3.4925,1.7146,4.981
8.986000,-3.4027,-3.4391,1.7855,5.157
8.991000,-3.6845,-3.3696,1.8024,5.308
8.996000,-3.9272,-3.2534,1.8131,5.412
9.001000,-4.1186,-3.1045,1.7457,5.445
9.007000,-4.2805,-2.9423,1.6003,5.435
9.011000,-4.4150,-2.8003,1.3767,5.406
9.016000,-4.5150,-2.6379,1.1488,5.354
9.070000,-4.5778,-2.4667,0.8872,5.275
9.071000,-4.6348,-2.2589,0.5969,5.190
9.071000,-4.7074,-2.0597,0.2973,5.147
9.071000,-4.8169,-1.8736,0.0024,5.168
9.071000,-4.9274,-1.7003,-0.2588,5.219
9.072000,-5.0074,-1.5152,-0.4986,5.255
9.072000,-5.0020,-1.2951,-0.7222,5.217
9.072000,-4.9326,-1.0543,-0.9347,5.130
9.072000,-4.7921,-0.8050,-1.1913,5.003
9.073000,-4.6047,-0.5737,-1.4513,4.862
9.073000,-4.4010,-0.3337,-1.6599,4.715
9.077000,-4.1504,-0.0909,-1.8673,4.552
9.082000,-3.8699,0.1929,-2.0662,4.391
9.087000,-3.5524,0.4885,-2.1272,4.169
9.092000,-3.2579,0.8025,-2.1202,3.969
9.097000,-3.0151,1.0916,-2.1269,3.848
9.102000,-2.7951,1.3992,-2.1474,3.792
9.107000,-2.6078,1.6667,-2.1700,3.780
9.112000,-2.4004,1.9065,-2.1685,3.755
9.117000,-2.1827,2.1329,-2.1284,3.721
9.122000,-1.9932,2.3506,-2.0873,3.722
9.132000,-1.8436,2.5622,-2.0523,3.765
9.133000,-1.7417,2.7597,-1.9130,3.783
9.137000,-1.6680,2.9389,-1.6891,3.778
9.176000,-1.5795,3.0615,-1.4667,3.744
9.177000,-1.4593,3.1325,-1.3363,3.705
9.178000,-1.2953,3.1527,-1.1733,3.605
9.178000,-1.0405,3.1308,-0.8886,3.417
9.178000,-0.7474,3.0791,-0.5662,3.219
9.178000,-0.4617,2.9996,-0.2301,3.044
9.179000,-0.1668,2.9472,0.1386,2.955
9.179000,0.0704,2.9027,0.4224,2.934
9.182000,0.3508,2.8044,0.6429,2.898
9.188000,0.6666,2.6519,0.8939,2.877
9.192000,1.0395,2.4501,1.2274,2.931
9.198000,1.4287,2.2085,1.5282,3.042
9.203000,1.8052,1.9579,1.7413,3.182
9.208000,2.1572,1.6985,1.9581,3.372
9.212000,2.4695,1.4247,2.0999,3.541
9.217000,2.7495,1.1320,2.2169,3.709
9.223000,3.0046,0.8180,2.2825,3.861
9.234000,3.2800,0.4827,2.1989,3.978
9.234000,3.5832,0.1409,2.0592,4.135
9.237000,3.9210,-0.1864,1.7536,4.299
9.243000,4.2506,-0.4987,1.2800,4.467
9.247000,4.5483,-0.7812,0.6747,4.664
9.252000,4.7710,-1.0311,0.0011,4.881
9.305000,4.9477,-1.2260,-0.6893,5.144
9.306000,5.1291,-1.3557,-1.3724,5.480
9.306000,5.3746,-1.4154,-1.9828,5.901
9.307000,5.6678,-1.4049,-2.4874,6.347
9.307000,5.9540,-1.3407,-2.9367,6.773
9.307000,6.2620,-1.2084,-3.3213,7.191
9.307000,6.5873,-0.9982,-3.6989,7.620
9.308000,6.9057,-0.7178,-4.0739,8.050
9.308000,7.2125,-0.4338,-4.3935,8.456
9.308000,7.5124,-0.1582,-4.5737,8.797
9.308000,7.7956,0.1375,-4.6817,9.094
9.313000,8.0789,0.4484,-4.7176,9.366
9.318000,8.3517,0.7474,-4.7195,9.622
9.322000,8.6045,1.0201,-4.6417,9.830
9.328000,8.7818,1.2519,-4.4676,9.932
9.333000,8.8717,1.4428,-4.1733,9.910
9.337000,8.9290,1.5494,-3.7518,9.808
9.342000,9.0089,1.5697,-3.2347,9.700
9.347000,9.1226,1.5457,-2.7326,9.648
9.352000,9.2320,1.5349,-2.3056,9.639
9.360000,9.2672,1.5680,-1.9798,9.605
9.362000,9.1943,1.6662,-1.7166,9.500
9.367000,9.0493,1.8343,-1.4701,9.350
9.400000,8.8221,2.0048,-1.2092,9.128
9.401000,8.5827,2.1518,-0.9410,8.898
9.401000,8.3767,2.2660,-0.6686,8.703
9.401000,8.2261,2.3594,-0.4090,8.568
9.401000,8.1071,2.4464,-0.1627,8.470
9.402000,8.0080,2.5631,0.0248,8.408
9.403000,7.9118,2.7425,0.1603,8.375
9.407000,7.7945,3.0015,0.2369,8.356
9.412000,7.6513,3.3446,0.2524,8.354
9.417000,7.4965,3.7429,0.2595,8.383
9.423000,7.3515,4.1653,0.2893,8.454
9.428000,7.2209,4.5944,0.3192,8.565
9.433000,7.1141,5.0036,0.3776,8.706
9.439000,7.0069,5.3804,0.4590,8.846
9.445000,6.8655,5.6672,0.4815,8.915
9.447000,6.6876,5.8853,0.4451,8.920
9.452000,6.4971,6.0517,0.3804,8.887
9.478000,6.2846,6.1687,0.2587,8.810
9.478000,6.0791,6.2151,0.0922,8.694
9.479000,5.9311,6.2081,-0.1476,8.587
9.479000,5.8189,6.1455,-0.4169,8.473
9.479000,5.7283,6.0326,-0.6840,8.347
9.484000,5.6330,5.9005,-0.9149,8.209
9.488000,5.5329,5.7638,-1.0731,8.061
9.492000,5.4351,5.6273,-1.1658,7.910
9.498000,5.3495,5.4885,-1.1809,7.755
9.502000,5.2445,5.3043,-1.1520,7.548
9.508000,5.1446,5.1251,-1.0507,7.337
9.513000,5.0260,4.9673,-0.9206,7.126
9.517000,4.8648,4.8119,-0.8100,6.890
9.524000,4.6685,4.6278,-0.7042,6.611
9.528000,4.4826,4.4151,-0.5648,6.317
9.533000,4.3366,4.1913,-0.4065,6.045
9.538000,4.3166,3.9419,-0.2537,5.851
9.543000,4.4634,3.7100,-0.1042,5.805
9.548000,4.7190,3.4977,-0.0155,5.874
9.553000,4.9488,3.3187,0.0680,5.959
9.560000,5.1006,3.1947,0.2180,6.022
9.563000,5.1452,3.1273,0.4632,6.039
9.568000,5.0971,3.1112,0.7067,6.013
9.576000,4.9158,3.1196,0.9095,5.893
9.584000,4.5987,3.0969,1.0715,5.647
9.585000,4.2116,3.0488,1.1760,5.331
9.655000,3.7809,2.9873,1.1799,4.961
9.656000,3.3475,2.9151,1.1604,4.588
9.656000,2.9333,2.8325,1.0915,4.221
9.656000,2.5430,2.7468,0.9981,3.874
9.656000,2.1954,2.6650,0.8711,3.561
9.656000,1.8747,2.5715,0.7135,3.261
9.657000,1.6021,2.4539,0.5734,2.986
9.657000,1.3800,2.3051,0.4028,2.717
9.657000,1.1965,2.1371,0.2352,2.460
9.657000,1.0129,1.9373,0.0323,2.186
9.657000,0.8401,1.6930,-0.2058,1.901
9.658000,0.6848,1.4231,-0.4310,1.637
9.658000,0.5832,1.1446,-0.6651,1.447
9.658000,0.5211,0.8576,-0.8793,1.334
9.658000,0.4838,0.5977,-1.0355,1.290
9.664000,0.4386,0.3657,-1.0987,1.238
9.669000,0.3446,0.1754,-1.0501,1.119
9.673000,0.2377,-0.0071,-0.9073,0.938
9.680000,0.1203,-0.2131,-0.7614,0.800
9.685000,-0.0388,-0.4625,-0.5747,0.739
9.691000,-0.1764,-0.7606,-0.3860,0.871
9.699000,-0.2951,-1.0741,-0.2578,1.143
9.700000,-0.3900,-1.3860,-0.1655,1.449
9.704000,-0.4803,-1.7102,-0.0585,1.777
9.755000,-0.5204,-2.0035,0.0394,2.070
9.756000,-0.4772,-2.2690,0.1546,2.324
9.756000,-0.4126,-2.5270,0.2680,2.574
9.756000,-0.3651,-2.7640,0.3216,2.807
9.756000,-0.3728,-3.0065,0.3657,3.051
9.757000,-0.4093,-3.2875,0.4527,3.344
9.757000,-0.4411,-3.6170,0.5561,3.686
9.757000,-0.4918,-3.9715,0.6859,4.060
9.758000,-0.5087,-4.3681,0.8156,4.473
9.758000,-0.5254,-4.7802,0.9068,4.894
9.758000,-0.5612,-5.2122,0.9983,5.337
9.764000,-0.6256,-5.6477,1.0399,5.777
9.768000,-0.7304,-6.0798,1.0302,6.210
9.774000,-0.8519,-6.4702,0.9816,6.599
9.779000,-0.9783,-6.8210,0.9354,6.954
9.784000,-1.1026,-7.1269,0.9448,7.273
9.790000,-1.2153,-7.4116,0.9880,7.575
9.794000,-1.2974,-7.6802,1.0696,7.862
9.799000,-1.3490,-7.9194,1.1344,8.113
9.804000,-1.3775,-8.1081,1.1872,8.309
9.826000,-1.3781,-8.2943,1.2254,8.497
9.827000,-1.3511,-8.4492,1.2251,8.644
9.827000,-1.3038,-8.5951,1.1861,8.774
9.827000,-1.2363,-8.7286,1.1329,8.888
9.829000,-1.1584,-8.8358,1.0390,8.972
9.834000,-1.0606,-8.9145,0.9310,9.026
9.839000,-0.9983,-8.9888,0.8212,9.081
9.844000,-0.9402,-9.0400,0.6856,9.115
9.848000,-0.8508,-9.0840,0.5296,9.139
9.854000,-0.7542,-9.1240,0.3438,9.162
9.859000,-0.6910,-9.1601,0.1238,9.187
9.864000,-0.6879,-9.1993,-0.1230,9.226
9.869000,-0.6993,-9.2296,-0.3939,9.264
9.874000,-0.7589,-9.2648,-0.6310,9.317
9.880000,-0.8165,-9.2976,-0.8462,9.372
9.885000,-0.8577,-9.3016,-1.0541,9.400
9.889000,-0.9089,-9.2790,-1.2863,9.412
9.895000,-0.9675,-9.2202,-1.5190,9.394
9.899000,-1.0168,-9.1206,-1.7260,9.338
9.904000,-1.0519,-9.0375,-1.8693,9.289
9.977000,-1.0706,-9.0118,-1.9588,9.284
9.977000,-1.0343,-9.0884,-1.9831,9.360
9.978000,-0.9619,-9.2288,-1.9742,9.486
9.978000,-0.8463,-9.3392,-1.9851,9.585
9.978000,-0.7209,-9.3411,-2.0066,9.581
9.979000,-0.6095,-9.1702,-2.0478,9.416
9.979000,-0.5218,-8.8512,-2.0823,9.108
9.979000,-0.4267,-8.4350,-2.0835,8.699
9.980000,-0.3337,-8.0323,-2.0253,8.290
9.980000,-0.2403,-7.6585,-1.9556,7.908
9.980000,-0.1824,-7.3211,-1.9175,7.570
9.981000,-0.1480,-6.9892,-1.9588,7.260
9.982000,-0.1325,-6.6178,-2.0954,6.943
9.983000,-0.1289,-6.2071,-2.3238,6.629
9.984000,-0.1232,-5.7618,-2.5878,6.317
9.984000,-0.1158,-5.3283,-2.8505,6.044
9.992000,-0.0875,-4.9256,-3.0420,5.790
9.994000,-0.0075,-4.5658,-3.1670,5.557
9.999000,0.1147,-4.2615,-3.2424,5.356
10.004000,0.2430,-4.0367,-3.3112,5.227
10.010000,0.3488,-3.8827,-3.3690,5.152
10.014000,0.4274,-3.7754,-3.4043,5.102
10.019000,0.4672,-3.6645,-3.4009,5.021
10.079000,0.4873,-3.5505,-3.3335,4.894
10.080000,0.4571,-3.4816,-3.1600,4.724
10.081000,0.3697,-3.4363,-2.9177,4.523
10.081000,0.2397,-3.3983,-2.6656,4.326
10.081000,0.0460,-3.3888,-2.4260,4.168
10.082000,-0.1779,-3.3913,-2.1994,4.046
10.082000,-0.4653,-3.3981,-1.9981,3.969
10.082000,-0.8065,-3.4329,-1.7861,3.953
10.083000,-1.1967,-3.4666,-1.5518,3.982
10.083000,-1.6142,-3.4747,-1.3093,4.049
10.083000,-2.0566,-3.4782,-1.0246,4.169
10.084000,-2.5360,-3.4887,-0.7186,4.372
10.084000,-2.9710,-3.4789,-0.4457,4.597
10.091000,-3.3690,-3.4516,-0.2221,4.828
10.094000,-3.7827,-3.4231,0.0126,5.102
10.100000,-4.2074,-3.3764,0.2060,5.399
10.105000,-4.6358,-3.3066,0.3585,5.705
10.109000,-5.0582,-3.2323,0.4560,6.020
10.114000,-5.4627,-3.1289,0.4603,6.312
10.119000,-5.8467,-3.0154,0.4316,6.593
10.176000,-6.1432,-2.8411,0.3363,6.777
10.176000,-6.3761,-2.6730,0.2464,6.918
10.177000,-6.5192,-2.4897,0.1739,6.981
10.177000,-6.5915,-2.3053,0.0729,6.983
10.178000,-6.5333,-2.1228,-0.0807,6.870
10.178000,-6.3636,-1.9184,-0.3354,6.655
10.178000,-6.1449,-1.6779,-0.6647,6.404
10.178000,-5.9035,-1.3948,-1.0083,6.149
10.179000,-5.6873,-1.1170,-1.3133,5.943
10.179000,-5.5159,-0.8694,-1.5128,5.785
10.179000,-5.3817,-0.6661,-1.6497,5.668
10.180000,-5.2776,-0.4879,-1.7530,5.582
10.185000,-5.1723,-0.3372,-1.8542,5.505
10.189000,-5.0248,-0.1467,-1.9749,5.401
10.194000,-4.8355,0.0732,-2.0796,5.264
10.202000,-4.6233,0.3443,-2.1969,5.130
10.209000,-4.4099,0.6090,-2.2524,4.989
10.210000,-4.1857,0.8529,-2.2220,4.815
10.215000,-3.9318,1.0829,-2.1009,4.588
10.220000,-3.6480,1.2991,-1.9422,4.332
10.224000,-3.3206,1.5597,-1.7988,4.086
10.229000,-2.9710,1.8096,-1.6803,3.863
10.235000,-2.6546,2.0461,-1.5894,3.709
10.290000,-2.3834,2.2497,-1.5232,3.614
10.291000,-2.1500,2.4163,-1.4816,3.558
10.291000,-1.9861,2.5496,-1.3779,3.513
10.291000,-1.8603,2.6218,-1.1789,3.424
10.292000,-1.7962,2.6451,-0.9592,3.338
10.292000,-1.7098,2.6343,-0.7522,3.229
10.293000,-1.5817,2.5854,-0.5196,3.075
10.293000,-1.3646,2.5406,-0.2851,2.898
10.293000,-1.0679,2.5098,-0.0585,2.728
10.293000,-0.7326,2.4640,0.1317,2.574
10.294000,-0.3637,2.4079,0.3355,2.458
10.296000,0.0030,2.3174,0.5484,2.381
10.301000,0.3963,2.2122,0.8252,2.394
10.305000,0.8036,2.0622,1.1154,2.478
10.310000,1.2107,1.8825,1.3663,2.622
10.315000,1.6224,1.6608,1.5781,2.807
10.320000,2.0219,1.4381,1.7149,3.016
10.325000,2.4046,1.2172,1.8345,3.260
10.330000,2.7795,0.9804,1.9202,3.518
10.335000,3.1779,0.7474,1.9410,3.798
10.395000,3.2245,0.5326,1.8948,3.778
10.395000,4.1842,0.3287,1.7674,4.554
10.396000,4.7315,0.1264,1.5618,4.984
10.396000,5.2650,-0.0559,1.3243,5.429
10.396000,5.7492,-0.2178,1.0599,5.850
10.397000,6.1865,-0.3354,0.7807,6.245
10.397000,6.5841,-0.3917,0.4750,6.613
10.397000,6.9422,-0.4105,0.1547,6.956
10.398000,7.2516,-0.4009,-0.1750,7.265
10.398000,7.5500,-0.3394,-0.4851,7.573
10.398000,7.8115,-0.2377,-0.7780,7.854
10.399000,8.0621,-0.0911,-0.9745,8.121
10.401000,8.2971,0.0737,-1.0490,8.363
10.406000,8.5332,0.2806,-1.0738,8.605
10.410000,8.7268,0.4925,-1.0948,8.809
10.416000,8.8731,0.7121,-1.0929,8.968
10.421000,8.9647,0.9127,-1.0825,9.076
10.426000,8.9946,1.1159,-1.0540,9.125
10.430000,8.9437,1.3004,-0.9740,9.090
10.435000,8.8214,1.4538,-0.8452,8.980
10.441000,8.6496,1.5836,-0.6342,8.816
10.445000,8.4593,1.6730,-0.3771,8.631
10.450000,8.2316,1.7104,-0.0742,8.408
10.513000,8.0241,1.6742,0.2886,8.202
10.514000,7.8588,1.5458,0.6725,8.038
10.515000,7.7285,1.3514,1.0146,7.911
10.515000,7.6337,1.2014,1.2120,7.822
10.515000,7.5142,1.1724,1.2434,7.706
10.516000,7.3342,1.2762,1.1672,7.535
10.516000,7.0624,1.4723,1.0922,7.296
10.516000,6.7562,1.6839,1.0638,7.044
10.517000,6.5115,1.8635,1.1010,6.862
10.517000,6.3525,1.9920,1.1793,6.761
10.517000,6.2767,2.0645,1.2646,6.727
10.518000,6.2579,2.1339,1.2992,6.738
10.518000,6.2911,2.2261,1.2522,6.790
10.525000,6.3566,2.4175,1.1166,6.892
10.527000,6.4256,2.7030,0.8976,7.029
10.531000,6.4593,3.0606,0.6315,7.176
10.536000,6.4288,3.4254,0.3684,7.294
10.541000,6.3293,3.8022,0.1034,7.384
10.547000,6.2039,4.1860,-0.1346,7.485
10.550000,6.0691,4.5646,-0.3026,7.600
10.558000,5.9200,4.8900,-0.4227,7.690
10.563000,5.7639,5.1597,-0.5358,7.754
10.565000,5.5982,5.3402,-0.6661,7.765
10.570000,5.4446,5.4483,-0.8257,7.747
10.626000,5.3053,5.5007,-0.9949,7.707
10.627000,5.1492,5.5120,-1.1211,7.626
10.627000,4.9836,5.4536,-1.2686,7.496
10.628000,4.8203,5.3853,-1.4563,7.373
10.628000,4.6861,5.3053,-1.6719,7.273
10.629000,4.5811,5.1923,-1.8792,7.175
10.629000,4.5054,5.0560,-2.0828,7.085
10.629000,4.4567,4.8895,-2.2319,6.982
10.630000,4.4133,4.6951,-2.3220,6.849
10.630000,4.3829,4.4899,-2.3557,6.702
10.631000,4.3654,4.2859,-2.3522,6.554
10.631000,4.3155,4.1043,-2.3812,6.414
10.637000,4.2260,3.9549,-2.3852,6.260
10.643000,4.0972,3.8113,-2.3210,6.058
10.647000,3.9624,3.6637,-2.1363,5.804
10.652000,3.8317,3.5339,-1.8703,5.538
10.657000,3.6715,3.4095,-1.5545,5.246
10.661000,3.5059,3.2930,-1.2419,4.968
10.666000,3.3301,3.2129,-0.9352,4.721
10.671000,3.2014,3.1711,-0.6443,4.552
10.676000,3.0866,3.1344,-0.3769,4.415
10.681000,2.9713,3.0761,-0.2173,4.282
10.686000,2.8818,3.0345,-0.1009,4.186
10.750000,2.7967,3.0070,-0.0064,4.106
10.751000,2.6939,2.9692,0.0881,4.010
10.752000,2.5765,2.9457,0.2066,3.919
10.752000,2.4513,2.9360,0.3203,3.838
10.752000,2.2802,2.9182,0.4217,3.727
10.753000,2.0632,2.8925,0.5278,3.592
10.753000,1.8124,2.8494,0.6220,3.434
10.753000,1.5588,2.8052,0.7047,3.286
10.754000,1.2887,2.7803,0.7571,3.157
10.754000,1.0068,2.7480,0.7914,3.032
10.754000,0.7517,2.7085,0.8242,2.929
10.755000,0.5521,2.6381,0.8436,2.824
10.755000,0.5008,2.5671,0.8808,2.760
10.764000,0.2254,2.4561,0.9048,2.627
10.765000,0.0962,2.3354,0.9498,2.523
10.768000,-0.0374,2.1788,1.0349,2.412
10.772000,-0.1968,1.9770,1.0668,2.255
10.777000,-0.3560,1.7486,1.0436,2.067
10.782000,-0.5334,1.5453,0.9825,1.907
10.787000,-0.7053,1.3118,0.9272,1.754
10.853000,-0.8117,1.0554,0.8536,1.582
10.854000,-0.8598,0.8075,0.7471,1.396
10.854000,-0.8805,0.5371,0.6552,1.222
10.854000,-0.8763,0.2604,0.5202,1.052
10.855000,-0.8515,-0.0190,0.3804,0.933
10.855000,-0.8685,-0.3206,0.2139,0.950
10.855000,-0.8934,-0.6394,0.0825,1.102
10.856000,-0.9356,-0.9346,0.0239,1.323
10.856000,-0.9904,-1.2546,0.0062,1.598
10.856000,-1.0667,-1.6168,-0.0352,1.937
10.857000,-1.1359,-1.9784,-0.0575,2.282
10.857000,-1.1882,-2.3629,-0.0728,2.646
10.857000,-1.2476,-2.7316,-0.0763,3.004
10.858000,-1.2878,-3.0731,-0.0275,3.332
10.863000,-1.3085,-3.4046,0.0117,3.647
10.868000,-1.3171,-3.7483,0.0748,3.974
10.872000,-1.3018,-4.1060,0.1623,4.311
10.876000,-1.2507,-4.4728,0.2982,4.654
10.882000,-1.1783,-4.8387,0.4372,4.999
10.888000,-1.0633,-5.1948,0.5243,5.328
10.892000,-0.8984,-5.4752,0.5697,5.578
10.897000,-0.7630,-5.7262,0.5400,5.802
10.902000,-0.6741,-5.9479,0.5031,6.007
10.957000,-0.5981,-6.1615,0.4951,6.210
10.958000,-0.5068,-6.3770,0.5522,6.421
10.958000,-0.4000,-6.6053,0.6221,6.647
10.958000,-0.2542,-6.8063,0.6475,6.842
10.958000,-0.1055,-7.0110,0.6314,7.040
10.959000,0.0411,-7.2054,0.6267,7.233
10.959000,0.1830,-7.3586,0.5977,7.385
10.959000,0.2770,-7.5419,0.5668,7.568
10.960000,0.3445,-7.7220,0.5196,7.747
10.960000,0.4380,-7.9062,0.4299,7.930
10.961000,0.5550,-8.0776,0.2953,8.102
10.963000,0.6909,-8.2460,0.1371,8.276
10.967000,0.7929,-8.4282,-0.0523,8.466
10.973000,0.8827,-8.5950,-0.2776,8.645
10.977000,0.9361,-8.7368,-0.5118,8.802
10.982000,0.9722,-8.8776,-0.7263,8.960
10.987000,1.0030,-8.9861,-0.8972,9.086
10.992000,1.0117,-9.0605,-1.0604,9.178
10.997000,1.0222,-9.1027,-1.2446,9.244
11.001000,1.0440,-9.1205,-1.3876,9.284
11.008000,1.0270,-9.1235,-1.6090,9.321
11.012000,0.9900,-9.0949,-1.8750,9.339
11.017000,0.9402,-9.0423,-2.1611,9.344
11.021000,0.8706,-8.9938,-2.4292,9.357
11.077000,0.7811,-9.0023,-2.6674,9.422
11.078000,0.6862,-9.0886,-2.8590,9.552
11.078000,0.5549,-9.2427,-3.0117,9.737
11.078000,0.4139,-9.3898,-3.1331,9.907
11.079000,0.2847,-9.4122,-3.2544,9.963
11.080000,0.1127,-9.2505,-3.3790,9.849
11.080000,-0.1261,-8.9172,-3.5066,9.583
11.080000,-0.4171,-8.4917,-3.5632,9.218
11.081000,-0.7339,-8.0770,-3.4586,8.817
11.081000,-1.0042,-7.7711,-3.2469,8.482
11.082000,-1.2037,-7.5265,-3.0399,8.206
11.082000,-1.3278,-7.2979,-2.9355,7.977
11.088000,-1.4220,-7.0186,-2.9359,7.740
11.092000,-1.5129,-6.6578,-3.0475,7.477
11.098000,-1.6196,-6.2252,-3.2050,7.187
11.102000,-1.7256,-5.7789,-3.3219,6.885
11.110000,-1.7926,-5.3621,-3.3526,6.573
11.112000,-1.8088,-5.0180,-3.3237,6.285
11.117000,-1.7430,-4.7137,-3.2567,5.989
11.191000,-1.6050,-4.4377,-3.1834,5.692
11.192000,-1.4451,-4.1782,-3.0918,5.395
11.192000,-1.2680,-3.9581,-2.9728,5.110
11.193000,-1.1264,-3.7701,-2.8245,4.844
11.193000,-1.0299,-3.6292,-2.6472,4.609
11.194000,-0.9783,-3.5521,-2.4292,4.413
11.194000,-0.9932,-3.5172,-2.1874,4.259
11.194000,-1.0698,-3.5129,-1.9725,4.168
11.195000,-1.1958,-3.4909,-1.7773,4.096
11.195000,-1.3714,-3.4629,-1.5729,4.043
11.195000,-1.5773,-3.4212,-1.3374,3.998
11.196000,-1.7704,-3.3608,-1.0707,3.947
11.196000,-1.9676,-3.3205,-0.7678,3.935
11.196000,-2.2167,-3.2784,-0.4193,3.980
11.197000,-2.5558,-3.2582,-0.0734,4.142
11.197000,-2.9035,-3.1950,0.2296,4.323
11.202000,-3.2406,-3.1172,0.5116,4.526
11.207000,-3.5624,-3.0534,0.8064,4.761
11.213000,-3.8738,-2.9991,1.0949,5.020
11.221000,-4.2010,-2.9538,1.3509,5.310
11.225000,-4.5487,-2.9245,1.5293,5.620
11.230000,-4.9147,-2.8893,1.6453,5.934
11.232000,-5.3011,-2.8522,1.7065,6.257
11.237000,-5.7033,-2.7988,1.7183,6.581
11.298000,-6.0516,-2.7115,1.6547,6.835
11.299000,-6.3343,-2.5974,1.5781,7.026
11.299000,-6.5559,-2.4516,1.4766,7.153
11.300000,-6.6949,-2.2929,1.3307,7.201
11.300000,-6.7586,-2.1291,1.1284,7.175
11.300000,-6.7445,-1.9529,0.8767,7.076
11.301000,-6.6717,-1.7428,0.5538,6.918
11.301000,-6.5784,-1.5204,0.2000,6.755
11.301000,-6.4239,-1.2644,-0.1681,6.549
11.302000,-6.2391,-0.9984,-0.4835,6.337
11.302000,-6.0172,-0.7163,-0.7152,6.102
11.302000,-5.7772,-0.4134,-0.8659,5.856
11.302000,-5.5359,-0.1089,-0.9741,5.622
11.310000,-5.3171,0.1920,-1.0255,5.419
11.313000,-5.1447,0.4969,-0.9700,5.259
11.317000,-5.0356,0.7900,-0.8510,5.168
11.325000,-4.9178,1.0694,-0.7382,5.087
11.328000,-4.7960,1.3279,-0.6340,5.017
11.332000,-4.6344,1.5486,-0.5790,4.921
11.339000,-4.4618,1.7434,-0.5613,4.823
11.395000,-4.2683,1.9032,-0.5733,4.708
11.396000,-4.0593,2.0271,-0.5548,4.571
11.396000,-3.7844,2.1298,-0.5655,4.379
11.396000,-3.4319,2.2519,-0.6077,4.149
11.397000,-2.9661,2.4120,-0.6454,3.877
11.397000,-2.4015,2.6005,-0.6718,3.603
11.397000,-1.8180,2.7747,-0.6680,3.384
11.397000,-1.2515,2.8915,-0.6389,3.215
11.398000,-0.7023,2.9505,-0.5730,3.087
11.398000,-0.1873,2.9706,-0.4660,3.013
11.398000,0.2747,2.9711,-0.3948,3.010
11.398000,0.6543,2.9367,-0.3904,3.034
11.403000,0.9542,2.8825,-0.4238,3.066
11.408000,1.1914,2.7849,-0.4348,3.060
11.412000,1.3993,2.6226,-0.4110,3.001
11.417000,1.5973,2.4107,-0.3334,2.911
11.424000,1.8089,2.1416,-0.2468,2.814
11.428000,2.0342,1.8587,-0.1848,2.762
11.432000,2.2852,1.5621,-0.1734,2.774
11.437000,2.5521,1.2449,-0.2172,2.848
11.494000,2.8087,0.9050,-0.3373,2.970
11.495000,3.0243,0.5452,-0.4881,3.112
11.495000,3.2799,0.1847,-0.6809,3.355
11.495000,3.5352,-0.1805,-0.8774,3.647
11.496000,3.8406,-0.5285,-1.1272,4.037
11.496000,4.1843,-0.8565,-1.3703,4.486
11.496000,4.5882,-1.1376,-1.6017,4.991
11.496000,5.0086,-1.3506,-1.8015,5.491
11.496000,5.4479,-1.4834,-1.9721,5.981
11.497000,5.8823,-1.5529,-2.1132,6.440
11.497000,6.3114,-1.5426,-2.2056,6.861
11.497000,6.7284,-1.4571,-2.2829,7.253
11.504000,7.1490,-1.2976,-2.3281,7.630
11.507000,7.5348,-1.0713,-2.2958,7.949
11.514000,7.8520,-0.8102,-2.1672,8.186
11.519000,8.0479,-0.5386,-1.9669,8.302
11.523000,8.1438,-0.2808,-1.7288,8.330
11.528000,8.1330,-0.0581,-1.4531,8.262
11.532000,8.0681,0.1410,-1.2006,8.158
11.538000,7.9636,0.3407,-0.9928,8.032
11.546000,7.8605,0.5268,-0.8323,7.922
11.549000,7.7636,0.6922,-0.7357,7.829
11.554000,7.6829,0.8398,-0.6432,7.755
11.559000,7.6225,0.9452,-0.5093,7.698
11.563000,7.5949,0.9898,-0.3127,7.666
11.568000,7.5905,0.9424,-0.0777,7.649
11.649000,7.6071,0.8273,0.1475,7.653
11.650000,7.6352,0.6876,0.3510,7.674
11.651000,7.6291,0.6044,0.5015,7.669
11.651000,7.5648,0.6230,0.5346,7.609
11.651000,7.4350,0.7768,0.4965,7.492
11.652000,7.2469,1.0392,0.4065,7.332
11.652000,7.0532,1.3317,0.3272,7.185
11.653000,6.8681,1.5509,0.2871,7.047
11.653000,6.7015,1.6639,0.3076,6.912
11.653000,6.5512,1.7379,0.3359,6.786
11.654000,6.4389,1.8163,0.3672,6.700
11.654000,6.3503,1.9755,0.3870,6.662
11.654000,6.2926,2.2227,0.3909,6.685
11.655000,6.2534,2.5193,0.3955,6.753
11.655000,6.2277,2.8459,0.4104,6.859
11.656000,6.2538,3.2046,0.4351,7.040
11.656000,6.3193,3.5806,0.4332,7.276
11.663000,6.4240,3.9810,0.4069,7.568
11.665000,6.5865,4.3714,0.3462,7.913
11.669000,6.7702,4.7397,0.2728,8.269
11.677000,6.9532,5.0663,0.1987,8.605
11.680000,7.1111,5.3175,0.1455,8.881
11.684000,7.1985,5.4981,0.1061,9.059
11.688000,7.2367,5.6272,0.0657,9.167
11.750000,7.2476,5.7026,0.0199,9.222
11.751000,7.2336,5.7293,-0.0289,9.228
11.751000,7.3025,5.7337,-0.0900,9.285
11.752000,7.3416,5.7088,-0.1226,9.301
11.752000,7.3964,5.6663,-0.1145,9.318
11.753000,7.4646,5.6016,-0.0925,9.333
11.753000,7.5676,5.4928,-0.0975,9.351
11.754000,7.6812,5.3302,-0.1439,9.351
11.754000,7.7959,5.1354,-0.2364,9.338
11.754000,7.8995,4.8937,-0.3339,9.298
11.754000,7.9897,4.6269,-0.4315,9.243
11.755000,8.0305,4.3181,-0.5312,9.133
11.755000,8.0101,3.9745,-0.6301,8.964
11.758000,7.9287,3.6059,-0.7137,8.739
11.765000,7.7817,3.2338,-0.7938,8.464
11.769000,7.5862,2.8798,-0.8583,8.160
11.777000,7.3501,2.5229,-0.9193,7.825
11.780000,7.0689,2.1774,-0.9218,7.454
11.783000,6.7619,1.9080,-0.9976,7.096
11.788000,6.4271,1.7027,-1.1490,6.747
11.854000,6.0430,1.5468,-1.3447,6.381
11.855000,5.6320,1.4294,-1.5200,6.006
11.855000,5.1727,1.3358,-1.6678,5.597
11.856000,4.7036,1.2686,-1.7355,5.172
11.856000,4.2344,1.2181,-1.7068,4.725
11.857000,3.7556,1.1839,-1.6015,4.251
11.857000,3.3206,1.1837,-1.4703,3.820
11.857000,2.9194,1.1905,-1.3300,3.422
11.858000,2.5497,1.2160,-1.1831,3.063
11.858000,2.2403,1.2507,-1.0685,2.779
11.858000,1.9475,1.3104,-0.9983,2.551
11.859000,1.6482,1.3457,-0.9124,2.315
11.859000,1.3228,1.3538,-0.7820,2.048
11.859000,0.9931,1.3511,-0.6073,1.783
11.865000,0.6806,1.3163,-0.4076,1.537
11.870000,0.3545,1.2493,-0.2740,1.327
11.874000,0.0191,1.1519,-0.1967,1.169
11.884000,-0.3530,1.0424,-0.1683,1.113
11.885000,-0.7670,0.9111,-0.1692,1.203
11.889000,-1.1960,0.7465,-0.1632,1.419
11.893000,-1.6134,0.5753,-0.1529,1.720
11.898000,-2.0027,0.3879,-0.1476,2.045
11.904000,-2.3556,0.2173,-0.1766,2.372
11.962000,-2.6343,0.0581,-0.1774,2.641
11.964000,-2.8673,-0.0991,-0.1794,2.875
11.965000,-3.0713,-0.2805,-0.2284,3.093
11.966000,-3.2395,-0.4914,-0.2742,3.288
11.966000,-3.4095,-0.7157,-0.3340,3.500
11.966000,-3.5645,-0.9369,-0.4748,3.716
11.967000,-3.6737,-1.1454,-0.6655,3.905
11.967000,-3.7753,-1.3865,-0.7962,4.100
11.967000,-3.8787,-1.6743,-0.8628,4.312
11.968000,-3.9698,-2.0092,-0.9136,4.542
11.969000,-4.0911,-2.3368,-0.9511,4.806
11.970000,-4.2069,-2.6479,-0.9965,5.070
11.970000,-4.3173,-2.9467,-1.0185,5.325
11.974000,-4.4224,-3.2904,-0.9257,5.589
11.980000,-4.4578,-3.6554,-0.7691,5.816
11.984000,-4.4112,-3.9944,-0.6208,5.983
11.991000,-4.3402,-4.3203,-0.4909,6.144
11.995000,-4.2976,-4.6520,-0.3506,6.343
11.998000,-4.3288,-4.9796,-0.2141,6.602
12.003000,-4.4122,-5.3079,-0.0386,6.902
12.057000,-4.5094,-5.6206,0.1383,7.207
12.058000,-4.5990,-5.9154,0.3404,7.501
12.058000,-4.6787,-6.1870,0.5324,7.775
12.058000,-4.7200,-6.4349,0.7528,8.016
12.059000,-4.7110,-6.6493,0.9969,8.210
12.059000,-4.6470,-6.8543,1.2569,8.376
12.059000,-4.5019,-7.0539,1.4908,8.500
12.060000,-4.2711,-7.2438,1.6529,8.570
12.060000,-3.9861,-7.4407,1.7631,8.623
12.060000,-3.6208,-7.5992,1.8150,8.611
12.061000,-3.1422,-7.6912,1.8162,8.504
12.064000,-2.6081,-7.7360,1.7471,8.349
12.070000,-2.0311,-7.7393,1.6414,8.168
12.074000,-1.4401,-7.7332,1.5143,8.011
12.080000,-0.9144,-7.7421,1.4092,7.922
12.085000,-0.4729,-7.7855,1.3258,7.912
12.092000,-0.0445,-7.8564,1.2487,7.955
12.094000,0.3519,-7.9601,1.1942,8.057
12.098000,0.7161,-8.0656,1.1193,8.174
12.105000,1.0602,-8.1590,1.0166,8.290
12.170000,1.4224,-8.2169,0.8571,8.383
12.171000,1.7284,-8.2612,0.6270,8.463
12.171000,1.9782,-8.2873,0.4028,8.530
12.172000,2.2031,-8.3122,0.2582,8.603
12.172000,2.4127,-8.3382,-0.0487,8.680
12.173000,2.5971,-8.3631,-0.3038,8.762
12.173000,2.8205,-8.4092,-0.4399,8.881
12.173000,3.0255,-8.4865,-0.6223,9.031
12.174000,3.1976,-8.5880,-0.8480,9.203
12.175000,3.3246,-8.6586,-1.1360,9.344
12.175000,3.4066,-8.7153,-1.4883,9.475
12.176000,3.4051,-8.7318,-1.8256,9.548
12.176000,3.2964,-8.7298,-2.2317,9.595
12.176000,3.1045,-8.6920,-2.6894,9.614
12.179000,2.8463,-8.6275,-3.1603,9.619
12.188000,2.5532,-8.5550,-3.6615,9.650
12.190000,2.2639,-8.4641,-4.1623,9.700
12.195000,1.9957,-8.3378,-4.6779,9.767
12.198000,1.7368,-8.1085,-5.2374,9.808
12.204000,1.4781,-7.7662,-5.7910,9.800
12.209000,1.2055,-7.3133,-6.2842,9.717
12.214000,0.9432,-6.7688,-6.7035,9.573
12.219000,0.7204,-6.1541,-7.0039,9.351
12.253000,0.5850,-5.5325,-7.1605,9.068
12.253000,0.5252,-4.9377,-7.1934,8.741
12.254000,0.5197,-4.4133,-7.1232,8.396
12.254000,0.5543,-3.9911,-6.9364,8.022
12.254000,0.5978,-3.6426,-6.6360,7.594
12.255000,0.6309,-3.3765,-6.2037,7.091
12.255000,0.6557,-3.1572,-5.6946,6.544
12.259000,0.6457,-2.9738,-5.1516,5.983
12.264000,0.6031,-2.8410,-4.6106,5.449
12.269000,0.4892,-2.7590,-4.1400,4.999
12.274000,0.2702,-2.7501,-3.6917,4.611
12.279000,-0.0560,-2.7941,-3.2267,4.269
12.284000,-0.4082,-2.8525,-2.7397,3.976
12.291000,-0.7745,-2.9537,-2.2042,3.766
12.295000,-1.1476,-3.0737,-1.6298,3.663
12.300000,-1.5396,-3.2312,-1.0736,3.737
12.305000,-1.9984,-3.4045,-0.5852,3.991
12.310000,-2.5239,-3.5787,-0.1356,4.381
12.315000,-3.0440,-3.7267,0.3258,4.823
12.320000,-3.5803,-3.8912,0.7799,5.345
12.373000,-4.1445,-4.0139,1.1936,5.892
12.374000,-4.7413,-4.1209,1.5907,6.480
12.374000,-5.2960,-4.1970,1.9424,7.031
12.375000,-5.8085,-4.2487,2.2198,7.531
12.375000,-6.2835,-4.2805,2.4782,7.997
12.375000,-6.7279,-4.2772,2.7008,8.417
12.376000,-7.1537,-4.2822,2.8540,8.812
12.376000,-7.5294,-4.2394,2.9166,9.120
12.377000,-7.8287,-4.1322,2.8693,9.306
12.377000,-8.0156,-3.9990,2.7866,9.381
12.377000,-8.0594,-3.8280,2.6230,9.300
12.380000,-7.8976,-3.6168,2.3064,8.987
12.384000,-7.5617,-3.3620,1.8266,8.475
12.390000,-7.1667,-3.0879,1.2194,7.898
12.394000,-6.7964,-2.8092,0.6215,7.380
12.400000,-6.4582,-2.5432,0.0974,6.942
12.405000,-6.1016,-2.2632,-0.3813,6.519
12.410000,-5.7485,-1.9515,-0.9061,6.138
12.416000,-5.3773,-1.6077,-1.4460,5.796
12.426000,-5.0071,-1.2419,-1.9384,5.511
12.426000,-4.6311,-0.8735,-2.3116,5.249
12.430000,-4.2683,-0.5267,-2.6427,5.048
12.434000,-3.9210,-0.2036,-2.9385,4.904
12.492000,-3.5469,0.1402,-3.1271,4.731
12.493000,-3.2413,0.4689,-3.2350,4.603
12.493000,-2.9803,0.7968,-3.2386,4.473
12.494000,-2.7518,1.1263,-3.1291,4.316
12.494000,-2.5672,1.4820,-2.9211,4.162
12.494000,-2.4581,1.8196,-2.7055,4.083
12.495000,-2.3790,2.1468,-2.4004,4.004
12.495000,-2.2772,2.4302,-1.9438,3.856
12.496000,-2.1720,2.6525,-1.3891,3.699
12.496000,-2.0583,2.8212,-0.8469,3.593
12.496000,-1.9201,2.9327,-0.4130,3.530
12.497000,-1.7861,2.9920,-0.0222,3.485
12.500000,-1.6687,3.0279,0.3164,3.472
12.506000,-1.5750,2.9902,0.5987,3.432
12.510000,-1.4783,2.8991,0.8515,3.364
12.517000,-1.3076,2.7851,1.0442,3.249
12.521000,-1.0772,2.6559,1.2394,3.122
12.525000,-0.8113,2.5204,1.4324,3.010
12.531000,-0.5580,2.3690,1.5965,2.911
12.535000,-0.2836,2.2115,1.6071,2.748
12.541000,0.0170,1.9932,1.5338,2.515
12.547000,0.4174,1.7449,1.4484,2.306
12.550000,0.9012,1.4954,1.2813,2.166
12.615000,1.4585,1.2448,1.0373,2.180
12.616000,2.0603,1.0264,0.7479,2.420
12.616000,2.6564,0.8331,0.4560,2.821
12.616000,3.2052,0.6328,0.1692,3.271
12.616000,3.7119,0.4283,-0.1175,3.738
12.617000,4.1958,0.2033,-0.4233,4.222
12.617000,4.6955,-0.0229,-0.7361,4.753
12.617000,5.1898,-0.2688,-1.0508,5.302
12.617000,5.6661,-0.5082,-1.3668,5.851
12.617000,6.1176,-0.6977,-1.6646,6.378
12.618000,6.5082,-0.8230,-1.9798,6.852
12.618000,6.8189,-0.9148,-2.2662,7.244
12.618000,7.0596,-0.9392,-2.5521,7.565
12.621000,7.1963,-0.9322,-2.8153,7.783
12.626000,7.3062,-0.8764,-3.0028,7.948
12.630000,7.4013,-0.7623,-3.0979,8.060
12.638000,7.4362,-0.6044,-3.0673,8.067
12.642000,7.4231,-0.4290,-2.8878,7.977
12.646000,7.3865,-0.2361,-2.6247,7.843
12.650000,7.3643,-0.0381,-2.3263,7.723
12.715000,7.3518,0.1552,-2.0047,7.622
12.716000,7.3607,0.3222,-1.6937,7.560
12.716000,7.3766,0.4891,-1.3765,7.520
12.716000,7.3997,0.6367,-1.0320,7.498
12.717000,7.4653,0.7523,-0.6727,7.533
12.717000,7.5594,0.8363,-0.3349,7.613
12.717000,7.7012,0.8934,-0.0951,7.753
12.718000,7.9310,0.9211,0.0967,7.985
12.718000,8.2298,0.8909,0.2265,8.281
12.718000,8.5226,0.8907,0.2967,8.574
12.718000,8.8045,0.9445,0.3198,8.861
12.719000,9.0366,1.1022,0.2888,9.108
12.719000,9.2113,1.3514,0.2688,9.314
12.721000,9.3090,1.6367,0.2860,9.456
12.725000,9.3468,1.9201,0.3190,9.547
12.730000,9.3530,2.1964,0.3626,9.614
12.736000,9.3330,2.4515,0.4310,9.659
12.752000,9.3085,2.7142,0.5117,9.710
12.753000,9.3034,3.0036,0.5853,9.794
12.753000,9.3012,3.3387,0.6300,9.902
12.806000,9.2749,3.7212,0.5974,10.011
12.807000,9.2150,4.1369,0.4853,10.113
12.807000,9.1283,4.5713,0.2799,10.213
12.807000,9.0529,5.0315,0.0200,10.357
12.808000,8.9743,5.5154,-0.1933,10.535
12.808000,8.9542,5.9744,-0.2961,10.768
12.808000,8.9756,6.3750,-0.3581,11.015
12.809000,9.0119,6.7097,-0.4012,11.243
12.809000,9.0746,6.9783,-0.4208,11.455
12.809000,9.1182,7.1638,-0.4723,11.605
12.810000,9.1355,7.2665,-0.5505,11.686
12.810000,9.1578,7.3127,-0.6891,11.739
12.815000,9.1847,7.2785,-0.8589,11.750
12.820000,9.2377,7.1663,-0.9972,11.734
12.825000,9.2760,6.9739,-1.1470,11.662
12.830000,9.2615,6.7013,-1.3222,11.508
12.835000,9.2090,6.3656,-1.4223,11.285
12.840000,9.0802,6.0074,-1.4541,10.984
12.845000,8.8658,5.6221,-1.4198,10.594
12.850000,8.6022,5.2314,-1.3003,10.152
12.860000,8.3063,4.8614,-1.1106,9.688
12.861000,8.0201,4.4981,-1.0002,9.250
12.865000,7.7314,4.1318,-0.9784,8.821
12.870000,7.4141,3.7722,-1.0229,8.381
12.914000,7.0685,3.4126,-1.0753,7.923
12.915000,6.7571,3.0962,-1.0562,7.507
12.915000,6.5121,2.8282,-0.9455,7.162
12.916000,6.3164,2.5795,-0.8324,6.873
12.916000,6.0983,2.3521,-0.7818,6.583
12.916000,5.8483,2.1435,-0.8390,6.285
12.916000,5.6048,1.9684,-0.9720,6.019
12.917000,5.3507,1.8217,-1.0559,5.750
12.917000,5.0897,1.7018,-1.0174,5.462
12.920000,4.8048,1.5913,-0.9577,5.151
12.925000,4.7186,1.5067,-0.9206,5.038
12.930000,4.2092,1.4241,-0.9328,4.540
12.935000,3.8504,1.3501,-0.9676,4.193
12.941000,3.4688,1.2857,-1.0132,3.836
12.946000,3.0641,1.2092,-1.0574,3.460
12.950000,2.6508,1.1088,-1.0500,3.059
12.956000,2.2723,1.0276,-1.0104,2.691
12.960000,1.9472,0.9676,-0.9435,2.370
12.966000,1.6574,0.9225,-0.8689,2.086
12.970000,1.4022,0.8894,-0.8004,1.843
12.976000,1.1837,0.8200,-0.7042,1.603
12.981000,0.9661,0.7620,-0.5426,1.345
12.986000,0.7305,0.7177,-0.4147,1.105
12.991000,0.4623,0.6695,-0.3372,0.881
12.999000,0.1624,0.5974,-0.2670,0.674
13.001000,-0.1695,0.4771,-0.1749,0.536
13.045000,-0.5114,0.3400,-0.0654,0.618
13.046000,-0.8609,0.1720,0.0564,0.880
13.046000,-1.2108,-0.0440,0.1328,1.219
13.046000,-1.5503,-0.2720,0.1445,1.581
13.047000,-1.8607,-0.5127,0.0873,1.932
13.047000,-2.1179,-0.7344,0.0261,2.242
13.047000,-2.3242,-0.9748,-0.0199,2.520
13.047000,-2.5015,-1.2178,-0.0675,2.783
13.047000,-2.6131,-1.4707,-0.1411,3.002
13.052000,-2.6401,-1.7031,-0.2335,3.150
13.056000,-2.6044,-1.9389,-0.3448,3.265
13.061000,-2.5182,-2.1759,-0.4295,3.356
13.066000,-2.4340,-2.4261,-0.4949,3.472
13.072000,-2.3140,-2.6615,-0.4913,3.561
13.076000,-2.1982,-2.8929,-0.4788,3.665
13.081000,-2.0895,-3.1641,-0.4220,3.815
13.086000,-2.0116,-3.4631,-0.3857,4.023
13.093000,-1.9811,-3.7514,-0.3532,4.257
13.096000,-1.9839,-4.0558,-0.2764,4.523
13.101000,-2.0172,-4.3697,-0.1503,4.815
13.174000,-2.0618,-4.6834,-0.0325,5.117
13.174000,-2.0819,-4.9897,0.0893,5.407
13.175000,-2.0870,-5.2905,0.2246,5.692
13.175000,-2.0608,-5.5863,0.3450,5.964
13.176000,-2.0487,-5.8922,0.4878,6.257
13.176000,-2.0366,-6.2300,0.6530,6.587
13.176000,-2.0078,-6.5730,0.8598,6.926
13.177000,-1.9602,-6.9423,1.0944,7.296
13.177000,-1.8747,-7.3018,1.2782,7.646
13.178000,-1.7805,-7.6255,1.3732,7.950
13.178000,-1.6443,-7.9077,1.3880,8.195
13.179000,-1.5001,-8.1299,1.3687,8.380
13.179000,-1.3579,-8.2875,1.2968,8.498
13.179000,-1.2108,-8.4119,1.1919,8.582
13.180000,-1.0636,-8.5205,1.0637,8.652
13.182000,-0.9456,-8.6341,0.8964,8.732
13.188000,-0.8066,-8.7579,0.6924,8.822
13.192000,-0.6802,-8.8847,0.4804,8.924
13.196000,-0.5592,-9.0026,0.3032,9.025
13.201000,-0.4342,-9.1000,0.1177,9.111
13.210000,-0.3268,-9.2484,0.0195,9.254
13.212000,-0.2464,-9.4142,-0.0948,9.418
13.217000,-0.1596,-9.5496,-0.2728,9.555
13.222000,-0.0595,-9.6523,-0.4569,9.663
13.287000,0.0876,-9.7300,-0.6064,9.749
13.288000,0.2407,-9.8209,-0.7718,9.854
13.288000,0.3593,-9.9205,-0.9603,9.973
13.289000,0.4865,-10.0480,-1.1410,10.124
13.289000,0.6152,-10.2223,-1.3260,10.326
13.290000,0.7815,-10.3832,-1.5543,10.528
13.290000,0.9543,-10.4973,-1.8166,10.696
13.290000,1.1338,-10.5383,-2.1703,10.819
13.291000,1.2961,-10.4972,-2.5583,10.882
13.291000,1.3957,-10.4076,-2.9372,10.904
13.292000,1.4256,-10.3007,-3.3166,10.915
13.292000,1.3929,-10.1812,-3.6605,10.909
13.293000,1.3026,-10.0732,-3.9762,10.908
13.293000,1.2218,-9.9502,-4.2615,10.893
13.297000,1.1266,-9.8121,-4.5714,10.883
13.301000,1.0076,-9.6230,-4.8895,10.841
13.308000,0.8649,-9.3540,-5.2754,10.774
13.311000,0.6938,-8.9983,-5.6645,10.655
13.316000,0.4967,-8.5700,-6.0352,10.494
13.321000,0.3216,-8.0645,-6.3829,10.290
13.326000,0.2260,-7.5106,-6.6814,10.055
13.331000,0.1668,-6.9541,-6.8930,9.793
13.336000,0.1728,-6.4313,-7.0156,9.519
13.391000,0.2561,-5.9480,-7.0188,9.204
13.392000,0.3449,-5.5571,-6.8651,8.839
13.392000,0.4346,-5.2327,-6.6175,8.448
13.392000,0.5204,-4.9635,-6.2694,8.013
13.393000,0.5831,-4.7236,-5.8255,7.523
13.393000,0.6249,-4.4761,-5.3482,7.002
13.393000,0.6289,-4.2549,-4.8638,6.493
13.394000,0.5855,-4.0699,-4.3934,6.017
13.394000,0.4538,-3.9264,-3.9558,5.592
13.394000,0.2695,-3.8718,-3.4689,5.205
13.395000,0.0253,-3.8947,-2.9326,4.875
13.396000,-0.2860,-3.9874,-2.3489,4.637
13.402000,-0.6429,-4.0853,-1.7774,4.501
13.408000,-1.0597,-4.1666,-1.3014,4.492
13.412000,-1.5653,-4.2741,-0.8605,4.632
13.416000,-2.1475,-4.4068,-0.3919,4.918
13.421000,-2.7440,-4.5405,0.0563,5.306
13.427000,-3.3642,-4.6835,0.4632,5.785
13.431000,-3.9723,-4.7851,0.8387,6.275
13.436000,-4.5800,-4.8734,1.1998,6.795
13.499000,-5.1753,-4.9142,1.5679,7.307
13.499000,-5.7817,-4.9431,1.8924,7.839
13.500000,-6.3702,-4.9426,2.1608,8.347
13.500000,-6.9454,-4.9313,2.3632,8.840
13.500000,-7.4639,-4.8798,2.5184,9.266
13.500000,-7.9277,-4.7876,2.5831,9.615
13.501000,-8.2840,-4.6738,2.5396,9.845
13.501000,-8.5302,-4.5379,2.3879,9.953
13.501000,-8.6137,-4.3776,2.0940,9.887
13.501000,-8.5343,-4.1860,1.6647,9.650
13.502000,-8.3568,-3.9705,1.1335,9.321
13.502000,-8.1124,-3.7648,0.6012,8.964
13.503000,-7.8825,-3.5771,0.0961,8.657
13.508000,-7.6622,-3.4047,-0.3646,8.393
13.511000,-7.4085,-3.2287,-0.7544,8.117
13.516000,-7.1716,-3.0421,-1.1740,7.878
13.524000,-6.9462,-2.8538,-1.5993,7.678
13.527000,-6.6562,-2.6769,-1.9918,7.446
13.531000,-6.3446,-2.4826,-2.4014,7.224
13.536000,-6.0304,-2.2850,-2.7679,7.018
13.574000,-5.6394,-2.0435,-3.0335,6.722
13.575000,-5.1619,-1.7794,-3.2269,6.342
13.575000,-4.6037,-1.4300,-3.3858,5.891
13.576000,-4.0030,-1.0339,-3.4095,5.359
13.576000,-3.3506,-0.5945,-3.2650,4.716
13.576000,-2.6494,-0.1009,-2.9935,3.999
13.576000,-1.9570,0.4223,-2.5694,3.257
13.577000,-1.3653,0.9628,-2.0013,2.607
13.582000,-0.9366,1.4555,-1.3737,2.210
13.587000,-0.6807,1.8832,-0.6901,2.118
13.592000,-0.5808,2.1906,0.0226,2.266
13.599000,-0.6438,2.3923,0.7520,2.589
13.601000,-0.8621,2.5155,1.4931,3.050
13.607000,-1.1691,2.5978,2.2244,3.614
13.611000,-1.5593,2.6717,2.8431,4.201
13.617000,-1.9270,2.7185,3.3397,4.718
13.624000,-2.2382,2.7321,3.6930,5.110
13.627000,-2.4516,2.7185,3.9147,5.360
13.631000,-2.5006,2.6773,4.0347,5.450
13.637000,-2.4092,2.5682,4.0867,5.395
13.697000,-2.2398,2.3889,4.0566,5.213
13.698000,-1.9756,2.1803,3.9472,4.923
13.699000,-1.5380,1.9613,3.6511,4.421
13.699000,-0.9271,1.7465,3.1809,3.745
13.699000,-0.2113,1.5442,2.6096,3.040
13.700000,0.5494,1.3449,2.0692,2.528
13.700000,1.2563,1.1364,1.5647,2.306
13.701000,1.8855,0.8660,1.1656,2.380
13.701000,2.4949,0.5605,0.7712,2.671
13.701000,3.0862,0.2099,0.4274,3.123
13.702000,3.7248,-0.1517,0.0664,3.728
13.702000,4.4297,-0.5098,-0.3072,4.470
13.702000,5.1198,-0.8572,-0.7364,5.243
13.708000,5.7617,-1.1934,-1.2445,6.014
13.712000,6.3761,-1.5092,-1.7366,6.779
13.717000,6.9540,-1.7822,-2.2481,7.522
13.723000,7.4953,-1.9713,-2.7542,8.225
13.727000,8.0195,-2.0640,-3.2373,8.891
13.732000,8.5222,-2.0715,-3.6871,9.514
13.737000,8.9762,-1.9895,-4.0424,10.043
13.743000,9.3820,-1.7910,-4.2817,10.467
13.747000,9.7826,-1.4978,-4.3904,10.827
13.752000,10.1703,-1.1605,-4.3233,11.112
13.831000,10.5256,-0.7967,-4.0403,11.303
13.831000,10.7861,-0.4355,-3.5691,11.370
13.832000,10.8960,-0.1285,-3.0305,11.310
13.832000,10.9060,0.1244,-2.5113,11.192
13.833000,10.8830,0.3517,-2.0311,11.076
13.833000,10.8725,0.5748,-1.6023,11.005
13.833000,10.8893,0.7869,-1.2371,10.988
13.834000,10.9347,0.9487,-0.9021,11.013
13.834000,11.0565,1.0486,-0.5281,11.119
13.834000,11.2137,1.1007,-0.1512,11.269
13.835000,11.3871,1.1430,0.1083,11.445
13.835000,11.5312,1.2022,0.2220,11.596
13.835000,11.6549,1.3326,0.2501,11.734
13.836000,11.7269,1.4961,0.2458,11.825
13.836000,11.7590,1.6785,0.2550,11.881
13.836000,11.7439,1.8508,0.3133,11.893
13.838000,11.7129,1.9771,0.4344,11.887
13.842000,11.6714,2.0840,0.5578,11.869
13.848000,11.6407,2.2331,0.6250,11.869
13.854000,11.5658,2.4076,0.5496,11.827
13.859000,11.4061,2.5859,0.3201,11.700
13.862000,11.1808,2.7898,-0.0126,11.524
13.867000,10.8878,3.0079,-0.3806,11.302
13.936000,10.5703,3.2068,-0.7500,11.072
13.937000,10.2241,3.4015,-1.0554,10.827
13.937000,9.8829,3.6019,-1.3256,10.602
13.938000,9.5707,3.8582,-1.5269,10.431
13.938000,9.2875,4.1703,-1.6881,10.320
13.938000,9.0259,4.5452,-1.8525,10.274
13.939000,8.8167,4.9466,-2.0103,10.307
13.939000,8.6357,5.3146,-2.1953,10.375
13.940000,8.4664,5.6636,-2.4073,10.467
13.940000,8.3465,5.9599,-2.5814,10.576
13.940000,8.2711,6.1723,-2.6941,10.666
13.941000,8.2015,6.2981,-2.7501,10.700
13.941000,8.1138,6.3660,-2.7808,10.681
13.941000,8.0199,6.3806,-2.7672,10.615
13.944000,7.8909,6.3128,-2.7912,10.484
13.948000,7.6861,6.1363,-2.8239,10.233
13.952000,7.4400,5.9019,-2.8654,9.919
13.958000,7.1500,5.6240,-2.9271,9.556
13.963000,6.8526,5.3268,-2.9395,9.164
13.967000,6.5981,5.0607,-2.9121,8.811
14.008000,6.3600,4.7963,-2.8143,8.448
14.008000,6.0770,4.4743,-2.6853,8.010
14.009000,5.7803,4.1330,-2.5371,7.545
14.009000,5.4918,3.7869,-2.3887,7.086
14.009000,5.2476,3.4744,-2.2070,6.669
14.010000,5.0283,3.1662,-2.0163,6.275
14.010000,4.8085,2.8534,-1.8816,5.900
14.011000,4.6264,2.5768,-1.7091,5.565
14.013000,4.4581,2.3504,-1.5325,5.268
14.018000,4.3107,2.1694,-1.3067,5.000
14.023000,4.1340,2.0404,-1.0657,4.732
14.028000,3.9370,1.9412,-0.8863,4.478
14.033000,3.6992,1.8774,-0.7829,4.222
14.039000,3.3940,1.8390,-0.6905,3.921
14.043000,3.0862,1.8211,-0.6330,3.639
14.048000,2.7520,1.7927,-0.5244,3.326
14.053000,2.4174,1.7796,-0.4177,3.031
14.058000,2.0741,1.7516,-0.3585,2.738
14.063000,1.7048,1.7014,-0.2578,2.422
14.068000,1.3408,1.6599,0.0042,2.134
14.075000,0.9489,1.6104,0.2735,1.889
14.079000,0.5527,1.5717,0.4523,1.726
14.084000,0.1151,1.5021,0.6625,1.646
14.124000,-0.2801,1.4542,0.8586,1.712
14.124000,-0.6163,1.4138,1.0363,1.858
14.125000,-0.9746,1.3401,1.3130,2.114
14.125000,-1.2665,1.2623,1.5565,2.371
14.125000,-1.5425,1.1651,1.7287,2.593
14.126000,-1.7394,1.0554,1.7746,2.700
14.126000,-1.8648,0.9038,1.7114,2.688
14.126000,-1.9332,0.7201,1.6231,2.625
14.128000,-1.9039,0.5715,1.4385,2.454
14.133000,-1.8327,0.4043,1.2204,2.239
14.139000,-1.7571,0.2082,1.0600,2.063
14.143000,-1.6894,-0.0105,0.8901,1.910
14.149000,-1.6487,-0.2636,0.7128,1.815
14.154000,-1.6255,-0.5416,0.5689,1.805
14.158000,-1.6127,-0.8286,0.5273,1.888
14.164000,-1.5954,-1.1256,0.5112,2.018
14.168000,-1.5929,-1.4309,0.4892,2.196
14.174000,-1.6338,-1.7612,0.4532,2.445
14.178000,-1.7083,-2.1354,0.4102,2.765
14.183000,-1.8116,-2.5444,0.3504,3.143
14.246000,-1.9455,-2.9884,0.2859,3.577
14.246000,-2.1029,-3.4770,0.2265,4.070
14.247000,-2.2883,-3.9759,0.1889,4.591
14.247000,-2.4131,-4.4652,0.1612,5.078
14.248000,-2.5492,-4.9564,0.1362,5.575
14.248000,-2.6823,-5.4471,0.1402,6.073
14.248000,-2.8025,-5.8994,0.1328,6.533
14.249000,-2.9316,-6.2801,0.1206,6.932
14.249000,-3.0505,-6.5815,0.0869,7.255
14.249000,-3.1425,-6.8489,0.0242,7.535
14.250000,-3.2173,-7.0850,-0.0418,7.781
14.250000,-3.3107,-7.2810,-0.0699,7.999
14.250000,-3.3775,-7.4468,-0.0509,8.177
14.253000,-3.4441,-7.5775,0.0008,8.324
14.259000,-3.4963,-7.6776,0.0663,8.436
14.263000,-3.4745,-7.7689,0.1574,8.512
14.268000,-3.4293,-7.8579,0.3089,8.579
14.274000,-3.3322,-7.9163,0.4875,8.603
14.279000,-3.2003,-7.9517,0.6580,8.597
14.283000,-3.0363,-7.9882,0.7685,8.580
14.291000,-2.8597,-8.0309,0.7718,8.560
14.293000,-2.6444,-8.0440,0.7451,8.500
14.298000,-2.3980,-8.0444,0.6945,8.423
14.304000,-2.1518,-8.0685,0.6325,8.374
14.376000,-1.9253,-8.1167,0.5163,8.358
14.377000,-1.7399,-8.1675,0.3365,8.358
14.378000,-1.5981,-8.2378,0.0906,8.392
14.378000,-1.3947,-8.2889,-0.0893,8.406
14.379000,-1.1322,-8.3813,-0.2231,8.460
14.379000,-0.8870,-8.4865,-0.4069,8.542
14.379000,-0.6663,-8.5568,-0.6240,8.605
14.380000,-0.4892,-8.6544,-0.8575,8.711
14.380000,-0.3176,-8.7386,-1.0280,8.805
14.380000,-0.1587,-8.8168,-1.1406,8.892
14.381000,0.0261,-8.9032,-1.2457,8.990
14.381000,0.2222,-8.9694,-1.3744,9.077
14.381000,0.4705,-9.0871,-1.5033,9.223
14.382000,0.7135,-9.2780,-1.6087,9.443
14.382000,0.9491,-9.5110,-1.6909,9.707
14.384000,1.1439,-9.7259,-1.8532,9.967
14.393000,1.3003,-9.8055,-2.0735,10.106
14.395000,1.4399,-9.7404,-2.2586,10.102
14.398000,1.5724,-9.5570,-2.5137,10.006
14.404000,1.6307,-9.3975,-2.7499,9.926
14.409000,1.6604,-9.2902,-2.9529,9.889
14.413000,1.6544,-9.2233,-3.1036,9.871
14.418000,1.7014,-9.1345,-3.2000,9.827
14.465000,1.7775,-8.9402,-3.4147,9.734
14.466000,1.7822,-8.8710,-3.4009,9.666
14.466000,1.8830,-8.5328,-3.6563,9.472
14.466000,1.9313,-7.7155,-4.4790,9.128
14.467000,1.8268,-7.2399,-4.8662,8.913
14.467000,1.6775,-6.7487,-5.2035,8.685
14.467000,1.5216,-6.2572,-5.4292,8.423
14.467000,1.4312,-5.7816,-5.6088,8.181
14.468000,1.3943,-5.3435,-5.7616,7.981
14.469000,1.4207,-4.9311,-5.8239,7.762
14.474000,1.5009,-4.5131,-5.7556,7.466
14.479000,1.5870,-4.0934,-5.5818,7.101
14.484000,1.7170,-3.6867,-5.3314,6.706
14.489000,1.8501,-3.2986,-5.0288,6.292
14.494000,2.0172,-2.9467,-4.6886,5.894
14.498000,2.1560,-2.6455,-4.3370,5.519
14.504000,2.2563,-2.3986,-4.0146,5.192
14.509000,2.3133,-2.1964,-3.6276,4.831
14.514000,2.3077,-2.0414,-3.1710,4.421
14.519000,2.2369,-1.9505,-2.6445,3.975
14.524000,2.0505,-1.9072,-2.0526,3.472
14.528000,1.7894,-1.8754,-1.4649,2.977
14.533000,1.4295,-1.8387,-0.9625,2.520
14.538000,0.9708,-1.8038,-0.5639,2.125
14.567000,0.4015,-1.8057,-0.2224,1.863
14.567000,-0.2448,-1.8273,0.1249,1.848
14.568000,-0.9465,-1.8914,0.5003,2.173
14.568000,-1.6294,-1.9761,0.9613,2.736
14.568000,-2.3265,-2.0687,1.4002,3.414
14.568000,-3.0211,-2.1396,1.8005,4.117
14.574000,-3.6913,-2.1813,2.1289,4.787
14.579000,-4.3539,-2.1978,2.3857,5.429
14.584000,-4.9990,-2.1910,2.6261,6.057
14.589000,-5.6191,-2.1557,2.7971,6.637
14.594000,-6.1637,-2.0983,2.8982,7.127
14.602000,-6.6447,-2.0332,2.9389,7.545
14.604000,-7.0643,-1.9317,2.9930,7.912
14.609000,-7.4224,-1.8268,2.9427,8.191
14.614000,-7.6780,-1.7283,2.7776,8.346
14.619000,-7.8188,-1.5998,2.4994,8.363
14.624000,-7.8162,-1.4248,2.0954,8.217
14.629000,-7.7322,-1.2202,1.6562,8.001
14.634000,-7.5957,-1.0218,1.1700,7.753
14.639000,-7.4692,-0.8402,0.7512,7.554
14.720000,-7.3020,-0.6750,0.3829,7.343
14.721000,-7.0800,-0.4979,0.0095,7.097
14.721000,-6.7600,-0.2899,-0.3259,6.774
14.722000,-6.3591,-0.0800,-0.6811,6.396
14.722000,-5.9325,0.1236,-1.1277,6.040
14.722000,-5.4854,0.3449,-1.5883,5.721
14.723000,-5.0706,0.5621,-1.9927,5.477
14.723000,-4.7026,0.7894,-2.3502,5.316
14.723000,-4.3500,1.0747,-2.6367,5.199
14.724000,-4.0303,1.3931,-2.7873,5.094
14.724000,-3.7314,1.7207,-2.8119,4.979
14.724000,-3.4410,2.0597,-2.7905,4.886
14.725000,-3.1499,2.4074,-2.7112,4.803
14.725000,-2.8916,2.7035,-2.5597,4.714
14.726000,-2.7044,2.9676,-2.3600,4.657
14.726000,-2.5480,3.2154,-2.0638,4.592
14.726000,-2.4106,3.4112,-1.6591,4.494
14.729000,-2.2587,3.5406,-1.2396,4.379
14.736000,-2.0949,3.6083,-0.8937,4.267
14.741000,-1.8830,3.6505,-0.6213,4.154
14.745000,-1.6598,3.6571,-0.4049,4.036
14.751000,-1.4418,3.6164,-0.2467,3.901
14.755000,-1.1982,3.5523,-0.1176,3.751
14.760000,-0.9554,3.4458,-0.0006,3.576
14.765000,-0.7059,3.2902,0.0851,3.366
14.771000,-0.4287,3.0681,0.1801,3.103
14.862000,-0.0996,2.8161,0.2484,2.829
14.863000,0.2887,2.5127,0.2470,2.541
14.864000,0.7313,2.1941,0.2047,2.322
14.864000,1.2258,1.8603,0.1240,2.231
14.864000,1.7342,1.5070,0.0337,2.298
14.865000,2.2250,1.1601,-0.0636,2.510
14.865000,2.7605,0.8512,-0.1798,2.894
14.865000,3.2807,0.5368,-0.2501,3.334
14.866000,3.7857,0.2075,-0.2461,3.799
14.866000,4.3284,-0.1056,-0.2283,4.336
14.866000,4.8435,-0.3985,-0.3520,4.873
14.867000,5.2859,-0.7139,-0.5430,5.361
14.867000,5.7322,-0.9846,-0.8584,5.879
14.867000,6.1320,-1.2344,-1.2208,6.373
14.868000,6.4785,-1.4365,-1.6488,6.838
14.868000,6.7233,-1.5742,-2.1097,7.220
14.869000,6.9170,-1.5845,-2.5501,7.540
14.869000,7.0643,-1.5033,-2.9117,7.787
14.869000,7.1603,-1.3401,-3.1608,7.941
14.870000,7.2790,-1.0857,-3.3141,8.071
14.875000,7.3892,-0.7882,-3.4174,8.179
14.881000,7.4733,-0.4771,-3.4660,8.252
14.886000,7.5198,-0.2167,-3.4053,8.258
14.892000,7.5195,0.0049,-3.2647,8.198
14.896000,7.4774,0.1807,-3.0927,8.094
14.899000,7.3893,0.3157,-2.8779,7.936
14.984000,7.2766,0.4311,-2.6399,7.753
14.985000,7.1777,0.5199,-2.3599,7.574
14.985000,7.1291,0.5417,-2.0716,7.444
14.986000,7.1523,0.5350,-1.7469,7.382
14.986000,7.2835,0.5119,-1.3740,7.430
14.986000,7.4765,0.4836,-0.9725,7.555
14.987000,7.6786,0.4668,-0.5835,7.715
14.987000,7.6984,0.5162,-0.2619,7.720
14.987000,7.9276,0.6172,0.1147,7.952
14.988000,8.0051,0.7481,0.5340,8.058
14.988000,8.0479,0.8844,0.9688,8.154
14.988000,8.0917,1.0116,1.3900,8.272
14.989000,8.1700,1.1197,1.6801,8.416
14.989000,8.2607,1.2181,1.8533,8.553
14.989000,8.2993,1.2926,1.8574,8.602
14.990000,8.2739,1.4127,1.6863,8.561
14.990000,8.1622,1.6141,1.4414,8.444
14.994000,7.9477,1.8946,1.1619,8.253
14.995000,7.6424,2.2398,0.8699,8.011
15.002000,7.2632,2.6214,0.6137,7.746
15.009000,6.8652,2.9986,0.4509,7.505
15.012000,6.4653,3.3665,0.3591,7.298
15.015000,6.1139,3.7301,0.3381,7.170
15.020000,5.8353,4.0510,0.3462,7.112
15.099000,5.6534,4.2860,0.3559,7.103
15.100000,5.5494,4.4544,0.2923,7.122
15.101000,5.5255,4.5993,0.1193,7.190
15.101000,5.5527,4.6990,-0.1409,7.276
15.101000,5.5756,4.7274,-0.4825,7.326
15.102000,5.5846,4.6942,-0.7756,7.337
15.102000,5.5993,4.6120,-1.0608,7.331
15.102000,5.6629,4.5048,-1.2619,7.345
15.103000,5.7683,4.3582,-1.4342,7.370
15.103000,5.9297,4.2273,-1.6518,7.467
15.103000,6.1083,4.1284,-1.8572,7.603
15.104000,6.2417,4.0230,-1.9850,7.687
15.104000,6.3226,3.9161,-2.0446,7.713
15.104000,6.3778,3.8436,-1.9791,7.705
15.104000,6.4070,3.7835,-1.8154,7.659
15.105000,6.3861,3.7211,-1.6234,7.567
15.111000,6.3223,3.6634,-1.4865,7.457
15.112000,6.2367,3.6150,-1.4019,7.344
15.116000,6.1082,3.6025,-1.3619,7.221
15.122000,5.9654,3.6137,-1.3875,7.111
15.127000,5.8606,3.6102,-1.2442,6.995
15.131000,5.7629,3.5368,-0.9878,6.833
15.136000,5.6336,3.4718,-0.7311,6.658
15.230000,5.4612,3.4179,-0.4722,6.460
15.230000,5.2218,3.4104,-0.2737,6.243
15.231000,4.8773,3.3895,-0.1903,5.942
15.232000,4.5070,3.3987,-0.1785,5.648
15.232000,4.1569,3.4334,-0.2216,5.396
15.233000,3.7980,3.4527,-0.2400,5.138
15.233000,3.4527,3.4740,-0.1385,4.900
15.233000,3.1206,3.4800,-0.0921,4.675
15.233000,2.8043,3.4229,-0.0749,4.426
15.234000,2.4969,3.3625,-0.0778,4.189
15.234000,2.2173,3.2889,-0.0576,3.967
15.235000,1.9472,3.2053,-0.0599,3.751
15.235000,1.6718,3.1304,-0.0077,3.549
15.235000,1.3840,3.0545,0.0460,3.354
15.236000,1.0746,2.9681,0.0912,3.158
15.236000,0.7505,2.8708,0.0708,2.968
15.236000,0.3984,2.7638,0.0854,2.794
15.236000,0.0732,2.6421,0.1803,2.649
15.237000,-0.2274,2.4912,0.3361,2.524
15.237000,-0.5151,2.3258,0.4494,2.424
15.243000,-0.8310,2.1500,0.5562,2.371
15.247000,-1.1404,1.9916,0.6445,2.384
15.251000,-1.4773,1.8356,0.7409,2.470
15.259000,-1.8341,1.6873,0.8049,2.619
15.263000,-2.2298,1.5086,0.8628,2.827
15.266000,-2.6043,1.3526,0.9219,3.076
15.271000,-2.9338,1.2334,0.9799,3.330
15.369000,-3.3444,1.0641,0.9745,3.642
15.370000,-3.7570,0.8806,1.0159,3.990
15.370000,-4.0733,0.7528,1.0869,4.283
15.370000,-4.3390,0.6283,1.0821,4.516
15.371000,-4.6283,0.4828,1.0515,4.771
15.371000,-4.8447,0.3326,1.0067,4.959
15.371000,-4.9648,0.1725,0.9189,5.052
15.372000,-5.0057,0.0096,0.8388,5.075
15.372000,-5.0296,-0.2088,0.7040,5.083
15.372000,-5.0248,-0.4613,0.6248,5.084
15.373000,-4.9407,-0.7202,0.5480,5.023
15.373000,-4.9644,-1.0077,0.4570,5.086
15.373000,-4.6006,-1.3643,0.4185,4.817
15.374000,-4.3688,-1.7948,0.4323,4.743
15.374000,-4.0752,-2.2751,0.4551,4.689
15.374000,-3.7750,-2.8151,0.4865,4.734
15.375000,-3.4990,-3.4398,0.4860,4.931
15.375000,-3.2569,-4.0726,0.4345,5.233
15.375000,-3.0558,-4.7083,0.3037,5.621
15.376000,-2.8789,-5.3198,0.1610,6.051
15.376000,-2.6927,-5.8758,-0.0054,6.463
15.381000,-2.4805,-6.3985,-0.1800,6.865
15.386000,-2.2400,-6.8662,-0.3580,7.231
15.476000,-1.8996,-7.2787,-0.4961,7.539
15.478000,-1.4475,-7.5948,-0.5802,7.753
15.479000,-0.9078,-7.8512,-0.5794,7.925
15.479000,-0.2977,-8.0529,-0.4860,8.073
15.480000,0.3587,-8.1939,-0.2836,8.207
15.481000,1.0181,-8.2728,-0.0611,8.335
15.481000,1.6324,-8.2906,0.1674,8.451
15.482000,2.1872,-8.2582,0.3588,8.550
15.482000,2.6297,-8.2358,0.4465,8.657
15.483000,3.0316,-8.1952,0.5585,8.756
15.483000,3.3446,-8.1705,0.6428,8.852
15.483000,3.5518,-8.1648,0.6884,8.930
15.484000,3.6506,-8.1924,0.7535,9.001
15.484000,3.6604,-8.2104,0.7113,9.017
15.484000,3.6405,-8.1922,0.5441,8.981
15.485000,3.6027,-8.1885,0.3316,8.952
15.486000,3.5682,-8.2399,0.1081,8.980
15.486000,3.5010,-8.3751,-0.1047,9.078
15.487000,3.3822,-8.6033,-0.3405,9.251
15.487000,3.2452,-8.9091,-0.6036,9.501
15.537000,3.0949,-9.2105,-0.9083,9.759
15.538000,2.9579,-9.4323,-1.2093,9.959
15.538000,2.8653,-9.5122,-1.5353,10.052
15.539000,2.8123,-9.4720,-1.8387,10.050
15.539000,2.7489,-9.3694,-2.1158,9.991
15.539000,2.6300,-9.2935,-2.3676,9.944
15.539000,2.4750,-9.2585,-2.5710,9.923
15.540000,2.2628,-9.2547,-2.7605,9.919
15.540000,2.0272,-9.2293,-3.0037,9.915
15.540000,1.7277,-9.1580,-3.3630,9.908
15.542000,1.4053,-8.9855,-3.7406,9.834
15.547000,1.0816,-8.7117,-4.0578,9.671
15.552000,0.7615,-8.3249,-4.4559,9.473
15.558000,0.4473,-7.8611,-4.8321,9.238
15.562000,0.1536,-7.3587,-5.0789,8.943
15.566000,-0.0933,-6.8591,-5.2574,8.643
15.571000,-0.2717,-6.3936,-5.2962,8.307
15.660000,-0.3555,-6.0059,-5.1701,7.933
15.661000,-0.3686,-5.7156,-4.9591,7.576
15.661000,-0.3083,-5.5274,-4.6763,7.247
15.661000,-0.1725,-5.3870,-4.2959,6.892
15.662000,-0.0117,-5.2662,-3.8510,6.524
15.662000,0.1377,-5.1347,-3.3624,6.139
15.663000,0.1965,-4.9811,-2.7961,5.716
15.663000,0.1720,-4.8488,-2.2118,5.332
15.663000,0.0759,-4.7599,-1.6353,5.034
15.664000,-0.0942,-4.7286,-1.0232,4.839
15.664000,-0.3074,-4.7190,-0.3967,4.746
15.664000,-0.5612,-4.7407,0.2019,4.778
15.665000,-0.8942,-4.7792,0.7376,4.918
15.665000,-1.3135,-4.8366,1.2323,5.161
15.665000,-1.7998,-4.9005,1.7203,5.497
15.666000,-2.3484,-4.9609,2.1922,5.910
15.666000,-2.9423,-5.0003,2.5598,6.341
15.667000,-3.5741,-5.0324,2.8333,6.792
15.667000,-4.2008,-5.0495,3.0227,7.231
15.674000,-4.8270,-5.0342,3.1212,7.641
15.678000,-5.4431,-5.0172,3.1482,8.044
15.682000,-6.0131,-4.9885,3.1158,8.411
15.687000,-6.5966,-4.9808,3.0072,8.796
15.694000,-7.1740,-4.9312,2.8005,9.145
15.698000,-7.6591,-4.8538,2.5099,9.409
15.702000,-8.0493,-4.7646,2.1998,9.609
15.792000,-8.2605,-4.6060,1.7928,9.626
15.793000,-8.3263,-4.3830,1.3000,9.499
15.793000,-8.3184,-4.1081,0.8047,9.312
15.794000,-8.2606,-3.7838,0.3183,9.091
15.794000,-8.1983,-3.4489,-0.1622,8.896
15.795000,-8.1219,-3.1033,-0.6081,8.716
15.795000,-8.0004,-2.7402,-0.9570,8.511
15.795000,-7.8240,-2.3934,-1.1999,8.269
15.796000,-7.6094,-2.0292,-1.4454,8.007
15.796000,-7.3877,-1.6628,-1.7344,7.769
15.797000,-7.1372,-1.3060,-1.9378,7.510
15.797000,-6.8483,-0.9589,-2.0868,7.223
15.797000,-6.4806,-0.6363,-2.2172,6.879
15.798000,-6.0893,-0.3311,-2.3045,6.519
15.798000,-5.6512,-0.0066,-2.4006,6.140
15.798000,-5.1930,0.3370,-2.4524,5.753
15.799000,-4.7866,0.6630,-2.5122,5.446
15.799000,-4.4443,0.9762,-2.5631,5.223
