time,ax,ay,az,aT
0.004000,-0.6803,0.0874,-0.2853,0.743
0.004000,-0.5256,0.0253,-0.2715,0.592
0.004000,-0.3458,-0.0361,-0.1908,0.397
0.011000,-0.1948,-0.0994,-0.0744,0.231
0.014000,-0.0884,-0.1505,0.0396,0.179
0.017000,-0.0022,-0.1565,0.0987,0.185
0.091000,0.0496,-0.1341,0.0934,0.171
0.092000,0.0698,-0.0859,0.0597,0.126
0.092000,0.0493,-0.0453,0.0238,0.071
0.092000,-0.0232,-0.0240,-0.0144,0.036
0.092000,-0.1211,-0.0387,-0.0908,0.156
0.093000,-0.2251,-0.0701,-0.1456,0.277
0.093000,-0.3252,-0.0702,-0.2055,0.391
0.093000,-0.3738,-0.0196,-0.2607,0.456
0.093000,-0.3663,0.0503,-0.2899,0.470
0.093000,-0.3394,0.1180,-0.2928,0.463
0.093000,-0.3004,0.1619,-0.2910,0.448
0.094000,-0.2708,0.1461,-0.2870,0.421
0.094000,-0.2604,0.0921,-0.3188,0.422
0.094000,-0.2237,0.0311,-0.3769,0.439
0.094000,-0.1868,-0.0127,-0.4376,0.476
0.106000,-0.1638,-0.0273,-0.4841,0.512
0.107000,-0.1449,0.0015,-0.5068,0.527
0.120000,-0.1371,0.0473,-0.4795,0.501
0.120000,-0.1620,0.0955,-0.4117,0.453
0.120000,-0.1929,0.1361,-0.3366,0.411
0.131000,-0.2282,0.1617,-0.3116,0.419
0.131000,-0.2579,0.1677,-0.3223,0.446
0.133000,-0.2962,0.1494,-0.3854,0.508
0.215000,-0.3450,0.1334,-0.4580,0.589
0.215000,-0.3941,0.1248,-0.5212,0.665
0.216000,-0.4411,0.1550,-0.5488,0.721
0.216000,-0.4625,0.2404,-0.5861,0.784
0.217000,-0.4754,0.3309,-0.6355,0.860
0.217000,-0.4879,0.4073,-0.6875,0.936
0.217000,-0.4983,0.4771,-0.7348,1.008
0.218000,-0.5258,0.5261,-0.7394,1.049
0.219000,-0.5566,0.5590,-0.7179,1.067
0.220000,-0.5714,0.5903,-0.6728,1.062
0.220000,-0.5991,0.6031,-0.6018,1.042
0.220000,-0.6441,0.6021,-0.5238,1.026
0.221000,-0.7185,0.5633,-0.5154,1.048
0.221000,-0.7791,0.5227,-0.5502,1.088
0.221000,-0.7709,0.5449,-0.5757,1.106
0.222000,-0.7176,0.6015,-0.5824,1.103
0.223000,-0.6547,0.6731,-0.5727,1.100
0.223000,-0.5898,0.7236,-0.5177,1.067
0.230000,-0.5058,0.7338,-0.3840,0.970
0.234000,-0.5868,0.5214,-0.2456,0.823
0.241000,-0.5269,0.4977,-0.0759,0.729
0.243000,-0.3570,0.6021,0.0869,0.705
0.248000,-0.1394,0.7266,0.1880,0.763
0.257000,0.0182,0.8040,0.2036,0.830
0.259000,0.0823,0.7990,0.1241,0.813
0.263000,0.0763,0.7260,0.0261,0.731
0.268000,0.0598,0.6478,-0.0715,0.654
0.340000,0.0404,0.5764,-0.1544,0.598
0.341000,0.0256,0.5457,-0.2611,0.605
0.341000,0.0344,0.5512,-0.3701,0.665
0.341000,0.0670,0.5860,-0.4649,0.751
0.341000,0.0918,0.6452,-0.5382,0.845
0.342000,0.0973,0.6904,-0.5758,0.904
0.342000,0.1053,0.7386,-0.5873,0.949
0.342000,0.0872,0.7801,-0.5871,0.980
0.343000,0.0764,0.8246,-0.5871,1.015
0.343000,0.0559,0.8622,-0.5800,1.041
0.343000,0.0141,0.8905,-0.5707,1.058
0.343000,-0.0369,0.9049,-0.5496,1.059
0.344000,-0.1090,0.9076,-0.5239,1.054
0.344000,-0.2023,0.9108,-0.4864,1.052
0.344000,-0.3146,0.9263,-0.4443,1.074
0.349000,-0.4294,0.9419,-0.4023,1.111
0.357000,-0.5541,0.9671,-0.3795,1.177
0.358000,-0.6748,0.9995,-0.3184,1.247
0.364000,-0.7864,1.0077,-0.2357,1.300
0.369000,-0.8550,1.0060,-0.1672,1.331
0.382000,-0.8952,0.9822,-0.1393,1.336
0.383000,-0.8926,0.9531,-0.1302,1.312
0.383000,-0.8494,0.9066,-0.0969,1.246
0.389000,-0.7703,0.8283,-0.0825,1.134
0.394000,-0.6575,0.7709,-0.0964,1.018
0.398000,-0.5204,0.7274,-0.1172,0.902
0.468000,-0.3906,0.7193,-0.1521,0.833
0.469000,-0.2637,0.7467,-0.2034,0.818
0.469000,-0.1664,0.7714,-0.2594,0.831
0.469000,-0.1136,0.7957,-0.3104,0.862
0.469000,-0.0860,0.7839,-0.3684,0.870
0.469000,-0.0884,0.7432,-0.4406,0.869
0.470000,-0.1060,0.6931,-0.5247,0.876
0.470000,-0.1480,0.6456,-0.6017,0.895
0.470000,-0.1879,0.6104,-0.6595,0.918
0.470000,-0.2039,0.5995,-0.7173,0.957
0.471000,-0.2009,0.6032,-0.7418,0.977
0.471000,-0.2048,0.6024,-0.7280,0.967
0.471000,-0.2226,0.6042,-0.7071,0.956
0.471000,-0.2541,0.5895,-0.7031,0.952
0.481000,-0.2590,0.5963,-0.7325,0.979
0.482000,-0.2160,0.6271,-0.7906,1.032
0.484000,-0.1109,0.6724,-0.8176,1.064
0.493000,0.0372,0.7252,-0.7897,1.073
0.494000,0.1854,0.7634,-0.7068,1.057
0.498000,0.3195,0.7655,-0.6047,1.026
0.563000,0.4250,0.7477,-0.5311,1.011
0.563000,0.5043,0.7267,-0.4668,1.000
0.563000,0.5812,0.7115,-0.4069,1.005
0.563000,0.6531,0.7045,-0.3655,1.028
0.564000,0.7249,0.6863,-0.3833,1.069
0.564000,0.7721,0.6643,-0.4675,1.121
0.564000,0.7923,0.6337,-0.6395,1.199
0.565000,0.8045,0.6046,-0.8611,1.324
0.565000,0.8060,0.5774,-1.1134,1.491
0.565000,0.8187,0.5669,-1.3701,1.694
0.565000,0.8381,0.5734,-1.6027,1.897
0.566000,0.9004,0.5926,-1.7803,2.081
0.566000,0.9751,0.5982,-1.9030,2.220
0.575000,1.0702,0.6049,-1.9853,2.335
0.576000,1.1723,0.6128,-2.0249,2.419
0.590000,1.2654,0.6221,-2.0338,2.475
0.591000,1.3073,0.6548,-2.0098,2.485
0.591000,1.2987,0.6989,-1.9434,2.440
0.649000,1.2542,0.7694,-1.8086,2.332
0.649000,1.2048,0.8544,-1.5982,2.176
0.650000,1.1262,0.9495,-1.3674,2.010
0.650000,1.0080,1.0763,-1.1045,1.842
0.650000,0.8774,1.1942,-0.7615,1.666
0.651000,0.7167,1.2911,-0.3602,1.520
0.651000,0.5688,1.3877,0.0734,1.502
0.651000,0.5306,1.4713,0.5466,1.657
0.652000,0.5652,1.4837,1.0668,1.913
0.652000,0.6702,1.4476,1.5531,2.226
0.652000,0.8099,1.3788,1.9436,2.517
0.652000,0.9392,1.3056,2.1981,2.724
0.661000,1.0576,1.2535,2.3121,2.835
0.662000,1.1911,1.2485,2.2619,2.845
0.663000,1.3130,1.2690,2.1553,2.825
0.674000,1.4164,1.2812,2.0091,2.772
0.675000,1.4878,1.2470,1.7517,2.615
0.680000,1.5181,1.1740,1.3282,2.334
0.685000,1.5247,1.0889,0.7720,2.026
0.689000,1.5368,1.0362,0.1284,1.858
0.696000,1.5746,1.0387,-0.5121,1.955
0.700000,1.6461,1.1217,-1.1069,2.279
0.747000,1.7351,1.2409,-1.6182,2.677
0.748000,1.8174,1.3921,-1.9914,3.034
0.748000,1.9047,1.5446,-2.1669,3.272
0.748000,1.9581,1.6525,-2.1305,3.332
0.748000,1.9918,1.7178,-1.9302,3.263
0.749000,2.0033,1.7348,-1.6424,3.118
0.749000,2.0575,1.6642,-1.3839,2.986
0.749000,2.1496,1.5129,-1.2453,2.909
0.749000,2.1748,1.3767,-1.2816,2.875
0.750000,2.1893,1.3017,-1.5429,2.978
0.761000,2.2249,1.2267,-1.9647,3.212
0.761000,2.0898,1.2434,-1.8131,3.033
0.763000,1.9857,1.3389,-1.4446,2.797
0.768000,1.9212,1.5026,-1.0360,2.650
0.774000,1.7666,1.6352,-0.7424,2.519
0.778000,1.5199,1.7067,-0.5395,2.348
0.784000,1.2253,1.7094,-0.5012,2.162
0.805000,0.9389,1.6906,-0.5818,2.019
0.805000,0.6749,1.6825,-0.7551,1.964
0.806000,0.4621,1.7215,-0.9543,2.022
0.806000,0.3393,1.7920,-1.1772,2.171
0.808000,0.2514,1.8947,-1.3763,2.355
0.814000,0.1693,1.9683,-1.6067,2.546
0.819000,0.1037,2.0247,-1.8064,2.715
0.824000,0.0126,2.0812,-1.9540,2.855
0.830000,-0.0671,2.1737,-2.0543,2.992
0.835000,-0.0929,2.2713,-2.0429,3.056
0.840000,-0.0359,2.3836,-1.9079,3.053
0.843000,0.1129,2.4749,-1.6445,2.974
0.848000,0.3469,2.4724,-1.4031,2.864
0.854000,0.5912,2.3095,-1.3510,2.740
0.858000,0.8014,2.0389,-1.4043,2.602
0.863000,0.9972,1.7448,-1.4718,2.491
0.869000,1.1643,1.4945,-1.6112,2.487
0.877000,1.3422,1.3328,-1.7599,2.584
0.880000,1.7244,1.2433,-1.9397,2.878
0.885000,2.1440,1.1419,-2.3416,3.374
0.889000,2.5489,1.2706,-2.6544,3.893
0.897000,2.8670,1.4625,-2.7803,4.253
0.898000,3.1008,1.7380,-2.7196,4.476
0.955000,3.2156,1.9410,-2.5630,4.547
0.956000,3.1756,2.0504,-2.5235,4.545
0.956000,3.0158,2.0086,-2.6269,4.475
0.956000,2.8867,2.0022,-2.5714,4.354
0.957000,2.5966,1.7330,-2.9331,4.283
0.957000,2.4358,1.6427,-2.9528,4.165
0.957000,2.1158,1.2420,-3.0086,3.882
0.958000,1.9671,0.9852,-2.7674,3.535
0.958000,1.7074,0.5492,-2.6597,3.208
0.959000,1.4256,0.1344,-2.3715,2.770
0.959000,1.0684,-0.3285,-2.0866,2.367
0.959000,0.6991,-0.7585,-1.8929,2.156
0.964000,0.2203,-1.1750,-1.9997,2.330
0.969000,-0.3577,-1.2429,-2.2665,2.610
0.974000,-0.7380,-1.0714,-2.7868,3.076
0.980000,-0.9453,-0.7238,-1.9538,2.288
0.985000,-1.4042,-0.3360,0.6596,1.587
0.989000,-2.3381,-0.1167,4.2847,4.883
0.993000,-3.5778,-0.3512,7.1628,8.014
0.999000,-4.5943,-0.8179,8.9960,10.134
1.050000,-5.0130,-1.1153,9.4117,10.722
1.051000,-4.8729,-1.0740,8.3772,9.751
1.051000,-4.2512,-0.7902,6.1753,7.539
1.052000,-3.5807,-0.4806,3.7176,5.184
1.052000,-3.2045,-0.2351,1.6610,3.617
1.052000,-3.1043,-0.1967,0.1547,3.114
1.053000,-3.1235,-0.2086,-0.6451,3.196
1.053000,-3.1915,-0.2359,-0.7899,3.296
1.053000,-3.3338,-0.3728,-0.6418,3.415
1.054000,-3.5405,-0.6514,-0.4000,3.622
1.054000,-3.7518,-0.9624,-0.1581,3.876
1.060000,-3.9192,-1.2607,0.0191,4.117
1.064000,-3.9277,-1.5051,0.0240,4.206
1.069000,-3.8167,-1.7134,-0.1035,4.185
1.074000,-3.6432,-1.8970,-0.3133,4.119
1.080000,-3.3115,-1.9912,-0.5552,3.904
1.085000,-2.0050,-1.8677,-1.2163,2.998
1.089000,-0.8154,-1.9141,-1.9744,2.868
1.094000,-0.3186,-2.3098,-2.5667,3.468
1.100000,-0.0917,-2.7993,-2.8836,4.020
1.160000,0.0468,-3.2366,-3.0101,4.420
1.160000,-0.0809,-3.6822,-2.8828,4.677
1.161000,-0.4968,-4.1653,-2.5797,4.925
1.161000,-0.9483,-4.5592,-2.2403,5.168
1.162000,-1.3867,-4.7745,-1.9686,5.347
1.162000,-1.7832,-4.8394,-1.8503,5.479
1.162000,-2.1431,-4.8299,-1.8826,5.609
1.163000,-2.4457,-4.8338,-2.0263,5.784
1.163000,-2.6783,-4.9193,-2.2082,6.021
1.164000,-2.8185,-5.0518,-2.3410,6.241
1.164000,-3.0162,-5.2489,-2.0630,6.396
1.164000,-3.6267,-5.5350,-1.3335,6.750
1.165000,-4.6743,-5.7559,-1.0483,7.489
1.171000,-5.8681,-5.7389,-1.1017,8.281
1.175000,-6.9384,-5.5940,-1.3192,9.010
1.181000,-6.8267,-5.5946,-1.6117,8.972
1.185000,-7.6906,-5.6777,-1.9383,9.754
1.191000,-7.8728,-5.7356,-1.9429,9.932
1.194000,-6.1175,-5.8109,-1.1366,8.514
1.200000,-4.7059,-5.9437,0.0985,7.582
1.206000,-3.2666,-6.0582,0.9749,6.951
1.209000,-2.0580,-6.1432,1.4047,6.629
1.214000,-1.1888,-6.2292,1.5920,6.538
1.291000,-0.5691,-6.2489,1.6115,6.478
1.292000,-0.0843,-6.1969,1.4229,6.359
1.292000,0.2687,-6.0768,1.1102,6.183
1.292000,0.4804,-5.9534,0.7951,6.025
1.293000,0.5765,-5.8639,0.5517,5.918
1.293000,0.5918,-5.8437,0.4227,5.889
1.293000,0.6231,-5.8233,0.3477,5.867
1.293000,0.5207,-5.8170,0.2571,5.846
1.294000,0.0992,-5.9006,0.0866,5.902
1.294000,-0.7038,-6.0978,-0.0879,6.139
1.294000,-1.7127,-6.2777,-0.2324,6.511
1.295000,-2.6446,-6.2958,-0.2249,6.832
1.295000,-3.3185,-5.9535,0.2523,6.821
1.295000,-3.4312,-5.3479,0.5721,6.380
1.296000,-3.2330,-4.8388,0.8966,5.888
1.296000,-2.7890,-4.6945,1.4271,5.644
1.301000,-2.7335,-4.8936,2.1479,6.003
1.307000,-1.3930,-5.1093,3.0980,6.135
1.311000,-0.4388,-5.0550,4.1481,6.554
1.315000,0.6415,-4.6254,4.8279,6.717
1.322000,1.6188,-3.8757,4.8713,6.432
1.325000,2.4738,-3.4768,4.2133,5.997
1.329000,2.7948,-2.9983,3.3113,5.269
1.334000,2.7449,-2.6660,2.8075,4.746
1.384000,2.4586,-2.5456,2.2018,4.168
1.385000,2.2835,-2.4003,1.6972,3.722
1.385000,2.2099,-2.1526,0.8400,3.197
1.386000,2.3460,-2.0010,1.0728,3.265
1.386000,2.2324,-1.8496,0.8887,3.032
1.386000,2.1818,-1.6142,0.7022,2.803
1.387000,2.1010,-1.3197,0.3035,2.500
1.387000,1.9219,-1.0282,-0.2067,2.189
1.387000,1.7738,-0.7484,-0.6457,2.031
1.388000,1.7710,-0.4684,-0.9345,2.056
1.390000,2.2439,0.0721,-1.0684,2.486
1.395000,2.6831,0.4076,-0.8993,2.859
1.401000,2.8788,0.4534,-0.6924,2.995
1.405000,3.0389,0.4402,-0.5501,3.119
1.411000,3.2170,0.4735,-0.4366,3.281
1.415000,3.3676,0.5846,-0.3255,3.433
1.421000,3.4977,0.8019,-0.2715,3.599
1.425000,3.6879,1.1398,-0.2791,3.870
1.430000,3.9361,1.5280,-0.3205,4.234
1.434000,4.2296,1.9618,-0.3643,4.677
1.503000,4.4817,2.3787,-0.4224,5.091
1.504000,4.6579,2.7663,-0.4760,5.438
1.504000,4.6686,3.0958,-0.5461,5.628
1.504000,4.5671,3.3645,-0.6359,5.708
1.505000,4.3388,3.5724,-0.7737,5.673
1.505000,3.9657,3.6890,-0.9426,5.498
1.506000,3.4845,3.6713,-1.1234,5.185
1.506000,3.0445,3.6183,-1.3515,4.918
1.506000,2.6370,3.5140,-1.6474,4.692
1.507000,2.2514,3.3540,-1.9158,4.471
1.507000,1.8942,3.1889,-2.0170,4.222
1.508000,1.6749,3.0832,-2.0082,4.043
1.508000,1.7033,3.1060,-1.7776,3.963
1.509000,1.7658,3.1642,-1.5959,3.959
1.510000,1.8501,3.1816,-1.5054,3.976
1.516000,2.2079,3.1741,-1.2288,4.057
1.521000,2.7118,3.1501,-0.7780,4.229
1.525000,3.3591,3.1490,-0.2562,4.611
1.531000,4.4690,3.4223,0.1837,5.632
1.536000,5.2402,3.7768,0.5603,6.484
1.541000,4.9361,3.8656,0.8947,6.333
1.545000,4.0576,3.7640,1.3115,5.688
1.551000,3.0342,3.5735,1.7234,4.995
1.603000,1.7951,3.4340,1.8563,4.297
1.604000,0.3567,3.3944,1.7230,3.823
1.604000,-0.9088,3.3906,1.7992,3.945
1.605000,-1.6691,3.2920,2.1406,4.267
1.605000,-2.1063,3.1704,2.3208,4.458
1.605000,-2.0710,3.1387,2.3147,4.416
1.606000,-1.5917,3.0960,2.3439,4.197
1.606000,-0.7851,2.9367,2.3690,3.854
1.606000,0.1913,2.6588,2.4684,3.633
1.607000,1.1140,2.2622,2.5206,3.565
1.607000,1.9641,1.7972,2.4659,3.629
1.610000,2.7707,1.3431,2.1972,3.783
1.616000,3.5406,1.1272,1.4148,3.976
1.621000,4.2737,1.0553,0.6468,4.449
1.626000,4.9014,0.9743,0.1060,4.998
1.632000,5.4285,0.9653,-0.4850,5.535
1.639000,5.8766,1.0711,-1.1705,6.087
1.640000,6.2068,1.2911,-1.7281,6.571
1.645000,6.4498,1.4089,-1.7871,6.840
1.650000,6.7454,1.3655,-1.8413,7.124
1.718000,6.7008,1.2286,-2.1658,7.149
1.719000,6.2267,1.0563,-2.4657,6.780
1.720000,5.5030,1.1113,-2.8126,6.279
1.720000,4.7669,1.7049,-3.3579,6.075
1.720000,3.9070,2.5016,-3.7334,5.955
1.721000,2.8663,3.0450,-3.5415,5.480
1.721000,1.8113,3.3844,-3.0232,4.886
1.721000,0.8987,3.7273,-2.4485,4.549
1.722000,0.2840,3.8901,-0.8133,3.984
1.722000,0.5027,3.5953,1.0992,3.793
1.722000,1.7709,2.8983,2.6105,4.284
1.723000,3.1752,2.1961,3.3853,5.135
1.723000,4.3571,1.8124,3.4840,5.866
1.723000,5.2594,1.8139,3.0236,6.332
1.727000,5.8817,2.0584,2.1967,6.607
1.732000,6.2481,2.3188,1.1807,6.768
1.736000,6.5151,2.4550,0.1341,6.964
1.740000,6.8698,2.4584,-0.7953,7.340
1.746000,7.2457,2.4110,-1.5679,7.796
1.750000,7.5495,2.3133,-2.1562,8.185
1.758000,7.9801,2.1229,-2.5969,8.656
1.762000,8.3523,1.9111,-2.8761,9.038
1.765000,8.3783,1.7849,-3.0682,9.099
1.772000,8.1922,1.7943,-3.1363,8.954
1.776000,7.8251,1.9491,-3.1442,8.655
1.780000,7.5621,2.2203,-3.1426,8.485
1.843000,7.5560,2.5670,-3.2284,8.608
1.844000,7.5262,2.9548,-3.3213,8.741
1.844000,7.4462,3.3330,-3.3748,8.829
1.844000,7.3753,3.6386,-3.3328,8.874
1.845000,7.1293,3.8786,-3.2483,8.742
1.845000,6.6963,4.0840,-3.1573,8.455
1.846000,6.1966,4.2410,-3.0885,8.119
1.846000,5.6045,4.3645,-3.0011,7.711
1.846000,5.0138,4.5029,-2.9528,7.358
1.847000,4.3940,4.6614,-2.9504,7.053
1.847000,3.8245,4.7974,-2.9418,6.804
1.848000,3.3722,4.9037,-2.9225,6.630
1.848000,2.8870,4.9809,-2.9586,6.473
1.852000,2.7925,5.0220,-3.0085,6.486
1.857000,3.1217,5.0004,-3.2049,6.710
1.861000,3.7369,4.9249,-3.5814,7.145
1.866000,4.4451,4.7560,-4.0002,7.641
1.873000,5.0180,4.4996,-4.3568,8.026
1.878000,5.4600,4.1867,-4.5658,8.258
1.881000,5.7279,3.8238,-4.6529,8.311
1.956000,5.7454,3.4183,-4.6753,8.158
1.957000,5.6234,3.0090,-4.5423,7.830
1.957000,5.3889,2.5914,-4.3893,7.418
1.958000,5.1319,2.1859,-4.1387,6.946
1.958000,4.8741,1.8045,-3.9737,6.542
1.959000,4.4605,1.5865,-4.6822,6.659
1.959000,4.0012,1.3002,-4.7229,6.325
1.960000,3.8392,0.8963,-3.8526,5.512
1.960000,3.7764,0.5589,-3.0305,4.874
1.960000,3.5305,0.3245,-2.7918,4.513
1.961000,3.2089,0.1182,-2.6824,4.184
1.961000,2.9192,0.0048,-2.4873,3.835
1.961000,2.6997,0.0730,-2.5940,3.745
1.961000,2.6172,0.2002,-2.4368,3.582
1.962000,2.8345,0.3487,-2.1453,3.572
1.962000,3.3335,0.5311,-1.9980,3.923
1.967000,3.9287,0.6855,-1.9987,4.461
1.972000,4.3984,0.7645,-2.2214,4.987
1.977000,4.6272,0.7902,-2.5269,5.331
1.981000,4.5549,0.7424,-2.8534,5.426
1.989000,4.2071,0.6057,-2.7782,5.078
1.994000,3.5610,0.4334,-2.8367,4.573
1.997000,2.8068,0.2055,-2.5100,3.771
2.000000,2.0129,-0.0285,-2.3101,3.064
2.065000,1.2541,-0.2817,-2.0428,2.414
2.065000,0.5642,-0.5228,-1.8114,1.968
2.066000,-0.0512,-0.7616,-1.5346,1.714
2.066000,-0.5825,-0.9933,-1.2107,1.671
2.066000,-1.0201,-1.2031,-0.8486,1.791
2.067000,-1.3449,-1.3764,-0.4563,1.978
2.067000,-1.5836,-1.5401,-0.0949,2.211
2.067000,-1.7668,-1.6930,0.2110,2.456
2.067000,-1.9141,-1.8356,0.5113,2.701
2.068000,-2.0064,-1.9443,0.7047,2.881
2.068000,-2.0271,-2.0094,0.7241,2.945
2.068000,-2.0146,-2.0743,0.5629,2.946
2.069000,-2.0218,-2.1614,0.2818,2.973
2.076000,-2.0365,-2.2573,0.0064,3.040
2.077000,-2.0013,-2.3531,-0.2347,3.098
2.082000,-1.8949,-2.4535,-0.4341,3.130
2.090000,-1.7675,-2.5637,-0.6445,3.180
2.094000,-1.6241,-2.6893,-0.8301,3.249
2.098000,-1.4813,-2.8148,-0.9878,3.331
2.102000,-1.3606,-2.9439,-1.0889,3.421
2.157000,-1.3004,-3.0982,-1.1118,3.539
2.158000,-1.2981,-3.2563,-1.0713,3.666
2.158000,-1.3582,-3.4324,-0.9580,3.814
2.159000,-1.4926,-3.6461,-0.7986,4.020
2.159000,-1.6959,-3.8976,-0.6142,4.295
2.159000,-1.9488,-4.2179,-0.4195,4.665
2.160000,-2.2416,-4.5677,-0.2312,5.093
2.160000,-2.5501,-4.9196,-0.0708,5.542
2.160000,-2.8840,-5.2590,0.0357,5.998
2.161000,-3.1739,-5.5408,0.1140,6.386
2.161000,-3.4248,-5.7436,0.1783,6.690
2.161000,-3.6106,-5.8937,0.2195,6.915
2.168000,-3.7602,-6.0267,0.2448,7.108
2.172000,-3.8665,-6.1525,0.2402,7.271
2.178000,-3.9345,-6.2858,0.2363,7.419
2.182000,-3.9525,-6.4277,0.2344,7.549
2.186000,-3.9375,-6.6100,0.2103,7.697
2.192000,-3.8847,-6.8349,0.1665,7.863
2.197000,-3.7873,-7.0663,0.0939,8.018
2.207000,-3.6452,-7.3023,-0.0153,8.162
2.208000,-3.4687,-7.5252,-0.1284,8.287
2.212000,-3.2720,-7.7308,-0.2455,8.398
2.217000,-3.0387,-7.9170,-0.3662,8.488
2.271000,-2.7667,-8.0627,-0.5097,8.539
2.272000,-2.4774,-8.1635,-0.6568,8.556
2.272000,-2.1804,-8.2537,-0.8487,8.579
2.273000,-1.8810,-8.3330,-1.1172,8.615
2.273000,-1.5649,-8.4331,-1.4336,8.696
2.273000,-1.2565,-8.5802,-1.7780,8.852
2.273000,-0.9610,-8.7884,-2.1542,9.099
2.274000,-0.7385,-9.0598,-2.5781,9.448
2.274000,-0.6356,-9.3384,-3.0185,9.835
2.274000,-0.6095,-9.6070,-3.4244,10.217
2.274000,-0.6845,-9.8290,-3.7476,10.541
2.280000,-0.8157,-10.0160,-4.0327,10.828
2.282000,-0.9244,-10.0981,-4.3030,11.016
2.290000,-0.9727,-10.1180,-4.5226,11.125
2.294000,-0.9702,-10.1022,-4.6867,11.179
2.297000,-0.8929,-10.0745,-4.8126,11.201
2.302000,-0.7190,-10.0401,-4.8747,11.184
2.310000,-0.3718,-10.0233,-4.8667,11.149
2.311000,0.0632,-10.0345,-4.8256,11.135
2.317000,0.4668,-10.0582,-4.8056,11.157
2.379000,0.7321,-10.0491,-4.8168,11.168
2.380000,0.8884,-9.9667,-4.8721,11.129
2.380000,0.9481,-9.8179,-4.9386,11.031
2.381000,0.9738,-9.6123,-4.9690,10.864
2.381000,1.0041,-9.3902,-4.9375,10.657
2.382000,1.0612,-9.1792,-4.8141,10.419
2.382000,1.1453,-8.9960,-4.6767,10.203
2.382000,1.2882,-8.7955,-4.5574,9.990
2.383000,1.4182,-8.5568,-4.5049,9.774
2.383000,1.5452,-8.2675,-4.5433,9.559
2.384000,1.6357,-7.9528,-4.6488,9.356
2.384000,1.6826,-7.6028,-4.8044,9.150
2.384000,1.6548,-7.2245,-4.9881,8.934
2.388000,1.5617,-6.7821,-5.1876,8.680
2.392000,1.4492,-6.2800,-5.3718,8.390
2.398000,1.3460,-5.7608,-5.5334,8.100
2.405000,1.2905,-5.2350,-5.6661,7.821
2.409000,1.2996,-4.7164,-5.7747,7.568
2.412000,1.3781,-4.2077,-5.8142,7.308
2.416000,1.5453,-3.6972,-5.7584,7.015
2.463000,1.7912,-3.1783,-5.6314,6.710
2.464000,2.0729,-2.6345,-5.4115,6.366
2.465000,2.3824,-2.0873,-5.1272,6.027
2.465000,2.6791,-1.5394,-4.7904,5.700
2.465000,2.9672,-1.0182,-4.3841,5.391
2.466000,3.2203,-0.5438,-3.9012,5.088
2.466000,3.4047,-0.1357,-3.3494,4.778
2.466000,3.5057,0.2065,-2.7431,4.456
2.467000,3.5159,0.4901,-2.1256,4.138
2.467000,3.4568,0.6955,-1.5116,3.836
2.473000,3.3331,0.8537,-0.9416,3.567
2.479000,3.1589,0.9453,-0.4058,3.322
2.483000,2.9365,0.9829,0.0818,3.098
2.488000,2.6560,0.9729,0.5289,2.878
2.493000,2.3315,0.9187,0.9509,2.680
2.498000,1.9605,0.8419,1.3364,2.518
2.503000,1.5356,0.7502,1.7005,2.411
2.509000,1.0785,0.6730,2.0247,2.391
2.512000,0.5984,0.5720,2.3049,2.449
2.518000,0.0979,0.4602,2.5319,2.575
2.523000,-0.4135,0.3476,2.6893,2.743
2.528000,-0.9213,0.2396,2.7921,2.950
2.533000,-1.3897,0.1461,2.8381,3.163
2.539000,-1.8043,0.0750,2.8085,3.339
2.543000,-2.1916,0.0405,2.6988,3.477
2.547000,-2.5657,0.0526,2.5069,3.588
2.625000,-2.8958,0.0780,2.2475,3.666
2.626000,-3.2055,0.1051,1.9660,3.762
2.626000,-3.5021,0.1297,1.6818,3.887
2.626000,-3.8042,0.1616,1.4040,4.058
2.627000,-4.0878,0.2015,1.1397,4.248
2.627000,-4.3479,0.2663,0.8768,4.443
2.628000,-4.5604,0.3753,0.6080,4.616
2.628000,-4.7299,0.5240,0.3493,4.772
2.628000,-4.8418,0.7197,0.1127,4.896
2.629000,-4.9033,0.9238,-0.1102,4.991
2.629000,-4.9499,1.1411,-0.2814,5.088
2.629000,-4.9791,1.3406,-0.3994,5.172
2.630000,-4.9740,1.5293,-0.4816,5.226
2.630000,-4.9775,1.6905,-0.5165,5.282
2.630000,-4.9655,1.8693,-0.5145,5.331
2.631000,-4.9214,2.0560,-0.4735,5.355
2.634000,-4.8881,2.2290,-0.4060,5.388
2.639000,-4.8729,2.4141,-0.3028,5.447
2.643000,-4.8660,2.5609,-0.1861,5.502
2.648000,-4.8604,2.6839,-0.0584,5.552
2.657000,-4.8488,2.7801,0.0558,5.590
2.660000,-4.8216,2.8425,0.1612,5.599
2.662000,-4.8390,2.8710,0.2846,5.634
2.667000,-4.7955,2.8562,0.3781,5.594
2.732000,-4.7270,2.8029,0.4008,5.510
2.733000,-4.6407,2.7015,0.3094,5.379
2.733000,-4.4960,2.5833,0.0852,5.186
2.733000,-4.3553,2.4510,-0.1797,5.001
2.734000,-4.1927,2.3071,-0.4070,4.803
2.734000,-4.0109,2.1614,-0.5888,4.594
2.734000,-3.8361,2.0164,-0.7153,4.392
2.735000,-3.6471,1.8505,-0.7744,4.162
2.735000,-3.4556,1.6828,-0.8045,3.927
2.735000,-3.2927,1.4871,-0.8393,3.709
2.736000,-3.1441,1.2922,-0.8737,3.510
2.736000,-3.0120,1.0673,-0.9078,3.322
2.736000,-2.8770,0.8177,-0.9343,3.133
2.739000,-2.7318,0.5459,-0.9632,2.948
2.742000,-2.5547,0.2572,-0.9896,2.752
2.748000,-2.3477,-0.0121,-1.0376,2.567
2.753000,-2.0845,-0.2451,-1.0930,2.366
2.759000,-1.8080,-0.4369,-1.1342,2.179
2.762000,-1.5017,-0.6167,-1.1853,2.010
2.768000,-1.1988,-0.7889,-1.2678,1.915
2.820000,-0.8849,-0.9438,-1.3765,1.889
2.821000,-0.5528,-1.0791,-1.5065,1.934
2.822000,-0.2025,-1.1754,-1.6241,2.015
2.822000,0.1662,-1.2515,-1.7196,2.133
2.822000,0.5507,-1.3226,-1.8049,2.304
2.822000,0.9319,-1.3716,-1.8703,2.500
2.823000,1.3100,-1.4199,-1.9372,2.736
2.823000,1.6995,-1.4413,-1.9721,2.976
2.823000,2.1318,-1.4376,-1.9726,3.241
2.824000,2.5966,-1.3863,-1.9412,3.526
2.824000,3.0967,-1.3134,-1.8661,3.847
2.827000,3.6105,-1.2359,-1.7667,4.205
2.834000,4.1569,-1.1543,-1.6311,4.612
2.838000,4.7143,-1.0546,-1.4930,5.056
2.842000,5.2613,-0.9273,-1.3450,5.509
2.847000,5.7893,-0.7883,-1.1771,5.960
2.856000,6.2651,-0.6519,-0.9892,6.376
2.859000,6.6788,-0.5304,-0.7571,6.742
2.862000,7.0445,-0.4360,-0.4619,7.073
2.868000,7.3646,-0.3737,-0.1300,7.375
2.928000,7.6586,-0.3361,0.2334,7.670
2.929000,7.9448,-0.3147,0.6111,7.974
2.929000,8.2712,-0.2737,0.9621,8.331
2.929000,8.6280,-0.2418,1.2432,8.720
2.930000,8.9525,-0.1907,1.4545,9.072
2.930000,9.2067,-0.1082,1.5942,9.344
2.930000,9.3776,0.0429,1.6722,9.526
2.931000,9.4700,0.2486,1.7297,9.630
2.931000,9.5005,0.4967,1.7669,9.676
2.931000,9.4641,0.7583,1.8223,9.668
2.932000,9.4039,1.0121,1.9005,9.647
2.932000,9.3440,1.2366,1.9992,9.635
2.933000,9.2886,1.4217,2.1033,9.629
2.938000,9.2236,1.5893,2.1601,9.606
2.942000,9.1322,1.7800,2.1789,9.556
2.947000,9.0192,2.0129,2.1744,9.493
2.955000,8.8872,2.3339,2.1181,9.430
2.959000,8.7287,2.7113,2.0335,9.364
2.962000,8.5797,3.1596,1.9040,9.339
2.967000,8.4257,3.6546,1.7675,9.353
3.029000,8.2642,4.1625,1.6189,9.394
3.030000,8.1213,4.6736,1.4531,9.482
3.030000,7.9610,5.1543,1.2703,9.569
3.031000,7.7757,5.5971,1.1159,9.645
3.031000,7.6011,6.0045,0.9924,9.737
3.031000,7.4466,6.3619,0.8902,9.835
3.032000,7.3120,6.6715,0.8354,9.933
3.032000,7.2307,6.9023,0.7872,10.027
3.032000,7.1976,7.0659,0.7234,10.112
3.033000,7.1981,7.1454,0.6275,10.162
3.033000,7.1936,7.1215,0.5066,10.135
3.033000,7.1529,7.0014,0.3662,10.016
3.034000,7.0450,6.7757,0.2614,9.778
3.039000,6.8509,6.4659,0.1302,9.421
3.043000,6.5931,6.0968,-0.0442,8.980
3.048000,6.3031,5.7190,-0.2259,8.514
3.053000,6.0272,5.3234,-0.4483,8.054
3.058000,5.7132,4.8915,-0.6370,7.548
3.063000,5.4070,4.4643,-0.7630,7.053
3.068000,5.0899,4.0518,-0.8384,6.560
3.074000,4.8060,3.6668,-0.8827,6.109
3.078000,4.5672,3.3330,-0.8772,5.722
3.083000,4.3666,3.0337,-0.8416,5.383
3.148000,4.1781,2.7692,-0.8025,5.076
3.149000,3.9872,2.5223,-0.8056,4.786
3.150000,3.7851,2.3105,-0.8148,4.509
3.150000,3.6098,2.1193,-0.7890,4.260
3.150000,3.4372,1.9918,-0.7544,4.044
3.151000,3.2675,1.9350,-0.7278,3.867
3.151000,3.1025,1.9243,-0.6083,3.701
3.151000,2.9760,1.9552,-0.4733,3.592
3.151000,2.8037,2.0195,-0.3562,3.474
3.152000,2.5856,2.0786,-0.2618,3.328
3.152000,2.3312,2.1468,-0.1995,3.175
3.152000,2.0622,2.1978,-0.1454,3.017
3.153000,1.7615,2.2501,-0.0417,2.858
3.159000,1.4371,2.2831,0.0611,2.698
3.160000,1.0722,2.3063,0.1512,2.548
3.164000,0.7530,2.3290,0.2738,2.463
3.169000,0.4772,2.3419,0.3499,2.415
3.174000,0.2042,2.3209,0.4537,2.374
3.179000,-0.0521,2.2797,0.5399,2.343
3.183000,-0.2980,2.2100,0.5895,2.307
3.189000,-0.5482,2.1257,0.5526,2.264
3.194000,-0.7858,1.9983,0.4752,2.199
3.198000,-0.9844,1.8281,0.3738,2.110
3.263000,-1.1752,1.6409,0.2151,2.030
3.264000,-1.3502,1.4551,0.0471,1.986
3.265000,-1.4858,1.2509,-0.1305,1.947
3.266000,-1.6083,1.0307,-0.3007,1.934
3.267000,-1.7271,0.7924,-0.4758,1.959
3.268000,-1.8922,0.5266,-0.6487,2.068
3.270000,-2.0438,0.2211,-0.8004,2.206
3.271000,-2.1932,-0.0959,-0.9500,2.392
3.272000,-2.3285,-0.3938,-1.1095,2.609
3.273000,-2.4594,-0.6626,-1.2840,2.852
3.275000,-2.6191,-0.9049,-1.4568,3.131
3.276000,-2.7838,-1.1641,-1.6042,3.417
3.277000,-2.9482,-1.4479,-1.7216,3.708
3.279000,-3.0933,-1.7424,-1.8259,3.992
3.280000,-3.2191,-2.0711,-1.9124,4.279
3.280000,-3.3182,-2.4168,-1.9790,4.557
3.286000,-3.3979,-2.7743,-2.0021,4.822
3.290000,-3.4582,-3.1295,-2.0107,5.079
3.294000,-3.5012,-3.5023,-1.9760,5.332
3.299000,-3.5319,-3.8500,-1.8959,5.558
3.305000,-3.5455,-4.2128,-1.7992,5.793
3.310000,-3.5206,-4.5450,-1.6812,5.990
3.313000,-3.4667,-4.8439,-1.5540,6.156
3.373000,-3.3815,-5.1074,-1.4371,6.292
3.373000,-3.2962,-5.3487,-1.2991,6.416
3.374000,-3.2251,-5.5659,-1.1788,6.540
3.374000,-3.1777,-5.7442,-1.0401,6.647
3.375000,-3.1397,-5.9170,-0.8738,6.755
3.375000,-3.0920,-6.0770,-0.6633,6.851
3.375000,-3.0130,-6.2423,-0.4392,6.945
3.376000,-2.9077,-6.3703,-0.2281,7.006
3.376000,-2.8072,-6.4611,-0.0246,7.045
3.376000,-2.7166,-6.5075,0.1690,7.054
3.377000,-2.6072,-6.5314,0.3844,7.043
3.377000,-2.4674,-6.5402,0.5597,7.013
3.379000,-2.2689,-6.5484,0.7249,6.968
3.384000,-1.9427,-6.5493,0.8519,6.884
3.390000,-1.4845,-6.5439,0.9532,6.778
3.394000,-0.9407,-6.5379,0.9607,6.675
3.398000,-0.3929,-6.5491,0.9157,6.624
3.405000,0.0814,-6.5949,0.8224,6.647
3.409000,0.4652,-6.6759,0.7386,6.733
3.413000,0.7894,-6.7828,0.6625,6.861
3.418000,1.0442,-6.9277,0.5703,7.029
3.480000,1.2486,-7.0938,0.4002,7.214
3.480000,1.4505,-7.2884,0.1881,7.434
3.481000,1.6640,-7.4850,-0.0655,7.668
3.481000,1.8651,-7.6860,-0.3489,7.917
3.481000,2.0204,-7.8814,-0.6622,8.163
3.482000,2.1133,-8.0734,-1.0125,8.407
3.482000,2.1703,-8.2662,-1.3233,8.648
3.482000,2.2201,-8.4761,-1.5471,8.898
3.483000,2.2774,-8.7124,-1.7224,9.168
3.483000,2.3326,-8.9388,-1.8854,9.429
3.483000,2.3789,-9.1195,-2.0843,9.652
3.484000,2.3829,-9.1873,-2.3193,9.771
3.484000,2.3139,-9.1397,-2.5595,9.769
3.491000,2.1816,-9.0103,-2.7743,9.677
3.494000,2.0103,-8.8351,-2.9639,9.533
3.500000,1.8481,-8.6499,-3.1119,9.377
3.504000,1.6928,-8.4929,-3.2382,9.246
3.510000,1.5400,-8.3761,-3.3550,9.153
3.514000,1.3972,-8.2540,-3.5136,9.079
3.526000,1.2526,-8.0880,-3.7330,8.996
3.527000,1.0943,-7.8660,-4.0181,8.900
3.529000,0.9346,-7.5709,-4.3283,8.771
3.534000,0.7904,-7.1883,-4.6352,8.590
3.608000,0.6665,-6.7443,-4.9385,8.386
3.609000,0.5465,-6.2539,-5.2082,8.157
3.609000,0.4306,-5.7267,-5.4396,7.910
3.609000,0.3690,-5.1749,-5.6166,7.646
3.610000,0.3763,-4.6183,-5.7374,7.375
3.610000,0.4908,-4.0743,-5.8385,7.136
3.610000,0.6716,-3.5649,-5.9058,6.931
3.611000,0.9041,-3.1036,-5.9447,6.767
3.612000,1.1619,-2.6979,-5.9456,6.632
3.612000,1.4256,-2.3341,-5.8920,6.496
3.613000,1.6950,-1.9961,-5.8004,6.364
3.613000,1.9672,-1.7059,-5.6636,6.234
3.613000,2.1847,-1.4435,-5.4724,6.067
3.614000,2.3303,-1.2333,-5.2001,5.830
3.614000,2.3680,-1.0974,-4.8635,5.520
3.614000,2.3119,-1.0290,-4.4292,5.101
3.621000,2.1333,-1.0428,-3.9211,4.584
3.625000,1.8322,-1.1504,-3.3487,3.987
3.629000,1.4015,-1.3328,-2.7741,3.382
3.641000,0.8676,-1.5772,-2.2210,2.859
3.644000,0.2689,-1.8566,-1.7103,2.539
3.645000,-0.4016,-2.1680,-1.2103,2.515
3.649000,-1.1654,-2.4816,-0.7253,2.836
3.730000,-2.0030,-2.8182,-0.2502,3.467
3.731000,-2.9114,-3.1285,0.2247,4.280
3.732000,-3.8209,-3.3635,0.6847,5.136
3.736000,-4.6879,-3.4956,1.1203,5.954
3.740000,-5.4715,-3.5599,1.4956,6.697
3.741000,-6.1668,-3.5438,1.8131,7.340
3.741000,-6.7427,-3.4593,2.0395,7.848
3.741000,-7.2088,-3.3157,2.2203,8.240
3.742000,-7.5940,-3.1229,2.3579,8.543
3.743000,-7.8935,-2.9071,2.4118,8.751
3.744000,-8.1193,-2.6541,2.3703,8.865
3.744000,-8.2407,-2.3885,2.2119,8.860
3.745000,-8.2457,-2.1244,1.9897,8.744
3.746000,-8.1634,-1.8647,1.6729,8.539
3.746000,-8.0179,-1.6189,1.2931,8.281
3.746000,-7.8261,-1.4064,0.8651,7.998
3.747000,-7.5879,-1.1911,0.4894,7.696
3.747000,-7.3106,-0.9834,0.1631,7.378
3.748000,-7.0060,-0.7494,-0.2028,7.049
3.749000,-6.6478,-0.4848,-0.5844,6.691
3.754000,-6.2696,-0.2068,-0.9366,6.343
3.760000,-5.8880,0.0870,-1.2379,6.017
3.764000,-5.4890,0.3738,-1.4915,5.700
3.774000,-5.0966,0.6296,-1.7166,5.415
3.776000,-4.7011,0.8804,-1.8921,5.143
3.779000,-4.3002,1.1524,-2.0160,4.887
3.784000,-3.8607,1.4616,-2.0908,4.627
3.855000,-3.4330,1.7693,-2.1453,4.418
3.856000,-3.0634,2.0431,-2.1702,4.274
3.856000,-2.8161,2.2806,-2.1848,4.231
3.857000,-2.6888,2.4507,-2.1463,4.224
3.857000,-2.6550,2.5370,-2.0499,4.206
3.857000,-2.6877,2.5762,-1.9578,4.206
3.858000,-2.7466,2.5347,-1.8679,4.178
3.858000,-2.7735,2.4565,-1.7418,4.094
3.858000,-2.7682,2.3685,-1.6397,3.995
3.858000,-2.7092,2.2567,-1.5563,3.854
3.859000,-2.5987,2.1094,-1.4579,3.651
3.859000,-2.4629,1.9488,-1.3631,3.424
3.859000,-2.2927,1.7671,-1.2404,3.149
3.860000,-2.0760,1.5985,-1.1543,2.863
3.860000,-1.8152,1.4117,-1.0399,2.524
3.865000,-1.5296,1.2185,-0.9211,2.162
3.869000,-1.2094,1.0432,-0.8218,1.796
3.875000,-0.8864,0.8730,-0.7226,1.439
3.879000,-0.5963,0.7081,-0.6427,1.127
3.885000,-0.3102,0.5367,-0.5892,0.855
3.889000,-0.0185,0.3802,-0.5525,0.671
3.895000,0.2982,0.2223,-0.5373,0.653
3.899000,0.6495,0.0989,-0.5653,0.867
3.964000,1.0348,0.0118,-0.6476,1.221
3.966000,1.4448,-0.0723,-0.7436,1.627
3.967000,1.8577,-0.1556,-0.8483,2.048
3.968000,2.2905,-0.2239,-0.9806,2.502
3.970000,2.7358,-0.2747,-1.1401,2.977
3.971000,3.2059,-0.2955,-1.3004,3.472
3.973000,3.6998,-0.2682,-1.4488,3.982
3.974000,4.2201,-0.2046,-1.5877,4.514
3.975000,4.7353,-0.1167,-1.7262,5.042
3.976000,5.2333,-0.0192,-1.8352,5.546
3.976000,5.7429,0.1050,-1.8643,6.039
3.977000,6.2559,0.2428,-1.8089,6.517
3.978000,6.7846,0.4088,-1.7028,7.007
3.979000,7.2856,0.5833,-1.5463,7.471
3.981000,7.7347,0.7542,-1.3731,7.892
3.982000,8.1604,0.9402,-1.1762,8.298
3.988000,8.5292,1.1174,-0.9412,8.653
3.991000,8.7851,1.2750,-0.6785,8.903
3.996000,8.9451,1.4037,-0.3955,9.063
4.001000,9.0261,1.5059,-0.0779,9.151
4.006000,9.0281,1.5670,0.2568,9.167
4.010000,8.9923,1.5922,0.5773,9.150
4.015000,8.9732,1.5977,0.8804,9.157
4.079000,8.9424,1.5767,1.1517,9.153
4.080000,8.8975,1.5220,1.3911,9.133
4.081000,8.8626,1.4124,1.5913,9.114
4.083000,8.8476,1.2696,1.7452,9.107
4.084000,8.8478,1.1300,1.8506,9.110
4.087000,8.8247,1.0411,1.8882,9.084
4.088000,8.7883,1.0081,1.8323,9.034
4.090000,8.7504,1.0526,1.7265,8.981
4.091000,8.7156,1.1459,1.6000,8.935
4.093000,8.6864,1.2809,1.4918,8.906
4.094000,8.6983,1.4240,1.4139,8.927
4.097000,8.7226,1.5681,1.3953,8.972
4.098000,8.7187,1.7134,1.4288,9.000
4.099000,8.6940,1.8884,1.5165,9.025
4.099000,8.6700,2.1147,1.6433,9.074
4.100000,8.6206,2.3752,1.7517,9.112
4.101000,8.5621,2.7055,1.8003,9.158
4.105000,8.4753,3.0933,1.8514,9.210
4.111000,8.3813,3.5478,1.8832,9.294
4.116000,8.2368,4.0544,1.8597,9.367
4.120000,8.0512,4.6079,1.8122,9.452
4.126000,7.8649,5.1338,1.8119,9.565
4.130000,7.6633,5.6200,1.8299,9.678
4.136000,7.4678,6.0448,1.8634,9.787
4.212000,7.2950,6.4055,1.8977,9.892
4.214000,7.1182,6.7020,1.9301,9.965
4.216000,6.9204,6.9102,1.9653,9.975
4.219000,6.7473,7.0371,2.0049,9.953
4.221000,6.5724,7.0780,1.9986,9.864
4.221000,6.4030,7.0186,1.9391,9.696
4.222000,6.2703,6.8542,1.8505,9.472
4.223000,6.1311,6.5800,1.6781,9.149
4.223000,5.9887,6.2231,1.4368,8.755
4.224000,5.8407,5.8198,1.1777,8.329
4.224000,5.7188,5.4302,0.9418,7.942
4.225000,5.6064,5.0497,0.7055,7.578
4.225000,5.4845,4.6497,0.4549,7.205
4.226000,5.3385,4.2371,0.3006,6.822
4.226000,5.1528,3.8296,0.1708,6.422
4.227000,4.9561,3.4129,0.0371,6.018
4.227000,4.7610,3.0710,-0.0673,5.666
4.227000,4.5748,2.7704,-0.2001,5.352
4.231000,4.3736,2.4846,-0.3399,5.042
4.240000,4.1442,2.2051,-0.4580,4.717
4.242000,3.9007,1.9292,-0.5257,4.383
4.246000,3.6722,1.6859,-0.4977,4.071
4.251000,3.4660,1.4992,-0.4726,3.806
4.318000,3.2798,1.3713,-0.4630,3.585
4.321000,3.0988,1.2921,-0.4066,3.382
4.322000,2.9189,1.2551,-0.3563,3.197
4.323000,2.7158,1.2477,-0.3360,3.008
4.324000,2.4896,1.2819,-0.1761,2.806
4.324000,2.2807,1.3237,0.0970,2.639
4.325000,2.0411,1.3703,0.2716,2.473
4.325000,1.7859,1.4607,0.3764,2.338
4.326000,1.5460,1.5488,0.4472,2.234
4.326000,1.2999,1.6012,0.4721,2.116
4.326000,1.0403,1.6228,0.4515,1.980
4.327000,0.7818,1.6567,0.4840,1.895
4.327000,0.5405,1.7166,0.5601,1.885
4.328000,0.3078,1.7535,0.6896,1.909
4.328000,0.0976,1.7785,0.8073,1.956
4.332000,-0.1235,1.7869,0.9062,2.007
4.340000,-0.3245,1.7928,0.9626,2.061
4.343000,-0.4913,1.7311,0.9527,2.036
4.345000,-0.6400,1.6655,0.9610,2.027
4.350000,-0.7876,1.5783,0.9036,1.982
4.414000,-0.9485,1.4721,0.7830,1.918
4.415000,-1.1298,1.3040,0.6262,1.835
4.415000,-1.3025,1.1104,0.4693,1.775
4.415000,-1.4668,0.8884,0.3219,1.745
4.416000,-1.6123,0.6469,0.1963,1.748
4.416000,-1.7060,0.4022,0.0875,1.755
4.416000,-1.7979,0.1352,-0.0668,1.804
4.416000,-1.8903,-0.1109,-0.2714,1.913
4.417000,-1.9714,-0.3580,-0.4547,2.055
4.417000,-2.0431,-0.6022,-0.5996,2.213
4.417000,-2.1080,-0.8560,-0.7113,2.384
4.418000,-2.1610,-1.1359,-0.7972,2.568
4.418000,-2.1592,-1.4846,-0.8289,2.748
4.423000,-2.0999,-1.9210,-0.8212,2.962
4.427000,-1.9786,-2.4263,-0.8081,3.233
4.432000,-1.8309,-2.9869,-0.7771,3.589
4.440000,-1.7049,-3.6008,-0.7687,4.058
4.442000,-1.6030,-4.2292,-0.7397,4.583
4.446000,-1.4940,-4.8669,-0.7091,5.140
4.450000,-1.3326,-5.4973,-0.6653,5.695
4.511000,-1.1090,-6.1113,-0.6175,6.242
4.512000,-0.8762,-6.6930,-0.5873,6.776
4.512000,-0.6893,-7.2182,-0.5457,7.272
4.512000,-0.5938,-7.6965,-0.4997,7.736
4.513000,-0.5587,-8.1274,-0.4611,8.160
4.513000,-0.5863,-8.5137,-0.3872,8.543
4.513000,-0.6430,-8.8323,-0.3232,8.862
4.513000,-0.7049,-9.0741,-0.3245,9.107
4.514000,-0.7626,-9.2248,-0.4292,9.266
4.514000,-0.7613,-9.3082,-0.5817,9.357
4.514000,-0.7205,-9.3390,-0.7648,9.398
4.515000,-0.6740,-9.3393,-0.9948,9.416
4.516000,-0.6032,-9.3394,-1.2299,9.439
4.522000,-0.4962,-9.3326,-1.4817,9.462
4.526000,-0.3775,-9.3236,-1.7496,9.494
4.531000,-0.2427,-9.3221,-1.9874,9.535
4.539000,-0.1229,-9.3211,-2.1640,9.570
4.542000,-0.0377,-9.2965,-2.3004,9.577
4.545000,0.0656,-9.2654,-2.4228,9.577
4.551000,0.1580,-9.2282,-2.5240,9.568
4.618000,0.2802,-9.2187,-2.5898,9.580
4.619000,0.4250,-9.2611,-2.6492,9.642
4.619000,0.5782,-9.3245,-2.7148,9.729
4.620000,0.7064,-9.3849,-2.8132,9.823
4.621000,0.7930,-9.4279,-2.9208,9.902
4.621000,0.8646,-9.4564,-3.0021,9.959
4.621000,0.8949,-9.4846,-3.0649,10.008
4.622000,0.8675,-9.5151,-3.1190,10.051
4.622000,0.7874,-9.6071,-3.1552,10.143
4.622000,0.6810,-9.7553,-3.1477,10.273
4.623000,0.5414,-9.9115,-3.1421,10.412
4.623000,0.3973,-9.9844,-3.1790,10.486
4.624000,0.2009,-9.9621,-3.2321,10.475
4.624000,-0.0429,-9.8877,-3.2534,10.409
4.627000,-0.3389,-9.7805,-3.2619,10.316
4.632000,-0.6368,-9.6953,-3.3151,10.266
4.638000,-0.8958,-9.6030,-3.4417,10.240
4.641000,-1.1038,-9.5034,-3.6678,10.246
4.646000,-1.2540,-9.3866,-3.9859,10.275
4.651000,-1.3868,-9.2048,-4.3621,10.280
4.658000,-1.5072,-8.9409,-4.7841,10.252
4.661000,-1.6198,-8.5852,-5.1752,10.154
4.665000,-1.7030,-8.1542,-5.5257,9.996
4.718000,-1.6967,-7.6337,-5.8288,9.753
4.719000,-1.5985,-7.0831,-6.0466,9.449
4.719000,-1.3746,-6.4993,-6.1800,9.073
4.720000,-1.0130,-5.9518,-6.1891,8.646
4.720000,-0.5545,-5.4417,-6.0552,8.160
4.720000,-0.0397,-4.9631,-5.8033,7.636
4.721000,0.4742,-4.5216,-5.4988,7.135
4.721000,0.9916,-4.0810,-5.1756,6.665
4.721000,1.4859,-3.6493,-4.7930,6.205
4.722000,1.9451,-3.2226,-4.3847,5.779
4.722000,2.3019,-2.8235,-3.9821,5.397
4.728000,2.5539,-2.4403,-3.5443,5.004
4.733000,2.6984,-2.1082,-3.1195,4.632
4.738000,2.7233,-1.8320,-2.6381,4.211
4.742000,2.6071,-1.6358,-2.1147,3.734
4.747000,2.3928,-1.5028,-1.5971,3.246
4.753000,2.0971,-1.4138,-1.0993,2.758
4.758000,1.7200,-1.3756,-0.6905,2.308
4.762000,1.2660,-1.3477,-0.3719,1.886
4.769000,0.7781,-1.3316,-0.1453,1.549
4.836000,0.2371,-1.3628,0.0024,1.383
4.836000,-0.3499,-1.4189,0.0934,1.464
4.837000,-0.9611,-1.4939,0.1355,1.781
4.837000,-1.5798,-1.5634,0.1197,2.226
4.837000,-2.1771,-1.6217,0.0607,2.715
4.838000,-2.7554,-1.6583,-0.0310,3.216
4.838000,-3.2812,-1.6797,-0.1649,3.690
4.838000,-3.7854,-1.6614,-0.3238,4.147
4.838000,-4.2511,-1.5909,-0.4907,4.565
4.839000,-4.6855,-1.4967,-0.6538,4.962
4.839000,-5.0741,-1.3523,-0.8107,5.313
4.839000,-5.4120,-1.1645,-0.9400,5.615
4.840000,-5.6750,-0.9379,-1.0397,5.845
4.840000,-5.8726,-0.6699,-1.1339,6.018
4.843000,-6.0142,-0.3707,-1.1876,6.142
4.847000,-6.0878,-0.0544,-1.2226,6.210
4.853000,-6.0669,0.2619,-1.2374,6.197
4.859000,-5.9850,0.5752,-1.2255,6.136
4.863000,-5.8612,0.8758,-1.2380,6.054
4.874000,-5.7192,1.1661,-1.2726,5.974
4.878000,-5.5522,1.4429,-1.3227,5.887
4.880000,-5.3839,1.7134,-1.3783,5.816
4.882000,-5.2026,1.9845,-1.3559,5.731
4.944000,-5.0180,2.2416,-1.3012,5.648
4.945000,-4.8393,2.4944,-1.2312,5.582
4.945000,-4.6646,2.7754,-1.1368,5.546
4.945000,-4.4866,3.0416,-1.0038,5.513
4.946000,-4.3030,3.2855,-0.8420,5.479
4.946000,-4.1163,3.5116,-0.6350,5.448
4.946000,-3.9264,3.6986,-0.4332,5.411
4.947000,-3.7505,3.8574,-0.2369,5.385
4.947000,-3.5862,3.9930,-0.0507,5.367
4.947000,-3.4314,4.1170,0.1185,5.361
4.947000,-3.2838,4.1983,0.3232,5.340
4.948000,-3.1362,4.2202,0.5206,5.284
4.948000,-3.0221,4.1734,0.7082,5.201
4.953000,-2.9083,4.0980,0.9007,5.105
4.958000,-2.8066,3.9921,1.0476,4.991
4.964000,-2.7289,3.8558,1.1682,4.866
4.968000,-2.6536,3.6798,1.2362,4.702
4.972000,-2.5734,3.4813,1.2690,4.511
4.978000,-2.4551,3.2506,1.2622,4.265
4.983000,-2.2890,2.9834,1.2209,3.954
5.028000,-2.0967,2.6800,1.1622,3.596
5.029000,-1.8686,2.3860,1.0652,3.212
5.030000,-1.6023,2.0778,0.9348,2.785
5.030000,-1.3242,1.7723,0.7713,2.343
5.030000,-1.0488,1.4742,0.5967,1.905
5.031000,-0.7856,1.2030,0.3922,1.489
5.031000,-0.5201,0.9540,0.1676,1.099
5.031000,-0.2521,0.7397,-0.0627,0.784
5.032000,0.0282,0.5553,-0.2699,0.618
5.032000,0.3353,0.3965,-0.4640,0.696
5.037000,0.6907,0.2726,-0.6399,0.980
5.042000,1.1065,0.1813,-0.8241,1.392
5.048000,1.5515,0.1013,-0.9857,1.841
5.053000,1.9995,0.0514,-1.1339,2.299
5.057000,2.4746,0.0465,-1.2307,2.764
5.117000,2.9666,0.0713,-1.2879,3.235
5.117000,3.4708,0.1209,-1.2913,3.705
5.118000,3.9942,0.1926,-1.2386,4.186
5.118000,4.5005,0.2621,-1.1059,4.642
5.119000,4.9752,0.3145,-0.9226,5.070
5.119000,5.4063,0.3401,-0.6744,5.459
5.119000,5.7623,0.3261,-0.4026,5.786
5.119000,6.0410,0.3086,-0.1242,6.050
5.120000,6.2376,0.2682,0.1655,6.246
5.120000,6.3738,0.2025,0.4540,6.393
5.120000,6.4501,0.1093,0.7289,6.492
5.120000,6.5067,-0.0213,0.9302,6.573
5.124000,6.5775,-0.1674,1.0412,6.662
5.128000,6.6481,-0.3362,1.0720,6.742
5.133000,6.7136,-0.5178,1.0828,6.820
5.137000,6.7550,-0.7094,1.0071,6.866
5.143000,6.8347,-0.8843,0.9220,6.953
5.148000,6.9236,-1.0669,0.8469,7.056
5.156000,7.0363,-1.2591,0.7531,7.188
5.159000,7.1225,-1.4272,0.5742,7.287
5.162000,7.2132,-1.5354,0.3369,7.383
5.168000,7.2560,-1.5235,0.0301,7.414
5.240000,7.2790,-1.3823,-0.3310,7.416
5.240000,7.3251,-1.1071,-0.6619,7.438
5.241000,7.4326,-0.7863,-0.9145,7.530
5.241000,7.6393,-0.4515,-1.0101,7.719
5.241000,7.8873,-0.1726,-0.9779,7.950
5.242000,8.1095,0.0408,-0.8638,8.155
5.242000,8.3341,0.2260,-0.7332,8.369
5.242000,8.5156,0.4190,-0.6294,8.549
5.243000,8.5871,0.6268,-0.5785,8.629
5.243000,8.5439,0.8807,-0.5876,8.609
5.243000,8.4508,1.2000,-0.6633,8.561
5.244000,8.3152,1.5752,-0.7025,8.492
5.244000,8.1634,1.9820,-0.7107,8.431
5.244000,8.0097,2.4229,-0.6852,8.396
5.245000,7.8303,2.8977,-0.6052,8.371
5.249000,7.6514,3.3987,-0.5140,8.388
5.255000,7.4872,3.9236,-0.4002,8.462
5.258000,7.3327,4.4859,-0.2645,8.600
5.264000,7.1541,5.0207,-0.1049,8.741
5.268000,6.9510,5.4966,0.0781,8.862
5.273000,6.7235,5.8991,0.2674,8.949
5.278000,6.5288,6.2137,0.5394,9.029
5.283000,6.3475,6.4209,0.8567,9.069
5.343000,6.1673,6.5322,1.1736,9.060
5.343000,6.0048,6.5833,1.4558,9.029
5.344000,5.8216,6.5190,1.6839,8.901
5.344000,5.6055,6.3464,1.7956,8.656
5.344000,5.3734,6.0730,1.8780,8.324
5.345000,5.1142,5.7089,1.9019,7.897
5.345000,4.8473,5.2834,1.8868,7.414
5.346000,4.5854,4.8162,1.8115,6.892
5.346000,4.3745,4.3631,1.6335,6.391
5.346000,4.2123,3.9219,1.4110,5.926
5.347000,4.0709,3.4674,1.1923,5.479
5.347000,3.9553,3.0355,1.0354,5.092
5.349000,3.8464,2.6386,0.8828,4.747
5.353000,3.7518,2.2672,0.8493,4.465
5.359000,3.6765,1.9502,0.9414,4.267
5.365000,3.6131,1.6632,1.0364,4.110
5.374000,3.5122,1.4285,1.0768,3.942
5.375000,3.3952,1.2865,1.0820,3.789
5.378000,3.2310,1.2538,1.0470,3.620
5.382000,2.9982,1.2969,0.9913,3.414
5.430000,2.7591,1.4037,0.9963,3.252
5.431000,2.5633,1.5880,1.0905,3.206
5.431000,2.3778,1.7829,1.1779,3.197
5.432000,2.1709,2.0044,1.2773,3.219
5.432000,1.9689,2.2523,1.3241,3.272
5.432000,1.7406,2.5000,1.2994,3.312
5.433000,1.4662,2.7108,1.2586,3.329
5.433000,1.2087,2.9048,1.2261,3.377
5.433000,0.9244,3.0671,1.2166,3.427
5.434000,0.6447,3.2025,1.2256,3.489
5.441000,0.3910,3.3063,1.2843,3.568
5.445000,0.1610,3.4069,1.3515,3.669
5.448000,-0.0768,3.4797,1.3676,3.740
5.453000,-0.3124,3.5065,1.3595,3.774
5.459000,-0.5314,3.4821,1.3345,3.767
5.463000,-0.7484,3.4042,1.2617,3.707
5.469000,-0.9702,3.2945,1.0936,3.604
5.473000,-1.1731,3.1215,0.8904,3.452
5.478000,-1.3493,2.9156,0.7026,3.289
5.483000,-1.4676,2.6881,0.4702,3.099
5.551000,-1.5903,2.4370,0.1886,2.916
5.552000,-1.7148,2.1529,-0.0965,2.754
5.553000,-1.8485,1.8520,-0.3275,2.637
5.553000,-1.9715,1.5408,-0.5257,2.557
5.553000,-2.0624,1.2428,-0.7154,2.512
5.554000,-2.1426,0.9365,-0.8655,2.493
5.554000,-2.2216,0.6269,-1.0292,2.527
5.554000,-2.3182,0.2974,-1.1901,2.623
5.555000,-2.4110,-0.0642,-1.3366,2.757
5.555000,-2.5063,-0.4778,-1.4952,2.957
5.555000,-2.6091,-0.9075,-1.6634,3.225
5.556000,-2.6928,-1.3434,-1.8011,3.507
5.556000,-2.7691,-1.7969,-1.9207,3.819
5.556000,-2.8333,-2.2678,-1.9913,4.140
5.560000,-2.8974,-2.7491,-2.0398,4.485
5.564000,-2.9655,-3.2245,-2.0853,4.852
5.570000,-3.0332,-3.7157,-2.0970,5.235
5.573000,-3.1121,-4.2032,-2.0847,5.630
5.578000,-3.1785,-4.6768,-2.0507,6.015
5.584000,-3.2180,-5.1126,-2.0050,6.365
5.588000,-3.2281,-5.4923,-1.9664,6.667
5.593000,-3.2185,-5.8162,-1.8944,6.912
5.598000,-3.2204,-6.1245,-1.7916,7.148
5.668000,-3.2602,-6.3884,-1.6819,7.367
5.669000,-3.2852,-6.5980,-1.5725,7.537
5.669000,-3.2883,-6.7608,-1.4615,7.659
5.670000,-3.2529,-6.8950,-1.3339,7.740
5.670000,-3.1575,-7.0178,-1.2260,7.792
5.670000,-3.0380,-7.1648,-1.1259,7.863
5.671000,-2.8518,-7.3265,-1.0473,7.931
5.671000,-2.5990,-7.4863,-0.9779,7.985
5.671000,-2.2729,-7.6080,-0.9189,7.993
5.672000,-1.8381,-7.7092,-0.8748,7.973
5.672000,-1.3260,-7.7617,-0.8425,7.919
5.673000,-0.8040,-7.7854,-0.8360,7.871
5.673000,-0.2964,-7.8098,-0.8163,7.858
5.673000,0.1653,-7.8331,-0.7926,7.875
5.675000,0.5736,-7.8964,-0.7539,7.953
5.680000,0.9425,-7.9976,-0.7144,8.085
5.684000,1.2719,-8.1013,-0.6978,8.230
5.689000,1.6024,-8.2007,-0.6799,8.383
5.695000,1.9245,-8.3032,-0.6781,8.550
5.699000,2.2522,-8.4211,-0.7087,8.746
5.707000,2.5425,-8.5166,-0.7933,8.923
5.710000,2.7667,-8.5756,-0.9389,9.060
5.715000,2.9484,-8.6199,-1.1214,9.179
5.719000,3.0687,-8.6639,-1.3454,9.289
5.789000,3.1465,-8.7053,-1.5961,9.393
5.790000,3.1696,-8.7465,-1.8612,9.487
5.790000,3.1645,-8.7994,-2.1024,9.585
5.791000,3.1742,-8.8926,-2.3578,9.732
5.791000,3.2057,-9.0784,-2.6200,9.978
5.791000,3.2160,-9.2868,-2.9081,10.249
5.792000,3.1672,-9.4215,-3.3106,10.476
5.792000,3.0906,-9.3551,-3.8035,10.561
5.793000,2.9480,-9.0921,-4.2884,10.476
5.793000,2.7325,-8.7568,-4.6649,10.291
5.793000,2.4921,-8.4497,-4.8616,10.062
5.794000,2.2633,-8.2018,-4.9467,9.842
5.794000,2.0490,-8.0009,-4.9786,9.644
5.794000,1.8546,-7.7490,-4.9921,9.403
5.795000,1.6732,-7.4126,-5.0312,9.114
5.800000,1.4883,-6.9826,-5.1106,8.780
5.804000,1.2856,-6.4711,-5.2062,8.404
5.809000,1.0724,-5.8813,-5.2899,7.983
5.814000,0.8773,-5.2659,-5.3593,7.565
5.822000,0.7075,-4.6683,-5.3931,7.168
5.825000,0.5919,-4.0960,-5.3988,6.803
5.829000,0.5590,-3.5802,-5.3695,6.478
5.835000,0.5897,-3.1045,-5.3078,6.177
5.892000,0.6647,-2.6602,-5.2336,5.908
5.893000,0.7934,-2.2715,-5.1280,5.664
5.893000,0.9326,-1.8981,-4.9790,5.409
5.895000,1.0605,-1.5552,-4.7914,5.148
5.896000,1.1697,-1.2668,-4.5271,4.844
5.897000,1.2242,-1.0056,-4.1771,4.467
5.898000,1.1738,-0.8001,-3.7941,4.051
5.899000,1.0422,-0.6220,-3.3807,3.592
5.900000,0.8177,-0.4928,-2.9393,3.090
5.901000,0.5408,-0.4005,-2.4747,2.565
5.902000,0.1996,-0.3354,-2.0155,2.053
5.903000,-0.1820,-0.3216,-1.5976,1.640
5.904000,-0.6256,-0.3323,-1.2178,1.409
5.905000,-1.1240,-0.3671,-0.8639,1.464
5.910000,-1.6603,-0.4014,-0.5473,1.794
5.914000,-2.1939,-0.4205,-0.2651,2.250
5.922000,-2.7271,-0.4192,-0.0361,2.759
5.924000,-3.2478,-0.4330,0.1641,3.281
5.929000,-3.7395,-0.4492,0.3168,3.780
5.934000,-4.2067,-0.4580,0.4439,4.255
5.995000,-4.6616,-0.4687,0.5459,4.717
5.996000,-5.0943,-0.4734,0.6013,5.151
5.996000,-5.5169,-0.4721,0.6295,5.573
5.997000,-5.9244,-0.4499,0.6570,5.978
5.999000,-6.2998,-0.4280,0.6453,6.347
6.000000,-6.6142,-0.3796,0.6086,6.653
6.002000,-6.8508,-0.3019,0.5493,6.879
6.004000,-7.0239,-0.1905,0.4671,7.042
6.005000,-7.1263,-0.0524,0.3738,7.136
6.006000,-7.1601,0.1005,0.2547,7.165
6.007000,-7.1087,0.2585,0.1023,7.114
6.007000,-6.9793,0.4263,-0.0812,6.993
6.008000,-6.7765,0.5991,-0.2935,6.809
6.009000,-6.5248,0.8141,-0.5231,6.596
6.010000,-6.2647,1.0282,-0.7555,6.393
6.015000,-6.0131,1.2508,-0.9645,6.217
6.019000,-5.7604,1.4815,-1.0998,6.049
6.025000,-5.4876,1.7010,-1.1740,5.864
6.029000,-5.2280,1.9215,-1.2373,5.706
6.035000,-4.9747,2.1252,-1.3092,5.566
6.084000,-4.7301,2.3148,-1.3872,5.446
6.085000,-4.4773,2.4783,-1.4331,5.314
6.086000,-4.2331,2.6253,-1.4543,5.189
6.087000,-3.9854,2.7655,-1.4341,5.058
6.089000,-3.7154,2.9196,-1.4133,4.932
6.091000,-3.4161,3.0709,-1.3749,4.795
6.091000,-3.1020,3.1855,-1.2905,4.630
6.092000,-2.7805,3.2584,-1.1602,4.438
6.093000,-2.4661,3.2678,-1.0174,4.218
6.094000,-2.1706,3.2189,-0.8456,3.973
6.094000,-1.8992,3.1493,-0.6733,3.739
6.095000,-1.6469,3.0689,-0.5220,3.522
6.099000,-1.4306,2.9538,-0.3699,3.303
6.104000,-1.2215,2.8065,-0.2289,3.069
6.109000,-1.0172,2.6082,-0.1302,2.803
6.114000,-0.8083,2.3822,-0.0591,2.516
6.129000,-0.5922,2.1173,-0.0394,2.199
6.134000,-0.3570,1.8184,-0.0757,1.855
6.136000,-0.1002,1.5121,-0.1533,1.523
6.138000,0.1760,1.1917,-0.2599,1.232
6.184000,0.5053,0.8672,-0.4097,1.084
6.185000,0.8969,0.5767,-0.5781,1.213
6.185000,1.3460,0.3204,-0.7576,1.577
6.186000,1.3862,0.0912,-0.9528,1.685
6.187000,2.3643,-0.1062,-1.1704,2.640
6.188000,2.8967,-0.2717,-1.3814,3.221
6.190000,3.4283,-0.4105,-1.5897,3.801
6.191000,3.9207,-0.5249,-1.7688,4.333
6.191000,4.3979,-0.6004,-1.9160,4.835
6.192000,4.8383,-0.6275,-2.0356,5.286
6.193000,5.2249,-0.5873,-2.1204,5.669
6.197000,5.5508,-0.5058,-2.1223,5.964
6.201000,5.8370,-0.4055,-2.0200,6.190
6.205000,6.0717,-0.2528,-1.8545,6.354
6.210000,6.2503,-0.0838,-1.6096,6.455
6.219000,6.3989,0.1035,-1.2837,6.527
6.220000,6.5082,0.2897,-0.9299,6.581
6.231000,6.5634,0.4596,-0.5637,6.604
6.233000,6.5767,0.6012,-0.2000,6.607
6.237000,6.5648,0.6976,0.0986,6.603
6.244000,6.5471,0.7538,0.3412,6.599
6.245000,6.5285,0.7746,0.5065,6.594
6.253000,6.4876,0.7343,0.6089,6.557
6.324000,6.4315,0.6853,0.6532,6.501
6.326000,6.3653,0.6256,0.6637,6.430
6.326000,6.2796,0.5771,0.6552,6.340
6.326000,6.2104,0.5282,0.6205,6.264
6.326000,6.1723,0.5031,0.6034,6.222
6.326000,6.1580,0.4513,0.6490,6.209
6.327000,6.1986,0.3469,0.7621,6.255
6.327000,6.2942,0.2186,0.9279,6.366
6.327000,6.4329,0.0424,1.1415,6.534
6.327000,6.5810,-0.1219,1.3236,6.714
6.327000,6.6885,-0.2502,1.4004,6.838
6.328000,6.7265,-0.2589,1.3987,6.875
6.328000,6.7287,-0.1502,1.3886,6.872
6.328000,6.7215,0.0423,1.4492,6.876
6.328000,6.7384,0.2587,1.5682,6.923
6.330000,6.8153,0.4824,1.7123,7.044
6.335000,6.9493,0.6935,1.8428,7.223
6.340000,7.1331,0.9160,2.0193,7.470
6.345000,7.3353,1.1879,2.1913,7.747
6.350000,7.5029,1.5158,2.3276,8.001
6.372000,7.6335,1.9234,2.4232,8.237
6.373000,7.7196,2.3795,2.4807,8.450
6.373000,7.7704,2.8690,2.5358,8.663
6.374000,7.7734,3.3940,2.6127,8.875
6.375000,7.7667,3.9304,2.6993,9.113
6.381000,7.7546,4.4511,2.7855,9.365
6.385000,7.7272,4.9368,2.8324,9.597
6.390000,7.6841,5.3582,2.8584,9.794
6.395000,7.6369,5.7031,2.8466,9.947
6.400000,7.5687,5.9857,2.8064,10.049
6.405000,7.4697,6.2035,2.7379,10.088
6.410000,7.3517,6.3684,2.6218,10.074
6.415000,7.2361,6.4804,2.4898,10.028
6.420000,7.1159,6.5132,2.3154,9.921
6.425000,6.9721,6.4814,2.1085,9.750
6.430000,6.8237,6.3636,1.8935,9.521
6.435000,6.6665,6.1672,1.6704,9.234
6.440000,6.5026,5.9090,1.4613,8.907
6.445000,6.2994,5.6421,1.3068,8.557
6.450000,6.0522,5.3572,1.1542,8.165
6.459000,5.7617,5.0830,1.0227,7.751
6.460000,5.4545,4.8105,0.8955,7.328
6.465000,5.1406,4.5254,0.7823,6.893
6.535000,4.8487,4.2156,0.7643,6.470
6.536000,4.5773,3.9275,0.7837,6.082
6.537000,4.3144,3.6343,0.8738,5.708
6.537000,4.0554,3.3935,0.9884,5.379
6.537000,3.8006,3.1860,1.0289,5.065
6.538000,3.5284,3.0066,0.9952,4.741
6.538000,3.2375,2.8517,0.8900,4.405
6.538000,2.9110,2.7068,0.7880,4.052
6.539000,2.6232,2.5792,0.8664,3.779
6.539000,2.3693,2.4927,1.0580,3.598
6.540000,2.1278,2.4686,1.1901,3.470
6.540000,1.8839,2.4990,1.2647,3.375
6.541000,1.6336,2.5343,1.2940,3.281
6.541000,1.3718,2.5551,1.2540,3.160
6.542000,1.1155,2.5447,1.2551,3.049
6.547000,0.8479,2.5056,1.2588,2.929
6.550000,0.5499,2.4636,1.2178,2.803
6.555000,0.3106,2.4274,1.2257,2.737
6.561000,0.0890,2.4223,1.2344,2.720
6.566000,-0.1316,2.4053,1.2534,2.715
6.574000,-0.3463,2.3452,1.2348,2.673
6.577000,-0.5527,2.2303,1.1791,2.583
6.582000,-0.7608,2.0624,1.0533,2.438
6.586000,-0.9340,1.8957,0.9062,2.299
6.656000,-1.0656,1.7032,0.8127,2.167
6.658000,-1.1721,1.4898,0.7480,2.038
6.659000,-1.2631,1.2747,0.7503,1.945
6.661000,-1.3048,1.0580,0.6874,1.815
6.662000,-1.3337,0.8388,0.5836,1.680
6.664000,-1.3874,0.5824,0.4014,1.557
6.665000,-1.5163,0.3055,0.2296,1.564
6.666000,-1.6102,0.0226,0.0561,1.611
6.667000,-1.7215,-0.3161,-0.0691,1.752
6.668000,-1.8571,-0.6987,-0.1323,1.989
6.671000,-1.9709,-1.0755,-0.1913,2.253
6.672000,-2.0653,-1.4614,-0.2415,2.542
6.674000,-2.1524,-1.8322,-0.3071,2.843
6.675000,-2.2437,-2.2112,-0.4027,3.176
6.676000,-2.3227,-2.6077,-0.4804,3.525
6.677000,-2.3605,-3.0150,-0.5478,3.868
6.678000,-2.3833,-3.4167,-0.5854,4.207
6.679000,-2.3552,-3.8516,-0.6367,4.559
6.683000,-2.3051,-4.3121,-0.6732,4.936
6.691000,-2.2303,-4.7859,-0.6616,5.321
6.694000,-2.1383,-5.2468,-0.7003,5.709
6.697000,-2.0052,-5.6646,-0.7573,6.057
6.702000,-1.8550,-6.0613,-0.7968,6.389
6.709000,-1.7381,-6.4629,-0.7494,6.734
6.712000,-1.6500,-6.8237,-0.6435,7.050
6.716000,-1.5714,-7.1270,-0.5223,7.317
6.779000,-1.4810,-7.3705,-0.4195,7.530
6.782000,-1.3693,-7.5674,-0.3342,7.698
6.782000,-1.2557,-7.7543,-0.2187,7.858
6.783000,-1.0951,-7.8977,-0.0965,7.974
6.783000,-0.8759,-7.9982,-0.0267,8.046
6.783000,-0.5843,-8.0879,0.0296,8.109
6.783000,-0.2975,-8.1930,0.0519,8.199
6.784000,-0.0373,-8.2905,-0.0405,8.291
6.784000,0.2031,-8.3665,-0.2016,8.371
6.784000,0.4425,-8.4477,-0.4474,8.471
6.784000,0.6590,-8.5271,-0.7053,8.582
6.785000,0.8595,-8.5791,-1.0014,8.680
6.785000,1.0530,-8.6393,-1.3201,8.803
6.788000,1.2299,-8.7012,-1.6733,8.946
6.791000,1.3969,-8.7723,-2.0460,9.115
6.799000,1.5611,-8.8764,-2.4067,9.328
6.802000,1.6578,-9.0141,-2.7364,9.565
6.807000,1.6704,-9.1556,-3.0780,9.802
6.811000,1.6398,-9.2816,-3.4388,10.033
6.816000,1.5734,-9.4034,-3.7691,10.252
6.883000,1.4596,-9.5109,-4.0669,10.446
6.884000,1.3133,-9.6228,-4.3022,10.622
6.887000,1.1275,-9.7553,-4.4922,10.799
6.888000,0.9028,-9.9053,-4.6311,10.972
6.890000,0.6517,-10.0793,-4.7555,11.164
6.891000,0.3985,-10.2455,-4.8498,11.342
6.893000,0.1387,-10.3696,-4.9362,11.485
6.894000,-0.1130,-10.4464,-4.9937,11.579
6.895000,-0.3420,-10.4754,-5.0402,11.630
6.898000,-0.5600,-10.4300,-5.0857,11.617
6.899000,-0.7645,-10.3315,-5.1234,11.557
6.900000,-0.9146,-10.1658,-5.1562,11.435
6.901000,-1.0438,-9.9520,-5.1726,11.264
6.902000,-1.1447,-9.7190,-5.1680,11.067
6.903000,-1.2362,-9.4602,-5.1597,10.847
6.903000,-1.3111,-9.1276,-5.1886,10.581
6.904000,-1.3502,-8.7095,-5.2330,10.250
6.908000,-1.3200,-8.2037,-5.2928,9.852
6.911000,-1.2204,-7.6271,-5.3152,9.376
6.918000,-1.0254,-6.9931,-5.3405,8.859
6.923000,-0.8023,-6.3430,-5.3323,8.325
6.928000,-0.5678,-5.7303,-5.2736,7.808
6.932000,-0.2935,-5.1630,-5.1734,7.315
6.936000,0.0156,-4.6229,-5.0218,6.826
6.994000,0.3689,-4.1006,-4.8472,6.360
6.996000,0.7801,-3.5935,-4.6178,5.903
6.998000,1.2059,-3.1212,-4.3358,5.477
7.000000,1.6291,-2.6896,-4.0296,5.111
7.003000,2.0446,-2.3046,-3.6581,4.783
7.004000,2.4138,-1.9809,-3.2381,4.498
7.006000,2.6668,-1.7372,-2.7645,4.216
7.008000,2.8108,-1.5615,-2.2422,3.920
7.009000,2.8263,-1.4519,-1.6878,3.598
7.010000,2.7062,-1.4134,-1.1155,3.250
7.011000,2.4673,-1.4486,-0.5690,2.917
7.012000,2.1216,-1.5306,-0.0506,2.617
7.013000,1.6431,-1.6765,0.4442,2.389
7.014000,1.0775,-1.8686,0.8769,2.328
7.014000,0.4251,-2.0966,1.2664,2.486
7.019000,-0.2947,-2.3259,1.5987,2.838
7.022000,-1.0530,-2.5603,1.8932,3.354
7.028000,-1.8373,-2.7989,2.1234,3.965
7.033000,-2.6474,-3.0117,2.2992,4.622
7.041000,-3.4493,-3.1805,2.4396,5.288
7.045000,-4.2379,-3.3044,2.5062,5.930
7.047000,-5.0032,-3.3776,2.5759,6.563
7.052000,-5.6949,-3.3942,2.5958,7.120
7.120000,-6.3055,-3.3731,2.5729,7.600
7.121000,-6.8180,-3.2826,2.5001,7.969
7.122000,-7.2109,-3.1248,2.3988,8.217
7.122000,-7.4819,-2.9143,2.2354,8.335
7.122000,-7.6261,-2.6652,1.9908,8.320
7.123000,-7.6413,-2.3905,1.6768,8.180
7.123000,-7.4942,-2.0973,1.2935,7.889
7.124000,-7.2449,-1.7887,0.8362,7.509
7.124000,-6.9343,-1.4915,0.3363,7.101
7.124000,-6.6294,-1.1820,-0.1797,6.736
7.125000,-6.3326,-0.8768,-0.6327,6.424
7.125000,-6.0058,-0.5747,-0.9992,6.115
7.126000,-5.6729,-0.2684,-1.3322,5.833
7.126000,-5.3074,0.0799,-1.6271,5.552
7.127000,-4.8977,0.4196,-1.8792,5.263
7.132000,-4.4989,0.7863,-2.0883,5.022
7.137000,-4.1379,1.1450,-2.2545,4.849
7.142000,-3.8481,1.4672,-2.3755,4.754
7.147000,-3.6006,1.7790,-2.4443,4.702
7.152000,-3.3621,2.0779,-2.4471,4.649
7.159000,-3.1060,2.3878,-2.4175,4.604
7.163000,-2.8348,2.7041,-2.3653,4.576
7.168000,-2.5849,2.9942,-2.2885,4.570
7.236000,-2.3657,3.2515,-2.2014,4.584
7.236000,-2.2084,3.4518,-2.0635,4.588
7.237000,-2.0818,3.6096,-1.8989,4.579
7.237000,-1.9832,3.7349,-1.7268,4.568
7.237000,-1.8725,3.8271,-1.4970,4.516
7.238000,-1.7685,3.8842,-1.2144,4.437
7.238000,-1.6520,3.9063,-0.9270,4.341
7.239000,-1.5376,3.8862,-0.6203,4.225
7.239000,-1.4206,3.8047,-0.3160,4.074
7.239000,-1.3126,3.6814,-0.0259,3.909
7.240000,-1.2022,3.5159,0.2383,3.723
7.240000,-1.0507,3.3277,0.4598,3.520
7.240000,-0.8920,3.1313,0.6247,3.315
7.241000,-0.7235,2.9173,0.7382,3.095
7.243000,-0.5450,2.6958,0.8315,2.873
7.248000,-0.3355,2.4590,0.8453,2.622
7.253000,-0.0829,2.2267,0.7990,2.367
7.258000,0.2152,2.0133,0.6981,2.142
7.262000,0.5490,1.8022,0.5404,1.960
7.267000,0.8826,1.5816,0.3767,1.850
7.274000,1.2280,1.3686,0.2218,1.852
7.279000,1.5847,1.1506,0.1239,1.962
7.283000,2.0054,0.9903,0.0685,2.238
7.356000,2.4782,0.8634,-0.0283,2.624
7.357000,2.9429,0.7435,-0.1590,3.040
7.357000,3.4047,0.6502,-0.3046,3.480
7.357000,3.8414,0.5826,-0.4553,3.912
7.358000,4.3011,0.5485,-0.5677,4.373
7.358000,4.7621,0.5212,-0.6396,4.833
7.358000,5.1720,0.5083,-0.7092,5.245
7.359000,5.5642,0.4975,-0.7122,5.632
7.359000,5.9321,0.4918,-0.6941,5.993
7.359000,6.2776,0.5073,-0.6456,6.331
7.360000,6.6032,0.5417,-0.5475,6.648
7.360000,6.9256,0.6140,-0.4190,6.965
7.360000,7.2397,0.7285,-0.3060,7.283
7.361000,7.4765,0.8352,-0.1509,7.524
7.361000,7.6326,0.9067,0.0887,7.687
7.363000,7.7086,0.9362,0.3264,7.772
7.368000,7.7405,0.9331,0.5449,7.816
7.373000,7.7788,0.9096,0.6697,7.860
7.377000,7.8260,0.8825,0.7535,7.912
7.382000,7.8870,0.8331,0.8445,7.976
7.389000,7.9926,0.7156,1.0001,8.087
7.393000,8.1379,0.5446,1.2178,8.247
7.397000,8.3135,0.3083,1.4092,8.438
7.402000,8.4834,0.0882,1.5218,8.619
7.460000,8.5880,-0.0533,1.5561,8.728
7.461000,8.6342,-0.0688,1.5364,8.770
7.461000,8.6078,0.0325,1.5204,8.741
7.461000,8.5353,0.2002,1.5035,8.669
7.461000,8.4574,0.4199,1.5097,8.601
7.462000,8.4507,0.6509,1.5722,8.620
7.462000,8.4651,0.8740,1.6431,8.667
7.463000,8.5333,1.0936,1.7480,8.779
7.463000,8.6006,1.3692,1.8724,8.908
7.463000,8.6306,1.7222,1.9803,9.021
7.463000,8.6277,2.1688,2.0789,9.136
7.464000,8.5752,2.6873,2.1611,9.243
7.469000,8.5011,3.2530,2.2504,9.376
7.474000,8.4102,3.8348,2.3345,9.533
7.477000,8.3381,4.4059,2.4083,9.733
7.483000,8.3035,4.9731,2.4234,9.978
7.490000,8.2750,5.4905,2.3579,10.207
7.494000,8.2279,5.9578,2.2860,10.413
7.498000,8.1502,6.3675,2.1956,10.573
7.566000,8.0461,6.7147,2.1275,10.694
7.567000,7.9417,7.0039,2.0410,10.784
7.567000,7.8514,7.2255,1.9406,10.845
7.567000,7.7630,7.3722,1.8241,10.860
7.568000,7.6593,7.3863,1.6485,10.768
7.568000,7.5097,7.2991,1.4856,10.577
7.569000,7.3333,7.1013,1.3214,10.293
7.569000,7.0972,6.8099,1.1177,9.899
7.569000,6.8136,6.4469,0.8702,9.420
7.570000,6.5095,6.0389,0.5650,8.897
7.570000,6.2077,5.6063,0.2601,8.369
7.570000,5.9418,5.1303,0.0110,7.850
7.571000,5.6956,4.6208,-0.2037,7.337
7.571000,5.4862,4.1021,-0.3361,6.858
7.578000,5.3378,3.6175,-0.3986,6.460
7.579000,5.2121,3.1571,-0.4559,6.111
7.584000,5.0863,2.7242,-0.5230,5.794
7.590000,4.9818,2.3472,-0.5642,5.536
7.594000,4.8986,2.0237,-0.6322,5.338
7.597000,4.8033,1.7153,-0.6767,5.145
7.603000,4.6814,1.4313,-0.7145,4.947
7.657000,4.5073,1.1700,-0.7290,4.713
7.658000,4.3265,0.9862,-0.7061,4.493
7.659000,4.0624,0.8533,-0.6434,4.201
7.659000,3.7344,0.7641,-0.5651,3.853
7.659000,3.3953,0.7260,-0.4927,3.507
7.660000,3.0759,0.7550,-0.4049,3.193
7.660000,2.7579,0.8091,-0.3041,2.890
7.661000,2.4481,0.8564,-0.1930,2.601
7.661000,2.1415,0.9041,-0.0811,2.326
7.661000,1.8263,0.9638,-0.0020,2.065
7.661000,1.5428,1.0184,0.0609,1.850
7.664000,1.2511,1.0713,0.0892,1.650
7.669000,0.9914,1.1316,0.1189,1.509
7.673000,0.7253,1.1775,0.2173,1.400
7.679000,0.4815,1.2163,0.3509,1.354
7.684000,0.2458,1.2215,0.4741,1.333
7.691000,0.0297,1.1996,0.5939,1.339
7.696000,-0.1947,1.1326,0.6673,1.329
7.698000,-0.4133,1.0272,0.6895,1.304
7.769000,-0.6116,0.8836,0.6705,1.267
7.770000,-0.8086,0.7187,0.5602,1.218
7.771000,-0.9856,0.5346,0.3710,1.181
7.772000,-1.1297,0.3258,0.1490,1.185
7.773000,-1.2580,0.1204,-0.0768,1.266
7.774000,-1.3802,-0.1149,-0.2896,1.415
7.775000,-1.5486,-0.3726,-0.4730,1.662
7.776000,-1.7318,-0.6453,-0.6749,1.968
7.777000,-1.9348,-0.9238,-0.8623,2.311
7.778000,-2.1375,-1.2202,-1.0301,2.668
7.779000,-2.3187,-1.5327,-1.1502,3.008
7.780000,-2.4757,-1.8560,-1.2466,3.336
7.781000,-2.5775,-2.1634,-1.3173,3.614
7.783000,-2.6482,-2.4628,-1.3940,3.876
7.784000,-2.7064,-2.7286,-1.4790,4.118
7.785000,-2.7668,-3.0020,-1.5603,4.371
7.786000,-2.8389,-3.2615,-1.6263,4.620
7.789000,-2.9203,-3.5354,-1.6798,4.883
7.794000,-3.0109,-3.8233,-1.6826,5.149
7.799000,-3.0843,-4.1184,-1.6450,5.402
7.808000,-3.1453,-4.4142,-1.5690,5.643
7.811000,-3.1940,-4.7230,-1.4548,5.884
7.814000,-3.2256,-5.0206,-1.3336,6.115
7.819000,-3.2666,-5.2995,-1.2003,6.340
7.894000,-3.2981,-5.5340,-1.0645,6.530
7.895000,-3.3129,-5.7323,-0.9474,6.688
7.895000,-3.3303,-5.9234,-0.8372,6.847
7.896000,-3.3454,-6.1145,-0.7364,7.009
7.896000,-3.3129,-6.2980,-0.6257,7.144
7.897000,-3.2355,-6.4810,-0.5575,7.265
7.897000,-3.0942,-6.6639,-0.4957,7.364
7.897000,-2.8895,-6.8410,-0.4729,7.441
7.898000,-2.6383,-7.0178,-0.4696,7.512
7.898000,-2.3386,-7.1635,-0.4662,7.550
7.898000,-2.0146,-7.2668,-0.4408,7.554
7.899000,-1.7311,-7.3571,-0.4605,7.572
7.899000,-1.5193,-7.4223,-0.5098,7.593
7.900000,-1.3533,-7.4963,-0.5763,7.639
7.900000,-1.2405,-7.6055,-0.6424,7.733
7.901000,-1.1451,-7.7378,-0.7032,7.854
7.906000,-1.0528,-7.8717,-0.8378,7.986
7.909000,-1.0091,-8.0090,-1.0551,8.141
7.914000,-0.9233,-8.1445,-1.2281,8.288
7.920000,-0.8098,-8.2545,-1.3831,8.409
7.925000,-0.7094,-8.3465,-1.5297,8.515
7.928000,-0.6077,-8.4346,-1.6658,8.619
7.934000,-0.4974,-8.4829,-1.8060,8.687
7.990000,-0.3927,-8.5298,-1.9361,8.756
7.991000,-0.2938,-8.5872,-2.0301,8.829
7.991000,-0.1883,-8.6408,-2.1120,8.897
7.992000,-0.0837,-8.7026,-2.1677,8.969
7.992000,0.0443,-8.7701,-2.2141,9.045
7.992000,0.2170,-8.8654,-2.2369,9.146
7.993000,0.4201,-8.9906,-2.2481,9.277
7.993000,0.6273,-9.1363,-2.2886,9.439
7.993000,0.8052,-9.2478,-2.3701,9.581
7.994000,0.9610,-9.2891,-2.4925,9.666
7.994000,1.0921,-9.2410,-2.6675,9.680
7.995000,1.2131,-9.1591,-2.8565,9.671
7.999000,1.2926,-9.0530,-3.0187,9.630
8.005000,1.3571,-8.9637,-3.1037,9.582
8.010000,1.3755,-8.9103,-3.1667,9.556
8.014000,1.3361,-8.8641,-3.2342,9.530
8.028000,1.2437,-8.7792,-3.3464,9.477
8.030000,1.1344,-8.6153,-3.5034,9.369
8.030000,1.0225,-8.3315,-3.7050,9.175
8.035000,0.9274,-7.9517,-3.9394,8.922
8.101000,0.8325,-7.4999,-4.1612,8.617
8.102000,0.7498,-6.9999,-4.3658,8.284
8.103000,0.6726,-6.4692,-4.5229,7.922
8.103000,0.6370,-5.9218,-4.6139,7.534
8.103000,0.6719,-5.3964,-4.6398,7.148
8.104000,0.7584,-4.8908,-4.6132,6.766
8.104000,0.9109,-4.3793,-4.5183,6.358
8.104000,1.1223,-3.8885,-4.3963,5.976
8.105000,1.3901,-3.4154,-4.2458,5.624
8.106000,1.6782,-2.9795,-4.0692,5.315
8.106000,1.9384,-2.5864,-3.8641,5.038
8.107000,2.1776,-2.2153,-3.6736,4.811
8.107000,2.3598,-1.8497,-3.4665,4.583
8.107000,2.5183,-1.5218,-3.2359,4.374
8.110000,2.6387,-1.2436,-2.9916,4.178
8.117000,2.7162,-1.0295,-2.7386,3.992
8.120000,2.7146,-0.9085,-2.4554,3.771
8.124000,2.6101,-0.8684,-2.1418,3.486
8.130000,2.3907,-0.9022,-1.7787,3.113
8.135000,2.0876,-0.9902,-1.3922,2.698
8.140000,1.7200,-1.0793,-1.0251,2.275
8.143000,1.3095,-1.1690,-0.7342,1.903
8.148000,0.8872,-1.2565,-0.4761,1.610
8.216000,0.4174,-1.3626,-0.2338,1.444
8.217000,-0.0592,-1.4728,-0.0239,1.474
8.220000,-0.5521,-1.5723,0.1588,1.674
8.222000,-1.0755,-1.6532,0.2980,1.995
8.224000,-1.6199,-1.7102,0.3967,2.389
8.226000,-2.1635,-1.7140,0.4456,2.796
8.227000,-2.7111,-1.6883,0.4594,3.227
8.227000,-3.2625,-1.6159,0.4409,3.667
8.229000,-3.7747,-1.4988,0.3902,4.080
8.230000,-4.2762,-1.3701,0.2787,4.499
8.231000,-4.7501,-1.2176,0.1521,4.906
8.231000,-5.1437,-1.0553,0.0200,5.251
8.232000,-5.4979,-0.8760,-0.1104,5.568
8.234000,-5.7908,-0.6748,-0.2679,5.836
8.234000,-6.0153,-0.4707,-0.4357,6.049
8.237000,-6.1475,-0.2541,-0.6212,6.184
8.240000,-6.1850,-0.0180,-0.8101,6.238
8.241000,-6.1157,0.2163,-1.0411,6.207
8.244000,-5.9782,0.4861,-1.2931,6.136
8.250000,-5.7845,0.7627,-1.5469,6.036
8.258000,-5.5849,1.0193,-1.7499,5.941
8.260000,-5.3843,1.2582,-1.8952,5.845
8.264000,-5.1801,1.4770,-1.9758,5.737
8.270000,-4.9988,1.7010,-2.0570,5.667
8.334000,-4.8212,1.9356,-2.1365,5.617
8.337000,-4.6352,2.1683,-2.1929,5.567
8.339000,-4.4383,2.4134,-2.2005,5.510
8.341000,-4.2380,2.6441,-2.1547,5.440
8.341000,-4.0149,2.8654,-2.0752,5.351
8.342000,-3.7863,3.0520,-1.9765,5.250
8.342000,-3.5593,3.2210,-1.8710,5.152
8.343000,-3.3435,3.3649,-1.7967,5.072
8.344000,-3.1176,3.4670,-1.7343,4.975
8.344000,-2.8888,3.5539,-1.6547,4.870
8.345000,-2.6744,3.5911,-1.5479,4.738
8.346000,-2.5103,3.5722,-1.4255,4.593
8.346000,-2.3844,3.5235,-1.2917,4.446
8.347000,-2.2729,3.4645,-1.1343,4.296
8.347000,-2.1661,3.3783,-0.9440,4.123
8.350000,-2.0540,3.2513,-0.7736,3.923
8.355000,-1.9203,3.0924,-0.5849,3.687
8.359000,-1.7193,2.8830,-0.4044,3.381
8.365000,-1.4939,2.6399,-0.2153,3.041
8.374000,-1.2419,2.3442,-0.0273,2.653
8.375000,-0.9674,2.0180,0.1212,2.241
8.380000,-0.6233,1.6799,0.1994,1.803
8.385000,-0.2020,1.3733,0.2192,1.405
8.455000,0.2820,1.0624,0.2122,1.120
8.455000,0.7997,0.7474,0.1882,1.111
8.456000,1.3752,0.4208,0.1209,1.443
8.456000,1.9653,0.1118,0.0062,1.968
8.456000,2.5358,-0.1612,-0.1506,2.545
8.457000,3.0964,-0.4002,-0.3488,3.142
8.457000,3.5822,-0.5863,-0.5733,3.675
8.457000,4.0244,-0.7192,-0.8043,4.167
8.457000,4.4400,-0.7627,-1.0246,4.620
8.458000,4.8165,-0.7343,-1.1959,5.017
8.458000,5.1829,-0.6528,-1.3233,5.389
8.458000,5.5346,-0.5376,-1.3924,5.732
8.459000,5.8908,-0.3766,-1.4276,6.073
8.459000,6.2487,-0.1824,-1.4337,6.414
8.459000,6.6013,0.0428,-1.3917,6.747
8.465000,6.9430,0.2787,-1.3450,7.078
8.471000,7.2906,0.5325,-1.2794,7.421
8.477000,7.6126,0.7633,-1.1997,7.744
8.480000,7.9255,0.9970,-1.1252,8.067
8.484000,8.1935,1.2195,-1.0363,8.348
8.490000,8.4420,1.4035,-0.9383,8.609
8.495000,8.6471,1.5516,-0.7928,8.821
8.499000,8.7754,1.6636,-0.5999,8.952
8.573000,8.8317,1.7253,-0.3839,9.007
8.574000,8.8663,1.7393,-0.0852,9.036
8.575000,8.8963,1.7320,0.2937,9.068
8.575000,8.9573,1.6409,0.7086,9.134
8.576000,9.0065,1.4591,1.1115,9.191
8.576000,9.0369,1.2298,1.4493,9.235
8.576000,8.9938,1.0274,1.7170,9.214
8.577000,8.8344,0.9191,1.8790,9.079
8.577000,8.5875,0.9309,2.0262,8.872
8.577000,8.2892,1.0128,2.1924,8.634
8.578000,7.9687,1.0887,2.3538,8.380
8.578000,7.7270,1.1806,2.4864,8.203
8.578000,7.5811,1.2863,2.5853,8.112
8.579000,7.4617,1.4033,2.6503,8.042
8.579000,7.3829,1.5627,2.6860,8.010
8.579000,7.2609,1.7789,2.6953,7.947
8.586000,7.1125,2.1067,2.7214,7.901
8.590000,6.9400,2.5340,2.7549,7.885
8.596000,6.7766,3.0485,2.8246,7.949
8.601000,6.6002,3.6088,2.9438,8.078
8.607000,6.4250,4.1834,3.0618,8.256
8.619000,6.2721,4.7217,3.2020,8.479
8.620000,6.1580,5.2185,3.3371,8.734
8.621000,6.0753,5.6570,3.4501,8.990
8.672000,6.0475,6.0416,3.5001,9.237
8.677000,6.0431,6.3459,3.4959,9.435
8.679000,6.0500,6.5840,3.4257,9.575
8.680000,6.0773,6.7366,3.2656,9.643
8.682000,6.1346,6.7990,3.0422,9.650
8.683000,6.2289,6.8096,2.7655,9.634
8.684000,6.3289,6.7515,2.4479,9.572
8.685000,6.4158,6.6538,2.1282,9.485
8.686000,6.4893,6.5044,1.8142,9.365
8.687000,6.5495,6.3347,1.5159,9.237
8.688000,6.5965,6.1493,1.2458,9.104
8.690000,6.6184,5.9268,1.0447,8.945
8.692000,6.6277,5.6915,0.9295,8.785
8.693000,6.6241,5.4623,0.8664,8.629
8.696000,6.5936,5.2270,0.8432,8.456
8.700000,6.5292,4.9811,0.8216,8.253
8.710000,6.4429,4.7267,0.8014,8.031
8.714000,6.3203,4.4420,0.7804,7.764
8.716000,6.1648,4.1255,0.7585,7.457
8.788000,6.0002,3.7818,0.7308,7.130
8.789000,5.8174,3.4254,0.6761,6.785
8.789000,5.6477,3.0806,0.5349,6.455
8.789000,5.4696,2.7568,0.3577,6.136
8.790000,5.2984,2.4574,0.1881,5.844
8.790000,5.1314,2.1987,0.0097,5.583
8.790000,4.9639,2.0119,-0.1845,5.359
8.791000,4.7936,1.8586,-0.3463,5.153
8.791000,4.5751,1.7411,-0.4568,4.916
8.791000,4.3105,1.6372,-0.5448,4.643
8.792000,4.0008,1.5479,-0.6058,4.332
8.792000,3.6746,1.4607,-0.6044,4.000
8.792000,3.3226,1.3877,-0.5793,3.647
8.793000,2.9688,1.3216,-0.5451,3.295
8.793000,2.6082,1.2739,-0.5402,2.953
8.796000,2.2394,1.2385,-0.5261,2.613
8.801000,1.8572,1.2079,-0.4957,2.270
8.807000,1.5194,1.1797,-0.4753,1.981
8.810000,1.2330,1.1635,-0.4077,1.744
8.815000,0.9670,1.1473,-0.3048,1.531
8.822000,0.7210,1.1084,-0.2484,1.345
8.827000,0.4838,1.0222,-0.1996,1.148
8.830000,0.2599,0.8617,-0.1850,0.919
8.836000,0.0495,0.6822,-0.2282,0.721
8.900000,-0.1715,0.4860,-0.3144,0.604
8.901000,-0.3912,0.2654,-0.4099,0.626
8.901000,-0.6350,0.0320,-0.5262,0.825
8.902000,-0.8794,-0.2195,-0.6465,1.113
8.902000,-1.1097,-0.4745,-0.7706,1.432
8.903000,-1.3283,-0.7446,-0.9082,1.773
8.903000,-1.5302,-0.9958,-1.0496,2.106
8.904000,-1.7420,-1.2647,-1.1784,2.454
8.904000,-1.9653,-1.5422,-1.2874,2.810
8.904000,-2.1644,-1.8239,-1.3652,3.142
8.905000,-2.3415,-2.1120,-1.4268,3.461
8.905000,-2.4967,-2.4181,-1.4797,3.778
8.906000,-2.6491,-2.7476,-1.5293,4.112
8.906000,-2.7791,-3.0863,-1.5854,4.445
8.911000,-2.8965,-3.4038,-1.6482,4.764
8.917000,-3.0085,-3.7309,-1.7179,5.091
8.922000,-3.1032,-4.0410,-1.7636,5.392
8.926000,-3.1949,-4.3791,-1.7808,5.706
8.932000,-3.2789,-4.7337,-1.7507,6.019
8.936000,-3.3479,-5.1123,-1.6852,6.339
8.941000,-3.4020,-5.4888,-1.5798,6.648
8.946000,-3.4676,-5.8559,-1.4420,6.957
8.951000,-3.5448,-6.1842,-1.2835,7.243
9.018000,-3.6168,-6.4908,-1.1313,7.516
9.019000,-3.6527,-6.7717,-0.9750,7.756
9.019000,-3.6336,-7.0440,-0.8006,7.966
9.020000,-3.5618,-7.2883,-0.6419,8.137
9.020000,-3.4519,-7.5045,-0.5036,8.276
9.020000,-3.2897,-7.7003,-0.3618,8.381
9.021000,-3.1162,-7.8820,-0.2514,8.479
9.021000,-2.9554,-8.0142,-0.1676,8.543
9.022000,-2.8242,-8.1019,-0.1171,8.581
9.022000,-2.7299,-8.1452,-0.0732,8.591
9.022000,-2.6154,-8.1898,-0.0086,8.597
9.023000,-2.4951,-8.2434,0.0694,8.613
9.023000,-2.3790,-8.3129,0.1240,8.648
9.023000,-2.2483,-8.3748,0.0934,8.672
9.025000,-2.0842,-8.4555,0.0171,8.709
9.031000,-1.8965,-8.5386,-0.0541,8.747
9.037000,-1.6663,-8.6457,-0.1154,8.806
9.041000,-1.4109,-8.7721,-0.1655,8.886
9.046000,-1.1353,-8.9088,-0.2306,8.984
9.053000,-0.8633,-9.0607,-0.3251,9.108
9.060000,-0.5761,-9.1874,-0.4443,9.216
9.062000,-0.2640,-9.2915,-0.5930,9.314
9.065000,0.0636,-9.3802,-0.7835,9.413
9.135000,0.3849,-9.4443,-0.9965,9.505
9.136000,0.6977,-9.4886,-1.1942,9.589
9.136000,0.9998,-9.5250,-1.3673,9.674
9.137000,1.2864,-9.5611,-1.4729,9.759
9.137000,1.5622,-9.6376,-1.4918,9.877
9.137000,1.7962,-9.7449,-1.4505,10.015
9.138000,2.0006,-9.8641,-1.4282,10.166
9.138000,2.1323,-9.9375,-1.4706,10.270
9.138000,2.1392,-9.9339,-1.5779,10.283
9.139000,2.0549,-9.8029,-1.7144,10.162
9.139000,1.9227,-9.5873,-1.8466,9.951
9.139000,1.8024,-9.3689,-1.9624,9.740
9.140000,1.6846,-9.1809,-2.0451,9.556
9.140000,1.5861,-9.0474,-2.1311,9.429
9.140000,1.4929,-8.9300,-2.2663,9.333
9.152000,1.3835,-8.7666,-2.4985,9.220
9.153000,1.2438,-8.4993,-2.8491,9.050
9.157000,1.0903,-8.1240,-3.2793,8.828
9.162000,0.9326,-7.6334,-3.7434,8.553
9.167000,0.8091,-7.0968,-4.1931,8.283
9.173000,0.8080,-6.5195,-4.6163,8.029
9.177000,0.9246,-5.9013,-5.0228,7.804
9.181000,1.1395,-5.2751,-5.3768,7.618
9.250000,1.4383,-4.6748,-5.6953,7.507
9.251000,1.7535,-4.1182,-5.9423,7.439
9.251000,2.0228,-3.6131,-6.0938,7.368
9.252000,2.2555,-3.1557,-6.1425,7.265
9.252000,2.4371,-2.7604,-6.0739,7.103
9.253000,2.5435,-2.4146,-5.9414,6.899
9.253000,2.5365,-2.1609,-5.7474,6.644
9.253000,2.4236,-1.9853,-5.4592,6.294
9.254000,2.2291,-1.8850,-5.1016,5.878
9.254000,1.9819,-1.8403,-4.7157,5.436
9.254000,1.7062,-1.8373,-4.3287,5.002
9.255000,1.4211,-1.8635,-3.9309,4.577
9.255000,1.1052,-1.9190,-3.4675,4.114
9.255000,0.7511,-2.0251,-2.9457,3.653
9.257000,0.3378,-2.1742,-2.4162,3.268
9.262000,-0.0701,-2.3322,-1.9078,3.014
9.268000,-0.5132,-2.5086,-1.4566,2.946
9.271000,-0.9815,-2.6714,-1.0122,3.021
9.278000,-1.4607,-2.8417,-0.5698,3.246
9.282000,-1.9648,-2.9808,-0.1507,3.573
9.287000,-2.4651,-3.0901,0.2619,3.962
9.291000,-2.9494,-3.1529,0.5987,4.359
9.296000,-3.4127,-3.1661,0.8671,4.735
9.301000,-3.8432,-3.1271,1.0651,5.068
9.355000,-4.2359,-3.0214,1.2215,5.345
9.356000,-4.6268,-2.8776,1.3268,5.608
9.356000,-4.9820,-2.7145,1.3979,5.843
9.356000,-5.2993,-2.5227,1.4300,6.041
9.357000,-5.5450,-2.3115,1.3894,6.166
9.357000,-5.7118,-2.0927,1.3002,6.221
9.357000,-5.7830,-1.8662,1.1649,6.187
9.357000,-5.7633,-1.6222,0.9645,6.064
9.358000,-5.6197,-1.3232,0.6992,5.816
9.358000,-5.3476,-0.9695,0.3932,5.449
9.358000,-5.0119,-0.6095,0.0613,5.049
9.361000,-4.6563,-0.2487,-0.2244,4.668
9.367000,-4.3190,0.0885,-0.4736,4.346
9.371000,-4.0074,0.4023,-0.7006,4.088
9.378000,-3.6861,0.7222,-0.8839,3.859
9.381000,-3.4148,1.0052,-1.0573,3.713
9.388000,-3.1958,1.2778,-1.2688,3.668
9.392000,-3.0244,1.5519,-1.4654,3.702
9.397000,-2.8500,1.8210,-1.5946,3.739
9.401000,-2.6587,2.0983,-1.6734,3.778
9.462000,-2.4647,2.3533,-1.7233,3.819
9.462000,-2.2752,2.6097,-1.7300,3.870
9.463000,-2.0808,2.8602,-1.6577,3.906
9.463000,-1.9150,3.1142,-1.5236,3.961
9.463000,-1.7752,3.3552,-1.3374,4.025
9.464000,-1.6595,3.5606,-1.1187,4.084
9.464000,-1.5413,3.7283,-0.8654,4.126
9.464000,-1.4230,3.8489,-0.5802,4.144
9.465000,-1.3093,3.9413,-0.2924,4.163
9.465000,-1.2098,4.0177,-0.0258,4.196
9.466000,-1.1034,4.0726,0.2147,4.225
9.466000,-1.0187,4.1039,0.4341,4.251
9.466000,-0.9222,4.1189,0.6396,4.269
9.474000,-0.8331,4.0985,0.8289,4.264
9.478000,-0.7515,4.0188,1.0356,4.218
9.482000,-0.6580,3.8731,1.2452,4.121
9.490000,-0.5721,3.6872,1.4434,4.001
9.495000,-0.4601,3.4472,1.6158,3.835
9.497000,-0.3125,3.2225,1.7192,3.666
9.502000,-0.1557,2.9628,1.7587,3.449
9.578000,-0.0108,2.6903,1.7320,3.200
9.579000,0.1408,2.4069,1.6373,2.914
9.579000,0.3018,2.1228,1.5037,2.619
9.579000,0.5033,1.8405,1.3456,2.335
9.579000,0.7096,1.5723,1.1586,2.078
9.580000,0.9469,1.2850,0.9503,1.858
9.580000,1.2299,1.0338,0.7135,1.758
9.580000,1.5652,0.7970,0.4581,1.815
9.581000,1.9603,0.6250,0.2057,2.068
9.581000,2.3887,0.4769,-0.0676,2.437
9.581000,2.8334,0.3505,-0.3113,2.872
9.582000,3.2971,0.2220,-0.5303,3.347
9.582000,3.7528,0.0861,-0.7455,3.827
9.582000,4.1769,-0.0231,-0.9403,4.281
9.583000,4.5912,-0.0936,-1.1263,4.728
9.583000,4.9906,-0.1254,-1.2795,5.154
9.593000,5.3706,-0.1160,-1.3854,5.548
9.594000,5.7290,-0.0964,-1.4753,5.917
9.599000,6.0414,-0.0501,-1.5418,6.235
9.603000,6.3464,0.0253,-1.5849,6.541
9.609000,6.6414,0.1320,-1.5713,6.826
9.612000,6.9384,0.2413,-1.5347,7.110
9.617000,7.2065,0.3603,-1.4991,7.370
9.677000,7.4663,0.4717,-1.4619,7.623
9.678000,7.7037,0.5803,-1.4159,7.854
9.678000,7.9256,0.6910,-1.3513,8.070
9.678000,8.1078,0.7842,-1.2873,8.247
9.679000,8.2860,0.8911,-1.2045,8.420
9.679000,8.4411,0.9612,-1.0961,8.566
9.679000,8.5723,0.9557,-0.9598,8.679
9.680000,8.6895,0.8892,-0.8101,8.772
9.680000,8.7783,0.7547,-0.6804,8.837
9.681000,8.8365,0.6336,-0.6021,8.880
9.683000,8.8474,0.5835,-0.5863,8.886
9.684000,8.7939,0.6018,-0.5779,8.833
9.686000,8.6358,0.6769,-0.5932,8.683
9.688000,8.4214,0.8019,-0.5674,8.479
9.694000,8.2515,0.9436,-0.4405,8.317
9.697000,8.1645,1.0805,-0.2370,8.239
9.708000,8.1603,1.2098,-0.0007,8.250
9.711000,8.1621,1.3454,0.1911,8.274
9.711000,8.1172,1.5278,0.3431,8.267
9.718000,8.0472,1.8001,0.4746,8.260
9.789000,7.9137,2.1501,0.5282,8.218
9.790000,7.7286,2.5825,0.5762,8.169
9.791000,7.5397,3.0730,0.6038,8.164
9.791000,7.3419,3.6118,0.6184,8.206
9.791000,7.1542,4.1676,0.6603,8.306
9.792000,6.9788,4.7136,0.7506,8.455
9.792000,6.8295,5.2182,0.8718,8.639
9.792000,6.7060,5.6476,1.0236,8.827
9.793000,6.6103,6.0084,1.1880,9.012
9.793000,6.5181,6.2645,1.3075,9.135
9.793000,6.4270,6.4685,1.3818,9.223
9.794000,6.3369,6.6204,1.3870,9.269
9.794000,6.2404,6.7129,1.3451,9.264
9.794000,6.1450,6.7345,1.2678,9.204
9.795000,6.0531,6.6781,1.1319,9.084
9.799000,5.9433,6.5560,0.9832,8.903
9.805000,5.8304,6.3734,0.8484,8.680
9.808000,5.7195,6.1474,0.7277,8.428
9.812000,5.6441,5.9139,0.6549,8.201
9.817000,5.5737,5.6543,0.6129,7.963
9.824000,5.5344,5.3947,0.6259,7.754
9.829000,5.5216,5.1112,0.7174,7.558
9.832000,5.5065,4.8203,0.8104,7.363
9.911000,5.5225,4.5074,0.9023,7.185
9.912000,5.5200,4.1896,0.9879,7.000
9.912000,5.5061,3.8739,1.0742,6.817
9.913000,5.4737,3.5698,1.1204,6.630
9.913000,5.4207,3.2775,1.1005,6.429
9.913000,5.3305,2.9945,1.0361,6.201
9.914000,5.2244,2.6966,0.9607,5.957
9.914000,5.1202,2.4134,0.8597,5.725
9.914000,5.0128,2.1445,0.7334,5.501
9.915000,4.9049,1.8902,0.6085,5.292
9.915000,4.7629,1.6601,0.4949,5.068
9.915000,4.6106,1.4849,0.4000,4.860
9.915000,4.4203,1.3727,0.2758,4.637
9.916000,4.1915,1.3109,0.2016,4.396
9.916000,3.9388,1.2684,0.2082,4.143
9.916000,3.6694,1.2378,0.2616,3.881
9.918000,3.3738,1.2238,0.3734,3.608
9.924000,3.0780,1.2567,0.3808,3.346
9.928000,2.7734,1.3184,0.3173,3.087
9.932000,2.4645,1.3822,0.2432,2.836
9.941000,2.1321,1.4219,0.1729,2.569
9.944000,1.8098,1.4517,0.1715,2.326
9.947000,1.5002,1.4599,0.1694,2.100
9.952000,1.2361,1.4766,0.2241,1.939
10.037000,0.9824,1.4647,0.2899,1.787
10.038000,0.7032,1.4140,0.3141,1.610
10.038000,0.4367,1.3557,0.2993,1.455
10.039000,0.2094,1.2684,0.2717,1.314
10.039000,-0.0054,1.1422,0.1865,1.157
10.039000,-0.1947,0.9832,0.1013,1.007
10.040000,-0.3543,0.7910,0.0092,0.867
10.040000,-0.5055,0.5801,-0.1019,0.776
10.040000,-0.5979,0.3579,-0.1983,0.725
10.041000,-0.6890,0.1243,-0.3015,0.762
10.041000,-0.7959,-0.1380,-0.4065,0.904
10.041000,-0.9463,-0.4201,-0.4871,1.144
10.042000,-1.1092,-0.7202,-0.5341,1.426
10.042000,-1.2892,-1.0213,-0.5481,1.734
10.042000,-1.4670,-1.3280,-0.5701,2.059
10.042000,-1.6591,-1.6287,-0.6200,2.406
10.043000,-1.8602,-1.9407,-0.6835,2.774
10.043000,-2.0392,-2.2738,-0.7297,3.140
10.049000,-2.2175,-2.6180,-0.7852,3.520
10.054000,-2.3520,-2.9776,-0.8213,3.882
10.059000,-2.4808,-3.3519,-0.8479,4.255
10.064000,-2.5850,-3.7032,-0.8842,4.602
10.068000,-2.6546,-4.0438,-0.8941,4.919
10.073000,-2.6876,-4.3838,-0.8922,5.219
10.078000,-2.6865,-4.6944,-0.8855,5.481
10.087000,-2.6872,-5.0136,-0.8454,5.751
10.088000,-2.6971,-5.3444,-0.7888,6.038
10.156000,-2.7042,-5.6492,-0.7201,6.304
10.157000,-2.6964,-5.9453,-0.6183,6.557
10.157000,-2.6788,-6.2541,-0.4787,6.820
10.158000,-2.6513,-6.5680,-0.3278,7.091
10.158000,-2.6307,-6.8893,-0.1991,7.377
10.159000,-2.6004,-7.1992,-0.0712,7.655
10.159000,-2.5724,-7.5223,0.0566,7.950
10.159000,-2.5517,-7.8327,0.1511,8.239
10.160000,-2.5456,-8.1372,0.1959,8.528
10.160000,-2.5495,-8.4138,0.1915,8.794
10.160000,-2.5300,-8.6386,0.1739,9.003
10.161000,-2.4924,-8.8155,0.1420,9.162
10.161000,-2.4345,-8.9402,0.0865,9.266
10.161000,-2.3541,-9.0291,0.0245,9.331
10.164000,-2.2181,-9.0920,-0.0863,9.359
10.169000,-1.9958,-9.1287,-0.1379,9.345
10.173000,-1.7065,-9.1471,-0.1758,9.307
10.178000,-1.3818,-9.1308,-0.2300,9.238
10.182000,-1.0650,-9.1237,-0.2407,9.189
10.245000,-0.7467,-9.1145,-0.2076,9.147
10.247000,-0.4317,-9.0749,-0.2004,9.087
10.249000,-0.1418,-9.0413,-0.2307,9.045
10.250000,0.1276,-9.0000,-0.2907,9.006
10.252000,0.3647,-8.9778,-0.3736,8.993
10.254000,0.5812,-8.9701,-0.4745,9.001
10.256000,0.7701,-8.9892,-0.5862,9.041
10.258000,0.9265,-9.0470,-0.7324,9.124
10.259000,1.1005,-9.1651,-0.8915,9.274
10.260000,1.2612,-9.3458,-1.0899,9.493
10.260000,1.4181,-9.5694,-1.3585,9.769
10.261000,1.5378,-9.7566,-1.7117,10.024
10.261000,1.6131,-9.8210,-2.1561,10.183
10.262000,1.6321,-9.7862,-2.6224,10.262
10.263000,1.6069,-9.6668,-3.0075,10.251
10.263000,1.5665,-9.5632,-3.3025,10.238
10.269000,1.5638,-9.5041,-3.5199,10.255
10.283000,1.4673,-9.4538,-3.7127,10.262
10.284000,1.4163,-9.3761,-3.8793,10.245
10.286000,1.3225,-9.2000,-4.1113,10.163
10.347000,1.1647,-8.8942,-4.4566,10.016
10.347000,0.9669,-8.4537,-4.8770,9.807
10.348000,0.7557,-7.9240,-5.2958,9.561
10.348000,0.5838,-7.3575,-5.6485,9.294
10.348000,0.4944,-6.7994,-5.9403,9.042
10.349000,0.5211,-6.2580,-6.1599,8.797
10.349000,0.6520,-5.7646,-6.3103,8.572
10.349000,0.8630,-5.3177,-6.3681,8.341
10.350000,1.1303,-4.8870,-6.3627,8.102
10.350000,1.4224,-4.4731,-6.3323,7.882
10.350000,1.6912,-4.1021,-6.3156,7.718
10.351000,1.9316,-3.7863,-6.2501,7.558
10.351000,2.1290,-3.5553,-6.1430,7.410
10.358000,2.2284,-3.3999,-5.9419,7.199
10.359000,2.2128,-3.3228,-5.6951,6.955
10.363000,2.0611,-3.3308,-5.4143,6.683
10.370000,1.7875,-3.4048,-5.0735,6.366
10.374000,1.4474,-3.5226,-4.6584,6.017
10.378000,1.0646,-3.6576,-4.1857,5.660
10.383000,0.6034,-3.8286,-3.7009,5.359
10.462000,0.0641,-4.0085,-3.2253,5.145
10.463000,-0.5223,-4.1638,-2.7828,5.035
10.463000,-1.1723,-4.3198,-2.3562,5.058
10.463000,-1.8593,-4.4568,-1.9356,5.203
10.464000,-2.5761,-4.5591,-1.5417,5.459
10.464000,-3.2484,-4.6118,-1.1619,5.759
10.464000,-3.8691,-4.6186,-0.8001,6.078
10.465000,-4.4287,-4.5605,-0.4463,6.373
10.465000,-4.9080,-4.4274,-0.1074,6.611
10.466000,-5.3143,-4.2408,0.2146,6.802
10.466000,-5.6811,-4.0151,0.5077,6.975
10.466000,-5.9819,-3.7357,0.7601,7.093
10.467000,-6.2194,-3.4301,0.9786,7.170
10.467000,-6.3960,-3.1054,1.1442,7.202
10.467000,-6.5333,-2.7955,1.2542,7.216
10.468000,-6.6263,-2.4814,1.3009,7.194
10.470000,-6.6628,-2.1800,1.2647,7.124
10.474000,-6.6354,-1.8982,1.1165,6.991
10.480000,-6.5205,-1.6177,0.8989,6.778
10.484000,-6.3130,-1.3382,0.5951,6.481
10.491000,-6.0274,-1.0622,0.2336,6.125
10.495000,-5.7140,-0.7828,-0.1473,5.769
10.499000,-5.4109,-0.5187,-0.5380,5.462
10.581000,-5.1018,-0.2186,-0.8593,5.178
10.582000,-4.7918,0.0841,-1.1756,4.935
10.582000,-4.5094,0.4084,-1.3985,4.739
10.583000,-4.2259,0.7280,-1.5210,4.550
10.583000,-3.9675,1.0285,-1.5508,4.382
10.583000,-3.7291,1.3079,-1.5165,4.233
10.584000,-3.5040,1.5867,-1.4116,4.097
10.584000,-3.2943,1.8629,-1.2529,3.987
10.584000,-3.0857,2.1673,-1.0524,3.915
10.585000,-2.8616,2.4900,-0.7578,3.868
10.585000,-2.6316,2.7857,-0.4173,3.855
10.585000,-2.4465,3.0433,-0.0290,3.905
10.586000,-2.3109,3.2680,0.3611,4.019
10.586000,-2.1601,3.4642,0.7379,4.149
10.586000,-2.0399,3.6172,1.0871,4.293
10.587000,-1.9290,3.7220,1.4276,4.429
10.587000,-1.8487,3.7791,1.7140,4.543
10.591000,-1.7587,3.8019,1.9149,4.606
10.594000,-1.6373,3.7697,2.0498,4.593
10.600000,-1.4965,3.7017,2.1259,4.523
10.607000,-1.3195,3.5813,2.1411,4.376
10.610000,-1.0894,3.4160,2.0621,4.136
10.614000,-0.8191,3.2198,1.8757,3.815
10.620000,-0.5347,2.9954,1.6322,3.453
10.690000,-0.2170,2.7384,1.3420,3.057
10.691000,0.1219,2.5017,1.0103,2.701
10.692000,0.4845,2.2950,0.6492,2.434
10.692000,0.8617,2.1259,0.2733,2.310
10.692000,1.2215,1.9463,-0.0831,2.299
10.692000,1.5740,1.7685,-0.3723,2.397
10.693000,1.9170,1.5998,-0.6419,2.578
10.693000,2.3005,1.4357,-0.8751,2.849
10.693000,2.7441,1.2763,-1.1008,3.220
10.694000,3.2325,1.1163,-1.3231,3.667
10.694000,3.7634,0.9608,-1.5325,4.176
10.694000,4.3274,0.8339,-1.7455,4.740
10.695000,4.9073,0.7331,-1.9879,5.345
10.695000,5.4837,0.6513,-2.2375,5.958
10.695000,6.0714,0.5940,-2.4745,6.583
10.701000,6.6406,0.5678,-2.6696,7.180
10.705000,7.1917,0.5827,-2.8128,7.744
10.710000,7.7049,0.6407,-2.8823,8.251
10.714000,8.1922,0.7418,-2.8445,8.704
10.723000,8.6151,0.8930,-2.7524,9.088
10.725000,8.9440,1.0527,-2.6299,9.382
10.729000,9.1575,1.2138,-2.4554,9.558
10.734000,9.2890,1.3522,-2.1959,9.640
10.815000,9.3288,1.4793,-1.8567,9.626
10.816000,9.2963,1.5737,-1.5415,9.554
10.817000,9.1990,1.6451,-1.2647,9.430
10.819000,9.0824,1.6883,-1.0197,9.294
10.821000,8.9251,1.6918,-0.7827,9.118
10.822000,8.7490,1.6890,-0.5325,8.926
10.823000,8.5879,1.6897,-0.2644,8.757
10.824000,8.4514,1.6511,0.0216,8.611
10.826000,8.3299,1.5848,0.3511,8.487
10.826000,8.2380,1.4767,0.6950,8.398
10.827000,8.2144,1.3459,0.9811,8.382
10.829000,8.2301,1.1854,1.1831,8.399
10.830000,8.2542,1.0073,1.2962,8.416
10.831000,8.2390,0.8930,1.2995,8.389
10.832000,8.1891,0.8521,1.2410,8.326
10.835000,8.1381,0.9086,1.2266,8.280
10.837000,8.0360,0.9764,1.2203,8.187
10.841000,7.9354,1.0413,1.2223,8.096
10.841000,7.8631,1.1155,1.2496,8.040
10.841000,7.8236,1.1869,1.2753,8.015
10.843000,7.7835,1.3295,1.2660,7.997
10.851000,7.7235,1.5384,1.2145,7.968
10.852000,7.6580,1.8567,1.1452,7.963
10.860000,7.5630,2.2435,1.0437,7.957
10.860000,7.4356,2.7177,0.9775,7.977
10.865000,7.2902,3.2237,0.9531,8.028
10.870000,7.1168,3.7447,0.9610,8.099
10.943000,6.9633,4.2421,1.0605,8.222
10.947000,6.8246,4.7037,1.2081,8.376
10.948000,6.7125,5.1198,1.3719,8.553
10.949000,6.6985,5.4635,1.4960,8.773
10.950000,6.5792,5.7756,1.5924,8.898
10.952000,6.5694,6.0127,1.7254,9.071
10.953000,6.5899,6.1746,1.8829,9.225
10.954000,6.6644,6.2755,2.0189,9.374
10.955000,6.7805,6.3033,2.1069,9.495
10.956000,6.8786,6.2844,2.1806,9.569
10.957000,6.9991,6.2355,2.1852,9.625
10.959000,7.0895,6.1399,2.1760,9.628
10.959000,7.1259,6.0121,2.2152,9.583
10.960000,7.1442,5.8637,2.2668,9.516
10.961000,7.1593,5.6856,2.2778,9.422
10.961000,7.1518,5.4798,2.3177,9.303
10.962000,7.1169,5.2654,2.3052,9.148
10.963000,7.0713,5.0350,2.3453,8.992
10.970000,6.9626,4.7788,2.4091,8.782
10.973000,6.8385,4.5062,2.4367,8.545
10.975000,6.6500,4.2181,2.3396,8.215
10.981000,6.4427,3.9215,2.1710,7.849
10.987000,6.2360,3.6408,1.9265,7.474
11.075000,6.0540,3.3353,1.6833,7.114
11.076000,5.8822,3.0168,1.5686,6.794
11.076000,5.7406,2.7053,1.4627,6.512
11.077000,5.6218,2.4315,1.3417,6.270
11.077000,5.4852,2.2024,1.2653,6.045
11.077000,5.2903,2.0275,1.1259,5.776
11.077000,5.0445,1.8828,1.0458,5.485
11.078000,4.7976,1.7582,0.9868,5.204
11.078000,4.5030,1.6403,0.8986,4.876
11.078000,4.1964,1.5216,0.7715,4.530
11.079000,3.8876,1.3927,0.6868,4.186
11.079000,3.5674,1.2584,0.6278,3.835
11.079000,3.2615,1.1418,0.6062,3.508
11.080000,2.9017,1.0348,0.5290,3.126
11.080000,2.5716,0.9439,0.4893,2.783
11.080000,2.2904,0.8740,0.4486,2.492
11.081000,1.9936,0.7841,0.3590,2.172
11.081000,1.7218,0.6818,0.2617,1.870
11.081000,1.4485,0.5592,0.2047,1.566
11.085000,1.1962,0.4058,0.1667,1.274
11.139000,0.9549,0.2376,0.0593,0.986
11.140000,0.7149,0.0429,-0.0644,0.719
11.140000,0.4693,-0.1854,-0.2329,0.556
11.141000,0.2106,-0.4479,-0.4312,0.656
11.141000,-0.0603,-0.7209,-0.6206,0.953
11.142000,-0.3363,-1.0098,-0.8107,1.338
11.142000,-0.6004,-1.2996,-0.9872,1.739
11.142000,-0.8478,-1.5827,-1.1809,2.149
11.143000,-1.0974,-1.8850,-1.3299,2.555
11.143000,-1.3588,-2.1734,-1.4583,2.949
11.143000,-1.5953,-2.4385,-1.5426,3.297
11.146000,-1.7856,-2.6786,-1.6194,3.604
11.150000,-1.9200,-2.9078,-1.7011,3.878
11.157000,-2.0368,-3.1354,-1.7598,4.132
11.161000,-2.1408,-3.3526,-1.7744,4.356
11.165000,-2.1933,-3.5790,-1.7360,4.542
11.170000,-2.2305,-3.8108,-1.6812,4.725
11.245000,-2.2689,-4.0430,-1.6226,4.912
11.246000,-2.2656,-4.2873,-1.5271,5.084
11.247000,-2.2324,-4.5391,-1.4309,5.257
11.247000,-2.1578,-4.8157,-1.3296,5.442
11.247000,-2.0773,-5.0938,-1.2252,5.636
11.248000,-2.0080,-5.3624,-1.1077,5.832
11.248000,-1.9478,-5.6381,-1.0080,6.050
11.248000,-1.9134,-5.9182,-0.9277,6.289
11.249000,-1.8933,-6.2154,-0.8499,6.553
11.249000,-1.8706,-6.5232,-0.7571,6.828
11.250000,-1.8502,-6.8373,-0.7164,7.119
11.250000,-1.8538,-7.1716,-0.7035,7.441
11.250000,-1.8434,-7.5018,-0.6794,7.755
11.250000,-1.8144,-7.8397,-0.6557,8.074
11.251000,-1.8100,-8.1785,-0.6563,8.402
11.251000,-1.8187,-8.5213,-0.6609,8.738
11.259000,-1.8263,-8.8351,-0.6621,9.046
11.262000,-1.8256,-9.1126,-0.6290,9.315
11.265000,-1.8745,-9.3490,-0.6664,9.558
11.353000,-1.9419,-9.5303,-0.7475,9.755
11.354000,-2.0020,-9.6868,-0.8332,9.927
11.354000,-2.0694,-9.8450,-0.9376,10.104
11.355000,-2.1347,-9.9855,-1.0652,10.267
11.355000,-2.1766,-10.1057,-1.1893,10.406
11.355000,-2.1786,-10.2222,-1.3026,10.533
11.356000,-2.1456,-10.3233,-1.3960,10.636
11.356000,-2.0705,-10.4228,-1.4645,10.727
11.357000,-1.9772,-10.4830,-1.5205,10.776
11.357000,-1.9087,-10.5424,-1.6145,10.835
11.358000,-1.8413,-10.5794,-1.7082,10.873
11.358000,-1.7557,-10.5702,-1.8158,10.868
11.359000,-1.6975,-10.5534,-1.9327,10.862
11.359000,-1.6306,-10.5361,-2.0521,10.857
11.360000,-1.5430,-10.5204,-2.1645,10.851
11.360000,-1.4250,-10.5233,-2.2608,10.857
11.360000,-1.2430,-10.5687,-2.3293,10.893
11.361000,-1.0281,-10.6828,-2.3724,10.991
11.361000,-0.8137,-10.8514,-2.4266,11.149
11.366000,-0.6188,-10.9379,-2.5251,11.243
11.372000,-0.4697,-10.9020,-2.7039,11.242
11.376000,-0.3973,-10.7272,-2.9124,11.123
11.381000,-0.4231,-10.4588,-3.1003,10.917
11.385000,-0.4749,-10.1454,-3.2561,10.666
11.396000,-0.5120,-9.8302,-3.3296,10.391
11.397000,-0.5580,-9.5709,-3.3501,10.156
11.400000,-0.5865,-9.3177,-3.4088,9.939
11.459000,-0.5998,-9.0158,-3.5392,9.704
11.460000,-0.6289,-8.6317,-3.6959,9.411
11.460000,-0.6665,-8.1761,-3.9316,9.097
11.461000,-0.7199,-7.6920,-4.2289,8.807
11.461000,-0.7389,-7.2556,-4.5278,8.584
11.462000,-0.6972,-6.8526,-4.7992,8.395
11.462000,-0.5636,-6.4655,-5.0312,8.212
11.463000,-0.3431,-6.0908,-5.2312,8.036
11.463000,-0.0381,-5.7307,-5.3655,7.850
11.463000,0.3203,-5.3809,-5.4057,7.634
11.464000,0.7248,-5.0397,-5.3784,7.406
11.464000,1.1824,-4.6934,-5.2404,7.134
11.465000,1.6379,-4.3643,-4.9586,6.806
11.515000,2.0789,-4.0547,-4.5979,6.473
11.515000,2.4886,-3.7293,-4.1895,6.136
11.516000,2.8214,-3.4487,-3.7196,5.804
11.516000,2.9984,-3.2495,-3.2345,5.478
11.516000,2.9746,-3.0782,-2.7464,5.086
11.516000,2.8240,-2.9670,-2.2172,4.658
11.516000,2.5852,-2.9224,-1.6593,4.240
11.517000,2.2918,-2.9487,-1.1112,3.896
11.517000,1.9079,-2.9810,-0.5823,3.587
11.517000,1.4720,-3.0118,-0.1037,3.354
11.523000,0.9626,-3.0595,0.3180,3.223
11.528000,0.3700,-3.0813,0.6687,3.175
11.531000,-0.3103,-3.1047,0.9539,3.263
11.540000,-1.0017,-3.0979,1.1837,3.464
11.542000,-1.7183,-3.0529,1.3225,3.745
11.547000,-2.3952,-2.9685,1.3783,4.056
11.551000,-3.0135,-2.8253,1.3683,4.352
11.611000,-3.5803,-2.6514,1.3240,4.648
11.611000,-4.0594,-2.4535,1.2338,4.901
11.612000,-4.4725,-2.2575,1.1168,5.133
11.612000,-4.7716,-2.0372,0.9873,5.281
11.613000,-4.9877,-1.7922,0.8357,5.365
11.613000,-5.1259,-1.5331,0.6761,5.393
11.613000,-5.2077,-1.2717,0.4869,5.383
11.614000,-5.2210,-1.0012,0.2511,5.322
11.614000,-5.1827,-0.7215,-0.0266,5.233
11.614000,-5.0568,-0.4373,-0.3172,5.086
11.615000,-4.8795,-0.1496,-0.6332,4.923
11.615000,-4.6483,0.1346,-0.9529,4.747
11.618000,-4.3992,0.4224,-1.2717,4.599
11.623000,-4.1514,0.7016,-1.5533,4.488
11.626000,-3.8762,0.9792,-1.7645,4.370
11.632000,-3.6119,1.2507,-1.9001,4.269
11.641000,-3.3756,1.5197,-1.9631,4.190
11.642000,-3.1552,1.8078,-1.9607,4.131
11.646000,-2.9482,2.0814,-1.8910,4.074
11.651000,-2.7786,2.3616,-1.7618,4.050
11.724000,-2.6339,2.6370,-1.6309,4.068
11.725000,-2.4812,2.9231,-1.5082,4.120
11.725000,-2.3179,3.2036,-1.3938,4.193
11.725000,-2.1512,3.4639,-1.2784,4.273
11.726000,-1.9930,3.7015,-1.1643,4.362
11.726000,-1.7935,3.9212,-0.9510,4.416
11.727000,-1.5403,4.1279,-0.6821,4.458
11.727000,-1.3061,4.2964,-0.4038,4.509
11.727000,-1.1240,4.4270,-0.1400,4.570
11.728000,-0.9750,4.5174,0.1353,4.623
11.728000,-0.8542,4.5771,0.4076,4.674
11.728000,-0.7205,4.5948,0.6915,4.702
11.729000,-0.5388,4.5696,0.9674,4.702
11.729000,-0.3281,4.5114,1.1971,4.679
11.729000,-0.1126,4.4009,1.3496,4.605
11.732000,0.1030,4.2454,1.3989,4.471
11.737000,0.2922,4.0595,1.3385,4.284
11.741000,0.4743,3.8630,1.2195,4.079
11.747000,0.6632,3.6482,1.0761,3.861
11.751000,0.8950,3.4063,0.9110,3.638
11.757000,1.1554,3.1567,0.7152,3.437
11.762000,1.4612,2.9141,0.4913,3.297
11.766000,1.7935,2.6621,0.2566,3.220
11.851000,2.1444,2.4363,0.0380,3.246
11.851000,2.5335,2.2107,-0.1548,3.366
11.852000,2.9750,2.0120,-0.3572,3.609
11.852000,3.4688,1.8521,-0.5235,3.967
11.852000,4.0124,1.7262,-0.6007,4.409
11.853000,4.5937,1.6271,-0.6151,4.912
11.853000,5.1402,1.5541,-0.5309,5.396
11.854000,5.6689,1.5097,-0.3795,5.879
11.854000,6.1558,1.4746,-0.1562,6.332
11.854000,6.5744,1.4606,0.0622,6.735
11.854000,6.9778,1.4560,0.3237,7.135
11.855000,7.4012,1.4814,0.6731,7.578
11.855000,7.7682,1.5130,1.0524,7.984
11.856000,8.1287,1.5647,1.4395,8.402
11.856000,8.4661,1.6242,1.7857,8.804
11.856000,8.5052,1.7128,2.0767,8.921
11.857000,9.0068,1.8044,2.3292,9.476
11.859000,9.1733,1.9101,2.5644,9.715
11.861000,9.2946,2.0207,2.7895,9.912
11.866000,9.3968,2.1574,3.0330,10.107
11.871000,9.4988,2.3055,3.2420,10.298
11.879000,9.6149,2.4316,3.4518,10.501
11.883000,9.7420,2.5181,3.6451,10.702
11.890000,9.8776,2.5459,3.8118,10.889
11.891000,10.0168,2.4886,3.8774,11.026
11.897000,10.1404,2.3583,3.8902,11.114
11.901000,10.2247,2.1411,3.8551,11.135
11.979000,10.2674,1.8611,3.7867,11.101
11.979000,10.2040,1.6118,3.5993,10.940
11.980000,10.0539,1.4868,3.2485,10.670
11.980000,9.8388,1.4935,2.8049,10.339
11.981000,9.5612,1.5868,2.3412,9.971
11.981000,9.3147,1.7357,1.9156,9.667
11.981000,9.1088,1.8735,1.6026,9.437
11.982000,8.9629,1.9787,1.3831,9.282
11.982000,8.8791,2.1017,1.2065,9.204
11.982000,8.8120,2.2685,1.0918,9.165
11.983000,8.7302,2.4957,1.0009,9.135
11.983000,8.5928,2.7854,0.9624,9.084
11.983000,8.3949,3.1420,0.9880,9.018
11.984000,8.1702,3.5270,1.0366,8.959
11.984000,7.9113,3.9043,1.0984,8.890
11.984000,7.6589,4.2737,1.2088,8.853
11.988000,7.4056,4.6037,1.3768,8.828
11.994000,7.1780,4.8679,1.5321,8.807
11.998000,6.9496,5.0636,1.6191,8.750
12.003000,6.7132,5.1715,1.6473,8.633
12.009000,6.4881,5.2275,1.6689,8.497
12.012000,6.2432,5.2053,1.6647,8.297
12.017000,5.9690,5.1048,1.6324,8.022
12.087000,5.6881,4.9627,1.5023,7.697
12.088000,5.4147,4.7694,1.2966,7.331
12.089000,5.2042,4.5469,1.0874,6.996
12.089000,5.0616,4.3407,0.8749,6.725
12.089000,4.9386,4.0740,0.6908,6.439
12.090000,4.8002,3.7574,0.5497,6.121
12.090000,4.6319,3.4359,0.4848,5.787
12.090000,4.4316,3.1267,0.4603,5.443
12.091000,4.2285,2.8512,0.5045,5.125
12.091000,3.9917,2.5857,0.5765,4.791
12.091000,3.7618,2.3395,0.6591,4.479
12.091000,3.5567,2.1111,0.7162,4.198
12.092000,3.3832,1.8858,0.7742,3.950
12.092000,3.2245,1.6637,0.8497,3.727
12.093000,3.0640,1.4542,0.9212,3.514
12.098000,2.8846,1.2569,1.0508,3.317
12.102000,2.7232,1.0727,1.0970,3.126
12.108000,2.5435,0.9012,1.0502,2.896
12.113000,2.3386,0.7665,1.0401,2.672
12.117000,2.1564,0.6638,0.9807,2.460
12.123000,1.9964,0.5590,0.9052,2.262
12.128000,1.8429,0.4702,0.8594,2.087
12.132000,1.7169,0.3943,0.8361,1.950
12.206000,1.5970,0.3433,0.8255,1.830
12.208000,1.4568,0.3266,0.7871,1.688
12.208000,1.3249,0.3201,0.7688,1.565
12.209000,1.1915,0.3303,0.7466,1.444
12.210000,1.0714,0.3414,0.7400,1.346
12.210000,0.9190,0.3097,0.7009,1.197
12.211000,0.7629,0.2616,0.6751,1.052
12.211000,0.6176,0.1898,0.6388,0.909
12.211000,0.4683,0.0865,0.5945,0.762
12.212000,0.3276,-0.0134,0.5284,0.622
12.212000,0.1689,-0.1104,0.4266,0.472
12.213000,0.0330,-0.2308,0.3348,0.408
12.213000,-0.0993,-0.3909,0.2340,0.466
12.214000,-0.2280,-0.5837,0.1626,0.647
12.214000,-0.3149,-0.7809,0.1253,0.851
12.215000,-0.3882,-1.0003,0.0600,1.075
12.218000,-0.4459,-1.2450,-0.0236,1.323
12.225000,-0.4902,-1.5172,-0.1354,1.600
12.227000,-0.5353,-1.8287,-0.2728,1.925
12.233000,-0.6004,-2.1528,-0.4188,2.274
12.241000,-0.6737,-2.4686,-0.5516,2.618
12.244000,-0.7691,-2.7789,-0.6782,2.962
12.248000,-0.9032,-3.1059,-0.8251,3.338
12.252000,-1.0571,-3.4179,-0.9396,3.699
12.324000,-1.2112,-3.7266,-0.9980,4.044
12.328000,-1.3896,-4.0374,-1.0584,4.399
12.329000,-1.5798,-4.3268,-1.0969,4.735
12.330000,-1.7508,-4.6214,-1.1426,5.072
12.331000,-1.9170,-4.9018,-1.2076,5.400
12.333000,-2.0758,-5.1676,-1.2634,5.710
12.333000,-2.2034,-5.4040,-1.3389,5.988
12.335000,-2.3501,-5.6236,-1.4292,6.260
12.336000,-2.4992,-5.8125,-1.5056,6.504
12.338000,-2.6365,-5.9928,-1.5514,6.728
12.339000,-2.7619,-6.1717,-1.5574,6.939
12.339000,-2.8732,-6.3679,-1.5593,7.158
12.340000,-2.9491,-6.5557,-1.5719,7.358
12.340000,-3.0303,-6.7409,-1.5733,7.556
12.341000,-3.1097,-6.9049,-1.5945,7.739
12.341000,-3.1517,-7.0476,-1.6284,7.890
12.342000,-3.1731,-7.1954,-1.6868,8.043
12.342000,-3.1958,-7.3529,-1.7526,8.207
12.348000,-3.1864,-7.4943,-1.8209,8.345
12.354000,-3.1692,-7.6353,-1.8934,8.481
12.359000,-3.1586,-7.7883,-1.9702,8.632
12.362000,-3.1356,-7.9363,-2.0487,8.776
12.367000,-3.0980,-8.0817,-2.1309,8.914
12.450000,-3.0604,-8.2246,-2.2171,9.051
12.451000,-3.0179,-8.3739,-2.2973,9.193
12.455000,-2.9589,-8.5082,-2.3811,9.317
12.457000,-2.8833,-8.6322,-2.4494,9.425
12.459000,-2.7960,-8.7650,-2.4999,9.534
12.460000,-2.7185,-8.8777,-2.5279,9.623
12.460000,-2.6174,-8.9896,-2.5454,9.703
12.461000,-2.4999,-9.0837,-2.5550,9.762
12.461000,-2.3515,-9.1579,-2.5593,9.795
12.463000,-2.1747,-9.2337,-2.5678,9.828
12.464000,-1.9981,-9.2968,-2.5711,9.851
12.465000,-1.7835,-9.3306,-2.5549,9.837
12.465000,-1.5572,-9.3283,-2.5289,9.790
12.466000,-1.3119,-9.2806,-2.4906,9.698
12.466000,-1.0813,-9.2046,-2.4567,9.588
12.467000,-0.8510,-9.1153,-2.4079,9.466
12.468000,-0.6234,-9.0633,-2.3176,9.376
12.469000,-0.4271,-9.0916,-2.2051,9.365
12.470000,-0.2552,-9.1576,-2.1083,9.401
12.470000,-0.1242,-9.2300,-2.0679,9.460
12.476000,-0.0270,-9.2608,-2.0882,9.493
12.479000,0.0389,-9.2383,-2.1524,9.486
12.484000,0.0519,-9.1547,-2.2698,9.432
12.492000,-0.0119,-9.0183,-2.4325,9.341
12.495000,-0.1023,-8.8644,-2.5853,9.234
12.498000,-0.2263,-8.7146,-2.7165,9.131
12.581000,-0.3453,-8.5591,-2.8743,9.035
12.583000,-0.4591,-8.3712,-3.0778,8.931
12.583000,-0.5557,-8.0954,-3.2885,8.756
12.583000,-0.6254,-7.7329,-3.5212,8.520
12.584000,-0.6801,-7.2761,-3.7591,8.218
12.584000,-0.6910,-6.7874,-3.9423,7.880
12.585000,-0.6029,-6.2836,-4.1022,7.528
12.585000,-0.3895,-5.8077,-4.2149,7.187
12.586000,-0.0989,-5.3184,-4.2309,6.797
12.586000,0.2429,-4.8207,-4.1959,6.396
12.586000,0.6092,-4.3299,-4.1077,5.999
12.587000,1.0071,-3.8827,-3.9737,5.646
12.587000,1.4078,-3.4652,-3.7893,5.324
12.587000,1.8182,-3.1175,-3.5955,5.094
12.588000,2.1950,-2.8061,-3.3731,4.906
12.588000,2.5021,-2.5176,-3.1342,4.735
12.588000,2.7299,-2.2594,-2.8814,4.567
12.589000,2.8902,-2.0177,-2.5742,4.365
12.593000,2.9330,-1.8307,-2.2297,4.114
12.598000,2.8389,-1.7015,-1.8771,3.805
12.672000,2.6226,-1.6416,-1.4855,3.432
12.673000,2.3059,-1.6363,-1.0768,3.026
12.673000,1.9345,-1.6517,-0.6799,2.633
12.674000,1.5275,-1.7015,-0.3282,2.310
12.674000,1.0992,-1.7764,-0.0502,2.090
12.674000,0.6233,-1.8563,0.1593,1.965
12.675000,0.1145,-1.9240,0.2912,1.949
12.675000,-0.4106,-1.9788,0.3817,2.057
12.675000,-0.9422,-2.0272,0.4315,2.277
12.676000,-1.4705,-2.0513,0.4503,2.564
12.676000,-1.9956,-2.0392,0.4219,2.884
12.676000,-2.4886,-1.9830,0.3610,3.202
12.677000,-2.9517,-1.9109,0.2821,3.528
12.677000,-3.3656,-1.8008,0.1756,3.821
12.677000,-3.7253,-1.6664,0.0035,4.081
12.679000,-4.0093,-1.5008,-0.1794,4.285
12.684000,-4.2081,-1.2872,-0.3416,4.414
12.691000,-4.3336,-1.0258,-0.4978,4.481
12.694000,-4.4027,-0.7526,-0.6744,4.517
12.698000,-4.4105,-0.4630,-0.8691,4.519
12.769000,-4.3378,-0.1520,-1.0676,4.470
12.771000,-4.1611,0.1554,-1.2774,4.356
12.771000,-3.9092,0.4643,-1.5077,4.216
12.771000,-3.6253,0.7765,-1.7060,4.081
12.772000,-3.3336,1.0988,-1.8556,3.970
12.773000,-3.0555,1.4074,-1.9443,3.886
12.774000,-2.8132,1.7108,-1.9580,3.831
12.776000,-2.5896,2.0066,-1.8944,3.784
12.776000,-2.3993,2.3281,-1.7730,3.784
12.777000,-2.2183,2.6319,-1.6348,3.811
12.778000,-2.0396,2.9296,-1.4969,3.871
12.779000,-1.8726,3.2117,-1.3261,3.947
12.779000,-1.7297,3.4724,-1.1542,4.047
12.780000,-1.6013,3.6830,-0.9596,4.129
12.781000,-1.4994,3.8722,-0.7498,4.220
12.781000,-1.4170,4.0232,-0.5702,4.303
12.785000,-1.3706,4.1245,-0.3370,4.359
12.789000,-1.3414,4.1920,-0.0532,4.402
12.794000,-1.3530,4.1881,0.2474,4.408
12.799000,-1.3359,4.1366,0.5477,4.381
12.808000,-1.2998,4.0545,0.8331,4.338
12.811000,-1.2589,3.9202,1.0700,4.254
12.814000,-1.2152,3.7486,1.2439,4.132
12.891000,-1.1668,3.5299,1.3165,3.944
12.893000,-1.0942,3.2982,1.2767,3.702
12.894000,-0.9878,3.0753,1.1730,3.436
12.896000,-0.8382,2.8450,1.0395,3.143
12.897000,-0.6619,2.5956,0.8839,2.821
12.898000,-0.4666,2.3342,0.7380,2.492
12.900000,-0.2615,2.1018,0.5828,2.197
12.901000,-0.0611,1.8772,0.4116,1.923
12.902000,0.1492,1.6797,0.2344,1.703
12.904000,0.3549,1.5118,0.0515,1.554
12.905000,0.5682,1.3834,-0.1439,1.502
12.905000,0.7817,1.2703,-0.3348,1.529
12.906000,1.0267,1.1848,-0.4661,1.636
12.909000,1.3080,1.0959,-0.5402,1.790
12.910000,1.6496,1.0129,-0.5599,2.015
12.911000,2.0228,0.9313,-0.5564,2.295
12.911000,2.4392,0.8263,-0.5422,2.632
12.912000,2.8799,0.7174,-0.5343,3.016
12.914000,3.3424,0.5997,-0.5039,3.433
12.915000,3.7910,0.5043,-0.4370,3.849
12.926000,4.2352,0.4525,-0.3552,4.274
12.931000,4.6703,0.4254,-0.2944,4.699
12.932000,5.0791,0.4343,-0.1923,5.101
12.933000,5.4736,0.4623,-0.0775,5.494
13.004000,5.8679,0.4878,0.0285,5.888
13.006000,6.2835,0.5108,0.1691,6.307
13.007000,6.6989,0.5289,0.3104,6.727
13.008000,7.0105,0.5580,0.4429,7.047
13.009000,7.3094,0.6247,0.6173,7.362
13.010000,7.5499,0.6476,0.8860,7.629
13.011000,7.7368,0.6669,1.2248,7.862
13.012000,7.8990,0.7140,1.5737,8.086
13.013000,8.0338,0.7739,1.8816,8.287
13.014000,8.2319,0.8513,2.1175,8.542
13.015000,8.4621,0.9079,2.2958,8.815
13.016000,8.6976,0.9027,2.4930,9.093
13.017000,8.9265,0.8360,2.6973,9.363
13.018000,9.1267,0.7334,2.8841,9.600
13.019000,9.2483,0.6503,2.9770,9.737
13.020000,9.2961,0.6489,2.9907,9.787
13.020000,9.2678,0.7580,2.9210,9.747
13.030000,9.1728,0.9679,2.8161,9.644
13.031000,9.0639,1.2764,2.6983,9.543
13.035000,8.9813,1.6040,2.6249,9.493
13.130000,8.9178,1.8718,2.6316,9.484
13.131000,8.8565,2.0703,2.6966,9.487
13.131000,8.7736,2.2210,2.7814,9.468
13.132000,8.6833,2.3955,2.8833,9.458
13.133000,8.5452,2.6060,2.9854,9.419
13.134000,8.3830,2.8830,3.0081,9.361
13.135000,8.2278,3.2053,3.0117,9.330
13.136000,8.0414,3.5366,2.9912,9.280
13.137000,7.8451,3.9034,2.9421,9.243
13.139000,7.6628,4.2982,2.9408,9.265
13.140000,7.4727,4.6800,2.9482,9.297
13.141000,7.2627,5.0127,2.9810,9.315
13.142000,7.0400,5.3107,3.0481,9.330
13.142000,6.8334,5.5691,3.0868,9.340
13.143000,6.6380,5.7877,3.1280,9.346
13.143000,6.4897,5.9737,3.1282,9.359
13.144000,6.3474,6.1029,3.0946,9.333
13.144000,6.2017,6.1538,3.0489,9.253
13.144000,6.0644,6.1407,3.0126,9.141
13.145000,5.9308,6.0398,2.9713,8.971
13.145000,5.7818,5.8558,2.9154,8.730
13.146000,5.6612,5.5773,2.8308,8.436
13.153000,5.5450,5.2381,2.7079,8.094
13.156000,5.4073,4.8479,2.6048,7.715
13.159000,5.2700,4.4787,2.5264,7.363
13.164000,5.1430,4.1334,2.4395,7.035
13.169000,5.0285,3.8068,2.3707,6.738
13.209000,4.9442,3.4831,2.3415,6.485
13.210000,4.8491,3.1403,2.3065,6.221
13.210000,4.7938,2.8072,2.2653,5.999
13.210000,4.6946,2.4671,2.1822,5.735
13.210000,4.5779,2.1295,2.0644,5.455
13.210000,4.4638,1.8361,1.9217,5.195
13.211000,4.3304,1.5768,1.7831,4.942
13.211000,4.1803,1.3613,1.6416,4.693
13.215000,4.0065,1.1801,1.4589,4.424
13.220000,3.8162,1.0284,1.2712,4.152
13.224000,3.6285,0.9129,1.1045,3.901
13.229000,3.4463,0.8132,0.9616,3.669
13.234000,3.2814,0.7308,0.8444,3.466
13.298000,3.0812,0.6731,0.7362,3.239
13.299000,2.8671,0.6470,0.6229,3.004
13.299000,2.6460,0.6424,0.5139,2.771
13.300000,2.4044,0.6315,0.4334,2.523
13.300000,2.1634,0.6115,0.4003,2.284
13.301000,1.9041,0.5966,0.3523,2.026
13.301000,1.6384,0.5964,0.3084,1.771
13.301000,1.3545,0.6037,0.2186,1.499
13.302000,1.0784,0.6060,0.1426,1.245
13.302000,0.8348,0.6213,0.0450,1.042
13.302000,0.5779,0.6299,-0.0552,0.857
13.303000,0.3435,0.6054,-0.1506,0.712
13.303000,0.1557,0.5599,-0.2363,0.627
13.307000,-0.0314,0.4878,-0.3267,0.588
13.310000,-0.2266,0.3812,-0.4381,0.623
13.316000,-0.4302,0.2754,-0.5730,0.768
13.325000,-0.6182,0.1706,-0.7285,0.971
13.326000,-0.8025,0.0452,-0.8782,1.190
13.330000,-0.9952,-0.0933,-1.0409,1.443
13.334000,-1.1795,-0.2694,-1.1737,1.686
13.393000,-1.3262,-0.4670,-1.2573,1.886
13.394000,-1.4449,-0.6892,-1.3162,2.072
13.394000,-1.5501,-0.9190,-1.4128,2.290
13.395000,-1.6366,-1.1657,-1.5138,2.516
13.395000,-1.7356,-1.4005,-1.6006,2.745
13.395000,-1.8351,-1.6406,-1.6924,2.987
13.396000,-1.9321,-1.8774,-1.7490,3.212
13.396000,-2.0364,-2.1449,-1.7779,3.451
13.397000,-2.1431,-2.4335,-1.7798,3.699
13.397000,-2.2638,-2.7522,-1.7646,3.977
13.397000,-2.3531,-3.0655,-1.7566,4.245
13.398000,-2.4177,-3.3907,-1.7728,4.526
13.401000,-2.4531,-3.7065,-1.7799,4.788
13.405000,-2.4879,-4.0128,-1.8017,5.054
13.410000,-2.5581,-4.2996,-1.7998,5.317
13.416000,-2.6637,-4.5641,-1.7356,5.562
13.421000,-2.7832,-4.8331,-1.6285,5.810
13.426000,-2.8784,-5.0762,-1.4660,6.017
13.431000,-2.9302,-5.3011,-1.2941,6.194
13.435000,-2.9673,-5.5246,-1.1488,6.375
13.516000,-2.9780,-5.7393,-1.0299,6.547
13.516000,-3.0053,-5.9601,-0.8970,6.735
13.517000,-3.0256,-6.1785,-0.8015,6.926
13.517000,-3.0488,-6.3757,-0.7312,7.105
13.517000,-3.0797,-6.5659,-0.6999,7.286
13.518000,-3.0756,-6.7344,-0.6713,7.434
13.518000,-3.0104,-6.8862,-0.6116,7.540
13.518000,-2.8963,-7.0219,-0.5498,7.616
13.519000,-2.7719,-7.1505,-0.5564,7.689
13.519000,-2.6686,-7.2559,-0.6026,7.755
13.519000,-2.5700,-7.3790,-0.6853,7.844
13.520000,-2.4859,-7.5246,-0.7655,7.962
13.520000,-2.4094,-7.6738,-0.8047,8.083
13.520000,-2.3288,-7.8451,-0.8479,8.227
13.521000,-2.2275,-8.0196,-0.8641,8.368
13.521000,-2.1819,-8.1973,-1.0137,8.543
13.521000,-2.1207,-8.3277,-1.1977,8.677
13.525000,-2.0298,-8.4754,-1.3824,8.824
13.531000,-1.9210,-8.6166,-1.5656,8.966
13.536000,-1.8114,-8.7698,-1.7542,9.125
13.541000,-1.6985,-8.9064,-1.9078,9.265
13.546000,-1.5797,-9.0001,-2.0364,9.362
13.551000,-1.4527,-9.0557,-2.1736,9.426
13.628000,-1.3365,-9.0878,-2.3361,9.478
13.629000,-1.2123,-9.1178,-2.4901,9.529
13.629000,-1.0632,-9.1267,-2.6096,9.552
13.630000,-0.9105,-9.1412,-2.7070,9.577
13.630000,-0.7469,-9.1160,-2.8254,9.573
13.631000,-0.5532,-9.0869,-2.9341,9.565
13.631000,-0.2838,-9.0877,-3.0121,9.578
13.631000,0.0662,-9.1831,-3.0860,9.688
13.632000,0.4298,-9.3659,-3.1630,9.895
13.632000,0.7354,-9.5308,-3.2862,10.108
13.633000,0.9232,-9.5894,-3.4770,10.242
13.633000,0.9815,-9.4314,-3.6969,10.178
13.633000,0.9057,-9.0911,-3.9461,9.952
13.634000,0.7414,-8.6930,-4.0903,9.636
13.634000,0.5775,-8.3424,-4.1349,9.329
13.634000,0.4307,-8.1447,-4.1041,9.130
13.642000,0.3398,-8.0585,-4.0608,9.030
13.643000,0.2858,-7.9863,-4.0869,8.976
13.647000,0.2376,-7.8153,-4.2015,8.876
13.650000,0.1738,-7.5482,-4.3136,8.696
13.657000,0.0800,-7.2071,-4.3990,8.444
13.661000,-0.0032,-6.8254,-4.5244,8.189
13.665000,-0.0831,-6.4722,-4.6342,7.961
13.748000,-0.0878,-6.1576,-4.6618,7.724
13.748000,-0.0004,-5.8790,-4.6388,7.489
13.749000,0.1575,-5.6438,-4.5918,7.277
13.749000,0.3429,-5.3973,-4.4921,7.030
13.750000,0.5344,-5.1417,-4.3472,6.754
13.750000,0.7319,-4.8405,-4.1578,6.423
13.750000,0.9209,-4.5511,-3.9215,6.078
13.751000,1.0825,-4.2763,-3.6603,5.732
13.751000,1.2238,-4.0378,-3.3982,5.418
13.751000,1.3519,-3.7929,-3.1281,5.099
13.752000,1.4763,-3.5416,-2.8473,4.778
13.752000,1.5776,-3.3042,-2.5443,4.459
13.753000,1.6199,-3.0711,-2.2382,4.131
13.753000,1.5983,-2.8448,-1.9552,3.804
13.753000,1.5129,-2.6255,-1.6664,3.458
13.754000,1.4018,-2.4151,-1.3787,3.114
13.754000,1.2599,-2.2053,-1.0874,2.763
13.756000,1.0586,-2.0292,-0.8210,2.432
13.762000,0.8289,-1.8721,-0.5984,2.133
13.766000,0.5492,-1.7148,-0.4049,1.846
13.773000,0.2387,-1.5499,-0.2521,1.588
13.777000,-0.1098,-1.3864,-0.1277,1.397
13.780000,-0.5013,-1.2323,-0.0290,1.331
13.786000,-0.9236,-1.0819,0.0488,1.423
13.856000,-1.3551,-0.9348,0.0511,1.647
13.857000,-1.7909,-0.8051,0.0163,1.964
13.857000,-2.2212,-0.6751,-0.0862,2.323
13.857000,-2.6198,-0.5478,-0.1776,2.682
13.858000,-2.9937,-0.3938,-0.2936,3.034
13.858000,-3.3190,-0.2488,-0.4247,3.355
13.859000,-3.6167,-0.1173,-0.5784,3.665
13.859000,-3.8557,0.0155,-0.7498,3.928
13.859000,-4.0476,0.1528,-0.9224,4.154
13.860000,-4.1566,0.3081,-1.1083,4.313
13.860000,-4.1992,0.5036,-1.3031,4.425
13.860000,-4.1611,0.7151,-1.4468,4.463
13.861000,-4.0828,0.9021,-1.5853,4.472
13.861000,-3.9523,1.1152,-1.7089,4.448
13.861000,-3.7699,1.3532,-1.7556,4.373
13.867000,-3.5332,1.6044,-1.7545,4.259
13.871000,-3.2757,1.8543,-1.7104,4.134
13.877000,-2.9904,2.1070,-1.5998,3.993
13.882000,-2.6894,2.3719,-1.4613,3.872
13.887000,-2.3869,2.6535,-1.3262,3.808
13.892000,-2.1247,2.9217,-1.1493,3.791
13.896000,-1.8905,3.1767,-0.9353,3.813
13.901000,-1.6773,3.4159,-0.7158,3.872
13.969000,-1.4852,3.6223,-0.5003,3.947
13.970000,-1.3546,3.7653,-0.3246,4.015
13.970000,-1.2073,3.8775,-0.0954,4.062
13.970000,-1.0404,3.9236,0.1727,4.063
13.971000,-0.8661,3.9491,0.4244,4.065
13.971000,-0.6771,3.9396,0.6022,4.043
13.971000,-0.4926,3.9192,0.7545,4.022
13.971000,-0.2741,3.9004,0.8599,4.003
13.971000,-0.0128,3.8727,0.9397,3.985
13.972000,0.2317,3.7982,1.0255,3.941
13.972000,0.4903,3.7175,1.1413,3.920
13.972000,0.7749,3.5805,1.2486,3.870
13.972000,1.1002,3.4235,1.3475,3.840
13.973000,1.4057,3.2360,1.3733,3.786
13.977000,1.7060,3.0522,1.3597,3.752
13.982000,2.0034,2.8887,1.2974,3.747
13.987000,2.2811,2.7312,1.1915,3.753
13.992000,2.5677,2.5703,1.0713,3.788
13.997000,2.8539,2.4351,0.9490,3.870
14.003000,3.1368,2.2700,0.8654,3.968
14.007000,3.4572,2.1017,0.7943,4.123
14.013000,3.8034,1.9160,0.7522,4.325
14.017000,4.1989,1.7344,0.7202,4.600
14.115000,4.6106,1.5572,0.7534,4.924
14.116000,5.0232,1.3763,0.7893,5.268
14.117000,5.4226,1.2184,0.8139,5.617
14.117000,5.7899,1.0765,0.8055,5.944
14.118000,6.1585,0.9651,0.7526,6.279
14.118000,6.4973,0.9129,0.7154,6.600
14.119000,6.8710,0.9200,0.7253,6.970
14.119000,7.1618,0.9546,0.6912,7.258
14.119000,7.3960,1.0337,0.7306,7.504
14.120000,7.5833,1.1427,0.7666,7.707
14.120000,7.7189,1.2887,0.8613,7.873
14.120000,7.8578,1.4573,0.9691,8.050
14.121000,7.9752,1.6262,1.0944,8.213
14.121000,8.0881,1.7644,1.2370,8.370
14.121000,8.1582,1.8552,1.3944,8.482
14.123000,8.2452,1.9297,1.5613,8.611
14.123000,8.3351,1.9760,1.7086,8.735
14.123000,8.4374,1.9894,1.8580,8.866
14.123000,8.5397,1.9720,1.9922,8.988
14.124000,8.6254,1.9264,2.0852,9.081
14.124000,8.6945,1.8526,2.1874,9.155
14.130000,8.7374,1.7603,2.2961,9.204
14.132000,8.7497,1.6998,2.3517,9.218
14.141000,8.7144,1.6759,2.3780,9.187
14.142000,8.6460,1.6910,2.3846,9.127
14.146000,8.5185,1.7474,2.4292,9.029
14.151000,8.3821,1.8143,2.4542,8.920
14.209000,8.2585,1.8581,2.4982,8.826
14.210000,8.1694,1.8599,2.5682,8.763
14.210000,8.1146,1.8389,2.6590,8.735
14.211000,8.0752,1.8118,2.7324,8.715
14.211000,8.0439,1.7811,2.7764,8.694
14.211000,7.9776,1.7824,2.8316,8.651
14.212000,7.9029,1.8376,2.8979,8.616
14.212000,7.7742,1.9775,2.8749,8.521
14.212000,7.6276,2.1687,2.7464,8.392
14.212000,7.5254,2.4376,2.5440,8.309
14.213000,7.4266,2.7314,2.3567,8.256
14.213000,7.3024,3.0859,2.1822,8.222
14.218000,7.2075,3.4602,2.0803,8.261
14.253000,7.1515,3.8157,2.0383,8.358
14.254000,7.0882,4.1567,2.0584,8.471
14.254000,7.0220,4.4684,2.1829,8.605
14.254000,6.9741,4.7576,2.2727,8.743
14.254000,6.9367,4.9734,2.2822,8.835
14.255000,6.8956,5.1353,2.2305,8.882
14.255000,6.8554,5.2142,2.1414,8.875
14.258000,6.7181,5.2029,2.0364,8.738
14.261000,6.5722,5.1088,1.9062,8.540
14.267000,6.4084,4.9414,1.7723,8.284
14.271000,6.2291,4.7032,1.5992,7.967
14.277000,6.0471,4.4163,1.4015,7.618
14.281000,5.8649,4.0835,1.1890,7.245
14.289000,5.6807,3.7241,0.9475,6.858
14.295000,5.4707,3.3791,0.6896,6.467
14.298000,5.2590,3.0388,0.4467,6.090
14.301000,5.0465,2.7425,0.2287,5.748
14.333000,4.8091,2.4636,0.0596,5.404
14.333000,4.5374,2.2164,-0.0944,5.051
14.334000,4.2463,2.0155,-0.2550,4.707
14.334000,3.9454,1.8656,-0.4270,4.385
14.334000,3.6515,1.7402,-0.5821,4.087
14.335000,3.3630,1.6209,-0.7468,3.807
14.336000,3.0775,1.5244,-0.9117,3.553
14.341000,2.7903,1.4554,-1.0817,3.328
14.349000,2.5302,1.4116,-1.2090,3.139
14.351000,2.2825,1.4092,-1.2819,2.973
14.357000,2.0192,1.4489,-1.3172,2.813
14.361000,1.7279,1.5086,-1.3107,2.642
14.367000,1.4302,1.6000,-1.2602,2.489
14.373000,1.1263,1.6538,-1.1684,2.317
14.377000,0.8041,1.6796,-1.0234,2.125
14.383000,0.4709,1.6867,-0.8399,1.942
14.390000,0.1656,1.7167,-0.6109,1.830
14.392000,-0.1073,1.7498,-0.3895,1.796
14.397000,-0.3790,1.7883,-0.2070,1.840
14.401000,-0.6373,1.8060,-0.0778,1.917
14.468000,-0.8945,1.8142,0.0102,2.023
14.469000,-1.1356,1.7903,0.0601,2.121
14.469000,-1.3633,1.7028,0.0910,2.183
14.469000,-1.5798,1.5856,0.1797,2.245
14.470000,-1.7515,1.4675,0.2161,2.295
14.470000,-1.9165,1.3320,0.2076,2.343
14.470000,-2.0632,1.2005,0.1497,2.392
14.470000,-2.1884,1.0504,0.0601,2.428
14.471000,-2.2975,0.8957,0.0105,2.466
14.471000,-2.3783,0.7269,-0.0111,2.487
14.471000,-2.4071,0.5439,0.0167,2.468
14.472000,-2.4008,0.3437,0.0551,2.426
14.472000,-2.3400,0.1273,0.0852,2.345
14.473000,-2.2606,-0.1298,0.0895,2.266
14.478000,-2.1937,-0.4203,0.0753,2.235
14.483000,-2.1561,-0.7250,0.0210,2.275
14.488000,-2.1690,-1.0219,-0.0732,2.399
14.492000,-2.1966,-1.2969,-0.1352,2.554
14.497000,-2.1980,-1.5869,-0.1358,2.714
14.502000,-2.1852,-1.9113,-0.0922,2.905
14.508000,-2.1461,-2.2675,-0.0072,3.122
14.514000,-2.0853,-2.6217,0.0949,3.351
14.519000,-2.0007,-2.9698,0.1730,3.585
14.523000,-1.9039,-3.3008,0.2377,3.818
14.529000,-1.8167,-3.6488,0.3221,4.089
14.532000,-1.7701,-4.0086,0.3951,4.400
14.623000,-1.7425,-4.3559,0.4953,4.718
14.624000,-1.7457,-4.6664,0.5937,5.017
14.624000,-1.7222,-4.9092,0.7021,5.250
14.626000,-1.6579,-5.1148,0.7521,5.429
14.629000,-1.5029,-5.2908,0.8249,5.562
14.630000,-1.2863,-5.4520,0.8205,5.661
14.631000,-1.0324,-5.6108,0.7326,5.752
14.632000,-0.7897,-5.7802,0.5809,5.863
14.633000,-0.6041,-5.9789,0.4027,6.023
14.634000,-0.4279,-6.2147,0.2314,6.234
14.635000,-0.2566,-6.4684,-0.0403,6.474
14.636000,-0.0665,-6.7160,-0.3614,6.726
14.639000,0.1422,-6.9765,-0.6170,7.005
14.639000,0.2786,-7.2096,-1.0154,7.286
14.640000,0.4423,-7.4049,-1.3895,7.547
14.640000,0.6500,-7.6372,-1.7322,7.858
14.641000,0.8534,-7.8944,-2.0411,8.199
14.642000,1.0670,-8.1622,-2.3212,8.553
14.642000,1.2741,-8.4003,-2.6182,8.891
14.643000,1.4600,-8.6248,-2.9173,9.221
14.643000,1.6249,-8.8240,-3.1828,9.520
14.644000,1.7138,-9.0480,-3.4220,9.824
14.647000,1.7672,-9.2703,-3.6156,10.106
14.653000,1.7306,-9.4811,-3.7020,10.324
14.658000,1.6638,-9.6686,-3.7869,10.516
14.663000,1.5481,-9.8419,-3.8898,10.695
14.667000,1.4170,-9.9962,-4.0106,10.864
14.749000,1.2946,-10.1694,-4.1282,11.051
14.750000,1.2193,-10.3972,-4.2429,11.296
14.750000,1.1478,-10.6867,-4.3974,11.613
14.751000,1.0588,-10.9579,-4.5748,11.922
14.751000,0.9523,-11.1220,-4.8372,12.166
14.752000,0.7877,-11.1139,-5.2277,12.307
14.752000,0.5341,-10.9478,-5.6215,12.318
14.753000,0.2393,-10.6688,-5.9563,12.221
14.753000,-0.0531,-10.3435,-6.2113,12.065
14.753000,-0.2999,-10.0748,-6.4011,11.940
14.754000,-0.4555,-9.8791,-6.5334,11.853
14.754000,-0.5699,-9.7038,-6.6687,11.788
14.755000,-0.6596,-9.4938,-6.8219,11.709
14.755000,-0.7746,-9.1918,-6.9954,11.577
14.755000,-0.9147,-8.7741,-7.1898,11.380
14.756000,-1.0797,-8.2599,-7.3693,11.122
14.756000,-1.2120,-7.6758,-7.5244,10.817
14.761000,-1.2805,-7.0867,-7.6507,10.507
14.764000,-1.2563,-6.5427,-7.7124,10.191
14.770000,-1.1132,-6.0427,-7.6912,9.844
14.775000,-0.8798,-5.5939,-7.5897,9.469
14.778000,-0.5852,-5.1665,-7.4321,9.070
14.782000,-0.2652,-4.7542,-7.2186,8.648
14.875000,0.0365,-4.3989,-6.9419,8.218
14.876000,0.3105,-4.1061,-6.6237,7.799
14.876000,0.5038,-3.8533,-6.2835,7.388
14.876000,0.6283,-3.6501,-5.9881,7.041
14.877000,0.7080,-3.4989,-5.6274,6.664
14.877000,0.7667,-3.3881,-5.1871,6.243
14.877000,0.7900,-3.3370,-4.7228,5.836
14.878000,0.7708,-3.3310,-4.2509,5.455
14.878000,0.7135,-3.3830,-3.7429,5.095
14.878000,0.6448,-3.4710,-3.2111,4.772
14.878000,0.5547,-3.5495,-2.6888,4.487
14.879000,0.3932,-3.6114,-2.2189,4.257
14.879000,0.1602,-3.6610,-1.7626,4.066
14.879000,-0.1610,-3.7105,-1.2938,3.933
14.880000,-0.5653,-3.7761,-0.8318,3.908
14.880000,-1.0143,-3.7975,-0.4050,3.951
14.880000,-1.4935,-3.7934,-0.0156,4.077
14.880000,-2.0006,-3.7493,0.3487,4.264
14.881000,-2.5545,-3.6862,0.6929,4.538
14.884000,-3.1575,-3.6158,0.9813,4.900
14.892000,-3.7925,-3.5207,1.2115,5.315
14.893000,-4.4161,-3.3783,1.3958,5.733
14.899000,-5.0354,-3.2027,1.5223,6.159
14.902000,-5.6188,-3.0262,1.5770,6.574
14.910000,-6.1543,-2.8271,1.5888,6.956
14.913000,-6.6104,-2.6116,1.5410,7.273
14.918000,-6.9083,-2.3389,1.4650,7.439
14.992000,-7.0742,-2.0257,1.3706,7.485
14.993000,-7.1155,-1.6840,1.2246,7.414
14.993000,-6.9943,-1.2957,1.0152,7.185
14.994000,-6.7158,-0.8826,0.7738,6.818
14.994000,-6.3329,-0.4623,0.4887,6.369
14.994000,-5.9013,-0.0716,0.1912,5.905
14.994000,-5.4573,0.3152,-0.0798,5.467
14.995000,-5.0128,0.6718,-0.3338,5.069
14.995000,-4.6092,1.0183,-0.5495,4.752
14.995000,-4.2581,1.3766,-0.6955,4.529
14.996000,-3.9551,1.7606,-0.7932,4.401
14.996000,-3.6120,2.1744,-0.6512,4.266
14.996000,-3.3649,2.5174,-0.4215,4.223
14.997000,-3.2137,2.8460,-0.2157,4.298
14.997000,-3.1152,3.1417,-0.0052,4.424
14.998000,-3.0546,3.4139,0.2478,4.588
15.053000,-2.9961,3.6435,0.5447,4.749
15.054000,-2.9706,3.8327,0.8608,4.925
15.054000,-2.9706,3.9510,1.1960,5.086
15.055000,-2.9603,4.0361,1.5063,5.227
15.055000,-2.9372,4.0740,1.7844,5.330
15.055000,-2.8799,4.0671,2.0705,5.397
15.055000,-2.7835,4.0368,2.3380,5.432
15.056000,-2.6742,3.9381,2.5677,5.409
15.056000,-2.5478,3.7654,2.7331,5.305
15.056000,-2.4350,3.5171,2.8484,5.139
15.056000,-2.3212,3.2318,2.8851,4.915
15.059000,-2.1919,2.9410,2.8272,4.631
15.064000,-2.0328,2.6522,2.6893,4.289
15.068000,-1.7979,2.3541,2.4912,3.870
15.074000,-1.5022,2.0273,2.2456,3.378
15.079000,-1.1310,1.6676,1.9982,2.838
15.083000,-0.7081,1.2919,1.7446,2.283
15.091000,-0.2409,0.9075,1.4946,1.765
15.094000,0.2374,0.5315,1.2174,1.349
15.098000,0.7428,0.1775,0.9425,1.213
15.204000,1.2492,-0.1445,0.6749,1.427
15.205000,1.8021,-0.4321,0.4150,1.899
15.205000,2.3870,-0.6971,0.1415,2.491
15.206000,2.9752,-0.9467,-0.1617,3.126
15.206000,3.5622,-1.1828,-0.5036,3.787
15.206000,4.1545,-1.3364,-0.8403,4.444
15.206000,4.7549,-1.4071,-1.1329,5.087
15.207000,5.3538,-1.3877,-1.3761,5.699
15.207000,5.9316,-1.2712,-1.5620,6.264
15.208000,6.4982,-1.0765,-1.6544,6.791
15.208000,7.0355,-0.8144,-1.6145,7.264
15.208000,7.5173,-0.4922,-1.4498,7.672
15.209000,7.9505,-0.1391,-1.1728,8.038
15.209000,8.3535,0.2319,-0.7652,8.392
15.209000,8.7114,0.5985,-0.2690,8.736
15.210000,9.0313,0.9314,0.2357,9.082
15.210000,9.2950,1.2124,0.6832,9.399
15.210000,9.5097,1.4249,1.0587,9.674
15.211000,9.6488,1.5783,1.3403,9.869
15.211000,9.7150,1.6752,1.5495,9.979
15.211000,9.7421,1.7139,1.6963,10.036
15.212000,9.7274,1.7180,1.8187,10.044
15.215000,9.6762,1.6762,1.9025,10.003
15.220000,9.6078,1.5959,1.9791,9.939
15.224000,9.5272,1.4607,2.0913,9.863
15.230000,9.4592,1.2544,2.2316,9.800
15.235000,9.4083,0.9744,2.3398,9.744
15.240000,9.3797,0.6859,2.3658,9.698
15.246000,9.3618,0.4585,2.3027,9.652
15.249000,9.2827,0.3306,2.1032,9.524
15.254000,9.1096,0.3311,1.7753,9.287
15.339000,8.8838,0.4441,1.4758,9.016
15.340000,8.7199,0.6598,1.2937,8.840
15.341000,8.6610,0.9328,1.2125,8.795
15.341000,8.6853,1.2126,1.2340,8.856
15.341000,8.7375,1.4652,1.3336,8.959
15.342000,8.7647,1.7600,1.4148,9.051
15.342000,8.7617,2.1680,1.3791,9.131
15.342000,8.7307,2.7202,1.3228,9.240
15.343000,8.6880,3.3541,1.2872,9.401
15.343000,8.6330,4.0143,1.3536,9.616
15.343000,8.6034,4.6406,1.5885,9.903
15.344000,8.5844,5.2063,1.8719,10.213
15.344000,8.5610,5.6797,2.1616,10.499
15.344000,8.5064,6.0462,2.4495,10.720
15.345000,8.4423,6.3368,2.6294,10.878
15.345000,8.3947,6.5799,2.6528,10.991
15.345000,8.3656,6.7636,2.6109,11.070
15.346000,8.3073,6.8592,2.5397,11.068
15.349000,8.2910,6.8881,2.4111,11.045
15.357000,8.3024,6.8410,2.1641,10.973
15.360000,8.3125,6.7347,1.9784,10.880
15.365000,8.3074,6.5908,1.8302,10.761
15.369000,8.3012,6.4284,1.6506,10.628
15.435000,8.2495,6.2504,1.4420,10.450
15.441000,8.1617,6.0470,1.3008,10.241
15.442000,8.0260,5.7991,1.2577,9.981
15.444000,7.8232,5.5018,1.3299,9.656
15.445000,7.6014,5.1715,1.4880,9.313
15.446000,7.3450,4.8208,1.6371,8.937
15.447000,7.0544,4.4542,1.8386,8.543
15.449000,6.7826,4.0764,2.0126,8.165
15.450000,6.5252,3.6877,2.1018,7.784
15.452000,6.2968,3.3454,2.0776,7.427
15.453000,6.0397,3.0013,1.9144,7.011
15.454000,5.7506,2.6830,1.7443,6.581
15.456000,5.4582,2.3901,1.5296,6.152
15.457000,5.1293,2.0967,1.3068,5.693
15.459000,4.7860,1.8461,1.0257,5.231
15.460000,4.4613,1.6545,0.8422,4.832
15.460000,4.1685,1.5111,0.7135,4.491
15.461000,3.8614,1.3696,0.5462,4.133
15.469000,3.4925,1.2303,0.3884,3.723
15.472000,3.1652,1.1245,0.1753,3.364
15.474000,2.8023,1.0324,-0.0761,2.987
15.479000,2.4412,0.9125,-0.2627,2.619
15.483000,2.0695,0.8170,-0.2744,2.242
15.552000,1.7040,0.7530,-0.2598,1.881
15.554000,1.3901,0.7466,-0.1641,1.586
15.555000,1.0491,0.7069,0.0142,1.265
15.556000,0.7717,0.6143,0.2003,1.006
15.558000,0.5088,0.5088,0.2914,0.776
15.558000,0.2720,0.4185,0.3498,0.609
15.559000,0.0755,0.3769,0.3713,0.534
15.561000,-0.1501,0.3362,0.4066,0.549
15.562000,-0.3957,0.2979,0.4843,0.693
15.562000,-0.6268,0.2659,0.6400,0.934
15.563000,-0.8726,0.2105,0.8303,1.223
15.565000,-1.1162,0.1318,0.9445,1.468
15.566000,-1.3456,0.0251,1.0066,1.681
15.566000,-1.5462,-0.1191,0.9951,1.843
15.567000,-1.7376,-0.3037,0.9080,1.984
15.571000,-1.9022,-0.5124,0.7819,2.119
15.572000,-2.0667,-0.7576,0.6192,2.287
15.583000,-2.2308,-1.0389,0.4514,2.502
15.588000,-2.3682,-1.3392,0.3213,2.739
15.588000,-2.4789,-1.6635,0.2144,2.993
15.590000,-2.5648,-1.9885,0.1307,3.248
15.646000,-2.6021,-2.2859,0.0767,3.464
15.650000,-2.6387,-2.5773,-0.0458,3.689
15.651000,-2.6341,-2.8792,-0.1429,3.905
15.655000,-2.5883,-3.2033,-0.2439,4.126
15.657000,-2.5301,-3.5596,-0.3127,4.378
15.659000,-2.4330,-3.9318,-0.3419,4.636
15.660000,-2.4573,-4.3181,-0.3224,4.979
15.661000,-2.1702,-4.6970,-0.2545,5.180
15.661000,-2.0360,-5.0925,-0.1334,5.486
15.661000,-1.8993,-5.5051,0.0260,5.824
15.662000,-1.7718,-5.9332,0.1238,6.193
15.663000,-1.6609,-6.3843,0.2579,6.602
15.664000,-1.4899,-6.8295,0.3898,7.001
15.665000,-1.3068,-7.2639,0.4667,7.395
15.666000,-1.1333,-7.6823,0.4916,7.781
15.679000,-0.9815,-8.0758,0.5341,8.153
15.680000,-0.8230,-8.3978,0.5094,8.453
15.680000,-0.6773,-8.6610,0.4559,8.699
15.684000,-0.4941,-8.9181,0.4575,8.944
15.773000,-0.3693,-9.1716,0.3035,9.184
15.776000,-0.2531,-9.4288,0.1147,9.433
15.777000,-0.0835,-9.7004,-0.0789,9.701
15.780000,0.0913,-9.9921,-0.2605,9.996
15.781000,0.2805,-10.2608,-0.4534,10.275
15.783000,0.4526,-10.5089,-0.6593,10.539
15.785000,0.6050,-10.7410,-0.8658,10.793
15.788000,0.7374,-10.9457,-1.0440,11.020
15.791000,0.8592,-11.1222,-1.2361,11.224
15.793000,0.9367,-11.2876,-1.4062,11.413
15.795000,0.9769,-11.3940,-1.5825,11.545
15.797000,0.9963,-11.4464,-1.7602,11.624
15.798000,0.9974,-11.4621,-1.9342,11.667
15.800000,1.0014,-11.4383,-2.0806,11.669
15.800000,0.9989,-11.4188,-2.2329,11.678
15.801000,0.9371,-11.4181,-2.3909,11.703
15.802000,0.8783,-11.4384,-2.5571,11.754
15.804000,0.8418,-11.4939,-2.7391,11.846
15.805000,0.8514,-11.6012,-2.8961,11.988
15.806000,0.8502,-11.7429,-3.0337,12.158
15.807000,0.8143,-11.8616,-3.1858,12.309
15.807000,0.6985,-11.9116,-3.3812,12.402
15.808000,0.4721,-11.8423,-3.5654,12.376
15.810000,0.1378,-11.6964,-3.7223,12.275
15.811000,-0.2581,-11.5094,-3.8246,12.131
15.816000,-0.6748,-11.3166,-3.8682,11.978
15.825000,-1.0665,-11.1229,-3.8778,11.828
