time,ax,ay,az,aT
0.007000,-0.1338,0.4171,0.1906,0.478
0.007000,-0.1273,0.1892,0.5202,0.568
0.008000,-0.2430,-0.0134,0.7189,0.759
0.012000,-0.2390,-0.2193,0.7725,0.838
0.015000,-0.2212,-0.3616,0.7267,0.841
0.022000,-0.2407,-0.4358,0.6579,0.825
0.024000,-0.2939,-0.4523,0.5348,0.760
0.030000,-0.3704,-0.4641,0.2952,0.663
0.038000,-0.4313,-0.4096,-0.0422,0.596
0.040000,-0.5359,-0.3079,-0.3537,0.712
0.046000,-0.6277,-0.2240,-0.5630,0.872
0.050000,-0.7079,-0.1872,-0.6632,0.988
0.057000,-0.8256,-0.1670,-0.7025,1.097
0.060000,-0.9311,-0.1856,-0.7023,1.181
0.065000,-0.9818,-0.2434,-0.7009,1.231
0.080000,-0.9919,-0.3356,-0.7245,1.273
0.081000,-0.9493,-0.3901,-0.7060,1.246
0.081000,-0.9321,-0.3922,-0.6049,1.178
0.085000,-0.8837,-0.3919,-0.3990,1.046
0.090000,-0.8022,-0.3911,-0.1790,0.910
0.098000,-0.6924,-0.4153,-0.0543,0.809
0.099000,-0.5578,-0.4445,-0.0557,0.715
0.124000,-0.1701,-0.4134,-0.1402,0.468
0.125000,0.0237,-0.3067,-0.2314,0.385
0.125000,0.2233,-0.1455,-0.3102,0.409
0.125000,0.3835,0.0278,-0.3673,0.532
0.126000,0.5120,0.1775,-0.3693,0.656
0.133000,0.6422,0.3157,-0.3451,0.794
0.146000,0.7784,0.4684,-0.3425,0.971
0.147000,0.9367,0.6138,-0.3640,1.178
0.147000,1.0855,0.7160,-0.3954,1.359
0.150000,1.1573,0.7605,-0.4175,1.446
0.166000,1.1161,0.7255,-0.4185,1.395
0.167000,0.9566,0.6251,-0.3791,1.204
0.167000,0.7237,0.4731,-0.3041,0.917
0.181000,0.4338,0.2856,-0.2126,0.561
0.181000,0.1342,0.0982,-0.1235,0.207
0.182000,-0.1561,-0.1017,-0.0105,0.187
0.185000,-0.1577,-0.2762,0.1408,0.348
0.215000,-0.4259,-0.4138,0.3187,0.674
0.216000,-0.6375,-0.5054,0.4827,0.946
0.216000,-0.7663,-0.5394,0.5994,1.112
0.217000,-0.8098,-0.5588,0.6402,1.174
0.217000,-0.8162,-0.5539,0.6194,1.165
0.217000,-0.7900,-0.5029,0.5585,1.090
0.220000,-0.7167,-0.3982,0.4717,0.946
0.225000,-0.3997,-0.2440,0.3734,0.599
0.230000,-0.1903,-0.0733,0.2586,0.329
0.237000,-0.0023,0.0617,0.1296,0.144
0.239000,0.1718,0.1782,0.0340,0.250
0.245000,0.3298,0.2980,-0.0449,0.447
0.250000,0.4597,0.4094,-0.1002,0.624
0.256000,0.5189,0.4456,-0.1127,0.693
0.260000,0.5100,0.4474,-0.1040,0.686
0.265000,0.4430,0.3981,-0.0525,0.598
0.271000,0.3584,0.3191,-0.0036,0.480
0.275000,0.2638,0.2294,0.0190,0.350
0.280000,0.1611,0.1383,0.0128,0.213
0.286000,0.0663,0.0669,-0.0387,0.102
0.305000,-0.0380,0.0078,-0.1359,0.141
0.312000,-0.1598,-0.0271,-0.2380,0.288
0.312000,-0.2759,-0.0527,-0.3188,0.425
0.313000,-0.3605,-0.0523,-0.3569,0.510
0.313000,-0.4141,-0.0385,-0.3476,0.542
0.332000,-0.4248,-0.0185,-0.2860,0.512
0.333000,-0.3877,-0.0117,-0.1935,0.434
0.333000,-0.3003,0.0223,-0.0821,0.312
0.334000,-0.1477,0.0813,-0.0089,0.169
0.337000,0.0517,0.1274,0.0261,0.140
0.340000,0.2336,0.1609,0.0110,0.284
0.346000,0.3654,0.1943,-0.0255,0.415
0.349000,0.4352,0.2326,-0.0308,0.494
0.356000,0.4912,0.2735,-0.0550,0.565
0.360000,0.5288,0.3099,-0.1246,0.625
0.365000,0.5214,0.3181,-0.2086,0.645
0.373000,0.4998,0.3125,-0.3190,0.670
0.376000,0.4782,0.3338,-0.4390,0.730
0.380000,0.4679,0.3652,-0.5664,0.820
0.387000,0.4565,0.3946,-0.7086,0.931
0.390000,0.4456,0.4268,-0.8872,1.081
0.396000,0.4323,0.4451,-1.0378,1.209
0.400000,0.4164,0.4637,-1.1363,1.296
0.416000,0.4191,0.4680,-1.2332,1.384
0.416000,0.3923,0.4604,-1.3212,1.453
0.417000,0.4458,0.4195,-1.3933,1.522
0.421000,0.4524,0.3547,-1.4471,1.557
0.426000,0.4082,0.2660,-1.4463,1.526
0.430000,0.3684,0.1057,-1.4342,1.485
0.458000,0.2163,-0.0498,-1.5707,1.586
0.459000,0.2172,-0.1618,-1.7864,1.807
0.459000,0.2775,-0.2204,-1.9859,2.017
0.460000,0.3944,-0.2276,-2.0545,2.104
0.461000,0.5524,-0.2246,-1.9584,2.047
0.461000,0.6783,-0.2596,-1.7954,1.937
0.467000,0.7417,-0.3523,-1.6633,1.855
0.479000,0.7858,-0.4649,-1.5736,1.819
0.480000,0.8553,-0.5738,-1.5000,1.820
0.481000,0.9745,-0.6462,-1.4661,1.875
0.497000,1.1546,-0.7277,-1.4623,2.000
0.497000,1.3647,-0.7921,-1.4670,2.154
0.498000,1.5716,-0.8512,-1.4800,2.321
0.500000,1.6776,-0.9385,-1.5325,2.458
0.515000,1.7012,-1.0373,-1.6269,2.572
0.518000,1.6521,-1.0999,-1.7726,2.661
0.521000,1.5862,-1.1101,-1.9982,2.782
0.522000,1.5595,-1.0393,-2.2702,2.944
0.558000,1.6258,-0.9045,-2.5313,3.142
0.559000,1.7646,-0.7059,-2.7384,3.333
0.560000,1.9359,-0.4955,-2.9274,3.544
0.561000,2.0624,-0.3521,-3.1150,3.752
0.561000,2.1050,-0.3041,-3.3395,3.959
0.562000,2.1065,-0.3676,-3.5338,4.130
0.562000,2.0793,-0.4869,-3.6908,4.264
0.562000,2.4207,-0.5492,-4.4538,5.099
0.567000,2.5223,-0.5607,-4.8704,5.513
0.572000,2.5014,-0.7004,-4.9312,5.574
0.575000,2.7991,-0.8791,-4.5478,5.412
0.580000,2.7185,-1.1082,-3.9549,4.925
0.587000,2.5561,-1.3825,-3.2247,4.341
0.591000,2.1609,-1.6584,-2.4512,3.664
0.597000,1.6054,-1.9096,-1.9341,3.157
0.601000,1.0473,-2.0288,-1.7070,2.851
0.606000,0.5824,-1.9900,-1.7576,2.718
0.611000,0.2124,-1.8703,-1.9828,2.734
0.616000,-0.0013,-1.7631,-2.3128,2.908
0.630000,-0.0713,-1.6636,-2.6997,3.172
0.631000,-0.0141,-1.5741,-3.0621,3.443
0.634000,0.0949,-1.5668,-3.3875,3.733
0.636000,0.1655,-1.6470,-3.5558,3.922
0.641000,0.2079,-1.8057,-3.5115,3.954
0.646000,0.2690,-1.9957,-3.2523,3.825
0.650000,0.3721,-2.1578,-2.8997,3.634
0.682000,0.4858,-2.2715,-2.6038,3.489
0.684000,0.7504,-2.2758,-2.4283,3.412
0.684000,1.1272,-2.1951,-2.3964,3.440
0.685000,0.9894,-2.2156,-2.4909,3.477
0.685000,0.6423,-2.3305,-2.7135,3.634
0.686000,0.2424,-2.4278,-3.1773,4.006
0.686000,-0.0913,-2.4524,-3.8305,4.549
0.694000,-0.2195,-2.3862,-4.5008,5.099
0.697000,-0.2019,-2.2496,-5.1065,5.584
0.701000,-0.0290,-2.0809,-5.6140,5.987
0.705000,0.1483,-1.9452,-5.9238,6.237
0.711000,0.3676,-1.9170,-5.9704,6.281
0.715000,0.7007,-1.9491,-5.7485,6.110
0.729000,0.9883,-1.9948,-5.2742,5.725
0.730000,1.3857,-1.9935,-4.6754,5.268
0.730000,1.9056,-1.8804,-4.0022,4.815
0.737000,2.4971,-1.7533,-3.4657,4.617
0.741000,2.7535,-1.6468,-2.9375,4.350
0.746000,2.6171,-1.7459,-2.5154,4.028
0.751000,2.3973,-2.2377,-2.9105,4.385
0.773000,2.1239,-2.5034,-3.1342,4.539
0.774000,2.1932,-2.3686,-2.9545,4.376
0.774000,1.7328,-2.5578,-2.7335,4.125
0.774000,1.5428,-2.5656,-2.4735,3.883
0.776000,1.4119,-2.2870,-1.9883,3.343
0.782000,0.8965,-2.0211,0.0993,2.213
0.787000,-0.1748,-1.8788,1.9283,2.698
0.791000,-0.9816,-1.8680,1.7894,2.767
0.796000,-1.5710,-2.0074,1.3321,2.876
0.802000,-2.0438,-2.2094,1.5115,3.368
0.806000,-2.1217,-2.4350,1.6454,3.625
0.811000,-1.7977,-2.5860,1.0621,3.324
0.816000,-1.2932,-2.5928,0.1538,2.901
0.831000,-0.7618,-2.6261,-0.7436,2.834
0.833000,-0.0827,-2.5627,-1.0393,2.767
0.833000,0.7177,-2.2781,-1.0848,2.623
0.838000,1.2506,-1.9634,-0.4758,2.376
0.841000,1.4353,-1.8849,0.6969,2.469
0.850000,1.4762,-2.0075,1.9642,3.173
0.851000,1.5237,-2.2389,3.2099,4.200
0.869000,1.7084,-2.5096,4.3699,5.321
0.872000,1.9163,-2.7790,5.4118,6.378
0.873000,1.9689,-3.0814,6.0915,7.105
0.874000,1.9037,-3.3366,6.2690,7.352
0.876000,1.7513,-3.4208,5.8904,7.033
0.881000,1.4014,-3.3918,5.0079,6.209
0.887000,1.0042,-3.2663,3.8164,5.123
0.891000,0.9055,-3.1999,2.5188,4.172
0.897000,1.2100,-3.1373,1.4729,3.671
0.901000,1.2498,-2.8886,1.0512,3.318
0.906000,1.1829,-2.5083,0.6532,2.849
0.911000,1.2789,-2.2922,0.1762,2.631
0.916000,1.6851,-2.2370,-0.3098,2.818
0.922000,2.3010,-2.1176,-0.2908,3.141
0.926000,2.6748,-2.0327,0.0612,3.360
0.931000,2.8499,-1.8800,0.4371,3.442
0.945000,3.0610,-1.5759,0.6099,3.496
0.947000,3.1022,-1.3335,0.5727,3.425
0.948000,2.9475,-1.2331,0.4901,3.232
0.951000,2.6997,-1.0693,0.6359,2.973
0.979000,2.4427,-0.9353,0.7876,2.732
0.980000,2.3342,-0.9315,0.6390,2.593
0.981000,2.3046,-1.1202,0.4363,2.599
0.981000,2.2506,-1.4117,0.3804,2.684
0.982000,2.1606,-1.6433,0.6580,2.793
0.982000,2.0777,-1.7949,1.0572,2.942
0.988000,2.0717,-1.8426,1.4385,3.124
0.991000,2.0875,-1.8442,1.7845,3.308
0.997000,2.2451,-1.8035,2.1032,3.566
1.004000,2.7240,-1.6330,2.3432,3.947
1.007000,3.6411,-1.2784,2.5321,4.616
1.012000,4.8664,-0.7360,2.7077,5.617
1.023000,6.0644,-0.0931,2.8930,6.720
1.024000,6.9666,0.5373,3.0159,7.610
1.027000,7.4916,1.1355,3.0385,8.164
1.031000,7.6244,1.6441,2.9730,8.347
1.044000,7.4491,2.0289,2.8317,8.223
1.048000,7.0732,2.2743,2.6409,7.885
1.049000,6.5518,2.3911,2.4174,7.382
1.052000,5.9427,2.4485,2.1425,6.775
1.080000,5.2742,2.4227,1.8523,6.092
1.081000,4.5541,2.3138,1.5781,5.346
1.082000,3.8017,2.1475,1.3175,4.561
1.082000,3.1201,1.9730,0.8988,3.799
1.083000,2.4377,1.8825,0.6589,3.150
1.083000,1.7930,1.8054,0.5372,2.601
1.090000,1.3153,1.7608,0.4324,2.240
1.091000,1.0552,1.7021,0.3774,2.038
1.098000,0.9670,1.6290,0.4504,1.947
1.102000,1.0434,1.5794,0.6094,1.989
1.106000,1.2484,1.5843,0.8488,2.188
1.111000,1.5384,1.6750,1.0957,2.524
1.118000,1.8412,1.8554,1.3572,2.945
1.123000,2.0943,2.0430,1.6737,3.371
1.127000,2.3092,2.2538,2.0227,3.808
1.132000,2.4692,2.4777,2.2981,4.185
1.136000,2.5693,2.7098,2.4071,4.443
1.141000,2.6087,2.9509,2.3507,4.587
1.147000,2.6018,3.1655,2.1897,4.646
1.151000,2.5555,3.3318,1.9299,4.621
1.159000,2.4862,3.4521,1.6392,4.559
1.162000,2.3821,3.4935,1.3493,4.438
1.166000,2.2309,3.4843,1.0678,4.273
1.189000,2.0806,3.4418,0.8237,4.105
1.190000,1.9002,3.3571,0.6102,3.906
1.191000,1.6707,3.2281,0.3797,3.655
1.191000,1.4137,3.0961,0.1637,3.408
1.192000,1.1370,2.9668,0.0059,3.177
1.197000,0.8571,2.8520,-0.1250,2.981
1.204000,0.5911,2.7453,-0.2192,2.817
1.207000,0.3513,2.6544,-0.2835,2.693
1.212000,0.1306,2.5652,-0.3154,2.588
1.218000,-0.0374,2.4805,-0.3076,2.500
1.222000,-0.1311,2.4122,-0.2629,2.430
1.228000,-0.1170,2.3438,-0.1745,2.353
1.232000,-0.0071,2.2848,-0.0264,2.285
1.238000,0.1435,2.2066,0.1711,2.218
1.242000,0.3205,2.1281,0.3952,2.188
1.247000,0.5262,2.0541,0.6163,2.208
1.254000,0.7460,1.9887,0.8642,2.293
1.257000,0.9342,1.8890,1.1285,2.391
1.262000,1.0768,1.7766,1.3799,2.494
1.267000,1.1929,1.6421,1.5869,2.576
1.273000,1.3138,1.5050,1.7994,2.689
1.277000,1.4632,1.3747,2.0529,2.871
1.282000,1.6220,1.2320,2.3138,3.083
1.295000,1.8165,1.1323,2.5031,3.293
1.298000,2.0035,1.0823,2.5855,3.445
1.299000,2.3885,1.2660,2.4333,3.637
1.331000,2.5115,1.2663,2.4404,3.724
1.334000,2.3492,1.0786,2.4316,3.549
1.335000,2.1730,0.9319,2.1925,3.224
1.335000,2.1433,0.8912,1.8849,2.990
1.337000,2.2627,0.9185,1.6579,2.952
1.337000,2.3564,0.9276,1.5143,2.951
1.338000,2.4123,0.9397,1.4061,2.946
1.338000,2.4714,0.9599,1.3598,2.980
1.342000,2.6127,1.0148,1.3513,3.112
1.347000,2.9056,1.0998,1.4327,3.421
1.355000,3.3595,1.2195,1.5821,3.909
1.357000,3.9256,1.3583,1.7794,4.519
1.362000,4.5579,1.5155,2.0195,5.211
1.367000,5.1767,1.6926,2.3116,5.917
1.372000,5.6859,1.9009,2.6503,6.555
1.378000,6.0687,2.1543,3.0014,7.105
1.382000,6.2964,2.4767,3.3692,7.558
1.391000,6.3759,2.8579,3.7359,7.923
1.392000,6.3387,3.3076,4.0417,8.213
1.397000,6.1991,3.8066,4.2860,8.443
1.421000,6.0410,4.3166,4.4498,8.656
1.423000,5.9624,4.8374,4.5448,8.922
1.424000,6.0774,5.3733,4.5332,9.293
1.424000,6.4427,5.9258,4.4321,9.812
1.425000,6.9948,6.4287,4.2322,10.400
1.428000,7.5912,6.7612,3.8835,10.882
1.432000,8.1474,6.8599,3.3604,11.168
1.437000,8.5770,6.7148,2.6877,11.220
1.442000,8.8611,6.3284,1.9556,11.063
1.448000,8.9977,5.7512,1.2246,10.749
1.454000,8.9972,5.0201,0.5599,10.318
1.458000,8.8631,4.1649,0.0170,9.793
1.463000,8.5962,3.2151,-0.3829,9.186
1.467000,8.1768,2.2785,-0.6207,8.511
1.474000,7.6730,1.4422,-0.7378,7.842
1.477000,7.0788,0.7937,-0.7324,7.161
1.482000,6.4212,0.3293,-0.6435,6.462
1.492000,5.7468,0.0670,-0.4978,5.769
1.494000,5.1513,-0.0051,-0.3246,5.161
1.497000,4.6879,0.0710,-0.1501,4.691
1.524000,4.3943,0.2636,-0.0269,4.402
1.525000,4.2820,0.5361,0.0116,4.315
1.526000,4.3306,0.8485,0.0020,4.413
1.526000,4.4872,1.1384,-0.0292,4.629
1.526000,4.6768,1.3514,-0.0894,4.869
1.528000,4.8249,1.4532,-0.1765,5.042
1.534000,4.9169,1.4483,-0.2786,5.133
1.537000,4.9386,1.3604,-0.3842,5.137
1.543000,4.8300,1.1957,-0.4766,4.999
1.548000,4.6159,0.9914,-0.5651,4.755
1.554000,4.2917,0.7546,-0.6284,4.403
1.558000,3.8744,0.5047,-0.6711,3.964
1.563000,3.3958,0.2590,-0.6906,3.475
1.567000,2.8656,0.0084,-0.6839,2.946
1.573000,2.3151,-0.2398,-0.6554,2.418
1.578000,1.7689,-0.4788,-0.6189,1.934
1.582000,1.2486,-0.7159,-0.5860,1.554
1.595000,0.7878,-0.9578,-0.5278,1.348
1.596000,0.4031,-1.1731,-0.4990,1.337
1.602000,0.0943,-1.3478,-0.4347,1.419
1.603000,-0.1647,-1.4926,-0.3559,1.543
1.629000,-0.3789,-1.6584,-0.2697,1.722
1.630000,-0.5725,-1.8022,-0.1564,1.897
1.631000,-0.7694,-1.9289,-0.0350,2.077
1.631000,-0.9841,-2.0526,0.0901,2.278
1.632000,-1.2022,-2.1525,0.2285,2.476
1.633000,-1.4211,-2.2461,0.3925,2.687
1.640000,-1.6147,-2.3151,0.5627,2.878
1.642000,-1.7877,-2.3664,0.7008,3.047
1.647000,-1.9235,-2.4216,0.8119,3.197
1.654000,-2.0175,-2.4858,0.8789,3.320
1.657000,-2.0718,-2.5387,0.9112,3.401
1.663000,-2.1177,-2.5835,0.9012,3.460
1.667000,-2.1671,-2.5895,0.8484,3.482
1.673000,-2.2609,-2.6069,0.7595,3.533
1.678000,-2.3748,-2.6143,0.6579,3.593
1.682000,-2.7122,-2.6863,0.4594,3.845
1.690000,-4.0786,-3.2129,-0.2969,5.201
1.693000,-5.7485,-3.9075,-0.9186,7.011
1.697000,-6.4300,-4.6340,-0.8636,7.973
1.734000,-8.3862,-6.4645,1.2703,10.664
1.736000,-9.9572,-7.4900,2.8679,12.786
1.737000,-9.2303,-6.7364,3.6756,12.004
1.738000,-6.0605,-4.5071,2.7125,8.025
1.739000,-2.4363,-2.1712,1.5980,3.634
1.739000,-0.0499,-0.8845,0.6054,1.073
1.739000,1.2623,-0.5642,-0.3220,1.420
1.740000,1.7596,-0.9651,-0.9159,2.206
1.743000,1.5746,-1.7723,-1.1734,2.645
1.748000,1.0669,-2.5097,-1.2494,3.000
1.756000,0.4426,-3.0057,-1.4073,3.348
1.758000,-0.2885,-3.3400,-1.7025,3.760
1.763000,-1.2000,-3.6517,-2.0284,4.346
1.767000,-2.2653,-3.9461,-2.3305,5.112
1.774000,-3.3738,-4.1766,-2.5474,5.943
1.778000,-4.3868,-4.2490,-2.6497,6.657
1.782000,-5.2661,-4.1933,-2.6206,7.224
1.789000,-5.9977,-4.0494,-2.4368,7.636
1.793000,-6.5530,-3.8909,-2.1283,7.913
1.798000,-6.8847,-3.7547,-1.6949,8.023
1.809000,-6.9644,-3.6218,-1.1321,7.931
1.811000,-6.7974,-3.5071,-0.4727,7.663
1.814000,-6.3961,-3.4139,0.2218,7.254
1.818000,-5.8326,-3.3385,0.8580,6.775
1.854000,-5.1862,-3.2896,1.3336,6.285
1.856000,-4.5409,-3.2706,1.6607,5.837
1.856000,-3.9230,-3.2518,1.8402,5.418
1.857000,-3.3853,-3.2342,1.8760,5.044
1.858000,-2.9230,-3.2093,1.7840,4.693
1.858000,-2.5502,-3.1849,1.5877,4.378
1.859000,-2.2456,-3.1472,1.2869,4.075
1.860000,-2.0088,-3.0944,0.9204,3.802
1.863000,-1.8661,-3.0509,0.5314,3.616
1.869000,-1.8244,-3.0241,0.1347,3.534
1.873000,-1.9051,-3.0307,-0.2531,3.589
1.878000,-2.0938,-3.0607,-0.6390,3.763
1.884000,-2.3639,-3.0869,-0.9627,4.005
1.888000,-2.6842,-3.1399,-1.2140,4.306
1.894000,-3.0356,-3.1928,-1.3776,4.616
1.898000,-3.4154,-3.2802,-1.4623,4.956
1.909000,-3.8071,-3.3774,-1.4936,5.304
1.910000,-4.1556,-3.4592,-1.5085,5.613
1.916000,-4.4395,-3.4918,-1.5208,5.849
1.919000,-4.6157,-3.4581,-1.5130,5.963
1.955000,-4.7060,-3.3941,-1.4633,5.984
1.957000,-4.7008,-3.3264,-1.3960,5.926
1.957000,-4.6077,-3.2861,-1.3089,5.809
1.958000,-4.4242,-3.2425,-1.1835,5.611
1.959000,-4.1576,-3.2033,-1.0251,5.348
1.960000,-3.8127,-3.1644,-0.8604,5.029
1.960000,-3.4112,-3.1192,-0.6993,4.675
1.961000,-3.0008,-3.0875,-0.5638,4.342
1.964000,-2.6005,-3.0485,-0.4821,4.036
1.968000,-2.2341,-3.0052,-0.4589,3.773
1.974000,-1.9301,-3.0109,-0.4912,3.610
1.987000,-1.7147,-3.1038,-0.5854,3.594
1.988000,-1.5997,-3.2959,-0.7389,3.737
1.990000,-1.5755,-3.5817,-0.9418,4.025
1.994000,-1.6086,-3.8909,-1.1625,4.368
1.998000,-1.6822,-4.1894,-1.3439,4.710
2.004000,-1.8443,-4.4766,-1.4933,5.067
2.008000,-2.0542,-4.7277,-1.6131,5.401
2.013000,-2.2738,-4.9345,-1.7316,5.702
2.027000,-2.5150,-5.0965,-1.8361,5.973
2.029000,-2.7373,-5.2319,-1.9021,6.203
2.029000,-2.9096,-5.3350,-1.9321,6.377
2.033000,-3.0082,-5.3840,-1.9164,6.458
2.051000,-3.0213,-5.4165,-1.8743,6.479
2.055000,-2.9105,-5.4210,-1.7985,6.410
2.056000,-2.6903,-5.4237,-1.6633,6.279
2.057000,-2.3990,-5.3916,-1.4599,6.079
2.059000,-2.0367,-5.3346,-1.2084,5.837
2.063000,-2.0407,-5.2753,-0.9501,5.735
2.068000,-1.1527,-5.2495,-0.7327,5.424
2.074000,-0.7080,-5.3350,-0.6012,5.415
2.079000,-0.2993,-5.5506,-0.5716,5.588
2.083000,0.0806,-5.9223,-0.6242,5.956
2.090000,0.4415,-6.3828,-0.7157,6.438
2.093000,0.7906,-6.9215,-0.8151,7.014
2.098000,1.1496,-7.4863,-0.9011,7.627
2.104000,1.4900,-8.0428,-0.9528,8.235
2.109000,1.8309,-8.5665,-0.9419,8.810
2.114000,2.1583,-9.0376,-0.8303,9.329
2.121000,2.5083,-9.4342,-0.5949,9.780
2.124000,2.8858,-9.7146,-0.2386,10.137
2.129000,3.3199,-9.8136,0.1923,10.362
2.133000,3.8107,-9.6761,0.6973,10.423
2.143000,4.2891,-9.2770,1.2303,10.294
2.145000,4.7144,-8.5968,1.7460,9.959
2.149000,4.9747,-7.7320,2.1849,9.450
2.178000,5.0841,-6.7601,2.5119,8.824
2.179000,5.0693,-5.7816,2.7296,8.159
2.180000,4.9806,-4.8376,2.8309,7.498
2.181000,4.8921,-3.9791,2.8518,6.921
2.181000,4.8682,-3.2041,2.8064,6.469
2.182000,4.8968,-2.5080,2.7424,6.147
2.189000,4.9507,-1.8790,2.7054,5.946
2.190000,4.9629,-1.3363,2.6951,5.803
2.199000,4.9355,-0.8709,2.7306,5.707
2.200000,4.8298,-0.4759,2.8021,5.604
2.214000,4.6627,-0.1412,2.8999,5.493
2.216000,4.4527,0.1150,3.0149,5.379
2.216000,4.2311,0.3034,3.1519,5.285
2.220000,3.9690,0.4336,3.2775,5.165
2.231000,3.6735,0.5204,3.3845,5.022
2.233000,3.3377,0.5356,3.4422,4.824
2.234000,2.9737,0.5116,3.4360,4.573
2.248000,2.5647,0.4362,3.3814,4.266
2.249000,2.1565,0.3490,3.2711,3.933
2.249000,1.7686,0.2796,3.1248,3.602
2.255000,1.4538,0.2547,2.9744,3.320
2.259000,1.1907,0.2586,2.8440,3.094
2.265000,0.9766,0.2976,2.7249,2.910
2.269000,0.7950,0.3988,2.6075,2.755
2.296000,0.6530,0.5381,2.4633,2.605
2.298000,0.5434,0.7513,2.2922,2.473
2.299000,0.4780,1.0144,2.0705,2.355
2.300000,0.4425,1.2869,1.7862,2.246
2.300000,0.4577,1.5530,1.4331,2.162
2.300000,0.5284,1.8251,1.0567,2.174
2.305000,0.6184,2.0860,0.6815,2.280
2.314000,0.7178,2.3306,0.3361,2.462
2.315000,0.8076,2.5781,0.0324,2.702
2.320000,0.8678,2.8155,-0.2557,2.957
2.330000,0.9153,3.0478,-0.4972,3.221
2.332000,0.9238,3.2608,-0.7041,3.461
2.349000,0.9147,3.4545,-0.8765,3.679
2.351000,0.9169,3.6482,-1.0287,3.900
2.352000,0.9186,3.8209,-1.1417,4.092
2.353000,0.9265,3.9719,-1.2184,4.257
2.365000,0.9312,4.1088,-1.2709,4.401
2.367000,0.9447,4.2269,-1.2972,4.521
2.368000,0.9600,4.3096,-1.2784,4.597
2.410000,0.9628,4.3573,-1.1908,4.619
2.411000,0.9816,4.3553,-1.0350,4.583
2.411000,1.0262,4.3305,-0.8304,4.527
2.412000,1.0872,4.2805,-0.5873,4.455
2.412000,1.1646,4.2056,-0.3012,4.374
2.413000,1.2608,4.1489,-0.0063,4.336
2.414000,1.3497,4.1368,0.2830,4.361
2.415000,1.4019,4.1519,0.5397,4.415
2.416000,1.4106,4.2038,0.7546,4.498
2.416000,1.3900,4.2616,0.9323,4.578
2.421000,1.3618,4.3179,1.0608,4.650
2.424000,1.3405,4.3900,1.1501,4.732
2.430000,1.3638,4.4748,1.2071,4.831
2.435000,1.4224,4.5247,1.2488,4.905
2.441000,1.5182,4.5825,1.2514,4.987
2.445000,1.6271,4.6311,1.2127,5.056
2.450000,1.7463,4.6798,1.1448,5.124
2.457000,1.8638,4.7167,1.0648,5.182
2.460000,1.9959,4.7413,0.9917,5.239
2.465000,2.1521,4.7295,0.9564,5.283
2.469000,2.3154,4.7005,0.9230,5.321
2.507000,2.4806,4.6444,0.8792,5.338
2.509000,2.6120,4.5587,0.8157,5.317
2.510000,2.6901,4.4530,0.7134,5.251
2.511000,2.6938,4.2867,0.5918,5.097
2.511000,2.5922,4.0651,0.4438,4.842
2.513000,2.4482,3.8009,0.2864,4.530
2.513000,2.2577,3.5164,0.1294,4.181
2.514000,2.0666,3.2456,-0.0147,3.848
2.515000,1.8872,3.0129,-0.1270,3.557
2.521000,1.6889,2.8259,-0.2334,3.300
2.525000,1.5294,2.7064,-0.3170,3.125
2.530000,1.4542,2.6689,-0.3824,3.063
2.541000,1.4467,2.7278,-0.4200,3.116
2.543000,1.5111,2.8659,-0.4300,3.268
2.546000,1.6351,3.0706,-0.4222,3.504
2.550000,1.8136,3.2912,-0.3897,3.778
2.554000,1.9862,3.4938,-0.3637,4.035
2.560000,2.1575,3.6590,-0.3585,4.263
2.565000,2.3633,3.7556,-0.3837,4.454
2.570000,2.6009,3.7857,-0.4511,4.615
2.574000,2.8726,3.7088,-0.5625,4.725
2.582000,3.1877,3.5366,-0.6770,4.809
2.585000,3.5343,3.2622,-0.7750,4.872
2.601000,3.9004,2.9311,-0.8518,4.953
2.603000,4.2525,2.6056,-0.8888,5.066
2.603000,4.5523,2.3404,-0.8935,5.196
2.606000,4.8091,2.1590,-0.8758,5.344
2.611000,4.9798,2.0849,-0.8358,5.463
2.616000,5.0667,2.0916,-0.7686,5.535
2.620000,5.0579,2.1212,-0.6714,5.526
2.625000,4.9993,2.1311,-0.5732,5.465
2.630000,4.9747,2.0568,-0.5073,5.407
2.639000,5.0252,1.8868,-0.4777,5.389
2.640000,5.1699,1.6021,-0.4603,5.432
2.645000,5.3872,1.1885,-0.4739,5.537
2.650000,5.6583,0.6537,-0.4662,5.715
2.656000,5.9593,0.0433,-0.4108,5.974
2.660000,6.2953,-0.6016,-0.2745,6.330
2.665000,6.6066,-1.2257,-0.0532,6.720
2.682000,6.8456,-1.7763,0.2333,7.076
2.685000,7.0296,-2.1953,0.5737,7.387
2.686000,7.1226,-2.4445,0.9602,7.591
2.687000,7.1153,-2.5002,1.3654,7.664
2.717000,7.0292,-2.3528,1.7642,7.620
2.719000,6.8690,-2.0099,2.1392,7.470
2.720000,6.6248,-1.5178,2.4660,7.230
2.720000,6.3063,-0.9574,2.7105,6.931
2.721000,5.9826,-0.3273,2.8704,6.644
2.721000,5.6845,0.3364,2.9626,6.419
2.722000,5.3757,0.9685,3.0083,6.236
2.725000,5.0367,1.5153,2.9740,6.042
2.730000,4.6748,1.9510,2.8670,5.821
2.735000,4.2994,2.2513,2.6616,5.535
2.740000,3.9084,2.4186,2.3874,5.179
2.745000,3.5643,2.4483,2.0600,4.790
2.750000,3.3032,2.3673,1.7283,4.416
2.755000,3.1440,2.1895,1.4406,4.093
2.759000,3.0134,1.8850,1.2091,3.754
2.764000,2.8895,1.5134,1.0243,3.419
2.772000,2.7464,1.1015,0.8479,3.078
2.776000,2.5844,0.6901,0.6761,2.759
2.780000,2.3700,0.2839,0.5333,2.446
2.785000,2.1187,-0.1009,0.4251,2.163
2.790000,1.8329,-0.4452,0.3925,1.927
2.795000,1.4819,-0.7364,0.4068,1.704
2.800000,1.0947,-0.9429,0.4465,1.512
2.808000,0.6929,-1.0429,0.5188,1.355
2.814000,0.3075,-1.0463,0.5901,1.240
2.814000,-0.0347,-0.9424,0.6729,1.158
2.842000,-0.3007,-0.7631,0.7860,1.136
2.843000,-0.4836,-0.5708,0.9149,1.182
2.843000,-0.5525,-0.3587,1.0352,1.227
2.843000,-0.5296,-0.1757,1.1276,1.258
2.844000,-0.4291,-0.0500,1.2061,1.281
2.847000,-0.2755,0.0341,1.2415,1.272
2.850000,-0.1098,0.0427,1.2402,1.246
2.855000,0.0081,-0.0009,1.1872,1.187
2.860000,0.0543,-0.0660,1.0940,1.097
2.865000,0.0190,-0.1293,0.9699,0.979
2.871000,-0.1163,-0.2257,0.8315,0.869
2.875000,-0.3371,-0.3196,0.7004,0.840
2.880000,-0.6481,-0.4822,0.5885,0.999
2.885000,-1.0343,-0.6839,0.5174,1.344
2.891000,-1.4623,-0.9055,0.4418,1.776
2.895000,-1.8859,-1.0946,0.3719,2.212
2.900000,-2.2670,-1.2512,0.3222,2.609
2.908000,-2.6079,-1.3728,0.3053,2.963
2.913000,-2.8680,-1.4565,0.3121,3.232
2.915000,-3.0547,-1.5311,0.3285,3.433
2.943000,-3.1634,-1.6115,0.3452,3.567
2.945000,-3.2011,-1.7206,0.3464,3.651
2.945000,-3.1779,-1.8687,0.3463,3.703
2.946000,-3.1009,-2.0819,0.3377,3.750
2.946000,-2.9752,-2.3460,0.3130,3.802
2.947000,-2.8438,-2.6375,0.2450,3.886
2.952000,-2.7404,-2.9530,0.0976,4.030
2.957000,-2.6887,-3.2547,-0.1302,4.224
2.960000,-2.7079,-3.5448,-0.4198,4.480
2.965000,-2.7621,-3.8040,-0.7691,4.764
2.971000,-2.8393,-3.9939,-1.1564,5.035
2.976000,-2.9276,-4.1176,-1.5404,5.282
2.981000,-3.0149,-4.1720,-1.8982,5.486
2.990000,-3.0918,-4.1913,-2.2072,5.657
2.992000,-3.1822,-4.2046,-2.4571,5.817
2.996000,-3.3126,-4.2477,-2.6592,6.007
3.000000,-3.4662,-4.3254,-2.8036,6.212
3.006000,-3.6406,-4.4532,-2.8942,6.439
3.010000,-3.8310,-4.6094,-2.9213,6.668
3.015000,-3.9754,-4.7670,-2.9016,6.852
3.030000,-4.1025,-4.9063,-2.8086,6.985
3.031000,-4.1480,-5.0201,-2.4729,6.966
3.032000,-4.1429,-5.0633,-2.4784,6.996
3.036000,-4.0780,-5.0832,-2.2369,6.890
3.055000,-3.9795,-5.0897,-1.9646,6.753
3.057000,-3.8740,-5.1050,-1.6786,6.625
3.057000,-3.7446,-5.1217,-1.3988,6.497
3.058000,-3.6033,-5.1331,-1.1233,6.371
3.061000,-3.4813,-5.1462,-0.8811,6.275
3.065000,-3.3571,-5.1543,-0.6773,6.188
3.071000,-3.2497,-5.1312,-0.5121,6.095
3.076000,-3.1831,-5.0628,-0.4048,5.994
3.081000,-3.1262,-4.9802,-0.3311,5.889
3.086000,-3.0837,-4.8622,-0.3129,5.766
3.092000,-3.0652,-4.7277,-0.3503,5.645
3.097000,-3.0563,-4.5748,-0.4123,5.517
3.100000,-3.0713,-4.4011,-0.4946,5.390
3.110000,-3.0982,-4.2520,-0.5951,5.295
3.113000,-3.1347,-4.0987,-0.7090,5.209
3.122000,-3.1640,-3.9365,-0.8268,5.118
3.123000,-3.1669,-3.7725,-0.9385,5.014
3.146000,-3.1626,-3.6167,-1.0488,4.918
3.147000,-3.1273,-3.4475,-1.1476,4.794
3.148000,-3.0442,-3.2725,-1.2396,4.638
3.148000,-2.9253,-3.1208,-1.3151,4.475
3.149000,-2.7732,-3.0214,-1.3712,4.324
3.151000,-2.5901,-2.9721,-1.4248,4.192
3.156000,-2.3738,-2.9754,-1.4829,4.085
3.161000,-2.1529,-3.0555,-1.5453,4.045
3.166000,-1.9945,-3.2030,-1.6118,4.103
3.171000,-1.9104,-3.4272,-1.6873,4.271
3.176000,-1.9102,-3.6798,-1.7788,4.512
3.181000,-1.9267,-3.9144,-1.8650,4.745
3.186000,-1.9624,-4.1165,-1.9269,4.951
3.190000,-2.0410,-4.3069,-1.9574,5.152
3.196000,-2.1746,-4.5019,-1.9783,5.377
3.200000,-2.3153,-4.6673,-2.0134,5.585
3.207000,-2.4223,-4.8169,-2.0484,5.768
3.211000,-2.5100,-4.9358,-2.0758,5.914
3.216000,-2.5427,-5.0382,-2.0933,6.019
3.227000,-2.5322,-5.0949,-2.0797,6.058
3.230000,-2.4714,-5.1304,-2.0373,6.048
3.231000,-2.3459,-5.1371,-1.9759,5.983
3.238000,-2.1677,-5.1488,-1.8958,5.899
3.270000,-1.9416,-5.1418,-1.7922,5.781
3.272000,-1.6844,-5.1498,-1.6888,5.675
3.273000,-1.4151,-5.1630,-1.5785,5.581
3.274000,-1.0979,-5.1562,-1.4729,5.474
3.274000,-0.7398,-5.1510,-1.3648,5.380
3.276000,-0.3769,-5.1836,-1.2608,5.348
3.276000,-0.0019,-5.2281,-1.1541,5.354
3.277000,0.3733,-5.3298,-1.0659,5.448
3.281000,0.7414,-5.4945,-1.0127,5.636
3.286000,1.0954,-5.7195,-0.9701,5.904
3.291000,1.4233,-6.0119,-0.9306,6.248
3.297000,1.7157,-6.3690,-0.8610,6.652
3.301000,1.9416,-6.7569,-0.7448,7.070
3.306000,2.1205,-7.1648,-0.5779,7.494
3.312000,2.2239,-7.5284,-0.3324,7.857
3.317000,2.2210,-7.8084,-0.0210,8.118
3.324000,2.1265,-7.9421,0.3437,8.229
3.327000,1.9505,-7.8883,0.7350,8.159
3.331000,1.7341,-7.6149,1.1123,7.889
3.366000,1.4941,-7.1735,1.4474,7.469
3.369000,1.3314,-6.5878,1.7216,6.938
3.370000,1.2769,-5.9037,1.9163,6.337
3.371000,1.3665,-5.1725,2.0679,5.736
3.372000,1.5402,-4.4456,2.1882,5.189
3.373000,1.8003,-3.7569,2.2628,4.741
3.373000,2.1102,-3.0927,2.2654,4.376
3.374000,2.4410,-2.4417,2.2175,4.103
3.376000,2.7300,-1.8266,2.1551,3.929
3.381000,2.9507,-1.2267,2.0995,3.823
3.387000,3.0934,-0.6709,2.0432,3.767
3.391000,3.1789,-0.1540,1.9672,3.742
3.396000,3.2167,0.3027,1.8835,3.740
3.401000,3.2090,0.7206,1.7924,3.746
3.406000,3.1604,1.0804,1.7060,3.750
3.411000,3.0684,1.3634,1.6432,3.738
3.416000,2.9539,1.5565,1.5969,3.701
3.424000,2.7957,1.6489,1.5765,3.608
3.427000,2.5772,1.6315,1.5364,3.415
3.431000,2.2962,1.5006,1.4551,3.105
3.455000,1.9077,1.2691,1.3355,2.652
3.457000,1.4653,0.9893,1.1351,2.101
3.457000,1.0192,0.7306,0.8813,1.533
3.458000,0.6441,0.5734,0.5967,1.049
3.458000,0.3690,0.5300,0.2916,0.709
3.462000,0.1936,0.6049,0.0196,0.635
3.466000,0.1252,0.8342,-0.1858,0.864
3.471000,0.1676,1.1848,-0.2941,1.232
3.476000,0.2703,1.5727,-0.3036,1.624
3.481000,0.4043,1.9780,-0.2631,2.036
3.486000,0.5930,2.3929,-0.2164,2.475
3.491000,0.8144,2.7927,-0.1425,2.912
3.497000,1.0157,3.1415,-0.0613,3.302
3.501000,1.1818,3.4453,-0.0021,3.642
3.507000,1.2985,3.6901,0.0397,3.912
3.512000,1.3607,3.8756,0.0565,4.108
3.516000,1.3901,4.0023,0.0601,4.237
3.522000,1.3941,4.0658,0.0526,4.298
3.527000,1.3628,4.0492,0.0506,4.273
3.531000,1.2920,3.9508,0.0492,4.157
3.537000,1.2202,3.8167,0.0197,4.007
3.542000,1.1738,3.6783,-0.0209,3.861
3.547000,1.1433,3.5501,-0.0577,3.730
3.552000,1.1481,3.4255,-0.0785,3.614
3.564000,1.1687,3.3087,-0.0805,3.510
3.567000,1.1931,3.2095,-0.0873,3.425
3.568000,1.2285,3.1352,-0.0675,3.368
3.603000,1.2462,3.0594,-0.0113,3.303
3.604000,1.2344,2.9752,0.0528,3.222
3.605000,1.2026,2.8538,0.1225,3.099
3.605000,1.1701,2.7314,0.1837,2.977
3.605000,1.1514,2.6369,0.2413,2.887
3.606000,1.1679,2.5726,0.3028,2.841
3.607000,1.2197,2.5529,0.3944,2.857
3.611000,1.2611,2.5728,0.5137,2.911
3.612000,1.3159,2.6248,0.6697,3.012
3.617000,1.3672,2.6992,0.8335,3.138
3.622000,1.4366,2.7579,0.9710,3.258
3.627000,1.5335,2.8006,1.0893,3.374
3.632000,1.6508,2.8156,1.1667,3.466
3.637000,1.7618,2.8024,1.2195,3.528
3.642000,1.8639,2.7562,1.2238,3.545
3.647000,1.9764,2.6650,1.1988,3.528
3.653000,2.0633,2.5410,1.1516,3.470
3.663000,2.1247,2.4154,1.1017,3.400
3.664000,2.1535,2.2906,1.0392,3.311
3.667000,2.1306,2.1521,0.9762,3.182
3.697000,2.0658,2.0243,0.9320,3.039
3.698000,1.9690,1.9193,0.9066,2.895
3.699000,1.8451,1.8182,0.8903,2.739
3.699000,1.7016,1.7331,0.8594,2.576
3.699000,1.5027,1.6474,0.8019,2.370
3.700000,1.2847,1.5712,0.7230,2.155
3.702000,1.0719,1.5215,0.6587,1.974
3.707000,0.8836,1.5058,0.5971,1.845
3.712000,0.7751,1.4859,0.5360,1.760
3.717000,0.7390,1.4644,0.4561,1.703
3.722000,0.8327,1.4460,0.3268,1.700
3.727000,1.0630,1.3803,0.1367,1.748
3.732000,1.4414,1.2598,-0.0847,1.916
3.737000,1.9004,1.0794,-0.3080,2.207
3.742000,2.3795,0.8744,-0.4730,2.579
3.747000,2.8403,0.6756,-0.5562,2.972
3.755000,3.1917,0.5235,-0.5368,3.279
3.757000,3.4267,0.4323,-0.4418,3.482
3.763000,3.5360,0.4283,-0.3008,3.575
3.767000,3.5845,0.4998,-0.1546,3.622
3.782000,3.5913,0.6607,0.0178,3.652
3.784000,3.5732,0.8586,0.1873,3.680
3.786000,3.5039,1.0357,0.3442,3.670
3.815000,3.4121,1.2137,0.4782,3.653
3.816000,3.2811,1.3855,0.5673,3.606
3.817000,3.1324,1.5461,0.6067,3.545
3.817000,3.0069,1.6624,0.5866,3.486
3.818000,2.9285,1.7058,0.5195,3.429
3.819000,2.9139,1.6549,0.3917,3.374
3.820000,3.0014,1.4954,0.2015,3.359
3.822000,3.2147,1.2155,0.0002,3.437
3.827000,3.5249,0.8271,-0.1731,3.625
3.832000,3.8411,0.2803,-0.2890,3.862
3.837000,4.1707,-0.3935,-0.3377,4.203
3.843000,4.4904,-1.0931,-0.2567,4.629
3.847000,4.7765,-1.7415,-0.0035,5.084
3.853000,4.9530,-2.2522,0.4208,5.457
3.857000,4.9991,-2.6222,1.0049,5.734
3.863000,4.9440,-2.7625,1.6996,5.913
3.867000,4.8339,-2.6392,2.4677,6.035
3.875000,4.6927,-2.2143,3.2360,6.115
3.878000,4.5535,-1.5409,3.9100,6.197
3.882000,4.4230,-0.6631,4.3929,6.269
3.911000,4.3171,0.3154,4.6416,6.347
3.912000,4.2803,1.3382,4.6535,6.463
3.913000,4.2949,2.2941,4.4433,6.592
3.913000,4.3071,3.1125,4.0094,6.657
3.914000,4.3400,3.7399,3.4030,6.664
3.914000,4.3574,4.1924,2.6758,6.612
3.917000,4.3373,4.4696,1.9082,6.514
3.922000,4.2198,4.5547,1.1248,6.310
3.927000,3.9863,4.5078,0.3746,6.029
3.932000,3.6346,4.3410,-0.3061,5.670
3.937000,3.1968,4.1009,-0.8993,5.277
3.943000,2.7334,3.8527,-1.3783,4.921
3.949000,2.2498,3.6042,-1.7210,4.584
3.953000,1.7536,3.3441,-1.9772,4.262
3.959000,1.2527,3.0923,-2.1324,3.960
3.963000,0.7785,2.8540,-2.2080,3.691
3.967000,0.3556,2.6447,-2.2133,3.467
3.973000,-0.0039,2.4741,-2.1411,3.272
3.978000,-0.2926,2.3593,-2.0033,3.109
3.982000,-0.4796,2.3051,-1.8167,2.974
4.021000,-0.5627,2.2875,-1.6126,2.855
4.023000,-0.4917,2.3041,-1.4031,2.742
4.023000,-0.2958,2.3662,-1.1928,2.666
4.024000,-0.0380,2.4733,-0.9843,2.662
4.024000,0.2574,2.5981,-0.7973,2.730
4.024000,0.5250,2.7108,-0.6413,2.835
4.025000,0.7220,2.7803,-0.4979,2.915
4.027000,0.7932,2.7989,-0.3746,2.933
4.028000,0.7793,2.7692,-0.2626,2.889
4.033000,0.6880,2.6842,-0.1550,2.775
4.038000,0.5578,2.5875,-0.0355,2.647
4.043000,0.3938,2.4647,0.1102,2.498
4.047000,0.2395,2.3194,0.2621,2.346
4.052000,0.0807,2.1827,0.4346,2.227
4.059000,-0.0490,2.0452,0.6273,2.140
4.063000,-0.1806,1.9217,0.8400,2.105
4.068000,-0.3023,1.8141,1.0510,2.118
4.077000,-0.4039,1.7450,1.2673,2.194
4.079000,-0.4883,1.7210,1.4745,2.318
4.083000,-0.5697,1.7276,1.6490,2.455
4.115000,-0.6531,1.7550,1.7785,2.583
4.117000,-0.7384,1.7699,1.8538,2.667
4.118000,-0.8139,1.8099,1.8586,2.719
4.118000,-0.8602,1.8588,1.8122,2.735
4.119000,-0.8679,1.9065,1.7223,2.712
4.120000,-0.8564,1.9429,1.6108,2.665
4.120000,-0.7803,1.9440,1.4591,2.553
4.125000,-0.6257,1.9496,1.2628,2.406
4.129000,-0.4235,1.9409,1.0296,2.238
4.134000,-0.2337,1.8741,0.7862,2.046
4.138000,-0.0516,1.7463,0.5469,1.831
4.142000,0.0797,1.5600,0.3215,1.595
4.149000,0.1558,1.3175,0.1198,1.332
4.154000,0.1647,1.0425,-0.0366,1.056
4.158000,0.1024,0.7294,-0.1311,0.748
4.163000,-0.0143,0.3760,-0.1662,0.411
4.169000,-0.1991,0.0237,-0.1256,0.237
4.173000,-0.3754,-0.3147,-0.0430,0.492
4.178000,-0.5383,-0.6226,0.0885,0.828
4.182000,-0.6754,-0.9195,0.2712,1.173
4.191000,-0.8011,-1.1820,0.4566,1.499
4.194000,-0.8917,-1.4072,0.6352,1.783
4.198000,-0.9494,-1.5878,0.7969,2.014
4.203000,-0.9888,-1.7502,0.9464,2.222
4.235000,-1.0077,-1.8877,1.0758,2.395
4.236000,-0.9820,-2.0108,1.1654,2.523
4.237000,-0.8593,-2.1178,1.1741,2.569
4.238000,-0.6376,-2.1778,1.1064,2.525
4.238000,-0.3674,-2.2249,0.9789,2.458
4.238000,-0.0751,-2.2622,0.7984,2.400
4.239000,0.2461,-2.2955,0.5888,2.383
4.243000,0.5534,-2.3482,0.4123,2.447
4.248000,0.7868,-2.4378,0.2996,2.579
4.255000,0.9226,-2.5522,0.2597,2.726
4.258000,0.9823,-2.6745,0.2706,2.862
4.263000,0.9709,-2.7835,0.3706,2.971
4.268000,0.9125,-2.8679,0.5283,3.056
4.273000,0.8025,-2.9304,0.7270,3.124
4.278000,0.6624,-2.9873,0.9285,3.198
4.283000,0.5234,-3.0668,1.1070,3.302
4.289000,0.3856,-3.1942,1.2415,3.449
4.294000,0.2012,-3.4054,1.3038,3.652
4.298000,0.0060,-3.6338,1.2546,3.844
4.303000,-0.1520,-3.7912,1.0376,3.934
4.311000,-0.2253,-3.8850,0.6973,3.953
4.314000,-0.2569,-3.9536,0.3332,3.976
4.318000,-0.2376,-4.0742,0.0100,4.081
4.349000,-0.1410,-4.2696,-0.2481,4.279
4.350000,0.0324,-4.5281,-0.4321,4.549
4.350000,0.2779,-4.8235,-0.5497,4.863
4.351000,0.5234,-5.1205,-0.5989,5.182
4.351000,0.7427,-5.4007,-0.5874,5.483
4.351000,0.9117,-5.6348,-0.5154,5.731
4.360000,1.0139,-5.8139,-0.4166,5.916
4.361000,1.0157,-5.9478,-0.3247,6.043
4.364000,0.9316,-6.0532,-0.2633,6.130
4.369000,0.7927,-6.1418,-0.2512,6.198
4.374000,0.6183,-6.2425,-0.2811,6.279
4.378000,0.4488,-6.3613,-0.3569,6.387
4.383000,0.3584,-6.4935,-0.4736,6.521
4.388000,0.3110,-6.6654,-0.5879,6.698
4.394000,0.3209,-6.8549,-0.7235,6.900
4.398000,0.3736,-7.0456,-0.8613,7.108
4.408000,0.4403,-7.2129,-0.9797,7.292
4.410000,0.5425,-7.3287,-1.0769,7.427
4.413000,0.6658,-7.4072,-1.1794,7.530
4.419000,0.7814,-7.4821,-1.2779,7.631
4.451000,0.8535,-7.5653,-1.3677,7.735
4.455000,0.8988,-7.6472,-1.4584,7.837
4.456000,0.8768,-7.7062,-1.5167,7.903
4.456000,0.7732,-7.7352,-1.5260,7.922
4.457000,0.5928,-7.7005,-1.4653,7.861
4.458000,0.3811,-7.5875,-1.3089,7.709
4.459000,0.1621,-7.3792,-1.0766,7.459
4.459000,-0.0666,-7.1043,-0.8049,7.150
4.463000,-0.2977,-6.7560,-0.5038,6.781
4.469000,-0.2993,-6.3701,-0.2002,6.380
4.474000,-0.7364,-5.9756,0.0845,6.021
4.479000,-0.9317,-5.5608,0.3356,5.648
4.484000,-1.0719,-5.1449,0.5319,5.282
4.490000,-1.1665,-4.7315,0.6897,4.922
4.495000,-1.2155,-4.3230,0.8067,4.563
4.499000,-1.2046,-3.9538,0.8779,4.225
4.503000,-1.1673,-3.6006,0.9056,3.892
4.509000,-1.1226,-3.2758,0.8923,3.576
4.514000,-1.1111,-2.9975,0.8479,3.307
4.518000,-1.1352,-2.7514,0.7607,3.072
4.555000,-1.2546,-2.5570,0.6193,2.915
4.557000,-1.4716,-2.4264,0.4435,2.872
4.558000,-1.7788,-2.3352,0.2482,2.946
4.558000,-2.1285,-2.2995,0.0551,3.134
4.559000,-2.4871,-2.2713,-0.1278,3.371
4.559000,-2.8235,-2.2428,-0.2669,3.616
4.560000,-3.1305,-2.2351,-0.3906,3.866
4.560000,-3.3820,-2.2574,-0.5080,4.098
4.564000,-3.5708,-2.2877,-0.6188,4.286
4.568000,-3.7161,-2.3263,-0.7200,4.443
4.575000,-3.8299,-2.3706,-0.8041,4.575
4.579000,-3.9147,-2.4370,-0.8713,4.693
4.584000,-3.9729,-2.5181,-0.9430,4.797
4.589000,-3.9997,-2.5876,-1.0097,4.870
4.594000,-3.9854,-2.6307,-1.0763,4.895
4.599000,-3.9542,-2.6503,-1.1284,4.892
4.605000,-3.9202,-2.6441,-1.1777,4.873
4.609000,-3.9146,-2.6359,-1.1981,4.869
4.615000,-3.9301,-2.6281,-1.2016,4.878
4.628000,-3.9569,-2.6102,-1.1839,4.886
4.630000,-3.9712,-2.6044,-1.1477,4.886
4.631000,-3.9871,-2.5956,-1.0812,4.879
4.634000,-3.9711,-2.5549,-0.9994,4.827
4.673000,-3.9232,-2.4706,-0.9145,4.726
4.675000,-3.8456,-2.3522,-0.8196,4.582
4.675000,-3.7551,-2.1948,-0.7102,4.407
4.677000,-3.6564,-2.0094,-0.6060,4.216
4.677000,-3.5831,-1.7979,-0.4977,4.040
4.678000,-3.4990,-1.5678,-0.4024,3.855
4.679000,-3.3899,-1.3433,-0.3369,3.662
4.680000,-3.2509,-1.1525,-0.3061,3.463
4.680000,-3.0440,-0.9682,-0.3054,3.209
4.684000,-2.7595,-0.8045,-0.3277,2.893
4.689000,-2.4599,-0.6573,-0.3558,2.571
4.694000,-2.1548,-0.4937,-0.4042,2.247
4.699000,-1.8708,-0.3383,-0.4698,1.958
4.704000,-1.6461,-0.1887,-0.5499,1.746
4.709000,-1.4809,-0.0701,-0.6323,1.612
4.717000,-1.3680,0.0108,-0.6976,1.536
4.720000,-1.2953,0.0591,-0.7551,1.501
4.724000,-1.2341,0.0701,-0.8120,1.479
4.729000,-1.1747,0.0756,-0.8608,1.458
4.734000,-1.1055,0.0722,-0.8848,1.418
4.760000,-1.0549,0.0414,-0.8863,1.378
4.761000,-1.0039,-0.0025,-0.8411,1.310
4.761000,-0.9692,-0.0687,-0.7541,1.230
4.761000,-0.9219,-0.1375,-0.6303,1.125
4.761000,-0.8573,-0.2048,-0.5200,1.023
4.766000,-0.7515,-0.2723,-0.4162,0.901
4.771000,-0.5470,-0.3089,-0.3401,0.714
4.774000,-0.2704,-0.3149,-0.2701,0.495
4.780000,0.0302,-0.3171,-0.2112,0.382
4.786000,0.3524,-0.3443,-0.1727,0.522
4.791000,0.6717,-0.3593,-0.1501,0.776
4.795000,0.9642,-0.4075,-0.1193,1.054
4.801000,1.2060,-0.4913,-0.0639,1.304
4.805000,1.4185,-0.5915,0.0066,1.537
4.810000,1.5782,-0.7243,0.0708,1.738
4.816000,1.6918,-0.8831,0.1259,1.913
4.820000,1.7743,-1.0599,0.1701,2.074
4.825000,1.8496,-1.2137,0.2085,2.222
4.829000,1.9201,-1.3397,0.2529,2.355
4.840000,1.9503,-1.4614,0.3275,2.459
4.841000,1.9571,-1.5758,0.4181,2.547
4.845000,1.9143,-1.6688,0.5455,2.598
4.850000,1.8534,-1.7420,0.6932,2.636
4.863000,1.8012,-1.7922,0.8757,2.688
4.865000,1.7915,-1.8192,1.0737,2.770
4.866000,1.8509,-1.8316,1.2921,2.907
4.914000,1.9936,-1.8062,1.5130,3.086
4.916000,2.2531,-1.6732,1.7264,3.295
4.916000,2.6314,-1.4335,1.9059,3.551
4.917000,3.0537,-1.1071,2.0583,3.845
4.917000,3.4766,-0.7883,2.1481,4.162
4.918000,3.8905,-0.4985,2.1610,4.478
4.918000,4.2968,-0.2560,2.0898,4.785
4.919000,4.6859,-0.0679,1.9824,5.088
4.919000,5.0360,0.1037,1.8820,5.377
4.920000,5.3298,0.3084,1.7977,5.633
4.925000,5.5816,0.5724,1.7270,5.871
4.926000,5.7740,0.8754,1.6741,6.075
4.930000,5.9832,1.2365,1.6249,6.322
4.936000,6.1780,1.5955,1.6010,6.578
4.940000,6.2931,1.9255,1.6117,6.776
4.944000,6.3021,2.2312,1.6353,6.882
4.951000,6.2050,2.4719,1.6356,6.877
4.957000,5.9992,2.6190,1.6266,6.745
4.961000,5.7358,2.6495,1.5965,6.517
4.964000,5.4990,2.5333,1.5433,6.248
5.003000,5.3419,2.2810,1.4599,5.989
5.004000,5.2916,1.9007,1.2968,5.770
5.005000,5.3383,1.4479,1.0854,5.637
5.005000,5.4562,0.9421,0.8385,5.600
5.005000,5.6286,0.3909,0.5878,5.673
5.006000,5.8320,-0.1479,0.3744,5.846
5.006000,5.9948,-0.6572,0.2416,6.036
5.006000,6.0818,-1.0936,0.2133,6.183
5.011000,6.0882,-1.3827,0.2983,6.250
5.016000,6.0267,-1.4595,0.5199,6.223
5.020000,5.9214,-1.2855,0.8676,6.121
5.025000,5.8226,-0.8254,1.3141,6.026
5.032000,5.7562,-0.1083,1.7989,6.032
5.035000,5.6615,0.7665,2.2997,6.159
5.039000,5.5356,1.7023,2.7318,6.403
5.044000,5.4114,2.6366,3.0518,6.749
5.049000,5.2954,3.5375,3.2592,7.154
5.058000,5.1916,4.3493,3.3608,7.561
5.059000,5.1017,5.0474,3.3563,7.923
5.065000,5.0105,5.5999,3.2481,8.186
5.088000,4.9080,6.0113,3.0389,8.334
5.090000,4.7915,6.2908,2.7482,8.372
5.090000,4.6369,6.4574,2.3717,8.296
5.091000,4.4132,6.4942,1.9341,8.087
5.091000,4.0753,6.3969,1.4628,7.725
5.095000,3.6479,6.1946,0.9682,7.254
5.100000,3.1555,5.9119,0.4772,6.718
5.105000,2.6516,5.5951,0.0005,6.192
5.111000,2.1512,5.2543,-0.4420,5.695
5.115000,1.6213,4.9139,-0.8090,5.237
5.120000,1.0699,4.5557,-1.0852,4.804
5.125000,0.5337,4.2333,-1.2821,4.455
5.131000,0.0228,3.9450,-1.3824,4.180
5.137000,-0.4404,3.6773,-1.3714,3.949
5.141000,-0.8342,3.4574,-1.2970,3.786
5.151000,-1.1387,3.3313,-1.1660,3.709
5.152000,-1.3206,3.2991,-1.0168,3.696
5.163000,-1.3610,3.3584,-0.8303,3.718
5.164000,-1.2627,3.5206,-0.6047,3.789
5.166000,-1.0242,3.7659,-0.3765,3.921
5.212000,-0.6749,4.0313,-0.1681,4.091
5.213000,-0.2586,4.2919,0.0033,4.300
5.213000,0.1400,4.5157,0.1299,4.520
5.214000,0.4845,4.7043,0.2135,4.734
5.214000,0.7673,4.8381,0.2535,4.905
5.214000,0.9642,4.9549,0.2495,5.054
5.215000,1.0896,5.0618,0.2228,5.183
5.215000,1.1219,5.1227,0.1827,5.247
5.216000,1.0804,5.1425,0.1291,5.256
5.216000,0.9988,5.1285,0.0715,5.225
5.222000,0.8630,5.0930,0.0245,5.166
5.225000,0.7138,5.0431,-0.0141,5.093
5.231000,0.5686,4.9485,-0.0414,4.981
5.236000,0.4512,4.8476,-0.0740,4.869
5.240000,0.4098,4.7285,-0.1138,4.748
5.246000,0.4155,4.5818,-0.1964,4.605
5.251000,0.4730,4.4311,-0.2926,4.466
5.255000,0.5488,4.2528,-0.3949,4.306
5.260000,0.6190,4.0442,-0.5342,4.126
5.266000,0.7052,3.8390,-0.6979,3.965
5.273000,0.7860,3.6469,-0.8641,3.829
5.276000,0.8375,3.4510,-1.0205,3.695
5.280000,0.8285,3.2584,-1.1720,3.560
5.286000,0.7884,3.0960,-1.3182,3.456
5.305000,0.7362,2.9781,-1.4519,3.394
5.306000,0.6792,2.8711,-1.5395,3.328
5.306000,0.6271,2.7969,-1.5428,3.255
5.307000,0.5966,2.7552,-1.4695,3.179
5.310000,0.6501,2.7345,-1.3203,3.105
5.316000,0.7562,2.7439,-1.1100,3.055
5.322000,0.9337,2.7639,-0.8535,3.040
5.326000,1.1847,2.7917,-0.5536,3.083
5.331000,1.4993,2.8171,-0.2540,3.201
5.335000,1.8243,2.8200,0.0233,3.359
5.341000,2.1192,2.7696,0.2466,3.496
5.345000,2.3861,2.6556,0.3967,3.592
5.350000,2.5987,2.5016,0.4954,3.641
5.356000,2.7619,2.2957,0.6023,3.642
5.366000,2.8637,2.0397,0.7222,3.589
5.367000,2.9002,1.7662,0.8619,3.503
5.371000,2.8762,1.4559,1.0379,3.387
5.375000,2.8352,1.1356,1.2453,3.298
5.380000,2.7630,0.8106,1.4526,3.225
5.386000,2.6671,0.5170,1.6595,3.184
5.390000,2.5714,0.2474,1.8563,3.181
5.395000,2.4789,0.0414,2.0285,3.203
5.400000,2.3654,-0.0993,2.1904,3.225
5.409000,2.2574,-0.2131,2.3298,3.251
5.443000,2.1429,-0.3120,2.4491,3.269
5.445000,2.0338,-0.4397,2.5388,3.283
5.445000,1.8996,-0.5826,2.5607,3.241
5.446000,1.7402,-0.7819,2.4793,3.128
5.446000,1.5677,-1.0255,2.3050,2.970
5.447000,1.4039,-1.3152,2.0580,2.817
5.447000,1.2466,-1.6672,1.7417,2.714
5.447000,1.1507,-2.0986,1.3977,2.772
5.451000,1.1358,-2.6023,1.0607,3.031
5.456000,1.2161,-3.2311,0.7624,3.536
5.461000,1.3819,-3.9506,0.5272,4.218
5.466000,1.6474,-4.6957,0.3577,4.989
5.472000,1.9502,-5.4642,0.2517,5.807
5.477000,2.2498,-6.1902,0.2233,6.590
5.480000,2.4789,-6.8191,0.2503,7.260
5.486000,2.6137,-7.3006,0.2961,7.760
5.491000,2.6685,-7.6346,0.3649,8.096
5.497000,2.6266,-7.8044,0.4325,8.246
5.500000,2.4903,-7.8201,0.4963,8.222
5.508000,2.2814,-7.7000,0.5370,8.049
5.512000,2.0379,-7.4495,0.5451,7.742
5.516000,1.8053,-7.1218,0.4899,7.363
5.550000,1.6025,-6.7531,0.3955,6.952
5.552000,1.4271,-6.4184,0.2931,6.582
5.553000,1.2742,-6.1479,0.1869,6.281
5.553000,1.1795,-5.9329,0.0954,6.050
5.554000,1.1524,-5.7807,0.0061,5.894
5.555000,1.1640,-5.6655,-0.0768,5.784
5.555000,1.1928,-5.5854,-0.1324,5.713
5.559000,1.2362,-5.5831,-0.2041,5.722
5.560000,1.2631,-5.6352,-0.2993,5.783
5.565000,1.3023,-5.7846,-0.4107,5.944
5.572000,1.3585,-6.0240,-0.5239,6.198
5.576000,1.4077,-6.3674,-0.6364,6.552
5.581000,1.4284,-6.7909,-0.7266,6.977
5.585000,1.3776,-7.2551,-0.8139,7.429
5.591000,1.2220,-7.7191,-0.9008,7.867
5.597000,0.9734,-8.1343,-0.9680,8.249
5.601000,0.6011,-8.4616,-1.0035,8.542
5.611000,0.1409,-8.6599,-0.9926,8.718
5.613000,-0.3832,-8.7089,-0.9371,8.768
5.616000,-0.9114,-8.5868,-0.8364,8.675
5.652000,-1.4101,-8.2911,-0.6756,8.437
5.654000,-1.8556,-7.8509,-0.4639,8.080
5.654000,-2.2312,-7.3237,-0.2105,7.659
5.654000,-2.5274,-6.7774,0.0341,7.233
5.655000,-2.7372,-6.2360,0.2704,6.816
5.656000,-2.8655,-5.7406,0.4787,6.434
5.656000,-2.9027,-5.2965,0.6563,6.075
5.658000,-2.8419,-4.9138,0.7621,5.727
5.661000,-2.7309,-4.5573,0.8053,5.374
5.667000,-2.5865,-4.2397,0.8214,5.034
5.672000,-2.4519,-3.9332,0.7910,4.702
5.677000,-2.3126,-3.6195,0.7113,4.354
5.682000,-2.2117,-3.3231,0.5802,4.034
5.687000,-2.1490,-3.0518,0.4240,3.757
5.691000,-2.1462,-2.8061,0.2284,3.540
5.697000,-2.1912,-2.6317,-0.0229,3.425
5.702000,-2.3031,-2.5261,-0.3199,3.433
5.706000,-2.4769,-2.5059,-0.6385,3.581
5.711000,-2.7365,-2.5655,-0.9377,3.867
5.716000,-3.0436,-2.7019,-1.2105,4.246
5.750000,-3.3886,-2.9070,-1.4254,4.687
5.751000,-3.7019,-3.1176,-1.5994,5.097
5.752000,-3.9884,-3.3281,-1.7130,5.470
5.753000,-4.2410,-3.5283,-1.7709,5.794
5.754000,-4.4764,-3.7080,-1.7823,6.080
5.755000,-4.6875,-3.8427,-1.7518,6.309
5.755000,-4.8670,-3.9133,-1.7001,6.472
5.756000,-4.9886,-3.9169,-1.5985,6.541
5.762000,-5.0621,-3.8657,-1.4659,6.536
5.767000,-5.0658,-3.7714,-1.3000,6.448
5.771000,-4.9830,-3.6366,-1.1129,6.268
5.777000,-4.7947,-3.4813,-0.9238,5.997
5.781000,-4.5512,-3.2988,-0.7567,5.672
5.787000,-4.2765,-3.1303,-0.6071,5.334
5.792000,-4.0135,-2.9790,-0.4847,5.022
5.796000,-3.7719,-2.8305,-0.3803,4.731
5.801000,-3.5660,-2.6764,-0.2945,4.468
5.808000,-3.3956,-2.5214,-0.2328,4.236
5.812000,-3.2680,-2.3607,-0.2075,4.037
5.817000,-3.1733,-2.2016,-0.2261,3.869
5.832000,-3.1189,-2.0273,-0.3052,3.732
5.837000,-3.0710,-1.8568,-0.4111,3.612
5.838000,-3.0273,-1.6861,-0.5533,3.509
5.838000,-2.9855,-1.5649,-0.7101,3.445
5.841000,-2.9359,-1.4859,-0.8816,3.407
5.846000,-2.8688,-1.4322,-1.0581,3.377
5.851000,-2.7508,-1.3818,-1.2273,3.314
5.866000,-2.6060,-1.3429,-1.3749,3.238
5.868000,-2.4486,-1.3031,-1.5007,3.154
5.868000,-2.2979,-1.2604,-1.5950,3.068
5.876000,-2.1753,-1.1957,-1.6720,2.993
5.878000,-2.0881,-1.1021,-1.7289,2.926
5.882000,-2.0193,-1.0032,-1.7724,2.868
5.887000,-1.9931,-0.9069,-1.7952,2.832
5.891000,-1.9757,-0.8294,-1.8087,2.804
5.897000,-1.9313,-0.7419,-1.8248,2.759
5.901000,-1.8240,-0.6468,-1.8218,2.658
5.908000,-1.6586,-0.5416,-1.7875,2.498
5.913000,-1.4617,-0.4561,-1.7223,2.305
5.917000,-1.2502,-0.3951,-1.6167,2.082
5.924000,-1.0431,-0.3634,-1.4806,1.847
5.929000,-0.8214,-0.3586,-1.3360,1.609
5.931000,-0.5827,-0.3786,-1.1523,1.346
5.959000,-0.3462,-0.4038,-0.9274,1.069
5.961000,-0.1407,-0.4592,-0.6597,0.816
5.961000,0.0314,-0.5058,-0.3571,0.620
5.962000,0.1464,-0.5388,-0.0319,0.559
5.962000,0.1971,-0.5293,0.2795,0.630
5.962000,0.2269,-0.4648,0.5842,0.780
5.968000,0.2762,-0.3366,0.8895,0.990
5.974000,0.3881,-0.1588,1.2171,1.287
5.978000,0.5312,0.0060,1.5477,1.636
5.982000,0.6840,0.1410,1.8524,1.980
5.987000,0.8629,0.2839,2.1377,2.323
5.993000,1.0056,0.3943,2.3319,2.570
5.997000,1.0427,0.4497,2.4447,2.696
6.002000,1.0222,0.4678,2.5531,2.790
6.008000,0.9635,0.4419,2.6645,2.868
6.012000,0.8932,0.3822,2.7764,2.941
6.017000,0.8310,0.3016,2.8602,2.994
6.029000,0.7815,0.2097,2.9304,3.040
6.036000,0.7283,0.1358,2.9940,3.084
6.038000,0.6980,0.0947,3.0532,3.133
6.038000,0.7122,0.1151,3.0771,3.161
6.073000,0.7853,0.1563,3.0519,3.155
6.074000,0.9580,0.2451,2.9662,3.127
6.075000,1.2775,0.3990,2.8282,3.129
6.075000,1.7243,0.5459,2.6146,3.179
6.076000,2.2811,0.6349,2.2976,3.299
6.076000,2.9665,0.6103,1.8834,3.566
6.076000,3.7466,0.4504,1.4256,4.034
6.078000,4.5391,0.1322,0.9752,4.645
6.082000,5.2792,-0.2629,0.6183,5.322
6.090000,5.8902,-0.6276,0.3996,5.937
6.092000,6.2715,-0.8856,0.2917,6.340
6.098000,6.4043,-0.9127,0.3294,6.477
6.103000,6.3346,-0.7349,0.4691,6.394
6.107000,6.1079,-0.3693,0.6932,6.158
6.113000,5.7869,0.0912,0.9677,5.868
6.118000,5.4770,0.5916,1.2324,5.645
6.123000,5.1804,1.0553,1.4319,5.477
6.127000,4.9091,1.4393,1.5347,5.341
6.131000,4.6866,1.7458,1.5164,5.226
6.141000,4.5105,1.9487,1.4057,5.111
6.142000,4.4118,2.0075,1.2048,4.995
6.146000,4.3930,1.9250,0.9377,4.887
6.151000,4.4229,1.7160,0.6188,4.784
6.169000,4.5182,1.3925,0.2391,4.734
6.172000,4.6311,0.9883,-0.1486,4.738
6.172000,4.7089,0.5299,-0.5171,4.767
6.173000,4.7783,0.0511,-0.8323,4.851
6.177000,4.7774,-0.4547,-1.0745,4.918
6.182000,4.7354,-0.9775,-1.2169,4.986
6.187000,4.6383,-1.5024,-1.2455,5.032
6.192000,4.4723,-1.9591,-1.1607,5.019
6.197000,4.2476,-2.2851,-0.9775,4.921
6.203000,3.9599,-2.4892,-0.6941,4.729
6.207000,3.6123,-2.5183,-0.2942,4.413
6.212000,3.2408,-2.3148,0.2261,3.989
6.217000,2.8576,-1.8933,0.7848,3.517
6.222000,2.4984,-1.3020,1.3169,3.110
6.227000,2.1703,-0.6226,1.7815,2.876
6.232000,1.9114,0.0920,2.1427,2.873
6.239000,1.7597,0.8271,2.3645,3.061
6.243000,1.7359,1.5505,2.4639,3.389
6.247000,1.7626,2.2017,2.4628,3.744
6.264000,1.8298,2.7798,2.3757,4.089
6.267000,1.8961,3.2581,2.2149,4.372
6.267000,1.9447,3.6386,2.0067,4.588
6.271000,1.9796,3.9040,1.7682,4.721
6.305000,1.9984,4.0877,1.5229,4.798
6.306000,1.9506,4.1944,1.2521,4.792
6.306000,1.8651,4.2385,0.9509,4.727
6.307000,1.7395,4.2393,0.6081,4.622
6.308000,1.5694,4.2091,0.2314,4.498
6.308000,1.3978,4.1790,-0.1422,4.409
6.309000,1.2059,4.1565,-0.5076,4.358
6.309000,1.0033,4.1227,-0.8568,4.329
6.312000,0.7999,4.0755,-1.2059,4.325
6.317000,0.6177,4.0345,-1.5183,4.355
6.323000,0.4542,3.9879,-1.7790,4.390
6.327000,0.3075,3.9482,-1.9876,4.431
6.332000,0.2204,3.9225,-2.1295,4.469
6.338000,0.1836,3.9276,-2.1952,4.503
6.343000,0.1730,3.9445,-2.1824,4.511
6.348000,0.2076,3.9969,-2.0962,4.518
6.353000,0.2921,4.0773,-1.9755,4.540
6.358000,0.4047,4.1690,-1.8277,4.570
6.362000,0.5597,4.2239,-1.6534,4.570
6.367000,0.6971,4.2585,-1.4531,4.553
6.375000,0.8646,4.2775,-1.2272,4.533
6.377000,1.0285,4.2735,-0.9936,4.506
6.382000,1.1862,4.2679,-0.7385,4.491
6.406000,1.3329,4.2797,-0.4939,4.510
6.407000,1.3274,4.2944,-0.2554,4.502
6.407000,1.5665,4.3190,-0.0260,4.594
6.408000,1.6125,4.3677,0.1866,4.660
6.409000,1.6184,4.4165,0.3703,4.718
6.413000,1.5747,4.4725,0.5321,4.771
6.418000,1.5174,4.5215,0.6698,4.816
6.425000,1.4347,4.5826,0.8071,4.869
6.427000,1.3767,4.6463,0.9199,4.933
6.432000,1.3199,4.6843,0.9913,4.967
6.439000,1.2712,4.7084,0.9638,4.971
6.443000,1.2357,4.7306,0.8354,4.960
6.447000,1.2131,4.7364,0.6474,4.932
6.454000,1.1532,4.7089,0.4076,4.865
6.457000,1.0367,4.6667,0.1353,4.782
6.462000,0.8664,4.5771,-0.1544,4.661
6.467000,0.6759,4.4685,-0.4540,4.542
6.472000,0.4678,4.3533,-0.7245,4.438
6.477000,0.2520,4.2196,-0.9249,4.327
6.482000,0.0428,4.0867,-1.0597,4.222
6.493000,-0.1067,3.9552,-1.1217,4.113
6.494000,-0.2062,3.8225,-1.1036,3.984
6.501000,-0.2750,3.6597,-0.9984,3.803
6.502000,-0.2937,3.4794,-0.8349,3.590
6.532000,-0.2527,3.2791,-0.6158,3.346
6.533000,-0.1427,3.0947,-0.3845,3.122
6.534000,0.0051,2.9115,-0.1290,2.914
6.534000,0.1811,2.7223,0.1051,2.730
6.534000,0.3586,2.5265,0.3034,2.570
6.535000,0.5331,2.3271,0.4685,2.433
6.539000,0.7023,2.1239,0.5838,2.312
6.544000,0.8543,1.8762,0.6472,2.161
6.547000,1.0083,1.6321,0.6396,2.022
6.553000,1.1645,1.3967,0.5974,1.914
6.558000,1.2988,1.1960,0.5230,1.841
6.564000,1.4190,1.0257,0.4429,1.806
6.569000,1.5248,0.8976,0.3956,1.813
6.574000,1.6187,0.8117,0.3810,1.850
6.578000,1.7247,0.7367,0.4084,1.919
6.582000,1.8452,0.6561,0.4826,2.017
6.614000,1.9753,0.5598,0.5913,2.137
6.615000,2.1463,0.4415,0.7245,2.308
6.616000,2.3508,0.3150,0.8580,2.522
6.616000,2.5482,0.1563,1.0130,2.747
6.616000,2.7478,-0.0132,1.1604,2.983
6.617000,2.8922,-0.1891,1.2711,3.165
6.618000,3.0291,-0.3693,1.3762,3.348
6.623000,3.1590,-0.5675,1.4586,3.525
6.628000,3.2673,-0.7506,1.4994,3.672
6.633000,3.3613,-0.9377,1.4964,3.797
6.639000,3.4649,-1.1219,1.4236,3.910
6.643000,3.5878,-1.3366,1.2765,4.036
6.647000,3.7010,-1.5681,1.0821,4.163
6.656000,3.8002,-1.8274,0.8477,4.301
6.659000,3.8567,-2.1412,0.5975,4.451
6.663000,3.8801,-2.5045,0.3413,4.631
6.667000,3.8899,-2.9169,0.1080,4.863
6.674000,3.8812,-3.3496,-0.0999,5.128
6.679000,3.8738,-3.8296,-0.2420,5.453
6.683000,3.8653,-4.3184,-0.3497,5.806
6.696000,3.8174,-4.7772,-0.3781,6.127
6.697000,3.7280,-5.1551,-0.3710,6.373
6.699000,3.5731,-5.4542,-0.3314,6.529
6.747000,3.3432,-5.6532,-0.2712,6.573
6.749000,3.0578,-5.7385,-0.1885,6.505
6.750000,2.7310,-5.7130,-0.0927,6.333
6.750000,2.3870,-5.5718,-0.0195,6.062
6.750000,2.0686,-5.3409,0.0213,5.728
6.751000,1.8138,-5.0333,0.0319,5.350
6.751000,1.6656,-4.6602,0.0051,4.949
6.751000,1.5806,-4.2566,-0.0379,4.541
6.753000,1.5322,-3.8352,-0.0977,4.131
6.755000,1.5321,-3.3873,-0.1604,3.721
6.755000,1.5537,-2.9500,-0.2026,3.340
6.758000,1.5682,-2.5651,-0.2200,3.015
6.763000,1.5254,-2.2587,-0.2295,2.735
6.768000,1.4301,-2.0434,-0.2216,2.504
6.774000,1.4188,-1.9123,-0.2201,2.391
6.778000,1.1041,-1.8748,-0.2633,2.192
6.783000,0.9001,-1.9144,-0.3528,2.145
6.788000,0.6634,-2.0301,-0.4614,2.185
6.793000,0.4253,-2.1979,-0.5979,2.317
6.798000,0.1812,-2.4080,-0.7329,2.524
6.809000,-0.0714,-2.6504,-0.8990,2.800
6.811000,-0.3323,-2.9105,-1.0572,3.114
6.814000,-0.6229,-3.1930,-1.1859,3.463
6.818000,-0.9385,-3.5057,-1.2795,3.848
6.850000,-1.2885,-3.8483,-1.3169,4.267
6.851000,-1.6610,-4.1699,-1.2933,4.671
6.852000,-1.9987,-4.4769,-1.2114,5.050
6.853000,-2.3159,-4.7522,-1.0808,5.396
6.853000,-2.6058,-5.0063,-0.9368,5.721
6.854000,-2.8397,-5.2344,-0.8008,6.009
6.855000,-3.0082,-5.4433,-0.6679,6.255
6.859000,-3.1212,-5.6425,-0.5568,6.472
6.863000,-3.1811,-5.8413,-0.4385,6.666
6.868000,-3.2098,-6.0639,-0.3300,6.869
6.874000,-3.2431,-6.2904,-0.2239,7.081
6.879000,-3.3005,-6.4682,-0.1207,7.263
6.883000,-3.3699,-6.6114,-0.0231,7.421
6.890000,-3.4562,-6.6695,0.0829,7.512
6.894000,-3.5618,-6.6545,0.1851,7.550
6.899000,-3.6893,-6.5493,0.2618,7.521
6.905000,-3.8291,-6.3659,0.3223,7.436
6.908000,-3.9716,-6.1330,0.3475,7.315
6.913000,-4.0810,-5.8436,0.3373,7.136
6.918000,-4.1716,-5.5290,0.2868,6.932
6.923000,-4.2172,-5.1821,0.1982,6.684
6.929000,-4.1986,-4.8394,0.0931,6.407
6.933000,-4.1158,-4.5035,0.0025,6.101
6.970000,-3.9760,-4.1845,-0.0739,5.773
6.972000,-3.7936,-3.9047,-0.1150,5.445
6.974000,-3.5733,-3.6475,-0.1139,5.107
6.974000,-3.3198,-3.4116,-0.0972,4.761
6.975000,-3.0355,-3.2095,-0.0816,4.418
6.975000,-2.7515,-3.0201,-0.0835,4.086
6.976000,-2.4653,-2.8610,-0.0981,3.778
6.976000,-2.2007,-2.7278,-0.1273,3.507
6.979000,-1.9531,-2.6351,-0.1732,3.285
6.983000,-1.7367,-2.5624,-0.2355,3.104
6.989000,-1.5825,-2.5431,-0.2925,3.009
6.994000,-1.4880,-2.5439,-0.3750,2.971
7.001000,-1.4581,-2.5578,-0.4781,2.983
7.004000,-1.4615,-2.5843,-0.5896,3.027
7.010000,-1.5221,-2.6046,-0.6854,3.094
7.016000,-1.6424,-2.6253,-0.7776,3.193
7.020000,-1.8101,-2.6272,-0.8711,3.307
7.025000,-2.0015,-2.6169,-0.9419,3.427
7.037000,-2.2139,-2.5892,-1.0068,3.552
7.037000,-2.4332,-2.5297,-1.0469,3.663
7.078000,-2.6377,-2.4642,-1.0648,3.763
7.079000,-2.8154,-2.3638,-1.0584,3.825
7.079000,-2.9329,-2.2594,-1.0303,3.843
7.079000,-3.0285,-2.1581,-0.9830,3.847
7.080000,-3.0711,-2.0644,-0.9503,3.821
7.080000,-3.0655,-1.9931,-0.9275,3.772
7.080000,-3.0285,-1.9297,-0.9196,3.707
7.081000,-2.9601,-1.8746,-0.9432,3.628
7.081000,-2.8866,-1.8134,-0.9723,3.545
7.085000,-2.8129,-1.7439,-1.0353,3.468
7.089000,-2.6934,-1.6573,-1.1057,3.350
7.095000,-2.5092,-1.5297,-1.1975,3.173
7.099000,-2.3035,-1.3929,-1.2769,2.979
7.105000,-2.1168,-1.2810,-1.3531,2.820
7.109000,-1.9733,-1.1893,-1.4522,2.723
7.116000,-1.8919,-1.1442,-1.5693,2.711
7.126000,-1.8655,-1.1271,-1.6916,2.759
7.127000,-1.9180,-1.1828,-1.7809,2.872
7.129000,-2.0228,-1.2845,-1.8323,3.016
7.134000,-2.1393,-1.3859,-1.8626,3.157
7.161000,-2.2481,-1.4819,-1.8482,3.266
7.162000,-2.3611,-1.5886,-1.7962,3.365
7.162000,-2.4401,-1.6727,-1.6976,3.411
7.163000,-2.5066,-1.7288,-1.5738,3.428
7.163000,-2.5366,-1.7617,-1.4110,3.395
7.164000,-2.5348,-1.8024,-1.2381,3.348
7.171000,-2.5108,-1.8217,-1.0505,3.275
7.174000,-2.4670,-1.8633,-0.8584,3.209
7.179000,-2.3986,-1.9007,-0.6787,3.135
7.184000,-2.2864,-1.9433,-0.5118,3.044
7.190000,-2.1402,-1.9770,-0.3340,2.933
7.196000,-1.9741,-1.9994,-0.1553,2.814
7.199000,-1.8100,-2.0162,0.0192,2.710
7.204000,-1.6215,-2.0179,0.1685,2.594
7.210000,-1.4038,-2.0285,0.3073,2.486
7.215000,-1.1929,-2.0721,0.4600,2.435
7.220000,-1.0151,-2.1391,0.5957,2.442
7.226000,-0.8726,-2.2435,0.7074,2.509
7.230000,-0.7249,-2.2977,0.8021,2.539
7.250000,-0.5672,-2.2966,0.8916,2.528
7.254000,-0.4163,-2.2403,0.9776,2.480
7.255000,-0.3200,-2.1819,1.0720,2.452
7.256000,-0.2542,-2.1353,1.1960,2.461
7.257000,-0.2454,-2.1060,1.3878,2.534
7.303000,-0.3222,-2.0502,1.6516,2.652
7.304000,-0.4484,-1.9368,1.9533,2.787
7.304000,-0.5952,-1.7657,2.2400,2.914
7.305000,-0.7506,-1.5656,2.4713,3.020
7.305000,-0.8856,-1.3906,2.6480,3.119
7.306000,-0.9310,-1.3084,2.7542,3.188
7.306000,-0.8484,-1.3754,2.8004,3.233
7.306000,-0.5565,-1.5816,2.7822,3.248
7.307000,-0.0435,-1.9173,2.7144,3.324
7.307000,0.6354,-2.3465,2.6113,3.568
7.310000,1.4004,-2.7751,2.4799,3.976
7.315000,2.1533,-3.1460,2.3558,4.481
7.320000,2.7789,-3.4005,2.2482,4.934
7.325000,3.2054,-3.5318,2.1690,5.240
7.329000,3.4070,-3.5374,2.1180,5.349
7.335000,3.4242,-3.4347,2.1174,5.292
7.340000,3.2936,-3.2231,2.1866,5.101
7.344000,3.0727,-2.9812,2.3428,4.880
7.351000,2.8433,-2.6990,2.5309,4.666
7.357000,2.6653,-2.3572,2.7219,4.480
7.359000,2.5985,-1.9842,2.8895,4.363
7.364000,2.6302,-1.5840,3.0577,4.333
7.370000,2.7530,-1.2163,3.2073,4.398
7.392000,2.9616,-0.9297,3.3195,4.545
7.393000,3.2461,-0.7721,3.3775,4.748
7.394000,3.5894,-0.7629,3.3911,4.997
7.394000,4.0034,-0.9424,3.3483,5.303
7.395000,4.4781,-1.2800,3.2442,5.676
7.399000,4.9942,-1.7177,3.0715,6.110
7.405000,5.4393,-2.2629,2.8450,6.542
7.409000,5.7584,-2.8433,2.6125,6.933
7.414000,5.9402,-3.3746,2.4437,7.256
7.420000,5.9371,-3.8494,2.3811,7.466
7.424000,5.7262,-4.2091,2.4550,7.519
7.430000,5.3396,-4.3857,2.6381,7.396
7.436000,4.8141,-4.2973,2.8768,7.065
7.440000,4.1934,-3.9385,3.1637,6.566
7.444000,3.5452,-3.3664,3.4604,5.990
7.450000,2.9411,-2.6271,3.7283,5.427
7.482000,2.3719,-1.7969,3.9458,4.942
7.483000,2.4162,-0.9119,4.0842,4.832
7.483000,1.4689,-0.0273,4.1339,4.387
7.484000,1.2480,0.8400,4.0828,4.351
7.484000,1.1707,1.6383,3.9576,4.440
7.485000,1.2150,2.3434,3.7725,4.604
7.485000,1.4041,2.9306,3.5275,4.796
7.492000,1.7253,3.4184,3.2153,5.000
7.494000,2.1562,3.8156,2.8574,5.232
7.500000,2.6361,4.1334,2.4802,5.494
7.505000,3.1325,4.3727,2.0816,5.768
7.509000,3.5945,4.5665,1.6640,6.045
7.515000,3.9810,4.7023,1.2134,6.280
7.521000,4.2820,4.7800,0.7565,6.462
7.524000,4.4806,4.8163,0.2816,6.584
7.530000,4.5503,4.8205,-0.1957,6.632
7.536000,4.5249,4.7980,-0.6822,6.630
7.540000,4.3952,4.7301,-1.1866,6.565
7.546000,4.1737,4.6294,-1.6529,6.449
7.551000,3.8467,4.4873,-2.0756,6.264
7.554000,3.4390,4.3311,-2.4377,6.044
7.560000,3.0038,4.1780,-2.7428,5.831
7.564000,2.5921,4.0554,-2.9522,5.646
7.574000,2.1972,3.9808,-3.0658,5.484
7.575000,1.8505,3.9591,-3.0668,5.339
7.579000,1.5716,4.0075,-2.9436,5.215
7.584000,1.3626,4.1044,-2.7087,5.103
7.608000,1.2141,4.2330,-2.4037,5.017
7.610000,1.1140,4.4025,-2.0415,4.979
7.610000,1.0667,4.6127,-1.6468,5.013
7.610000,1.0695,4.8560,-1.2494,5.127
7.611000,1.0980,5.1148,-0.8477,5.300
7.615000,1.1565,5.3674,-0.4593,5.510
7.621000,1.2281,5.5727,-0.1258,5.708
7.625000,1.2982,5.7545,0.1259,5.900
7.630000,1.3642,5.8791,0.2927,6.042
7.635000,1.4094,5.9536,0.3769,6.130
7.640000,1.4548,5.9705,0.3500,6.155
7.645000,1.4529,5.9182,0.2264,6.098
7.650000,1.4180,5.8088,-0.0099,5.979
7.655000,1.3577,5.6832,-0.3558,5.854
7.660000,1.2553,5.5416,-0.7866,5.736
7.665000,1.1254,5.3725,-1.2608,5.632
7.670000,0.9730,5.1785,-1.7319,5.546
7.678000,0.8104,4.9527,-2.1517,5.460
7.680000,0.6618,4.7196,-2.5125,5.387
7.685000,0.5153,4.4673,-2.7947,5.295
7.719000,0.4022,4.2153,-3.0053,5.193
7.720000,0.3201,3.9877,-3.1029,5.063
7.721000,0.2452,3.7988,-3.0876,4.901
7.721000,0.1702,3.6701,-2.9594,4.718
7.721000,0.1023,3.5874,-2.7476,4.520
7.722000,0.0514,3.5672,-2.5001,4.356
7.722000,0.0292,3.5833,-2.2604,4.237
7.725000,0.0407,3.6285,-2.0382,4.162
7.730000,0.0810,3.6718,-1.8410,4.108
7.736000,0.1671,3.6962,-1.6785,4.063
7.740000,0.3441,3.7091,-1.5440,4.032
7.745000,0.6309,3.7293,-1.4446,4.049
7.751000,0.9961,3.7588,-1.3734,4.124
7.755000,1.3984,3.7974,-1.3378,4.262
7.760000,1.8543,3.8277,-1.3542,4.464
7.768000,2.3560,3.8545,-1.4318,4.739
7.773000,2.8411,3.8747,-1.5705,5.055
7.775000,3.2828,3.8738,-1.7651,5.376
7.781000,3.6665,3.8466,-1.9841,5.672
7.786000,3.9752,3.7714,-2.1817,5.898
7.833000,4.1781,3.6315,-2.3268,6.005
7.834000,4.2777,3.4319,-2.4145,5.992
7.834000,4.3104,3.2040,-2.4042,5.884
7.835000,4.2934,2.9959,-2.3013,5.719
7.836000,4.2436,2.8054,-2.0917,5.500
7.837000,4.1350,2.6611,-1.7930,5.234
7.838000,3.9964,2.5677,-1.4200,4.958
7.839000,3.8444,2.5274,-0.9973,4.708
7.839000,3.6724,2.5095,-0.5524,4.482
7.840000,3.4782,2.5329,-0.1289,4.305
7.840000,3.3096,2.5810,0.2297,4.203
7.853000,3.2742,2.6369,0.5275,4.237
7.856000,3.0825,2.6718,0.7692,4.151
7.857000,2.9976,2.6808,0.9426,4.130
7.864000,3.0009,2.6621,1.0042,4.135
7.866000,3.1396,2.6058,0.9425,4.188
7.873000,3.3828,2.4881,0.7749,4.270
7.876000,3.6680,2.3020,0.4988,4.359
7.880000,3.9472,2.1045,0.0570,4.474
7.885000,4.1990,1.9508,-0.5257,4.660
7.890000,4.4374,1.8308,-1.2168,4.952
7.895000,4.6312,1.7062,-1.9572,5.309
7.901000,4.7899,1.5194,-2.7091,5.709
7.910000,4.9256,1.2303,-3.4255,6.125
7.911000,5.0767,0.7815,-4.0408,6.535
7.916000,5.2345,0.1793,-4.4921,6.900
7.920000,5.3822,-0.5783,-4.7222,7.183
7.946000,5.5061,-1.4046,-4.7392,7.399
7.947000,5.5900,-2.2079,-4.6039,7.571
7.947000,5.6051,-2.8928,-4.3164,7.643
7.948000,5.4854,-3.3914,-3.7896,7.480
7.948000,5.1973,-3.7161,-3.0150,7.065
7.950000,4.7487,-3.8690,-2.1187,6.481
7.957000,4.2307,-3.8477,-1.1517,5.834
7.961000,3.6557,-3.7189,-0.1222,5.216
7.965000,3.0764,-3.5782,0.9351,4.811
7.970000,2.6108,-3.3405,1.8843,4.640
7.976000,2.3447,-2.9630,2.6456,4.613
7.980000,2.3155,-2.4755,3.1587,4.633
7.986000,2.4815,-1.9248,3.3998,4.628
7.991000,2.8292,-1.3775,3.3550,4.600
7.995000,3.2859,-0.8806,3.0663,4.580
8.000000,3.7736,-0.5174,2.5538,4.586
8.027000,4.2439,-0.3037,1.8002,4.620
8.028000,4.6386,-0.2618,0.8673,4.726
8.028000,4.8956,-0.3922,-0.1426,4.913
8.029000,4.9455,-0.6427,-1.1373,5.115
8.029000,4.7700,-0.9476,-2.0512,5.278
8.030000,4.3745,-1.2756,-2.8382,5.368
8.038000,3.7769,-1.6182,-3.3898,5.327
8.040000,3.0331,-1.9381,-3.6652,5.137
8.045000,2.2613,-2.2460,-3.6784,4.867
8.050000,1.5728,-2.5511,-3.5015,4.609
8.055000,1.0827,-2.8598,-3.1919,4.420
8.062000,0.8004,-3.2195,-2.7984,4.340
8.065000,0.7307,-3.6562,-2.3552,4.410
8.070000,0.8683,-4.1819,-1.8991,4.674
8.075000,1.1554,-4.7254,-1.4452,5.075
8.080000,1.4821,-5.2144,-1.0575,5.523
8.085000,1.7117,-5.6043,-0.7918,5.913
8.090000,1.7437,-5.8381,-0.6751,6.130
8.095000,1.5666,-5.8871,-0.6885,6.131
8.100000,1.2427,-5.7203,-0.8102,5.909
8.106000,0.8922,-5.3793,-1.0049,5.545
8.110000,0.5606,-4.9340,-1.2558,5.122
8.115000,0.3098,-4.4561,-1.5659,4.733
8.143000,0.1707,-3.9818,-1.9090,4.419
8.144000,0.1334,-3.5235,-2.2951,4.207
8.144000,0.1590,-3.0872,-2.6720,4.086
8.145000,0.1902,-2.6966,-3.0120,4.047
8.145000,0.1954,-2.3837,-3.3063,4.081
8.146000,0.1268,-2.1633,-3.5412,4.152
8.150000,-0.0061,-2.0661,-3.7098,4.246
8.155000,-0.2340,-2.1015,-3.8174,4.364
8.160000,-0.5234,-2.2594,-3.8946,4.533
8.165000,-0.8451,-2.5162,-3.9365,4.748
8.170000,-1.1440,-2.8095,-3.9041,4.944
8.176000,-1.4056,-3.0836,-3.7636,5.064
8.180000,-1.6276,-3.3025,-3.5026,5.082
8.187000,-1.8053,-3.4689,-3.1381,5.014
8.191000,-1.9483,-3.5963,-2.7269,4.916
8.197000,-2.0662,-3.6925,-2.3000,4.816
8.201000,-2.1520,-3.8007,-1.9073,4.766
8.207000,-2.1961,-3.8970,-1.5812,4.744
8.210000,-2.2011,-4.0007,-1.3422,4.759
8.215000,-2.1790,-4.0696,-1.2087,4.772
8.250000,-2.1539,-4.1272,-1.1647,4.799
8.251000,-2.1329,-4.1361,-1.2024,4.807
8.252000,-2.1139,-4.1063,-1.2709,4.790
8.253000,-2.1185,-4.0454,-1.3529,4.763
8.253000,-2.1537,-3.9995,-1.4226,4.760
8.254000,-2.1958,-3.9631,-1.4704,4.763
8.254000,-2.2733,-3.9652,-1.5134,4.815
8.260000,-2.3743,-4.0151,-1.5593,4.918
8.261000,-2.4795,-4.1030,-1.6224,5.061
8.266000,-2.5915,-4.1998,-1.7125,5.224
8.272000,-2.7364,-4.3105,-1.8371,5.426
8.275000,-2.9238,-4.4197,-1.9963,5.663
8.280000,-3.1727,-4.5057,-2.1592,5.919
8.285000,-3.4424,-4.5515,-2.3044,6.154
8.291000,-3.7472,-4.5659,-2.4274,6.386
8.297000,-4.0178,-4.5348,-2.5069,6.557
8.303000,-4.2517,-4.4691,-2.5528,6.676
8.306000,-4.4420,-4.3884,-2.5726,6.753
8.311000,-4.5672,-4.2950,-2.5663,6.774
8.316000,-4.6368,-4.2082,-2.5771,6.771
8.321000,-4.6273,-4.1403,-2.6099,6.735
8.327000,-4.5817,-4.0584,-2.6526,6.671
8.331000,-4.5240,-3.9889,-2.7098,6.612
8.336000,-4.4878,-3.9394,-2.7719,6.583
8.346000,-4.4730,-3.8909,-2.8316,6.570
8.348000,-4.4988,-3.8436,-2.8914,6.586
8.351000,-4.5555,-3.7643,-2.9271,6.595
8.392000,-4.6121,-3.6864,-2.9197,6.587
8.393000,-4.7044,-3.6098,-2.8740,6.590
8.394000,-4.8061,-3.5226,-2.7971,6.583
8.394000,-4.9076,-3.4272,-2.6965,6.565
8.395000,-5.0233,-3.3235,-2.5860,6.555
8.395000,-5.1555,-3.2498,-2.4850,6.581
8.396000,-5.3186,-3.1936,-2.3860,6.647
8.396000,-5.4910,-3.2120,-2.2890,6.761
8.398000,-5.6631,-3.2804,-2.2039,6.906
8.402000,-5.8135,-3.3673,-2.1306,7.048
8.406000,-5.8895,-3.4602,-2.0761,7.139
8.411000,-5.8888,-3.5351,-2.0278,7.161
8.416000,-5.8261,-3.5777,-1.9756,7.117
8.421000,-5.6869,-3.6027,-1.8811,6.990
8.426000,-5.5000,-3.6174,-1.7491,6.811
8.431000,-5.2824,-3.6698,-1.6036,6.629
8.437000,-5.0482,-3.7339,-1.4664,6.448
8.441000,-4.8287,-3.7856,-1.3374,6.280
8.446000,-4.6261,-3.8585,-1.1711,6.137
8.452000,-4.4405,-3.9452,-0.9530,6.016
8.479000,-4.2526,-4.0046,-0.6978,5.883
8.480000,-4.0433,-4.0529,-0.3839,5.738
8.481000,-3.8148,-4.1071,0.0146,5.605
8.481000,-3.5625,-4.1285,0.4615,5.473
8.482000,-3.2504,-4.0813,0.8895,5.293
8.483000,-2.8569,-3.9516,1.3011,5.047
8.486000,-2.4062,-3.7376,1.6534,4.743
8.491000,-1.9005,-3.4875,1.9132,4.409
8.496000,-1.3784,-3.2365,2.0613,4.077
8.501000,-0.8733,-3.0283,2.0879,3.781
8.506000,-0.3733,-2.8636,2.0385,3.535
8.511000,0.0713,-2.7597,1.9221,3.364
8.516000,0.4104,-2.6765,1.7718,3.236
8.522000,0.6248,-2.6172,1.5579,3.109
8.526000,0.6932,-2.5719,1.2657,2.949
8.531000,0.6350,-2.5355,0.9286,2.774
8.543000,0.4527,-2.5266,0.5729,2.630
8.543000,0.1752,-2.5467,0.2228,2.562
8.546000,-0.1376,-2.5693,-0.1170,2.576
8.551000,-0.4615,-2.5883,-0.4389,2.666
8.582000,-0.7629,-2.6296,-0.7067,2.828
8.583000,-1.0323,-2.6899,-0.8867,3.015
8.584000,-1.2576,-2.7569,-0.9935,3.189
8.584000,-1.4362,-2.7916,-1.0176,3.300
8.584000,-1.5707,-2.8016,-0.9588,3.352
8.585000,-1.6179,-2.7820,-0.8170,3.320
8.586000,-1.5826,-2.7467,-0.5900,3.224
8.593000,-1.4028,-2.6363,-0.3014,3.001
8.596000,-1.0952,-2.4414,0.0221,2.676
8.601000,-0.6866,-2.1712,0.3924,2.311
8.606000,-0.2633,-1.8694,0.7536,2.033
8.611000,0.1315,-1.5511,1.0406,1.872
8.616000,0.4763,-1.2552,1.2102,1.807
8.622000,0.7494,-1.0013,1.2935,1.799
8.626000,0.9677,-0.8010,1.3174,1.820
8.631000,1.1406,-0.6458,1.3609,1.889
8.638000,1.2227,-0.5618,1.4576,1.984
8.641000,1.2069,-0.5080,1.6026,2.070
8.646000,1.1102,-0.4723,1.7870,2.156
8.651000,0.9782,-0.4490,2.0707,2.334
8.664000,0.8181,-0.4125,2.4921,2.655
8.670000,0.5989,-0.3931,2.9952,3.080
8.672000,0.3235,-0.3781,3.4641,3.500
8.672000,0.0280,-0.3673,3.7907,3.809
8.676000,-0.2301,-0.3556,3.9829,4.005
8.681000,-0.3790,-0.3784,4.0868,4.122
8.712000,-0.4000,-0.5061,4.1371,4.187
8.713000,-0.2550,-0.7598,4.0842,4.162
8.713000,-0.0208,-1.1494,3.9170,4.082
8.714000,0.2448,-1.6749,3.6693,4.041
8.714000,0.4919,-2.2807,3.4319,4.150
8.714000,0.6700,-2.8572,3.2982,4.415
8.717000,0.7364,-3.2990,3.2963,4.721
8.722000,0.7200,-3.5485,3.3882,4.959
8.727000,0.6543,-3.6344,3.5053,5.092
8.731000,0.6518,-3.6141,3.5819,5.130
8.737000,0.7794,-3.5304,3.5927,5.097
8.741000,1.0553,-3.4804,3.5221,5.063
8.746000,1.4791,-3.5192,3.3796,5.098
8.753000,2.0313,-3.6595,3.2127,5.276
8.760000,2.6277,-3.9064,3.0473,5.608
8.762000,3.1414,-4.2479,2.8929,6.023
8.767000,3.5173,-4.6581,2.7473,6.451
8.799000,3.7245,-5.1291,2.5920,6.848
8.799000,3.7515,-5.5955,2.4706,7.175
8.802000,3.6085,-6.0015,2.3888,7.399
8.803000,3.2939,-6.2694,2.4141,7.482
8.804000,2.8605,-6.3707,2.5823,7.446
8.807000,2.3596,-6.2733,2.9290,7.314
8.809000,1.8754,-6.0104,3.4369,7.173
8.809000,1.4633,-5.5772,4.0952,7.072
8.811000,1.2094,-5.0007,4.8622,7.079
8.816000,1.1518,-4.3076,5.7082,7.243
8.821000,1.2702,-3.6174,6.5954,7.629
8.826000,1.5571,-2.9857,7.4335,8.161
8.831000,1.9543,-2.4685,8.1275,8.716
8.837000,2.4446,-2.0497,8.6206,9.192
8.842000,2.9293,-1.6916,8.9073,9.528
8.847000,3.3236,-1.3981,8.9814,9.678
8.852000,3.6036,-1.1404,8.8714,9.643
8.857000,3.7550,-0.8969,8.5705,9.400
8.863000,3.7729,-0.6483,8.1126,8.970
8.866000,3.6576,-0.4135,7.4988,8.353
8.874000,3.4382,-0.1677,6.7975,7.619
8.877000,3.1505,0.0601,6.0940,6.860
8.882000,2.8139,0.2778,5.4538,6.143
8.916000,2.5056,0.4577,4.9042,5.526
8.917000,2.2473,0.6217,4.4264,5.003
8.917000,2.0632,0.7704,3.9847,4.553
8.918000,1.9511,0.9138,3.5291,4.135
8.918000,1.8963,1.0587,3.0795,3.768
8.919000,1.9204,1.2223,2.6673,3.507
8.919000,1.9922,1.4259,2.3070,3.365
8.927000,2.1234,1.6599,1.9817,3.345
8.928000,2.3042,1.8976,1.6698,3.420
8.932000,2.4957,2.1503,1.3666,3.566
8.938000,2.7023,2.3962,1.0649,3.765
8.942000,2.8592,2.6541,0.7579,3.974
8.948000,2.9634,2.8757,0.4816,4.157
8.953000,2.9818,3.0850,0.2335,4.297
8.957000,2.9332,3.2580,0.0589,4.384
8.962000,2.8134,3.3902,-0.0309,4.406
8.967000,2.6250,3.4701,-0.0362,4.351
8.976000,2.3807,3.4934,0.0351,4.228
8.977000,2.1359,3.5062,0.1560,4.108
8.981000,1.8959,3.4873,0.2978,3.980
9.007000,1.6799,3.4753,0.4576,3.887
9.008000,1.4954,3.4560,0.6278,3.818
9.009000,1.3522,3.4370,0.7747,3.774
9.009000,1.2645,3.4491,0.8671,3.775
9.009000,1.2204,3.4783,0.9027,3.795
9.012000,1.2004,3.5049,0.9131,3.816
9.017000,1.1852,3.5265,0.8839,3.824
9.022000,1.1414,3.5361,0.8444,3.810
9.027000,1.0785,3.5215,0.7899,3.767
9.035000,0.9966,3.4950,0.7445,3.710
9.040000,0.9318,3.4854,0.7108,3.677
9.042000,0.8934,3.5283,0.7249,3.711
9.047000,0.8741,3.5974,0.7720,3.782
9.053000,0.8716,3.6615,0.8403,3.856
9.057000,0.8976,3.7324,0.9200,3.947
9.063000,0.9545,3.7837,1.0013,4.029
9.070000,1.0157,3.8082,1.0604,4.081
9.074000,1.0742,3.8226,1.0849,4.116
9.077000,1.1298,3.8507,1.0629,4.151
9.082000,1.1610,3.8734,0.9945,4.164
9.094000,1.1845,3.9001,0.8920,4.173
9.096000,1.2122,3.9501,0.7840,4.206
9.097000,1.2608,3.9994,0.6588,4.245
9.146000,1.3354,4.0313,0.4970,4.276
9.147000,1.4022,4.0362,0.3106,4.284
9.147000,1.4803,4.0405,0.1118,4.305
9.147000,1.5434,4.0678,-0.0781,4.351
9.148000,1.5769,4.1038,-0.2423,4.403
9.148000,1.5594,4.1340,-0.3831,4.435
9.149000,1.5031,4.1657,-0.5126,4.458
9.149000,1.4127,4.1728,-0.6377,4.451
9.150000,1.2861,4.1841,-0.7561,4.442
9.150000,1.1404,4.1832,-0.8702,4.422
9.156000,0.9924,4.1844,-0.9677,4.408
9.160000,0.8542,4.2071,-1.0249,4.414
9.163000,0.7164,4.2513,-1.0490,4.437
9.167000,0.5864,4.3221,-1.0574,4.488
9.172000,0.5937,4.4029,-1.0527,4.566
9.178000,0.4416,4.4939,-1.0329,4.632
9.183000,0.4725,4.6354,-0.9888,4.763
9.189000,0.5591,4.8081,-0.9355,4.930
9.192000,0.6941,4.9903,-0.8876,5.116
9.197000,0.8605,5.1839,-0.8668,5.326
9.229000,1.0605,5.3409,-0.9047,5.520
9.230000,1.2626,5.4635,-1.0173,5.699
9.230000,1.4620,5.5468,-1.1829,5.857
9.230000,1.6488,5.6097,-1.4296,6.019
9.231000,1.7989,5.6569,-1.7731,6.195
9.231000,1.9171,5.6838,-2.1794,6.382
9.233000,1.9960,5.6905,-2.5796,6.559
9.240000,2.0594,5.6841,-2.9088,6.709
9.243000,2.0403,5.6218,-3.1785,6.773
9.247000,1.9030,5.4965,-3.4217,6.748
9.253000,1.6980,5.3280,-3.6709,6.689
9.258000,1.4470,5.2026,-3.9015,6.662
9.262000,1.1451,5.1280,-4.0448,6.631
9.268000,0.8378,5.1041,-4.0598,6.575
9.273000,0.5611,5.1432,-3.9177,6.490
9.279000,0.3680,5.2097,-3.6094,6.349
9.283000,0.2584,5.2650,-3.1285,6.130
9.289000,0.2607,5.3114,-2.5027,5.877
9.293000,0.4037,5.3484,-1.7861,5.653
9.297000,0.6630,5.3685,-1.0473,5.510
9.304000,1.0430,5.3397,-0.3858,5.454
9.308000,1.5311,5.3190,0.1472,5.537
9.313000,2.0404,5.2980,0.5537,5.704
9.318000,2.4603,5.2474,0.8187,5.853
9.327000,2.7188,5.1597,0.9278,5.906
9.328000,2.8308,5.0420,0.9169,5.855
9.333000,2.7847,4.8807,0.7745,5.672
9.376000,2.6436,4.6762,0.5442,5.399
9.379000,2.5088,4.4943,0.2553,5.153
9.380000,2.4187,4.2993,-0.0840,4.934
9.380000,2.4067,4.1275,-0.4057,4.795
9.380000,2.4776,3.9503,-0.6825,4.713
9.381000,2.6047,3.7248,-0.8853,4.631
9.381000,2.7544,3.4603,-1.0087,4.536
9.383000,2.9507,3.1526,-1.0432,4.442
9.383000,3.2245,2.8422,-1.0100,4.415
9.383000,3.5660,2.5169,-0.9137,4.459
9.388000,3.9818,2.1477,-0.7544,4.587
9.394000,4.4694,1.6841,-0.5681,4.810
9.398000,5.0192,1.1072,-0.3812,5.154
9.404000,5.6072,0.4362,-0.1817,5.627
9.408000,6.2024,-0.2835,0.0518,6.209
9.414000,6.7500,-0.9943,0.2971,6.829
9.419000,7.1953,-1.6100,0.5491,7.394
9.425000,7.4953,-2.0496,0.8149,7.813
9.429000,7.6246,-2.2602,1.0822,8.026
9.434000,7.5905,-2.2611,1.3514,8.035
9.446000,7.4674,-2.0953,1.6350,7.926
9.447000,7.3252,-1.8442,1.9404,7.799
9.449000,7.2137,-1.5200,2.2582,7.710
9.481000,7.2242,-1.1751,2.5568,7.753
9.482000,7.3345,-0.8345,2.8241,7.904
9.483000,7.5414,-0.5085,3.0576,8.154
9.484000,7.7988,-0.2273,3.2855,8.466
9.484000,8.0392,-0.0466,3.5215,8.777
9.484000,8.2237,0.0036,3.7603,9.043
9.485000,8.3433,-0.0715,3.9765,9.243
9.491000,8.3597,-0.2654,4.1770,9.349
9.493000,8.2541,-0.5518,4.3373,9.341
9.498000,8.0197,-0.8732,4.4377,9.207
9.505000,7.6926,-1.2010,4.4425,8.964
9.508000,7.3123,-1.5196,4.3850,8.661
9.513000,6.9004,-1.8601,4.2513,8.316
9.518000,6.5078,-2.2506,4.0278,7.977
9.523000,6.1564,-2.6998,3.7318,7.689
9.528000,5.8604,-3.1935,3.3766,7.480
9.533000,5.6283,-3.7078,2.9526,7.358
9.542000,5.4191,-4.2477,2.4990,7.325
9.544000,5.2285,-4.7670,2.0522,7.367
9.548000,5.0543,-5.2462,1.6432,7.468
9.589000,4.8704,-5.6559,1.2768,7.572
9.589000,4.6575,-5.9537,0.9624,7.620
9.590000,4.3996,-6.1499,0.6994,7.594
9.590000,4.0679,-6.2357,0.4783,7.461
9.591000,3.6721,-6.2251,0.3035,7.234
9.591000,3.2314,-6.1347,0.1462,6.935
9.591000,2.7600,-5.9651,0.0163,6.573
9.592000,2.2680,-5.7434,-0.0728,6.175
9.593000,1.7911,-5.4869,-0.1190,5.773
9.598000,1.3435,-5.2220,-0.1325,5.394
9.604000,0.9538,-4.9653,-0.0994,5.057
9.608000,0.6122,-4.7287,-0.0256,4.768
9.614000,0.3281,-4.5274,0.0694,4.540
9.619000,0.0942,-4.3674,0.1675,4.372
9.623000,-0.0969,-4.2397,0.2634,4.249
9.629000,-0.2837,-4.1520,0.3494,4.176
9.634000,-0.4544,-4.0829,0.4083,4.128
9.642000,-0.6403,-4.0358,0.4377,4.110
9.644000,-0.8748,-4.0190,0.4176,4.134
9.649000,-1.1196,-4.0352,0.3577,4.203
9.690000,-1.3820,-4.0772,0.2532,4.312
9.691000,-1.6450,-4.1445,0.1234,4.461
9.692000,-1.8897,-4.2346,-0.0101,4.637
9.692000,-2.1423,-4.3313,-0.1256,4.834
9.694000,-2.3884,-4.4617,-0.2443,5.067
9.694000,-2.6304,-4.6021,-0.3441,5.312
9.695000,-2.8802,-4.7426,-0.4414,5.566
9.696000,-3.1378,-4.8903,-0.5426,5.836
9.696000,-3.4178,-5.0385,-0.6421,6.122
9.698000,-3.6864,-5.1497,-0.7479,6.377
9.704000,-3.9439,-5.2245,-0.8446,6.600
9.708000,-4.1951,-5.2746,-0.9219,6.802
9.715000,-4.4258,-5.3051,-1.0150,6.983
9.719000,-4.6337,-5.3397,-1.0945,7.154
9.725000,-4.8071,-5.3622,-1.1650,7.295
9.730000,-4.9509,-5.4171,-1.2349,7.442
9.736000,-5.0604,-5.4906,-1.2898,7.577
9.747000,-5.1717,-5.5924,-1.3273,7.732
9.748000,-5.2777,-5.7056,-1.3613,7.891
9.749000,-5.3952,-5.8089,-1.3780,8.047
9.789000,-5.5147,-5.9041,-1.3913,8.198
9.790000,-5.6627,-6.0032,-1.4158,8.373
9.791000,-5.8367,-6.0916,-1.4490,8.560
9.791000,-6.0225,-6.1712,-1.4836,8.750
9.792000,-6.2058,-6.2321,-1.5102,8.924
9.792000,-6.3628,-6.2574,-1.5291,9.054
9.793000,-6.5151,-6.2462,-1.5477,9.157
9.794000,-6.6197,-6.1868,-1.5687,9.196
9.796000,-6.6838,-6.0673,-1.5781,9.164
9.800000,-6.7052,-5.8856,-1.5831,9.061
9.805000,-6.6910,-5.6804,-1.5626,8.915
9.809000,-6.6437,-5.4688,-1.5477,8.743
9.814000,-6.5705,-5.2727,-1.5557,8.567
9.819000,-6.4809,-5.0730,-1.5696,8.379
9.824000,-6.3726,-4.8870,-1.6185,8.192
9.829000,-6.2694,-4.6958,-1.6903,8.013
9.834000,-6.2072,-4.5094,-1.7639,7.872
9.839000,-6.1524,-4.3281,-1.8300,7.742
9.844000,-6.1240,-4.1688,-1.8915,7.646
9.849000,-6.1412,-4.0411,-1.9222,7.599
9.860000,-6.1680,-3.9542,-1.9320,7.577
9.861000,-6.1996,-3.9104,-1.8857,7.568
9.866000,-6.2335,-3.8975,-1.8027,7.569
9.870000,-6.2650,-3.9197,-1.6929,7.582
9.912000,-6.2606,-3.9483,-1.5825,7.569
9.912000,-6.2370,-3.9997,-1.4643,7.553
9.913000,-6.1944,-4.0597,-1.3284,7.524
9.913000,-6.1493,-4.0967,-1.1917,7.484
9.914000,-6.1090,-4.1043,-1.0735,7.438
9.914000,-6.0541,-4.0797,-0.9972,7.368
9.914000,-5.9539,-4.0300,-0.9647,7.254
9.915000,-5.8344,-3.9628,-0.9802,7.121
9.915000,-5.6861,-3.8900,-1.0603,6.971
9.921000,-5.5402,-3.7933,-1.1969,6.820
9.925000,-5.3919,-3.7040,-1.3702,6.684
9.930000,-5.2436,-3.6244,-1.5605,6.563
9.936000,-5.0689,-3.5500,-1.7696,6.436
9.941000,-4.8655,-3.4972,-1.9635,6.305
9.945000,-4.6071,-3.4504,-2.0989,6.127
9.950000,-4.3248,-3.4333,-2.1874,5.939
9.957000,-4.0211,-3.4365,-2.2268,5.739
9.960000,-3.7199,-3.4483,-2.2075,5.532
9.965000,-3.4258,-3.4659,-2.1248,5.316
9.971000,-3.1675,-3.4997,-2.0124,5.131
9.977000,-2.9689,-3.5564,-1.8824,5.001
9.980000,-2.8178,-3.6142,-1.7586,4.909
9.986000,-2.7212,-3.6607,-1.6575,4.853
10.025000,-2.6073,-3.7098,-1.5625,4.796
10.027000,-2.4423,-3.7201,-1.4664,4.686
10.027000,-2.1928,-3.6851,-1.3651,4.500
10.028000,-1.8325,-3.6093,-1.2539,4.238
10.028000,-1.4067,-3.5003,-1.1455,3.942
10.029000,-0.9301,-3.3684,-1.0524,3.649
10.030000,-0.4574,-3.2398,-0.9798,3.416
10.031000,-0.0034,-3.0780,-0.9213,3.213
10.032000,0.4130,-2.8997,-0.8727,3.056
10.048000,0.7893,-2.6888,-0.8415,2.926
10.049000,1.5367,-2.2518,-0.9093,2.874
10.050000,1.5522,-2.1657,-0.8587,2.799
10.051000,1.9416,-1.8921,-0.8975,2.856
10.055000,2.3118,-1.6622,-0.9738,3.009
10.060000,2.6747,-1.5093,-1.0893,3.259
10.064000,2.6906,-1.4718,-1.2625,3.317
10.070000,3.4790,-1.6094,-1.4689,4.105
10.075000,3.8961,-1.9308,-1.6717,4.659
10.080000,4.2912,-2.4222,-1.8116,5.250
10.084000,4.6598,-3.0010,-1.8289,5.837
10.125000,4.9686,-3.6043,-1.6720,6.362
10.126000,5.1100,-4.1332,-1.3041,6.700
10.127000,5.0892,-4.4748,-0.7532,6.818
10.127000,4.9020,-4.5799,-0.0776,6.709
10.128000,4.6010,-4.4395,0.6383,6.425
10.128000,4.2802,-4.1387,1.3498,6.105
10.129000,3.9971,-3.7512,2.0145,5.840
10.129000,3.8406,-3.2314,2.5733,5.640
10.131000,3.9636,-2.6125,2.9088,5.567
10.134000,4.3126,-2.0803,2.8617,5.578
10.140000,4.6671,-1.7098,2.5920,5.606
10.145000,4.8619,-1.3875,2.5301,5.654
10.150000,4.9111,-1.1000,2.8546,5.786
10.155000,4.9341,-0.8044,3.4848,6.094
10.160000,5.0555,-0.4665,4.1664,6.568
10.165000,5.2438,-0.1471,4.6727,7.025
10.171000,5.5040,0.0729,4.8784,7.355
10.176000,5.8429,0.1409,4.7606,7.538
10.181000,6.3035,0.0901,4.3032,7.633
10.185000,6.7967,-0.1015,3.5470,7.667
10.196000,7.2484,-0.4050,2.6746,7.737
10.198000,7.6149,-0.7449,1.8343,7.868
10.201000,7.8152,-1.0897,1.1534,7.975
10.245000,7.8042,-1.3742,0.6934,7.955
10.246000,7.5636,-1.5258,0.4349,7.728
10.247000,7.1088,-1.4978,0.3561,7.274
10.247000,6.5189,-1.2734,0.4235,6.656
10.248000,5.9337,-0.8181,0.6135,6.021
10.249000,5.4442,-0.2039,0.9286,5.527
10.249000,5.0383,0.4590,1.2874,5.220
10.250000,4.7253,1.0770,1.6442,5.118
10.250000,4.5696,1.6691,1.9508,5.241
10.251000,4.5534,2.2268,2.1945,5.523
10.255000,4.6354,2.7231,2.3792,5.879
10.260000,4.7381,3.1477,2.5230,6.223
10.265000,4.8202,3.5094,2.6274,6.516
10.270000,4.8741,3.8174,2.6918,6.751
10.275000,4.8487,4.0777,2.7062,6.889
10.281000,4.7345,4.2905,2.6489,6.917
10.285000,4.5339,4.4798,2.5488,6.864
10.291000,4.2517,4.6288,2.3942,6.726
10.295000,3.8834,4.7378,2.1976,6.508
10.300000,3.4295,4.7834,1.9524,6.201
10.312000,2.8975,4.7826,1.7027,5.845
10.312000,2.3333,4.7363,1.4730,5.481
10.315000,1.7783,4.6739,1.2757,5.161
10.361000,1.2761,4.6225,1.1211,4.925
10.363000,0.8103,4.5588,0.9850,4.734
10.363000,0.4050,4.4997,0.8447,4.596
10.363000,0.0364,4.4647,0.7025,4.520
10.363000,-0.2856,4.4517,0.5615,4.496
10.364000,-0.5634,4.4728,0.4197,4.528
10.364000,-0.7991,4.5115,0.2964,4.591
10.365000,-0.9784,4.5584,0.1798,4.666
10.365000,-1.0848,4.6371,0.0847,4.763
10.365000,-1.1495,4.7666,0.0251,4.903
10.370000,-1.2134,4.9371,0.0010,5.084
10.376000,-1.2720,5.1554,-0.0190,5.310
10.381000,-1.3324,5.4046,-0.0184,5.566
10.386000,-1.4192,5.6577,0.0055,5.833
10.391000,-1.4987,5.9198,0.0497,6.107
10.396000,-1.5565,6.1285,0.1141,6.324
10.401000,-1.5738,6.3077,0.1935,6.504
10.437000,-1.5459,6.4527,0.2755,6.641
10.438000,-1.4872,6.5754,0.3407,6.750
10.439000,-1.3864,6.6703,0.3791,6.823
10.439000,-1.2387,6.7495,0.3739,6.872
10.440000,-1.0804,6.8007,0.2988,6.892
10.440000,-0.9331,6.7903,0.1778,6.856
10.440000,-0.8254,6.7212,0.0110,6.772
10.441000,-0.7524,6.6051,-0.1942,6.651
10.446000,-0.6947,6.4473,-0.4402,6.500
10.451000,-0.6497,6.2911,-0.6861,6.362
10.455000,-0.6076,6.1394,-0.9390,6.240
10.461000,-0.5562,5.9826,-1.1918,6.125
10.466000,-0.4474,5.8762,-1.4515,6.069
10.471000,-0.2839,5.8008,-1.7148,6.056
10.478000,-0.0416,5.7708,-1.9674,6.097
10.482000,0.2814,5.7787,-2.2279,6.200
10.486000,0.6131,5.8002,-2.4982,6.345
10.491000,0.9318,5.8137,-2.7374,6.493
10.497000,1.2203,5.8473,-2.9355,6.656
10.503000,1.4714,5.8746,-3.0710,6.790
10.508000,1.6827,5.9218,-3.1219,6.903
10.510000,1.9068,5.9891,-3.0667,6.994
10.516000,2.1342,6.0498,-2.9415,7.057
10.553000,2.4054,6.1138,-2.7701,7.130
10.554000,2.7514,6.1975,-2.5718,7.252
10.555000,3.1310,6.2740,-2.3539,7.396
10.555000,3.5103,6.3071,-2.1241,7.524
10.555000,3.8481,6.2937,-1.8825,7.613
10.556000,4.1681,6.2218,-1.6224,7.663
10.556000,4.4633,6.1056,-1.3492,7.682
10.556000,4.7335,5.9427,-1.0512,7.670
10.561000,4.9763,5.7258,-0.7343,7.621
10.566000,5.1296,5.5028,-0.4180,7.534
10.572000,5.1888,5.2618,-0.1271,7.391
10.576000,5.1993,5.0577,0.1356,7.255
10.581000,5.1451,4.8982,0.3719,7.114
10.586000,5.0188,4.7806,0.5721,6.955
10.592000,4.8257,4.6979,0.7171,6.773
10.597000,4.6495,4.6285,0.8093,6.610
10.602000,4.4783,4.5628,0.8611,6.451
10.610000,4.3055,4.4678,0.8368,6.261
10.611000,4.2123,4.3314,0.7304,6.086
10.616000,4.2108,4.1487,0.5572,5.937
10.660000,4.2745,3.8146,0.3490,5.740
10.661000,4.4203,3.3053,0.1255,5.521
10.661000,4.6554,2.6449,-0.1180,5.356
10.662000,4.9733,1.8564,-0.3719,5.322
10.662000,5.3525,1.0112,-0.5955,5.480
10.662000,5.7187,0.1671,-0.7553,5.771
10.663000,6.0411,-0.6830,-0.8302,6.136
10.663000,6.3080,-1.5200,-0.8272,6.541
10.663000,6.5203,-2.3517,-0.7272,6.970
10.667000,6.7382,-3.1399,-0.5298,7.453
10.671000,6.9810,-3.8195,-0.2151,7.960
10.676000,7.2943,-4.3474,0.2536,8.495
10.682000,7.6681,-4.7222,0.7980,9.041
10.686000,8.0813,-4.9673,1.3414,9.580
10.691000,8.4640,-5.1769,1.8361,10.090
10.697000,8.7732,-5.3824,2.2026,10.526
10.701000,8.9896,-5.5577,2.4593,10.851
10.707000,9.1157,-5.6909,2.6338,11.064
10.711000,9.1224,-5.7446,2.7466,11.125
10.716000,8.9791,-5.6965,2.8603,11.012
10.725000,8.6904,-5.5423,2.9760,10.728
10.727000,8.2993,-5.3205,3.0920,10.332
10.731000,7.8299,-5.0905,3.2169,9.878
10.736000,7.3177,-4.8195,3.3590,9.384
10.783000,6.7991,-4.5420,3.5030,8.895
10.785000,6.3144,-4.2757,3.6270,8.444
10.786000,5.8850,-4.0443,3.7025,8.043
10.786000,5.5061,-3.8957,3.7013,7.694
10.787000,5.2257,-3.8229,3.6292,7.422
10.787000,5.0458,-3.8147,3.5185,7.238
10.788000,5.0027,-3.8610,3.4132,7.182
10.788000,4.6320,-3.9578,3.3426,6.949
10.789000,4.3241,-4.0787,3.2996,6.799
10.789000,3.9429,-4.1925,3.2802,6.624
10.793000,3.4623,-4.3063,3.2460,6.408
10.796000,2.8950,-4.4303,3.1887,6.179
10.801000,2.2509,-4.5524,3.0683,5.933
10.806000,1.5471,-4.6907,2.8834,5.719
10.812000,0.7911,-4.8322,2.6279,5.557
10.816000,0.0191,-4.9448,2.3316,5.467
10.824000,-0.7067,-5.0188,2.0072,5.451
10.826000,-1.3358,-4.9875,1.6797,5.430
10.831000,-1.8519,-4.8729,1.3707,5.390
10.838000,-2.2337,-4.6727,1.0995,5.295
10.842000,-2.4960,-4.4304,0.8899,5.162
10.846000,-2.6608,-4.1568,0.7414,4.991
10.851000,-2.7737,-3.8944,0.6347,4.823
10.859000,-2.8469,-3.6756,0.5571,4.682
10.862000,-2.8879,-3.4698,0.5154,4.544
10.866000,-2.9208,-3.2965,0.5015,4.433
10.926000,-2.9481,-3.1538,0.5029,4.346
10.927000,-2.9651,-3.0401,0.5190,4.278
10.928000,-2.9864,-2.9383,0.5178,4.221
10.928000,-3.0238,-2.8780,0.5013,4.204
10.929000,-3.1206,-2.8405,0.4524,4.244
10.929000,-3.2885,-2.8523,0.3780,4.370
10.930000,-3.5131,-2.8946,0.2806,4.561
10.930000,-3.7824,-2.9639,0.1651,4.808
10.930000,-4.0770,-3.0387,0.0554,5.085
10.931000,-4.3921,-3.1306,-0.0553,5.394
10.931000,-4.7302,-3.2489,-0.1742,5.741
10.932000,-5.0838,-3.3717,-0.3200,6.109
10.934000,-5.4769,-3.5300,-0.4854,6.534
10.936000,-5.9142,-3.7151,-0.6722,7.017
10.942000,-6.3599,-3.9269,-0.8873,7.527
10.948000,-6.8114,-4.1452,-1.1275,8.053
10.952000,-7.2474,-4.3861,-1.3710,8.582
10.958000,-7.6201,-4.6108,-1.6006,9.049
10.962000,-7.9082,-4.8322,-1.8068,9.442
10.967000,-8.1310,-5.0433,-2.0061,9.776
11.005000,-8.3030,-5.2317,-2.1504,10.047
11.006000,-8.3910,-5.4020,-2.2562,10.231
11.007000,-8.3879,-5.5541,-2.3068,10.321
11.007000,-8.2795,-5.6811,-2.2880,10.299
11.008000,-8.0590,-5.7709,-2.1997,10.153
11.008000,-7.7622,-5.8293,-2.0304,9.917
11.009000,-7.4635,-5.8784,-1.8020,9.670
11.009000,-7.1915,-5.8996,-1.5343,9.427
11.012000,-6.9415,-5.8744,-1.2514,9.179
11.018000,-6.7157,-5.8174,-0.9369,8.934
11.022000,-6.5406,-5.7623,-0.6198,8.739
11.027000,-6.3897,-5.6998,-0.3051,8.568
11.032000,-6.2582,-5.6585,-0.0126,8.437
11.040000,-6.1463,-5.6122,0.2190,8.326
11.042000,-6.0753,-5.5681,0.4038,8.251
11.047000,-6.0070,-5.4978,0.5246,8.160
11.051000,-5.9343,-5.4037,0.5744,8.046
11.091000,-5.8548,-5.3146,0.5723,7.928
11.094000,-5.7755,-5.2950,0.4993,7.851
11.094000,-5.6559,-5.3589,0.3462,7.799
11.095000,-5.5200,-5.5085,0.1154,7.799
11.096000,-5.3270,-5.7217,-0.1426,7.819
11.097000,-5.0746,-5.9792,-0.4248,7.854
11.098000,-4.7318,-6.3286,-0.6995,7.933
11.100000,-4.2626,-6.7551,-0.9731,8.047
11.101000,-3.6981,-7.2441,-1.1991,8.221
11.102000,-3.0481,-7.7958,-1.3534,8.479
11.107000,-2.3579,-8.3622,-1.4051,8.801
11.112000,-1.6922,-8.8956,-1.3767,9.159
11.117000,-1.1274,-9.3457,-1.2379,9.495
11.124000,-0.7353,-9.6743,-1.0114,9.755
11.127000,-0.5323,-9.8768,-0.7244,9.918
11.133000,-0.5732,-9.9571,-0.3822,9.981
11.138000,-0.7833,-9.8332,0.0361,9.864
11.142000,-1.0836,-9.5046,0.5111,9.580
11.147000,-1.3972,-9.0421,1.0092,9.205
11.152000,-1.6043,-8.5134,1.4564,8.785
11.159000,-1.6425,-7.9872,1.8295,8.357
11.162000,-1.4256,-7.5547,2.0958,7.969
11.167000,-0.9132,-7.2427,2.2438,7.637
11.175000,-0.1580,-7.0502,2.2835,7.412
11.180000,0.7608,-6.9755,2.2336,7.364
11.184000,1.7231,-7.0191,2.0960,7.525
11.233000,2.6140,-7.1409,1.8795,7.833
11.235000,3.4001,-7.3103,1.5935,8.218
11.236000,4.0552,-7.5085,1.2571,8.626
11.237000,4.5890,-7.6796,0.9348,8.995
11.237000,4.9561,-7.8489,0.6503,9.305
11.238000,5.0829,-7.9673,0.4369,9.461
11.239000,4.9339,-7.9887,0.2870,9.394
11.239000,4.5196,-7.8617,0.2344,9.071
11.240000,3.9699,-7.5540,0.2651,8.538
11.240000,3.4007,-7.0566,0.3607,7.842
11.248000,2.9030,-6.4088,0.4892,7.053
11.249000,2.5396,-5.6601,0.6371,6.236
11.249000,2.3776,-4.8275,0.7840,5.438
11.254000,2.4000,-3.9696,0.9256,4.730
11.258000,2.5968,-3.1401,0.9929,4.194
11.262000,2.9801,-2.3489,0.9698,3.916
11.267000,3.5149,-1.5779,0.8716,3.950
11.277000,4.1648,-0.8399,0.7392,4.312
11.278000,4.8952,-0.1392,0.6255,4.937
11.282000,5.6357,0.5321,0.5540,5.688
11.332000,6.3521,1.1564,0.5677,6.481
11.333000,6.9779,1.7186,0.6754,7.218
11.333000,7.4718,2.1993,0.8622,7.836
11.333000,7.7591,2.6003,1.1369,8.262
11.334000,7.8133,2.8985,1.5034,8.468
11.334000,7.6147,3.1118,1.9152,8.446
11.334000,7.1903,3.2375,2.3475,8.228
11.335000,6.5743,3.3078,2.7617,7.861
11.335000,5.8345,3.3268,3.1622,7.424
11.335000,5.0317,3.3534,3.5344,7.004
11.342000,4.2339,3.3702,3.8589,6.646
11.343000,3.5010,3.4159,4.1066,6.387
11.348000,2.8482,3.4799,4.2749,6.205
11.352000,2.3069,3.5868,4.3447,6.088
11.359000,1.9203,3.7750,4.3136,6.045
11.362000,1.7050,4.0396,4.1718,6.052
11.367000,1.6561,4.3353,3.8927,6.057
11.375000,1.7387,4.6460,3.4604,6.048
11.379000,1.9190,4.9452,2.9208,6.055
11.382000,2.1292,5.2270,2.2917,6.092
11.421000,2.2850,5.4576,1.6238,6.135
11.422000,2.3959,5.6199,0.9443,6.182
11.423000,2.4372,5.7159,0.2665,6.220
11.423000,2.3974,5.7437,-0.3852,6.236
11.423000,2.2791,5.7514,-0.9954,6.266
11.424000,2.0897,5.7133,-1.5418,6.276
11.424000,2.1239,5.6610,-1.9977,6.368
11.424000,1.5189,5.5980,-2.3434,6.256
11.429000,1.2319,5.5459,-2.5380,6.222
11.434000,1.0124,5.5152,-2.5720,6.169
11.438000,0.8726,5.4945,-2.4459,6.077
11.442000,0.8365,5.4934,-2.1770,5.968
11.448000,0.9018,5.5002,-1.7856,5.853
11.453000,1.0376,5.5150,-1.3254,5.766
11.458000,1.2119,5.5538,-0.8217,5.744
11.463000,1.4058,5.6142,-0.3117,5.796
11.469000,1.5856,5.7033,0.1413,5.921
11.477000,1.8014,5.8854,0.5008,6.175
11.477000,2.0505,6.1530,0.7593,6.530
11.484000,2.3080,6.4929,0.9263,6.953
11.488000,2.5687,6.8450,1.0091,7.380
11.494000,2.8059,7.1897,1.0075,7.783
11.498000,3.0333,7.5170,0.9362,8.160
11.503000,3.2218,7.8383,0.8289,8.515
11.558000,3.3469,8.1030,0.6644,8.792
11.560000,3.3965,8.2630,0.4387,8.945
11.560000,3.3946,8.3212,0.1858,8.989
11.561000,3.3749,8.3113,-0.1076,8.971
11.561000,3.3780,8.2309,-0.4456,8.908
11.562000,3.4256,8.0875,-0.8247,8.822
11.563000,3.5366,7.8692,-1.2006,8.711
11.563000,3.7133,7.5332,-1.5320,8.537
11.564000,3.9321,7.0561,-1.7945,8.275
11.564000,4.1767,6.4407,-1.9881,7.930
11.564000,4.4380,5.7215,-2.0603,7.528
11.566000,4.7574,4.9468,-2.0142,7.153
11.567000,5.1115,4.1939,-1.8744,6.872
11.573000,5.4551,3.5086,-1.6465,6.692
11.579000,5.7815,2.9531,-1.3595,6.633
11.584000,6.1122,2.5919,-1.0373,6.720
11.591000,6.4805,2.4510,-0.6705,6.961
11.594000,6.8719,2.4604,-0.2950,7.305
11.598000,7.3000,2.5476,0.0200,7.732
11.604000,7.8122,2.6595,0.2676,8.257
11.646000,8.4077,2.7570,0.5033,8.862
11.646000,9.0521,2.8009,0.7629,9.506
11.647000,9.6870,2.7688,1.0530,10.130
11.647000,10.2617,2.6839,1.3723,10.695
11.648000,10.7228,2.5406,1.7415,11.156
11.649000,11.0246,2.3646,2.1643,11.481
11.649000,11.0980,2.0984,2.6105,11.592
11.650000,10.9408,1.7372,3.0048,11.478
11.651000,10.6074,1.3038,3.2672,11.175
11.656000,10.1774,0.8251,3.3718,10.753
11.658000,9.7186,0.3280,3.3335,10.280
11.664000,9.2771,-0.1988,3.1961,9.814
11.668000,8.9039,-0.7237,3.0036,9.425
11.674000,8.5869,-1.2466,2.7779,9.111
11.678000,8.2914,-1.7782,2.5149,8.845
11.683000,7.9696,-2.2732,2.2226,8.580
11.690000,7.6124,-2.7048,1.9524,8.311
11.694000,7.2084,-3.0439,1.7502,8.018
11.697000,6.7647,-3.2547,1.6287,7.682
11.704000,6.3185,-3.3360,1.5949,7.321
11.712000,5.9293,-3.2783,1.6229,6.967
11.714000,5.6210,-3.1178,1.7055,6.650
11.719000,5.3814,-2.9120,1.8021,6.379
11.768000,5.1959,-2.6806,1.8696,6.138
11.769000,5.0685,-2.4555,1.8961,5.943
11.769000,4.9949,-2.2456,1.8764,5.789
11.769000,4.9696,-2.0712,1.8443,5.691
11.770000,4.9683,-1.9469,1.8256,5.640
11.770000,4.9383,-1.8804,1.8100,5.586
11.771000,4.8936,-1.8462,1.7948,5.530
11.771000,4.7868,-1.8529,1.8008,5.440
11.771000,4.6010,-1.9084,1.8280,5.306
11.772000,4.3508,-1.9981,1.8829,5.145
11.779000,4.0341,-2.1052,1.9459,4.949
11.779000,3.6439,-2.2247,2.0428,4.733
11.784000,3.2018,-2.3590,2.1325,4.513
11.789000,2.7040,-2.5159,2.2168,4.308
11.794000,2.1817,-2.6570,2.3073,4.140
11.799000,1.6375,-2.7723,2.3728,4.000
11.804000,1.0812,-2.8898,2.3939,3.905
11.808000,0.5272,-2.9951,2.3542,3.846
11.815000,0.0025,-3.0814,2.2445,3.812
11.818000,-0.4667,-3.1443,2.0895,3.804
11.824000,-0.8855,-3.1813,1.8871,3.803
11.829000,-1.2442,-3.1872,1.6570,3.802
11.833000,-1.5286,-3.1764,1.4403,3.808
11.840000,-1.7392,-3.1378,1.2419,3.796
11.844000,-1.8924,-3.0678,1.0788,3.763
11.848000,-1.9936,-3.0105,0.9464,3.733
11.853000,-2.0716,-2.9519,0.8541,3.706
11.902000,-2.1506,-2.9257,0.7852,3.715
11.904000,-2.2379,-2.9185,0.7299,3.749
11.904000,-2.3499,-2.9386,0.6791,3.823
11.905000,-2.4726,-2.9579,0.6498,3.910
11.906000,-2.6059,-2.9813,0.6611,4.014
11.907000,-2.7450,-3.0062,0.6798,4.127
11.907000,-2.8780,-3.0328,0.7131,4.241
11.908000,-3.0218,-3.0686,0.7465,4.371
11.909000,-3.1522,-3.1197,0.7732,4.502
11.910000,-3.2934,-3.2007,0.7982,4.661
11.910000,-3.4309,-3.2876,0.7975,4.818
11.915000,-3.5695,-3.3659,0.7977,4.971
11.919000,-3.7070,-3.4362,0.7871,5.116
11.924000,-3.8672,-3.5069,0.7660,5.276
11.929000,-4.0357,-3.5759,0.7325,5.442
11.935000,-4.2198,-3.6646,0.6728,5.629
11.946000,-4.4076,-3.7703,0.5824,5.829
11.947000,-4.6205,-3.8694,0.4645,6.045
11.950000,-4.8346,-3.9486,0.3174,6.250
11.988000,-5.0691,-4.0058,0.1487,6.463
11.989000,-5.2834,-4.0195,-0.0004,6.639
11.989000,-5.4679,-3.9896,-0.1152,6.770
11.990000,-5.6083,-3.9519,-0.1864,6.863
11.990000,-5.6905,-3.9044,-0.2212,6.905
11.990000,-5.6904,-3.8537,-0.2321,6.876
11.991000,-5.6060,-3.8195,-0.2171,6.787
11.991000,-5.4636,-3.7853,-0.1861,6.649
11.995000,-5.2752,-3.7779,-0.1736,6.491
12.000000,-5.0769,-3.8122,-0.1727,6.351
12.003000,-4.8926,-3.8879,-0.1752,6.252
12.008000,-4.7438,-4.0268,-0.1987,6.226
12.014000,-4.6258,-4.1999,-0.2249,6.252
12.019000,-4.5004,-4.3809,-0.2594,6.286
12.026000,-4.4442,-4.5984,-0.2790,6.401
12.029000,-4.4117,-4.8448,-0.2963,6.559
12.034000,-4.3696,-5.0669,-0.3052,6.698
12.079000,-4.3515,-5.2693,-0.3060,6.841
12.080000,-4.3719,-5.4281,-0.2922,6.976
12.081000,-4.4426,-5.5550,-0.2708,7.118
12.081000,-4.5733,-5.6450,-0.2492,7.269
12.081000,-4.7162,-5.6859,-0.2272,7.391
12.082000,-4.8545,-5.6867,-0.1880,7.479
12.082000,-4.9571,-5.6664,-0.1504,7.530
12.082000,-5.0122,-5.6273,-0.1143,7.537
12.083000,-5.0270,-5.5789,-0.0866,7.510
12.085000,-4.9800,-5.5212,-0.0813,7.436
12.089000,-4.8975,-5.4354,-0.1147,7.317
12.095000,-4.7748,-5.3121,-0.1646,7.145
12.098000,-4.6428,-5.1687,-0.2188,6.951
12.105000,-4.5064,-5.0201,-0.2507,6.751
12.110000,-4.3297,-4.8688,-0.2338,6.520
12.115000,-4.1221,-4.7536,-0.1844,6.295
12.119000,-3.8885,-4.6819,-0.1073,6.087
12.124000,-3.6289,-4.6634,-0.0069,5.909
12.129000,-3.3672,-4.7128,0.1025,5.793
12.135000,-3.0889,-4.8492,0.1873,5.752
12.140000,-2.7632,-5.0364,0.2119,5.748
12.144000,-2.3731,-5.2556,0.2123,5.770
12.149000,-1.9787,-5.4926,0.2003,5.842
12.199000,-1.6731,-5.7596,0.1755,6.000
12.200000,-1.5161,-6.0346,0.1303,6.224
12.200000,-1.5099,-6.2932,0.0957,6.472
12.201000,-1.6661,-6.4747,0.0411,6.686
12.201000,-1.9245,-6.5615,-0.0379,6.838
12.202000,-2.2181,-6.5714,-0.1091,6.937
12.202000,-2.5129,-6.4777,-0.1837,6.951
12.203000,-2.6965,-6.2704,-0.2870,6.832
12.204000,-2.6541,-5.9135,-0.3943,6.494
12.205000,-2.3308,-5.4037,-0.4809,5.905
12.206000,-1.7796,-4.7571,-0.5346,5.107
12.209000,-1.0034,-4.0383,-0.6248,4.208
12.215000,-0.0934,-3.2973,-0.7371,3.380
12.220000,0.7610,-2.6136,-0.8620,2.855
12.225000,1.4709,-2.1009,-0.9926,2.750
12.230000,1.9862,-1.7971,-1.1245,2.905
12.235000,2.3474,-1.7375,-1.2266,3.168
12.246000,2.5667,-1.9237,-1.2777,3.453
12.247000,2.6756,-2.3709,-1.2350,3.782
12.249000,2.6646,-3.0818,-1.0873,4.217
12.304000,2.5508,-3.9877,-0.8192,4.804
12.305000,2.3753,-5.0235,-0.4600,5.576
12.305000,2.1720,-6.0696,-0.0387,6.447
12.305000,1.9963,-7.0018,0.4042,7.292
12.306000,1.8727,-7.7463,0.8360,8.013
12.306000,1.7941,-8.2952,1.2323,8.576
12.306000,1.8184,-8.6065,1.5528,8.933
12.307000,1.9840,-8.6898,1.7828,9.090
12.307000,2.2837,-8.5122,1.9126,9.018
12.307000,2.6959,-8.1011,1.9134,8.750
12.308000,3.1465,-7.4672,1.7711,8.294
12.311000,3.5178,-6.6805,1.5232,7.702
12.315000,3.8122,-5.7636,1.2196,7.017
12.319000,4.0103,-4.7899,0.9360,6.317
12.326000,4.1383,-3.7940,0.6785,5.655
12.330000,4.2127,-2.7860,0.4847,5.074
12.335000,4.2232,-1.8257,0.4111,4.619
12.341000,4.1722,-0.9225,0.4638,4.298
12.345000,4.0784,-0.0890,0.6470,4.130
12.350000,3.9703,0.6410,0.9312,4.128
12.361000,3.8312,1.2682,1.2943,4.238
12.363000,3.7035,1.7813,1.6931,4.445
12.365000,3.6232,2.1957,2.0891,4.724
12.424000,3.5757,2.5183,2.4540,5.015
12.425000,3.5298,2.7609,2.7618,5.264
12.425000,3.4998,2.9257,2.9866,5.452
12.425000,3.4428,3.0299,3.1268,5.551
12.426000,3.3393,3.0724,3.1886,5.546
12.426000,3.1657,3.0468,3.1534,5.408
12.426000,2.9559,2.9751,3.0318,5.175
12.427000,2.7291,2.8717,2.8487,4.880
12.427000,2.4956,2.7616,2.6411,4.564
12.428000,2.2788,2.6895,2.4393,4.287
12.430000,2.0647,2.6416,2.2556,4.041
12.430000,1.8557,2.6203,2.0859,3.829
12.431000,1.6353,2.6331,1.9187,3.645
12.437000,1.4204,2.6663,1.7470,3.490
12.440000,1.2203,2.7194,1.5621,3.365
12.446000,1.0735,2.8001,1.3709,3.297
12.451000,0.9775,2.9110,1.1423,3.276
12.457000,0.9061,3.0522,0.8592,3.298
12.462000,0.8616,3.1878,0.5117,3.342
12.465000,0.8345,3.3399,0.1042,3.444
12.503000,0.8243,3.5456,-0.3579,3.658
12.504000,0.8047,3.7574,-0.8388,3.933
12.504000,0.7827,3.9915,-1.3024,4.271
12.505000,0.7652,4.2336,-1.7318,4.638
12.505000,0.7332,4.5218,-2.1011,5.040
12.505000,0.7123,4.8193,-2.3913,5.427
12.506000,0.6785,5.1094,-2.6073,5.776
12.506000,0.6245,5.3513,-2.7088,6.030
12.511000,0.5239,5.5426,-2.6915,6.184
12.516000,0.3982,5.6762,-2.5772,6.247
12.521000,0.2381,5.7478,-2.3642,6.220
12.526000,0.0603,5.7238,-2.0790,6.090
12.530000,-0.0869,5.6555,-1.7362,5.917
12.537000,-0.1890,5.5528,-1.3551,5.719
12.542000,-0.2410,5.4303,-0.9385,5.516
12.545000,-0.2547,5.2813,-0.5469,5.316
12.551000,-0.2255,5.1153,-0.2209,5.125
12.556000,-0.1438,4.9324,0.0344,4.935
12.560000,-0.0336,4.7852,0.2501,4.792
12.565000,0.0978,4.6640,0.4238,4.684
12.579000,0.2528,4.5854,0.5434,4.624
12.581000,0.3928,4.5133,0.5973,4.570
12.581000,0.5038,4.4145,0.5856,4.482
12.586000,0.5955,4.3202,0.4920,4.389
12.636000,0.6797,4.2352,0.3481,4.304
12.637000,0.7591,4.1788,0.1353,4.249
12.638000,0.8529,4.1582,-0.0980,4.246
12.638000,0.9656,4.1684,-0.3248,4.291
12.638000,1.0972,4.2188,-0.5472,4.393
12.639000,1.2691,4.2975,-0.7746,4.547
12.640000,1.4645,4.3827,-0.9708,4.722
12.640000,1.6616,4.4623,-1.1120,4.890
12.641000,1.8293,4.5603,-1.2221,5.063
12.641000,1.9601,4.6521,-1.2705,5.206
12.642000,2.0732,4.7499,-1.2694,5.336
12.646000,2.1399,4.8369,-1.2189,5.428
12.650000,2.2345,4.9157,-1.1410,5.519
12.656000,2.3666,5.0077,-1.0478,5.637
12.661000,2.5381,5.1389,-0.9446,5.809
12.666000,2.6983,5.2895,-0.8150,5.994
12.675000,2.8253,5.4400,-0.6741,6.167
12.680000,2.9285,5.5829,-0.5414,6.328
12.682000,2.9982,5.6846,-0.4482,6.442
12.685000,3.0248,5.7044,-0.3918,6.469
12.730000,3.0252,5.6639,-0.3604,6.431
12.732000,3.0256,5.5729,-0.3514,6.351
12.733000,3.0379,5.4217,-0.3624,6.225
12.734000,3.0839,5.1724,-0.3716,6.033
12.736000,3.1947,4.8012,-0.3668,5.779
12.737000,3.4016,4.2658,-0.3572,5.468
12.738000,3.7550,3.5642,-0.3021,5.186
12.740000,4.2096,2.7543,-0.2205,5.035
12.741000,4.7030,1.8602,-0.1198,5.059
12.742000,5.1252,0.9655,0.0164,5.215
12.743000,5.4001,0.1592,0.1739,5.405
12.746000,5.5186,-0.5107,0.3765,5.555
12.751000,5.5005,-0.9814,0.5580,5.615
12.757000,5.4063,-1.2552,0.7123,5.596
12.760000,5.2934,-1.3225,0.8411,5.521
12.765000,5.2361,-1.2196,0.9866,5.466
12.771000,5.2173,-1.0424,1.1593,5.445
12.776000,5.4686,-0.8657,1.3374,5.696
12.781000,5.7620,-0.7189,1.4966,5.996
12.786000,6.1592,-0.5978,1.6337,6.400
12.791000,6.5828,-0.5439,1.7768,6.840
12.796000,6.9964,-0.5750,1.8846,7.269
12.801000,7.3878,-0.6552,1.9271,7.663
12.813000,7.7159,-0.7949,1.9067,7.988
12.814000,7.9903,-0.9705,1.8659,8.262
12.816000,8.1749,-1.2445,1.8046,8.464
12.878000,8.2724,-1.6621,1.7108,8.609
12.880000,8.3221,-2.1599,1.6529,8.755
12.881000,8.2477,-2.6635,1.6849,8.829
12.882000,7.9853,-3.0790,1.8076,8.747
12.883000,7.5089,-3.3034,1.9785,8.439
12.884000,6.8360,-3.3101,2.1728,7.900
12.885000,5.9765,-3.1516,2.3376,7.149
12.885000,5.0035,-2.8838,2.4512,6.274
12.886000,4.0491,-2.5348,2.4858,5.385
12.887000,3.1449,-2.2043,2.4658,4.564
12.888000,2.3440,-1.9152,2.3488,3.831
12.888000,1.6918,-1.6673,2.1231,3.186
12.889000,1.2149,-1.4211,1.8304,2.616
12.890000,0.8986,-1.2057,1.5070,2.129
12.893000,0.7495,-0.9713,1.1917,1.710
12.898000,0.7241,-0.7398,0.9256,1.389
12.902000,0.8194,-0.5023,0.6323,1.150
12.907000,0.9654,-0.2742,0.3285,1.056
12.912000,1.1238,-0.0724,0.1223,1.133
12.917000,1.2771,0.0687,-0.0119,1.279
12.963000,1.4538,0.1603,-0.1625,1.472
12.964000,1.5099,0.2303,-0.4879,1.603
12.964000,1.3139,0.2974,-0.6916,1.514
12.964000,1.1299,0.2981,-0.4845,1.265
12.964000,0.9602,0.2876,-0.1292,1.011
12.965000,0.7979,0.3451,0.2229,0.897
12.965000,0.6214,0.3987,0.4633,0.872
12.965000,0.4548,0.4154,0.5028,0.795
12.966000,0.3386,0.4475,0.4229,0.703
12.966000,0.2444,0.4932,0.3943,0.677
12.973000,0.2149,0.5827,0.5778,0.848
12.976000,0.2260,0.6989,0.9196,1.177
12.981000,0.3037,0.8442,1.2364,1.528
12.989000,0.4480,1.0009,1.4626,1.828
12.992000,0.6348,1.1385,1.6173,2.077
12.996000,0.8352,1.2367,1.6788,2.246
13.001000,0.9915,1.3020,1.6788,2.344
13.007000,1.0607,1.3193,1.6486,2.363
13.011000,0.9928,1.2839,1.5840,2.268
13.016000,0.8023,1.1885,1.4801,2.061
13.059000,0.5310,1.0469,1.3562,1.794
13.060000,0.2244,0.8521,1.2267,1.510
13.061000,-0.1194,0.6098,1.1393,1.298
13.061000,-0.4859,0.3517,1.0750,1.231
13.062000,-0.8653,0.0877,1.0238,1.343
13.063000,-1.6515,-0.3859,0.9816,1.960
13.063000,-1.6772,-0.4945,0.9630,1.996
13.063000,-2.0907,-0.7423,0.9371,2.408
13.064000,-2.4709,-0.9300,0.9069,2.792
13.066000,-2.7889,-1.0785,0.8751,3.116
13.071000,-3.0331,-1.1763,0.8345,3.359
13.076000,-3.2081,-1.2318,0.8024,3.529
13.081000,-3.2834,-1.2673,0.7789,3.605
13.087000,-3.2447,-1.2902,0.7473,3.571
13.091000,-3.0853,-1.3202,0.7197,3.432
13.097000,-2.8390,-1.3729,0.6839,3.227
13.102000,-2.5441,-1.4360,0.6352,2.990
13.107000,-2.2394,-1.5182,0.5661,2.764
13.112000,-1.9343,-1.6177,0.4983,2.570
13.116000,-1.6577,-1.7398,0.4173,2.439
13.153000,-1.4861,-1.8851,0.3304,2.423
13.154000,-1.4433,-2.0420,0.2564,2.514
13.154000,-1.5409,-2.2310,0.1857,2.718
13.154000,-1.7548,-2.3921,0.1228,2.969
13.155000,-2.0704,-2.5583,0.0751,3.292
13.155000,-2.4230,-2.7167,0.0404,3.640
13.155000,-2.7862,-2.9004,-0.0097,4.022
13.156000,-3.1168,-3.0860,-0.0771,4.387
13.162000,-3.3984,-3.2708,-0.1756,4.720
13.170000,-3.6453,-3.4473,-0.2833,5.025
13.172000,-3.8552,-3.6247,-0.3788,5.305
13.175000,-4.0020,-3.7522,-0.4600,5.505
13.182000,-4.0930,-3.8376,-0.5389,5.637
13.187000,-4.1356,-3.8967,-0.5821,5.712
13.192000,-4.1345,-3.9445,-0.5683,5.743
13.197000,-4.0997,-3.9764,-0.5218,5.735
13.202000,-4.0023,-3.9805,-0.4241,5.661
13.206000,-3.8594,-3.9694,-0.2879,5.544
13.211000,-3.6638,-3.9631,-0.1181,5.399
13.216000,-3.4516,-3.9471,0.0748,5.244
13.264000,-3.2777,-3.9508,0.2570,5.140
13.265000,-3.1326,-3.9579,0.4210,5.065
13.266000,-3.0712,-3.9709,0.5668,5.052
13.266000,-3.0768,-3.9901,0.6892,5.085
13.267000,-3.1397,-4.0125,0.7759,5.154
13.267000,-3.2599,-4.0549,0.8105,5.266
13.267000,-3.4207,-4.1025,0.8006,5.401
13.268000,-3.5526,-4.1907,0.7586,5.546
13.269000,-3.6198,-4.3359,0.6778,5.689
13.270000,-3.5891,-4.5642,0.5446,5.832
13.271000,-3.4939,-4.8987,0.3642,6.028
13.276000,-3.3823,-5.3082,0.1804,6.297
13.282000,-3.2853,-5.7993,-0.0207,6.665
13.287000,-3.1886,-6.2709,-0.1809,7.037
13.291000,-3.1376,-6.6984,-0.2470,7.401
13.297000,-3.0869,-7.0694,-0.2264,7.717
13.301000,-3.0007,-7.3664,-0.1116,7.955
13.307000,-2.8645,-7.5505,0.1065,8.076
13.311000,-2.6737,-7.6533,0.4039,8.117
13.316000,-2.4593,-7.6628,0.7516,8.083
13.323000,-2.1996,-7.5579,1.1188,7.951
13.327000,-1.9115,-7.3731,1.5116,7.765
13.331000,-1.5828,-7.0916,1.8912,7.508
13.361000,-1.1944,-6.7289,2.2375,7.191
13.361000,-0.7824,-6.3143,2.5136,6.841
13.362000,-0.3944,-5.8654,2.6807,6.461
13.362000,-0.0497,-5.3814,2.6922,6.017
13.362000,0.2448,-4.8915,2.5340,5.514
13.362000,0.4435,-4.4158,2.1961,4.952
13.368000,0.5920,-3.9931,1.6860,4.375
13.374000,0.7524,-3.6383,1.0035,3.848
13.378000,0.9416,-3.3636,0.2045,3.499
13.383000,1.1331,-3.2228,-0.6439,3.476
13.387000,1.3030,-3.3017,-1.5222,3.862
13.392000,1.4632,-3.5642,-2.3394,4.507
13.397000,1.6162,-4.0644,-3.0688,5.343
13.402000,1.7739,-4.7294,-3.5903,6.197
13.407000,1.8672,-5.5111,-3.8831,6.996
13.412000,1.8576,-6.3172,-3.9651,7.686
13.417000,1.6520,-7.0914,-3.8644,8.243
13.424000,1.3344,-7.7264,-3.5221,8.596
13.427000,1.0176,-8.1583,-2.9071,8.720
13.431000,0.7666,-8.3425,-2.0965,8.636
13.480000,0.6101,-8.3129,-1.2191,8.424
13.481000,0.5604,-8.0837,-0.3636,8.111
13.482000,0.6367,-7.6793,0.4012,7.716
13.483000,0.8128,-7.1225,0.9969,7.238
13.483000,1.0529,-6.4640,1.3473,6.686
13.483000,1.3234,-5.7256,1.3887,6.038
13.484000,1.6338,-4.9773,1.1211,5.357
13.484000,2.0461,-4.2736,0.7412,4.796
13.485000,2.4190,-3.5897,0.4055,4.348
13.485000,2.6804,-2.9202,0.1431,3.966
13.492000,2.7900,-2.2527,-0.0579,3.586
13.494000,2.7784,-1.6536,-0.2236,3.241
13.498000,2.6866,-1.1486,-0.3972,2.949
13.503000,2.5528,-0.7491,-0.5977,2.727
13.509000,2.4035,-0.4528,-0.7265,2.551
13.516000,2.2532,-0.2274,-0.7403,2.383
13.526000,2.1278,-0.0288,-0.5979,2.210
13.528000,2.0228,0.1418,-0.3404,2.056
13.529000,1.9214,0.3083,-0.0275,1.946
13.536000,1.8115,0.4780,0.3023,1.898
13.537000,1.7030,0.6514,0.6158,1.924
13.547000,1.6270,0.8409,0.9060,2.043
13.548000,1.6119,1.0169,1.1594,2.231
13.551000,1.6457,1.2348,1.3881,2.482
13.588000,1.7092,1.4871,1.5779,2.761
13.590000,1.7638,1.7734,1.7006,3.025
13.590000,1.8072,2.0698,1.7899,3.279
13.590000,1.8626,2.3606,1.8799,3.546
13.591000,1.9179,2.6483,2.0207,3.844
13.591000,1.9513,2.9157,2.1879,4.135
13.591000,1.9482,3.1865,2.3714,4.424
13.592000,1.9278,3.4682,2.5706,4.728
13.597000,1.8822,3.7402,2.7704,5.021
13.603000,1.8089,4.0005,2.9463,5.287
13.606000,1.7030,4.2178,3.0667,5.486
13.613000,1.5715,4.3755,3.1119,5.594
13.618000,1.4122,4.5001,3.0674,5.626
13.622000,1.2275,4.5776,2.9283,5.571
13.627000,1.0051,4.6125,2.6756,5.426
13.631000,0.7358,4.6031,2.3047,5.200
13.637000,0.4582,4.5594,1.8519,4.942
13.642000,0.1605,4.4724,1.3464,4.673
13.647000,-0.1185,4.3621,0.8292,4.442
13.652000,-0.3670,4.2236,0.3246,4.252
13.657000,-0.6132,4.0508,-0.1238,4.099
13.662000,-0.8521,3.8393,-0.5233,3.967
13.666000,-1.0568,3.6259,-0.8592,3.873
13.675000,-1.2820,3.4136,-1.1580,3.826
13.677000,-1.2571,3.2486,-1.4535,3.774
13.682000,-1.5083,3.1260,-1.6522,3.844
13.718000,-1.4852,3.0557,-1.7278,3.812
13.718000,-1.3745,3.0255,-1.6876,3.727
13.719000,-1.2315,3.0496,-1.5774,3.648
13.719000,-1.0634,3.1279,-1.4865,3.623
13.719000,-0.8395,3.2380,-1.4073,3.629
13.719000,-0.5744,3.3702,-1.3280,3.668
13.720000,-0.3305,3.4883,-1.2174,3.709
13.722000,-0.1199,3.6086,-1.0710,3.766
13.727000,0.0620,3.7573,-0.9249,3.870
13.732000,0.2059,3.9082,-0.7840,3.991
13.737000,0.3208,4.0749,-0.6792,4.144
13.742000,0.4570,4.2839,-0.5935,4.349
13.748000,0.6264,4.4893,-0.5388,4.565
13.753000,0.8361,4.6915,-0.4818,4.790
13.758000,1.0925,4.8749,-0.4345,5.015
13.762000,1.3644,5.0038,-0.4093,5.203
13.768000,1.6276,5.0565,-0.4252,5.329
13.803000,1.8461,5.0401,-0.4704,5.388
13.804000,2.0583,5.0192,-0.5539,5.453
13.804000,2.3096,4.9892,-0.6757,5.539
13.805000,2.6043,4.9305,-0.8328,5.638
13.805000,2.9495,4.8552,-1.0056,5.769
13.806000,3.2970,4.7438,-1.1630,5.893
13.806000,3.5917,4.6177,-1.3026,5.993
13.807000,3.7976,4.4816,-1.4147,6.042
13.813000,3.8889,4.3528,-1.4969,6.026
13.818000,3.8944,4.2408,-1.5755,5.969
13.823000,3.8815,4.1007,-1.6574,5.885
13.828000,3.9344,3.9379,-1.7280,5.829
13.833000,4.0699,3.7070,-1.7657,5.781
13.838000,4.2976,3.4204,-1.7753,5.772
13.842000,4.5765,3.0659,-1.7448,5.778
13.847000,4.8493,2.6774,-1.6603,5.783
13.853000,5.0851,2.2835,-1.5247,5.779
13.858000,5.2839,1.9513,-1.3433,5.791
13.863000,5.4649,1.7214,-1.1330,5.841
13.868000,5.5948,1.6009,-0.9182,5.891
13.879000,5.7045,1.5488,-0.7300,5.956
13.881000,5.7963,1.5363,-0.5827,6.025
13.883000,5.8965,1.5582,-0.4902,6.119
13.934000,5.9904,1.6167,-0.4141,6.219
13.935000,6.1016,1.6851,-0.3518,6.340
13.936000,6.1966,1.7608,-0.2986,6.449
13.936000,6.2679,1.7956,-0.2642,6.525
13.937000,6.3321,1.7798,-0.2507,6.582
13.938000,6.3942,1.6943,-0.3010,6.622
13.938000,6.4778,1.5416,-0.3715,6.669
13.939000,6.5400,1.3551,-0.4594,6.695
13.940000,6.5787,1.1328,-0.5214,6.696
13.940000,6.5819,0.9009,-0.5313,6.664
13.941000,6.5691,0.6788,-0.5152,6.624
13.942000,6.5738,0.4523,-0.4683,6.606
13.947000,6.5889,0.2189,-0.3882,6.604
13.953000,6.6173,-0.0662,-0.2466,6.622
13.958000,6.6254,-0.3960,-0.0677,6.638
13.963000,6.5896,-0.7247,0.1362,6.631
13.967000,6.5220,-1.0330,0.3623,6.613
13.973000,6.4110,-1.3062,0.6390,6.574
13.978000,6.2472,-1.5062,0.9609,6.498
13.982000,6.0430,-1.5939,1.3149,6.387
14.006000,5.7890,-1.5815,1.6599,6.226
14.007000,5.4971,-1.4692,1.9669,6.020
14.007000,5.1699,-1.2497,2.2234,5.765
14.007000,4.8286,-0.9642,2.4272,5.490
14.008000,4.5118,-0.6530,2.5444,5.221
14.013000,4.2144,-0.3357,2.5945,4.960
14.018000,3.9648,-0.0198,2.5920,4.737
14.033000,3.7581,0.2919,2.5704,4.562
14.033000,3.5963,0.5896,2.5251,4.434
14.035000,3.4716,0.8578,2.4489,4.334
14.038000,3.3508,1.0993,2.3514,4.239
14.047000,3.1760,1.2775,2.2138,4.077
14.048000,2.9329,1.3994,2.0652,3.850
14.052000,2.6363,1.4630,1.9033,3.566
14.057000,2.3148,1.4609,1.7212,3.233
14.062000,1.9836,1.3823,1.5099,2.850
14.068000,1.6737,1.2773,1.2600,2.454
14.074000,1.3973,1.1654,1.0104,2.081
14.078000,1.1782,1.0394,0.7948,1.761
14.082000,0.9952,0.9018,0.6325,1.484
14.139000,0.8382,0.7211,0.5377,1.229
14.140000,0.6840,0.5126,0.4958,0.988
14.140000,0.5087,0.3001,0.4877,0.766
14.140000,0.2979,0.0840,0.4843,0.575
14.141000,0.0688,-0.1140,0.4832,0.501
14.141000,-0.1645,-0.3229,0.4796,0.601
14.141000,-0.4107,-0.5435,0.4712,0.828
14.142000,-0.6414,-0.7401,0.4578,1.081
14.142000,-0.8443,-0.8956,0.4420,1.308
14.143000,-1.0100,-1.0147,0.4094,1.489
14.143000,-1.1432,-1.0760,0.3816,1.616
14.144000,-1.2419,-1.0943,0.3634,1.695
14.149000,-1.3177,-1.0688,0.3572,1.734
14.153000,-1.3710,-1.0123,0.3437,1.739
14.160000,-1.4018,-0.9346,0.3279,1.716
14.170000,-1.4151,-0.8432,0.3145,1.677
14.171000,-1.4277,-0.7409,0.3179,1.640
14.175000,-1.4494,-0.6619,0.3380,1.629
14.187000,-1.4871,-0.5932,0.3772,1.645
14.187000,-1.5241,-0.5548,0.4138,1.674
14.188000,-1.5486,-0.5371,0.4527,1.700
14.193000,-1.5796,-0.5689,0.4748,1.745
14.199000,-1.6052,-0.6627,0.4894,1.804
14.221000,-1.6300,-0.8147,0.4848,1.886
14.221000,-1.6921,-1.0276,0.4609,2.033
14.222000,-1.7939,-1.2984,0.4299,2.256
14.222000,-1.9279,-1.6171,0.3707,2.543
14.222000,-2.1157,-1.9687,0.2835,2.904
14.229000,-2.3211,-2.3364,0.1710,3.298
14.234000,-2.5152,-2.6871,0.0508,3.681
14.238000,-2.6861,-3.0064,-0.0746,4.032
14.243000,-2.8076,-3.2989,-0.1831,4.336
14.248000,-2.8845,-3.5404,-0.2482,4.573
14.253000,-2.9099,-3.7674,-0.2961,4.770
14.258000,-2.9005,-3.9787,-0.3197,4.934
14.263000,-2.8374,-4.1247,-0.3118,5.016
14.269000,-2.7566,-4.2225,-0.2845,5.051
14.276000,-2.7035,-4.2798,-0.2283,5.067
14.279000,-2.6832,-4.3039,-0.1579,5.074
14.285000,-2.6859,-4.3168,-0.0614,5.085
14.295000,-2.7189,-4.3177,0.0414,5.103
14.297000,-2.7606,-4.2976,0.1382,5.110
14.298000,-2.8207,-4.2734,0.2528,5.127
14.349000,-2.8848,-4.2379,0.3846,5.141
14.351000,-2.9650,-4.1937,0.5119,5.161
14.351000,-3.0612,-4.1355,0.6149,5.182
14.352000,-3.1711,-4.0636,0.7028,5.202
14.353000,-3.2756,-3.9947,0.7828,5.225
14.353000,-3.3484,-3.9194,0.8328,5.222
14.357000,-3.3897,-3.8688,0.8626,5.216
14.358000,-3.4139,-3.8363,0.8886,5.212
14.359000,-3.4353,-3.8332,0.9275,5.230
14.359000,-3.4374,-3.8814,0.9699,5.275
14.360000,-3.4368,-3.9903,0.9849,5.358
14.360000,-3.4431,-4.1832,0.9919,5.508
14.364000,-3.4133,-4.4481,0.9345,5.684
14.369000,-3.3235,-4.7578,0.8180,5.861
14.374000,-3.1306,-5.1626,0.6049,6.068
14.380000,-2.8540,-5.6671,0.3774,6.356
14.384000,-2.5081,-6.2593,0.1790,6.745
14.388000,-2.3632,-6.8480,-0.0001,7.244
14.394000,-2.2923,-7.4634,-0.1053,7.808
14.398000,-2.2787,-8.0474,-0.0369,8.364
14.406000,-2.3942,-8.4850,0.1232,8.817
14.409000,-2.7247,-8.7204,0.3172,9.142
14.413000,-3.2055,-8.7811,0.4942,9.361
14.418000,-3.6715,-8.7566,0.6568,9.518
14.452000,-4.0199,-8.6870,0.7853,9.604
14.453000,-4.1959,-8.5742,0.8632,9.585
14.453000,-4.1612,-8.3734,0.9071,9.394
14.454000,-3.9401,-8.0974,0.9220,9.052
14.454000,-3.6067,-7.7587,0.9077,8.604
14.454000,-3.1372,-7.4024,0.8422,8.084
14.455000,-2.5173,-7.1034,0.7373,7.572
14.458000,-2.0008,-6.7750,0.5715,7.087
14.464000,-1.6375,-6.4534,0.3446,6.667
14.469000,-1.3723,-6.1608,0.0827,6.312
14.474000,-1.1526,-5.9450,-0.1975,6.059
14.479000,-0.9184,-5.8307,-0.4509,5.920
14.484000,-0.6625,-5.8276,-0.6244,5.898
14.490000,-0.4400,-5.9044,-0.7253,5.965
14.494000,-0.2604,-6.0777,-0.7112,6.125
14.499000,-0.1117,-6.2986,-0.6066,6.329
14.506000,0.0515,-6.5438,-0.4287,6.558
14.512000,0.2342,-6.7931,-0.1874,6.800
14.515000,0.4052,-7.0389,0.1074,7.051
14.519000,0.5217,-7.2759,0.4219,7.307
14.563000,0.5815,-7.4867,0.7487,7.546
14.564000,0.5778,-7.6510,1.0877,7.749
14.564000,0.5300,-7.7500,1.4102,7.895
14.565000,0.4480,-7.7467,1.6923,7.942
14.565000,0.4234,-7.5999,1.9272,7.852
14.566000,0.4945,-7.3004,2.0600,7.602
14.566000,0.6616,-6.8408,2.0645,7.176
14.566000,0.9461,-6.2478,1.9080,6.601
14.567000,1.2953,-5.6201,1.5888,5.982
14.570000,1.6255,-4.9759,1.1891,5.368
14.574000,1.9486,-4.3189,0.7122,4.791
14.579000,2.2453,-3.6865,0.1782,4.320
14.584000,2.6352,-3.1362,-0.2947,4.107
14.589000,2.8543,-2.5464,-0.7441,3.897
14.596000,2.9532,-1.9359,-1.1676,3.719
14.600000,3.0441,-1.3214,-1.5315,3.655
14.606000,3.1603,-0.7776,-1.8551,3.746
14.610000,3.3184,-0.2659,-2.1025,3.937
14.614000,3.4552,0.2162,-2.2494,4.129
14.619000,3.4869,0.6187,-2.2892,4.217
14.664000,3.4349,0.9324,-2.2271,4.198
14.665000,3.3255,1.1721,-2.0611,4.084
14.666000,3.2116,1.3433,-1.7775,3.909
14.666000,3.1125,1.4731,-1.4147,3.723
14.667000,2.9821,1.5585,-1.0162,3.515
14.667000,2.8259,1.6222,-0.6184,3.317
14.667000,2.6487,1.7197,-0.2526,3.168
14.668000,2.4770,1.8872,0.0785,3.115
14.670000,2.3445,2.1180,0.3606,3.180
14.671000,2.2577,2.3940,0.5916,3.343
14.676000,2.2382,2.7205,0.7332,3.598
14.680000,2.2952,3.0659,0.7616,3.905
14.685000,2.4640,3.4581,0.6984,4.303
14.689000,2.7295,3.8940,0.5961,4.793
14.695000,2.9834,4.3299,0.4646,5.279
14.699000,3.2867,4.7161,0.3735,5.760
14.704000,3.4595,5.1407,0.2847,6.203
14.709000,3.4824,5.5652,0.1835,6.568
14.714000,3.3435,5.9130,0.0747,6.793
14.719000,3.0766,6.1154,-0.0463,6.846
14.725000,2.7273,6.1678,-0.1765,6.746
14.729000,2.3629,6.0783,-0.2580,6.527
14.734000,1.9961,5.8600,-0.2597,6.196
14.776000,1.6464,5.5806,-0.1984,5.822
14.777000,1.3453,5.2865,-0.1294,5.457
14.777000,1.0886,4.9785,-0.0624,5.097
14.778000,0.8714,4.6687,0.0366,4.750
14.778000,0.7182,4.3602,0.1817,4.423
14.778000,0.6337,4.0843,0.3752,4.150
14.779000,0.5297,3.8270,0.5354,3.900
14.779000,0.4496,3.5577,0.7194,3.657
14.779000,0.4172,3.2789,0.9177,3.430
14.785000,0.4042,3.0220,1.1301,3.252
14.791000,0.3746,2.7941,1.2965,3.103
14.795000,0.3310,2.6148,1.3787,2.974
14.800000,0.2738,2.5128,1.3675,2.874
14.804000,0.1862,2.4692,1.2847,2.790
14.810000,0.0827,2.5221,1.1932,2.791
14.816000,-0.0080,2.6331,1.1289,2.865
14.819000,-0.0215,2.8212,1.1228,3.036
14.826000,0.0369,3.0713,1.1557,3.282
14.829000,0.1405,3.3279,1.2008,3.541
14.834000,0.2648,3.5304,1.2342,3.749
14.881000,0.3880,3.6406,1.2485,3.868
14.883000,0.5243,3.6773,1.2220,3.910
14.883000,0.6353,3.6738,1.1760,3.909
14.883000,0.7065,3.6230,1.1153,3.856
14.884000,0.7117,3.5152,1.0304,3.732
14.884000,0.6675,3.3530,0.9358,3.545
14.885000,0.6031,3.1390,0.8075,3.297
14.885000,0.5209,2.9045,0.6531,3.022
14.886000,0.4402,2.6738,0.4895,2.754
14.887000,0.3876,2.4041,0.3358,2.458
14.891000,0.4084,2.0905,0.2570,2.145
14.895000,0.4209,1.7831,0.1975,1.843
14.900000,0.3247,1.5007,0.1142,1.540
14.905000,0.0483,1.2701,0.0408,1.272
14.911000,-0.3524,1.0630,-0.0111,1.120
14.917000,-0.8169,0.8709,-0.0316,1.194
14.921000,-1.2657,0.6990,-0.0350,1.446
14.926000,-1.6413,0.5575,-0.0162,1.733
14.931000,-1.9002,0.4513,0.0369,1.953
14.937000,-2.0858,0.3854,0.1288,2.125
14.941000,-2.1861,0.3046,0.2525,2.222
14.950000,-2.2371,0.2402,0.4074,2.287
14.951000,-2.2150,0.1943,0.5885,2.300
14.997000,-2.1222,0.1740,0.7907,2.271
14.998000,-1.9782,0.1694,0.9822,2.215
14.999000,-1.8501,0.1827,1.1317,2.176
14.999000,-1.7501,0.1895,1.2031,2.132
15.000000,-1.6805,0.2066,1.1916,2.070
15.000000,-1.6102,0.2148,1.1310,1.979
15.000000,-1.5202,0.2691,1.0600,1.873
15.000000,-1.4009,0.3406,1.0003,1.755
15.001000,-1.2912,0.4025,0.9185,1.635
15.002000,-1.1790,0.4235,0.7979,1.485
15.008000,-1.0525,0.3345,0.6365,1.275
15.011000,-0.8925,0.1525,0.4373,1.006
15.016000,-0.6893,-0.1151,0.2201,0.733
15.021000,-0.4119,-0.4319,0.0523,0.599
15.026000,-0.1034,-0.7717,-0.0275,0.779
15.031000,0.1526,-1.0841,-0.0105,1.095
15.036000,0.2941,-1.3021,0.0739,1.337
15.041000,0.3168,-1.4184,0.1559,1.462
15.058000,0.2810,-1.4614,0.2093,1.503
15.061000,0.2823,-1.4240,0.2368,1.471
15.062000,0.3971,-1.3494,0.2410,1.427
15.064000,0.6393,-1.3218,0.2436,1.488
15.065000,0.9582,-1.3223,0.2377,1.650
15.127000,1.3176,-1.3201,0.2354,1.880
15.131000,1.6814,-1.3011,0.2461,2.140
15.132000,2.0083,-1.2780,0.2413,2.393
15.132000,2.3197,-1.2651,0.1997,2.650
15.133000,2.5940,-1.2889,0.1480,2.900
15.135000,2.8670,-1.3255,0.1150,3.161
15.136000,3.1506,-1.3940,0.0914,3.446
15.137000,3.4637,-1.4538,0.0869,3.757
15.138000,3.7966,-1.4979,0.0848,4.082
15.138000,3.9819,-1.4593,-0.0225,4.241
15.140000,4.2400,-1.5172,-0.1818,4.507
15.141000,4.7042,-1.6861,-0.2797,5.005
15.141000,5.1847,-1.9258,-0.3471,5.542
15.142000,5.5712,-2.1698,-0.3294,5.988
15.143000,5.7827,-2.4154,-0.2006,6.270
15.146000,5.8103,-2.6242,0.0741,6.376
15.150000,5.7026,-2.7481,0.4598,6.347
15.156000,5.4315,-2.8106,0.8910,6.180
15.160000,4.9762,-2.7805,1.3188,5.851
15.166000,4.3616,-2.6260,1.7012,5.368
15.171000,3.6913,-2.3182,2.0334,4.810
15.181000,3.0755,-1.8928,2.4055,4.339
15.182000,2.5813,-1.4361,2.8117,4.078
15.185000,2.1797,-0.9702,3.1742,3.971
15.214000,1.8152,-0.5479,3.4013,3.894
15.215000,1.4664,-0.1767,3.4568,3.759
15.216000,1.1283,0.1316,3.3531,3.540
15.216000,0.8128,0.3986,3.1529,3.280
15.216000,0.5009,0.6053,2.8928,2.998
15.217000,0.2190,0.7305,2.5470,2.659
15.224000,-0.0114,0.8198,2.1692,2.319
15.226000,-0.2046,0.8544,1.7483,1.957
15.231000,-0.3583,0.8775,1.3474,1.647
15.236000,-0.4845,0.8987,0.9909,1.423
15.242000,-0.5832,0.9373,0.7079,1.311
15.247000,-0.6809,0.9718,0.4418,1.266
15.250000,-0.7177,1.0237,0.1545,1.260
15.256000,-0.6795,1.1051,-0.1629,1.307
15.260000,-0.5571,1.2228,-0.5049,1.436
15.265000,-0.3847,1.3719,-0.8442,1.656
15.271000,-0.1843,1.5302,-1.1756,1.938
15.276000,0.0124,1.6951,-1.4573,2.235
15.281000,0.2288,1.8471,-1.6894,2.514
15.285000,0.4312,1.9835,-1.8644,2.756
15.325000,0.5929,2.0874,-2.0132,2.960
15.326000,0.6876,2.1493,-2.1478,3.115
15.327000,0.7466,2.1695,-2.2607,3.221
15.327000,0.8251,2.1482,-2.3638,3.299
15.327000,0.8946,2.0834,-2.4260,3.321
15.328000,0.9433,2.0014,-2.4044,3.268
15.328000,0.9715,1.9241,-2.2898,3.145
15.329000,0.9723,1.8707,-2.0972,2.974
15.331000,0.9868,1.8388,-1.8537,2.791
15.337000,1.0173,1.8046,-1.5552,2.590
15.341000,1.0618,1.7632,-1.2503,2.408
15.345000,1.1130,1.7146,-0.9683,2.262
15.350000,1.1759,1.6611,-0.7285,2.162
15.356000,1.2433,1.5954,-0.5078,2.085
15.361000,1.2985,1.5344,-0.3183,2.035
15.365000,1.3440,1.4850,-0.1457,2.008
15.371000,1.3581,1.4449,0.0239,1.983
15.376000,1.3457,1.4212,0.1829,1.966
15.381000,1.3283,1.4207,0.3214,1.971
15.386000,1.2867,1.4505,0.4533,1.991
15.392000,1.2349,1.4910,0.5928,2.025
15.396000,1.1632,1.5133,0.7159,2.039
15.401000,1.1147,1.5032,0.7962,2.034
15.411000,1.0676,1.4604,0.8291,1.990
15.412000,1.0149,1.3780,0.8240,1.899
15.416000,0.9232,1.2560,0.7809,1.743
15.480000,0.7711,1.1281,0.7335,1.551
15.481000,0.5589,1.0089,0.6770,1.337
15.482000,0.3180,0.8868,0.5803,1.107
15.482000,0.1036,0.7811,0.4583,0.911
15.483000,-0.0793,0.6753,0.2990,0.743
15.483000,-0.2737,0.5672,0.1172,0.641
15.483000,-0.4725,0.4544,-0.0649,0.659
15.484000,-0.6587,0.3207,-0.2206,0.765
15.484000,-0.7940,0.1924,-0.3351,0.883
15.485000,-0.9117,0.0772,-0.3889,0.994
15.485000,-1.0023,-0.0179,-0.4131,1.084
15.486000,-1.0825,-0.0928,-0.4075,1.160
15.487000,-1.1905,-0.1545,-0.4080,1.268
15.487000,-1.2856,-0.1934,-0.3859,1.356
15.491000,-1.3580,-0.2190,-0.3410,1.417
15.497000,-1.3959,-0.1906,-0.2637,1.433
15.502000,-1.4280,-0.1393,-0.1566,1.443
15.506000,-1.4400,-0.0749,-0.0125,1.442
15.512000,-1.4320,-0.0094,0.1372,1.439
15.516000,-1.3968,0.0572,0.3020,1.430
15.539000,-1.3130,0.1463,0.4719,1.403
15.542000,-1.2118,0.2649,0.6468,1.399
15.542000,-1.0696,0.4006,0.8050,1.397
15.543000,-0.9296,0.5438,0.9488,1.435
15.543000,-0.7991,0.6558,1.0589,1.480
15.547000,-0.7142,0.7343,1.1258,1.522
15.550000,-0.6651,0.7771,1.1350,1.528
15.556000,-0.6275,0.8178,1.1058,1.512
15.561000,-0.5704,0.9020,1.0839,1.521
15.567000,-0.5392,1.0033,1.0739,1.565
15.575000,-0.5124,1.1265,1.0663,1.634
15.576000,-0.5210,1.2620,1.0657,1.732
15.581000,-0.5721,1.3979,1.0720,1.852
15.586000,-0.6368,1.5368,1.0903,1.989
15.591000,-0.7030,1.6883,1.1228,2.146
15.597000,-0.7347,1.8192,1.1502,2.274
15.601000,-0.7412,1.9678,1.1626,2.403
15.612000,-0.6914,2.1129,1.1141,2.487
15.613000,-0.5518,2.2973,0.9927,2.563
15.616000,-0.2750,2.5281,0.8222,2.673
15.665000,0.1865,2.7904,0.6100,2.862
15.667000,0.7791,3.0643,0.3801,3.185
15.667000,1.4298,3.2483,0.0945,3.550
15.668000,2.2099,3.2247,-0.2477,3.917
15.668000,3.1565,2.9287,-0.5540,4.341
15.668000,4.1639,2.3579,-0.7490,4.843
15.668000,5.0000,1.5940,-0.8206,5.312
15.669000,5.5487,0.8101,-0.7449,5.657
15.669000,5.7849,0.1842,-0.5519,5.814
15.670000,5.7364,-0.1967,-0.2478,5.745
15.676000,5.5002,-0.3392,0.1278,5.512
15.679000,5.1944,-0.3456,0.5529,5.235
15.683000,4.9680,-0.2679,0.9943,5.074
15.687000,4.8808,-0.0417,1.4927,5.104
15.691000,4.9157,0.3973,2.0336,5.335
15.697000,5.0529,1.0601,2.5417,5.755
15.702000,5.2174,1.8928,2.9559,6.288
15.707000,5.4297,2.8343,3.2246,6.922
15.713000,5.6674,3.7951,3.2964,7.576
15.717000,5.9892,4.6995,3.1587,8.242
15.723000,6.3989,5.4798,2.7611,8.866
15.726000,6.8880,6.1086,2.0661,9.435
15.731000,7.3670,6.5326,1.1157,9.909
15.736000,7.7730,6.6936,-0.0025,10.258
15.782000,8.0625,6.5820,-1.1574,10.472
15.783000,8.1472,6.1813,-2.2066,10.462
15.783000,7.9630,5.5065,-3.0345,10.146
15.784000,7.5378,4.6597,-3.5880,9.561
15.784000,7.0164,3.7593,-3.8385,8.837
15.784000,6.4485,2.8552,-3.8579,8.039
15.785000,5.8734,2.0369,-3.7566,7.263
15.785000,5.3302,1.3031,-3.5731,6.548
15.786000,4.8890,0.6785,-3.3672,5.975
15.792000,4.5885,0.1971,-3.1438,5.566
15.793000,4.5457,-0.0837,-2.9531,5.421
15.797000,4.7146,-0.1262,-2.8358,5.503
15.801000,4.9243,0.0276,-2.8780,5.704
15.807000,5.0639,0.2949,-3.1034,5.946
15.812000,5.1256,0.5961,-3.4440,6.204
15.817000,5.0660,0.8274,-3.7653,6.366
15.823000,4.8640,1.0180,-3.9904,6.373
15.827000,4.6011,1.2158,-4.0362,6.240
15.831000,4.3324,1.4253,-4.0092,6.072
15.888000,4.0534,1.6513,-4.0754,5.980
15.890000,3.7065,1.8362,-4.3015,5.968
15.891000,3.2820,1.9509,-4.6295,6.001
15.891000,2.8283,1.9914,-4.9440,6.034
15.892000,2.4148,1.9911,-5.1227,6.003
15.893000,1.9914,1.9551,-5.0991,5.813
15.893000,1.5057,1.8858,-4.9243,5.484
15.894000,0.9722,1.7906,-4.7161,5.137
15.894000,0.4974,1.7165,-4.5367,4.876
15.895000,0.1096,1.6969,-4.3522,4.673
15.895000,-0.1290,1.7364,-4.1645,4.514
15.896000,-0.2427,1.7871,-3.9833,4.373
15.897000,-0.2628,1.8246,-3.8559,4.274
15.903000,-0.2019,1.8722,-3.8080,4.248
