time,ax,ay,az,aT
0.006000,-0.1090,0.1971,-0.1454,0.268
0.007000,-0.0567,0.1842,-0.1296,0.232
0.007000,-0.0039,0.1901,-0.1351,0.233
0.008000,0.0424,0.1913,-0.1333,0.237
0.008000,0.0651,0.1687,-0.1220,0.218
0.025000,0.0639,0.1390,-0.1108,0.189
0.026000,0.0557,0.1287,-0.1140,0.181
0.026000,0.0593,0.1163,-0.1197,0.177
0.027000,0.0821,0.1114,-0.1183,0.182
0.035000,0.1002,0.1162,-0.0884,0.177
0.038000,0.1350,0.1043,-0.0393,0.175
0.043000,0.1483,0.0899,0.0193,0.175
0.048000,0.1451,0.0633,0.0660,0.172
0.052000,0.1375,0.0509,0.0912,0.173
0.058000,0.1231,0.0406,0.0617,0.144
0.065000,0.0749,0.0465,-0.0012,0.088
0.068000,0.0202,0.0476,-0.0826,0.097
0.073000,-0.0436,0.0464,-0.1633,0.175
0.077000,-0.1093,0.0549,-0.2173,0.249
0.083000,-0.1700,0.0682,-0.2710,0.327
0.088000,-0.2136,0.0889,-0.3077,0.385
0.092000,-0.2430,0.1144,-0.3277,0.424
0.106000,-0.2509,0.1397,-0.3333,0.440
0.106000,-0.2402,0.1578,-0.3175,0.428
0.108000,-0.2177,0.1590,-0.2995,0.403
0.113000,-0.2000,0.1603,-0.2912,0.388
0.117000,-0.1985,0.1735,-0.2853,0.388
0.123000,-0.2014,0.1843,-0.2936,0.401
0.166000,-0.2110,0.1953,-0.3257,0.434
0.167000,-0.2415,0.2136,-0.3315,0.462
0.168000,-0.2713,0.2296,-0.3208,0.479
0.168000,-0.3174,0.2316,-0.2912,0.489
0.168000,-0.3582,0.2363,-0.2574,0.500
0.169000,-0.3965,0.2366,-0.2429,0.522
0.169000,-0.4113,0.2396,-0.2526,0.539
0.169000,-0.3960,0.2405,-0.2885,0.546
0.170000,-0.3513,0.2373,-0.3055,0.523
0.178000,-0.3059,0.2226,-0.3204,0.496
0.179000,-0.2575,0.2016,-0.3332,0.467
0.191000,-0.2131,0.2004,-0.3557,0.461
0.192000,-0.1773,0.2070,-0.3572,0.449
0.192000,-0.1522,0.2139,-0.3208,0.415
0.204000,-0.1159,0.2092,-0.2898,0.376
0.205000,-0.1231,0.2024,-0.2401,0.337
0.208000,-0.1634,0.2170,-0.2027,0.339
0.221000,-0.1722,0.2670,-0.0895,0.330
0.221000,-0.2087,0.3162,-0.0102,0.379
0.222000,-0.2604,0.3264,0.0450,0.420
0.265000,-0.2985,0.3145,0.0124,0.434
0.265000,-0.3026,0.2881,-0.0554,0.422
0.266000,-0.3190,0.2688,-0.1225,0.435
0.266000,-0.2859,0.2735,-0.2770,0.483
0.266000,-0.2353,0.2812,-0.3974,0.541
0.266000,-0.1986,0.2778,-0.4651,0.577
0.267000,-0.2119,0.2517,-0.4878,0.588
0.267000,-0.2533,0.2340,-0.4800,0.591
0.268000,-0.2962,0.2508,-0.4634,0.604
0.273000,-0.2931,0.2752,-0.4189,0.581
0.278000,-0.3126,0.2880,-0.3751,0.567
0.283000,-0.2853,0.3057,-0.3602,0.552
0.288000,-0.0857,0.3376,-0.3740,0.511
0.292000,0.0898,0.3527,-0.4020,0.542
0.304000,-0.0125,0.2897,-0.5035,0.581
0.305000,-0.1265,0.2353,-0.5809,0.639
0.308000,-0.2469,0.2247,-0.5961,0.683
0.313000,-0.4783,0.2222,-0.6851,0.865
0.317000,-0.5973,0.2611,-0.7714,1.010
0.323000,-0.6240,0.3199,-0.7649,1.038
0.339000,-0.5872,0.3530,-0.6187,0.923
0.339000,-0.5273,0.3436,-0.4027,0.747
0.343000,-0.4490,0.3149,-0.1383,0.566
0.343000,-0.3567,0.2736,0.1077,0.462
0.352000,-0.2682,0.2114,0.3311,0.476
0.354000,-0.5128,0.1118,0.4307,0.679
0.362000,-0.5428,0.1182,0.4043,0.687
0.395000,-0.3685,0.1732,0.2376,0.471
0.396000,-0.2377,0.1912,0.0023,0.305
0.397000,-0.1278,0.1514,-0.2709,0.336
0.397000,0.1698,0.1313,-0.6109,0.647
0.397000,0.6005,0.2362,-0.7190,0.966
0.397000,0.7876,0.3365,-0.5499,1.018
0.398000,0.6506,0.2424,-0.2874,0.751
0.404000,0.2872,0.0061,-0.0747,0.297
0.405000,-0.0686,-0.2383,-0.0935,0.265
0.408000,-0.2467,-0.3187,-0.3076,0.507
0.420000,-0.1612,-0.1582,-0.6476,0.686
0.421000,-0.1587,-0.0173,-1.0420,1.054
0.424000,-0.0888,0.1432,-1.5004,1.510
0.429000,0.0304,0.2618,-1.9465,1.964
0.438000,0.0749,0.2988,-2.3685,2.388
0.439000,0.0624,0.3004,-2.7379,2.755
0.443000,-0.0592,0.2173,-3.1675,3.175
0.479000,-0.2345,0.1078,-3.4158,3.426
0.480000,-0.4829,-0.1692,-3.7580,3.793
0.481000,-0.4229,-0.0831,-3.5860,3.612
0.481000,-0.3532,0.0617,-3.3216,3.341
0.481000,-0.3346,0.2107,-3.0417,3.067
0.482000,-0.3920,0.2732,-2.7754,2.816
0.482000,-0.4409,0.3105,-2.4913,2.549
0.486000,-0.4585,0.3149,-2.1915,2.261
0.488000,-0.4198,0.2904,-1.8806,1.949
0.493000,-0.3491,0.2054,-1.5632,1.615
0.505000,-0.2072,0.1073,-1.3081,1.329
0.505000,0.0061,0.0127,-1.0770,1.077
0.509000,0.2799,-0.0459,-0.9266,0.969
0.523000,0.6742,0.0152,-0.9641,1.177
0.523000,1.3717,0.2767,-1.3823,1.967
0.523000,1.6990,0.3944,-1.6206,2.381
0.529000,1.8399,0.4262,-1.8128,2.618
0.539000,1.9549,0.4388,-2.2551,3.017
0.540000,1.9296,0.4047,-2.7100,3.351
0.544000,1.8284,0.3599,-3.2415,3.739
0.556000,1.7052,0.3102,-3.7751,4.154
0.557000,1.4904,0.2348,-4.3086,4.565
0.560000,1.2188,0.1349,-4.9233,5.074
0.602000,0.9028,-0.0253,-5.6527,5.724
0.604000,0.6678,-0.1388,-6.3072,6.344
0.604000,0.3748,-0.2069,-6.6791,6.693
0.604000,-0.0079,-0.3124,-6.5498,6.557
0.605000,-0.4625,-0.4451,-5.6635,5.700
0.605000,-0.9389,-0.6245,-4.4699,4.610
0.605000,-1.3811,-0.8084,-3.2571,3.629
0.606000,-1.6237,-0.9819,-2.1992,2.905
0.606000,-1.6338,-1.1082,-0.9888,2.208
0.609000,-1.4609,-1.1555,0.1701,1.870
0.613000,-1.1815,-1.0819,1.2629,2.040
0.619000,-0.8005,-0.8713,1.9513,2.282
0.623000,-0.4261,-0.6465,2.0526,2.194
0.629000,-0.0394,-0.4518,1.8996,1.953
0.634000,0.2894,-0.2899,1.7787,1.825
0.640000,0.4651,-0.1801,1.8091,1.877
0.645000,0.4905,-0.1656,1.8586,1.929
0.656000,0.5034,-0.1831,1.8883,1.963
0.657000,0.4718,-0.2042,2.0514,2.115
0.658000,0.4164,-0.2085,2.2560,2.304
0.664000,0.2854,-0.2299,2.2883,2.317
0.670000,0.1264,-0.2611,1.6631,1.688
0.674000,0.0041,-0.2889,0.7920,0.843
0.706000,-0.0344,-0.2343,0.8324,0.865
0.708000,-0.1045,-0.0237,0.3750,0.390
0.708000,-0.3912,0.1136,-0.3194,0.518
0.709000,-0.8610,0.1961,-1.0313,1.358
0.709000,-1.4632,0.2287,-1.8523,2.372
0.710000,-2.1162,0.1380,-2.2110,3.064
0.710000,-2.8535,0.0299,-2.4133,3.737
0.714000,-3.6053,-0.0559,-2.7900,4.559
0.719000,-4.2970,-0.1810,-2.8905,5.182
0.725000,-4.8891,-0.3646,-1.1125,5.027
0.731000,-5.4511,-0.6032,1.0152,5.578
0.734000,-5.5351,-0.9404,0.5084,5.637
0.739000,-4.8648,-1.2369,-0.3490,5.032
0.744000,-3.6097,-1.2640,-2.0747,4.351
0.750000,-1.6644,-0.8426,-3.7769,4.212
0.755000,0.5581,-0.2056,-4.4028,4.443
0.759000,2.1719,0.0834,-3.5065,4.125
0.774000,2.5609,-0.1778,-1.7627,3.114
0.776000,2.1651,-0.6408,-0.5425,2.322
0.776000,1.5878,-0.8854,0.0522,1.819
0.781000,1.0643,-0.8451,0.3152,1.395
0.786000,0.7289,-0.6773,0.2897,1.036
0.789000,0.4434,-0.5958,-0.0599,0.745
0.794000,0.5232,-0.6687,-0.5640,1.019
0.818000,-0.4535,-0.8228,-0.9918,1.366
0.820000,-1.0825,-0.9420,-1.3332,1.959
0.820000,-1.6943,-0.9342,-1.6381,2.535
0.821000,-2.2121,-0.8894,-1.9450,3.077
0.821000,-2.6809,-0.8887,-2.2286,3.598
0.825000,-3.0052,-0.8237,-2.4387,3.957
0.831000,-3.4538,-0.8348,-2.4648,4.324
0.834000,-4.0036,-1.0038,-2.3304,4.740
0.839000,-4.2345,-1.2498,-2.2029,4.934
0.844000,-4.1320,-1.2855,-2.1352,4.825
0.849000,-4.0105,-1.1718,-2.1891,4.717
0.854000,-3.9373,-1.0763,-2.2641,4.668
0.859000,-3.8367,-1.0396,-2.2138,4.550
0.874000,-3.8646,-1.0117,-1.9978,4.467
0.875000,-4.0256,-1.0412,-1.6811,4.485
0.875000,-4.0099,-1.1477,-1.3339,4.379
0.880000,-3.7741,-1.2151,-1.0668,4.106
0.885000,-3.5382,-1.2459,-0.9397,3.867
0.890000,-3.3874,-1.3142,-0.9495,3.755
0.894000,-3.2271,-1.3265,-0.9568,3.618
0.923000,-3.0669,-1.3139,-1.0264,3.491
0.924000,-2.9443,-1.3244,-1.1408,3.424
0.925000,-2.9092,-1.4338,-1.3193,3.501
0.928000,-2.9855,-1.6146,-1.5377,3.726
0.930000,-3.1221,-1.8202,-1.8894,4.078
0.930000,-3.1823,-1.9292,-2.4002,4.428
0.932000,-3.1616,-1.9928,-2.8567,4.704
0.935000,-3.1131,-2.1186,-3.0770,4.863
0.939000,-3.0053,-2.3204,-3.0208,4.852
0.945000,-2.8092,-2.5390,-2.7914,4.704
0.949000,-2.5626,-2.7817,-2.5614,4.568
0.954000,-2.2567,-2.9916,-2.3878,4.443
0.960000,-1.9273,-3.2128,-2.3354,4.415
0.964000,-1.6773,-3.4781,-2.3917,4.542
0.969000,-1.7157,-3.9329,-2.7878,5.117
0.976000,-1.7668,-4.3293,-3.3076,5.728
0.981000,-1.1751,-4.3538,-2.5921,5.201
0.985000,-0.6691,-4.3523,-1.3832,4.616
0.990000,-0.3388,-4.4059,-0.3613,4.434
0.999000,-0.1244,-4.5315,0.2703,4.541
1.000000,0.0328,-4.8125,0.4086,4.830
1.005000,0.4013,-5.1031,0.2509,5.125
1.009000,0.8521,-5.4061,-0.2184,5.477
1.048000,1.2855,-5.7373,-0.8508,5.941
1.049000,1.7016,-6.0281,-1.3907,6.416
1.050000,2.1297,-6.1721,-1.7146,6.751
1.050000,2.4260,-6.2642,-1.9632,6.999
1.051000,2.6519,-6.2995,-1.9995,7.121
1.051000,2.8143,-6.2726,-1.9308,7.141
1.052000,2.9394,-6.1593,-1.7792,7.053
1.052000,3.1178,-5.9216,-1.4728,6.852
1.055000,3.2499,-5.6854,-1.1012,6.641
1.059000,3.3548,-5.5521,-0.7273,6.528
1.064000,3.5974,-5.4368,-0.3229,6.527
1.070000,3.7936,-5.4423,-0.0866,6.635
1.075000,3.9445,-5.5609,0.1510,6.819
1.086000,4.1860,-5.6824,0.6555,7.088
1.091000,4.3280,-5.8203,1.3410,7.376
1.092000,4.4734,-5.8939,2.3417,7.761
1.094000,4.5939,-5.9087,3.5378,8.278
1.122000,4.7627,-5.8601,4.4740,8.777
1.124000,4.8409,-5.7441,4.7421,8.884
1.125000,4.9452,-5.5940,4.6050,8.772
1.126000,5.1759,-5.4330,4.4354,8.717
1.126000,5.5678,-5.2630,4.1384,8.708
1.127000,6.0345,-5.0449,3.9287,8.792
1.134000,6.5126,-4.7217,3.7561,8.878
1.135000,7.0397,-4.2743,3.6333,9.002
1.140000,7.4514,-3.7579,3.5704,9.077
1.146000,7.6173,-3.2627,3.3282,8.930
1.150000,7.5018,-2.7527,2.8794,8.494
1.155000,7.2431,-2.1962,2.3621,7.929
1.160000,6.7912,-1.7158,1.8222,7.238
1.165000,6.0940,-1.3925,1.2411,6.373
1.170000,5.4083,-1.1422,0.5645,5.556
1.175000,4.6647,-1.0807,0.1262,4.790
1.180000,4.2572,-1.0765,0.2299,4.397
1.185000,4.1975,-0.9574,0.5044,4.335
1.190000,4.3303,-0.7569,0.9083,4.489
1.195000,4.5298,-0.4801,1.4947,4.794
1.210000,4.8386,-0.1487,2.1945,5.315
1.212000,5.2111,0.2163,2.7999,5.920
1.213000,5.6555,0.6567,3.2460,6.554
1.215000,6.2455,1.1551,3.6421,7.322
1.220000,6.8774,1.7497,4.0212,8.157
1.225000,7.4222,2.3723,4.2628,8.882
1.249000,7.7281,2.9204,4.2160,9.275
1.251000,7.7498,3.2793,3.8745,9.264
1.253000,7.5437,3.5621,3.0651,8.888
1.253000,7.2173,3.9108,1.7326,8.390
1.255000,6.8786,4.4061,0.2235,8.172
1.255000,6.5513,4.9706,-1.1232,8.300
1.260000,6.2948,5.4582,-2.0898,8.590
1.266000,6.0581,5.8418,-2.7334,8.849
1.270000,5.6723,6.0655,-3.1196,8.871
1.275000,5.1411,6.2410,-3.0169,8.630
1.281000,4.4999,6.3605,-2.4868,8.179
1.285000,3.7005,6.4279,-1.7802,7.628
1.290000,2.6148,6.3140,-1.1755,6.934
1.296000,1.3594,5.9452,-0.7016,6.139
1.301000,0.2627,5.4849,-0.3566,5.503
1.306000,-0.4169,5.0149,-0.0009,5.032
1.310000,-0.5732,4.6788,0.3587,4.727
1.316000,-0.3050,4.5925,0.6346,4.646
1.321000,0.3265,4.7590,0.8815,4.851
1.325000,1.0137,5.1417,1.0529,5.345
1.363000,1.7040,5.6213,1.1514,5.986
1.364000,2.3576,6.1120,1.1572,6.652
1.365000,3.0927,6.5860,1.2607,7.384
1.366000,3.9583,7.0472,1.3105,8.188
1.366000,4.6264,7.3729,1.4860,8.830
1.367000,4.9112,7.5941,1.5724,9.179
1.367000,4.8522,7.6498,1.3026,9.152
1.368000,4.4742,7.5647,0.8935,8.834
1.375000,3.9198,7.3402,1.0886,8.392
1.378000,3.4615,6.9563,3.7686,8.636
1.381000,2.5748,6.4432,6.5465,9.539
1.385000,0.7440,5.8666,6.0945,8.492
1.390000,-1.1467,5.3586,4.3424,6.992
1.395000,-2.2710,5.1123,2.2443,6.027
1.400000,-2.6614,4.9785,0.6418,5.682
1.405000,-2.5685,4.8869,0.0146,5.521
1.410000,-2.0122,4.8499,0.1947,5.254
1.415000,-1.2746,4.8718,0.7432,5.090
1.419000,-0.6081,4.9314,1.1093,5.091
1.424000,-0.1043,4.9991,1.0303,5.105
1.451000,0.2675,5.0415,0.5786,5.082
1.452000,0.5023,5.0417,0.0206,5.067
1.452000,0.9420,4.9234,-0.4344,5.032
1.452000,1.5279,4.5757,-0.4207,4.842
1.452000,1.4463,4.2514,-0.1048,4.492
1.456000,0.9454,3.9684,0.1110,4.081
1.460000,0.4552,3.7191,0.2156,3.753
1.466000,0.2297,3.5162,0.2607,3.533
1.471000,0.2735,3.3409,0.3090,3.366
1.475000,0.4542,3.2331,0.2650,3.276
1.481000,0.7258,3.1993,0.1649,3.285
1.485000,0.9609,3.1673,0.1553,3.313
1.491000,1.2907,3.0408,0.2289,3.311
1.496000,1.5958,2.8966,0.1916,3.313
1.501000,2.0328,3.0490,-0.1236,3.667
1.505000,1.8530,2.5146,0.1555,3.127
1.510000,1.6429,1.9355,0.2472,2.551
1.517000,1.5775,1.3197,0.4600,2.107
1.520000,1.5560,0.9229,0.6234,1.914
1.525000,1.5336,0.6166,0.7243,1.805
1.542000,1.6420,0.4178,0.6418,1.812
1.545000,1.7612,0.2568,0.5404,1.860
1.545000,2.1011,0.0898,0.6426,2.199
1.547000,2.9829,0.4885,0.4128,3.051
1.570000,3.9208,0.4444,0.9111,4.050
1.571000,4.6646,-0.2331,1.7723,4.995
1.571000,5.2142,-1.2511,2.7519,6.027
1.571000,5.6789,-2.1640,3.2657,6.899
1.572000,6.0895,-2.2783,2.6458,7.019
1.576000,6.1831,-1.7537,1.1892,6.536
1.580000,5.6620,-0.9111,-0.8438,5.797
1.585000,4.8882,-0.0741,-2.3992,5.446
1.591000,4.1473,0.6244,-3.3780,5.385
1.596000,3.4258,1.0758,-4.0987,5.449
1.600000,2.6981,1.2050,-4.5733,5.445
1.605000,2.1900,1.0238,-4.7193,5.302
1.611000,2.0063,0.5806,-4.6005,5.052
1.616000,2.2130,-0.0407,-4.1593,4.712
1.620000,2.6175,-0.7837,-3.4221,4.379
1.625000,2.9676,-1.6014,-2.5474,4.226
1.631000,3.3535,-2.4726,-1.6734,4.490
1.638000,3.7876,-3.2671,-1.0304,5.107
1.641000,4.4083,-3.9595,-0.7108,5.968
1.682000,5.6763,-4.7738,-0.6333,7.444
1.683000,6.2394,-5.5443,-0.7148,8.377
1.684000,6.3472,-6.1944,-0.7790,8.903
1.684000,6.3905,-6.5871,-1.0190,9.234
1.685000,6.3874,-6.7662,-1.4365,9.415
1.685000,6.4006,-6.8467,-1.9367,9.571
1.685000,6.3541,-6.8689,-2.4196,9.665
1.686000,6.1863,-6.8925,-2.8334,9.685
1.687000,5.9311,-6.9291,-3.1733,9.657
1.692000,5.7036,-6.8859,-3.4917,9.599
1.697000,5.4471,-6.7618,-3.8651,9.504
1.701000,5.0799,-6.5626,-4.2016,9.302
1.707000,4.6118,-6.3025,-4.4344,8.981
1.712000,3.9974,-5.9718,-4.5602,8.511
1.717000,3.2509,-5.5635,-4.5605,7.894
1.722000,2.4209,-5.0904,-4.4410,7.176
1.727000,1.5336,-4.5932,-4.1637,6.386
1.731000,0.6560,-4.1120,-3.7621,5.612
1.736000,-0.1663,-3.7037,-3.2504,4.931
1.741000,-0.9287,-3.3582,-2.6561,4.381
1.750000,-1.5618,-3.0944,-2.0019,4.003
1.760000,-2.0132,-2.9043,-1.3265,3.775
1.761000,-2.2784,-2.7692,-0.7244,3.658
1.762000,-2.4131,-2.6611,-0.2105,3.598
1.799000,-2.4201,-2.5620,0.1789,3.529
1.800000,-2.3048,-2.4640,0.3883,3.396
1.801000,-2.1511,-2.3867,0.4249,3.241
1.801000,-2.0288,-2.3627,0.3602,3.135
1.802000,-1.9641,-2.4191,0.2617,3.127
1.802000,-2.0144,-2.5346,0.1631,3.242
1.803000,-2.1435,-2.7281,0.0810,3.470
1.803000,-2.3201,-2.9640,0.0272,3.764
1.807000,-2.5221,-3.2719,0.0497,4.131
1.811000,-2.8070,-3.6159,0.1219,4.579
1.818000,-3.1815,-3.9619,0.2030,5.085
1.822000,-3.5999,-4.2707,0.3148,5.594
1.827000,-4.0355,-4.5320,0.4978,6.089
1.832000,-4.5027,-4.7386,0.7129,6.575
1.836000,-4.9866,-4.8928,0.9630,7.052
1.842000,-5.4945,-5.0423,1.2071,7.555
1.851000,-5.9663,-5.1621,1.4194,8.016
1.853000,-6.4094,-5.2679,1.6076,8.451
1.856000,-6.8141,-5.3682,1.7820,8.856
1.860000,-7.1640,-5.4342,1.9691,9.205
1.910000,-7.4735,-5.4498,2.1603,9.498
1.912000,-7.7022,-5.3891,2.3170,9.682
1.913000,-7.8334,-5.2567,2.3989,9.734
1.914000,-7.8438,-5.0866,2.3419,9.638
1.914000,-7.7191,-4.8819,2.1970,9.394
1.916000,-7.5077,-4.6858,1.7886,9.029
1.917000,-7.5265,-4.6041,0.1776,8.825
1.918000,-7.2260,-4.7036,0.1083,8.623
1.918000,-6.9620,-4.8498,0.3463,8.492
1.919000,-6.6673,-4.8223,0.7236,8.260
1.920000,-6.3393,-4.6123,1.0442,7.909
1.921000,-5.9661,-4.2833,1.1929,7.441
1.927000,-5.5884,-3.9667,1.1887,6.955
1.932000,-5.2495,-3.7480,1.1449,6.551
1.937000,-4.9590,-3.6641,1.1362,6.270
1.943000,-4.7455,-3.7201,1.1576,6.140
1.949000,-4.6113,-3.8511,1.1607,6.119
1.951000,-4.5204,-4.0084,1.1335,6.147
1.957000,-4.4510,-4.1509,1.0398,6.174
1.962000,-4.4008,-4.2159,0.9083,6.162
1.968000,-4.3722,-4.2367,0.7725,6.137
1.972000,-4.3603,-4.2326,0.6897,6.116
1.976000,-4.3673,-4.2297,0.6451,6.114
1.984000,-4.4005,-4.2376,0.6333,6.142
1.986000,-4.4667,-4.2560,0.6394,6.203
1.991000,-4.5492,-4.2922,0.6632,6.289
2.029000,-4.6335,-4.3435,0.7068,6.390
2.032000,-4.7172,-4.4241,0.7509,6.511
2.033000,-4.7931,-4.5244,0.7623,6.635
2.034000,-4.8732,-4.6513,0.7554,6.779
2.034000,-4.9504,-4.8334,0.7165,6.956
2.035000,-5.0462,-5.0607,0.6817,7.179
2.036000,-5.1679,-5.3377,0.6179,7.455
2.037000,-5.2869,-5.6471,0.5501,7.755
2.037000,-5.3913,-5.9408,0.4736,8.036
2.041000,-5.4739,-6.1944,0.3626,8.274
2.049000,-5.5349,-6.4172,0.2054,8.477
2.051000,-5.5695,-6.6616,-0.1458,8.684
2.056000,-5.6185,-6.9624,-0.7353,8.977
2.062000,-5.6585,-7.2976,-1.4648,9.350
2.067000,-5.6322,-7.5726,-2.0919,9.667
2.072000,-5.5729,-7.7342,-2.4661,9.847
2.076000,-5.5471,-7.7869,-2.5849,9.904
2.109000,-5.5204,-7.7208,-2.5391,9.825
2.110000,-5.4659,-7.6218,-2.4906,9.704
2.111000,-5.3691,-7.5722,-2.5662,9.631
2.111000,-5.1726,-7.6528,-2.7076,9.626
2.111000,-5.1512,-7.8345,-2.8424,9.798
2.112000,-4.4342,-8.0315,-2.9323,9.631
2.112000,-3.9305,-8.2577,-2.9461,9.608
2.118000,-3.3099,-8.4630,-2.9037,9.540
2.121000,-2.6248,-8.6430,-2.8774,9.480
2.126000,-1.9060,-8.8033,-2.9059,9.464
2.132000,-1.1556,-8.9401,-3.0093,9.503
2.137000,-0.4427,-9.1160,-3.1453,9.654
2.141000,0.1953,-9.2969,-3.3583,9.887
2.147000,0.8258,-9.4531,-3.7193,10.192
2.153000,1.5047,-9.5450,-4.2244,10.546
2.158000,2.2923,-9.5316,-4.8113,10.920
2.161000,3.1652,-9.4344,-5.4512,11.346
2.167000,4.0637,-9.2270,-6.1170,11.793
2.172000,4.9099,-8.8365,-6.7077,12.132
2.177000,5.8108,-8.3583,-7.2262,12.484
2.182000,6.7643,-7.7154,-7.6854,12.820
2.188000,7.8345,-6.9348,-7.9704,13.153
2.191000,9.0731,-6.0395,-8.1868,13.632
2.234000,10.4075,-4.9993,-8.2250,14.176
2.236000,11.7964,-3.7493,-8.0995,14.792
2.237000,12.9252,-2.4275,-8.0177,15.402
2.238000,13.5599,-1.2430,-7.2029,15.404
2.238000,13.7618,-0.1042,-5.8209,14.943
2.239000,13.6043,0.9661,-3.9931,14.211
2.239000,13.1711,1.9698,-1.9153,13.455
2.240000,12.5057,2.7845,0.3097,12.816
2.240000,11.7473,3.4634,2.6320,12.527
2.242000,10.9939,4.1594,4.7440,12.676
2.249000,10.2623,4.9125,6.4773,13.092
2.252000,9.5575,5.6899,7.7893,13.579
2.257000,8.9005,6.4262,8.5486,13.914
2.263000,8.2468,6.9727,8.8870,13.986
2.268000,7.8118,7.4644,9.0729,14.109
2.273000,7.5691,7.8827,8.8547,14.065
2.278000,7.4400,8.1809,8.2715,13.809
2.283000,7.4878,8.3636,7.4850,13.492
2.289000,7.7074,8.5054,6.5465,13.214
2.292000,7.9398,8.6348,5.5169,12.963
2.300000,8.0767,8.7256,4.4953,12.711
2.304000,8.0678,8.7540,3.5547,12.424
2.308000,7.9015,8.7256,2.7242,12.083
2.353000,7.6283,8.6479,2.0163,11.706
2.354000,7.2634,8.5314,1.4238,11.295
2.355000,6.8099,8.4032,0.9399,10.857
2.355000,6.3044,8.2710,0.5502,10.414
2.356000,5.7858,8.1331,0.2598,9.984
2.356000,5.2522,7.9851,0.0686,9.558
2.357000,4.7617,7.8372,-0.0427,9.170
2.357000,4.3196,7.6804,-0.1053,8.812
2.358000,3.9335,7.5317,-0.1435,8.498
2.358000,3.6253,7.3795,-0.1816,8.224
2.364000,3.3926,7.2406,-0.2433,8.000
2.378000,3.2595,7.0912,-0.3266,7.811
2.379000,3.1948,6.9433,-0.4310,7.655
2.380000,3.1670,6.7801,-0.5373,7.503
2.392000,3.1331,6.6016,-0.6381,7.335
2.393000,3.0547,6.3980,-0.7214,7.126
2.393000,2.9509,6.1911,-0.7895,6.904
2.409000,2.8295,5.9739,-0.8306,6.662
2.410000,2.6904,5.7321,-0.8471,6.389
2.411000,2.5649,5.4731,-0.8558,6.105
2.470000,2.4437,5.1754,-0.8641,5.788
2.471000,2.3461,4.8466,-0.8647,5.454
2.471000,2.2700,4.5085,-0.8432,5.118
2.472000,2.2252,4.1972,-0.8114,4.819
2.472000,2.2260,3.9128,-0.7839,4.569
2.472000,2.2558,3.6864,-0.7464,4.386
2.472000,2.3097,3.5106,-0.7084,4.262
2.473000,2.3708,3.3710,-0.6584,4.173
2.473000,2.3482,3.2625,-0.5772,4.061
2.474000,2.5074,3.1612,-0.4869,4.064
2.474000,2.5707,3.0955,-0.3827,4.042
2.474000,2.6072,3.0651,-0.2647,4.033
2.475000,2.6528,3.1033,-0.1311,4.085
2.478000,2.6929,3.1545,0.0058,4.148
2.482000,2.7346,3.2092,0.1408,4.219
2.489000,2.7728,3.2453,0.2736,4.277
2.493000,2.8194,3.2339,0.3924,4.308
2.499000,2.8647,3.1537,0.5043,4.290
2.504000,2.9086,3.0044,0.6068,4.226
2.509000,2.9799,2.7718,0.6905,4.128
2.516000,3.0787,2.4634,0.7623,4.016
2.518000,3.2264,2.0911,0.8323,3.934
2.522000,3.4277,1.6811,0.8884,3.920
2.529000,3.6895,1.2094,0.9617,4.000
2.568000,3.9975,0.6831,1.0499,4.189
2.569000,4.3464,0.0923,1.1430,4.495
2.569000,4.7082,-0.5337,1.2242,4.894
2.569000,5.0898,-1.2120,1.3147,5.395
2.570000,5.4676,-1.9065,1.4262,5.963
2.570000,5.8393,-2.6363,1.5559,6.593
2.570000,6.2532,-3.3748,1.6390,7.292
2.571000,6.6709,-4.0960,1.6563,8.001
2.573000,7.0977,-4.7440,1.6273,8.691
2.579000,7.4402,-5.2931,1.5523,9.262
2.584000,7.6768,-5.7316,1.4291,9.686
2.589000,7.7646,-6.0047,1.2749,9.898
2.596000,7.7250,-6.0919,1.1157,9.901
2.597000,7.5873,-5.9949,0.9476,9.716
2.603000,7.3489,-5.7483,0.7607,9.361
2.608000,7.0622,-5.3911,0.5960,8.905
2.613000,6.7078,-4.9598,0.4656,8.355
2.617000,6.3499,-4.5225,0.3388,7.803
2.626000,5.9568,-4.1428,0.2252,7.259
2.628000,5.5428,-3.8635,0.0688,6.757
2.635000,5.0692,-3.7332,-0.1417,6.297
2.637000,4.5744,-3.7354,-0.4076,5.920
2.643000,4.1013,-3.8696,-0.7516,5.689
2.677000,3.6287,-4.0900,-1.1817,5.594
2.678000,3.1778,-4.3563,-1.6560,5.641
2.678000,2.7041,-4.6637,-2.1394,5.800
2.679000,2.1910,-5.0147,-2.5716,6.047
2.679000,1.5698,-5.3844,-2.9189,6.323
2.680000,0.8582,-5.7547,-3.1579,6.620
2.680000,0.0568,-6.0921,-3.2536,6.907
2.682000,-0.7991,-6.3815,-3.2145,7.190
2.688000,-1.6517,-6.5848,-3.0639,7.448
2.693000,-2.5025,-6.7752,-2.8181,7.753
2.698000,-3.3102,-6.9399,-2.4695,8.076
2.703000,-3.8519,-6.8632,-2.1018,8.146
2.708000,-4.6150,-7.0292,-1.9890,8.641
2.713000,-5.5126,-7.3927,-1.5936,9.358
2.719000,-6.3200,-7.7212,-1.2893,10.061
2.723000,-7.1021,-7.9944,-0.9652,10.737
2.729000,-7.7114,-8.0542,-0.6155,11.168
2.732000,-8.2343,-7.9972,-0.3678,11.484
2.738000,-8.7784,-7.9338,-0.1717,11.834
2.743000,-9.2556,-7.8666,-0.0078,12.147
2.751000,-9.6043,-7.7451,0.1362,12.339
2.754000,-9.8727,-7.5478,0.2561,12.430
2.757000,-10.1020,-7.3256,0.3333,12.483
2.795000,-10.2881,-7.0983,0.3968,12.506
2.796000,-10.4265,-6.8703,0.4622,12.495
2.797000,-10.5297,-6.6497,0.5731,12.467
2.798000,-10.5887,-6.4419,0.6990,12.414
2.798000,-10.6037,-6.2734,0.8237,12.348
2.799000,-10.5751,-6.1374,0.9402,12.263
2.799000,-10.5030,-6.0439,1.0053,12.159
2.800000,-10.3853,-5.9426,1.0029,12.007
2.804000,-10.2367,-5.8698,0.9286,11.837
2.809000,-10.0885,-5.8138,0.7929,11.671
2.813000,-9.9554,-5.7748,0.6010,11.525
2.819000,-9.8805,-5.7167,0.3460,11.420
2.822000,-9.8327,-5.6104,0.0569,11.321
2.829000,-9.7952,-5.4438,-0.1991,11.208
2.835000,-9.7129,-5.2574,-0.4010,11.052
2.838000,-9.5666,-5.0538,-0.5348,10.833
2.843000,-9.3155,-4.8810,-0.6227,10.535
2.878000,-8.9596,-4.7322,-0.6965,10.156
2.879000,-8.5539,-4.6321,-0.7948,9.760
2.879000,-8.1344,-4.5429,-0.9083,9.361
2.879000,-7.7296,-4.4962,-1.0203,9.000
2.880000,-7.3540,-4.5280,-1.1189,8.708
2.880000,-7.0241,-4.6526,-1.1709,8.506
2.880000,-6.7061,-4.8859,-1.2173,8.386
2.882000,-6.3950,-5.1633,-1.2992,8.321
2.888000,-6.1217,-5.4549,-1.4478,8.326
2.893000,-5.8763,-5.7529,-1.6724,8.392
2.898000,-5.6110,-6.0446,-1.9365,8.472
2.903000,-5.3135,-6.3409,-2.2043,8.562
2.908000,-5.0100,-6.6993,-2.4306,8.711
2.912000,-4.7022,-7.1071,-2.5991,8.909
2.918000,-4.3941,-7.5510,-2.7614,9.162
2.922000,-4.0658,-7.9701,-2.9398,9.418
2.928000,-3.6639,-8.2725,-3.1708,9.587
2.933000,-3.1851,-8.3921,-3.4597,9.620
2.938000,-2.6146,-8.2893,-3.7992,9.486
2.943000,-1.8823,-7.9468,-4.1488,9.160
2.949000,-0.9162,-7.3533,-4.4627,8.650
2.953000,0.2862,-6.5489,-4.7360,8.087
2.958000,1.7412,-5.5979,-4.9110,7.648
2.988000,3.3362,-4.5449,-5.0184,7.548
2.988000,4.9927,-3.3952,-5.0619,7.879
2.989000,6.5971,-2.1558,-4.9974,8.552
2.989000,8.0331,-0.9209,-4.8071,9.407
2.989000,9.2487,0.2853,-4.5168,10.297
2.990000,10.1716,1.3707,-4.1167,11.058
2.993000,10.8068,2.3081,-3.6190,11.628
2.999000,11.1923,3.0978,-3.0864,12.016
3.004000,11.3612,3.7248,-2.5575,12.227
3.008000,11.3156,4.2086,-2.0282,12.242
3.013000,11.0671,4.5398,-1.5157,12.058
3.018000,10.6116,4.6959,-1.0348,11.650
3.023000,9.9393,4.6910,-0.6002,11.007
3.029000,9.1133,4.5727,-0.2407,10.199
3.033000,8.1706,4.4121,0.0511,9.286
3.039000,7.1288,4.2540,0.2874,8.307
3.044000,6.0630,4.1407,0.4906,7.358
3.049000,5.0652,4.0812,0.7329,6.546
3.053000,4.1950,4.0852,1.0099,5.942
3.058000,3.4746,4.1513,1.3237,5.573
3.087000,2.9376,4.2774,1.6553,5.447
3.088000,2.5887,4.4538,2.0141,5.531
3.089000,2.4254,4.6568,2.3808,5.765
3.089000,2.4274,4.8705,2.7357,6.091
3.090000,2.5301,5.0710,3.0281,6.425
3.090000,2.7187,5.2746,3.2721,6.776
3.095000,2.9855,5.4950,3.4124,7.124
3.100000,3.2631,5.7365,3.4562,7.450
3.104000,3.4795,5.9226,3.4275,7.677
3.109000,3.5455,5.9926,3.4048,7.751
3.116000,3.4144,5.9284,3.4355,7.655
3.120000,3.1088,5.7618,3.4494,7.400
3.128000,2.7588,5.5799,3.4771,7.130
3.132000,2.4801,5.4167,3.5039,6.912
3.134000,2.3522,5.3135,3.4766,6.771
3.138000,2.3909,5.2262,3.3808,6.668
3.143000,2.5625,5.0999,3.1786,6.533
3.149000,2.8208,4.8982,2.8491,6.330
3.154000,3.1839,4.7022,2.4079,6.168
3.158000,3.7009,4.5209,1.9375,6.155
3.169000,4.3910,4.3887,1.5158,6.391
3.171000,5.1187,4.3168,1.1480,6.794
3.173000,5.7797,4.2850,0.8276,7.242
3.221000,6.2914,4.2159,0.5813,7.596
3.222000,6.6527,4.1160,0.4383,7.835
3.222000,6.8469,3.9064,0.4656,7.897
3.223000,6.8595,3.5536,0.6100,7.749
3.223000,6.7179,3.0126,0.8943,7.417
3.224000,6.5189,2.2960,1.3054,7.034
3.224000,6.2660,1.4334,1.8015,6.675
3.225000,5.9725,0.4613,2.3410,6.431
3.225000,5.7186,-0.5331,2.8921,6.430
3.226000,5.6059,-1.4437,3.4137,6.720
3.232000,5.6681,-2.2110,3.9007,7.227
3.233000,5.8618,-2.8375,4.3050,7.807
3.239000,6.0909,-3.3361,4.6073,8.334
3.244000,6.2616,-3.7244,4.7883,8.718
3.249000,6.3596,-3.9954,4.8988,8.967
3.254000,6.3106,-4.1931,4.9886,9.071
3.259000,6.1170,-4.2893,4.9640,8.970
3.264000,5.7885,-4.3038,4.7083,8.614
3.269000,5.4231,-4.2080,4.2656,8.082
3.274000,5.0489,-4.0460,3.6893,7.448
3.280000,4.6734,-3.8888,2.9812,6.771
3.284000,4.3007,-3.8326,2.1717,6.156
3.289000,3.9041,-3.8818,1.2942,5.656
3.293000,3.5118,-4.0358,0.3751,5.363
3.335000,3.1211,-4.2677,-0.5542,5.316
3.336000,2.7245,-4.5533,-1.4559,5.502
3.337000,2.3184,-4.8544,-2.2778,5.842
3.337000,1.9390,-5.1609,-3.0095,6.281
3.337000,1.6110,-5.4646,-3.6290,6.755
3.338000,1.3447,-5.7718,-4.1385,7.228
3.339000,1.0233,-6.1257,-4.4858,7.661
3.339000,0.6326,-6.5070,-4.7128,8.059
3.340000,0.1519,-6.8535,-4.8187,8.379
3.344000,-0.4437,-7.1454,-4.8029,8.621
3.349000,-1.1600,-7.3560,-4.6560,8.783
3.355000,-1.9882,-7.4894,-4.3787,8.900
3.360000,-2.9347,-7.5745,-3.9789,9.045
3.364000,-3.9611,-7.5994,-3.4995,9.257
3.371000,-4.9999,-7.5259,-3.0346,9.531
3.375000,-6.0121,-7.3696,-2.6084,9.862
3.382000,-6.9138,-7.1131,-2.2251,10.166
3.385000,-7.6292,-6.7854,-1.9022,10.386
3.389000,-8.1773,-6.4092,-1.6023,10.513
3.394000,-8.5593,-6.0569,-1.3797,10.576
3.440000,-8.8120,-5.7331,-1.2164,10.583
3.441000,-8.9171,-5.4475,-1.0771,10.505
3.442000,-8.9138,-5.1693,-0.9505,10.348
3.442000,-8.7794,-4.8849,-0.8252,10.081
3.443000,-8.5817,-4.5946,-0.6822,9.758
3.443000,-8.3407,-4.2899,-0.5443,9.395
3.443000,-8.0884,-3.9838,-0.4148,9.026
3.444000,-7.8397,-3.7247,-0.2735,8.684
3.444000,-7.6240,-3.5376,-0.1195,8.406
3.444000,-7.4559,-3.4009,0.0314,8.195
3.454000,-7.3693,-3.2888,0.1535,8.071
3.455000,-7.4144,-3.1869,0.2333,8.074
3.460000,-7.5435,-3.0904,0.3117,8.158
3.466000,-7.7703,-2.9890,0.3981,8.335
3.469000,-8.0874,-2.8941,0.4917,8.604
3.475000,-8.4342,-2.8098,0.5846,8.909
3.479000,-8.7672,-2.7161,0.6568,9.202
3.485000,-9.0288,-2.6130,0.7196,9.427
3.490000,-9.1878,-2.5000,0.7537,9.552
3.495000,-9.2370,-2.3916,0.7539,9.571
3.500000,-9.1406,-2.2901,0.6984,9.449
3.505000,-8.8916,-2.2126,0.5753,9.181
3.509000,-8.5165,-2.1476,0.3844,8.792
3.552000,-8.0779,-2.1385,0.1497,8.358
3.553000,-7.6047,-2.2073,-0.1023,7.919
3.554000,-7.1064,-2.3922,-0.3809,7.508
3.555000,-6.6071,-2.6598,-0.6717,7.154
3.556000,-6.1163,-3.0288,-0.9746,6.894
3.557000,-5.6408,-3.4438,-1.2968,6.735
3.558000,-5.1252,-3.8657,-1.6095,6.618
3.559000,-4.5622,-4.2750,-1.8842,6.530
3.560000,-3.9466,-4.6423,-2.1329,6.456
3.560000,-3.3024,-4.9970,-2.3748,6.443
3.566000,-2.6318,-5.3221,-2.5498,6.462
3.571000,-1.9178,-5.6436,-2.6821,6.536
3.577000,-1.2461,-5.9208,-2.7887,6.662
3.581000,-0.6520,-6.1312,-2.9028,6.815
3.585000,-0.0948,-6.2634,-3.0118,6.951
3.590000,0.4908,-6.2494,-3.0841,6.986
3.597000,1.1148,-6.0676,-3.1098,6.909
3.600000,1.8182,-5.7134,-3.0862,6.743
3.605000,2.6536,-5.1465,-2.9985,6.521
3.609000,3.5541,-4.4082,-2.8173,6.325
3.616000,4.4868,-3.5134,-2.5228,6.232
3.621000,5.4322,-2.5159,-2.0835,6.339
3.625000,6.3961,-1.4658,-1.4991,6.731
3.681000,7.2792,-0.4059,-0.7941,7.334
3.682000,8.0729,0.6257,-0.0192,8.097
3.683000,8.7450,1.6231,0.7489,8.926
3.683000,9.2738,2.5754,1.4807,9.738
3.683000,9.6370,3.4797,2.1566,10.470
3.684000,9.8121,4.3063,2.7781,11.070
3.684000,9.8105,4.9972,3.3037,11.495
3.685000,9.6653,5.5380,3.6966,11.737
3.685000,9.3986,5.8962,3.9038,11.762
3.685000,9.0104,6.0884,3.9171,11.558
3.686000,8.5160,6.1428,3.7345,11.145
3.686000,7.9428,6.1326,3.3830,10.590
3.691000,7.3202,6.1191,2.9522,9.987
3.694000,6.6968,6.1131,2.5270,9.413
3.701000,6.1158,6.1150,2.2058,8.925
3.705000,5.5683,6.0802,1.9983,8.483
3.711000,5.1002,6.0309,1.8778,8.119
3.717000,4.7094,6.0057,1.8273,7.848
3.721000,4.3958,5.9879,1.8324,7.651
3.725000,4.1549,5.9467,1.9050,7.500
3.775000,4.0101,5.9200,2.0448,7.437
3.776000,3.9444,5.9006,2.2110,7.434
3.777000,3.9099,5.8618,2.3816,7.438
3.778000,3.9157,5.7986,2.5565,7.449
3.778000,3.9187,5.7014,2.7260,7.436
3.778000,3.8782,5.5868,2.8632,7.379
3.779000,3.7754,5.4382,2.9584,7.251
3.779000,3.6156,5.2752,3.0188,7.072
3.780000,3.4422,5.0980,3.0559,6.869
3.780000,3.2606,4.9049,3.0937,6.653
3.780000,3.0544,4.6865,3.1438,6.417
3.786000,2.8412,4.4817,3.2198,6.207
3.791000,2.6595,4.3409,3.3288,6.083
3.796000,2.5191,4.2786,3.4224,6.030
3.800000,2.4346,4.3067,3.4787,6.048
3.806000,2.4391,4.3937,3.4998,6.124
3.810000,2.5033,4.5223,3.4763,6.229
3.816000,2.6151,4.6490,3.4129,6.332
3.820000,2.7307,4.7497,3.3004,6.396
3.825000,2.8237,4.8215,3.1440,6.411
3.868000,2.9128,4.8836,2.9538,6.408
3.869000,2.9930,4.9116,2.7518,6.376
3.870000,3.0590,4.8912,2.5746,6.317
3.870000,3.1156,4.7887,2.4273,6.207
3.870000,3.1624,4.5896,2.2934,6.027
3.870000,3.1996,4.2677,2.1539,5.752
3.871000,3.2583,3.8473,2.0066,5.426
3.871000,3.3385,3.3139,1.8372,5.050
3.871000,3.4574,2.6900,1.6485,4.681
3.876000,3.5937,1.9542,1.4409,4.337
3.881000,3.7810,1.1357,1.2385,4.138
3.885000,4.0385,0.2970,1.0464,4.182
3.891000,4.3255,-0.5450,0.8693,4.446
3.896000,4.6357,-1.3417,0.7052,4.877
3.902000,4.9596,-2.0760,0.5561,5.405
3.905000,5.3478,-2.7478,0.4363,6.028
3.911000,5.7382,-3.3522,0.3885,6.657
3.917000,6.1285,-3.9014,0.3956,7.276
3.921000,6.4801,-4.3911,0.4430,7.840
3.925000,6.7957,-4.7684,0.4828,8.316
3.932000,7.0488,-5.0342,0.5004,8.676
3.936000,7.2414,-5.1938,0.4958,8.925
3.940000,7.3567,-5.2480,0.4761,9.049
3.945000,7.3966,-5.2428,0.4296,9.076
3.996000,7.3441,-5.1818,0.3249,8.994
3.997000,7.2306,-5.0501,0.1630,8.821
3.998000,7.0770,-4.8392,-0.0608,8.574
3.998000,6.8663,-4.5714,-0.3079,8.255
3.998000,6.5406,-4.3193,-0.5654,7.858
3.999000,6.1135,-4.1222,-0.8398,7.421
3.999000,5.5927,-4.0103,-1.1415,6.976
4.000000,4.9849,-3.9867,-1.4840,6.553
4.000000,4.2924,-4.0344,-1.8637,6.179
4.000000,3.5610,-4.1459,-2.2794,5.922
4.001000,2.8218,-4.3135,-2.7445,5.840
4.007000,2.0367,-4.5373,-3.2508,5.942
4.012000,1.2097,-4.7737,-3.7550,6.193
4.017000,0.3508,-5.0203,-4.2237,6.570
4.020000,-0.5150,-5.2637,-4.6070,7.014
4.025000,-1.4348,-5.5269,-4.8652,7.502
4.032000,-2.3785,-5.7867,-4.9780,7.995
4.036000,-3.3022,-6.0427,-4.9787,8.497
4.040000,-4.1560,-6.2607,-4.8751,8.957
4.045000,-4.9491,-6.4262,-4.6600,9.354
4.098000,-5.6689,-6.5575,-4.3075,9.679
4.099000,-6.3100,-6.6492,-3.8224,9.932
4.100000,-6.8607,-6.7041,-3.2593,10.131
4.100000,-7.3158,-6.7348,-2.6747,10.297
4.100000,-7.6209,-6.7470,-2.0617,10.385
4.101000,-7.7645,-6.7172,-1.4112,10.363
4.101000,-7.8262,-6.6791,-0.7951,10.319
4.101000,-7.8709,-6.6097,-0.2155,10.280
4.102000,-7.9302,-6.5479,0.3158,10.289
4.102000,-8.0206,-6.4954,0.8299,10.354
4.103000,-8.1015,-6.4549,1.3341,10.444
4.107000,-8.1300,-6.4046,1.7998,10.505
4.111000,-8.1013,-6.3255,2.1919,10.509
4.117000,-8.0256,-6.2180,2.4636,10.447
4.121000,-7.8864,-6.0781,2.6381,10.300
4.126000,-7.6895,-5.9248,2.7343,10.085
4.131000,-7.4735,-5.7972,2.7605,9.853
4.136000,-7.2844,-5.7100,2.7207,9.647
4.141000,-7.1155,-5.6440,2.6259,9.454
4.151000,-6.9673,-5.5660,2.4701,9.253
4.152000,-6.8644,-5.4660,2.2411,9.057
4.156000,-6.8217,-5.3419,1.9686,8.885
4.160000,-6.8349,-5.1841,1.6706,8.740
4.205000,-6.8662,-4.9878,1.3600,8.595
4.206000,-6.9113,-4.7866,1.0543,8.473
4.206000,-6.9465,-4.6287,0.7512,8.381
4.206000,-6.9771,-4.5184,0.4466,8.324
4.207000,-6.9958,-4.4344,0.1164,8.284
4.207000,-7.0149,-4.3695,-0.2394,8.268
4.207000,-7.0439,-4.3065,-0.5919,8.277
4.207000,-7.0827,-4.2670,-0.9296,8.321
4.208000,-7.1096,-4.2625,-1.2362,8.381
4.212000,-7.1123,-4.2976,-1.5169,8.447
4.217000,-7.0666,-4.3624,-1.7870,8.495
4.222000,-6.9603,-4.4471,-2.0590,8.512
4.226000,-6.8048,-4.5492,-2.3385,8.513
4.231000,-6.6191,-4.6611,-2.6189,8.509
4.236000,-6.4388,-4.7539,-2.9175,8.519
4.241000,-6.2681,-4.8462,-3.2227,8.553
4.249000,-6.1306,-4.9447,-3.5185,8.626
4.254000,-5.9922,-5.0795,-3.7719,8.714
4.256000,-5.8690,-5.2428,-3.9720,8.815
4.260000,-5.7627,-5.4622,-4.0957,8.934
4.305000,-5.6891,-5.7134,-4.1565,9.071
4.305000,-5.6091,-5.9906,-4.1720,9.206
4.306000,-5.4670,-6.2494,-4.1600,9.287
4.306000,-5.2667,-6.4867,-4.1400,9.325
4.307000,-4.9690,-6.6483,-4.1222,9.267
4.307000,-4.4802,-6.6919,-4.0569,9.017
4.307000,-3.7303,-6.5401,-3.9225,8.490
4.308000,-2.7212,-6.1886,-3.7500,7.731
4.308000,-1.4390,-5.6295,-3.5269,6.797
4.312000,0.0417,-4.9008,-3.2161,5.862
4.317000,1.6149,-4.0568,-2.8377,5.207
4.322000,3.2303,-3.1720,-2.3874,5.118
4.326000,4.8198,-2.2534,-1.8421,5.630
4.332000,6.3028,-1.3038,-1.2488,6.556
4.336000,7.5818,-0.3333,-0.6616,7.618
4.341000,8.5956,0.5935,-0.1233,8.617
4.346000,9.2934,1.4426,0.3232,9.410
4.352000,9.6569,2.1894,0.6724,9.925
4.356000,9.7079,2.7655,0.9241,10.136
4.362000,9.5517,3.1832,1.0970,10.128
4.367000,9.2340,3.4574,1.2405,9.938
4.371000,8.8610,3.5946,1.3662,9.659
4.377000,8.4372,3.5969,1.4729,9.289
4.386000,7.9565,3.5139,1.5100,8.828
4.390000,7.4099,3.3922,1.4727,8.281
4.392000,6.7815,3.2522,1.3923,7.649
4.451000,6.1078,3.0975,1.3337,6.977
4.452000,5.4426,2.9633,1.3833,6.350
4.452000,4.8410,2.8950,1.5594,5.852
4.453000,4.3947,2.9316,1.8092,5.584
4.453000,4.1469,3.0924,2.0819,5.576
4.453000,4.0780,3.3888,2.3582,5.803
4.454000,4.1559,3.7911,2.5952,6.195
4.454000,4.2892,4.2511,2.8341,6.671
4.454000,4.4425,4.7024,3.1060,7.176
4.455000,4.5866,5.1353,3.3677,7.665
4.455000,4.7209,5.5610,3.5763,8.124
4.455000,4.8618,5.9672,3.6953,8.538
4.456000,4.9781,6.3327,3.7274,8.876
4.462000,5.0521,6.6709,3.7007,9.150
4.466000,5.0411,6.9846,3.6586,9.359
4.473000,4.9211,7.2189,3.6677,9.475
4.478000,4.7070,7.3789,3.7129,9.507
4.483000,4.4208,7.4888,3.7793,9.482
4.487000,4.1258,7.5565,3.8587,9.435
4.491000,3.8291,7.5650,3.9265,9.344
4.496000,3.5436,7.5246,3.9531,9.209
4.564000,3.2530,7.4498,3.9644,9.044
4.565000,2.9890,7.3508,4.0056,8.889
4.565000,2.7663,7.2182,4.1220,8.760
4.566000,2.6093,7.0450,4.2506,8.632
4.566000,2.5969,6.9081,4.3176,8.550
4.566000,2.7937,6.8428,4.2675,8.535
4.567000,3.1677,6.8225,4.0892,8.562
4.567000,3.6240,6.7221,3.8247,8.541
4.568000,4.0711,6.5055,3.5178,8.442
4.568000,4.4670,6.1796,3.2256,8.279
4.568000,4.7997,5.7566,2.9913,8.070
4.569000,5.0905,5.2579,2.7982,7.835
4.569000,5.3344,4.6547,2.6274,7.552
4.569000,5.5293,3.9713,2.4647,7.240
4.573000,5.7043,3.2747,2.2141,6.940
4.577000,5.9097,2.6255,1.8482,6.726
4.582000,6.1700,2.0051,1.3987,6.637
4.589000,6.4904,1.3498,0.9549,6.698
4.591000,6.8909,0.6370,0.5966,6.946
4.605000,7.3740,-0.1110,0.3960,7.385
4.606000,7.8994,-0.8653,0.3550,7.955
4.610000,8.4145,-1.5513,0.4477,8.568
4.612000,8.8761,-2.1287,0.6710,9.152
4.685000,9.2052,-2.5671,0.9572,9.604
4.686000,9.3967,-2.8653,1.2625,9.905
4.686000,9.4596,-2.9964,1.5568,10.044
4.687000,9.4341,-2.9733,1.7320,10.042
4.687000,9.3532,-2.8530,1.6772,9.921
4.687000,9.2305,-2.7037,1.3852,9.718
4.688000,9.0890,-2.6075,0.8543,9.494
4.688000,8.9303,-2.5842,0.1359,9.298
4.688000,8.7605,-2.6701,-0.6853,9.184
4.689000,8.5290,-2.8618,-1.6642,9.149
4.689000,8.2016,-3.1374,-2.7319,9.196
4.689000,7.7423,-3.4861,-3.7742,9.292
4.690000,7.2162,-3.8636,-4.7870,9.482
4.690000,6.6115,-4.2500,-5.7478,9.737
4.691000,5.9581,-4.6519,-6.5904,10.029
4.693000,5.2759,-5.0612,-7.3145,10.342
4.697000,4.5970,-5.4478,-7.9413,10.671
4.702000,3.9103,-5.8078,-8.4420,10.968
4.709000,3.2122,-6.1516,-8.7616,11.177
4.713000,2.5181,-6.4379,-8.8509,11.231
4.720000,1.8405,-6.6499,-8.7190,11.119
4.722000,1.1999,-6.7682,-8.3824,10.840
4.728000,0.6339,-6.8071,-7.8320,10.396
4.796000,0.1646,-6.7841,-7.1086,9.828
4.797000,-0.2134,-6.6729,-6.3228,9.195
4.797000,-0.5344,-6.4680,-5.5718,8.554
4.798000,-0.8010,-6.1876,-4.8543,7.905
4.799000,-1.0112,-5.8330,-4.2262,7.274
4.799000,-1.1610,-5.4534,-3.7215,6.704
4.800000,-1.2584,-5.1004,-3.3376,6.224
4.800000,-1.3111,-4.7835,-3.1149,5.857
4.800000,-1.3773,-4.5252,-3.0144,5.609
4.801000,-1.4601,-4.3040,-3.0207,5.457
4.801000,-1.5982,-4.1319,-3.0517,5.380
4.801000,-1.7535,-4.0015,-3.0829,5.347
4.802000,-1.9718,-3.9369,-3.0997,5.385
4.802000,-2.2670,-3.9297,-3.0895,5.489
4.802000,-2.6129,-3.9585,-3.0452,5.637
4.809000,-3.0020,-4.0250,-2.9574,5.827
4.813000,-3.4438,-4.0741,-2.8497,6.048
4.820000,-3.9023,-4.0887,-2.7388,6.281
4.823000,-4.3632,-4.1000,-2.6463,6.546
4.832000,-4.8165,-4.0807,-2.5576,6.811
4.833000,-5.2623,-4.0595,-2.5037,7.102
4.838000,-5.6863,-3.9928,-2.4987,7.384
4.843000,-6.0717,-3.8708,-2.5662,7.644
4.903000,-6.3973,-3.6882,-2.6815,7.856
4.904000,-6.6323,-3.5000,-2.8133,8.009
4.904000,-6.8011,-3.2982,-2.9461,8.113
4.905000,-6.8874,-3.1142,-3.0844,8.164
4.905000,-6.8967,-2.9456,-3.2203,8.162
4.905000,-6.8437,-2.8018,-3.3485,8.118
4.906000,-6.7530,-2.6639,-3.4830,8.052
4.906000,-6.6225,-2.5416,-3.6183,7.963
4.907000,-6.4528,-2.3988,-3.7541,7.841
4.907000,-6.2345,-2.2501,-3.8661,7.673
4.907000,-5.9920,-2.1245,-3.9398,7.479
4.908000,-5.7326,-2.0245,-3.9989,7.277
4.908000,-5.4636,-1.9764,-4.0411,7.077
4.913000,-5.1917,-1.9682,-4.0525,6.874
4.918000,-4.9024,-1.9828,-3.9975,6.629
4.923000,-4.6139,-2.0201,-3.8651,6.349
4.928000,-4.3498,-2.0846,-3.6610,6.055
4.933000,-4.1280,-2.2000,-3.3959,5.780
4.938000,-3.9166,-2.3230,-3.0924,5.504
4.942000,-3.6983,-2.4181,-2.7781,5.219
5.002000,-3.4440,-2.5164,-2.4248,4.906
5.003000,-3.1460,-2.6136,-2.0576,4.578
5.003000,-2.7968,-2.7101,-1.7082,4.253
5.003000,-2.4061,-2.8424,-1.4203,3.986
5.004000,-2.0002,-2.9988,-1.2175,3.805
5.004000,-1.5964,-3.1730,-1.1024,3.719
5.004000,-1.2233,-3.3623,-1.0529,3.730
5.005000,-0.8810,-3.5497,-1.0662,3.810
5.005000,-0.5836,-3.7518,-1.1519,3.968
5.006000,-0.3573,-3.9485,-1.2732,4.164
5.006000,-0.1518,-4.1327,-1.4202,4.373
5.006000,0.0473,-4.2750,-1.5900,4.561
5.009000,0.2376,-4.3486,-1.7771,4.704
5.014000,0.4263,-4.3246,-1.9736,4.773
5.018000,0.6275,-4.1931,-2.1356,4.747
5.023000,0.8557,-3.9488,-2.2410,4.620
5.027000,1.1361,-3.6049,-2.3033,4.426
5.033000,1.4398,-3.1925,-2.3217,4.202
5.038000,1.7516,-2.7244,-2.2790,3.960
5.043000,2.0541,-2.2228,-2.1652,3.721
5.049000,2.3324,-1.7006,-1.9777,3.499
5.054000,2.5861,-1.1606,-1.7404,3.326
5.057000,2.7975,-0.6048,-1.4751,3.220
5.123000,2.9785,-0.0742,-1.1726,3.202
5.124000,3.1262,0.4331,-0.8378,3.265
5.124000,3.2355,0.9041,-0.4639,3.391
5.124000,3.3281,1.3103,-0.0706,3.577
5.125000,3.3862,1.6593,0.3174,3.784
5.125000,3.4173,1.9515,0.6709,3.992
5.125000,3.4211,2.1864,0.9752,4.176
5.126000,3.3596,2.3543,1.2298,4.283
5.127000,3.2184,2.4363,1.4391,4.285
5.128000,2.9960,2.4571,1.5817,4.185
5.130000,2.6712,2.4287,1.6904,3.986
5.131000,2.2593,2.3594,1.7963,3.728
5.132000,1.8404,2.3005,1.9182,3.516
5.134000,1.4702,2.2787,2.0775,3.416
5.135000,1.1705,2.3160,2.2452,3.431
5.142000,0.9776,2.3962,2.4381,3.556
5.144000,0.8766,2.5279,2.6582,3.772
5.158000,0.8478,2.7038,2.8913,4.048
5.159000,0.8838,2.9331,3.1086,4.364
5.159000,0.9646,3.1961,3.3005,4.695
5.237000,1.0709,3.4925,3.4575,5.030
5.239000,1.1949,3.8071,3.5816,5.362
5.239000,1.3027,4.1041,3.6682,5.656
5.240000,1.3846,4.4024,3.7173,5.926
5.240000,1.4572,4.6948,3.7482,6.182
5.240000,1.4915,4.9835,3.7630,6.420
5.241000,1.4949,5.2590,3.7569,6.634
5.241000,1.4768,5.5017,3.7244,6.806
5.242000,1.4520,5.7239,3.6679,6.952
5.242000,1.4373,5.9185,3.5703,7.060
5.243000,1.4378,6.0951,3.4195,7.135
5.244000,1.4415,6.2563,3.2056,7.176
5.244000,1.4534,6.3829,2.9384,7.176
5.245000,1.4807,6.4894,2.6345,7.159
5.245000,1.5591,6.5710,2.2725,7.126
5.245000,1.6790,6.6183,1.8505,7.074
5.246000,1.8568,6.5883,1.3928,6.985
5.249000,2.0373,6.4739,0.9237,6.849
5.254000,2.2061,6.2802,0.4893,6.674
5.259000,2.3773,5.9837,0.1115,6.440
5.267000,2.5439,5.5941,-0.1999,6.149
5.271000,2.7252,5.1239,-0.4757,5.823
5.273000,2.9334,4.6024,-0.7131,5.504
5.279000,3.1685,4.0897,-0.8564,5.244
5.343000,3.4593,3.5912,-0.8625,5.060
5.344000,3.7894,3.1186,-0.7630,4.967
5.344000,4.1495,2.6411,-0.5846,4.953
5.345000,4.5281,2.1014,-0.3233,5.002
5.345000,4.9543,1.4661,-0.0129,5.167
5.345000,5.4356,0.7815,0.3395,5.502
5.346000,5.9745,0.0928,0.7502,6.022
5.346000,6.4899,-0.5832,1.1970,6.625
5.346000,6.9394,-1.2298,1.6598,7.240
5.347000,7.3261,-1.7899,2.0944,7.827
5.347000,7.6842,-2.2207,2.4301,8.360
5.347000,8.0122,-2.5292,2.6639,8.814
5.348000,8.3605,-2.7426,2.7879,9.230
5.349000,8.7648,-2.8494,2.7564,9.620
5.355000,9.2560,-2.8934,2.5742,10.033
5.359000,9.8786,-2.9184,2.2441,10.542
5.363000,10.5768,-3.0021,1.7615,11.135
5.370000,11.3347,-3.2143,1.1164,11.834
5.373000,12.0480,-3.5607,0.3337,12.568
5.378000,12.6294,-4.0055,-0.5752,13.262
5.388000,13.0659,-4.5154,-1.5844,13.915
5.389000,13.3184,-5.0210,-2.6971,14.487
5.393000,13.3650,-5.4778,-3.8651,14.952
5.436000,13.1864,-5.8182,-5.0464,15.271
5.439000,12.8450,-6.0077,-6.2132,15.482
5.440000,12.3293,-6.0453,-7.2785,15.541
5.441000,11.6971,-5.9539,-8.2202,15.487
5.442000,10.9655,-5.7501,-8.9859,15.299
5.444000,10.1857,-5.4490,-9.5894,15.013
5.446000,9.3797,-5.0819,-10.0173,14.634
5.448000,8.5812,-4.6893,-10.2773,14.186
5.450000,7.8243,-4.3403,-10.3989,13.718
5.452000,7.1329,-4.0350,-10.4255,13.261
5.453000,6.5165,-3.8073,-10.3456,12.806
5.455000,5.9755,-3.6278,-10.1430,12.319
5.461000,5.5267,-3.4968,-9.8349,11.811
5.466000,5.1463,-3.4054,-9.4343,11.273
5.470000,4.7913,-3.3375,-8.9590,10.694
5.474000,4.4638,-3.2728,-8.4551,10.106
5.480000,4.1453,-3.1969,-7.9473,9.517
5.484000,3.8403,-3.1517,-7.4219,8.931
5.489000,3.5061,-3.1590,-6.9036,8.363
5.495000,3.1408,-3.1952,-6.4148,7.825
5.499000,2.7500,-3.2745,-5.9827,7.354
5.504000,2.3221,-3.4043,-5.6054,6.957
5.508000,1.8560,-3.5475,-5.2909,6.635
5.573000,1.3378,-3.7016,-5.0015,6.364
5.574000,0.7419,-3.8180,-4.7926,6.172
5.575000,0.1430,-3.9196,-4.6664,6.096
5.575000,-0.4537,-3.9769,-4.6013,6.099
5.575000,-1.0293,-4.0131,-4.5870,6.181
5.576000,-1.5403,-3.9931,-4.6134,6.293
5.576000,-1.9873,-3.9332,-4.6654,6.418
5.577000,-2.3155,-3.8332,-4.7234,6.509
5.577000,-2.5397,-3.6547,-4.7582,6.515
5.577000,-2.6606,-3.4077,-4.7673,6.436
5.578000,-2.7023,-2.8028,-4.6906,6.096
5.578000,-2.7135,-2.8432,-4.6928,6.121
5.578000,-2.6778,-2.5818,-4.6040,5.919
5.579000,-2.5980,-2.3421,-4.4863,5.689
5.584000,-2.5176,-2.1417,-4.3566,5.469
5.590000,-2.4225,-1.9476,-4.2339,5.252
5.594000,-2.2983,-1.7648,-4.1207,5.038
5.599000,-2.1981,-1.6179,-4.0385,4.874
5.604000,-2.1197,-1.5000,-3.9777,4.750
5.610000,-2.0319,-1.3922,-3.9692,4.671
5.674000,-1.9901,-1.2902,-4.0082,4.657
5.674000,-1.9680,-1.2055,-4.0703,4.679
5.675000,-1.9918,-1.1262,-4.1292,4.721
5.675000,-2.0401,-1.0955,-4.1848,4.783
5.675000,-2.1080,-1.1297,-4.2081,4.840
5.676000,-2.2003,-1.2189,-4.2112,4.905
5.676000,-2.3216,-1.3439,-4.2228,5.003
5.677000,-2.4429,-1.4915,-4.2402,5.116
5.677000,-2.5932,-1.6712,-4.2655,5.264
5.677000,-2.7745,-1.8629,-4.2961,5.443
5.678000,-2.9533,-2.0399,-4.3248,5.620
5.678000,-3.1177,-2.1920,-4.3295,5.768
5.678000,-3.2365,-2.3214,-4.2794,5.846
5.685000,-3.3095,-2.4444,-4.1773,5.863
5.686000,-3.3387,-2.5708,-4.0357,5.835
5.690000,-3.3624,-2.7173,-3.8695,5.802
5.695000,-3.3779,-2.8696,-3.6765,5.759
5.700000,-3.4091,-3.0207,-3.4836,5.734
5.705000,-3.4489,-3.1658,-3.2906,5.722
5.710000,-3.5041,-3.2692,-3.1194,5.718
5.764000,-3.5677,-3.3334,-2.9843,5.722
5.765000,-3.6372,-3.3847,-2.8853,5.745
5.765000,-3.7220,-3.4015,-2.8273,5.781
5.766000,-3.8123,-3.4075,-2.8034,5.831
5.766000,-3.8840,-3.3785,-2.8162,5.868
5.767000,-3.9272,-3.3313,-2.8610,5.891
5.767000,-3.9372,-3.2534,-2.9378,5.892
5.768000,-3.9305,-3.1569,-3.0274,5.880
5.768000,-3.8929,-3.0413,-3.1201,5.843
5.769000,-3.8360,-2.9160,-3.2278,5.800
5.769000,-3.7696,-2.7692,-3.3360,5.745
5.770000,-3.6697,-2.5933,-3.4420,5.660
5.774000,-3.5219,-2.3428,-3.5431,5.518
5.780000,-3.3241,-2.0565,-3.6296,5.334
5.784000,-3.0474,-1.7222,-3.6917,5.087
5.790000,-2.7306,-1.3364,-3.7463,4.825
5.795000,-2.3619,-0.9258,-3.7692,4.543
5.799000,-1.9797,-0.5006,-3.7509,4.271
5.804000,-1.5869,-0.0713,-3.7153,4.041
5.809000,-1.2243,0.3399,-3.6480,3.863
5.862000,-0.9039,0.6849,-3.5298,3.708
5.865000,-0.6310,0.9958,-3.4020,3.600
5.867000,-0.3962,1.2342,-3.2737,3.521
5.871000,-0.1494,1.4238,-3.1256,3.438
5.872000,0.0875,1.5525,-2.9600,3.344
5.872000,0.3313,1.6369,-2.7769,3.240
5.875000,0.5786,1.6757,-2.5525,3.108
5.875000,0.8129,1.6643,-2.3180,2.967
5.877000,1.0194,1.5977,-2.0541,2.795
5.879000,1.2124,1.4853,-1.7825,2.618
5.881000,1.4038,1.3246,-1.4913,2.439
5.881000,1.5864,1.1302,-1.1999,2.288
5.882000,1.7839,0.8823,-0.9445,2.203
5.885000,1.9700,0.6241,-0.7253,2.190
5.887000,2.1354,0.3655,-0.5160,2.227
5.892000,2.2777,0.0946,-0.2953,2.299
5.895000,2.3898,-0.2054,-0.0442,2.399
5.900000,2.4792,-0.5627,0.2370,2.553
5.905000,2.5438,-0.9655,0.5283,2.772
5.917000,2.5960,-1.4301,0.7960,3.069
5.918000,2.6433,-1.9295,1.0086,3.425
5.920000,2.7269,-2.4296,1.1686,3.835
5.925000,2.8571,-2.8863,1.2378,4.246
5.985000,3.0460,-3.2848,1.2068,4.639
5.986000,3.2748,-3.6147,1.1648,5.015
5.987000,3.5535,-3.9183,1.1143,5.406
5.987000,3.8874,-4.1901,1.0414,5.810
5.987000,4.2787,-4.4105,0.9684,6.221
5.988000,4.7061,-4.5598,0.9294,6.618
5.988000,5.1235,-4.6100,0.9223,6.954
5.989000,5.5307,-4.5496,0.9572,7.225
5.989000,5.9103,-4.3220,1.0104,7.391
5.989000,6.2328,-3.9260,1.0579,7.442
5.990000,6.4832,-3.3536,1.0947,7.381
5.990000,6.6625,-2.6405,1.0656,7.245
5.991000,6.7529,-1.8551,0.9272,7.064
5.994000,6.7274,-1.0608,0.6677,6.843
6.001000,6.6018,-0.3180,0.3472,6.619
6.005000,6.4211,0.3368,0.0136,6.430
6.011000,6.1802,0.8628,-0.2970,6.247
6.017000,5.8809,1.2500,-0.6256,6.045
6.025000,5.5353,1.4822,-0.9766,5.813
6.027000,5.1676,1.5981,-1.3521,5.576
6.030000,4.7517,1.6057,-1.7350,5.307
6.082000,4.3026,1.5297,-2.1344,5.041
6.083000,3.8495,1.4240,-2.5327,4.823
6.084000,3.3958,1.2945,-2.8913,4.644
6.084000,2.9250,1.1613,-3.1735,4.469
6.084000,2.4260,1.0131,-3.3553,4.263
6.084000,1.9447,0.8769,-3.3625,3.982
6.085000,1.4912,0.7409,-3.2124,3.618
6.085000,1.0879,0.6006,-2.9593,3.210
6.085000,0.7447,0.4537,-2.6229,2.764
6.086000,0.4667,0.3001,-2.2164,2.285
6.086000,0.2350,0.1564,-1.7956,1.818
6.090000,0.0497,0.0416,-1.3662,1.368
6.095000,-0.1058,-0.0444,-0.9475,0.954
6.100000,-0.2670,-0.0753,-0.5529,0.619
6.105000,-0.4386,-0.0749,-0.1965,0.486
6.111000,-0.6346,-0.0335,0.1214,0.647
6.115000,-0.8718,0.0513,0.4099,0.965
6.119000,-1.1330,0.1724,0.6545,1.320
6.124000,-1.3680,0.3372,0.8548,1.648
6.132000,-1.5644,0.5600,1.0271,1.953
6.135000,-1.7106,0.8189,1.1494,2.218
6.139000,-1.8376,1.1307,1.1763,2.457
6.146000,-1.9434,1.4786,1.1056,2.681
6.203000,-2.0328,1.8743,0.9308,2.917
6.205000,-2.0774,2.2915,0.6593,3.162
6.206000,-2.0801,2.6989,0.3257,3.423
6.207000,-2.0411,3.0701,-0.0412,3.687
6.207000,-1.9560,3.4241,-0.4121,3.965
6.208000,-1.8323,3.7392,-0.8059,4.241
6.208000,-1.6752,4.0246,-1.1982,4.521
6.209000,-1.4802,4.2875,-1.5790,4.803
6.210000,-1.2814,4.5276,-1.9192,5.082
6.210000,-1.0694,4.7279,-2.2374,5.339
6.211000,-0.8519,4.9096,-2.5117,5.580
6.211000,-0.6222,5.0605,-2.7273,5.782
6.212000,-0.3854,5.1706,-2.8936,5.938
6.215000,-0.1656,5.2541,-3.0230,6.064
6.221000,0.0201,5.3176,-3.1154,6.163
6.226000,0.1502,5.3539,-3.1732,6.225
6.231000,0.1766,5.3434,-3.1942,6.228
6.236000,0.0948,5.2741,-3.1641,6.151
6.241000,-0.0661,5.1322,-3.0953,5.994
6.245000,-0.3104,4.9299,-2.9710,5.764
6.250000,-0.5993,4.6866,-2.8208,5.503
6.255000,-0.8916,4.4339,-2.6497,5.242
6.261000,-1.1342,4.1627,-2.4705,4.972
6.272000,-1.3246,3.9231,-2.3002,4.737
6.275000,-1.3545,3.7088,-2.1728,4.507
6.277000,-1.5567,3.4811,-2.0955,4.351
6.340000,-1.6343,3.2307,-2.0634,4.167
6.341000,-1.7450,2.9339,-2.0670,3.991
6.342000,-1.9008,2.5980,-2.0774,3.831
6.342000,-2.0984,2.2625,-2.0804,3.722
6.342000,-2.3114,1.9442,-2.1094,3.684
6.343000,-2.5610,1.6507,-2.1453,3.726
6.344000,-2.8494,1.3896,-2.1736,3.844
6.345000,-3.1378,1.1495,-2.2109,4.007
6.345000,-3.4142,0.9380,-2.2524,4.196
6.346000,-3.6541,0.7680,-2.2835,4.377
6.347000,-3.8216,0.6518,-2.3329,4.525
6.347000,-3.9093,0.6112,-2.4173,4.637
6.348000,-3.8863,0.6392,-2.5365,4.685
6.348000,-3.7430,0.7432,-2.7285,4.691
6.351000,-3.4703,0.9228,-2.9501,4.647
6.356000,-3.1069,1.1517,-3.1812,4.593
6.361000,-2.6606,1.4171,-3.3808,4.530
6.367000,-2.1513,1.6729,-3.5481,4.474
6.371000,-1.6251,1.8896,-3.6780,4.443
6.376000,-1.0876,2.0474,-3.7678,4.424
6.384000,-0.5392,2.1407,-3.8430,4.432
6.387000,0.0051,2.1787,-3.8917,4.460
6.390000,0.5925,2.1702,-3.9204,4.520
6.395000,1.1795,2.1144,-3.9173,4.605
6.450000,1.7608,2.0034,-3.8730,4.703
6.453000,2.3386,1.7885,-3.7712,4.784
6.455000,2.8454,1.3927,-3.6359,4.822
6.455000,3.2621,0.7679,-3.4314,4.796
6.456000,3.5890,-0.1096,-3.1747,4.793
6.457000,3.8552,-1.2103,-2.8737,4.958
6.457000,4.1167,-2.4951,-2.5125,5.430
6.458000,4.4050,-3.9009,-2.1157,6.253
6.460000,4.7070,-5.3735,-1.7248,7.349
6.461000,5.0256,-6.8281,-1.3882,8.591
6.464000,5.3260,-8.2227,-1.1372,9.863
6.466000,5.5492,-9.5123,-0.9573,11.054
6.468000,5.7487,-10.5856,-0.7316,12.068
6.469000,5.8947,-11.3860,-0.4178,12.828
6.473000,6.0212,-11.8414,-0.0167,13.284
6.475000,6.1359,-11.8850,0.4702,13.384
6.486000,6.2774,-11.4984,1.0148,13.140
6.490000,6.4862,-10.7166,1.5751,12.625
6.491000,6.7426,-9.6926,2.0599,11.986
6.495000,7.0235,-8.5627,2.4489,11.342
6.556000,7.3132,-7.3772,2.6740,10.726
6.557000,7.6168,-6.1743,2.7925,10.195
6.558000,7.8774,-5.0476,2.7757,9.759
6.558000,8.0453,-4.0855,2.6352,9.400
6.558000,8.1214,-3.3017,2.3609,9.079
6.559000,8.1329,-2.7379,1.9628,8.803
6.559000,8.0236,-2.3881,1.4165,8.490
6.559000,7.7857,-2.2618,0.6646,8.135
6.560000,7.3757,-2.3609,-0.2421,7.748
6.560000,6.7720,-2.6749,-1.1836,7.377
6.560000,6.0026,-3.1456,-2.0700,7.086
6.561000,5.0879,-3.6941,-2.8336,6.897
6.571000,4.0561,-4.2631,-3.4535,6.823
6.572000,2.9714,-4.7616,-3.9258,6.849
6.572000,1.8811,-5.1712,-4.2238,6.937
6.577000,0.8415,-5.4719,-4.3710,7.054
6.584000,-0.1210,-5.6492,-4.3928,7.157
6.587000,-1.0703,-5.7796,-4.2924,7.278
6.591000,-1.9930,-5.8290,-4.1093,7.405
6.661000,-2.8692,-5.7991,-3.8735,7.541
6.662000,-3.6866,-5.6854,-3.5590,7.654
6.662000,-4.4397,-5.5108,-3.1605,7.750
6.664000,-5.1190,-5.3020,-2.7423,7.864
6.668000,-5.6938,-5.0901,-2.3038,7.977
6.669000,-6.1548,-4.8825,-1.8555,8.072
6.671000,-6.4861,-4.6796,-1.4169,8.123
6.672000,-6.6834,-4.4654,-1.0114,8.101
6.672000,-6.7640,-4.2710,-0.6526,8.026
6.673000,-6.7911,-4.0972,-0.3479,7.939
6.673000,-6.7795,-3.9371,-0.1386,7.841
6.674000,-6.7393,-3.7696,-0.0132,7.722
6.674000,-6.6924,-3.5899,0.0566,7.595
6.674000,-6.6488,-3.4078,0.0866,7.472
6.675000,-6.6207,-3.2208,0.1194,7.364
6.676000,-6.6250,-3.0505,0.1678,7.296
6.676000,-6.6740,-2.9064,0.2760,7.285
6.681000,-6.7556,-2.7859,0.4254,7.320
6.686000,-6.8461,-2.6818,0.6210,7.379
6.692000,-6.9766,-2.5987,0.8371,7.492
6.696000,-7.0992,-2.5291,1.0642,7.611
6.701000,-7.2069,-2.4541,1.2977,7.723
6.705000,-7.2806,-2.3546,1.5234,7.802
6.711000,-7.3348,-2.2617,1.6889,7.859
6.765000,-7.3816,-2.1421,1.8014,7.894
6.765000,-7.3899,-2.0007,1.8710,7.881
6.766000,-7.3597,-1.8426,1.8831,7.817
6.766000,-7.3105,-1.6823,1.8474,7.726
6.767000,-7.2638,-1.5418,1.7665,7.633
6.767000,-7.2195,-1.4377,1.6569,7.545
6.768000,-7.1515,-1.3629,1.5212,7.437
6.768000,-7.0764,-1.3058,1.3399,7.320
6.769000,-6.9991,-1.2592,1.0990,7.196
6.769000,-6.9245,-1.2450,0.8223,7.083
6.770000,-6.8166,-1.2607,0.5383,6.953
6.772000,-6.6898,-1.3255,0.2805,6.826
6.776000,-6.5344,-1.4517,0.0290,6.694
6.781000,-6.3792,-1.6199,-0.2022,6.585
6.786000,-6.2525,-1.8681,-0.4280,6.540
6.791000,-6.1517,-2.1650,-0.6751,6.556
6.801000,-6.0313,-2.4666,-0.9411,6.584
6.803000,-5.8931,-2.7770,-1.2312,6.630
6.806000,-5.6942,-3.0578,-1.5193,6.639
6.811000,-5.4150,-3.3274,-1.7577,6.594
6.861000,-5.0221,-3.6023,-1.8970,6.465
6.861000,-4.5057,-3.9137,-1.9040,6.264
6.862000,-3.8732,-4.2879,-1.7771,6.045
6.862000,-3.1053,-4.6556,-1.5768,5.814
6.862000,-2.2550,-5.0061,-1.3517,5.654
6.863000,-1.5065,-5.3710,-1.1093,5.688
6.863000,-1.0077,-5.7739,-0.8840,5.928
6.863000,-0.8125,-6.1850,-0.7553,6.284
6.863000,-0.8547,-6.5418,-0.7407,6.639
6.864000,-1.0086,-6.7494,-0.8165,6.873
6.867000,-1.0931,-6.7572,-1.0116,6.919
6.872000,-0.9446,-6.4875,-1.3518,6.694
6.877000,-0.4838,-5.9448,-1.7736,6.223
6.881000,0.3344,-5.1541,-2.2110,5.618
6.889000,1.4429,-4.1974,-2.6435,5.166
6.891000,2.7341,-3.1792,-2.9746,5.141
6.899000,4.1520,-2.1225,-3.1713,5.639
6.902000,5.6449,-1.0583,-3.2411,6.595
6.906000,7.1699,0.0203,-3.1484,7.831
6.911000,8.6391,1.0871,-2.8894,9.174
6.969000,9.9629,2.1374,-2.4938,10.490
6.970000,11.0438,3.1287,-1.9831,11.649
6.970000,11.8109,4.0085,-1.4247,12.554
6.971000,12.2365,4.7085,-0.8025,13.136
6.971000,12.3273,5.1873,-0.1803,13.375
6.972000,12.0767,5.3978,0.3663,13.233
6.972000,11.5017,5.3351,0.7828,12.703
6.972000,10.6926,5.0927,1.0562,11.890
6.973000,9.7398,4.7633,1.1711,10.905
6.973000,8.6785,4.4234,1.1819,9.812
6.973000,7.5631,4.1322,1.1598,8.696
6.974000,6.4526,3.9134,1.1595,7.635
6.978000,5.4414,3.7845,1.2134,6.738
6.982000,4.5736,3.7636,1.3475,6.074
6.989000,3.9165,3.8534,1.5685,5.714
6.992000,3.4941,4.0371,1.8615,5.654
6.997000,3.2772,4.3002,2.1952,5.835
7.002000,3.2217,4.6031,2.5163,6.156
7.006000,3.3222,4.9214,2.7893,6.560
7.014000,3.5178,5.2422,3.0143,6.996
7.018000,3.7646,5.5409,3.1726,7.412
7.022000,3.9946,5.8072,3.2815,7.775
7.027000,4.2003,6.0194,3.3557,8.071
7.032000,4.3353,6.1862,3.4028,8.285
7.038000,4.4307,6.3294,3.4204,8.449
7.041000,4.4746,6.4321,3.4111,8.546
7.114000,4.4285,6.5184,3.3484,8.562
7.115000,4.3167,6.5764,3.2206,8.500
7.116000,4.1464,6.6326,3.0422,8.393
7.116000,3.9251,6.6848,2.8203,8.249
7.117000,3.6864,6.7237,2.5814,8.091
7.117000,3.4430,6.7499,2.3420,7.931
7.118000,3.2094,6.7707,2.1094,7.784
7.118000,3.0120,6.7482,1.9000,7.630
7.119000,2.8438,6.6894,1.7019,7.465
7.119000,2.7071,6.5923,1.5222,7.287
7.120000,2.5876,6.4567,1.3657,7.089
7.120000,2.4686,6.2828,1.1988,6.856
7.121000,2.3573,6.0874,1.0359,6.610
7.121000,2.2561,5.8587,0.8894,6.341
7.121000,2.1797,5.5754,0.7879,6.038
7.122000,2.1687,5.2570,0.7198,5.732
7.127000,2.2206,4.8938,0.6924,5.418
7.132000,2.3354,4.4501,0.6983,5.074
7.139000,2.4988,3.9451,0.7544,4.730
7.143000,2.7227,3.3718,0.8721,4.421
7.151000,2.9908,2.7280,1.0630,4.185
7.153000,3.3198,2.0545,1.3028,4.116
7.158000,3.6881,1.3608,1.6221,4.253
7.162000,4.0768,0.6517,1.9701,4.574
7.224000,4.4643,-0.0658,2.2912,5.018
7.225000,4.8513,-0.7551,2.5782,5.546
7.225000,5.1996,-1.4115,2.8336,6.087
7.225000,5.5283,-2.0255,3.1026,6.655
7.226000,5.7948,-2.5825,3.3827,7.190
7.226000,5.9921,-3.0850,3.6615,7.670
7.227000,6.1299,-3.5260,3.8981,8.075
7.227000,6.1991,-3.8717,4.0782,8.370
7.227000,6.2185,-4.1227,4.1779,8.551
7.228000,6.1930,-4.2795,4.2066,8.623
7.228000,6.1627,-4.3525,4.1857,8.628
7.228000,6.1369,-4.3524,4.1293,8.582
7.228000,6.1080,-4.2989,3.9972,8.471
7.235000,6.0704,-4.2437,3.7803,8.316
7.239000,5.9849,-4.2191,3.4341,8.088
7.243000,5.8173,-4.2452,2.9221,7.772
7.250000,5.5598,-4.3439,2.2897,7.418
7.254000,5.1756,-4.5018,1.5296,7.028
7.257000,4.6724,-4.7029,0.6333,6.660
7.262000,4.0759,-4.9231,-0.3133,6.399
7.327000,3.3674,-5.1640,-1.2958,6.300
7.328000,2.5928,-5.3597,-2.2506,6.365
7.328000,1.7717,-5.5716,-3.1025,6.619
7.328000,0.8845,-5.7679,-3.7989,6.963
7.329000,-0.0346,-5.9385,-4.3193,7.343
7.329000,-0.9625,-6.0770,-4.6413,7.707
7.329000,-1.8716,-6.1749,-4.7744,8.027
7.330000,-2.7152,-6.2216,-4.7742,8.299
7.330000,-3.4401,-6.1883,-4.6862,8.491
7.330000,-4.0450,-6.0948,-4.4995,8.588
7.331000,-4.5130,-5.9513,-4.1902,8.564
7.331000,-4.8727,-5.7869,-3.7829,8.458
7.331000,-5.1336,-5.5874,-3.3664,8.301
7.332000,-5.3343,-5.3587,-2.9782,8.126
7.339000,-5.4385,-5.1282,-2.6029,7.915
7.343000,-5.4779,-4.9086,-2.2337,7.687
7.348000,-5.4648,-4.7144,-1.8896,7.461
7.354000,-5.3828,-4.5120,-1.6082,7.205
7.359000,-5.2636,-4.3070,-1.3762,6.939
7.371000,-5.1219,-4.1200,-1.1685,6.676
7.372000,-4.9774,-3.9157,-0.9646,6.406
7.373000,-4.8448,-3.6753,-0.7580,6.128
7.378000,-4.7199,-3.4137,-0.5473,5.851
7.449000,-4.6199,-3.1671,-0.3311,5.611
7.451000,-4.5215,-2.9411,-0.0822,5.394
7.452000,-4.4151,-2.7639,0.1745,5.212
7.454000,-4.2965,-2.5860,0.4394,5.034
7.455000,-4.1850,-2.4389,0.6984,4.894
7.455000,-4.0999,-2.3254,0.9424,4.807
7.456000,-4.0844,-2.2506,1.1738,4.809
7.458000,-4.1241,-2.2197,1.3735,4.881
7.459000,-4.2261,-2.2369,1.5610,5.030
7.460000,-4.3784,-2.2907,1.7075,5.228
7.462000,-4.5931,-2.3832,1.8132,5.483
7.465000,-4.8819,-2.5071,1.8543,5.793
7.466000,-5.2160,-2.6595,1.8000,6.125
7.468000,-5.6146,-2.8378,1.6482,6.503
7.469000,-6.0297,-3.0405,1.4330,6.903
7.470000,-6.4229,-3.2670,1.1905,7.304
7.471000,-6.7801,-3.5361,0.9518,7.706
7.471000,-7.0533,-3.8444,0.7216,8.065
7.475000,-7.2593,-4.2012,0.4830,8.401
7.478000,-7.4342,-4.6064,0.2529,8.749
7.493000,-7.5899,-5.0517,0.0334,9.117
7.494000,-7.7574,-5.5274,-0.2042,9.527
7.494000,-7.9749,-6.0231,-0.4696,10.005
7.549000,-8.2567,-6.4948,-0.7579,10.532
7.550000,-8.5689,-6.9345,-1.0528,11.073
7.550000,-8.8899,-7.3218,-1.3285,11.593
7.551000,-9.1974,-7.6676,-1.5791,12.078
7.551000,-9.4745,-7.9874,-1.8030,12.523
7.552000,-9.7135,-8.3041,-2.0086,12.936
7.552000,-9.9018,-8.6187,-2.1898,13.309
7.552000,-10.0461,-8.8963,-2.3455,13.622
7.553000,-10.1385,-9.1098,-2.5009,13.858
7.554000,-10.1445,-9.2194,-2.6666,13.965
7.554000,-10.0133,-9.1837,-2.8794,13.889
7.555000,-9.6364,-8.9710,-3.1347,13.534
7.559000,-8.9702,-8.5770,-3.4274,12.875
7.575000,-8.0336,-8.0738,-3.6776,11.969
7.576000,-5.2894,-7.0996,-3.8912,9.671
7.576000,-5.2279,-6.9023,-3.9088,9.500
7.578000,-3.4222,-6.2308,-3.9112,8.114
7.582000,-1.4485,-5.4143,-3.9448,6.854
7.587000,0.6752,-4.4542,-4.0027,6.026
7.593000,2.7918,-3.3845,-3.9965,5.935
7.647000,4.7382,-2.2882,-3.8792,6.537
7.648000,6.3767,-1.2509,-3.6544,7.455
7.648000,7.6507,-0.3370,-3.3119,8.344
7.649000,8.5663,0.4088,-2.8905,9.050
7.649000,9.0948,0.9774,-2.4338,9.465
7.650000,9.2281,1.3312,-1.9766,9.531
7.650000,8.9934,1.4963,-1.5462,9.247
7.650000,8.4730,1.5149,-1.1389,8.682
7.651000,7.7830,1.4250,-0.7845,7.951
7.651000,6.9986,1.2596,-0.4670,7.126
7.651000,6.1505,1.0073,-0.1678,6.235
7.652000,5.3325,0.7408,0.1291,5.385
7.658000,4.6206,0.5322,0.4548,4.673
7.665000,4.1063,0.4400,0.8357,4.214
7.669000,3.8211,0.5221,1.3031,4.071
7.673000,3.7381,0.7612,1.8856,4.255
7.679000,3.8310,1.0972,2.5833,4.749
7.685000,4.0718,1.5060,3.3736,5.498
7.689000,4.4264,1.9751,4.1913,6.408
7.692000,4.8914,2.4933,4.9783,7.411
7.760000,5.4487,3.0547,5.6911,8.450
7.761000,6.0565,3.6195,6.2738,9.442
7.762000,6.6566,4.1514,6.6952,10.314
7.762000,7.2089,4.6129,6.9528,11.027
7.762000,7.6626,4.9729,7.0495,11.539
7.763000,7.9767,5.2483,7.0051,11.842
7.763000,8.1535,5.4635,6.8158,11.949
7.764000,8.1769,5.6507,6.5327,11.894
7.764000,8.0824,5.8576,6.1924,11.747
7.765000,7.9092,6.1019,5.8673,11.585
7.765000,7.7124,6.3769,5.5956,11.465
7.766000,7.5187,6.6613,5.4060,11.407
7.766000,7.3378,6.9362,5.3027,11.405
7.767000,7.1650,7.1779,5.2567,11.423
7.770000,6.9881,7.3788,5.2839,11.454
7.774000,6.8145,7.5079,5.3284,11.454
7.779000,6.6200,7.5606,5.3732,11.396
7.783000,6.4170,7.5465,5.4059,11.285
7.790000,6.2533,7.4802,5.3877,11.139
7.792000,6.1555,7.3428,5.3065,10.953
7.799000,6.1382,7.0964,5.1622,10.709
7.803000,6.2109,6.7318,4.9624,10.417
7.807000,6.3545,6.2947,4.7390,10.122
7.812000,6.5643,5.7949,4.5139,9.851
7.879000,6.7993,5.2731,4.3257,9.631
7.880000,7.0666,4.7651,4.1745,9.491
7.880000,7.3473,4.2422,4.1008,9.423
7.881000,7.6053,3.6873,4.0823,9.386
7.881000,7.8506,3.1222,4.0923,9.388
7.882000,8.0884,2.5542,4.1205,9.430
7.882000,8.3498,1.9902,4.1470,9.533
7.882000,8.6257,1.4593,4.1839,9.697
7.883000,8.8920,0.9658,4.2162,9.888
7.883000,9.1224,0.4925,4.2081,10.058
7.883000,9.2472,0.0463,4.1599,10.140
7.884000,9.2644,-0.3610,4.0480,10.117
7.884000,9.1833,-0.7444,3.8895,10.001
7.884000,9.0094,-1.0938,3.7043,9.802
7.890000,8.7760,-1.4024,3.4807,9.545
7.894000,8.5310,-1.7089,3.1974,9.269
7.899000,8.2625,-2.0017,2.8930,8.980
7.904000,7.9961,-2.2914,2.5771,8.708
7.910000,7.7707,-2.5439,2.2481,8.480
7.920000,7.5856,-2.7560,1.9157,8.295
7.921000,7.3710,-2.9716,1.5418,8.096
7.925000,7.0764,-3.2418,1.0868,7.859
7.928000,6.6824,-3.6076,0.5404,7.613
8.005000,6.1409,-4.0796,-0.1078,7.373
8.008000,5.4410,-4.6339,-0.8476,7.197
8.009000,4.6116,-5.2061,-1.6751,7.154
8.010000,3.6726,-5.7757,-2.5234,7.295
8.010000,2.6608,-6.2861,-3.3264,7.593
8.011000,1.5671,-6.7487,-4.0210,8.011
8.013000,0.4105,-7.1764,-4.5784,8.522
8.014000,-0.7271,-7.5208,-4.9753,9.047
8.015000,-1.8112,-7.7901,-5.1748,9.526
8.017000,-2.8100,-7.9934,-5.1600,9.920
8.018000,-3.7274,-8.1303,-4.9673,10.231
8.018000,-4.5848,-8.2687,-4.6332,10.529
8.019000,-5.4617,-8.4320,-4.2763,10.919
8.020000,-6.3817,-8.6059,-4.0067,11.439
8.020000,-7.2485,-8.7262,-3.8160,11.969
8.021000,-8.0453,-8.7989,-3.6552,12.470
8.021000,-8.7507,-8.7967,-3.5105,12.895
8.022000,-9.2950,-8.7359,-3.3970,13.200
8.025000,-9.7007,-8.6117,-3.2902,13.382
8.030000,-9.9949,-8.4337,-3.1488,13.451
8.040000,-10.1784,-8.1850,-2.9721,13.395
8.042000,-10.2545,-7.8831,-2.7802,13.230
8.044000,-10.2792,-7.5367,-2.5507,12.999
8.132000,-10.3153,-7.1864,-2.2772,12.776
8.133000,-10.3685,-6.8482,-1.9517,12.578
8.134000,-10.4773,-6.5535,-1.5807,12.459
8.134000,-10.6251,-6.3216,-1.1806,12.420
8.135000,-10.8073,-6.1163,-0.8017,12.444
8.135000,-10.9783,-5.9231,-0.4538,12.482
8.135000,-11.0808,-5.7123,-0.1466,12.467
8.136000,-11.0694,-5.4461,0.1294,12.337
8.136000,-10.9658,-5.1463,0.3716,12.119
8.137000,-10.7679,-4.8566,0.5967,11.828
8.137000,-10.5022,-4.5966,0.8308,11.494
8.138000,-10.1975,-4.4005,1.0669,11.158
8.138000,-9.8515,-4.2566,1.2805,10.808
8.139000,-9.4617,-4.1486,1.4473,10.432
8.139000,-9.0450,-4.0697,1.5574,10.040
8.139000,-8.6061,-4.0179,1.5704,9.627
8.140000,-8.1859,-3.9863,1.4914,9.226
8.140000,-7.7773,-3.9849,1.3401,8.841
8.140000,-7.3898,-4.0661,1.1217,8.509
8.145000,-7.0236,-4.2174,0.8274,8.234
8.150000,-6.6617,-4.4119,0.4694,8.004
8.154000,-6.2706,-4.6130,0.0914,7.785
8.159000,-5.8597,-4.7914,-0.2754,7.574
8.167000,-5.4006,-4.9596,-0.6377,7.360
8.169000,-4.8905,-5.1146,-1.0052,7.147
8.174000,-4.3654,-5.2611,-1.3539,6.969
8.179000,-3.8179,-5.3751,-1.7006,6.809
8.250000,-3.2237,-5.4296,-2.0021,6.624
8.251000,-2.5784,-5.4329,-2.2678,6.427
8.251000,-1.9295,-5.3919,-2.4736,6.238
8.252000,-1.2603,-5.3188,-2.5979,6.052
8.252000,-0.5991,-5.2044,-2.6556,5.873
8.252000,0.0518,-5.0487,-2.6711,5.712
8.253000,0.7148,-4.8419,-2.6523,5.567
8.253000,1.3561,-4.5424,-2.6261,5.419
8.254000,1.9954,-4.1715,-2.6023,5.306
8.254000,2.6664,-3.7894,-2.5093,5.269
8.255000,3.3309,-3.4156,-2.3571,5.321
8.255000,4.0013,-3.0282,-2.1409,5.456
8.255000,4.7224,-2.6269,-1.9207,5.735
8.256000,5.4610,-2.1637,-1.6728,6.108
8.256000,6.2550,-1.6588,-1.4183,6.625
8.260000,7.0990,-1.0824,-1.1453,7.272
8.265000,7.9160,-0.4262,-0.8441,7.972
8.269000,8.6624,0.3116,-0.5216,8.684
8.275000,9.2650,1.1230,-0.1897,9.335
8.280000,9.6491,1.9526,0.1710,9.846
8.286000,9.8332,2.7681,0.5870,10.232
8.290000,9.8503,3.5232,1.0340,10.512
8.294000,9.7335,4.1964,1.4834,10.703
8.374000,9.5247,4.7597,1.8871,10.814
8.375000,9.2024,5.2399,2.2261,10.821
8.376000,8.7852,5.6229,2.5054,10.727
8.376000,8.3208,5.8992,2.7278,10.558
8.376000,7.8305,6.0262,2.8814,10.292
8.377000,7.2861,6.0553,2.9622,9.926
8.377000,6.7732,5.9888,3.0087,9.529
8.377000,6.2970,5.8900,3.0189,9.136
8.378000,5.8937,5.8195,3.0049,8.811
8.378000,5.5822,5.8156,2.9597,8.587
8.379000,5.2788,5.8258,2.8811,8.373
8.379000,4.9811,5.8455,2.7667,8.163
8.379000,4.6865,5.8431,2.6162,7.934
8.380000,4.3786,5.8143,2.4461,7.679
8.380000,4.0144,5.7640,2.2465,7.375
8.380000,3.6064,5.6949,2.0052,7.033
8.381000,3.1598,5.6147,1.7365,6.673
8.385000,2.6538,5.5358,1.4490,6.308
8.391000,2.1249,5.4495,1.1739,5.966
8.396000,1.6051,5.3758,0.9085,5.683
8.401000,1.1449,5.3319,0.6550,5.493
8.404000,0.7470,5.3231,0.4444,5.394
8.409000,0.4474,5.3279,0.2480,5.352
8.469000,0.2365,5.3464,0.1061,5.353
8.470000,0.0923,5.3518,0.0116,5.353
8.471000,-0.0141,5.3297,-0.0355,5.330
8.471000,-0.0948,5.2654,-0.0355,5.266
8.471000,-0.1572,5.1398,0.0067,5.142
8.472000,-0.2086,4.9551,0.0721,4.960
8.472000,-0.2416,4.7069,0.1388,4.715
8.473000,-0.2609,4.4383,0.1998,4.450
8.473000,-0.2545,4.1544,0.2815,4.172
8.474000,-0.2272,3.8766,0.3958,3.903
8.474000,-0.1648,3.5882,0.5786,3.638
8.474000,-0.1030,3.2486,0.8222,3.353
8.475000,-0.0225,2.7861,1.1500,3.014
8.480000,0.0720,2.2084,1.5712,2.711
8.485000,0.2027,1.5543,2.0394,2.572
8.491000,0.4104,0.8650,2.5229,2.698
8.495000,0.6906,0.1694,2.9950,3.078
8.501000,1.0531,-0.5224,3.4576,3.652
8.505000,1.4909,-1.2005,3.8794,4.326
8.509000,1.9584,-1.8363,4.2386,5.017
8.584000,2.4463,-2.4105,4.5711,5.718
8.585000,2.9163,-2.8682,4.8839,6.371
8.585000,3.3351,-3.2213,5.1670,6.942
8.586000,3.6646,-3.4559,5.4056,7.389
8.586000,3.9122,-3.5410,5.6206,7.709
8.586000,4.1332,-3.4653,5.7804,7.906
8.587000,4.3559,-3.2509,5.8580,7.991
8.587000,4.5755,-2.9614,5.7717,7.938
8.587000,4.8227,-2.6450,5.5224,7.794
8.588000,5.1350,-2.3650,5.1587,7.653
8.588000,5.4880,-2.1512,4.7529,7.572
8.589000,6.2440,-1.8876,3.7109,7.505
8.589000,6.2394,-1.9222,3.6186,7.465
8.589000,6.5688,-1.9239,2.8890,7.429
8.590000,6.8241,-2.0078,2.0475,7.402
8.590000,6.9781,-2.1744,1.1444,7.398
8.595000,7.0420,-2.3667,0.2228,7.432
8.601000,6.9719,-2.5822,-0.7508,7.473
8.606000,6.7319,-2.8323,-1.7430,7.509
8.610000,6.3481,-3.0951,-2.6899,7.557
8.618000,5.8145,-3.3779,-3.5400,7.599
8.621000,5.1030,-3.6753,-4.2165,7.571
8.624000,4.2532,-3.9520,-4.7009,7.470
8.701000,3.2763,-4.1994,-4.9778,7.290
8.702000,2.2527,-4.4096,-5.0995,7.108
8.702000,1.2564,-4.5488,-5.0932,6.943
8.703000,0.3364,-4.6502,-5.0017,6.838
8.703000,-0.4728,-4.6984,-4.8563,6.774
8.703000,-1.1707,-4.7218,-4.6810,6.751
8.704000,-1.7757,-4.7153,-4.4944,6.752
8.704000,-2.3096,-4.6580,-4.2816,6.735
8.705000,-2.7594,-4.5653,-4.0590,6.703
8.705000,-3.1352,-4.4358,-3.8231,6.642
8.705000,-3.4609,-4.2960,-3.5921,6.583
8.706000,-3.7459,-4.1486,-3.3885,6.536
8.706000,-4.0144,-4.0368,-3.2275,6.544
8.706000,-4.2977,-3.9442,-3.1041,6.608
8.707000,-4.5598,-3.8722,-2.9725,6.680
8.707000,-4.7868,-3.7924,-2.8296,6.731
8.711000,-4.9983,-3.7193,-2.6579,6.774
8.716000,-5.1944,-3.6604,-2.4757,6.820
8.721000,-5.4355,-3.6369,-2.2891,6.929
8.726000,-5.7239,-3.6346,-2.1139,7.102
8.731000,-6.0312,-3.6069,-1.9344,7.289
8.735000,-6.3311,-3.5534,-1.7525,7.469
8.740000,-6.6071,-3.4717,-1.5789,7.629
8.744000,-6.8502,-3.3592,-1.3768,7.753
8.808000,-7.0559,-3.2355,-1.1574,7.848
8.809000,-7.2248,-3.1267,-0.9195,7.926
8.810000,-7.3571,-3.0356,-0.6673,7.987
8.810000,-7.4557,-2.9673,-0.4362,8.036
8.810000,-7.5184,-2.9220,-0.2354,8.070
8.811000,-7.5527,-2.8806,-0.0885,8.084
8.811000,-7.5253,-2.8411,-0.0023,8.044
8.812000,-7.4101,-2.8082,0.0141,7.924
8.812000,-7.2338,-2.8155,-0.0272,7.762
8.812000,-7.0250,-2.8582,-0.1500,7.586
8.813000,-6.7935,-2.9481,-0.3015,7.412
8.813000,-6.5466,-3.0803,-0.4481,7.249
8.813000,-6.3031,-3.2310,-0.5590,7.105
8.821000,-6.0870,-3.4145,-0.6562,7.010
8.822000,-5.9459,-3.6451,-0.7449,7.014
8.825000,-5.9104,-3.9199,-0.8567,7.144
8.833000,-5.9468,-4.2098,-0.9989,7.354
8.835000,-6.0235,-4.5207,-1.1622,7.620
8.839000,-6.1377,-4.8329,-1.3351,7.925
8.844000,-6.2457,-5.1473,-1.5059,8.232
8.895000,-6.2969,-5.4438,-1.6729,8.490
8.895000,-6.2500,-5.7429,-1.8368,8.684
8.896000,-6.0925,-6.0462,-2.0103,8.816
8.896000,-5.8144,-6.3335,-2.1915,8.873
8.896000,-5.3916,-6.5504,-2.3476,8.803
8.897000,-4.8093,-6.6798,-2.4765,8.595
8.897000,-4.0842,-6.6671,-2.5786,8.233
8.897000,-3.2686,-6.5035,-2.7069,7.766
8.898000,-2.3887,-6.2112,-2.8255,7.230
8.898000,-1.4157,-5.8239,-2.8909,6.654
8.900000,-0.3620,-5.3515,-2.9319,6.113
8.905000,0.7459,-4.8016,-2.9141,5.666
8.911000,1.9025,-4.1879,-2.8654,5.419
8.917000,3.0931,-3.5144,-2.7686,5.439
8.920000,4.2787,-2.8202,-2.6131,5.752
8.925000,5.4196,-2.0923,-2.4204,6.294
8.934000,6.5031,-1.3628,-2.1849,6.994
8.935000,7.4779,-0.6499,-1.8941,7.741
8.940000,8.2998,0.0088,-1.5024,8.435
8.945000,8.9371,0.5978,-1.0335,9.017
9.013000,9.3632,1.0979,-0.5024,9.441
9.014000,9.5437,1.5048,0.0589,9.662
9.015000,9.5219,1.8335,0.6091,9.716
9.016000,9.3051,2.0865,1.1187,9.602
9.018000,8.9249,2.2761,1.5725,9.344
9.018000,8.3843,2.4131,1.9437,8.939
9.019000,7.7169,2.4975,2.2437,8.416
9.019000,6.9141,2.5477,2.5084,7.784
9.020000,6.0557,2.5865,2.7478,7.135
9.021000,5.1973,2.6223,3.0147,6.556
9.022000,4.4113,2.6899,3.3406,6.153
9.023000,3.7749,2.8046,3.7257,6.000
9.024000,3.2971,3.0089,4.1147,6.071
9.025000,2.9900,3.2937,4.4719,6.308
9.026000,2.8219,3.6320,4.8116,6.656
9.027000,2.7709,4.0068,5.1122,7.062
9.032000,2.8291,4.3839,5.3639,7.483
9.035000,2.9676,4.7582,5.5691,7.903
9.041000,3.1470,5.1238,5.7251,8.303
9.047000,3.3406,5.4707,5.8081,8.650
9.055000,3.4953,5.7985,5.8179,8.927
9.056000,3.6012,6.0901,5.7496,9.117
9.060000,3.6296,6.3383,5.5937,9.200
9.127000,3.5779,6.5572,5.3382,9.181
9.128000,3.4413,6.7302,4.9859,9.055
9.128000,3.2273,6.8552,4.5776,8.852
9.128000,2.9385,6.9110,4.1447,8.578
9.129000,2.5824,6.9268,3.7208,8.276
9.129000,2.1786,6.9127,3.2892,7.959
9.129000,1.7585,6.8882,2.8477,7.658
9.130000,1.3490,6.8588,2.3845,7.386
9.130000,0.9837,6.8463,1.9502,7.186
9.130000,0.6459,6.8222,1.5592,7.028
9.131000,0.3073,6.7724,1.2375,6.891
9.131000,-0.0176,6.6950,0.9780,6.766
9.131000,-0.3309,6.5879,0.7803,6.642
9.131000,-0.5988,6.4513,0.6493,6.511
9.136000,-0.7903,6.2712,0.5825,6.348
9.142000,-0.9148,6.0452,0.5607,6.140
9.146000,-0.9440,5.7662,0.5646,5.870
9.155000,-0.9110,5.4441,0.5725,5.549
9.156000,-0.7849,5.1005,0.5729,5.192
9.160000,-0.5492,4.7329,0.6065,4.803
9.235000,-0.2233,4.2672,0.7020,4.330
9.237000,0.1762,3.7228,0.8901,3.832
9.237000,0.6254,3.0900,1.1869,3.369
9.237000,1.1078,2.4268,1.5581,3.089
9.238000,1.6476,1.7427,2.0440,3.151
9.238000,2.2807,1.0380,2.5744,3.593
9.239000,3.0217,0.3127,3.1510,4.377
9.239000,3.8371,-0.4069,3.7921,5.410
9.239000,4.6961,-1.1084,4.4514,6.565
9.240000,5.5224,-1.7541,5.1018,7.720
9.240000,6.3040,-2.3343,5.7526,8.848
9.240000,6.9788,-2.8089,6.3506,9.845
9.241000,7.5063,-3.1593,6.8527,10.644
9.241000,7.8649,-3.3813,7.2136,11.195
9.241000,8.0757,-3.5376,7.5135,11.584
9.242000,8.2154,-3.6411,7.7348,11.857
9.246000,8.3340,-3.7284,7.7867,12.000
9.251000,8.4980,-3.7672,7.6141,12.016
9.256000,8.7522,-3.7326,7.1858,11.923
9.260000,9.0691,-3.6434,6.4876,11.731
9.267000,9.4402,-3.5415,5.5795,11.523
9.271000,9.8303,-3.4792,4.4942,11.355
9.275000,10.1539,-3.5038,3.3110,11.240
9.350000,10.3160,-3.6832,1.9925,11.134
9.351000,10.2483,-4.0280,0.5303,11.024
9.351000,9.9050,-4.5172,-0.9965,10.932
9.352000,9.3265,-5.1071,-2.5588,10.937
9.352000,8.5017,-5.6880,-4.1323,11.032
9.352000,7.4367,-6.1998,-5.6694,11.220
9.353000,6.2218,-6.5773,-7.1136,11.514
9.353000,4.8776,-6.8306,-8.3594,11.846
9.354000,3.4551,-6.9548,-9.3622,12.164
9.354000,2.0521,-6.9578,-10.1079,12.441
9.354000,0.7022,-6.8490,-10.5589,12.605
9.355000,-0.4971,-6.6390,-10.7409,12.637
9.355000,-1.5132,-6.3677,-10.5957,12.454
9.356000,-2.2956,-6.0980,-10.1587,12.069
9.356000,-2.8761,-5.8505,-9.4592,11.488
9.357000,-3.3508,-5.6149,-8.6200,10.819
9.362000,-3.7702,-5.3993,-7.7273,10.153
9.367000,-4.1468,-5.1740,-6.7660,9.473
9.371000,-4.5028,-4.9308,-5.7754,8.829
9.378000,-4.8453,-4.6532,-4.8281,8.273
9.387000,-5.1704,-4.3376,-3.9242,7.807
9.390000,-5.5142,-4.0254,-3.0636,7.483
9.393000,-5.8770,-3.7290,-2.2630,7.319
9.469000,-6.2829,-3.4342,-1.5526,7.327
9.470000,-6.7109,-3.1440,-0.9243,7.468
9.471000,-7.1538,-2.8692,-0.3859,7.717
9.471000,-7.6360,-2.6315,0.0951,8.077
9.471000,-8.1100,-2.4351,0.5112,8.483
9.472000,-8.5667,-2.2795,0.8618,8.907
9.472000,-8.9658,-2.1668,1.1578,9.296
9.473000,-9.3031,-2.0635,1.4027,9.632
9.473000,-9.5503,-1.9854,1.5981,9.885
9.474000,-9.7174,-1.9521,1.7231,10.060
9.474000,-9.7810,-1.9421,1.7737,10.128
9.474000,-9.7464,-1.9530,1.7508,10.093
9.475000,-9.6237,-1.9877,1.7006,9.973
9.475000,-9.4423,-2.0532,1.6218,9.798
9.476000,-9.2218,-2.1621,1.5511,9.598
9.476000,-8.9675,-2.3195,1.5056,9.384
9.477000,-8.7010,-2.5235,1.4781,9.179
9.481000,-8.4514,-2.7743,1.4688,9.016
9.486000,-8.2041,-3.0628,1.4510,8.877
9.491000,-7.9712,-3.4317,1.3458,8.782
9.502000,-7.7789,-3.8667,1.1316,8.760
9.503000,-7.6557,-4.3695,0.8060,8.852
9.508000,-7.6467,-4.9083,0.4025,9.095
9.513000,-7.7729,-5.4579,-0.0481,9.498
9.583000,-8.0074,-5.9664,-0.5175,9.999
9.584000,-8.2921,-6.4272,-0.9754,10.537
9.586000,-8.5615,-6.8220,-1.3944,11.036
9.588000,-8.7575,-7.1467,-1.7735,11.442
9.589000,-8.8005,-7.4215,-2.1261,11.707
9.590000,-8.7045,-7.6743,-2.4197,11.854
9.591000,-8.4616,-7.9285,-2.6775,11.901
9.594000,-8.0642,-8.1713,-2.8864,11.838
9.595000,-7.5164,-8.3734,-3.0261,11.652
9.598000,-6.8583,-8.5274,-3.1412,11.385
9.599000,-6.0917,-8.6331,-3.2561,11.056
9.601000,-5.1680,-8.6249,-3.3664,10.603
9.602000,-4.0869,-8.4392,-3.4962,10.007
9.604000,-2.7571,-7.9949,-3.6186,9.199
9.605000,-1.1213,-7.2599,-3.7636,8.254
9.607000,0.7957,-6.2631,-3.9247,7.434
9.608000,2.9383,-5.0566,-4.1046,7.145
9.609000,5.1842,-3.7368,-4.1905,7.642
9.610000,7.4270,-2.3114,-4.1257,8.805
9.611000,9.5282,-0.8057,-3.8800,10.319
9.620000,11.3564,0.7711,-3.4141,11.884
9.624000,12.7518,2.3267,-2.7516,13.251
9.627000,13.6244,3.7509,-1.9694,14.268
9.697000,13.9509,4.9777,-1.1831,14.859
9.698000,13.7791,5.9184,-0.4632,15.003
9.698000,13.1639,6.5445,0.1584,14.702
9.699000,12.1730,6.8736,0.6236,13.993
9.699000,10.8887,6.9344,0.8651,12.938
9.700000,9.4004,6.7671,0.8853,11.617
9.700000,7.8296,6.4565,0.7682,10.177
9.700000,6.2688,6.1016,0.5114,8.763
9.700000,4.8009,5.7818,0.2155,7.518
9.701000,3.5036,5.5543,-0.0504,6.567
9.701000,2.3947,5.4903,-0.2722,5.996
9.702000,1.4507,5.5497,-0.4004,5.750
9.703000,0.6505,5.6924,-0.3855,5.742
9.703000,0.0184,5.9258,-0.2184,5.930
9.704000,-0.4386,6.2403,0.0714,6.256
9.708000,-0.7305,6.6327,0.4456,6.688
9.713000,-0.8006,7.0975,0.8706,7.195
9.720000,-0.6862,7.5994,1.3085,7.742
9.726000,-0.4432,8.1083,1.7376,8.304
9.726000,-0.1158,8.5440,2.1365,8.808
9.795000,0.2067,8.8863,2.4981,9.233
9.796000,0.4468,9.1220,2.7863,9.549
9.797000,0.5687,9.2246,2.9627,9.705
9.798000,0.5772,9.2133,2.9915,9.704
9.800000,0.5469,9.0793,2.8753,9.539
9.801000,0.5047,8.8187,2.6022,9.208
9.802000,0.5445,8.4377,2.2086,8.739
9.803000,0.6475,7.9565,1.7643,8.176
9.804000,0.8335,7.4027,1.3557,7.572
9.805000,1.1289,6.7698,1.0690,6.946
9.806000,1.5340,6.0632,0.9230,6.322
9.807000,2.0491,5.2522,0.9170,5.712
9.808000,2.6626,4.3542,0.9952,5.200
9.809000,3.4395,3.4363,1.1328,4.992
9.810000,4.3105,2.4894,1.3697,5.163
9.812000,5.2379,1.5259,1.6742,5.707
9.812000,6.1863,0.6254,2.0626,6.551
9.822000,7.1661,-0.1183,2.5317,7.601
9.824000,8.1799,-0.6384,3.0902,8.767
9.888000,9.1915,-0.9503,3.7690,9.980
9.889000,10.0309,-1.1082,4.5501,11.070
9.889000,10.6810,-1.1165,5.3464,11.996
9.889000,11.1036,-0.9864,5.9868,12.653
9.890000,11.2937,-0.7412,6.4307,13.017
9.890000,11.2488,-0.4107,6.6420,13.070
9.890000,11.0354,-0.0267,6.4939,12.804
9.891000,10.7822,0.3866,5.9711,12.331
9.891000,10.5793,0.7928,5.1693,11.801
9.892000,10.4880,1.1487,4.1408,11.334
9.892000,10.5357,1.4391,2.9755,11.042
9.892000,10.6463,1.6375,1.6838,10.902
9.893000,10.7201,1.6951,0.3393,10.859
9.893000,10.6767,1.6549,-1.0653,10.857
9.900000,10.4576,1.5196,-2.4248,10.842
9.901000,10.1150,1.2711,-3.6729,10.836
9.907000,9.6416,0.8978,-4.8067,10.811
9.912000,9.0358,0.4073,-5.8439,10.769
9.917000,8.3295,-0.1512,-6.7728,10.737
9.923000,7.5620,-0.6830,-7.5386,10.700
9.926000,6.7587,-1.1792,-8.1038,10.618
9.960000,5.9114,-1.6074,-8.4770,10.459
9.960000,5.0170,-1.9766,-8.6793,10.218
9.961000,4.1134,-2.3129,-8.7197,9.915
9.961000,3.2332,-2.5711,-8.6221,9.561
9.961000,2.3895,-2.7650,-8.4008,9.161
9.961000,1.6337,-2.9183,-8.0888,8.753
9.962000,0.9594,-3.0286,-7.7409,8.367
9.967000,0.3360,-3.1083,-7.3943,8.028
9.972000,-0.2644,-3.1540,-7.1004,7.774
9.977000,-0.8421,-3.1683,-6.8592,7.602
9.982000,-1.4065,-3.1414,-6.6470,7.485
9.986000,-1.9362,-3.1090,-6.4374,7.406
9.992000,-2.4220,-3.0518,-6.2301,7.348
10.019000,-2.8448,-2.9932,-5.9984,7.282
10.020000,-3.2120,-2.9642,-5.7445,7.218
10.020000,-3.5144,-2.9503,-5.4706,7.140
10.020000,-3.7307,-2.9488,-5.1761,7.029
10.021000,-3.8398,-2.9265,-4.8869,6.870
10.022000,-3.8802,-2.8764,-4.6221,6.685
10.027000,-3.8671,-2.7725,-4.4020,6.482
10.032000,-3.7961,-2.5986,-4.2048,6.232
10.037000,-3.6750,-2.3746,-4.0368,5.953
10.042000,-3.4638,-2.0963,-3.8880,5.613
10.049000,-3.1918,-1.8028,-3.7554,5.248
10.053000,-2.8502,-1.5331,-3.6264,4.861
10.058000,-2.4515,-1.3142,-3.4840,4.458
10.067000,-1.9985,-1.1348,-3.3307,4.047
10.072000,-1.4988,-0.9696,-3.1854,3.651
10.075000,-0.9817,-0.8242,-3.0550,3.313
10.128000,-0.4954,-0.7062,-2.9660,3.089
10.128000,-0.0381,-0.6021,-2.8962,2.958
10.129000,0.3713,-0.5407,-2.8555,2.930
10.129000,0.7256,-0.5267,-2.8466,2.984
10.129000,1.0490,-0.5892,-2.8361,3.081
10.130000,1.3635,-0.7616,-2.8249,3.228
10.130000,1.6378,-1.0365,-2.8081,3.412
10.130000,1.8342,-1.4210,-2.7838,3.624
10.130000,1.9575,-1.9049,-2.7711,3.891
10.131000,2.0582,-2.4709,-2.7672,4.243
10.131000,2.1675,-3.1064,-2.7697,4.692
10.134000,2.2831,-3.7869,-2.7859,5.226
10.138000,2.3953,-4.4929,-2.7934,5.807
10.143000,2.4800,-5.1883,-2.8258,6.407
10.153000,2.5133,-5.8105,-2.9233,6.973
10.153000,2.4783,-6.3307,-3.1023,7.473
10.158000,2.3873,-6.7294,-3.3551,7.889
10.163000,2.2928,-6.9532,-3.6838,8.196
10.169000,2.2428,-7.0186,-4.0546,8.410
10.173000,2.2709,-6.9660,-4.4912,8.594
10.178000,2.3960,-6.7952,-4.9837,8.761
10.183000,2.6034,-6.5611,-5.4740,8.933
10.188000,2.8664,-6.2995,-5.9164,9.105
10.193000,3.1870,-6.0348,-6.2937,9.284
10.199000,3.5266,-5.7791,-6.6079,9.460
10.203000,3.8083,-5.5492,-6.8684,9.616
10.208000,4.0417,-5.3502,-7.0679,9.742
10.213000,4.2076,-5.1653,-7.1967,9.807
10.284000,4.3044,-4.9734,-7.2770,9.809
10.284000,4.3274,-4.8034,-7.3212,9.767
10.285000,4.2893,-4.6767,-7.3441,9.706
10.285000,4.2027,-4.5955,-7.3439,9.629
10.285000,4.1045,-4.5472,-7.3261,9.550
10.286000,4.0048,-4.5192,-7.2477,9.434
10.286000,3.8851,-4.5001,-7.0885,9.252
10.286000,3.7437,-4.4795,-6.8965,9.036
10.287000,3.6267,-4.4549,-6.6627,8.797
10.287000,3.5322,-4.4639,-6.3685,8.542
10.288000,3.4512,-4.4876,-5.9977,8.248
10.288000,3.3910,-4.5182,-5.5382,7.911
10.288000,3.3278,-4.5404,-5.0104,7.536
10.288000,3.2590,-4.5399,-4.4139,7.121
10.288000,3.1772,-4.5104,-3.7394,6.665
10.297000,3.0627,-4.4434,-3.0325,6.190
10.298000,2.9297,-4.3534,-2.2712,5.718
10.303000,2.7915,-4.2163,-1.4779,5.268
10.308000,2.6310,-4.0518,-0.7002,4.882
10.315000,2.4187,-3.8801,0.0428,4.572
10.324000,2.1901,-3.6992,0.7083,4.357
10.325000,1.9566,-3.4496,1.2775,4.167
10.328000,1.7130,-3.1097,1.7755,3.970
10.402000,1.4731,-2.7407,2.2375,3.832
10.402000,1.2056,-2.3566,2.6711,3.761
10.403000,0.9321,-1.9718,3.0783,3.773
10.403000,0.6721,-1.5981,3.4612,3.871
10.404000,0.4759,-1.2160,3.8292,4.046
10.404000,0.3195,-0.8620,4.1712,4.271
10.404000,0.2152,-0.5048,4.4609,4.494
10.405000,0.1582,-0.1442,4.6904,4.695
10.405000,0.1246,0.2127,4.8594,4.866
10.405000,0.0976,0.5585,4.9797,5.012
10.406000,0.0536,0.8987,5.0488,5.128
10.406000,-0.0075,1.2135,5.0755,5.219
10.406000,-0.0712,1.4939,5.0621,5.278
10.406000,-0.1419,1.7570,4.9964,5.298
10.407000,-0.2193,2.0103,4.8734,5.276
10.408000,-0.2817,2.2351,4.6765,5.191
10.415000,-0.3145,2.4653,4.4105,5.062
10.418000,-0.3010,2.6912,4.1112,4.923
10.423000,-0.2723,2.9179,3.7694,4.775
10.428000,-0.2285,3.1454,3.4235,4.655
10.436000,-0.1769,3.3474,3.0785,4.551
10.438000,-0.1415,3.5312,2.7417,4.473
10.443000,-0.0960,3.6895,2.4155,4.411
10.472000,-0.0381,3.8080,2.1026,4.350
10.473000,0.0299,3.9157,1.7742,4.299
10.473000,0.1319,4.0318,1.4210,4.277
10.473000,0.2772,4.1633,1.0578,4.305
10.474000,0.4322,4.3077,0.6940,4.385
10.474000,0.5748,4.4146,0.3305,4.464
10.479000,0.7028,4.4745,-0.0495,4.530
10.484000,0.8449,4.4829,-0.4097,4.580
10.488000,0.9938,4.4329,-0.7639,4.607
10.495000,1.1568,4.3437,-1.1118,4.631
10.498000,1.3219,4.2516,-1.4315,4.677
10.504000,1.5007,4.1900,-1.7151,4.770
10.510000,1.6669,4.1590,-1.9794,4.898
10.514000,1.8276,4.1584,-2.2144,5.053
10.519000,1.9658,4.1690,-2.3820,5.188
10.524000,2.0648,4.1476,-2.4656,5.248
10.529000,2.1197,4.1061,-2.4916,5.250
10.535000,2.1546,4.0564,-2.4772,5.219
10.538000,2.1698,3.9865,-2.4515,5.158
10.543000,2.1581,3.9372,-2.4484,5.114
10.583000,2.1294,3.9036,-2.4511,5.077
10.584000,2.0719,3.8739,-2.4648,5.037
10.584000,2.0216,3.8483,-2.5033,5.016
10.584000,1.9715,3.8340,-2.5405,5.004
10.585000,1.9625,3.8290,-2.5789,5.016
10.585000,1.9948,3.8094,-2.6136,5.032
10.585000,2.0470,3.7898,-2.6856,5.076
10.585000,2.1310,3.7628,-2.7899,5.146
10.590000,2.2968,3.7334,-2.9234,5.269
10.594000,2.5295,3.7108,-3.0836,5.448
10.599000,2.8143,3.6923,-3.2656,5.676
10.605000,3.1339,3.6680,-3.4664,5.941
10.613000,3.4518,3.6495,-3.6718,6.222
10.618000,3.7507,3.6269,-3.9000,6.514
10.619000,3.9848,3.6191,-4.1508,6.797
10.625000,3.9888,3.6261,-4.4214,6.972
10.634000,4.1814,3.6526,-4.7187,7.286
10.635000,4.2012,3.6798,-5.0325,7.518
10.640000,4.2134,3.6935,-5.3557,7.751
10.644000,4.2253,3.6727,-5.6489,7.953
10.725000,4.2178,3.5913,-5.8811,8.079
10.726000,4.2270,3.4210,-6.0282,8.119
10.727000,4.3103,3.1573,-6.0569,8.077
10.727000,4.4726,2.8027,-5.9985,7.990
10.727000,4.6855,2.3744,-5.8700,7.877
10.728000,4.8796,1.9009,-5.7198,7.755
10.728000,5.0238,1.4228,-5.5626,7.629
10.728000,5.0992,0.9638,-5.3770,7.473
10.728000,5.1537,0.4805,-5.1543,7.305
10.729000,5.1737,-0.0342,-4.9337,7.149
10.729000,5.1334,-0.5918,-4.7754,7.036
10.729000,5.0862,-1.1443,-4.7253,7.036
10.730000,5.0155,-1.6625,-4.7591,7.111
10.730000,4.9192,-2.0982,-4.8551,7.223
10.730000,4.8049,-2.3961,-5.0466,7.369
10.731000,4.7157,-2.5657,-5.3165,7.556
10.731000,4.6667,-2.6181,-5.6286,7.766
10.735000,4.7176,-2.6130,-5.9350,8.019
10.739000,4.8758,-2.5836,-6.1612,8.271
10.745000,5.1054,-2.5631,-6.2813,8.490
10.750000,5.3846,-2.4943,-6.2786,8.639
10.755000,5.7014,-2.3945,-6.1369,8.712
10.759000,6.0072,-2.2597,-5.8568,8.689
10.853000,6.2586,-2.0957,-5.4773,8.577
10.854000,6.4646,-1.9085,-5.0445,8.419
10.856000,6.5960,-1.6848,-4.5975,8.215
10.857000,6.6594,-1.4542,-4.1892,8.001
10.858000,6.6881,-1.2654,-3.8510,7.821
10.859000,6.7032,-1.1856,-3.5901,7.696
10.860000,6.7237,-1.1697,-3.4208,7.634
10.861000,6.7756,-1.2130,-3.3569,7.658
10.862000,6.8489,-1.2968,-3.3860,7.749
10.864000,6.9072,-1.4255,-3.4807,7.865
10.866000,6.9596,-1.5948,-3.5781,7.986
10.868000,6.9961,-1.8074,-3.7231,8.129
10.869000,6.9755,-2.0563,-3.8598,8.233
10.870000,6.8831,-2.3371,-3.9782,8.286
10.871000,6.6567,-2.6572,-4.1113,8.263
10.872000,6.3400,-2.9702,-4.2944,8.213
10.872000,5.9256,-3.3073,-4.4931,8.139
10.873000,5.4211,-3.6490,-4.7117,8.056
10.874000,4.8321,-3.9945,-4.9308,7.976
10.874000,4.1875,-4.2955,-5.1259,7.891
10.875000,3.5104,-4.5575,-5.2827,7.810
10.875000,2.8084,-4.8017,-5.3820,7.740
10.878000,2.1372,-5.0058,-5.4315,7.689
10.879000,1.5215,-5.1954,-5.4149,7.657
10.886000,0.9642,-5.3438,-5.3257,7.606
10.891000,0.4656,-5.4631,-5.2199,7.570
10.895000,0.0076,-5.5471,-5.0745,7.518
10.904000,-0.4146,-5.6180,-4.8639,7.443
10.905000,-0.7717,-5.6563,-4.6013,7.332
10.910000,-1.0924,-5.6790,-4.3139,7.215
11.013000,-1.3549,-5.7006,-3.9885,7.088
11.014000,-1.5835,-5.7122,-3.6734,6.974
11.014000,-1.7606,-5.7346,-3.4009,6.896
11.014000,-1.8938,-5.7562,-3.1782,6.843
11.015000,-1.9976,-5.8035,-2.9910,6.828
11.015000,-2.0697,-5.8644,-2.8583,6.844
11.015000,-2.1369,-5.9321,-2.7679,6.886
11.016000,-2.2109,-5.9749,-2.7050,6.921
11.016000,-2.2896,-5.9763,-2.6408,6.923
11.017000,-2.3781,-5.9463,-2.5891,6.908
11.017000,-2.4933,-5.8894,-2.5567,6.888
11.017000,-2.6379,-5.8441,-2.5667,6.906
11.018000,-2.7739,-5.7580,-2.6399,6.915
11.018000,-2.9422,-5.6423,-2.7371,6.927
11.018000,-3.1360,-5.4784,-2.8431,6.923
11.019000,-3.3553,-5.2781,-2.9361,6.909
11.019000,-3.6003,-5.0629,-3.0300,6.912
11.019000,-3.8543,-4.8589,-3.0860,6.927
11.020000,-4.0912,-4.6494,-3.1161,6.933
11.020000,-4.3037,-4.4530,-3.1249,6.937
11.020000,-4.5015,-4.2653,-3.0764,6.922
11.021000,-4.6465,-4.0958,-2.9659,6.867
11.025000,-4.7507,-3.9518,-2.8128,6.790
11.030000,-4.7976,-3.8506,-2.6340,6.692
11.035000,-4.7845,-3.7915,-2.4391,6.574
11.040000,-4.7526,-3.7609,-2.2523,6.466
11.045000,-4.7425,-3.7189,-2.0782,6.375
11.050000,-4.7546,-3.6685,-1.9166,6.304
11.055000,-4.8439,-3.6124,-1.7793,6.299
11.059000,-5.0368,-3.5920,-1.6543,6.404
11.165000,-5.3159,-3.6325,-1.5466,6.622
11.166000,-5.6690,-3.7050,-1.4614,6.928
11.166000,-6.0337,-3.8020,-1.4105,7.270
11.167000,-6.4220,-3.9228,-1.3700,7.649
11.167000,-6.8455,-4.0626,-1.3302,8.071
11.167000,-7.3235,-4.1779,-1.3053,8.532
11.168000,-7.8267,-4.2818,-1.2981,9.015
11.168000,-8.3455,-4.3645,-1.3061,9.508
11.169000,-8.8559,-4.4347,-1.3292,9.993
11.169000,-9.3433,-4.4918,-1.3774,10.458
11.169000,-9.8295,-4.5234,-1.4383,10.916
11.170000,-10.2757,-4.5402,-1.5005,11.334
11.170000,-10.6748,-4.5107,-1.5955,11.698
11.171000,-11.0579,-4.4201,-1.7254,12.033
11.171000,-11.3580,-4.2966,-1.8500,12.284
11.171000,-11.5918,-4.1258,-1.9886,12.464
11.172000,-11.7307,-3.9337,-2.1152,12.552
11.172000,-11.7817,-3.7534,-2.2138,12.562
11.173000,-11.7115,-3.6210,-2.2799,12.469
11.173000,-11.5153,-3.5365,-2.3021,12.264
11.174000,-11.1859,-3.4641,-2.2928,11.932
11.174000,-10.7499,-3.3778,-2.2618,11.493
11.175000,-10.2744,-3.2951,-2.2068,11.013
11.243000,-9.8361,-3.2860,-2.1108,10.583
11.243000,-9.4470,-3.3742,-1.9902,10.227
11.244000,-9.0999,-3.5931,-1.8877,9.964
11.244000,-8.7685,-3.8943,-1.8292,9.767
11.244000,-8.4572,-4.2744,-1.8572,9.656
11.245000,-8.1323,-4.6635,-1.9555,9.576
11.245000,-7.7119,-5.0004,-2.1050,9.429
11.245000,-7.1622,-5.2534,-2.2489,9.163
11.246000,-6.5403,-5.4489,-2.3708,8.837
11.246000,-5.9104,-5.5941,-2.4426,8.497
11.246000,-5.2817,-5.6793,-2.4625,8.137
11.246000,-4.6872,-5.7320,-2.4527,7.800
11.247000,-4.1263,-5.7946,-2.3801,7.501
11.247000,-3.5479,-5.8758,-2.2546,7.225
11.254000,-2.8221,-5.9416,-2.0743,6.897
11.255000,-1.8450,-5.9647,-1.8638,6.516
11.260000,-0.5404,-5.9309,-1.7047,6.195
11.333000,1.0558,-5.8263,-1.5819,6.129
11.334000,2.8667,-5.6504,-1.5472,6.522
11.334000,4.8170,-5.3766,-1.5772,7.389
11.335000,6.7575,-4.9810,-1.5746,8.541
11.335000,8.5511,-4.4601,-1.5045,9.761
11.335000,10.1144,-3.7943,-1.3509,10.887
11.336000,11.3632,-2.9988,-1.1156,11.805
11.336000,12.3277,-2.0705,-0.8173,12.527
11.336000,13.0311,-1.0657,-0.4990,13.084
11.337000,13.5154,-0.0237,-0.2083,13.517
11.337000,13.7973,1.0220,0.0623,13.835
11.337000,13.9483,1.9994,0.3542,14.095
11.338000,13.9965,2.9136,0.6703,14.312
11.338000,13.8808,3.7283,1.0066,14.408
11.338000,13.5717,4.4505,1.3634,14.348
11.340000,13.0928,5.1024,1.7868,14.165
11.347000,12.4691,5.6613,2.3053,13.887
11.351000,11.7246,6.1519,2.9111,13.557
11.355000,10.8907,6.5672,3.5721,13.210
11.361000,10.0059,6.9243,4.1625,12.860
11.369000,9.0638,7.2216,4.6598,12.491
11.371000,8.1082,7.4289,5.0776,12.113
11.375000,7.1350,7.5322,5.4694,11.729
11.454000,6.1931,7.5446,5.8536,11.382
11.455000,5.2617,7.4910,6.1671,11.038
11.455000,4.3921,7.4035,6.3542,10.700
11.456000,3.6379,7.3262,6.3477,10.354
11.456000,3.0019,7.2643,6.1347,9.971
11.456000,2.4945,7.2212,5.7392,9.555
11.457000,2.1159,7.1974,5.2213,9.140
11.457000,1.8423,7.1525,4.6622,8.734
11.457000,1.6498,7.1082,4.1290,8.384
11.458000,1.5431,7.0501,3.5928,8.062
11.458000,1.4934,6.9735,3.0481,7.756
11.458000,1.4768,6.8834,2.4928,7.468
11.459000,1.5172,6.7892,1.9751,7.232
11.459000,1.6118,6.7149,1.5144,7.070
11.459000,1.7531,6.6674,1.1016,6.981
11.460000,1.8737,6.6751,0.7251,6.971
11.461000,1.9687,6.6996,0.4141,6.995
11.467000,2.0231,6.7213,0.1716,7.021
11.473000,2.0201,6.6919,0.0167,6.990
11.475000,1.9498,6.5708,-0.0770,6.854
11.555000,1.8098,6.3768,-0.1045,6.629
11.556000,1.6244,6.0912,-0.1303,6.305
11.556000,1.3985,5.7406,-0.2093,5.912
11.556000,1.1515,5.3468,-0.3385,5.480
11.557000,0.8957,4.9010,-0.5054,5.008
11.557000,0.6821,4.4159,-0.6785,4.519
11.558000,0.5489,3.8822,-0.8260,4.007
11.558000,0.5516,3.2865,-0.8903,3.449
11.558000,0.6998,2.5837,-0.8691,2.814
11.559000,1.0128,1.7884,-0.7245,2.179
11.559000,1.5000,0.9271,-0.4452,1.819
11.559000,2.1204,0.0089,0.0007,2.120
11.560000,2.8120,-0.9782,0.5927,3.036
11.560000,3.5603,-2.0561,1.2121,4.286
11.560000,4.3510,-3.2153,1.7931,5.700
11.561000,5.1798,-4.4291,2.2941,7.191
11.561000,6.0493,-5.6088,2.6835,8.675
11.566000,6.8395,-6.7121,3.0187,10.047
11.571000,7.4627,-7.6738,3.3232,11.208
11.583000,7.8616,-8.4467,3.6037,12.089
11.584000,7.9892,-8.9422,3.8476,12.593
11.589000,7.8823,-9.0718,4.0226,12.673
11.591000,7.6041,-8.8762,4.0089,12.356
11.677000,7.2529,-8.4348,3.7684,11.745
11.678000,7.0009,-7.7859,3.4015,11.009
11.678000,6.8661,-7.0241,2.8999,10.242
11.679000,6.8184,-6.2009,2.3280,9.506
11.679000,6.8013,-5.3967,1.7195,8.851
11.680000,6.8154,-4.6894,1.0986,8.346
11.680000,6.8375,-4.0922,0.4989,7.984
11.680000,6.8518,-3.6794,-0.0807,7.778
11.681000,6.8186,-3.4591,-0.6838,7.676
11.681000,6.6678,-3.4243,-1.3201,7.611
11.681000,6.3776,-3.5914,-1.9376,7.571
11.682000,5.9286,-3.9029,-2.4754,7.517
11.682000,5.3270,-4.2872,-2.9637,7.453
11.683000,4.6190,-4.7033,-3.3907,7.413
11.683000,3.8297,-5.1117,-3.7900,7.427
11.683000,2.9509,-5.5184,-4.1358,7.501
11.684000,2.0009,-5.9026,-4.4267,7.645
11.684000,1.0216,-6.2398,-4.6590,7.854
11.688000,0.0634,-6.4886,-4.8260,8.087
11.692000,-0.8513,-6.6534,-4.9273,8.323
11.784000,-1.7307,-6.7236,-4.9178,8.508
11.784000,-2.5475,-6.7032,-4.8128,8.636
11.785000,-3.3013,-6.6189,-4.5411,8.679
11.785000,-3.9858,-6.4596,-4.1387,8.645
11.786000,-4.6085,-6.2140,-3.6851,8.569
11.786000,-5.1527,-5.9136,-3.1873,8.466
11.787000,-5.6257,-5.6210,-2.6261,8.375
11.787000,-6.0233,-5.3584,-2.0291,8.313
11.787000,-6.3221,-5.1172,-1.4205,8.257
11.788000,-6.5176,-4.9206,-0.8362,8.209
11.788000,-6.6537,-4.7435,-0.3397,8.179
11.788000,-6.7525,-4.5863,0.0703,8.163
11.789000,-6.8478,-4.4542,0.3958,8.179
11.789000,-6.9618,-4.3690,0.6577,8.245
11.790000,-7.1164,-4.3237,0.9033,8.376
11.790000,-7.3378,-4.3314,1.1349,8.596
11.790000,-7.6336,-4.3610,1.3585,8.896
11.791000,-7.9941,-4.4070,1.5492,9.259
11.791000,-8.4317,-4.4307,1.7135,9.678
11.791000,-8.9274,-4.4294,1.8523,10.136
11.802000,-9.4166,-4.3777,1.9696,10.570
11.803000,-9.8805,-4.3042,2.0636,10.973
11.806000,-10.2834,-4.2251,2.1302,11.320
11.811000,-10.6185,-4.1089,2.1557,11.588
11.881000,-10.8693,-3.9745,2.1456,11.770
11.882000,-11.0099,-3.8177,2.1144,11.843
11.882000,-11.0168,-3.6668,2.0629,11.793
11.882000,-10.8903,-3.5128,1.9673,11.611
11.883000,-10.6834,-3.3823,1.8036,11.350
11.883000,-10.4225,-3.2854,1.5698,11.040
11.883000,-10.1486,-3.2749,1.3310,10.747
11.884000,-9.8856,-3.3365,1.1036,10.492
11.884000,-9.6383,-3.4583,0.8471,10.275
11.884000,-9.3969,-3.6044,0.5301,10.078
11.884000,-9.1373,-3.7795,0.2074,9.890
11.885000,-8.8688,-4.0002,-0.0862,9.730
11.885000,-8.5862,-4.2971,-0.3779,9.609
11.885000,-8.3225,-4.6873,-0.6786,9.576
11.886000,-8.0821,-5.1390,-0.9414,9.624
11.891000,-7.7998,-5.5993,-1.2154,9.678
11.902000,-7.4897,-6.0818,-1.5185,9.767
11.902000,-7.1393,-6.5886,-1.8590,9.891
11.907000,-6.7910,-7.0923,-2.2210,10.067
11.911000,-6.4229,-7.5571,-2.6323,10.261
11.986000,-6.0178,-7.9656,-3.0552,10.440
11.987000,-5.5920,-8.3270,-3.4499,10.607
11.988000,-5.1569,-8.6744,-3.8053,10.785
11.988000,-4.7163,-8.9751,-4.1222,10.945
11.989000,-4.2624,-9.2483,-4.3922,11.090
11.989000,-3.7222,-9.4229,-4.6039,11.128
11.989000,-2.9990,-9.4190,-4.7387,10.962
11.990000,-2.0252,-9.1626,-4.7965,10.539
11.990000,-0.8245,-8.6360,-4.7338,9.883
11.991000,0.5221,-7.8449,-4.6530,9.136
11.991000,1.9988,-6.8273,-4.4941,8.415
11.991000,3.5021,-5.6977,-4.2456,7.922
11.991000,4.9614,-4.5400,-3.8961,7.772
11.992000,6.3300,-3.4239,-3.4701,7.990
11.992000,7.6138,-2.3227,-2.9929,8.504
11.992000,8.7785,-1.2423,-2.5090,9.214
12.001000,9.7950,-0.1891,-2.0650,10.012
12.003000,10.6599,0.8368,-1.6503,10.819
12.008000,11.3452,1.8148,-1.2565,11.558
12.011000,11.8493,2.7130,-0.8971,12.189
12.090000,12.1907,3.4836,-0.5862,12.692
12.091000,12.3548,4.0888,-0.3211,13.018
12.091000,12.3680,4.5129,-0.0684,13.166
12.092000,12.2655,4.7945,0.1622,13.170
12.092000,12.0664,4.9271,0.3708,13.039
12.092000,11.7059,4.9356,0.6076,12.718
12.093000,11.1684,4.8358,0.8800,12.202
12.093000,10.4895,4.6590,1.1970,11.540
12.093000,9.7090,4.4666,1.5628,10.801
12.094000,8.9214,4.2931,1.9741,10.096
12.094000,8.1659,4.1656,2.4059,9.477
12.094000,7.4602,4.0871,2.8473,8.970
12.095000,6.7934,4.0488,3.2808,8.562
12.095000,6.1584,4.0551,3.7214,8.259
12.095000,5.5564,4.1117,4.1658,8.071
12.095000,5.0308,4.2690,4.6179,8.053
12.099000,4.6105,4.5077,5.0386,8.183
12.103000,4.3197,4.8353,5.4007,8.438
12.109000,4.1172,5.2174,5.6765,8.740
12.112000,4.0148,5.6728,5.8369,9.076
12.120000,3.9926,6.2251,5.8817,9.449
12.124000,3.9948,6.8208,5.7871,9.797
12.128000,3.9989,7.4617,5.5487,10.122
12.215000,3.9995,8.0589,5.1981,10.390
12.216000,3.9762,8.5565,4.7742,10.574
12.216000,3.9002,8.8997,4.3181,10.633
12.217000,3.7615,9.0672,3.8354,10.539
12.217000,3.5340,9.0568,3.3267,10.275
12.217000,3.2682,8.9289,2.7831,9.907
12.218000,3.2585,8.7392,2.2079,9.585
12.218000,2.7421,8.4977,1.6186,9.075
12.218000,2.4849,8.1546,1.0615,8.591
12.219000,2.2529,7.7104,0.5680,8.053
12.219000,2.0297,7.2018,0.0550,7.483
12.220000,1.8183,6.6630,-0.4795,6.923
12.220000,1.6410,6.0924,-0.9748,6.384
12.220000,1.5150,5.5242,-1.3754,5.891
12.221000,1.4671,4.9422,-1.6455,5.412
12.221000,1.5482,4.3254,-1.7473,4.915
12.221000,1.7897,3.6241,-1.6670,4.372
12.222000,2.2394,2.8552,-1.3984,3.889
12.222000,2.8618,2.0858,-0.9668,3.671
12.228000,3.6395,1.3345,-0.3753,3.895
12.233000,4.5122,0.5793,0.3202,4.561
12.237000,5.4365,-0.1731,1.1378,5.557
12.242000,6.3828,-0.9620,2.0862,6.784
12.321000,7.3127,-1.8094,3.1402,8.162
12.322000,8.1490,-2.6804,4.1815,9.543
12.322000,8.8005,-3.5279,5.1804,10.804
12.323000,9.2218,-4.3094,6.1462,11.891
12.324000,9.3052,-4.9706,6.9989,12.660
12.324000,9.0330,-5.4585,7.6882,13.058
12.325000,8.4399,-5.7443,8.1942,13.091
12.325000,7.6327,-5.8033,8.3970,12.745
12.325000,6.7987,-5.6471,8.3474,12.157
12.326000,6.1249,-5.3313,8.0985,11.468
12.326000,5.6557,-4.8975,7.6714,10.716
12.326000,5.3808,-4.4448,7.0461,9.917
12.327000,5.2053,-4.1256,6.2856,9.145
12.327000,5.0703,-3.9725,5.4395,8.431
12.327000,4.9722,-3.9793,4.4115,7.747
12.328000,4.8621,-4.1202,3.1834,7.124
12.330000,4.6407,-4.3671,1.7753,6.615
12.334000,4.2938,-4.6869,0.2475,6.361
12.338000,3.8522,-5.0117,-1.2912,6.452
12.342000,3.3258,-5.2897,-2.7755,6.837
12.412000,2.7463,-5.5021,-4.1144,7.399
12.413000,2.1121,-5.6162,-5.2490,7.972
12.414000,1.4263,-5.6337,-6.1410,8.455
12.414000,0.6485,-5.5707,-6.7775,8.797
12.415000,-0.1940,-5.4269,-7.1582,8.985
12.415000,-1.0682,-5.2275,-7.3219,9.060
12.415000,-1.9510,-5.0080,-7.2295,9.008
12.416000,-2.7834,-4.7941,-6.9097,8.859
12.416000,-3.4953,-4.6129,-6.3405,8.585
12.417000,-4.0870,-4.4746,-5.6644,8.295
12.417000,-4.6135,-4.3656,-5.0336,8.104
12.417000,-5.0510,-4.2669,-4.4886,7.992
12.418000,-5.3996,-4.1858,-3.9709,7.902
12.418000,-5.7079,-4.0633,-3.4955,7.830
12.421000,-5.9758,-3.8556,-3.0653,7.744
12.424000,-6.2257,-3.6168,-2.6462,7.671
12.429000,-6.4986,-3.4186,-2.2089,7.668
12.436000,-6.8022,-3.2758,-1.7595,7.752
12.438000,-7.1080,-3.1499,-1.3423,7.890
12.442000,-7.4451,-3.0724,-0.9580,8.111
12.535000,-7.7969,-3.0107,-0.6187,8.381
12.536000,-8.1446,-2.9553,-0.3231,8.670
12.537000,-8.4455,-2.9272,-0.0503,8.939
12.537000,-8.7338,-2.9384,0.2803,9.219
12.537000,-8.9717,-3.0038,0.6577,9.484
12.538000,-9.2217,-3.1178,1.0547,9.791
12.538000,-9.4793,-3.2420,1.3665,10.111
12.538000,-9.6897,-3.3379,1.5770,10.369
12.539000,-9.7841,-3.3982,1.7067,10.497
12.539000,-9.7511,-3.4731,1.7827,10.504
12.540000,-9.6129,-3.5775,1.8150,10.416
12.540000,-9.4177,-3.7686,1.8142,10.305
12.540000,-9.2209,-4.0255,1.7636,10.215
12.541000,-9.0947,-4.3625,1.6325,10.218
12.541000,-9.0318,-4.7577,1.4308,10.308
12.541000,-9.0442,-5.1748,1.1585,10.484
12.542000,-9.1099,-5.6011,0.8322,10.726
12.542000,-9.1928,-6.0401,0.4589,11.009
12.542000,-9.2110,-6.4835,0.0452,11.264
12.543000,-9.1426,-6.9588,-0.3807,11.496
12.550000,-8.9633,-7.4506,-0.7814,11.682
12.553000,-8.6628,-7.9676,-1.1768,11.828
12.558000,-8.2147,-8.4303,-1.5534,11.873
12.567000,-7.6664,-8.8242,-1.9358,11.848
12.569000,-7.0702,-9.1417,-2.3552,11.794
12.573000,-6.5215,-9.3682,-2.8284,11.760
12.668000,-5.4741,-9.5167,-3.8767,11.643
12.669000,-5.4413,-9.4132,-3.8663,11.540
12.670000,-4.6972,-9.0918,-4.4054,11.141
12.670000,-3.6893,-8.5690,-4.8446,10.512
12.670000,-2.3868,-7.8919,-5.1404,9.716
12.671000,-0.8739,-7.1247,-5.2421,8.888
12.671000,0.7821,-6.2764,-5.2285,8.206
12.672000,2.4552,-5.3207,-5.2089,7.840
12.672000,4.1395,-4.2716,-5.1245,7.851
12.672000,5.7330,-3.1872,-4.9362,8.209
12.673000,7.1579,-2.1110,-4.6175,8.776
12.673000,8.2841,-1.0767,-4.1451,9.326
12.673000,9.1088,-0.1071,-3.5611,9.781
12.674000,9.6527,0.7512,-2.9159,10.112
12.674000,9.9256,1.4814,-2.2523,10.285
12.674000,9.9514,1.9945,-1.6415,10.281
12.675000,9.6993,2.2908,-1.0967,10.026
12.675000,9.1673,2.3521,-0.6618,9.487
12.676000,8.3948,2.2092,-0.3008,8.686
12.676000,7.4444,1.9489,-0.0355,7.695
12.678000,6.4060,1.6579,0.1613,6.619
12.750000,5.3735,1.3973,0.3507,5.563
12.751000,4.4118,1.1755,0.5911,4.604
12.751000,3.5427,1.0224,0.9123,3.798
12.752000,2.7513,0.9091,1.3295,3.188
12.752000,2.0403,0.8625,1.7977,2.853
12.752000,1.4241,0.8880,2.2603,2.815
12.753000,0.9264,0.9832,2.7564,3.070
12.753000,0.5638,1.1409,3.2980,3.535
12.754000,0.3556,1.4041,3.8180,4.083
12.754000,0.2887,1.8003,4.2894,4.661
12.754000,0.3462,2.3100,4.6550,5.208
12.755000,0.4627,2.9012,4.9218,5.732
12.755000,0.6284,3.5518,5.0485,6.205
12.755000,0.8237,4.2277,5.0639,6.648
12.756000,1.0413,4.8981,5.0204,7.091
12.758000,1.2637,5.5018,4.9600,7.515
12.767000,1.5004,6.0294,4.8965,7.911
12.769000,1.7465,6.4615,4.7931,8.233
12.774000,2.0159,6.8170,4.6613,8.501
12.779000,2.2819,7.0314,4.4793,8.644
12.863000,2.5010,7.1135,4.2441,8.653
12.864000,2.6730,7.1093,3.9799,8.575
12.865000,2.8123,7.0285,3.7347,8.441
12.865000,2.8927,6.8450,3.4919,8.211
12.865000,2.9119,6.5449,3.2466,7.865
12.866000,2.8896,6.1337,3.0133,7.420
12.866000,2.8812,5.6046,2.7968,6.895
12.866000,2.9159,4.9991,2.6162,6.351
12.867000,3.0420,4.2986,2.5051,5.832
12.867000,3.2763,3.5084,2.4660,5.397
12.867000,3.6167,2.6647,2.4770,5.130
12.867000,4.0515,1.7871,2.5598,5.115
12.868000,4.5615,0.8998,2.7119,5.383
12.868000,5.1783,-0.0089,2.8999,5.935
12.868000,5.8659,-0.9121,3.1811,6.735
12.869000,6.5983,-1.7574,3.5795,7.710
12.869000,7.3606,-2.5114,4.0805,8.783
12.869000,8.0832,-3.1318,4.7102,9.866
12.873000,8.6866,-3.5690,5.3434,10.805
12.879000,9.0939,-3.7979,5.9747,11.525
12.885000,9.3022,-3.7886,6.5888,12.012
12.889000,9.3162,-3.5971,7.1434,12.278
12.894000,9.1169,-3.2795,7.4982,12.251
12.986000,8.7786,-2.9104,7.6028,11.972
12.987000,8.4422,-2.5075,7.5213,11.581
12.987000,8.1457,-2.1385,7.2462,11.110
12.988000,7.9196,-1.8689,6.8282,10.622
12.988000,7.7484,-1.7310,6.1986,10.073
12.988000,7.6236,-1.7332,5.3204,9.457
12.988000,7.4559,-1.9044,4.2550,8.793
12.989000,7.1748,-2.2235,3.0317,8.100
12.989000,6.7250,-2.6565,1.6928,7.426
12.989000,6.1284,-3.1446,0.2683,6.893
12.990000,5.4070,-3.6365,-1.1359,6.614
12.990000,4.6490,-4.0737,-2.4183,6.637
12.991000,3.8787,-4.4239,-3.5153,6.854
12.991000,3.0855,-4.6808,-4.4359,7.149
12.991000,2.2279,-4.8641,-5.1106,7.399
12.991000,1.3220,-4.9484,-5.5840,7.577
12.991000,0.3689,-4.9164,-5.8725,7.668
12.992000,-0.6187,-4.8013,-5.9596,7.678
12.992000,-1.5727,-4.6222,-5.8298,7.604
12.994000,-2.4291,-4.3472,-5.5733,7.474
13.063000,-3.1487,-3.9783,-5.2252,7.283
13.063000,-3.6927,-3.5540,-4.8703,7.070
13.064000,-4.0663,-3.1281,-4.5560,6.861
13.064000,-4.2527,-2.7623,-4.2817,6.637
13.064000,-4.2838,-2.4601,-4.0050,6.359
13.065000,-4.1987,-2.1983,-3.7503,6.044
13.065000,-4.0746,-1.9873,-3.5415,5.753
13.065000,-3.9916,-1.8474,-3.3657,5.538
13.065000,-4.0166,-1.7899,-3.2069,5.443
13.066000,-4.1266,-1.7818,-3.0782,5.448
13.066000,-4.3908,-1.7985,-3.0020,5.615
13.066000,-4.7639,-1.8369,-2.9119,5.878
13.067000,-5.2030,-1.8985,-2.7850,6.199
13.067000,-5.7083,-1.9760,-2.5488,6.556
13.070000,-6.2485,-2.0296,-2.2690,6.951
13.074000,-6.7857,-2.0596,-1.8926,7.340
13.079000,-7.3489,-2.0516,-1.4790,7.772
13.087000,-7.8668,-1.9768,-1.0970,8.185
13.090000,-8.2560,-1.8502,-0.6838,8.488
13.095000,-8.4909,-1.7123,-0.2773,8.666
13.190000,-8.5647,-1.6093,0.1128,8.715
13.191000,-8.5115,-1.5706,0.4627,8.668
13.192000,-8.3366,-1.6491,0.7941,8.535
13.192000,-8.0501,-1.7951,1.0950,8.320
13.192000,-7.6930,-1.9713,1.3273,8.052
13.193000,-7.3450,-2.1494,1.4317,7.786
13.193000,-7.0231,-2.3255,1.4013,7.530
13.194000,-6.7875,-2.5336,1.2436,7.351
13.194000,-6.6570,-2.8120,0.9732,7.292
13.194000,-6.7745,-3.2554,0.6924,7.548
13.195000,-6.8687,-3.7236,0.2021,7.816
13.195000,-6.9223,-4.1884,-0.3801,8.100
13.196000,-6.9612,-4.6940,-0.8892,8.443
13.196000,-6.9540,-5.2276,-1.3037,8.797
13.196000,-6.9099,-5.6925,-1.7223,9.117
13.197000,-6.7784,-6.0809,-2.1451,9.355
13.197000,-6.5542,-6.3728,-2.5558,9.492
13.197000,-6.2276,-6.5869,-2.9334,9.528
13.198000,-5.8246,-6.7419,-3.2853,9.496
13.198000,-5.3811,-6.8544,-3.6212,9.437
13.202000,-4.9495,-6.9362,-3.9291,9.383
13.205000,-4.5607,-7.0228,-4.1728,9.356
13.209000,-4.2166,-7.0878,-4.3389,9.319
13.304000,-3.8950,-7.0970,-4.4204,9.224
13.305000,-3.5784,-7.0738,-4.4371,9.085
13.305000,-3.2802,-7.0366,-4.3612,8.905
13.306000,-2.9015,-6.9445,-4.1982,8.618
13.306000,-2.3289,-6.6915,-3.9968,8.135
13.307000,-1.5606,-6.2586,-3.8025,7.488
13.307000,-0.6400,-5.6160,-3.5622,6.681
13.307000,0.4102,-4.7802,-3.3684,5.862
13.308000,1.5673,-3.8354,-3.1241,5.189
13.308000,2.7031,-2.8864,-2.8141,4.854
13.309000,3.7773,-1.9589,-2.4406,4.905
13.309000,4.7147,-1.0760,-2.0465,5.251
13.310000,5.4808,-0.2490,-1.6726,5.736
13.310000,6.0458,0.5229,-1.3572,6.218
13.311000,6.3609,1.1956,-1.1026,6.566
13.311000,6.4168,1.7338,-0.9228,6.711
13.311000,6.2364,2.1078,-0.7914,6.630
13.312000,5.8682,2.3286,-0.6886,6.351
13.312000,5.3340,2.3974,-0.5829,5.877
13.313000,4.6682,2.3418,-0.4310,5.240
13.318000,3.9295,2.1948,-0.1778,4.504
13.320000,3.2212,2.0190,0.1780,3.806
13.324000,2.5922,1.8611,0.5641,3.241
13.329000,2.0718,1.7599,0.9178,2.869
13.407000,1.6892,1.7159,1.2508,2.713
13.407000,1.4422,1.7413,1.5531,2.743
13.411000,1.3430,1.8581,1.8344,2.936
13.414000,1.3931,2.1056,2.0892,3.277
13.415000,1.5230,2.4644,2.3345,3.721
13.416000,1.7054,2.9361,2.6254,4.292
13.417000,1.9348,3.5243,2.8990,4.957
13.418000,2.1889,4.2019,3.1477,5.688
13.420000,2.4313,4.9110,3.3451,6.420
13.421000,2.5986,5.6069,3.4879,7.096
13.422000,2.6951,6.2488,3.6048,7.701
13.423000,2.7157,6.7910,3.7026,8.198
13.424000,2.6865,7.2383,3.8005,8.605
13.425000,2.5906,7.5621,3.8552,8.875
13.426000,2.4157,7.7695,3.8617,9.006
13.427000,2.1696,7.8946,3.8227,9.036
13.428000,1.8619,7.9116,3.7647,8.957
13.482000,1.5603,7.8069,3.7095,8.783
13.483000,1.3178,7.5835,3.6451,8.517
13.483000,1.1564,7.2757,3.5575,8.181
13.484000,1.0857,6.8911,3.4299,7.774
13.484000,1.0962,6.4394,3.2820,7.310
13.484000,1.1451,5.9165,3.1621,6.805
13.484000,1.2587,5.3441,3.1086,6.309
13.485000,1.4587,4.6938,3.1695,5.848
13.485000,1.7501,3.9562,3.3724,5.485
13.485000,2.1328,3.1170,3.7002,5.287
13.486000,2.5589,2.1286,4.1517,5.321
13.486000,2.9690,1.0268,4.6969,5.651
13.486000,3.3370,-0.1305,5.2417,6.215
13.486000,3.6419,-1.3073,5.7759,6.952
13.490000,3.9205,-2.4168,6.2555,7.768
13.495000,4.2353,-3.4182,6.6659,8.606
13.501000,4.6083,-4.2898,6.9850,9.404
13.505000,4.9727,-5.0341,7.2123,10.104
13.511000,5.2615,-5.6181,7.3213,10.623
13.517000,5.4201,-6.0609,7.3000,10.927
13.521000,5.4609,-6.2860,7.1059,10.947
13.525000,5.4513,-6.2337,6.7247,10.668
13.618000,5.5036,-5.9596,6.1669,10.190
13.619000,5.6795,-5.5244,5.5145,9.653
13.619000,5.9181,-4.9937,4.7415,9.080
13.619000,6.2158,-4.4666,3.9052,8.593
13.620000,6.5327,-3.9519,3.0518,8.222
13.620000,6.8265,-3.4436,2.1660,7.947
13.621000,7.0096,-2.9526,1.2117,7.702
13.621000,7.0641,-2.4938,0.1840,7.494
13.621000,6.9963,-2.0749,-0.8719,7.349
13.622000,6.8081,-1.7024,-1.9121,7.274
13.622000,6.1597,-1.0272,-3.6931,7.255
13.622000,6.1014,-1.1084,-3.7424,7.243
13.623000,5.5616,-0.9687,-4.4710,7.201
13.623000,4.9120,-0.9355,-5.0218,7.087
13.624000,4.1617,-0.9969,-5.3754,6.871
13.624000,3.3359,-1.1402,-5.5257,6.555
13.624000,2.4696,-1.3165,-5.5243,6.193
13.625000,1.6266,-1.5007,-5.3657,5.804
13.625000,0.8490,-1.6609,-5.0211,5.356
13.625000,0.1063,-1.8379,-4.5241,4.884
13.631000,-0.5849,-2.0255,-3.9474,4.475
13.635000,-1.2504,-2.1880,-3.3988,4.231
13.642000,-1.8251,-2.2917,-2.8663,4.099
13.647000,-2.3156,-2.3747,-2.3230,4.049
13.652000,-2.7908,-2.4487,-1.7873,4.121
13.657000,-3.2887,-2.5401,-1.2869,4.350
13.661000,-3.7798,-2.5970,-0.8155,4.658
13.766000,-4.2376,-2.5741,-0.3882,4.973
13.767000,-4.6457,-2.4501,-0.0074,5.252
13.767000,-4.9852,-2.2325,0.3177,5.471
13.768000,-5.2665,-1.9415,0.5784,5.643
13.768000,-5.5188,-1.6508,0.7576,5.810
13.769000,-5.7501,-1.4041,0.8497,5.980
13.769000,-5.9657,-1.1776,0.8444,6.139
13.770000,-6.1757,-0.9782,0.7652,6.299
13.770000,-6.3664,-0.8226,0.6088,6.448
13.770000,-6.5098,-0.6895,0.4438,6.561
13.771000,-6.6160,-0.5900,0.2939,6.649
13.771000,-6.6976,-0.5795,0.1335,6.724
13.771000,-6.7412,-0.6364,-0.0098,6.771
13.772000,-6.7543,-0.7584,-0.1447,6.798
13.772000,-6.7350,-0.9239,-0.2754,6.804
13.772000,-6.7008,-1.1285,-0.4325,6.809
13.773000,-6.6586,-1.3642,-0.6010,6.823
13.773000,-6.6185,-1.6525,-0.7618,6.864
13.774000,-6.5683,-2.0194,-0.8814,6.928
13.774000,-6.4814,-2.4575,-0.9295,6.994
13.774000,-6.3794,-2.9910,-0.9236,7.106
13.775000,-6.3310,-3.6020,-0.8813,7.337
13.775000,-6.3572,-4.2592,-0.8416,7.698
13.847000,-6.4525,-4.9236,-0.8343,8.159
13.849000,-6.6018,-5.5963,-0.8602,8.697
13.851000,-6.7825,-6.2809,-0.9062,9.288
13.852000,-6.9434,-6.9543,-1.0070,9.879
13.852000,-7.0428,-7.5597,-1.1470,10.395
13.853000,-7.0537,-8.0413,-1.3198,10.778
13.854000,-6.9661,-8.4007,-1.5215,11.019
13.855000,-6.7891,-8.6424,-1.7503,11.129
13.856000,-6.5246,-8.7758,-2.0453,11.125
13.857000,-6.1816,-8.7953,-2.3877,11.012
13.859000,-5.7717,-8.7230,-2.7369,10.812
13.860000,-5.2037,-8.5008,-3.1117,10.442
13.861000,-4.4202,-8.1337,-3.5208,9.904
13.862000,-3.4456,-7.6703,-3.8930,9.266
13.865000,-2.2305,-7.0947,-4.1932,8.538
13.867000,-0.7935,-6.3935,-4.4118,7.808
13.868000,0.7848,-5.5759,-4.5496,7.239
13.870000,2.4046,-4.6712,-4.6096,6.989
13.870000,3.9325,-3.6943,-4.5980,7.089
13.878000,5.2306,-2.7074,-4.5450,7.440
13.970000,6.2767,-1.7307,-4.4114,7.865
13.970000,7.0859,-0.8059,-4.1359,8.244
13.971000,7.6417,0.0356,-3.7483,8.512
13.971000,7.9129,0.7667,-3.2692,8.596
13.971000,7.9404,1.3438,-2.7097,8.497
13.972000,7.7365,1.7378,-2.1169,8.207
13.972000,7.3234,1.9498,-1.5467,7.735
13.972000,6.7324,1.9792,-1.0294,7.092
13.973000,6.0411,1.9187,-0.5651,6.364
13.973000,5.3052,1.7884,-0.1685,5.601
13.974000,4.5231,1.5992,0.1985,4.802
13.974000,3.6887,1.3432,0.5893,3.970
13.974000,2.8286,1.0734,1.0414,3.200
13.975000,1.9895,0.8632,1.5623,2.673
13.975000,1.2292,0.7419,2.1664,2.599
13.975000,0.5934,0.7289,2.8701,3.020
13.975000,0.1179,0.8262,3.6061,3.701
13.976000,-0.1831,1.0265,4.3094,4.434
13.976000,-0.3344,1.3141,4.9385,5.121
13.977000,-0.3557,1.6696,5.4313,5.693
14.063000,-0.2618,2.0803,5.7926,6.160
14.063000,-0.0752,2.5481,6.0349,6.551
14.064000,0.1606,3.0607,6.1900,6.907
14.064000,0.3749,3.6170,6.2962,7.271
14.064000,0.5651,4.1977,6.3633,7.644
14.065000,0.7141,4.8048,6.4032,8.037
14.065000,0.8168,5.4115,6.3841,8.409
14.065000,0.8755,5.9722,6.2457,8.686
14.066000,0.9285,6.4608,6.0071,8.871
14.066000,0.9468,6.8315,5.6365,8.907
14.066000,0.9306,7.0944,5.1729,8.829
14.067000,0.8992,7.2547,4.6527,8.665
14.067000,0.8503,7.3011,4.1551,8.444
14.067000,0.8249,7.2315,3.7307,8.179
14.067000,0.7942,7.0750,3.3699,7.877
14.067000,0.7396,6.8319,3.0221,7.507
14.068000,0.6901,6.5483,2.7041,7.118
14.068000,0.6770,6.2291,2.4998,6.746
14.072000,0.6695,5.8675,2.3297,6.349
14.077000,0.6940,5.4613,2.1481,5.909
14.084000,0.7317,5.0013,1.9980,5.435
14.087000,0.8045,4.4446,1.9412,4.916
14.091000,0.9219,3.7628,1.9704,4.346
14.095000,1.1178,2.9611,2.0707,3.782
14.166000,1.3996,2.0758,2.2247,3.349
14.168000,1.8178,1.1502,2.4273,3.243
14.169000,2.3724,0.2061,2.6807,3.586
14.170000,2.9869,-0.7732,2.9513,4.270
14.172000,3.6256,-1.7297,3.2226,5.150
14.173000,4.2386,-2.6035,3.4976,6.081
14.173000,4.7996,-3.3632,3.8367,7.005
14.174000,5.2824,-3.9348,4.2643,7.847
14.175000,5.6676,-4.3166,4.7846,8.582
14.177000,5.9624,-4.5044,5.3489,9.190
14.178000,6.1689,-4.4970,5.9058,9.652
14.180000,6.2775,-4.3598,6.3417,9.931
14.184000,6.3287,-4.1296,6.5431,9.996
14.186000,6.3701,-3.8667,6.5253,9.905
14.188000,6.4752,-3.5765,6.3652,9.759
14.189000,6.6338,-3.3031,6.0559,9.570
14.190000,6.8378,-3.0088,5.5289,9.294
14.192000,7.0858,-2.7043,4.8218,8.987
14.192000,7.3478,-2.4291,3.9957,8.710
14.201000,7.5792,-2.1861,3.1180,8.482
14.203000,7.7332,-2.0073,2.1999,8.287
14.206000,7.7779,-1.9076,1.3103,8.115
14.211000,7.6841,-1.9346,0.4415,7.936
14.282000,7.4659,-2.0765,-0.4006,7.760
14.283000,7.1364,-2.3267,-1.1875,7.599
14.283000,6.6721,-2.6677,-1.9135,7.436
14.284000,6.0955,-3.0410,-2.5705,7.281
14.284000,5.4151,-3.4020,-3.1385,7.124
14.285000,4.6516,-3.7492,-3.5600,6.955
14.286000,3.8086,-4.0532,-3.8432,6.760
14.287000,2.9272,-4.3137,-3.9843,6.561
14.287000,2.0421,-4.5182,-3.9712,6.353
14.288000,1.2076,-4.6874,-3.8326,6.174
14.289000,0.4539,-4.8036,-3.6481,6.049
14.290000,-0.1794,-4.8326,-3.4515,5.941
14.291000,-0.6801,-4.7893,-3.2617,5.834
14.292000,-1.0998,-4.6821,-3.0789,5.711
14.292000,-1.4317,-4.5118,-2.8996,5.551
14.293000,-1.6855,-4.3246,-2.7059,5.373
14.297000,-1.8736,-4.1377,-2.4891,5.179
14.301000,-2.0232,-3.9452,-2.2806,4.986
14.306000,-2.0648,-3.7345,-2.0970,4.755
14.311000,-2.2577,-3.4950,-1.9688,4.603
14.381000,-2.4158,-3.2440,-1.9118,4.474
14.381000,-2.6496,-3.0010,-1.9059,4.434
14.382000,-2.9763,-2.7565,-1.9137,4.485
14.382000,-3.3582,-2.5614,-1.8721,4.620
14.382000,-3.8404,-2.4286,-1.7677,4.876
14.382000,-4.3943,-2.3319,-1.6744,5.249
14.383000,-4.9628,-2.2492,-1.5646,5.669
14.383000,-5.5460,-2.1802,-1.4255,6.127
14.383000,-6.1276,-2.1468,-1.2565,6.613
14.384000,-6.7100,-2.1140,-1.0635,7.115
14.384000,-7.2982,-2.0915,-0.8728,7.642
14.384000,-7.8445,-2.0622,-0.7223,8.143
14.385000,-8.3250,-2.0520,-0.6020,8.595
14.385000,-8.7303,-2.0579,-0.5236,8.985
14.387000,-9.0441,-2.1258,-0.4820,9.303
14.391000,-9.2594,-2.2399,-0.4837,9.539
14.453000,-9.3954,-2.3980,-0.5240,9.711
14.453000,-9.4453,-2.5519,-0.6527,9.806
14.454000,-9.4379,-2.7062,-0.8363,9.854
14.454000,-9.3687,-2.8276,-1.0484,9.842
14.454000,-9.2279,-2.9370,-1.2700,9.767
14.454000,-9.0491,-3.0728,-1.4705,9.669
14.454000,-8.8490,-3.2614,-1.6049,9.566
14.455000,-8.6299,-3.5149,-1.6954,9.471
14.455000,-8.4441,-3.8309,-1.7617,9.438
14.455000,-8.3155,-4.1666,-1.8189,9.477
14.455000,-8.2555,-4.5093,-1.8890,9.595
14.456000,-8.2664,-4.8634,-1.9701,9.791
14.458000,-8.3213,-5.2330,-2.0769,10.047
14.463000,-8.3935,-5.6003,-2.2242,10.332
14.470000,-8.4657,-5.9496,-2.3672,10.615
14.473000,-8.5087,-6.2585,-2.4732,10.848
14.477000,-8.5219,-6.4924,-2.5434,11.011
14.484000,-8.4976,-6.6702,-2.5140,11.091
14.489000,-8.3588,-6.8152,-2.3718,11.043
14.492000,-8.0787,-6.9537,-2.1659,10.877
14.496000,-7.6378,-7.1045,-1.9715,10.616
14.593000,-6.9999,-7.2508,-1.8174,10.241
14.594000,-6.2036,-7.3791,-1.6747,9.785
14.594000,-5.2991,-7.4414,-1.6146,9.277
14.595000,-4.2529,-7.3402,-1.6862,8.649
14.595000,-3.0774,-7.0403,-1.8161,7.895
14.595000,-1.8181,-6.5492,-1.9741,7.078
14.596000,-0.4933,-5.8958,-2.1532,6.296
14.596000,0.9327,-5.1074,-2.3040,5.680
14.597000,2.4036,-4.1978,-2.3822,5.392
14.597000,3.8442,-3.2410,-2.4032,5.573
14.597000,5.1814,-2.2920,-2.3468,6.133
14.598000,6.3713,-1.4191,-2.2028,6.889
14.598000,7.3621,-0.6399,-2.0095,7.658
14.598000,8.1081,0.0691,-1.8388,8.314
14.599000,8.6089,0.7073,-1.6766,8.799
14.599000,8.8717,1.2744,-1.5085,9.089
14.599000,8.9370,1.7559,-1.3258,9.204
14.600000,8.8271,2.1478,-1.0712,9.148
14.600000,8.6061,2.4105,-0.7321,8.967
14.600000,8.3248,2.5403,-0.3259,8.710
14.604000,7.9834,2.5563,0.1488,8.384
14.608000,7.5968,2.4852,0.6429,8.019
14.613000,7.1081,2.3303,1.0888,7.559
14.622000,6.5150,2.1439,1.5189,7.025
14.624000,5.7898,1.9225,1.9259,6.397
14.628000,4.9808,1.7480,2.3381,5.773
14.707000,4.1318,1.6188,2.7316,5.211
14.708000,3.2861,1.5834,3.0872,4.779
14.708000,2.4827,1.6259,3.3788,4.497
14.709000,1.7336,1.7487,3.5992,4.361
14.709000,1.0633,1.9886,3.7392,4.366
14.709000,0.5220,2.3362,3.8063,4.497
14.709000,0.1313,2.7845,3.8156,4.725
14.710000,-0.1001,3.3187,3.7890,5.038
14.710000,-0.1914,3.9314,3.7463,5.434
14.710000,-0.1442,4.5710,3.6921,5.878
14.710000,0.0027,5.2129,3.6171,6.345
14.711000,0.2389,5.8279,3.5332,6.819
14.711000,0.5612,6.4030,3.4162,7.279
14.711000,0.8993,6.8968,3.2756,7.688
14.711000,1.2240,7.2946,3.1136,8.025
14.711000,1.4983,7.5763,2.9250,8.258
14.712000,1.6864,7.7203,2.7242,8.359
14.763000,1.7452,7.7105,2.4949,8.290
14.763000,1.6773,7.5469,2.2437,8.050
14.764000,1.4886,7.2523,2.0045,7.670
14.764000,1.2420,6.8757,1.7892,7.212
14.764000,1.0364,6.4537,1.5905,6.727
14.764000,0.9177,5.9846,1.4780,6.232
14.765000,0.8841,5.4762,1.4942,5.745
14.765000,0.9551,4.8788,1.5499,5.207
14.765000,1.1552,4.2145,1.6777,4.681
14.765000,1.4893,3.5147,1.9061,4.267
14.767000,1.9669,2.7987,2.2248,4.081
14.773000,2.5617,2.0543,2.6190,4.200
14.778000,3.2664,1.2890,3.0455,4.648
14.783000,4.0666,0.5125,3.5616,5.430
14.789000,4.9765,-0.2684,4.1381,6.478
14.792000,5.9265,-1.0177,4.7893,7.687
14.800000,6.8467,-1.7192,5.5557,8.983
14.802000,7.6652,-2.3306,6.3745,10.238
14.808000,8.2934,-2.8093,7.1611,11.312
14.812000,8.7099,-3.1343,7.9104,12.176
14.903000,8.9220,-3.3303,8.6310,12.853
14.904000,8.8987,-3.3404,9.0831,13.147
14.904000,8.7623,-3.2750,9.4536,13.299
14.904000,8.5926,-3.2585,9.8200,13.449
14.905000,8.4856,-3.2124,9.9945,13.499
14.905000,8.3810,-3.0797,9.8174,13.271
14.905000,8.3166,-2.8950,9.3251,12.826
14.905000,8.3295,-2.6551,8.6476,12.297
14.906000,8.4209,-2.3494,7.7878,11.708
14.906000,8.6035,-2.0278,6.7235,11.106
14.906000,8.8153,-1.7832,5.4826,10.533
14.907000,8.9444,-1.6904,4.1008,9.984
14.907000,8.9246,-1.8029,2.6866,9.493
14.907000,8.7458,-2.0698,1.2768,9.078
14.908000,8.3863,-2.4522,-0.1108,8.738
14.908000,7.8583,-2.8959,-1.4065,8.492
14.908000,7.2031,-3.3400,-2.5867,8.351
14.908000,6.4659,-3.7238,-3.6255,8.296
14.908000,5.6117,-4.0843,-4.5055,8.275
14.915000,4.6999,-4.3885,-5.1934,8.266
14.917000,3.7205,-4.6249,-5.6921,8.224
14.923000,2.6994,-4.7917,-5.9914,8.133
14.928000,1.6529,-4.9095,-6.1392,8.033
14.933000,0.6273,-4.9606,-6.1219,7.904
14.939000,-0.3354,-4.9686,-5.9430,7.754
14.942000,-1.1931,-4.9184,-5.6061,7.553
15.005000,-1.9137,-4.8264,-5.1295,7.298
15.006000,-2.4992,-4.7291,-4.5475,7.021
15.006000,-2.9177,-4.5799,-3.9518,6.716
15.006000,-3.1820,-4.4307,-3.3556,6.404
15.006000,-3.3313,-4.2849,-2.7668,6.092
15.007000,-3.4118,-4.1555,-2.2239,5.818
15.007000,-3.4649,-4.0553,-1.7553,5.615
15.007000,-3.5202,-3.9614,-1.4031,5.482
15.007000,-3.5921,-3.8703,-1.1541,5.405
15.008000,-3.6743,-3.7826,-0.9924,5.366
15.008000,-3.7577,-3.6816,-0.8880,5.335
15.008000,-3.8546,-3.5717,-0.8178,5.318
15.009000,-3.9513,-3.4389,-0.7853,5.297
15.014000,-4.0556,-3.2953,-0.7561,5.280
15.018000,-4.1604,-3.1305,-0.7049,5.254
15.023000,-4.2544,-2.9738,-0.6380,5.230
15.028000,-4.2852,-2.8345,-0.5720,5.170
15.114000,-4.2579,-2.6793,-0.5346,5.059
15.115000,-4.1922,-2.5136,-0.5398,4.918
15.115000,-4.0790,-2.3031,-0.5721,4.719
15.115000,-3.9475,-2.0605,-0.6256,4.497
15.116000,-3.7791,-1.7983,-0.6924,4.242
15.116000,-3.5886,-1.5265,-0.7528,3.972
15.117000,-3.6032,-1.2768,-0.7925,3.904
15.117000,-3.1605,-1.0911,-0.8139,3.441
15.117000,-2.9350,-0.9783,-0.8487,3.208
15.118000,-2.7325,-0.9270,-0.9456,3.036
15.118000,-2.5621,-0.9350,-1.1049,2.943
15.118000,-2.4045,-0.9634,-1.3488,2.920
15.119000,-2.2929,-1.0102,-1.6389,2.994
15.119000,-2.2077,-1.0623,-1.9544,3.134
15.120000,-2.1223,-1.1364,-2.2405,3.289
15.120000,-2.1130,-1.2753,-2.5483,3.548
15.120000,-2.2034,-1.4974,-2.8948,3.934
15.120000,-2.3287,-1.7656,-3.1602,4.304
15.124000,-2.4457,-2.0534,-3.3142,4.602
15.128000,-2.5226,-2.2796,-3.4209,4.823
15.134000,-2.5523,-2.4342,-3.5429,4.999
15.139000,-2.5325,-2.5668,-3.6515,5.132
15.144000,-2.4443,-2.6575,-3.7304,5.192
15.150000,-2.2016,-2.6821,-3.8158,5.158
15.155000,-1.8621,-2.6180,-3.9175,5.066
15.158000,-1.5077,-2.4315,-3.9988,4.917
15.265000,-0.9282,-2.2373,-4.1573,4.811
15.266000,-0.1817,-1.9691,-4.3611,4.788
15.267000,0.6548,-1.6135,-4.6354,4.952
15.267000,1.4852,-1.2289,-4.9504,5.312
15.267000,2.2687,-0.8204,-5.2797,5.805
15.268000,3.0074,-0.4275,-5.4273,6.220
15.268000,3.5247,-0.2636,-5.6920,6.700
15.268000,4.1708,0.1146,-5.9970,7.306
15.269000,4.8562,0.6410,-5.9132,7.678
15.269000,5.4470,1.1587,-5.7447,8.001
15.270000,5.8331,1.5777,-5.5098,8.178
15.270000,6.0317,1.8490,-5.2018,8.177
15.270000,6.0793,1.9839,-4.7525,7.968
15.271000,6.0054,2.0368,-4.1597,7.584
15.271000,5.8560,2.0738,-3.5573,7.159
15.271000,5.6030,2.0969,-2.9958,6.691
15.272000,5.2157,2.0717,-2.4456,6.122
15.272000,4.6993,1.9981,-1.9250,5.457
15.274000,4.0994,1.8760,-1.3971,4.720
15.275000,3.4309,1.7036,-0.9041,3.936
15.275000,2.7800,1.5291,-0.4904,3.211
15.276000,2.1470,1.3328,-0.2533,2.540
15.277000,1.5509,1.1442,-0.2000,1.938
15.280000,1.0157,0.9859,-0.2701,1.441
15.286000,0.5627,0.9090,-0.3575,1.127
15.289000,0.2276,0.9211,-0.4447,1.048
15.294000,0.0368,1.0055,-0.5531,1.148
15.388000,-0.0579,1.1003,-0.7317,1.323
15.389000,-0.1758,1.1862,-0.8868,1.491
15.389000,-0.3574,1.2967,-0.8699,1.602
15.390000,-0.5184,1.3770,-0.8829,1.716
15.390000,-0.6525,1.3861,-0.5239,1.619
15.390000,-0.7366,1.3407,-0.1079,1.533
15.391000,-0.7640,1.2830,0.4161,1.550
15.391000,-0.8266,1.1477,0.9508,1.704
15.391000,-0.8301,0.9436,1.4843,1.945
15.392000,-0.8097,0.7272,1.8948,2.185
15.392000,-0.8639,0.5478,2.0157,2.260
15.392000,-1.0309,0.4207,1.8437,2.154
15.393000,-1.2570,0.3774,1.5093,2.000
15.393000,-1.4908,0.3952,1.1591,1.929
15.393000,-1.6954,0.4248,0.9040,1.968
15.394000,-1.8651,0.4261,0.7910,2.070
15.394000,-1.9803,0.3696,0.7701,2.157
15.394000,-2.0049,0.2434,0.7995,2.172
15.394000,-1.9124,0.0646,0.8568,2.097
15.395000,-1.7029,-0.1449,0.9636,1.962
15.475000,-1.3790,-0.3281,1.0748,1.779
15.476000,-0.9620,-0.4666,1.1642,1.581
15.476000,-0.5699,-0.5992,1.2385,1.489
15.476000,-0.2742,-0.7533,1.2721,1.504
15.476000,-0.0872,-0.9271,1.2402,1.551
15.477000,-0.0308,-1.1238,1.2405,1.674
15.477000,-0.0906,-1.3773,1.3045,1.899
15.477000,-0.2084,-1.6067,1.4260,2.158
15.477000,-0.3961,-1.7058,1.5642,2.348
15.478000,-0.6149,-1.7364,1.6677,2.485
15.478000,-0.7857,-1.7505,1.7549,2.600
15.478000,-0.8700,-1.7377,1.8920,2.712
15.479000,-0.8459,-1.7284,2.0539,2.814
15.479000,-0.7236,-1.7213,2.1838,2.873
15.479000,-0.4719,-1.7309,2.2766,2.899
15.479000,-0.1458,-1.7810,2.3274,2.934
15.480000,0.2144,-1.8910,2.3436,3.019
15.489000,0.5371,-2.0894,2.2840,3.142
15.490000,0.9474,-2.2566,2.1074,3.230
15.494000,1.3941,-2.4257,1.8970,3.380
15.589000,1.7606,-2.6261,1.7386,3.608
15.590000,1.9588,-2.8575,1.6581,3.841
15.591000,2.0776,-3.0356,1.6194,4.019
15.591000,2.2833,-3.0698,1.5474,4.127
15.591000,2.4477,-3.0987,1.4895,4.220
15.592000,2.5779,-3.0620,1.5084,4.277
15.592000,2.6459,-2.9954,1.5171,4.275
15.592000,2.5020,-3.0420,1.6058,4.254
15.593000,2.0456,-3.3438,1.9489,4.378
15.593000,2.3661,-3.2083,1.8257,4.385
15.594000,2.8894,-2.8097,2.1587,4.572
15.594000,3.4482,-2.3057,2.5322,4.860
15.594000,3.7946,-1.9873,2.6354,5.029
15.595000,3.9209,-1.8905,2.7569,5.152
15.595000,3.9559,-1.9222,2.8713,5.252
15.595000,3.9558,-2.0371,3.0636,5.402
15.596000,3.8315,-2.2019,3.3816,5.564
15.596000,3.4748,-2.4857,3.5509,5.555
15.597000,2.9255,-2.7986,3.5911,5.412
15.597000,2.3460,-3.0731,3.6624,5.325
15.655000,1.6555,-3.3335,3.7334,5.272
15.656000,0.8966,-3.6136,3.6383,5.206
15.656000,0.2729,-3.7591,3.4148,5.086
15.657000,-0.2443,-3.8350,3.1022,4.939
15.657000,-0.6992,-3.8992,2.7549,4.825
15.657000,-0.9426,-3.8606,2.3678,4.626
15.657000,-1.0129,-3.8032,1.9620,4.398
15.658000,-1.0369,-3.7996,1.5476,4.232
15.658000,-0.9286,-3.7558,1.1563,4.038
15.658000,-0.7578,-3.6665,0.6731,3.804
15.658000,-0.5890,-3.5312,0.0726,3.581
15.658000,-0.3598,-3.3402,-0.4489,3.389
15.659000,-0.0948,-3.1286,-0.7084,3.209
15.664000,0.1531,-2.9225,-0.8387,3.044
15.669000,0.3759,-2.6834,-0.9914,2.885
15.674000,0.5453,-2.4360,-0.9504,2.671
15.679000,0.7025,-2.1207,-0.7352,2.352
15.730000,0.8710,-1.7959,-0.4152,2.039
15.731000,0.9973,-1.7474,1.8605,2.740
15.732000,-0.3917,-2.2036,6.3779,6.759
15.732000,0.2768,-1.8444,7.0084,7.252
15.732000,1.0647,-1.1340,5.7182,5.926
15.733000,1.4799,-0.6631,3.8133,4.144
15.733000,1.2362,-0.6640,2.4490,2.823
15.734000,1.2534,-0.8196,1.2587,1.956
15.734000,1.4887,-0.8786,0.2906,1.753
15.735000,1.8907,-0.8686,-0.1525,2.086
