SensorId, TimeStamp (s), FrameNumber, AccX (g), AccY (g), AccZ (g), GyroX (deg/s), GyroY (deg/s), GyroZ (deg/s), MagX (uT), MagY (uT), MagZ (uT), EulerX (deg), EulerY (deg), EulerZ (deg), QuatW, QuatX, QuatY, QuatZ, LinAccX (g), LinAccY (g), LinAccZ (g), Pressure (kPa), Altitude (m), Temperature (degC), HeaveMotion (m)
1, -0.0000, 0, 0.07969639, -1.00048184, 0.14650951, -8.81060886, -0.12546872, 6.07844353, -30.45892906, 8.47705364, -109.23706055, 95.34437561, -2.54839039, 80.44100952, 0.50342023, -0.57403636, -0.46583998, -0.44726232, -0.12410571, 0.00560724, -0.05432907, 100.32100677, 83.91182709, 31.44999886, 0.00000000
4, -0.0000, 0, 0.05445314, -0.95943356, 0.21787426, 4.60647535, 8.98772335, 0.37056202, -34.96053696, -35.69131851, -14.96638393, 103.34232330, 0.08949090, 12.22004223, 0.61671627, -0.77995610, -0.08397830, -0.06540090, -0.05284096, -0.01359770, 0.01279376, 100.32000732, 83.99569702, 31.67999840, 0.00000000
5, -0.0000, 0, 0.01639672, -0.99788457, 0.15695432, -3.76517701, 6.09617090, 2.91315103, -49.48845291, 0.99386144, -99.53230286, 98.89436340, -6.99604797, -19.43462181, -0.64745188, 0.74081469, -0.16710576, -0.06383853, -0.13811484, 0.01727015, -0.00339618, 100.25000763, 89.87149811, 30.55999947, 0.00000000
4, 0.0050, 1, 0.05284042, -0.96393526, 0.21311641, 4.93069887, 8.40717793, 0.03890558, -35.28208160, -35.95439911, -15.05407715, 103.36703491, 0.07959139, 12.26089764, 0.61651748, -0.78006488, -0.08421727, -0.06566999, -0.05141032, -0.00899813, 0.01796523, 100.32000732, 83.99569702, 31.67999840, 0.00000000
4, 0.0100, 2, 0.05221139, -0.96587306, 0.20796624, 5.00657749, 7.82550955, -0.25253871, -35.28208160, -35.95439911, -15.05407715, 103.38671875, 0.08359005, 12.30048847, 0.61636364, -0.78013921, -0.08451959, -0.06584126, -0.05082356, -0.00697026, 0.02349396, 100.32000732, 83.99569702, 31.67999840, 0.00000000
1, 0.0100, 1, 0.03874042, -1.00525236, 0.13257849, -9.76686001, -4.27301931, 8.76088047, -30.54662323, 8.50628471, -109.35398865, 95.25339508, -2.62433791, 80.39521790, 0.50373101, -0.57410216, -0.46490717, -0.44779801, -0.08438376, 0.01031101, -0.04207712, 100.32100677, 83.91182709, 31.44999886, 0.00000000
1, 0.0200, 2, 0.00552062, -1.00577307, 0.12708907, -10.72107315, -4.40779400, 10.41726780, -30.95586014, 8.09704781, -109.38321686, 95.14893341, -2.72445059, 80.34196472, 0.50403607, -0.57422721, -0.46377224, -0.44847104, -0.05270272, 0.01075472, -0.03839530, 100.32100677, 83.91182709, 31.44999886, 0.00000000
1, 0.0300, 3, -0.00726650, -1.01418376, 0.12866558, -11.17318821, -3.56446910, 11.40705872, -30.80970383, 8.44782257, -108.94475555, 95.03968811, -2.83525062, 80.29642487, 0.50428981, -0.57433820, -0.46260631, -0.44924712, -0.04178655, 0.01908511, -0.04188157, 100.32100677, 83.91182709, 31.44999886, 0.00000000
2, 0.0000, 0, -0.06331573, -0.94639087, -0.27902561, -1.33607674, 2.63386345, 1.61213231, -21.66033363, 20.72493362, -93.10143280, 71.61461639, -0.66715723, -175.17257690, -0.03755776, 0.01992226, -0.58473086, -0.81011260, 0.05168672, -0.00251171, -0.03632904, 100.27100372, 88.10873413, 0.00000000, 0.00000000
2, 0.0050, 1, -0.05937177, -0.94851846, -0.28211787, -1.47975516, 2.84259081, 1.47547925, -21.45571518, 18.91259766, -93.13066101, 71.60704041, -0.66967410, -175.15675354, -0.03768373, 0.01998267, -0.58467519, -0.81014550, 0.04769500, -0.00034195, -0.03336208, 100.27100372, 88.10873413, 0.00000000, 0.00000000
5, 0.0300, 1, 0.02733447, -1.00356925, 0.15304510, -5.86403608, 0.06079398, 1.28894401, -49.19614029, 0.78924292, -99.70768738, 98.72852325, -7.06835508, -19.35170937, -0.64862508, 0.73989969, -0.16687725, -0.06313571, -0.15036207, 0.02267865, -0.00232066, 100.25000763, 89.87149811, 30.55999947, 0.00000000
5, 0.0350, 2, 0.02806433, -1.00425625, 0.16092072, -6.06135798, -1.22718406, 1.07015312, -49.19614029, 0.78924292, -99.70768738, 98.70233917, -7.01698923, -19.34398842, -0.64875895, 0.73983228, -0.16652916, -0.06346774, -0.15069458, 0.02324445, -0.01066269, 100.25000763, 89.87149811, 30.55999947, 0.00000000
5, 0.0400, 3, 0.02867184, -1.00606596, 0.16283815, -6.33143902, -2.41172552, 0.82111657, -49.37152863, 0.52616191, -100.00000000, 98.67223358, -7.01922512, -19.35662460, -0.64894807, 0.73964041, -0.16660641, -0.06356835, -0.15087084, 0.02492741, -0.01305665, 100.25000763, 89.87149811, 30.55999947, 0.00000000
2, 0.0100, 2, -0.05640202, -0.94986552, -0.28490621, -1.52201521, 2.43117023, 0.91283381, -21.45571518, 18.91259766, -93.13066101, 71.59927368, -0.67016810, -175.14376831, -0.03777935, 0.02004282, -0.58461815, -0.81018072, 0.04470727, 0.00104806, -0.03070232, 100.27100372, 88.10873413, 0.00000000, 0.00000000
3, -0.0000, 0, -0.02848279, -0.98448646, 0.19154507, 10.79932308, 3.44798064, -8.72334194, -21.13417053, -17.97719955, -50.01461411, 100.92795563, -4.23348284, 55.45356369, -0.54983330, 0.69314277, 0.33775952, 0.32117757, -0.04585151, 0.00520815, -0.00316241, 100.35800171, 80.80782318, 30.76999855, 0.00000000
3, 0.0100, 1, -0.04589372, -0.98317260, 0.17462291, 10.52929974, 1.10880089, -8.06637001, -21.13417053, -18.44489861, -50.13153839, 101.02718353, -4.15223551, 55.47835541, -0.54943252, 0.69335347, 0.33859563, 0.32052746, -0.02707086, 0.00413364, 0.01553088, 100.35800171, 80.80782318, 30.76999855, 0.00000000
4, 0.0350, 3, 0.04779686, -0.96951926, 0.21590514, 5.96144342, 3.80223250, -0.93979979, -35.19438553, -35.28208160, -14.93715286, 103.52868652, 0.07030018, 12.43396568, 0.61530989, -0.78081107, -0.08543930, -0.06654383, -0.04657230, -0.00276321, 0.01790049, 100.32000732, 83.99569702, 31.67999840, 0.00000000
4, 0.0400, 4, 0.04679222, -0.96717662, 0.20946904, 6.07436085, 3.01262808, -1.16603863, -35.19438553, -35.28208160, -14.93715286, 103.55906677, 0.07244188, 12.44997406, 0.61509508, -0.78096092, -0.08557753, -0.06659251, -0.04553996, -0.00498211, 0.02485049, 100.32000732, 83.99569702, 31.67999840, 0.00000000
2, 0.0400, 3, -0.03744870, -0.94880962, -0.28458223, -1.27058637, 0.99582219, -1.54119468, -21.36802101, 20.16954041, -93.51066589, 71.57621765, -0.67101908, -175.11315918, -0.03800418, 0.02018533, -0.58444995, -0.81028789, 0.02569538, 0.00012183, -0.03141353, 100.27100372, 88.10873413, 0.00000000, 0.00000000
2, 0.0450, 4, -0.03567971, -0.94591558, -0.28368032, -0.71045029, 1.27654541, -1.84722352, -21.36802101, 20.16954041, -93.51066589, 71.57262421, -0.66023904, -175.11001587, -0.03797206, 0.02027640, -0.58442110, -0.81030804, 0.02410654, -0.00274912, -0.03239151, 100.27100372, 88.10873413, 0.00000000, 0.00000000
2, 0.0500, 5, -0.04135026, -0.94000858, -0.28282607, -0.04626148, 1.76618147, -2.25393939, -21.36802101, 20.16954041, -93.51066589, 71.57233429, -0.64675564, -175.10520935, -0.03793744, 0.02039624, -0.58441454, -0.81031144, 0.03000060, -0.00865311, -0.03326281, 100.27100372, 88.10873413, 0.00000000, 0.00000000
5, 0.0450, 4, 0.02654459, -1.00495052, 0.15847854, -7.02728701, -3.84438348, 0.42781001, -49.37152863, 0.52616191, -100.00000000, 98.63948059, -7.01844740, -19.37609482, -0.64914799, 0.73942757, -0.16670956, -0.06373139, -0.14873898, 0.02372739, -0.00924771, 100.25000763, 89.87149811, 30.55999947, 0.00000000
5, 0.0500, 5, 0.02186551, -1.00134885, 0.15553658, -7.37473345, -4.61286449, 0.26383436, -49.37152863, 0.52616191, -100.00000000, 98.60543060, -7.01629448, -19.39927292, -0.64935309, 0.73920387, -0.16682822, -0.06392638, -0.14402883, 0.02003506, -0.00687839, 100.25000763, 89.87149811, 30.55999947, 0.00000000
5, 0.0550, 6, 0.02028479, -0.99950749, 0.14464179, -7.65107489, -5.31095171, 0.03271153, -49.10844803, 0.93539900, -100.23384857, 98.57040405, -7.01249123, -19.42575264, -0.64956129, 0.73897201, -0.16695841, -0.06415246, -0.14238766, 0.01809511, 0.00341598, 100.25000763, 89.87149811, 30.55999947, 0.00000000
1, 0.0400, 4, -0.00022961, -1.01049256, 0.12497956, -12.33189678, -3.07931948, 12.55504417, -30.80970383, 8.44782257, -108.94475555, 94.91878510, -2.95801497, 80.25497437, 0.50453562, -0.57442427, -0.46135789, -0.45014384, -0.05086838, 0.01532461, -0.04019796, 100.32100677, 83.91182709, 31.44999886, 0.00000000
1, 0.0500, 5, 0.01679704, -1.00182593, 0.12716042, -13.44577122, -3.18696523, 14.47699928, -30.40046692, 8.03858471, -109.52937317, 94.78701019, -3.09997749, 80.21112061, 0.50476414, -0.57454169, -0.45996356, -0.45116362, -0.07024141, 0.00658434, -0.04456618, 100.32100677, 83.91182709, 31.44999886, 0.00000000
1, 0.0600, 6, 0.03086262, -0.99835753, 0.13058451, -14.02074718, -5.17470169, 16.55759811, -31.01432228, 8.27243519, -109.64630127, 94.65465546, -3.25411510, 80.15033722, 0.50501114, -0.57476771, -0.45842260, -0.45216659, -0.08696759, 0.00306105, -0.05027947, 100.32100677, 83.91182709, 31.44999886, 0.00000000
4, 0.0450, 5, 0.03896621, -0.96791941, 0.20994000, 6.22134924, 2.39497995, -1.35496986, -35.34054184, -35.83747482, -14.79099655, 103.59018707, 0.07621770, 12.46320438, 0.61487812, -0.78111583, -0.08570606, -0.06661452, -0.03765372, -0.00411299, 0.02490295, 100.32000732, 83.99569702, 31.67999840, 0.00000000
4, 0.0500, 6, 0.03299235, -0.96800911, 0.21170227, 6.18787766, 2.19351053, -1.70692098, -35.34054184, -35.83747482, -14.79099655, 103.62114716, 0.08193287, 12.47587204, 0.61466390, -0.78126907, -0.08584107, -0.06662033, -0.03158896, -0.00389618, 0.02366573, 100.32000732, 83.99569702, 31.67999840, 0.00000000
4, 0.0550, 7, 0.02405758, -0.96754175, 0.21267614, 6.18956995, 2.02605581, -2.02410722, -35.28208160, -37.24057388, -14.84945869, 103.65210724, 0.08937950, 12.48810291, 0.61445117, -0.78142154, -0.08598239, -0.06661193, -0.02253041, -0.00423536, 0.02322009, 100.32000732, 83.99569702, 31.67999840, 0.00000000
3, 0.0200, 2, -0.05287185, -0.98082095, 0.16249846, 10.90515804, 0.04338431, -7.59360361, -21.42648315, -17.86027527, -49.31306458, 101.13515472, -4.07780123, 55.49341202, -0.54898345, 0.69365031, 0.33936197, 0.31984356, -0.01872250, 0.00202751, 0.02943165, 100.35800171, 80.80782318, 30.76999855, 0.00000000
3, 0.0300, 3, -0.05637323, -0.97507936, 0.16026668, 11.58662128, 0.37813613, -7.42222977, -21.30955887, -17.83104324, -49.72230148, 101.24974060, -4.00572538, 55.51157379, -0.54847765, 0.69397455, 0.34015253, 0.31916749, -0.01395279, -0.00342588, 0.03359260, 100.35800171, 80.80782318, 30.76999855, 0.00000000
3, 0.0400, 4, -0.06021732, -0.97598147, 0.18006323, 12.09000111, 1.30246758, -7.32937670, -21.01724625, -17.59719276, -49.54691696, 101.36876678, -3.93640852, 55.53878784, -0.54791051, 0.69429886, 0.34099525, 0.31853646, -0.00888189, -0.00220574, 0.01583091, 100.35800171, 80.80782318, 30.76999855, 0.00000000
5, 0.0600, 7, 0.02301978, -0.99524730, 0.13580237, -7.46590376, -5.72569466, -0.12231190, -49.10844803, 0.93539900, -100.23384857, 98.53655243, -7.00763035, -19.45418358, -0.64975989, 0.73874515, -0.16709584, -0.06439492, -0.14504543, 0.01373789, 0.01167300, 100.25000763, 89.87149811, 30.55999947, 0.00000000
5, 0.0650, 8, 0.02472180, -0.99339265, 0.13492720, -7.28518963, -5.68850613, -0.50287950, -48.84536743, 1.49079216, -100.35077667, 98.50353241, -7.00092936, -19.48215103, -0.64995176, 0.73852623, -0.16722043, -0.06464566, -0.14663669, 0.01178447, 0.01198045, 100.25000763, 89.87149811, 30.55999947, 0.00000000
5, 0.0700, 9, 0.02794226, -0.99788326, 0.13960798, -6.82224464, -5.33528519, -0.83938402, -48.84536743, 1.49079216, -100.35077667, 98.47257996, -6.99284172, -19.50811005, -0.65013027, 0.73832381, -0.16732545, -0.06489116, -0.14972156, 0.01617775, 0.00676221, 100.25000763, 89.87149811, 30.55999947, 0.00000000
2, 0.0550, 6, -0.04747049, -0.93489736, -0.28566119, 0.79406619, 2.01416516, -2.73295021, -21.07570839, 20.78339577, -93.33528137, 71.57625580, -0.63060850, -175.09996033, -0.03789147, 0.02053846, -0.58443683, -0.81029379, 0.03639027, -0.01378164, -0.03038558, 100.27100372, 88.10873413, 0.00000000, 0.00000000
2, 0.0600, 7, -0.05150107, -0.93343872, -0.28662223, 1.45977402, 2.01845574, -3.11213350, -21.07570839, 20.78339577, -93.33528137, 71.58350372, -0.61265618, -175.09530640, -0.03783160, 0.02069160, -0.58448231, -0.81025988, 0.04072601, -0.01527897, -0.02931860, 100.27100372, 88.10873413, 0.00000000, 0.00000000
2, 0.0650, 8, -0.05469887, -0.93054795, -0.29036930, 2.23061252, 1.95420122, -3.56137013, -20.69570351, 20.49108505, -92.69219208, 71.59461975, -0.59267467, -175.09167480, -0.03775351, 0.02085519, -0.58455479, -0.81020713, 0.04426629, -0.01823014, -0.02540173, 100.27100372, 88.10873413, 0.00000000, 0.00000000
4, 0.0600, 8, 0.01812975, -0.96676040, 0.20877689, 6.15524244, 1.92748988, -2.33926153, -35.28208160, -37.24057388, -14.84945869, 103.67552948, 0.10304502, 12.50074863, 0.61429429, -0.78152955, -0.08615550, -0.06656894, -0.01641257, -0.00490546, 0.02757590, 100.32000732, 83.99569702, 31.67999840, 0.00000000
4, 0.0650, 9, 0.01535741, -0.96664733, 0.20926382, 6.23057508, 1.41479182, -2.62943506, -35.28208160, -37.24057388, -14.84945869, 103.70671082, 0.11414324, 12.51073265, 0.61408406, -0.78168255, -0.08630118, -0.06652328, -0.01341551, -0.00490451, 0.02755491, 100.32000732, 83.99569702, 31.67999840, 0.00000000
4, 0.0700, 10, 0.00895698, -0.96548784, 0.21311618, 6.09256315, 0.97112840, -2.94866467, -34.60976410, -35.36977386, -14.90792179, 103.73719788, 0.12731446, 12.51894951, 0.61388111, -0.78183180, -0.08644546, -0.06645446, -0.00679518, -0.00593686, 0.02422226, 100.32000732, 83.99569702, 31.67999840, 0.00000000
5, 0.0750, 10, 0.02624024, -0.99929005, 0.13939814, -6.74729347, -5.47318029, -1.12178993, -48.84536743, 1.49079216, -100.35077667, 98.44207764, -6.98326874, -19.53455353, -0.65030444, 0.73812509, -0.16742548, -0.06514857, -0.14786246, 0.01748732, 0.00644962, 100.25000763, 89.87149811, 30.55999947, 0.00000000
1, 0.0700, 7, 0.03890446, -0.99606657, 0.13479485, -14.35590935, -9.27522850, 18.95283127, -30.86816597, 8.44782257, -109.73399353, 94.51785278, -3.43616533, 80.04282379, 0.50534737, -0.57526070, -0.45649627, -0.45311177, -0.09796066, 0.00074277, -0.05680522, 100.32100677, 83.91182709, 31.44999886, 0.00000000
1, 0.0800, 8, 0.05298220, -0.99670923, 0.13610248, -14.72041607, -12.35530949, 21.63565254, -30.92663002, 6.16778708, -110.20169067, 94.37981415, -3.64287233, 79.90290833, 0.50571513, -0.57596332, -0.45428261, -0.45403281, -0.11547501, 0.00140305, -0.06047918, 100.32100677, 83.91182709, 31.44999886, 0.00000000
1, 0.0900, 9, 0.07443427, -0.99159384, 0.14983131, -15.50389194, -14.55682659, 24.57258606, -30.92663002, 6.16778708, -110.20169067, 94.23611450, -3.87762856, 79.73932648, 0.50608861, -0.57683122, -0.45179021, -0.45500094, -0.14086039, -0.00367222, -0.07662147, 100.32100677, 83.91182709, 31.44999886, 0.00000000
1, 0.1000, 10, 0.10519350, -1.00182545, 0.16753852, -16.59115791, -16.40274620, 28.55590439, -31.56971550, 7.98012257, -110.11399841, 94.08381653, -4.15123892, 79.55495453, 0.50642598, -0.57787663, -0.44896865, -0.45609057, -0.17615815, 0.00664715, -0.09687439, 100.32100677, 83.91182709, 31.44999886, 0.00000000
3, 0.0500, 5, -0.06758741, -0.97574258, 0.17036286, 12.44761467, 1.56111717, -7.48748159, -21.01724625, -17.59719276, -49.54691696, 101.49119568, -3.86611414, 55.56900406, -0.54731750, 0.69462734, 0.34186935, 0.31790239, -0.00030194, -0.00211190, 0.02760474, 100.35800171, 80.80782318, 30.76999855, 0.00000000
2, 0.0700, 9, -0.05667264, -0.92851061, -0.29351312, 2.61383104, 1.92331684, -3.94244051, -20.69570351, 20.49108505, -92.69219208, 71.61249542, -0.58673203, -175.08967590, -0.03773396, 0.02091322, -0.58467913, -0.81011671, 0.04647399, -0.02035248, -0.02200982, 100.27100372, 88.10873413, 0.00000000, 0.00000000
2, 0.0750, 10, -0.06043794, -0.93005252, -0.29187071, 3.13938284, 1.85749590, -4.25380802, -21.51417732, 21.16340256, -93.53990173, 71.62817383, -0.56361985, -175.08757019, -0.03762812, 0.02109257, -0.58478320, -0.81004190, 0.05049809, -0.01890889, -0.02336502, 100.27100372, 88.10873413, 0.00000000, 0.00000000
2, 0.0800, 11, -0.06463813, -0.92946672, -0.29101554, 3.63053989, 2.27557349, -4.41904449, -21.51417732, 21.16340256, -93.53990173, 71.64630127, -0.53906524, -175.08374023, -0.03752665, 0.02129171, -0.58490372, -0.80995440, 0.05512131, -0.01959625, -0.02392708, 100.27100372, 88.10873413, 0.00000000, 0.00000000
5, 0.0800, 11, 0.02435548, -1.00272489, 0.13952254, -6.31218100, -5.81547260, -1.31064475, -49.37152863, 0.26308095, -100.00000000, 98.41391754, -6.97252512, -19.56256294, -0.65046144, 0.73793900, -0.16753033, -0.06541916, -0.14579590, 0.02082724, 0.00583590, 100.25000763, 89.87149811, 30.55999947, 0.00000000
4, 0.0750, 11, 0.00415801, -0.96383578, 0.21667153, 5.98761892, 0.80011463, -3.05423093, -34.60976410, -35.36977386, -14.90792179, 103.76715088, 0.14119641, 12.52646637, 0.61368269, -0.78197837, -0.08658845, -0.06637736, -0.00175458, -0.00746295, 0.02117912, 100.32000732, 83.99569702, 31.67999840, 0.00000000
2, 0.1250, 12, -0.02546989, -0.90261954, -0.31543794, 7.94716644, 5.93302727, -5.76916742, -20.11107826, 20.40339088, -92.92604065, 71.91870117, -0.23910475, -174.91929626, -0.03710100, 0.02433996, -0.58670747, -0.80858243, 0.02113929, -0.04793468, 0.00490971, 100.27100372, 88.10873413, 0.00000000, 0.00000000
2, 0.1300, 13, -0.01395478, -0.90922791, -0.31733212, 7.81490660, 5.82384872, -5.14559507, -20.11107826, 20.40339088, -92.92604065, 71.95769501, -0.20561655, -174.89958191, -0.03706025, 0.02468980, -0.58696812, -0.80838436, 0.01022316, -0.04154164, 0.00745574, 100.27100372, 88.10873413, 0.00000000, 0.00000000
3, 0.0600, 6, -0.08388267, -0.98211175, 0.17484108, 12.36126232, 2.60965037, -7.29942036, -21.22186470, -17.42180634, -49.28383636, 101.60813141, -3.80305576, 55.60962677, -0.54670483, 0.69491458, 0.34275410, 0.31737551, 0.01717433, 0.00460219, 0.02522034, 100.35800171, 80.80782318, 30.76999855, 0.00000000
1, 0.1100, 11, 0.12848386, -1.01115346, 0.16639619, -19.03712845, -17.38402748, 33.76889801, -31.51125336, 8.15550995, -109.93861389, 93.91288757, -4.46855545, 79.36248016, 0.50670791, -0.57902014, -0.44581565, -0.45741808, -0.20472898, 0.01616097, -0.09857883, 100.32100677, 83.91182709, 31.44999886, 0.00000000
1, 0.1200, 12, 0.15280278, -1.00342381, 0.17764635, -20.52607918, -19.57481194, 38.92335892, -32.00818253, 8.18474102, -110.37708282, 93.72657776, -4.84476900, 79.14109802, 0.50693756, -0.58040804, -0.44216254, -0.45894784, -0.23517703, 0.00868266, -0.11291604, 100.32100677, 83.91182709, 31.44999886, 0.00000000
1, 0.1300, 13, 0.17563085, -1.02304780, 0.19938520, -22.69236374, -18.50062561, 44.95293808, -32.41742325, 7.39549828, -110.31861877, 93.51951599, -5.28257465, 78.92791748, 0.50698346, -0.58187819, -0.43815690, -0.46087340, -0.26525161, 0.02866814, -0.13807036, 100.32100677, 83.91182709, 31.44999886, 0.00000000
1, 0.1400, 14, 0.19043864, -1.03277683, 0.18502022, -26.32948494, -11.95530796, 51.07906723, -32.41742325, 7.39549828, -110.31861877, 93.27187347, -5.78626585, 78.77841949, 0.50670367, -0.58314478, -0.43397406, -0.46353009, -0.28834611, 0.03895226, -0.12780082, 100.32100677, 83.91182709, 31.44999886, 0.00000000
5, 0.1300, 12, 0.14991006, -1.00103641, 0.07884160, -15.75586510, -14.05038548, -10.05223656, -48.08535385, 0.14615609, -100.00000000, 97.92669678, -6.63648224, -19.96284103, -0.65308791, 0.73504037, -0.16794755, -0.07060797, -0.26574820, 0.01730263, 0.05845026, 100.25000763, 89.87149811, 30.55999947, 0.00000000
5, 0.1350, 13, 0.16753373, -1.00020969, 0.06717420, -16.79428482, -16.04179573, -11.95112038, -48.08535385, 0.14615609, -100.00000000, 97.84567261, -6.54556036, -20.02879906, -0.65349233, 0.73460597, -0.16781378, -0.07169614, -0.28202412, 0.01613698, 0.06881282, 100.25000763, 89.87149811, 30.55999947, 0.00000000
5, 0.1400, 14, 0.18667644, -1.00040448, 0.05440816, -18.62041855, -17.93793869, -14.08270741, -48.90382767, 1.11078632, -100.58462524, 97.76161194, -6.46362066, -20.10861397, -0.65391326, 0.73412150, -0.16781551, -0.07280897, -0.29961640, 0.01595596, 0.08014837, 100.25000763, 89.87149811, 30.55999947, 0.00000000
4, 0.0800, 12, 0.00330052, -0.96107155, 0.21926916, 5.77671337, 0.59713304, -3.33260131, -35.42823792, -35.19438553, -14.44022179, 103.79605103, 0.15666857, 12.53333569, 0.61349291, -0.78211862, -0.08673487, -0.06628667, -0.00063549, -0.01010573, 0.01907412, 100.32000732, 83.99569702, 31.67999840, 0.00000000
4, 0.1200, 13, -0.00072580, -0.95040435, 0.21397695, 8.71574211, 6.16803122, -6.22551346, -34.14206314, -35.60362244, -14.44022179, 104.07667542, 0.32229453, 12.68931198, 0.61160934, -0.78339911, -0.08884687, -0.06577368, 0.00624926, -0.01959881, 0.02905286, 100.32000732, 83.99569702, 31.67999840, 0.00000000
4, 0.1250, 14, 0.00033906, -0.95565403, 0.21927682, 8.92443848, 6.76250458, -6.70772743, -34.14206314, -35.60362244, -14.44022179, 104.12152863, 0.34658644, 12.73027706, 0.61129731, -0.78359175, -0.08928223, -0.06579123, 0.00560206, -0.01415739, 0.02450716, 100.32000732, 83.99569702, 31.67999840, 0.00000000
4, 0.1300, 15, -0.00075908, -0.95765686, 0.22309242, 8.73962498, 7.76935291, -7.13906002, -34.14206314, -35.60362244, -14.44022179, 104.16551208, 0.37170890, 12.77667236, 0.61098862, -0.78377450, -0.08975862, -0.06583239, 0.00713602, -0.01196301, 0.02144121, 100.32000732, 83.99569702, 31.67999840, 0.00000000
3, 0.0700, 7, -0.08939782, -0.97651678, 0.16646034, 11.66921234, 4.40046024, -6.88635254, -20.92955208, -17.50950050, -49.04998398, 101.72106171, -3.74451041, 55.66677475, -0.54605585, 0.69514287, 0.34370461, 0.31696457, 0.02371676, -0.00066623, 0.03552712, 100.35800171, 80.80782318, 30.76999855, 0.00000000
3, 0.0800, 8, -0.09429522, -0.95735615, 0.14407071, 13.03031826, 5.42596149, -7.06371593, -20.87108994, -17.62642479, -49.42998886, 101.84696960, -3.68643928, 55.73445129, -0.54529756, 0.69540119, 0.34475172, 0.31656593, 0.02961603, -0.01946968, 0.05995729, 100.35800171, 80.80782318, 30.76999855, 0.00000000
3, 0.0900, 9, -0.08836147, -0.94493687, 0.17004134, 15.08611679, 5.81478834, -7.60562086, -20.72493362, -17.56796265, -49.48845291, 101.99319458, -3.62403250, 55.80720520, -0.54441661, 0.69572878, 0.34590638, 0.31610268, 0.02473746, -0.03145423, 0.03638459, 100.35800171, 80.80782318, 30.76999855, 0.00000000
1, 0.1500, 15, 0.21450858, -1.03951705, 0.18280275, -27.05106735, -10.88759136, 58.63239288, -33.08974075, 8.71090317, -110.99093628, 93.01771545, -6.36663389, 78.63768005, 0.50609803, -0.58460563, -0.42941350, -0.46658874, -0.32197332, 0.04643000, -0.12997621, 100.32100677, 83.91182709, 31.44999886, 0.00000000
2, 0.1350, 14, -0.00504850, -0.91291058, -0.31680286, 7.47179651, 6.12894440, -4.37778139, -20.11107826, 20.40339088, -92.92604065, 71.99498749, -0.17532083, -174.87719727, -0.03705475, 0.02503018, -0.58721709, -0.80819339, 0.00186168, -0.03806409, 0.00755046, 100.27100372, 88.10873413, 0.00000000, 0.00000000
2, 0.1400, 15, 0.00530515, -0.91734225, -0.31875682, 6.88875818, 5.97956562, -3.16591287, -20.60800934, 18.97106171, -92.13680267, 72.02936554, -0.15103193, -174.85366821, -0.03708879, 0.02533330, -0.58744687, -0.80801541, -0.00803923, -0.03382370, 0.01008889, 100.27100372, 88.10873413, 0.00000000, 0.00000000
2, 0.1450, 16, 0.01790769, -0.92073214, -0.32138160, 6.23769665, 5.51712084, -1.81996882, -20.60800934, 18.97106171, -92.13680267, 72.06048584, -0.13387121, -174.83023071, -0.03715915, 0.02558455, -0.58765578, -0.80785239, -0.02031166, -0.03060675, 0.01324444, 100.27100372, 88.10873413, 0.00000000, 0.00000000
5, 0.1450, 15, 0.21615072, -1.00038707, 0.04042061, -20.34263802, -19.48520279, -16.37525368, -48.90382767, 1.11078632, -100.58462524, 97.66951752, -6.36940670, -20.19470596, -0.65436953, 0.73359829, -0.16778214, -0.07404923, -0.32751063, 0.01555148, 0.09261107, 100.25000763, 89.87149811, 30.55999947, 0.00000000
5, 0.1500, 16, 0.24471435, -0.99486893, 0.02365702, -23.12221909, -21.80828667, -19.93375015, -48.90382767, 1.11078632, -100.58462524, 97.56439972, -6.25616312, -20.29015350, -0.65488470, 0.73301262, -0.16769181, -0.07548563, -0.35419309, 0.00959146, 0.10765352, 100.25000763, 89.87149811, 30.55999947, 0.00000000
5, 0.1550, 17, 0.26586357, -0.98763019, 0.00275998, -24.94654846, -23.73895454, -22.30879593, -48.99152374, 1.19848001, -100.61385345, 97.45085907, -6.13006639, -20.39385986, -0.65543437, 0.73238367, -0.16757420, -0.07706477, -0.37321129, 0.00186929, 0.12666716, 100.25000763, 89.87149811, 30.55999947, 0.00000000
4, 0.1350, 16, -0.00307086, -0.96158201, 0.23365262, 8.80608845, 8.39688206, -7.54781771, -35.31131363, -35.66208649, -14.61560917, 104.20987701, 0.39800701, 12.82662868, 0.61067611, -0.78395540, -0.09026588, -0.06588383, 0.00990158, -0.00784642, 0.01162636, 100.32000732, 83.99569702, 31.67999840, 0.00000000
4, 0.1400, 17, 0.00227161, -0.96404386, 0.24881424, 9.01436710, 9.02363014, -7.88983631, -35.31131363, -35.66208649, -14.61560917, 104.25532532, 0.42515472, 12.88006115, 0.61035484, -0.78413832, -0.09080211, -0.06594674, 0.00502924, -0.00518721, -0.00277029, 100.32000732, 83.99569702, 31.67999840, 0.00000000
4, 0.1450, 18, 0.00881255, -0.96547568, 0.25136352, 8.93085289, 10.68705082, -8.38115311, -34.75592041, -36.48056030, -14.64484024, 104.30045319, 0.45258552, 12.94218349, 0.61003095, -0.78431207, -0.09139916, -0.06605381, -0.00103358, -0.00355718, -0.00455427, 100.32000732, 83.99569702, 31.67999840, 0.00000000
3, 0.1000, 10, -0.05693310, -0.95503497, 0.20769249, 16.02001381, 8.87035179, -8.19139576, -20.72493362, -17.56796265, -49.48845291, 102.14688110, -3.56249118, 55.91128922, -0.54340124, 0.69599688, 0.34726647, 0.31576806, -0.00559890, -0.02087474, 0.00132785, 100.35800171, 80.80782318, 30.76999855, 0.00000000
3, 0.1100, 11, -0.04200040, -0.96519810, 0.18504472, 17.13694382, 13.88967991, -8.77348328, -20.75416565, -19.17568016, -49.42998886, 102.30551910, -3.50505948, 56.06526947, -0.54220498, 0.69614363, 0.34892225, 0.31567582, -0.01951617, -0.01019815, 0.02665648, 100.35800171, 80.80782318, 30.76999855, 0.00000000
3, 0.1200, 12, -0.06227310, -0.96508908, 0.18299954, 18.74442291, 12.91262531, -8.94214344, -20.16954041, -18.18181801, -48.87459564, 102.48414612, -3.44544172, 56.21085358, -0.54091805, 0.69640100, 0.35059211, 0.31546569, 0.00177795, -0.00973189, 0.03162459, 100.35800171, 80.80782318, 30.76999855, 0.00000000
5, 0.1600, 18, 0.28938356, -0.97782975, -0.01736207, -26.91033554, -25.94923782, -24.72765160, -48.99152374, 1.19848001, -100.61385345, 97.32827759, -5.99076939, -20.50726318, -0.65602016, 0.73170614, -0.16743530, -0.07879779, -0.39437270, -0.00845137, 0.14474489, 100.25000763, 89.87149811, 30.55999947, 0.00000000
5, 0.1650, 19, 0.31095985, -0.96433014, -0.03531888, -28.37319374, -27.94480324, -27.55757713, -49.04998398, 0.61385560, -100.67231750, 97.19895935, -5.83642244, -20.62909508, -0.65662569, 0.73099756, -0.16725747, -0.08068592, -0.41333604, -0.02250233, 0.16053891, 100.25000763, 89.87149811, 30.55999947, 0.00000000
5, 0.2400, 20, 0.22347146, -1.14279211, 0.03025460, -37.87001038, -28.54086685, -69.57693481, -46.79918289, -0.81847411, -101.63694763, 94.64006805, -1.70798588, -22.54206085, -0.66689628, 0.71891826, -0.15357849, -0.12173588, -0.25485104, 0.14662823, 0.05141337, 100.25000763, 89.87149811, 30.55999947, 0.00000000
2, 0.1500, 17, 0.03039641, -0.92094326, -0.32207227, 5.41105890, 5.26140404, -0.36747971, -20.75416565, 20.66647148, -92.83834839, 72.08748627, -0.12402634, -174.80575562, -0.03727506, 0.02578820, -0.58783752, -0.80770826, -0.03259541, -0.03054669, 0.01440039, 100.27100372, 88.10873413, 0.00000000, 0.00000000
2, 0.1550, 18, 0.03316982, -0.91713572, -0.32577154, 4.58620834, 4.62400913, 1.14885926, -20.75416565, 20.66647148, -92.83834839, 72.11037445, -0.12238666, -174.78199768, -0.03742899, 0.02592916, -0.58799297, -0.80758351, -0.03530487, -0.03448320, 0.01849829, 100.27100372, 88.10873413, 0.00000000, 0.00000000
2, 0.1600, 19, 0.03949891, -0.91119617, -0.32578865, 3.34110498, 4.36446333, 2.98173070, -20.75416565, 20.66647148, -92.83834839, 72.12703705, -0.12987514, -174.75665283, -0.03764225, 0.02601190, -0.58810693, -0.80748785, -0.04173298, -0.04051838, 0.01881227, 100.27100372, 88.10873413, 0.00000000, 0.00000000
3, 0.1300, 13, -0.05552252, -0.94853997, 0.21733813, 19.06702423, 12.12424564, -8.50049496, -20.78339577, -16.39871407, -48.28997421, 102.66665649, -3.38887644, 56.34793854, -0.53962111, 0.69670564, 0.35220510, 0.31521717, -0.00394325, -0.02565773, 0.00038140, 100.35800171, 80.80782318, 30.76999855, 0.00000000
3, 0.1400, 14, -0.05591434, -0.93926901, 0.25631899, 20.91837311, 15.28869629, -8.13361263, -21.45571518, -16.89564514, -48.02689362, 102.86600494, -3.34333086, 56.51530457, -0.53810173, 0.69701821, 0.35399398, 0.31511986, -0.00269670, -0.03424073, -0.03531537, 100.35800171, 80.80782318, 30.76999855, 0.00000000
1, 0.1600, 16, 0.22773741, -1.07729721, 0.22058481, -29.18059731, -6.51741648, 66.68547058, -33.32358932, 8.88629055, -111.04940033, 92.74268341, -7.02218008, 78.54368591, 0.50508803, -0.58604759, -0.42461020, -0.47025582, -0.34622380, 0.08514541, -0.17244506, 100.32100677, 83.91182709, 31.44999886, 0.00000000
1, 0.1700, 17, 0.21746485, -1.10041440, 0.18137446, -30.97467232, -3.38427448, 74.88003540, -34.08359909, 9.73399544, -111.28324890, 92.44340515, -7.76956034, 78.47668457, 0.50369447, -0.58758706, -0.41935879, -0.47452253, -0.34813726, 0.10962340, -0.13844757, 100.32100677, 83.91182709, 31.44999886, 0.00000000
1, 0.1800, 18, 0.17042346, -1.16219199, 0.22477244, -33.31938934, 3.87856579, 82.05837250, -35.16515732, 9.50014591, -110.69862366, 92.11105347, -8.59179401, 78.48419189, 0.50183040, -0.58895290, -0.41393942, -0.47953624, -0.31501099, 0.17301410, -0.18756479, 100.32100677, 83.91182709, 31.44999886, 0.00000000
4, 0.1500, 19, 0.01737458, -0.96659595, 0.24916066, 8.62679672, 13.35336971, -9.05881500, -34.75592041, -36.48056030, -14.64484024, 104.34420013, 0.47995543, 13.01808167, 0.60970843, -0.78446680, -0.09208944, -0.06623525, -0.00911677, -0.00224221, -0.00160377, 100.32000732, 83.99569702, 31.67999840, 0.00000000
4, 0.1550, 20, 0.02794839, -0.96164823, 0.23990260, 7.97193289, 15.49883461, -9.56395626, -34.75592041, -36.48056030, -14.64484024, 104.38479614, 0.50705487, 13.10502148, 0.60940069, -0.78459531, -0.09285212, -0.06647927, -0.01921768, -0.00700778, 0.00835008, 100.32000732, 83.99569702, 31.67999840, 0.00000000
3, 0.1500, 15, -0.05324750, -0.94669372, 0.28911644, 19.57946587, 14.50508213, -7.18462658, -21.45571518, -16.89564514, -48.02689362, 103.05265808, -3.30584979, 56.67303085, -0.53665888, 0.69731516, 0.35564965, 0.31505916, -0.00464126, -0.02609885, -0.06478932, 100.35800171, 80.80782318, 30.76999855, 0.00000000
2, 0.1650, 20, 0.05647434, -0.90773237, -0.32915336, 1.85248649, 2.57967663, 4.82543325, -20.54954720, 20.78339577, -93.13066101, 72.13624573, -0.14888063, -174.73696899, -0.03787636, 0.02598201, -0.58817345, -0.80742943, -0.05897965, -0.04404253, 0.02236615, 100.27100372, 88.10873413, 0.00000000, 0.00000000
2, 0.1700, 21, 0.07661686, -0.90716362, -0.32417241, 0.64209819, 1.45538247, 6.47172213, -20.54954720, 20.78339577, -93.13066101, 72.12899780, -0.14840591, -174.71833801, -0.03800691, 0.02607862, -0.58811802, -0.80746061, -0.07932562, -0.04460809, 0.01737732, 100.27100372, 88.10873413, 0.00000000, 0.00000000
5, 0.2450, 21, 0.19137506, -1.17722368, 0.03222301, -37.94350433, -27.32330132, -71.98802185, -46.79918289, -0.81847411, -101.63694763, 94.45321655, -1.33834970, -22.64976120, -0.66751641, 0.71814638, -0.15191282, -0.12494119, -0.21635701, 0.18061867, 0.04620440, 100.25000763, 89.87149811, 30.55999947, 0.00000000
4, 0.2350, 21, 0.08760105, -0.99826223, 0.34390837, 3.89548492, -11.94896317, -8.58167458, -34.31745148, -34.72668839, -14.46945286, 104.74709320, 1.17605793, 13.80246544, 0.60703266, -0.78547513, -0.10138137, -0.06528467, -0.06732690, 0.03138134, -0.08948714, 100.32000732, 83.99569702, 31.67999840, 0.00000000
4, 0.2400, 22, 0.06993094, -1.01622653, 0.34737626, 3.52943850, -15.06016636, -8.21183872, -34.31745148, -34.72668839, -14.46945286, 104.76341248, 1.23494351, 13.74009132, 0.60700160, -0.78557485, -0.10127393, -0.06453537, -0.04863792, 0.04944238, -0.09267045, 100.32000732, 83.99569702, 31.67999840, 0.00000000
3, 0.1600, 16, 0.01384521, -0.94113672, 0.23820515, 18.40270233, 13.55847836, -5.94219017, -21.28032684, -17.33411217, -48.02689362, 103.22841644, -3.26947737, 56.81661224, -0.53531754, 0.69760323, 0.35718364, 0.31496808, -0.07117702, -0.03099555, -0.01089229, 100.35800171, 80.80782318, 30.76999855, 0.00000000
3, 0.1700, 17, 0.04582959, -0.96510899, 0.25505328, 18.72262383, 11.47693920, -5.49827242, -21.16340256, -16.63256264, -48.46535873, 103.40857697, -3.24241257, 56.94115829, -0.53397000, 0.69798964, 0.35856837, 0.31482562, -0.10255539, -0.00633140, -0.02465133, 100.35800171, 80.80782318, 30.76999855, 0.00000000
3, 0.1800, 18, 0.03423422, -0.96228337, 0.29761308, 16.50545502, 9.55996609, -4.37839937, -21.42648315, -16.22332573, -48.26074219, 103.56780243, -3.22212481, 57.04449463, -0.53278506, 0.69835812, 0.35973355, 0.31468692, -0.09056979, -0.00850576, -0.06438744, 100.35800171, 80.80782318, 30.76999855, 0.00000000
1, 0.1900, 19, 0.04471249, -1.20709360, 0.22053154, -32.75764084, 10.92938614, 84.56777954, -35.42823792, 10.40631390, -111.80941010, 91.77254486, -9.44135380, 78.56720734, 0.49954587, -0.59010237, -0.40869951, -0.48497200, -0.20375171, 0.21992123, -0.18969291, 100.32100677, 83.91182709, 31.44999886, 0.00000000
1, 0.2000, 20, -0.07151079, -1.32371736, 0.23263770, -33.47726822, 11.11576080, 88.91033936, -35.42823792, 10.40631390, -111.80941010, 91.42465973, -10.33388805, 78.65625000, 0.49707407, -0.59132880, -0.40318680, -0.49059969, -0.10266983, 0.33889273, -0.20821029, 100.32100677, 83.91182709, 31.44999886, 0.00000000
1, 0.2100, 21, -0.12637258, -1.47220635, 0.21520793, -36.87366104, 17.27199936, 90.25703430, -35.36977386, 10.31861973, -112.13095093, 91.02951813, -11.23939133, 78.81446838, 0.49446529, -0.59214652, -0.39771068, -0.49668193, -0.06325260, 0.49011177, -0.19766632, 100.32100677, 83.91182709, 31.44999886, 0.00000000
5, 0.2500, 22, 0.17830142, -1.21210527, 0.03973146, -35.87505722, -25.28083801, -75.07698822, -47.09149170, 0.32154340, -101.57848358, 94.27578735, -0.95443451, -22.74726105, -0.66805881, 0.71745604, -0.15009999, -0.12815697, -0.19664815, 0.21511495, 0.03556842, 100.25000763, 89.87149811, 30.55999947, 0.00000000
5, 0.2550, 23, 0.19658239, -1.27574217, 0.06371465, -32.85188293, -22.07999992, -78.61499786, -47.09149170, 0.32154340, -101.57848358, 94.11260986, -0.55433846, -22.82863235, -0.66849804, 0.71688461, -0.14809784, -0.13135403, -0.20801935, 0.27843434, 0.00869317, 100.25000763, 89.87149811, 30.55999947, 0.00000000
5, 0.2600, 24, 0.24639177, -1.39730501, 0.08314636, -32.68881226, -18.98151970, -82.75782013, -47.09149170, 0.32154340, -101.57848358, 93.94955444, -0.13489982, -22.89421844, -0.66891831, 0.71635145, -0.14587432, -0.13457191, -0.25057614, 0.39973986, -0.01355923, 100.25000763, 89.87149811, 30.55999947, 0.00000000
2, 0.1750, 22, 0.09303520, -0.90682787, -0.32027292, -0.63455117, -0.12139798, 8.35431957, -21.07570839, 20.54954720, -92.66296387, 72.12580109, -0.18834777, -174.70610046, -0.03829885, 0.02585891, -0.58810532, -0.80746311, -0.09613708, -0.04490784, 0.01337001, 100.27100372, 88.10873413, 0.00000000, 0.00000000
1, 0.2200, 22, -0.06119381, -1.54765058, 0.22655943, -43.60739136, 25.76214981, 91.12347412, -36.39286804, 10.11400127, -111.92633820, 90.54462433, -12.15475941, 79.06613159, 0.49183542, -0.59229219, -0.39221916, -0.50344026, -0.14405450, 0.56854182, -0.21667802, 100.32100677, 83.91182709, 31.44999886, 0.00000000
2, 0.2150, 23, 0.04521715, -0.95243174, -0.26235923, -4.87908554, -7.14177132, 14.27885723, -21.54340744, 20.28646660, -92.98450470, 71.91245270, -0.79366332, -174.72442627, -0.04131503, 0.02142177, -0.58678865, -0.80840176, -0.05873287, 0.00190509, -0.04798929, 100.27100372, 88.10873413, 0.00000000, 0.00000000
2, 0.2200, 24, 0.02666117, -0.96825981, -0.27041814, -3.31619954, -6.60472536, 12.48642921, -21.54340744, 20.28646660, -92.98450470, 71.90209961, -0.85777098, -174.73684692, -0.04155722, 0.02090190, -0.58673638, -0.80844086, -0.04138894, 0.01783353, -0.04018307, 100.27100372, 88.10873413, 0.00000000, 0.00000000
2, 0.2250, 25, 0.01631824, -0.98193318, -0.28012887, -0.49046090, -5.88737249, 10.11171150, -20.98801422, 20.16954041, -93.15989685, 71.89984131, -0.91497248, -174.74913025, -0.04176363, 0.02043447, -0.58673888, -0.80844033, -0.03205068, 0.03153819, -0.03051876, 100.27100372, 88.10873413, 0.00000000, 0.00000000
3, 0.1900, 19, 0.04782232, -0.97798342, 0.30995953, 13.99410248, 3.66122150, -3.17992902, -21.42648315, -16.22332573, -48.28997421, 103.70532990, -3.19984698, 57.08763504, -0.53190422, 0.69880784, 0.36048159, 0.31432259, -0.10379233, 0.00777692, -0.07423484, 100.35800171, 80.80782318, 30.76999855, 0.00000000
3, 0.2000, 20, 0.04944610, -0.99077046, 0.31997055, 11.67851067, -2.56533456, -2.05734253, -21.42648315, -16.45717621, -48.28997421, 103.82322693, -3.17375326, 57.06759262, -0.53132886, 0.69935513, 0.36080816, 0.31370306, -0.10498001, 0.02104982, -0.08215202, 100.35800171, 80.80782318, 30.76999855, 0.00000000
3, 0.2100, 21, 0.00989995, -1.03739166, 0.37138200, 9.04665279, -5.52586699, -1.13754785, -21.39725113, -16.16486359, -47.82227325, 103.93605804, -3.13961887, 57.01661682, -0.53089571, 0.69995660, 0.36096978, 0.31290787, -0.06495290, 0.06811068, -0.13166708, 100.35800171, 80.80782318, 30.76999855, 0.00000000
1, 0.2300, 23, -0.11315841, -1.47352266, 0.31953058, -45.17308807, 30.22537231, 91.09205627, -36.56825638, 10.52323914, -112.97866058, 90.02801514, -13.06772423, 79.37276459, 0.48909432, -0.59212190, -0.38681981, -0.51043987, -0.10793114, 0.49758288, -0.31844437, 100.32100677, 83.91182709, 31.44999886, 0.00000000
5, 0.2650, 25, 0.28119496, -1.50029087, 0.11198600, -39.03104401, -12.93883228, -82.93753815, -46.56533051, -0.90616781, -101.37386322, 93.75435638, 0.28319710, -22.93089485, -0.66956347, 0.71565837, -0.14342916, -0.13764428, -0.27807316, 0.50250208, -0.04562735, 100.25000763, 89.87149811, 30.55999947, 0.00000000
5, 0.2700, 26, 0.28896990, -1.51661038, 0.10639562, -45.18806458, -13.49795437, -82.08106232, -46.56533051, -0.90616781, -101.37386322, 93.52804565, 0.69705689, -22.97217178, -0.67039150, 0.71476465, -0.14098772, -0.14074533, -0.27860710, 0.51862466, -0.04384621, 100.25000763, 89.87149811, 30.55999947, 0.00000000
5, 0.2750, 27, 0.28307953, -1.47985876, 0.06790292, -49.23408508, -16.15123177, -82.56298828, -46.18532562, -0.67231804, -102.71850586, 93.28098297, 1.11393428, -23.02827263, -0.67131460, 0.71372676, -0.13858162, -0.14396568, -0.26546547, 0.48171848, -0.00958848, 100.25000763, 89.87149811, 30.55999947, 0.00000000
2, 0.2300, 26, 0.01141542, -1.00407541, -0.28923938, 2.54566455, -5.82627487, 7.51959991, -20.98801422, 20.16954041, -93.15989685, 71.91282654, -0.95975864, -174.76513672, -0.04187746, 0.02004108, -0.58684593, -0.80836666, -0.02798218, 0.05364431, -0.02125416, 100.27100372, 88.10873413, 0.00000000, 0.00000000
2, 0.2350, 27, 0.00886335, -1.02785635, -0.29339188, 5.48084354, -6.28730106, 5.19736052, -20.81262779, 20.57877731, -92.66296387, 71.94061279, -0.99421644, -174.78695679, -0.04189500, 0.01969625, -0.58705521, -0.80822212, -0.02607392, 0.07730234, -0.01668997, 100.27100372, 88.10873413, 0.00000000, 0.00000000
2, 0.2400, 28, 0.00717638, -1.05135989, -0.29567066, 6.72759342, -7.03226614, 3.31473684, -20.81262779, 20.57877731, -92.66296387, 71.97473907, -1.02086508, -174.81526184, -0.04182598, 0.01937565, -0.58730817, -0.80804974, -0.02488374, 0.10063668, -0.01386416, 100.27100372, 88.10873413, 0.00000000, 0.00000000
3, 0.2200, 22, 0.01836433, -1.04847622, 0.36226475, 3.99084949, -15.02073956, 0.83246422, -21.10494041, -17.10026360, -47.79304123, 103.98403168, -3.11144686, 56.86862183, -0.53110194, 0.70057720, 0.36033177, 0.31190288, -0.07284377, 0.07948814, -0.12123773, 100.35800171, 80.80782318, 30.76999855, 0.00000000
3, 0.2300, 23, -0.01025898, -1.06993949, 0.31392473, 0.55101800, -20.39721107, 2.20439410, -21.48494530, -16.07716942, -48.52382278, 104.00054169, -3.08351088, 56.66507339, -0.53164887, 0.70122612, 0.35926610, 0.31074017, -0.04370560, 0.10104790, -0.07239428, 100.35800171, 80.80782318, 30.76999855, 0.00000000
4, 0.2450, 23, 0.04959937, -1.02308333, 0.34897503, 2.98784995, -18.37593079, -8.01646328, -34.58053207, -34.87284470, -14.26483440, 104.77660370, 1.29712498, 13.66144562, 0.60700279, -0.78567004, -0.10107040, -0.06367996, -0.02723689, 0.05638356, -0.09404074, 100.32000732, 83.99569702, 31.67999840, 0.00000000
4, 0.2500, 24, 0.03485483, -1.02698731, 0.36611202, 2.69456911, -21.69112206, -7.82641029, -34.58053207, -34.87284470, -14.26483440, 104.78787231, 1.36263645, 13.56654072, 0.60702753, -0.78576666, -0.10077164, -0.06271715, -0.01136326, 0.06036503, -0.11098544, 100.32000732, 83.99569702, 31.67999840, 0.00000000
4, 0.2550, 25, 0.01469067, -1.02630270, 0.38580546, 2.21915245, -24.38377762, -7.76067305, -34.58053207, -34.87284470, -14.26483440, 104.79633331, 1.43128121, 13.45853615, 0.60707957, -0.78585756, -0.10039789, -0.06166579, 0.00998608, 0.05974858, -0.13053311, 100.32000732, 83.99569702, 31.67999840, 0.00000000
5, 0.2800, 28, 0.27488488, -1.42076886, 0.03086750, -50.72237015, -16.65370941, -84.23078156, -46.18532562, -0.67231804, -102.71850586, 93.02598572, 1.53903151, -23.08826637, -0.67225796, 0.71263897, -0.13612638, -0.14725691, -0.24989298, 0.42253679, 0.02301609, 100.25000763, 89.87149811, 30.55999947, 0.00000000
5, 0.2850, 29, 0.27568373, -1.37233233, 0.00791111, -50.96541977, -13.42256737, -86.49743652, -46.18532562, -0.67231804, -102.71850586, 92.76908875, 1.97688138, -23.13287926, -0.67320228, 0.71156400, -0.13348231, -0.15052576, -0.24312088, 0.37408710, 0.04149474, 100.25000763, 89.87149811, 30.55999947, 0.00000000
3, 0.2800, 24, -0.11575744, -0.91467845, 0.27132475, -4.06138277, -5.96396637, -3.09872103, -20.63723946, -16.57410049, -48.31920624, 103.79800415, -2.97140622, 56.00601959, -0.53504479, 0.70207143, 0.35522515, 0.30763271, 0.06361109, -0.05508734, -0.03292368, 100.35800171, 80.80782318, 30.76999855, 0.00000000
1, 0.2400, 24, -0.06027482, -1.54895592, 0.31042102, -47.21797943, 49.17233658, 90.43048859, -37.62057877, 10.99093819, -113.35866547, 89.43836212, -13.97004795, 79.88423157, 0.48580539, -0.59094387, -0.38213724, -0.51841068, -0.17618266, 0.57664466, -0.31871712, 100.32100677, 83.91182709, 31.44999886, 0.00000000
1, 0.2500, 25, -0.01922902, -1.44889128, 0.27940354, -53.95309448, 55.07661057, 92.37452698, -37.62057877, 10.99093819, -113.35866547, 88.75527954, -14.88541508, 80.46945190, 0.48252651, -0.58921719, -0.37726110, -0.52693957, -0.23253518, 0.48061979, -0.29847381, 100.32100677, 83.91182709, 31.44999886, 0.00000000
1, 0.2600, 26, -0.05182422, -1.31420600, 0.23989882, -52.02516937, 51.83896255, 93.72746277, -37.73750305, 11.13709450, -113.68020630, 88.09024811, -15.80592346, 81.03649139, 0.47913176, -0.58769900, -0.37225935, -0.53522480, -0.21537165, 0.35042429, -0.27017617, 100.32100677, 83.91182709, 31.44999886, 0.00000000
2, 0.2450, 29, 0.01335829, -1.06858444, -0.30468616, 7.23995352, -8.47488499, 1.83538580, -20.81262779, 20.57877731, -92.66296387, 72.01161957, -1.04269207, -174.85273743, -0.04166739, 0.01904302, -0.58758032, -0.80786788, -0.03146383, 0.11767118, -0.00424089, 100.27100372, 88.10873413, 0.00000000, 0.00000000
2, 0.2500, 30, 0.02544015, -1.07795453, -0.29514372, 7.47923708, -9.78496456, 1.05207300, -21.45571518, 20.81262779, -93.01374054, 72.04984283, -1.06278908, -174.89765930, -0.04144739, 0.01868473, -0.58786261, -0.80768228, -0.04390152, 0.12684251, -0.01315032, 100.27100372, 88.10873413, 0.00000000, 0.00000000
2, 0.2550, 31, 0.04530155, -1.08293438, -0.27854091, 7.05361509, -10.78833199, 0.75689536, -21.45571518, 20.81262779, -93.01374054, 72.08605194, -1.08299756, -174.94783020, -0.04119158, 0.01829787, -0.58813119, -0.80750859, -0.06411241, 0.13163072, -0.02914014, 100.27100372, 88.10873413, 0.00000000, 0.00000000
5, 0.3300, 30, 0.10124650, -1.14620745, -0.04658198, -40.54009628, -20.72961426, -96.35894775, -43.02835464, -1.46156096, -103.74159241, 90.68492126, 6.26959515, -23.46168518, -0.67924905, 0.70323592, -0.10677153, -0.18077554, 0.00587134, 0.15204634, 0.05938992, 100.25000763, 89.87149811, 30.55999947, 0.00000000
5, 0.3350, 31, 0.01306719, -1.12560594, -0.05095033, -40.02318192, -20.37846184, -93.54764557, -43.02835464, -1.46156096, -103.74159241, 90.47254181, 6.73545551, -23.56035423, -0.67964792, 0.70230716, -0.10420927, -0.18434705, 0.10222411, 0.13231856, 0.06006771, 100.25000763, 89.87149811, 30.55999947, 0.00000000
3, 0.2900, 25, -0.11514133, -0.91522408, 0.27289039, -2.59940767, -4.54558182, -4.75813389, -20.63723946, -16.57410049, -48.31920624, 103.77369690, -2.91435981, 55.97316360, -0.53547263, 0.70192450, 0.35523462, 0.30721259, 0.06390576, -0.05470576, -0.03495994, 100.35800171, 80.80782318, 30.76999855, 0.00000000
3, 0.3000, 26, -0.11321622, -0.94886541, 0.26465821, -1.42517161, -3.81405497, -6.42253828, -20.57877731, -16.34025192, -48.55305481, 103.76054382, -2.84290528, 55.95138168, -0.53585017, 0.70176089, 0.35541150, 0.30672294, 0.06313055, -0.02119980, -0.02703472, 100.35800171, 80.80782318, 30.76999855, 0.00000000
3, 0.3100, 27, -0.06173189, -0.97782743, 0.27850640, -0.55181396, -2.03277516, -7.86159992, -20.52031517, -16.77871895, -48.55305481, 103.76643372, -2.75995922, 55.95120621, -0.53609127, 0.70159173, 0.35582718, 0.30620617, 0.01302021, 0.00767955, -0.04093512, 100.35800171, 80.80782318, 30.76999855, 0.00000000
4, 0.2600, 26, 0.00737467, -1.02482641, 0.39307716, 1.98279250, -25.90280914, -7.71353817, -34.34668350, -36.77287292, -13.88482857, 104.81206512, 1.50007463, 13.34318161, 0.60708398, -0.78599298, -0.09997815, -0.06056798, 0.01851037, 0.05835340, -0.13761730, 100.32000732, 83.99569702, 31.67999840, 0.00000000
4, 0.2650, 27, -0.00571455, -1.01658094, 0.38634160, 0.99906611, -27.07427597, -7.92319870, -34.34668350, -36.77287292, -13.88482857, 104.81381989, 1.57298470, 13.22239208, 0.60718840, -0.78605586, -0.09953527, -0.05942518, 0.03284684, 0.05017303, -0.13076471, 100.32000732, 83.99569702, 31.67999840, 0.00000000
4, 0.2700, 28, -0.03314779, -0.99766785, 0.36509320, 0.11272275, -27.06913185, -8.35775757, -34.34668350, -36.77287292, -13.88482857, 104.81098938, 1.64798748, 13.10217857, 0.60732335, -0.78609210, -0.09910498, -0.05827478, 0.06158013, 0.03128881, -0.10954875, 100.32000732, 83.99569702, 31.67999840, 0.00000000
1, 0.2700, 27, -0.17478329, -1.23748851, 0.20756263, -49.63448334, 49.79796600, 93.99891663, -37.88365936, 11.57556248, -113.68020630, 87.43988800, -16.72612000, 81.59467316, 0.47562516, -0.58632433, -0.36719838, -0.54329538, -0.10775686, 0.27853748, -0.24880922, 100.32100677, 83.91182709, 31.44999886, 0.00000000
5, 0.3400, 32, -0.04661549, -1.14119577, -0.03768941, -39.62677002, -18.95128822, -90.83429718, -42.58988571, -1.43232965, -103.74159241, 90.26319122, 7.19022799, -23.65286446, -0.68003881, 0.70138586, -0.10166796, -0.18779984, 0.16982821, 0.14883302, 0.04315845, 100.25000763, 89.87149811, 30.55999947, 0.00000000
5, 0.3450, 33, -0.10319861, -1.15545428, -0.02688087, -39.87704468, -17.39271736, -88.04201508, -42.58988571, -1.43232965, -103.74159241, 90.05265808, 7.63067961, -23.73933792, -0.68045431, 0.70044428, -0.09916194, -0.19111972, 0.23409162, 0.16406164, 0.02870168, 100.25000763, 89.87149811, 30.55999947, 0.00000000
5, 0.3500, 34, -0.14264040, -1.15844774, -0.01128481, -39.66718674, -15.30728626, -85.47606659, -42.06372452, -2.04618526, -104.20929718, 89.84373474, 8.05799103, -23.81698799, -0.68088168, 0.69950265, -0.09667239, -0.19429533, 0.28098321, 0.16806701, 0.00947941, 100.25000763, 89.87149811, 30.55999947, 0.00000000
2, 0.2950, 32, 0.16719256, -1.01928365, -0.22601122, 5.69189644, -12.16404629, -0.86956948, -21.42648315, 20.08184814, -93.21835327, 72.38857269, -1.21097159, -175.39373779, -0.03866516, 0.01520876, -0.59035778, -0.80607158, -0.18826440, 0.06640021, -0.07659311, 100.27100372, 88.10873413, 0.00000000, 0.00000000
2, 0.3000, 33, 0.17174953, -1.00916588, -0.23510379, 3.46824050, -13.34567356, -0.96746492, -21.42648315, 20.08184814, -93.21835327, 72.40729523, -1.22653830, -175.45881653, -0.03828504, 0.01477015, -0.59050155, -0.80599266, -0.19308448, 0.05617440, -0.06714105, 100.27100372, 88.10873413, 0.00000000, 0.00000000
1, 0.2800, 28, -0.27757502, -1.13191307, 0.18933855, -47.03899002, 45.52910995, 94.28475189, -38.17597198, 10.69862556, -114.17713928, 86.81616974, -17.64534569, 82.12174225, 0.47205949, -0.58520931, -0.36203104, -0.55102032, -0.02029236, 0.17812712, -0.24104451, 100.32100677, 83.91182709, 31.44999886, 0.00000000
1, 0.2900, 29, -0.39225566, -1.04645264, 0.10566580, -44.34240723, 41.54187775, 93.75228882, -38.61444092, 12.54019260, -115.05407715, 86.22039795, -18.55622101, 82.61958313, 0.46846208, -0.58432245, -0.35682097, -0.55838102, 0.07940389, 0.09823487, -0.16733417, 100.32100677, 83.91182709, 31.44999886, 0.00000000
1, 0.3000, 30, -0.53843027, -1.00779188, 0.04647094, -37.90919876, 40.29048157, 93.04468536, -38.61444092, 12.54019260, -115.05407715, 85.68197632, -19.45602798, 83.11583710, 0.46456802, -0.58368301, -0.35187703, -0.56539667, 0.21076371, 0.06533350, -0.11733675, 100.32100677, 83.91182709, 31.44999886, 0.00000000
4, 0.2750, 29, -0.05052613, -0.97660571, 0.34742045, -0.45522326, -26.96035004, -8.76236248, -34.22975540, -34.81438065, -14.29406548, 104.80521393, 1.72479761, 12.98300076, 0.60747737, -0.78611010, -0.09868986, -0.05711978, 0.08028765, 0.01024076, -0.09197382, 100.32000732, 83.99569702, 31.67999840, 0.00000000
4, 0.2800, 30, -0.06419763, -0.96135509, 0.33180961, -0.88135153, -26.85234642, -9.10023022, -34.22975540, -34.81438065, -14.29406548, 104.79715729, 1.80308926, 12.86476326, 0.60764545, -0.78611380, -0.09828798, -0.05596126, 0.09531830, -0.00500319, -0.07649973, 100.32000732, 83.99569702, 31.67999840, 0.00000000
4, 0.3150, 31, -0.06426559, -0.92167598, 0.26840389, 3.59435081, -23.34659386, -7.73636770, -33.58666992, -34.98976898, -14.44022179, 104.77419281, 2.32992101, 12.05943394, 0.60851353, -0.78630328, -0.09553365, -0.04808162, 0.10463069, -0.04449180, -0.01366769, 100.32000732, 83.99569702, 31.67999840, 0.00000000
3, 0.3200, 28, -0.02199755, -0.98800027, 0.27938259, -0.01510104, -0.28024456, -8.61574650, -19.52645493, -16.83718109, -49.13768005, 103.76544189, -2.67561054, 55.96899796, -0.53633094, 0.70133084, 0.35634106, 0.30578628, -0.02523565, 0.01780666, -0.04169977, 100.35800171, 80.80782318, 30.76999855, 0.00000000
3, 0.3300, 29, 0.01112361, -0.99602956, 0.28698629, -0.26687646, -1.12481570, -8.51811695, -20.11107826, -16.69102669, -47.82227325, 103.76234436, -2.59020066, 55.97834015, -0.53660947, 0.70108330, 0.35680249, 0.30532700, -0.05687587, 0.02576347, -0.04930932, 100.35800171, 80.80782318, 30.76999855, 0.00000000
3, 0.3400, 30, 0.04737848, -0.99101943, 0.25846314, -0.80544150, -3.46078205, -7.89316988, -20.11107826, -16.69102669, -47.82227325, 103.75494385, -2.50530314, 55.96348953, -0.53697664, 0.70089179, 0.35710177, 0.30477062, -0.09164203, 0.02066118, -0.02088045, 100.35800171, 80.80782318, 30.76999855, 0.00000000
5, 0.3550, 35, -0.16719173, -1.15716195, 0.00195621, -38.59993362, -12.86394024, -83.35322571, -42.06372452, -2.04618526, -104.20929718, 89.64112091, 8.47446823, -23.88388062, -0.68129331, 0.69859278, -0.09418250, -0.19732559, 0.31277287, 0.16783206, -0.00729152, 100.25000763, 89.87149811, 30.55999947, 0.00000000
5, 0.3600, 36, -0.18189859, -1.15733922, 0.00806860, -36.39072418, -10.09446526, -81.26164246, -42.06372452, -2.04618526, -104.20929718, 89.45098114, 8.88036633, -23.93820000, -0.68165612, 0.69775271, -0.09169157, -0.20019701, 0.33453029, 0.16909604, -0.01673555, 100.25000763, 89.87149811, 30.55999947, 0.00000000
5, 0.3650, 37, -0.17673393, -1.16561854, 0.01579704, -33.85437775, -7.45970297, -79.73106384, -40.60216141, -1.95849168, -104.76468658, 89.27503967, 9.27858257, -23.98046112, -0.68195558, 0.69699460, -0.08918966, -0.20292959, 0.33626360, 0.17849723, -0.02754518, 100.25000763, 89.87149811, 30.55999947, 0.00000000
4, 0.3200, 32, -0.06887057, -0.92294419, 0.29784614, 5.04197168, -22.55727196, -7.29935503, -33.58666992, -34.98976898, -14.44022179, 104.79528809, 2.39399099, 11.95960999, 0.60844958, -0.78645355, -0.09519567, -0.04709285, 0.11036440, -0.04309330, -0.04279757, 100.32000732, 83.99569702, 31.67999840, 0.00000000
3, 0.3500, 31, 0.03855217, -0.98591244, 0.25987917, -0.39277864, -4.00903845, -7.43218374, -19.52645493, -16.31101990, -48.14381790, 103.75193787, -2.42358446, 55.94219208, -0.53732312, 0.70074826, 0.35735792, 0.30418929, -0.08137396, 0.01547313, -0.02236338, 100.35800171, 80.80782318, 30.76999855, 0.00000000
2, 0.3050, 34, 0.15992051, -0.99704075, -0.24265200, 1.14070058, -14.35564041, -0.88945520, -21.42648315, 20.08184814, -93.21835327, 72.41451263, -1.24398935, -175.52859497, -0.03788314, 0.01429011, -0.59056491, -0.80597377, -0.18155235, 0.04400403, -0.05942904, 100.27100372, 88.10873413, 0.00000000, 0.00000000
2, 0.3100, 35, 0.13321419, -0.99506545, -0.24435416, -0.41922948, -15.28961372, -1.46721780, -21.16340256, 20.40339088, -93.27681732, 72.41404724, -1.26009262, -175.60371399, -0.03743780, 0.01378953, -0.59057444, -0.80599642, -0.15513729, 0.04202658, -0.05769920, 100.27100372, 88.10873413, 0.00000000, 0.00000000
2, 0.3150, 36, 0.11439259, -0.99415207, -0.24274358, -1.56781173, -15.62743187, -2.83378315, -21.16340256, 20.40339088, -93.27681732, 72.40795135, -1.27019787, -175.68249512, -0.03693638, 0.01331040, -0.59054297, -0.80605066, -0.13651583, 0.04114488, -0.05939511, 100.27100372, 88.10873413, 0.00000000, 0.00000000
5, 0.3700, 38, -0.15163374, -1.16382122, 0.01563769, -30.53184128, -4.81599998, -77.92933655, -40.60216141, -1.95849168, -104.76468658, 89.11745453, 9.66785336, -24.01042366, -0.68217075, 0.69634205, -0.08669209, -0.20551242, 0.31790507, 0.17784996, -0.03017995, 100.25000763, 89.87149811, 30.55999947, 0.00000000
5, 0.3750, 39, -0.12063904, -1.16215527, 0.00913814, -27.57551956, -3.94817948, -77.05496979, -40.51446915, -1.05232382, -104.76468658, 88.97503662, 10.05274773, -24.03696632, -0.68229830, 0.69577295, -0.08422061, -0.20802896, 0.29354256, 0.17736495, -0.02615416, 100.25000763, 89.87149811, 30.55999947, 0.00000000
2, 0.3200, 37, 0.07905311, -0.98765194, -0.24031714, -1.95042884, -14.88474560, -4.80636835, -21.86495209, 20.22800255, -93.18912506, 72.41001892, -1.25606334, -175.76138306, -0.03630846, 0.01300399, -0.59056360, -0.80606902, -0.10110583, 0.03465724, -0.06186637, 100.27100372, 88.10873413, 0.00000000, 0.00000000
2, 0.3250, 38, 0.05399389, -0.99146700, -0.24304700, -1.62407434, -13.96915913, -6.56434155, -21.86495209, 20.22800255, -93.18912506, 72.40356445, -1.24588823, -175.83790588, -0.03571853, 0.01267925, -0.59052473, -0.80612898, -0.07579251, 0.03847507, -0.05916362, 100.27100372, 88.10873413, 0.00000000, 0.00000000
2, 0.3300, 39, 0.02644430, -0.99619865, -0.25400010, -2.04035044, -13.08905220, -8.39596272, -21.86495209, 20.22800255, -93.18912506, 72.39498138, -1.22566319, -175.91299438, -0.03508708, 0.01243201, -0.59046865, -0.80620176, -0.04793347, 0.04324254, -0.04834573, 100.27100372, 88.10873413, 0.00000000, 0.00000000
3, 0.3600, 32, 0.01522803, -0.97911435, 0.25334162, -0.48268014, -4.98062420, -7.11058998, -19.55568504, -17.21718788, -48.23151016, 103.75228882, -2.32748652, 55.90737915, -0.53773201, 0.70062786, 0.35760957, 0.30344737, -0.05656229, 0.00860488, -0.01584951, 100.35800171, 80.80782318, 30.76999855, 0.00000000
1, 0.3100, 31, -0.56763083, -0.99844837, 0.04444390, -32.38064194, 41.20107269, 89.71862793, -38.90675354, 9.06167793, -114.99561310, 85.18799591, -20.32005882, 83.62958527, 0.46046776, -0.58309090, -0.34737837, -0.57210374, 0.22550607, 0.06175757, -0.12336626, 100.32100677, 83.91182709, 31.44999886, 0.00000000
1, 0.3200, 32, -0.35829121, -0.89432883, 0.07776793, -27.21762085, 37.37104416, 81.28929901, -39.11137009, 13.44636059, -114.99561310, 84.74964142, -21.09698105, 84.10522461, 0.45663154, -0.58257776, -0.34338856, -0.57807875, 0.00274874, -0.03683805, -0.16307250, 100.32100677, 83.91182709, 31.44999886, 0.00000000
1, 0.3300, 33, -0.12028892, -0.76801825, 0.08139791, -18.38705063, 37.43998718, 65.51020050, -39.72522736, 12.56942368, -115.63870239, 84.39647675, -21.71341515, 84.57326508, 0.45311925, -0.58190596, -0.34062785, -0.58313054, -0.24630791, -0.15832317, -0.17176563, 100.32100677, 83.91182709, 31.44999886, 0.00000000
1, 0.3400, 34, 0.04529673, -0.71084046, 0.11387590, -9.75121975, 35.36015701, 53.59068680, -39.87138367, 13.50482273, -115.81408691, 84.13645172, -22.21085358, 85.01132202, 0.44982132, -0.58130401, -0.33881533, -0.58732510, -0.42070842, -0.21161321, -0.20819752, 100.32100677, 83.91182709, 31.44999886, 0.00000000
1, 0.3500, 35, 0.17681853, -0.66826582, 0.09305450, -0.70144153, 22.82551003, 42.76621628, -39.87138367, 13.50482273, -115.81408691, 84.01845551, -22.61222649, 85.30539703, 0.44698006, -0.58136535, -0.33751354, -0.59017611, -0.55922866, -0.25099698, -0.18949759, 100.32100677, 83.91182709, 31.44999886, 0.00000000
5, 0.4100, 40, 0.03878105, -1.10680640, -0.02794801, -26.28158951, -26.63168335, -71.39373016, -39.54983902, -1.40309846, -105.23238373, 87.92321777, 12.63930130, -24.67534256, -0.68258154, 0.69095325, -0.07002228, -0.22751495, 0.17855418, 0.13132693, -0.00672992, 100.25000763, 89.87149811, 30.55999947, 0.00000000
5, 0.4150, 41, 0.02359452, -1.08069098, -0.01509961, -24.51255608, -31.33890343, -69.71181488, -39.40368271, -2.48465347, -105.78778076, 87.76206207, 12.98171329, -24.84938431, -0.68252861, 0.69012082, -0.06861020, -0.23060952, 0.19959548, 0.10663436, -0.02227869, 100.25000763, 89.87149811, 30.55999947, 0.00000000
4, 0.3250, 33, -0.07593876, -0.92373985, 0.32820734, 6.51355219, -20.24278069, -7.32359314, -33.73282623, -34.78514862, -14.38175964, 104.82411194, 2.45526147, 11.87104034, 0.60832494, -0.78663737, -0.09492290, -0.04617671, 0.11851221, -0.04213448, -0.07271887, 100.32000732, 83.99569702, 31.67999840, 0.00000000
4, 0.3300, 34, -0.07849789, -0.92923951, 0.33813655, 7.66507816, -17.78666306, -7.61756372, -33.73282623, -34.78514862, -14.38175964, 104.85911560, 2.51485920, 11.79475594, 0.60815066, -0.78684467, -0.09472764, -0.04533225, 0.12211807, -0.03644032, -0.08209035, 100.32000732, 83.99569702, 31.67999840, 0.00000000
4, 0.3350, 35, -0.07080915, -0.92929262, 0.35534510, 8.28602505, -15.50198460, -8.04286671, -32.82666016, -35.04823303, -14.00175381, 104.89767456, 2.57362652, 11.73010731, 0.60794598, -0.78706163, -0.09460875, -0.04455235, 0.11545587, -0.03617448, -0.09867439, 100.32000732, 83.99569702, 31.67999840, 0.00000000
2, 0.3350, 40, 0.00076049, -1.00262606, -0.26888865, -2.56109476, -12.45222950, -10.16218090, -21.25109673, 20.60800934, -93.33528137, 72.38375854, -1.19607019, -175.98773193, -0.03441016, 0.01225187, -0.59039199, -0.80628985, -0.02177269, 0.04971653, -0.03363748, 100.27100372, 88.10873413, 0.00000000, 0.00000000
2, 0.3400, 41, -0.01972322, -1.01656568, -0.28239059, -3.25141716, -12.82328415, -11.59657001, -21.25109673, 20.60800934, -93.33528137, 72.36913300, -1.16022038, -176.06640625, -0.03367357, 0.01209459, -0.59029055, -0.80639762, -0.00068776, 0.06371535, -0.02036332, 100.27100372, 88.10873413, 0.00000000, 0.00000000
2, 0.3450, 42, -0.03509381, -1.03441358, -0.28839722, -4.60583353, -13.26875591, -12.54850864, -22.04033852, 18.24028015, -93.39374542, 72.34774780, -1.12053454, -176.14865112, -0.03289270, 0.01194416, -0.59014118, -0.80654126, 0.01536289, 0.08165410, -0.01468697, 100.27100372, 88.10873413, 0.00000000, 0.00000000
1, 0.3600, 36, 0.22010073, -0.64649451, 0.00553429, 8.61028862, 8.09639835, 33.49851227, -40.30984879, 13.50482273, -115.37561798, 84.05986786, -22.91625786, 85.43690491, 0.44462538, -0.58219200, -0.33673674, -0.59158200, -0.60787314, -0.27027795, -0.10190710, 100.32100677, 83.91182709, 31.44999886, 0.00000000
2, 0.3850, 43, -0.00080240, -0.98732781, -0.29001343, -22.49138069, -6.80856228, -10.00021553, -21.25109673, 20.05261612, -94.21221924, 71.77503967, -0.79056245, -176.70535278, -0.02733238, 0.01126440, -0.58610016, -0.80969912, -0.01315515, 0.03742975, -0.02223384, 100.27100372, 88.10873413, 0.00000000, 0.00000000
2, 0.3900, 44, 0.00567649, -0.96261269, -0.30014908, -23.01531982, -6.81286573, -9.58557987, -21.25109673, 20.05261612, -94.21221924, 71.66059875, -0.75573939, -176.75274658, -0.02683080, 0.01124139, -0.58529007, -0.81030196, -0.01901592, 0.01332965, -0.01399021, 100.27100372, 88.10873413, 0.00000000, 0.00000000
2, 0.3950, 45, 0.01846339, -0.93554115, -0.30503514, -23.46313858, -7.09698105, -8.82706547, -21.48494530, 20.40339088, -93.91990662, 71.54389954, -0.72505945, -176.80035400, -0.02634896, 0.01118843, -0.58446413, -0.81091446, -0.03124598, -0.01310930, -0.01103218, 100.27100372, 88.10873413, 0.00000000, 0.00000000
5, 0.4200, 42, 0.00251397, -1.04871666, -0.00468190, -23.41501999, -33.75994110, -68.39059448, -39.40368271, -2.48465347, -105.78778076, 87.60234070, 13.31655979, -25.03678894, -0.68244034, 0.68928427, -0.06732019, -0.23373152, 0.22640333, 0.07609639, -0.03536677, 100.25000763, 89.87149811, 30.55999947, 0.00000000
5, 0.4250, 43, -0.01808063, -1.02322006, 0.01892438, -22.54249001, -35.45394135, -66.90258789, -38.67290115, -2.48465347, -104.82315063, 87.44370270, 13.64309406, -25.23377800, -0.68232793, 0.68844384, -0.06613347, -0.23685482, 0.25257951, 0.05204253, -0.06160957, 100.25000763, 89.87149811, 30.55999947, 0.00000000
5, 0.4300, 44, -0.04074137, -0.99648470, 0.04168962, -21.71062469, -36.80094147, -65.33232880, -38.67290115, -2.48465347, -104.82315063, 87.28629303, 13.96094894, -25.43851662, -0.68219477, 0.68760157, -0.06504184, -0.23996662, 0.28066555, 0.02675182, -0.08698890, 100.25000763, 89.87149811, 30.55999947, 0.00000000
4, 0.3400, 36, -0.04871698, -0.92674577, 0.36589128, 8.97250557, -12.48797512, -8.77035141, -32.82666016, -35.04823303, -14.00175381, 104.94029999, 2.63207459, 11.68101025, 0.60770631, -0.78728741, -0.09459609, -0.04385379, 0.09438375, -0.03849063, -0.10853310, 100.32000732, 83.99569702, 31.67999840, 0.00000000
4, 0.3450, 37, -0.02300152, -0.93833578, 0.36856845, 9.87497139, -9.85060787, -9.64894867, -32.82666016, -35.04823303, -14.00175381, 104.98804474, 2.69139910, 11.64584637, 0.60742605, -0.78752810, -0.09468520, -0.04321879, 0.06969798, -0.02664510, -0.11043841, 100.32000732, 83.99569702, 31.67999840, 0.00000000
4, 0.3500, 38, 0.00847628, -0.94908994, 0.35967192, 10.07202816, -7.69435310, -10.73057556, -32.97281647, -34.66822433, -14.26483440, 105.03728485, 2.75318646, 11.62255859, 0.60713184, -0.78776497, -0.09486897, -0.04262837, 0.03928354, -0.01562149, -0.10073012, 100.32000732, 83.99569702, 31.67999840, 0.00000000
3, 0.3700, 33, 0.00515278, -0.96847498, 0.25778919, 0.12847775, -3.81558299, -7.03353930, -20.02338409, -17.48026848, -48.64074707, 103.75440216, -2.25010538, 55.88702011, -0.53802925, 0.70051533, 0.35786384, 0.30287993, -0.04491746, -0.00208583, -0.02023878, 100.35800171, 80.80782318, 30.76999855, 0.00000000
3, 0.3800, 34, 0.00331597, -0.97045791, 0.25161093, 0.73932451, -2.99716020, -6.87318230, -19.29260445, -17.33411217, -48.14381790, 103.76227570, -2.17621207, 55.87424850, -0.53825933, 0.70041442, 0.35816279, 0.30235088, -0.04177169, -0.00012390, -0.01393092, 100.35800171, 80.80782318, 30.76999855, 0.00000000
3, 0.3900, 35, 0.01775594, -0.96235830, 0.27254111, -0.97906840, -3.08219528, -6.97800398, -19.29260445, -17.33411217, -48.14381790, 103.75297546, -2.10109973, 55.86089706, -0.53859955, 0.70023143, 0.35841858, 0.30186522, -0.05491444, -0.00827840, -0.03487836, 100.35800171, 80.80782318, 30.76999855, 0.00000000
2, 0.4000, 46, 0.02024273, -0.92337227, -0.30976713, -23.30984879, -7.69180536, -8.07028961, -21.48494530, 20.40339088, -93.91990662, 71.42796326, -0.69900870, -176.84963989, -0.02587862, 0.01109527, -0.58364391, -0.81152141, -0.03255122, -0.02464026, -0.00822704, 100.27100372, 88.10873413, 0.00000000, 0.00000000
2, 0.4050, 47, 0.02670068, -0.91128653, -0.31662619, -22.73816872, -8.24815273, -7.69337845, -21.22186470, 20.57877731, -94.03682709, 71.31488800, -0.67573088, -176.90100098, -0.02540715, 0.01097345, -0.58284396, -0.81211263, -0.03859298, -0.03609640, -0.00325462, 100.27100372, 88.10873413, 0.00000000, 0.00000000
2, 0.4100, 48, 0.03615769, -0.89150417, -0.31980604, -21.88492966, -8.56116390, -7.34624672, -21.22186470, 20.57877731, -94.03682709, 71.20606995, -0.65469903, -176.95335388, -0.02493958, 0.01083264, -0.58207417, -0.81268108, -0.04767382, -0.05526740, -0.00189397, 100.27100372, 88.10873413, 0.00000000, 0.00000000
4, 0.3550, 39, 0.04013827, -0.95625764, 0.35124984, 9.91958714, -6.19357967, -11.85156631, -32.97281647, -34.66822433, -14.26483440, 105.08617401, 2.81845617, 11.60803413, 0.60683846, -0.78798997, -0.09513068, -0.04206045, 0.00874582, -0.00817907, -0.09149609, 100.32000732, 83.99569702, 31.67999840, 0.00000000
4, 0.3600, 40, 0.06840111, -0.95506084, 0.34110478, 9.84406281, -5.45187426, -12.95317078, -32.97281647, -34.78514862, -14.26483440, 105.14427948, 2.89088798, 11.59921646, 0.60648322, -0.78825372, -0.09547215, -0.04146534, -0.01829989, -0.00907487, -0.08046692, 100.32000732, 83.99569702, 31.67999840, 0.00000000
1, 0.3700, 37, 0.26961315, -0.59009075, 0.04773462, 20.12267876, -12.07213497, 24.52881813, -39.37445068, 13.38789845, -115.84332275, 84.30213928, -23.17211151, 85.33387756, 0.44268638, -0.58431351, -0.33606681, -0.59132534, -0.66178566, -0.32520556, -0.14114119, 100.32100677, 83.91182709, 31.44999886, 0.00000000
1, 0.3800, 38, 0.27824652, -0.55293572, 0.13057077, 32.71430969, -38.51491928, 11.75040627, -40.68985748, 13.00789261, -115.69716644, 84.78948212, -23.32544899, 84.92901611, 0.44153526, -0.58790284, -0.33566862, -0.58884925, -0.67375356, -0.36179233, -0.21733989, 100.32100677, 83.91182709, 31.44999886, 0.00000000
1, 0.3900, 39, 0.17668685, -0.52794862, 0.09288739, 45.43555450, -54.10662079, -3.20713902, -40.83601379, 12.65711784, -114.76176453, 85.47756958, -23.33921432, 84.33895111, 0.44094616, -0.59232813, -0.33607796, -0.58460706, -0.57318658, -0.38713005, -0.16995236, 100.32100677, 83.91182709, 31.44999886, 0.00000000
3, 0.4000, 36, 0.02726591, -0.94797415, 0.27939969, -1.82596219, -5.67540693, -7.08681965, -19.76030350, -16.77871895, -48.11458588, 103.73609161, -2.01877856, 55.82258224, -0.53907514, 0.70007324, 0.35853666, 0.30124235, -0.06303920, -0.02277651, -0.04199043, 100.35800171, 80.80782318, 30.76999855, 0.00000000
3, 0.4100, 37, -0.00216460, -0.94688207, 0.26979452, -2.80332327, -11.39376736, -6.93393517, -19.61414719, -16.45717621, -48.46535873, 103.71598053, -1.92185366, 55.72829437, -0.53976452, 0.70003933, 0.35837483, 0.30027771, -0.03204285, -0.02400457, -0.03271062, 100.35800171, 80.80782318, 30.76999855, 0.00000000
3, 0.4200, 38, -0.03311974, -0.93290901, 0.23271742, -3.87133956, -15.94028568, -7.51779985, -19.29260445, -16.31101990, -48.31920624, 103.68173218, -1.81106567, 55.59115219, -0.54069585, 0.70003873, 0.35798132, 0.29907048, 0.00076851, -0.03815359, 0.00390582, 100.35800171, 80.80782318, 30.76999855, 0.00000000
4, 0.3850, 41, 0.10618126, -0.93956250, 0.29730177, 10.60772324, -11.65807724, -17.41039276, -31.97895241, -34.78514862, -14.14791012, 105.39678192, 3.32270312, 11.50839901, 0.60501617, -0.78935391, -0.09720061, -0.03778805, -0.04865936, -0.02301186, -0.03245896, 100.32000732, 83.99569702, 31.67999840, 0.00000000
4, 0.3900, 42, 0.09898015, -0.94296050, 0.30042231, 11.21368885, -11.95987892, -17.88260651, -31.97895241, -34.78514862, -14.14791012, 105.45085144, 3.42479944, 11.47447205, 0.60470986, -0.78959340, -0.09751923, -0.03685647, -0.03968892, -0.01926658, -0.03470918, 100.32000732, 83.99569702, 31.67999840, 0.00000000
3, 0.4300, 39, -0.06218125, -0.92562193, 0.20683688, -3.12873816, -16.41291618, -9.12183094, -19.58491707, -16.28178787, -48.43613052, 103.65467072, -1.68365180, 55.45315933, -0.54163700, 0.70003366, 0.35768205, 0.29773474, 0.03194205, -0.04563260, 0.02927714, 100.35800171, 80.80782318, 30.76999855, 0.00000000
2, 0.4150, 49, 0.05409633, -0.88084662, -0.31410190, -21.45638847, -8.70144844, -7.03335428, -21.22186470, 20.57877731, -94.03682709, 71.09938812, -0.63547194, -177.00588989, -0.02447930, 0.01067937, -0.58131915, -0.81323719, -0.06527022, -0.06532741, -0.00936306, 100.27100372, 88.10873413, 0.00000000, 0.00000000
2, 0.4200, 50, 0.06112259, -0.87176704, -0.30934268, -21.13586807, -8.56392097, -6.82114315, -20.37415886, 20.37415886, -94.44606781, 70.99353790, -0.61038077, -177.05732727, -0.02399681, 0.01057439, -0.58056855, -0.81378901, -0.07191167, -0.07380781, -0.01588251, 100.27100372, 88.10873413, 0.00000000, 0.00000000
2, 0.4250, 51, 0.06630544, -0.86452764, -0.30730116, -20.11427116, -8.21442604, -6.95007658, -20.37415886, 20.37415886, -94.44606781, 70.89350128, -0.59094524, -177.10749817, -0.02355121, 0.01043770, -0.57985950, -0.81430918, -0.07670651, -0.08047379, -0.01959916, 100.27100372, 88.10873413, 0.00000000, 0.00000000
1, 0.4000, 40, 0.11477305, -0.48921284, 0.08401774, 54.63386536, -54.80749512, -17.97522354, -40.83601379, 12.65711784, -114.76176453, 86.26432037, -23.19899368, 83.72955322, 0.44064048, -0.59668362, -0.33767688, -0.57946444, -0.50995737, -0.42732868, -0.14924587, 100.32100677, 83.91182709, 31.44999886, 0.00000000
1, 0.4100, 41, 0.09654255, -0.46859801, 0.10404636, 64.10508728, -56.34243774, -34.18627548, -40.92370605, 12.42326832, -114.90792084, 87.15547943, -22.88387871, 83.09812164, 0.44068846, -0.60095733, -0.34057307, -0.57328355, -0.48781762, -0.45052457, -0.15572774, 100.32100677, 83.91182709, 31.44999886, 0.00000000
1, 0.4200, 42, 0.07247101, -0.47494385, 0.08611032, 71.78511810, -54.01202011, -51.00096512, -41.21601868, 11.92633724, -115.11254120, 88.10640717, -22.39585876, 82.48975372, 0.44107461, -0.60487676, -0.34474385, -0.56632936, -0.45687175, -0.44772679, -0.12300855, 100.32100677, 83.91182709, 31.44999886, 0.00000000
5, 0.4350, 45, -0.06249342, -0.98196846, 0.06240670, -21.24110985, -37.90909958, -63.54296112, -38.67290115, -2.48465347, -104.82315063, 87.13236237, 14.25931168, -25.65092278, -0.68205041, 0.68676412, -0.06411763, -0.24300458, 0.30759263, 0.01365367, -0.11027287, 100.25000763, 89.87149811, 30.55999947, 0.00000000
5, 0.4400, 46, -0.08041750, -0.96921092, 0.07869093, -21.24658203, -38.22338867, -61.85923004, -39.02367783, -2.16311026, -105.75855255, 86.97299957, 14.55837059, -25.86440277, -0.68192059, 0.68589586, -0.06317587, -0.24604900, 0.33053032, 0.00231069, -0.12914279, 100.25000763, 89.87149811, 30.55999947, 0.00000000
5, 0.4450, 47, -0.10660648, -0.95244056, 0.08935440, -21.33955765, -37.63579559, -59.38058853, -39.02367783, -2.16311026, -105.75855255, 86.81278229, 14.84463787, -26.07530212, -0.68181443, 0.68501699, -0.06228914, -0.24899973, 0.36159816, -0.01304341, -0.14243911, 100.25000763, 89.87149811, 30.55999947, 0.00000000
1, 0.4300, 43, 0.06684879, -0.49166265, 0.08385390, 78.50991058, -50.72232819, -68.21877289, -41.42063522, 11.07863140, -114.03098297, 89.10258484, -21.72519112, 81.92360687, 0.44182193, -0.60831791, -0.35024884, -0.55863088, -0.44151604, -0.43547297, -0.10512608, 100.32100677, 83.91182709, 31.44999886, 0.00000000
1, 0.4400, 44, 0.07182381, -0.52106595, 0.10503274, 85.46267700, -50.60025787, -87.63564301, -40.63139343, 10.64016342, -113.18328094, 90.15507507, -20.85091400, 81.37311554, 0.44309500, -0.61135507, -0.35708460, -0.54991138, -0.43363929, -0.41142765, -0.10964834, 100.32100677, 83.91182709, 31.44999886, 0.00000000
3, 0.4400, 40, -0.07771286, -0.92757976, 0.20847073, -1.17026079, -15.95390224, -11.28727055, -19.58491707, -16.28178787, -48.43613052, 103.64658356, -1.53632319, 55.32471466, -0.54249883, 0.70003957, 0.35758653, 0.29626271, 0.04990892, -0.04380843, 0.02739244, 100.35800171, 80.80782318, 30.76999855, 0.00000000
1, 0.4500, 45, 0.07253546, -0.55490649, 0.09245401, 90.41510010, -46.82159042, -107.01000977, -40.63139343, 10.64016342, -113.18328094, 91.22590637, -19.77385139, 80.88594055, 0.44485360, -0.61370653, -0.36528143, -0.54040647, -0.41792271, -0.38366625, -0.07968546, 100.32100677, 83.91182709, 31.44999886, 0.00000000
5, 0.4500, 48, -0.13066740, -0.92402071, 0.08194317, -21.90988922, -33.54421616, -56.31987000, -38.02981567, -2.42619109, -105.61239624, 86.65413666, 15.11622334, -26.26525116, -0.68176317, 0.68415070, -0.06136536, -0.25173625, 0.39031264, -0.04007491, -0.13764250, 100.25000763, 89.87149811, 30.55999947, 0.00000000
5, 0.4550, 49, -0.14451939, -0.90272623, 0.07951152, -21.97097778, -29.79367447, -53.89828110, -38.02981567, -2.42619109, -105.61239624, 86.49936676, 15.37633896, -26.43605423, -0.68174446, 0.68331146, -0.06040111, -0.25428680, 0.40859416, -0.06001455, -0.13776189, 100.25000763, 89.87149811, 30.55999947, 0.00000000
2, 0.4300, 52, 0.07065675, -0.86011004, -0.30259368, -19.05764771, -7.72627258, -7.07677174, -21.57263947, 20.78339577, -94.62145233, 70.79870605, -0.57019573, -177.15559387, -0.02311295, 0.01032264, -0.57918686, -0.81480175, -0.08070047, -0.08434478, -0.02589400, 100.27100372, 88.10873413, 0.00000000, 0.00000000
3, 0.4500, 41, -0.10790831, -0.94340700, 0.20994265, 1.01921642, -17.00378227, -13.14090633, -19.32183456, -16.63256264, -49.02075195, 103.66019440, -1.36849582, 55.19046021, -0.54330587, 0.70011616, 0.35761005, 0.29456952, 0.08290809, -0.02802974, 0.02603400, 100.35800171, 80.80782318, 30.76999855, 0.00000000
3, 0.4600, 42, -0.13844894, -0.99117261, 0.25011623, 0.57000089, -17.21738052, -13.43569946, -19.49722290, -16.86641312, -48.81613541, 103.67153168, -1.20802081, 55.05788803, -0.54409450, 0.70019430, 0.35760197, 0.29293361, 0.11640923, 0.01972996, -0.01386879, 100.35800171, 80.80782318, 30.76999855, 0.00000000
3, 0.4700, 43, 0.00404517, -1.03753769, 0.25225955, -0.45906165, -16.27146721, -12.06768990, -19.96492195, -16.04793930, -49.25460434, 103.66950989, -1.05230987, 54.92828369, -0.54493785, 0.70021075, 0.35755450, 0.29138026, -0.02343029, 0.06605116, -0.01596004, 100.35800171, 80.80782318, 30.76999855, 0.00000000
4, 0.3950, 43, 0.09609571, -0.94430256, 0.30479401, 11.10735798, -11.92011452, -18.22858810, -31.97895241, -34.78514862, -14.14791012, 105.50437164, 3.52854228, 11.44129467, 0.60440689, -0.78982759, -0.09785053, -0.03591754, -0.03500398, -0.01756960, -0.03820520, 100.32000732, 83.99569702, 31.67999840, 0.00000000
4, 0.4000, 44, 0.09759317, -0.94111800, 0.31227940, 10.85620689, -11.50023079, -18.63431549, -33.23589706, -34.02513885, -13.85559750, 105.55673981, 3.63370895, 11.41078186, 0.60411078, -0.79005182, -0.09820639, -0.03498342, -0.03467480, -0.02039921, -0.04483657, 100.32000732, 83.99569702, 31.67999840, 0.00000000
4, 0.4050, 45, 0.09555914, -0.94130111, 0.31221411, 10.74632645, -11.01215744, -18.97203636, -33.23589706, -34.02513885, -13.85559750, 105.60868835, 3.73987317, 11.38316822, 0.60381621, -0.79027021, -0.09858648, -0.03405765, -0.03079684, -0.01985926, -0.04393015, 100.32000732, 83.99569702, 31.67999840, 0.00000000
5, 0.4950, 50, -0.03399845, -0.75958222, 0.09072873, -5.35120344, -14.56536961, -37.93115234, -37.35749817, -1.78310430, -106.28471375, 85.74116516, 17.10405159, -27.23100853, -0.68055999, 0.67952895, -0.05245210, -0.26893732, 0.32734939, -0.19379833, -0.16151020, 100.25000763, 89.87149811, 30.55999947, 0.00000000
5, 0.5000, 51, -0.01637122, -0.74934769, 0.09489766, -3.76028728, -16.66847801, -35.91006851, -37.00672150, -2.22157264, -106.57702637, 85.69250488, 17.27687645, -27.33204269, -0.68021095, 0.67930293, -0.05183814, -0.27050611, 0.31265235, -0.20306981, -0.16643706, 100.25000763, 89.87149811, 30.55999947, 0.00000000
3, 0.4800, 44, 0.09249608, -1.05904031, 0.26957327, -1.80430973, -16.43563271, -12.66683960, -19.43876076, -15.75562668, -48.90382767, 103.65367126, -0.89040416, 54.79848480, -0.54588211, 0.70014650, 0.35750052, 0.28982943, -0.10910186, 0.08746427, -0.03343002, 100.35800171, 80.80782318, 30.76999855, 0.00000000
3, 0.4900, 45, 0.09767738, -1.03517985, 0.30891263, -4.40908813, -16.39184189, -11.15265369, -19.43876076, -15.75562668, -48.90382767, 103.61147308, -0.74338293, 54.66545868, -0.54694414, 0.70000196, 0.35728902, 0.28843376, -0.11159246, 0.06343396, -0.07329477, 100.35800171, 80.80782318, 30.76999855, 0.00000000
3, 0.5000, 46, 0.03363118, -1.00669575, 0.32930005, -6.45072317, -19.93111801, -10.03631020, -19.43876076, -16.04793930, -49.16690826, 103.54895782, -0.59902894, 54.49527740, -0.54821110, 0.69988137, 0.35678771, 0.28693777, -0.04503039, 0.03469300, -0.09460851, 100.35800171, 80.80782318, 30.76999855, 0.00000000
2, 0.4350, 53, 0.07184947, -0.86000156, -0.29727158, -17.61337662, -7.51374960, -7.31001663, -21.57263947, 20.78339577, -94.62145233, 70.71109772, -0.54807186, -177.20310974, -0.02267110, 0.01022247, -0.57856476, -0.81525731, -0.08151285, -0.08394288, -0.03269131, 100.27100372, 88.10873413, 0.00000000, 0.00000000
2, 0.4400, 54, 0.07151654, -0.86115766, -0.29255053, -15.92411709, -7.16106796, -7.67906380, -21.57263947, 20.78339577, -94.62145233, 70.63192749, -0.52369219, -177.24961853, -0.02222426, 0.01014583, -0.57800180, -0.81566983, -0.08076499, -0.08232147, -0.03875247, 100.27100372, 88.10873413, 0.00000000, 0.00000000
5, 0.5050, 52, -0.00160169, -0.74474251, 0.09848839, -1.73995245, -18.73178673, -33.92537308, -37.00672150, -2.22157264, -106.57702637, 85.65061188, 17.43895149, -27.44330597, -0.67981875, 0.67910594, -0.05136794, -0.27207178, 0.30062670, -0.20676720, -0.17068902, 100.25000763, 89.87149811, 30.55999947, 0.00000000
5, 0.5100, 53, 0.01456567, -0.73975837, 0.10148478, -0.04245286, -20.79895782, -31.83458328, -36.68518066, -3.15697169, -106.02162933, 85.61384583, 17.58973885, -27.56475258, -0.67939448, 0.67892814, -0.05104101, -0.27363211, 0.28701881, -0.21089974, -0.17425600, 100.25000763, 89.87149811, 30.55999947, 0.00000000
5, 0.5150, 54, 0.03389461, -0.73048675, 0.10825519, 1.18842125, -22.76728821, -29.77121925, -36.68518066, -3.15697169, -106.02162933, 85.58002472, 17.72941971, -27.69586182, -0.67895222, 0.67875701, -0.05084812, -0.27518612, 0.27005798, -0.21937728, -0.18154103, 100.25000763, 89.87149811, 30.55999947, 0.00000000
4, 0.4100, 46, 0.08290581, -0.94540477, 0.30458421, 10.24887180, -10.87149048, -19.20307541, -33.23589706, -34.02513885, -13.85559750, 105.66127777, 3.84816313, 11.35691261, 0.60351682, -0.79048842, -0.09898632, -0.03312333, -0.01627018, -0.01539416, -0.03546547, 100.32000732, 83.99569702, 31.67999840, 0.00000000
4, 0.4150, 47, 0.07031526, -0.94228870, 0.29887953, 9.71955204, -11.21701145, -19.23291588, -32.12511063, -34.22975540, -13.73867321, 105.70796204, 3.95590901, 11.32884693, 0.60325754, -0.79067713, -0.09936831, -0.03218797, -0.00179567, -0.01815772, -0.02897685, 100.32000732, 83.99569702, 31.67999840, 0.00000000
4, 0.4200, 48, 0.05773696, -0.94202971, 0.29716325, 9.57553291, -10.97925568, -19.01608849, -32.12511063, -34.22975540, -13.73867321, 105.75395203, 4.06231117, 11.30171776, 0.60300112, -0.79086173, -0.09974875, -0.03126711, 0.01264402, -0.01807467, -0.02652376, 100.32000732, 83.99569702, 31.67999840, 0.00000000
1, 0.4600, 46, 0.05401078, -0.60628986, 0.09034339, 94.75624084, -43.34103775, -123.59704590, -40.57293320, 10.08477020, -112.59865570, 92.30951691, -18.51980591, 80.46700287, 0.44697976, -0.61540949, -0.37466842, -0.53019232, -0.37987682, -0.33879840, -0.05981912, 100.32100677, 83.91182709, 31.44999886, 0.00000000
1, 0.4700, 47, 0.02415532, -0.66552758, 0.09619385, 98.40802002, -41.50461578, -139.40829468, -39.49137497, 9.67553329, -111.31247711, 93.40184021, -17.10497284, 80.10242462, 0.44948229, -0.61652917, -0.38503048, -0.51923901, -0.32755885, -0.28623152, -0.04747697, 100.32100677, 83.91182709, 31.44999886, 0.00000000
1, 0.4800, 48, -0.00495936, -0.73500752, 0.09625039, 100.57044983, -38.44072723, -154.64553833, -39.22829437, 9.23706532, -110.31861877, 94.48572540, -15.53380585, 79.81132507, 0.45234531, -0.61692661, -0.39633107, -0.50764859, -0.27317369, -0.22328340, -0.02910301, 100.32100677, 83.91182709, 31.44999886, 0.00000000
1, 0.4900, 49, -0.01839923, -0.82817852, 0.11106376, 101.72495270, -34.42345810, -170.05757141, -37.79596710, 7.13241720, -109.73399353, 95.55043793, -13.80755424, 79.60819244, 0.45556217, -0.61647910, -0.40855461, -0.49547952, -0.23172812, -0.13632460, -0.02548667, 100.32100677, 83.91182709, 31.44999886, 0.00000000
1, 0.5000, 50, -0.01974678, -0.91463745, 0.12633465, 100.85716248, -30.69823074, -184.90748596, -37.79596710, 7.13241720, -109.73399353, 96.58041382, -11.93422413, 79.49286652, 0.45918882, -0.61510491, -0.42155179, -0.48278943, -0.19953749, -0.05554350, -0.02253798, 100.32100677, 83.91182709, 31.44999886, 0.00000000
1, 0.5100, 51, -0.02073722, -0.98865640, 0.12660342, 99.56587982, -25.09825134, -196.72790527, -36.80210495, 7.24934244, -109.79245758, 97.57324982, -9.94706440, 79.48367310, 0.46302027, -0.61277932, -0.43520969, -0.46979392, -0.16524076, 0.01364893, -0.00506414, 100.32100677, 83.91182709, 31.44999886, 0.00000000
3, 0.5100, 47, 0.01012356, -0.97177374, 0.32887095, -8.05497169, -17.88948822, -9.66288662, -18.73721123, -16.63256264, -49.10844803, 103.48073578, -0.46108723, 54.34509659, -0.54943824, 0.69968516, 0.35636485, 0.28559154, -0.01907534, -0.00054731, -0.09539466, 100.35800171, 80.80782318, 30.76999855, 0.00000000
4, 0.4250, 49, 0.04699996, -0.94537216, 0.29180220, 9.24950504, -10.15565491, -18.78465080, -32.62203979, -33.82051849, -13.73867321, 105.79851532, 4.16650295, 11.27833080, 0.60275149, -0.79103673, -0.10014234, -0.03038215, 0.02520399, -0.01439342, -0.02044207, 100.32000732, 83.99569702, 31.67999840, 0.00000000
4, 0.4300, 50, 0.02977320, -0.94437420, 0.28057525, 8.64126587, -9.54072189, -18.48116493, -32.62203979, -33.82051849, -13.73867321, 105.84018707, 4.26841402, 11.25756645, 0.60251915, -0.79119545, -0.10054071, -0.02952902, 0.04421610, -0.01506385, -0.00853848, 100.32000732, 83.99569702, 31.67999840, 0.00000000
2, 0.4600, 55, 0.05571007, -0.87070298, -0.26104817, -11.84121227, -7.11076164, -8.66692066, -21.13417053, 20.63723946, -94.73838043, 70.36796570, -0.41435850, -177.43806458, -0.02035438, 0.00992679, -0.57612199, -0.81704992, -0.06306817, -0.07122577, -0.07468388, 100.27100372, 88.10873413, 0.00000000, 0.00000000
2, 0.4650, 56, 0.04944413, -0.88233536, -0.24341962, -10.78121376, -6.83215284, -8.58811474, -21.13417053, 20.63723946, -94.73838043, 70.31438446, -0.38541335, -177.48468018, -0.01988113, 0.00988953, -0.57573992, -0.81733143, -0.05629536, -0.05927413, -0.09321737, 100.27100372, 88.10873413, 0.00000000, 0.00000000
2, 0.4700, 57, 0.04258239, -0.89422941, -0.23305047, -10.00145340, -6.72841597, -8.37419224, -20.69570351, 19.08798599, -94.38760376, 70.27717590, -0.35154352, -177.53123474, -0.01938215, 0.00989093, -0.57547373, -0.81753075, -0.04888905, -0.04712072, -0.10432212, 100.27100372, 88.10873413, 0.00000000, 0.00000000
3, 0.5200, 48, -0.00780544, -0.95207089, 0.31857359, -8.10776424, -16.95331573, -9.87849426, -18.97106171, -17.12949371, -49.04998398, 103.40062714, -0.32559696, 54.20317078, -0.55070579, 0.69941044, 0.35595247, 0.28433439, 0.00121778, -0.02055651, -0.08629800, 100.35800171, 80.80782318, 30.76999855, 0.00000000
1, 0.5200, 52, -0.00439613, -1.05320585, 0.13113330, 98.51729584, -19.80826950, -205.68449402, -35.34054184, 4.47237635, -107.98011780, 98.53955078, -7.88030291, 79.57398224, 0.46689156, -0.60962367, -0.44933692, -0.45658270, -0.14650786, 0.07450882, 0.00776839, 100.32100677, 83.91182709, 31.44999886, 0.00000000
5, 0.5200, 55, 0.04489703, -0.72235173, 0.11309072, 3.01820350, -24.10336113, -27.37780762, -36.68518066, -3.15697169, -106.02162933, 85.55316162, 17.85659027, -27.83316803, -0.67847967, 0.67861688, -0.05078752, -0.27670401, 0.26121026, -0.22678801, -0.18679181, 100.25000763, 89.87149811, 30.55999947, 0.00000000
5, 0.5250, 56, 0.05948437, -0.71828490, 0.11946195, 4.77925110, -25.64871597, -25.02615738, -36.53902435, -1.98772287, -106.19701385, 85.53257751, 17.97137642, -27.97776222, -0.67797834, 0.67850327, -0.05086344, -0.27819344, 0.24859098, -0.23019266, -0.19348837, 100.25000763, 89.87149811, 30.55999947, 0.00000000
5, 0.5300, 57, 0.07407173, -0.71339017, 0.12402600, 6.45115852, -25.56123734, -23.23660088, -36.53902435, -1.98772287, -106.19701385, 85.52041626, 18.07723236, -28.12129021, -0.67744780, 0.67843455, -0.05100995, -0.27962297, 0.23579624, -0.23448810, -0.19824474, 100.25000763, 89.87149811, 30.55999947, 0.00000000
2, 0.4750, 58, 0.03365850, -0.91803801, -0.21456057, -9.29135704, -6.62536335, -8.09108067, -20.69570351, 19.08798599, -94.38760376, 70.23097992, -0.32465866, -177.57608032, -0.01893117, 0.00984990, -0.57514429, -0.81777358, -0.03944091, -0.02307752, -0.12347504, 100.27100372, 88.10873413, 0.00000000, 0.00000000
2, 0.4800, 59, 0.02556633, -0.94240242, -0.19946036, -8.85961628, -6.66363859, -7.53326845, -20.87108994, 20.46185303, -95.03069305, 70.18692780, -0.30049816, -177.62019348, -0.01849895, 0.00979386, -0.57483035, -0.81800497, -0.03091351, 0.00154794, -0.13930848, 100.27100372, 88.10873413, 0.00000000, 0.00000000
2, 0.4850, 60, 0.01912450, -0.96743792, -0.18375793, -8.49846745, -6.49443579, -6.93793154, -20.87108994, 20.46185303, -95.03069305, 70.14464569, -0.27888429, -177.66250610, -0.01809206, 0.00972922, -0.57452923, -0.81822634, -0.02408288, 0.02683449, -0.15571304, 100.27100372, 88.10873413, 0.00000000, 0.00000000
3, 0.5300, 49, -0.09157760, -0.93276972, 0.26049381, -8.63548088, -18.99750137, -10.80572510, -18.97106171, -17.12949371, -49.04998398, 103.31497192, -0.17656755, 54.04330063, -0.55208999, 0.69912964, 0.35548401, 0.28292319, 0.08750493, -0.04021157, -0.02964706, 100.35800171, 80.80782318, 30.76999855, 0.00000000
3, 0.5400, 50, -0.13268442, -0.92359108, 0.22883646, -7.94457150, -19.14776039, -12.14323711, -18.24028015, -16.31101990, -49.28383636, 103.23579407, -0.01441341, 53.88481903, -0.55346727, 0.69884145, 0.35510543, 0.28141579, 0.13134697, -0.04972866, 0.00061108, 100.35800171, 80.80782318, 30.76999855, 0.00000000
3, 0.5500, 51, -0.17828479, -0.92222321, 0.16930452, -6.99288130, -20.18928909, -14.64758015, -18.21105003, -15.93101406, -49.45922089, 103.16563416, 0.17429993, 53.72170258, -0.55487770, 0.69854379, 0.35485089, 0.27969298, 0.18004957, -0.05138866, 0.05889669, 100.35800171, 80.80782318, 30.76999855, 0.00000000
4, 0.5050, 51, 0.11521845, -0.96734315, 0.32903033, 2.95057464, -12.02573204, -19.10231209, -31.30663490, -34.22975540, -14.03098488, 106.20816040, 5.61973810, 11.01342869, 0.60063654, -0.79225522, -0.10594653, -0.01851990, -0.01777418, 0.01164505, -0.05127952, 100.32000732, 83.99569702, 31.67999840, 0.00000000
4, 0.5100, 52, 0.13560811, -0.95253241, 0.35083860, 3.43139768, -14.31420040, -20.48059654, -31.30663490, -34.22975540, -14.03098488, 106.22811127, 5.74147272, 10.97398376, 0.60055453, -0.79229331, -0.10630691, -0.01744697, -0.03612314, -0.00289428, -0.07287783, 100.32000732, 83.99569702, 31.67999840, 0.00000000
5, 0.5350, 58, 0.09005614, -0.71039313, 0.12499262, 8.15325260, -25.02160072, -21.46526146, -36.27594376, -1.75387311, -106.22624969, 85.52816010, 18.16722870, -28.25956345, -0.67684746, 0.67847580, -0.05127485, -0.28092521, 0.22140265, -0.23696673, -0.19917098, 100.25000763, 89.87149811, 30.55999947, 0.00000000
2, 0.4900, 61, 0.00958525, -0.98712438, -0.17452732, -8.38060665, -6.12029219, -6.02778864, -20.81262779, 20.02338409, -95.35223389, 70.10293579, -0.26094496, -177.70152283, -0.01772698, 0.00965520, -0.57423222, -0.81844360, -0.01421330, 0.04676828, -0.16563338, 100.27100372, 88.10873413, 0.00000000, 0.00000000
2, 0.4950, 62, -0.00188991, -1.00292444, -0.16227028, -7.69908381, -5.74426508, -5.21920729, -20.81262779, 20.02338409, -95.35223389, 70.06459808, -0.24619338, -177.73742676, -0.01739991, 0.00957488, -0.57395947, -0.81864291, -0.00246967, 0.06279943, -0.17853165, 100.27100372, 88.10873413, 0.00000000, 0.00000000
1, 0.5300, 53, 0.02063928, -1.12290370, 0.14112119, 97.73581696, -18.51640320, -212.67172241, -34.05437088, 5.58316278, -106.81087494, 99.49408722, -5.74824715, 79.72245026, 0.47084349, -0.60586005, -0.46367183, -0.44299942, -0.13509774, 0.14187306, 0.01484270, 100.32100677, 83.91182709, 31.44999886, 0.00000000
1, 0.5400, 54, 0.02572517, -1.17364097, 0.14268140, 96.56413269, -21.13909149, -217.04824829, -32.41742325, 4.56007004, -106.60625458, 100.44094849, -3.57132006, 79.88740540, 0.47493309, -0.60171419, -0.47788590, -0.42895666, -0.10263114, 0.19181529, 0.03006435, 100.32100677, 83.91182709, 31.44999886, 0.00000000
1, 0.5500, 55, 0.02663327, -1.23164797, 0.12427779, 94.79531860, -23.85743713, -219.08850098, -29.96199989, 4.44314528, -106.02162933, 101.37570190, -1.37224305, 80.06485748, 0.47909912, -0.59724891, -0.49181914, -0.41457433, -0.06528761, 0.25069597, 0.06489916, 100.32100677, 83.91182709, 31.44999886, 0.00000000
1, 0.5600, 56, -0.01186255, -1.27067626, 0.09450407, 90.68061829, -32.96493912, -216.23870850, -29.96199989, 4.44314528, -106.02162933, 102.27509308, 0.81385320, 80.18160248, 0.48356664, -0.59280515, -0.50485039, -0.39983937, 0.01156632, 0.29222256, 0.11027148, 100.32100677, 83.91182709, 31.44999886, 0.00000000
1, 0.5700, 57, -0.04105197, -1.30938518, 0.05705198, 86.99671173, -36.08861160, -211.46412659, -28.82198143, 4.18006420, -104.85237885, 103.14336395, 2.95840144, 80.29181671, 0.48798460, -0.58828062, -0.51717347, -0.38513464, 0.07856115, 0.33496895, 0.16240682, 100.32100677, 83.91182709, 31.44999886, 0.00000000
4, 0.5150, 53, 0.14703232, -0.93842971, 0.36189312, 3.90879416, -16.11379433, -22.23376846, -30.98509216, -34.43437576, -13.32943535, 106.24294281, 5.87073421, 10.92747021, 0.60051066, -0.79230428, -0.10665618, -0.01628915, -0.04532256, -0.01669425, -0.08369759, 100.32000732, 83.99569702, 31.67999840, 0.00000000
4, 0.5200, 54, 0.15484543, -0.92474699, 0.35927469, 4.42053413, -17.77592087, -23.95026588, -30.98509216, -34.43437576, -13.32943535, 106.25965881, 6.01057386, 10.87537479, 0.60045707, -0.79232061, -0.10702144, -0.01502649, -0.05075075, -0.03006128, -0.08087730, 100.32000732, 83.99569702, 31.67999840, 0.00000000
4, 0.5250, 55, 0.15087201, -0.91640198, 0.35023090, 4.57853222, -19.57846260, -25.55703545, -30.51739311, -33.70359421, -13.41712952, 106.27635193, 6.16066599, 10.81686974, 0.60040641, -0.79233330, -0.10739494, -0.01365865, -0.04421771, -0.03806389, -0.07162832, 100.32000732, 83.99569702, 31.67999840, 0.00000000
3, 0.5600, 52, -0.26241720, -0.92990124, 0.14976127, -5.18400192, -16.55127144, -19.46548843, -17.74334908, -16.45717621, -48.96229172, 103.10786438, 0.37195778, 53.61108780, -0.55610663, 0.69811958, 0.35499147, 0.27812883, 0.26777494, -0.04394466, 0.07738315, 100.35800171, 80.80782318, 30.76999855, 0.00000000
3, 0.5700, 53, -0.21912314, -0.94239438, 0.19424309, -3.29725432, -10.45350075, -24.04552650, -17.65565681, -16.19409561, -49.02075195, 103.07448578, 0.62983835, 53.56373215, -0.55721337, 0.69746655, 0.35586810, 0.27642643, 0.22838284, -0.03159136, 0.03217342, 100.35800171, 80.80782318, 30.76999855, 0.00000000
3, 0.5800, 54, -0.15241127, -0.95960695, 0.20003274, -2.63170171, -8.01309299, -27.99134445, -17.65565681, -16.19409561, -49.02075195, 103.04798889, 0.92061621, 53.54892349, -0.55829573, 0.69666040, 0.35711747, 0.27465838, 0.16653316, -0.01444064, 0.02586491, 100.35800171, 80.80782318, 30.76999855, 0.00000000
2, 0.5000, 63, -0.01227750, -1.01261175, -0.15008038, -7.26866770, -5.15888023, -4.65209389, -20.81262779, 20.02338409, -95.35223389, 70.02838135, -0.23313157, -177.76960754, -0.01710758, 0.00950160, -0.57370174, -0.81883061, 0.00815202, 0.07270449, -0.19132470, 100.27100372, 88.10873413, 0.00000000, 0.00000000
5, 0.5400, 59, 0.09048166, -0.70971072, 0.12451924, 9.77975464, -24.30935097, -19.37564278, -36.27594376, -1.75387311, -106.22624969, 85.53470612, 18.25434494, -28.39508438, -0.67626542, 0.67850935, -0.05153903, -0.28219497, 0.22240055, -0.23719513, -0.19850671, 100.25000763, 89.87149811, 30.55999947, 0.00000000
4, 0.5300, 56, 0.13592771, -0.91189080, 0.34045535, 4.70162439, -21.48840523, -26.92072487, -30.51739311, -33.70359421, -13.41712952, 106.29270172, 6.31999826, 10.75109196, 0.60035992, -0.79234219, -0.10776538, -0.01218844, -0.02654834, -0.04221097, -0.06166229, 100.32000732, 83.99569702, 31.67999840, 0.00000000
4, 0.5350, 57, 0.11401394, -0.91288555, 0.32779479, 4.93470621, -23.88476563, -28.05136108, -30.51739311, -33.70359421, -13.41712952, 106.30892944, 6.48813677, 10.67536449, 0.60031575, -0.79235125, -0.10811201, -0.01060465, -0.00175325, -0.04082901, -0.04882290, 100.32000732, 83.99569702, 31.67999840, 0.00000000
4, 0.5400, 58, 0.08660911, -0.91579813, 0.31266385, 4.73980522, -26.04678154, -28.78463554, -30.37123680, -34.37591171, -12.94942951, 106.32288361, 6.66285276, 10.59025097, 0.60028720, -0.79235047, -0.10842696, -0.00892779, 0.02865448, -0.03751484, -0.03354334, 100.32000732, 83.99569702, 31.67999840, 0.00000000
1, 0.5800, 58, -0.01763971, -1.32038319, 0.08415351, 86.65967560, -46.43795395, -204.83628845, -27.21426392, 3.85852075, -103.97544098, 104.00639343, 5.06080294, 80.31822968, 0.49246883, -0.58415312, -0.52849627, -0.37004256, 0.09196945, 0.35138345, 0.14950112, 100.32100677, 83.91182709, 31.44999886, 0.00000000
3, 0.5900, 55, -0.16363147, -0.96988451, 0.23438336, -1.66113138, -7.02341223, -31.15358162, -16.74948883, -16.72025681, -49.42998886, 103.03141022, 1.23996770, 53.55077744, -0.55936021, 0.69577432, 0.35862806, 0.27276424, 0.18314165, -0.00415458, -0.00885155, 100.35800171, 80.80782318, 30.76999855, 0.00000000
5, 0.5750, 60, 0.11715476, -0.70264786, 0.03246618, 22.14070702, -2.90307260, -11.41790676, -36.36363602, -2.77696586, -105.87547302, 85.94995880, 18.73287392, -28.90845490, -0.67135531, 0.68102300, -0.05257708, -0.28762034, 0.20377633, -0.24205762, -0.09980495, 100.25000763, 89.87149811, 30.55999947, 0.00000000
5, 0.5800, 61, 0.13562818, -0.70499402, 0.01651377, 23.97189903, -0.90163332, -10.42417717, -36.36363602, -2.77696586, -105.87547302, 86.06706238, 18.78454971, -28.91703224, -0.67050964, 0.68173730, -0.05259456, -0.28789729, 0.18617395, -0.23954874, -0.08195089, 100.25000763, 89.87149811, 30.55999947, 0.00000000
5, 0.5850, 62, 0.15859966, -0.70313823, -0.00129810, 25.81253433, 0.33531377, -9.38940620, -36.01286316, -2.98158431, -105.70008850, 86.19841766, 18.82662010, -28.91877174, -0.66961914, 0.68253106, -0.05266857, -0.28807566, 0.16395983, -0.24129033, -0.06202585, 100.25000763, 89.87149811, 30.55999947, 0.00000000
2, 0.5550, 64, 0.06065156, -0.97766614, -0.19133726, -19.04589272, -3.21951318, -2.97626781, -20.63723946, 20.87108994, -95.67378235, 69.38285828, -0.11576901, -177.95864868, -0.01522187, 0.00930824, -0.56908053, -0.82208818, -0.06270570, 0.04156685, -0.16039254, 100.27100372, 88.10873413, 0.00000000, 0.00000000
2, 0.5600, 65, 0.07908690, -0.96664608, -0.20269728, -19.46391296, -4.12335634, -2.71362233, -20.63723946, 20.87108994, -95.67378235, 69.28558350, -0.11035030, -177.98272705, -0.01503005, 0.00921479, -0.56838381, -0.82257468, -0.08103307, 0.03114188, -0.15061276, 100.27100372, 88.10873413, 0.00000000, 0.00000000
2, 0.5650, 66, 0.09329986, -0.95644009, -0.21689200, -19.87948418, -5.02858067, -2.27714086, -20.78339577, 21.19263268, -95.90763092, 69.18624115, -0.10861823, -178.01026917, -0.01483161, 0.00907774, -0.56767249, -0.82307094, -0.09519742, 0.02154824, -0.13803546, 100.27100372, 88.10873413, 0.00000000, 0.00000000
4, 0.5450, 59, 0.05631226, -0.92049885, 0.29897064, 4.04850864, -28.28388214, -29.19453239, -30.37123680, -34.37591171, -12.94942951, 106.33191681, 6.84269428, 10.49491119, 0.60029143, -0.79232818, -0.10869689, -0.00716609, 0.06204740, -0.03241343, -0.01977787, 100.32000732, 83.99569702, 31.67999840, 0.00000000
4, 0.5500, 60, 0.03187332, -0.92417669, 0.28645539, 3.06392646, -29.35244370, -29.36739731, -30.37123680, -34.37591171, -13.56328583, 106.33513641, 7.02487850, 10.39463234, 0.60033286, -0.79227704, -0.10894413, -0.00536757, 0.08963569, -0.02834782, -0.00729238, 100.32000732, 83.99569702, 31.67999840, 0.00000000
3, 0.6000, 56, -0.14325064, -0.97698116, 0.28255099, -2.22908425, -7.20336819, -33.77120972, -17.24641991, -16.60333252, -49.72230148, 103.00926971, 1.58523190, 53.55669785, -0.56052226, 0.69477677, 0.36027232, 0.27074692, 0.16863330, 0.00300317, -0.05734075, 100.35800171, 80.80782318, 30.76999855, 0.00000000
5, 0.5900, 63, 0.19396876, -0.70024681, -0.02534238, 27.38191605, 0.28306341, -8.15774918, -36.01286316, -2.98158431, -105.70008850, 86.33489990, 18.86741257, -28.92008209, -0.66870135, 0.68335289, -0.05276150, -0.28824246, 0.12924844, -0.24410567, -0.03572042, 100.25000763, 89.87149811, 30.55999947, 0.00000000
5, 0.5950, 64, 0.23815036, -0.69354969, -0.05650620, 29.15597916, -1.95655715, -6.55822659, -36.01286316, -2.98158431, -105.70008850, 86.47663116, 18.89953232, -28.93258476, -0.66774446, 0.68419343, -0.05298968, -0.28842482, 0.08563260, -0.25075695, -0.00222317, 100.25000763, 89.87149811, 30.55999947, 0.00000000
5, 0.6000, 65, 0.27679971, -0.69732726, -0.08099318, 30.11759186, -4.79591131, -5.59730721, -35.83747482, -3.04004669, -105.34931183, 86.61842346, 18.92602730, -28.95967102, -0.66676325, 0.68502283, -0.05334128, -0.28866121, 0.04744463, -0.24696419, 0.02461049, 100.25000763, 89.87149811, 30.55999947, 0.00000000
3, 0.6100, 57, -0.07658800, -0.99068010, 0.27575392, -3.00762987, -7.67778063, -35.42877960, -17.24641991, -17.30488205, -48.81613541, 102.98446655, 1.94118059, 53.56399918, -0.56172389, 0.69372779, 0.36196747, 0.26867747, 0.10814680, 0.01676409, -0.05105751, 100.35800171, 80.80782318, 30.76999855, 0.00000000
3, 0.6200, 58, -0.02521693, -1.00397372, 0.28078246, -4.46955824, -10.02705383, -36.99620056, -16.80795097, -16.39871407, -48.96229172, 102.93920898, 2.32420015, 53.54925919, -0.56317550, 0.69257116, 0.36360878, 0.26639667, 0.06323223, 0.03014288, -0.05671856, 100.35800171, 80.80782318, 30.76999855, 0.00000000
3, 0.6300, 59, -0.03819898, -1.00917017, 0.21851084, -5.21996927, -13.26946640, -39.03623962, -16.80795097, -16.39871407, -48.96229172, 102.88513184, 2.73434210, 53.50711823, -0.56481588, 0.69137979, 0.36519220, 0.26384020, 0.08318958, 0.03542200, 0.00461758, 100.35800171, 80.80782318, 30.76999855, 0.00000000
2, 0.5700, 67, 0.10773432, -0.94251722, -0.22437361, -19.87080002, -5.89864206, -1.80332029, -20.78339577, 21.19263268, -95.90763092, 69.10328674, -0.09658343, -178.04212952, -0.01454971, 0.00899585, -0.56707758, -0.82348680, -0.10953407, 0.00819033, -0.13203901, 100.27100372, 88.10873413, 0.00000000, 0.00000000
2, 0.5750, 68, 0.11114319, -0.92982918, -0.23140851, -19.37126541, -8.04615974, -1.79819274, -20.78339577, 21.19263268, -95.90763092, 69.00650787, -0.10256871, -178.08291626, -0.01429361, 0.00873893, -0.56638575, -0.82397002, -0.11290581, -0.00394040, -0.12646180, 100.27100372, 88.10873413, 0.00000000, 0.00000000
2, 0.5800, 69, 0.11012880, -0.91846949, -0.23486358, -18.41665459, -9.18692780, -1.91492093, -21.30955887, 21.60187149, -96.25839996, 68.91451263, -0.11012471, -178.12922668, -0.01400475, 0.00844447, -0.56572843, -0.82442957, -0.11201633, -0.01471472, -0.12452996, 100.27100372, 88.10873413, 0.00000000, 0.00000000
1, 0.5900, 59, 0.01639854, -1.33751655, 0.13901140, 87.72322083, -60.88102722, -198.39395142, -24.93422890, 2.48465347, -103.44927979, 104.86786652, 7.13598394, 80.21984100, 0.49716306, -0.58060777, -0.53869838, -0.35429874, 0.09400956, 0.37535354, 0.10843115, 100.32100677, 83.91182709, 31.44999886, 0.00000000
1, 0.6000, 60, 0.01751091, -1.33859563, 0.20398478, 86.18139648, -73.22737122, -192.44685364, -24.20344925, 2.89389062, -102.95235443, 105.69575500, 9.18721676, 80.01586151, 0.50213802, -0.57743692, -0.54780996, -0.33812481, 0.12840641, 0.38455948, 0.05635156, 100.32100677, 83.91182709, 31.44999886, 0.00000000
1, 0.6100, 61, -0.01651473, -1.34229064, 0.24168643, 80.31835938, -76.65422058, -185.96925354, -24.20344925, 2.89389062, -102.95235443, 106.45317078, 11.18620396, 79.78704834, 0.50719243, -0.57421738, -0.55605716, -0.32222801, 0.19713295, 0.39743850, 0.03003728, 100.32100677, 83.91182709, 31.44999886, 0.00000000
4, 0.6050, 61, -0.16637315, -0.95890433, 0.19968095, -6.87284803, -16.30104256, -22.63382149, -27.97427559, -33.99590683, -13.85559750, 105.90422821, 8.80466938, 9.33478832, 0.60369813, -0.78937531, -0.11084642, 0.01218101, 0.31887385, 0.00848141, 0.07131626, 100.32000732, 83.99569702, 31.67999840, 0.00000000
4, 0.6100, 62, -0.16386412, -0.96702451, 0.21433839, -4.34220552, -13.40503693, -22.21649551, -27.97427559, -33.99590683, -13.85559750, 105.87162781, 8.90007019, 9.29751301, 0.60393381, -0.78914785, -0.11108762, 0.01300923, 0.31829289, 0.01673136, 0.05602166, 100.32000732, 83.99569702, 31.67999840, 0.00000000
5, 0.6050, 66, 0.31125575, -0.70348620, -0.09904622, 30.72887039, -8.29976177, -4.51974916, -35.83747482, -3.04004669, -105.34931183, 86.75741577, 18.94619560, -29.00485611, -0.66576779, 0.68582213, -0.05383463, -0.28896904, 0.01334693, -0.24081731, 0.04497420, 100.25000763, 89.87149811, 30.55999947, 0.00000000
5, 0.6100, 67, 0.34066588, -0.71586001, -0.11933307, 31.66309547, -11.86937523, -3.41245961, -36.24671173, -3.12774038, -105.14469147, 86.89506531, 18.95994949, -29.06851006, -0.66474861, 0.68659955, -0.05447647, -0.28934869, -0.01581115, -0.22848460, 0.06754011, 100.25000763, 89.87149811, 30.55999947, 0.00000000
1, 0.6200, 62, -0.03580206, -1.38533604, 0.25845328, 69.97682190, -75.90654755, -179.42276001, -23.00496864, 2.71850324, -102.30926514, 107.10298157, 13.12450027, 79.57096100, 0.51236892, -0.57063383, -0.56354308, -0.30704123, 0.24993917, 0.45031923, 0.02257614, 100.32100677, 83.91182709, 31.44999886, 0.00000000
1, 0.6300, 63, -0.02174158, -1.42126131, 0.22777800, 57.95946503, -72.52616882, -169.21687317, -21.71879578, 2.10464764, -101.52001953, 107.63104248, 14.95707798, 79.37562561, 0.51754510, -0.56675291, -0.57017815, -0.29297647, 0.26783925, 0.49638283, 0.06029281, 100.32100677, 83.91182709, 31.44999886, 0.00000000
1, 0.6400, 64, -0.01490562, -1.38628232, 0.18161282, 47.85051727, -62.48594666, -153.49600220, -20.84185982, 2.98158431, -101.05232239, 108.07008362, 16.61057091, 79.24414063, 0.52218419, -0.56279856, -0.57608646, -0.28054565, 0.29019013, 0.47137111, 0.11168814, 100.32100677, 83.91182709, 31.44999886, 0.00000000
4, 0.6150, 63, -0.13147233, -0.96511197, 0.22720377, -3.14108539, -12.93659592, -21.15186501, -28.14966393, -33.99590683, -13.53405380, 105.85066223, 9.01947975, 9.26378441, 0.60409236, -0.78895473, -0.11147676, 0.01399683, 0.28772905, 0.01497546, 0.04265536, 100.32000732, 83.99569702, 31.67999840, 0.00000000
4, 0.6200, 64, -0.11053767, -0.96360838, 0.24261515, -2.19148540, -11.89928532, -21.18821716, -28.14966393, -33.99590683, -13.53405380, 105.83517456, 9.13764000, 9.23510838, 0.60421240, -0.78878617, -0.11189377, 0.01495428, 0.26883790, 0.01370436, 0.02687161, 100.32000732, 83.99569702, 31.67999840, 0.00000000
4, 0.6250, 65, -0.08883914, -0.97575277, 0.24119426, -1.34589708, -11.21204281, -20.91463280, -28.14966393, -33.99590683, -13.53405380, 105.82433319, 9.25354004, 9.20936871, 0.60429955, -0.78864080, -0.11231881, 0.01588498, 0.24914525, 0.02610374, 0.02800558, 100.32000732, 83.99569702, 31.67999840, 0.00000000
5, 0.6750, 68, 0.45801908, -0.94373363, -0.24611437, 39.69568634, -18.90645599, 4.08699846, -36.74364090, -2.86465931, -102.45542145, 88.77395630, 18.61840630, -31.18041801, -0.64886355, 0.69595969, -0.07417113, -0.29852128, -0.13867725, -0.00367340, 0.22513491, 100.25000763, 89.87149811, 30.55999947, 0.00000000
5, 0.6800, 69, 0.48803014, -0.97037262, -0.30607039, 38.62928009, -9.84603310, 1.38335156, -36.74364090, -2.86465931, -102.45542145, 88.95057678, 18.61050606, -31.23220444, -0.64767569, 0.69691962, -0.07499498, -0.29865557, -0.16887963, 0.02284155, 0.28797376, 100.25000763, 89.87149811, 30.55999947, 0.00000000
3, 0.6400, 60, -0.09060104, -1.00305545, 0.22604622, -5.05308533, -13.61841393, -41.33170700, -16.66179466, -17.12949371, -49.13768005, 102.83250427, 3.16759849, 53.46628571, -0.56650227, 0.69012207, 0.36689565, 0.26114047, 0.14299521, 0.02944874, -0.00391999, 100.35800171, 80.80782318, 30.76999855, 0.00000000
3, 0.6500, 61, -0.09992185, -0.99405909, 0.24250083, -7.77771854, -10.03879833, -43.84683228, -15.28792763, -16.39871407, -49.31306458, 102.75470734, 3.61741328, 53.46549988, -0.56828660, 0.68855703, 0.36886004, 0.25861520, 0.16006148, 0.02062184, -0.02159751, 100.35800171, 80.80782318, 30.76999855, 0.00000000
3, 0.6600, 62, -0.10399497, -0.99215353, 0.20028515, -8.60189629, -4.82369947, -46.27579117, -15.84332085, -15.84332085, -49.40076065, 102.67103577, 4.06765747, 53.52289200, -0.56996667, 0.68676072, 0.37116003, 0.25639448, 0.17204556, 0.01889427, 0.01910190, 100.35800171, 80.80782318, 30.76999855, 0.00000000
1, 0.6500, 65, -0.03118001, -1.27125561, 0.17841643, 39.48489761, -52.79787827, -132.60047913, -19.67260933, 3.30312777, -100.76000977, 108.43414307, 18.03601074, 79.15183258, 0.52612942, -0.55916691, -0.58109403, -0.26990753, 0.33177185, 0.36561644, 0.11888207, 100.32100677, 83.91182709, 31.44999886, 0.00000000
4, 0.6300, 66, -0.06104658, -0.98244786, 0.23795985, -0.78066647, -10.93706703, -20.78215408, -28.14966393, -33.23589706, -13.53405380, 105.81643677, 9.36842251, 9.18475628, 0.60436529, -0.78851032, -0.11274603, 0.01680548, 0.22333406, 0.03307072, 0.03101166, 100.32000732, 83.99569702, 31.67999840, 0.00000000
4, 0.6350, 67, -0.03417384, -0.98941094, 0.23642905, -0.52918893, -11.35197735, -20.69043541, -28.14966393, -33.23589706, -13.53405380, 105.80941010, 9.48342705, 9.15797329, 0.60442388, -0.78838587, -0.11315887, 0.01773905, 0.19844148, 0.04031674, 0.03233860, 100.32000732, 83.99569702, 31.67999840, 0.00000000
4, 0.6400, 68, -0.01026839, -0.98886156, 0.23316447, -0.48655769, -12.28631496, -20.49901772, -28.06196976, -34.22975540, -13.50482273, 105.80171967, 9.59877777, 9.12634182, 0.60448515, -0.78826183, -0.11354030, 0.01869990, 0.17651898, 0.04005135, 0.03538641, 100.32000732, 83.99569702, 31.67999840, 0.00000000
2, 0.5850, 70, 0.10764238, -0.91047901, -0.23123395, -17.00422478, -10.15304852, -2.09637308, -21.30955887, 21.60187149, -96.25839996, 68.82960510, -0.11864658, -178.18035889, -0.01368498, 0.00812059, -0.56512201, -0.82485396, -0.10967580, -0.02216017, -0.12957090, 100.27100372, 88.10873413, 0.00000000, 0.00000000
2, 0.5900, 71, 0.09541366, -0.90179884, -0.22619349, -15.13603497, -10.66650867, -2.44271588, -20.87108994, 21.48494530, -95.93685913, 68.75403595, -0.12655446, -178.23449707, -0.01333941, 0.00778787, -0.56458259, -0.82523215, -0.09758890, -0.03034779, -0.13588110, 100.27100372, 88.10873413, 0.00000000, 0.00000000
2, 0.5950, 72, 0.08045013, -0.89500898, -0.22042003, -13.19891644, -10.83280563, -2.85308266, -20.87108994, 21.48494530, -95.93685913, 68.68818665, -0.13291904, -178.29014587, -0.01297430, 0.00746041, -0.56411254, -0.82556236, -0.08274488, -0.03670487, -0.14276581, 100.27100372, 88.10873413, 0.00000000, 0.00000000
1, 0.6600, 66, -0.11496795, -1.11549938, 0.15829870, 34.79709625, -45.77619553, -105.19047546, -19.67260933, 3.30312777, -100.76000977, 108.74163055, 19.17087936, 79.04065704, 0.52922291, -0.55651426, -0.58483595, -0.26111698, 0.43637651, 0.21806380, 0.14205733, 100.32100677, 83.91182709, 31.44999886, 0.00000000
2, 0.6400, 73, -0.04803747, -0.92531663, -0.18437883, 4.62281418, -7.24658918, -0.73179764, -21.89418221, 22.12803268, -96.49225616, 68.59621429, -0.16258587, -178.76364136, -0.00971294, 0.00490788, -0.56347793, -0.82605952, 0.04524589, -0.00567126, -0.18066062, 100.27100372, 88.10873413, 0.00000000, 0.00000000
2, 0.6450, 74, -0.05062759, -0.93617111, -0.19144499, 5.62253475, -6.55869102, 0.15251066, -21.89418221, 22.12803268, -96.49225616, 68.62442017, -0.17525625, -178.79389954, -0.00955598, 0.00467011, -0.56368333, -0.82592249, 0.04762746, 0.00501167, -0.17315476, 100.27100372, 88.10873413, 0.00000000, 0.00000000
2, 0.6500, 75, -0.05104589, -0.95071357, -0.20268783, 6.55063677, -5.87037230, 0.96694219, -21.68956375, 22.21572685, -96.22917175, 68.65724945, -0.19044949, -178.81947327, -0.00944511, 0.00443750, -0.56392199, -0.82576215, 0.04779141, 0.01935181, -0.16139255, 100.27100372, 88.10873413, 0.00000000, 0.00000000
3, 0.6700, 63, -0.07652573, -1.00534081, 0.24802835, -10.57251930, -0.65330875, -48.52991486, -15.58023930, -15.93101406, -49.45922089, 102.57284546, 4.54266024, 53.62284851, -0.57170171, 0.68467122, 0.37379602, 0.25428140, 0.15262042, 0.03229332, -0.03035279, 100.35800171, 80.80782318, 30.76999855, 0.00000000
2, 0.6550, 76, -0.04622377, -0.96494472, -0.21394148, 7.12428904, -5.28582716, 1.67380929, -21.68956375, 22.21572685, -96.22917175, 68.69294739, -0.20785671, -178.84104919, -0.00937397, 0.00420880, -0.56418115, -0.82558715, 0.04267453, 0.03336281, -0.14957270, 100.27100372, 88.10873413, 0.00000000, 0.00000000
2, 0.6600, 77, -0.03543411, -0.97764802, -0.22557133, 7.23794651, -4.77088404, 2.30788183, -21.68956375, 22.21572685, -96.22917175, 68.72919464, -0.22726971, -178.85908508, -0.00933834, 0.00398309, -0.56444418, -0.82540888, 0.03155347, 0.04583643, -0.13735010, 100.27100372, 88.10873413, 0.00000000, 0.00000000
2, 0.6650, 78, -0.02240213, -0.98700398, -0.23835781, 7.49464703, -4.39509583, 3.04487395, -21.51417732, 22.04033852, -96.28763580, 68.76673889, -0.24942437, -178.87403870, -0.00933845, 0.00375286, -0.56471634, -0.82522368, 0.01814828, 0.05495796, -0.12395702, 100.27100372, 88.10873413, 0.00000000, 0.00000000
5, 0.6850, 70, 0.54897076, -1.01465189, -0.37225384, 37.77355194, -3.42465496, -1.00366020, -37.06518555, -3.68313360, -103.04004669, 89.11554718, 18.62482452, -31.25394249, -0.64657784, 0.69784695, -0.07546878, -0.29874939, -0.22971375, 0.06710626, 0.35701787, 100.25000763, 89.87149811, 30.55999947, 0.00000000
5, 0.6900, 71, 0.61689901, -1.06574523, -0.43740946, 36.21079636, -0.59116107, -3.30950356, -37.06518555, -3.68313360, -103.04004669, 89.29552460, 18.64133072, -31.25729942, -0.64542937, 0.69887090, -0.07585660, -0.29874113, -0.29733586, 0.11826159, 0.42502326, 100.25000763, 89.87149811, 30.55999947, 0.00000000
5, 0.6950, 72, 0.69455624, -1.09927475, -0.49026591, 33.69308090, -1.34803092, -6.01674318, -37.06518555, -3.68313360, -103.04004669, 89.46160889, 18.67134476, -31.26475525, -0.64431828, 0.69982135, -0.07615017, -0.29883984, -0.37455577, 0.15190595, 0.48069626, 100.25000763, 89.87149811, 30.55999947, 0.00000000
4, 0.6450, 69, 0.01000738, -0.98980755, 0.23213382, -0.55078191, -13.15026855, -20.40872002, -28.06196976, -34.22975540, -13.50482273, 105.79291534, 9.71486950, 9.09034157, 0.60455233, -0.78813493, -0.11389578, 0.01968775, 0.15823717, 0.04128361, 0.03618657, 100.32000732, 83.99569702, 31.67999840, 0.00000000
4, 0.6500, 70, 0.02503476, -0.99465466, 0.22677688, -0.97049856, -13.87212467, -20.62228012, -28.06196976, -34.22975540, -13.50482273, 105.78138733, 9.83296204, 9.05108261, 0.60463667, -0.78799450, -0.11423983, 0.02070395, 0.14523281, 0.04641429, 0.04126937, 100.32000732, 83.99569702, 31.67999840, 0.00000000
5, 0.7000, 73, 0.77823406, -1.12640858, -0.51584119, 30.98275566, -3.87958908, -8.68391037, -37.18210983, -3.59543991, -101.78310394, 89.60984039, 18.71461296, -31.28560638, -0.64324540, 0.70066994, -0.07639796, -0.29909924, -0.45757240, 0.17924133, 0.50879812, 100.25000763, 89.87149811, 30.55999947, 0.00000000
5, 0.7050, 74, 0.87917513, -1.14900541, -0.51604879, 28.84416389, -5.95198345, -12.16886997, -37.18210983, -3.59543991, -101.78310394, 89.74384308, 18.77528763, -31.31739807, -0.64218432, 0.70144171, -0.07656935, -0.29952633, -0.55756867, 0.20214434, 0.51126134, 100.25000763, 89.87149811, 30.55999947, 0.00000000
5, 0.7100, 75, 0.93739873, -1.15200496, -0.48901820, 23.67639732, -9.41554642, -15.12840176, -36.80210495, -4.20929527, -102.33849335, 89.84608459, 18.85076332, -31.36742210, -0.64122999, 0.70203203, -0.07667951, -0.30015910, -0.61461860, 0.20553577, 0.48606920, 100.25000763, 89.87149811, 30.55999947, 0.00000000
1, 0.6700, 67, -0.24325697, -1.01928461, 0.07263618, 32.25316238, -36.56497192, -70.95545197, -18.82490540, -0.84770536, -101.25694275, 109.02051544, 19.96117020, 78.91593170, 0.53114069, -0.55519336, -0.58730227, -0.25441328, 0.57996660, 0.12848696, 0.23034385, 100.32100677, 83.91182709, 31.44999886, 0.00000000
1, 0.6800, 68, -0.29612577, -1.00001085, 0.02268172, 30.34857368, -32.83471298, -41.81908417, -18.41566849, 3.59543991, -101.37386322, 109.25887299, 20.46436310, 78.73077393, 0.53228408, -0.55517304, -0.58846670, -0.24932615, 0.64295542, 0.11409921, 0.28298381, 100.32100677, 83.91182709, 31.44999886, 0.00000000
1, 0.6900, 69, -0.30983627, -1.02611363, 0.04492911, 25.14363289, -28.40266228, -13.36007404, -18.03566170, -0.78924292, -100.67231750, 109.42581177, 20.68474388, 78.49153900, 0.53281593, -0.55626732, -0.58833653, -0.24603678, 0.66196573, 0.14310583, 0.26302364, 100.32100677, 83.91182709, 31.44999886, 0.00000000
4, 0.6950, 71, -0.00895182, -0.97751981, 0.26692641, -3.13236189, -9.67256165, -20.32466698, -27.33119011, -33.52820587, -14.73253441, 105.58036804, 10.89629841, 8.68024158, 0.60600007, -0.78620970, -0.11725076, 0.02984192, 0.19751021, 0.03156531, -0.00307880, 100.32000732, 83.99569702, 31.67999840, 0.00000000
4, 0.7000, 72, 0.00219902, -0.98813015, 0.28589010, -3.14833498, -7.63571739, -20.42672729, -27.33119011, -33.52820587, -14.73253441, 105.56280518, 11.00493526, 8.67070484, 0.60612035, -0.78601152, -0.11775363, 0.03062786, 0.18822953, 0.04244110, -0.02243420, 100.32000732, 83.99569702, 31.67999840, 0.00000000
3, 0.6800, 64, 0.03538528, -1.04833782, 0.25312680, -12.43541908, 2.76627183, -50.39207077, -15.58023930, -15.93101406, -49.45922089, 102.45989227, 5.02860260, 53.75954819, -0.57346672, 0.68233860, 0.37666517, 0.25233576, 0.04907012, 0.07555250, -0.03737186, 100.35800171, 80.80782318, 30.76999855, 0.00000000
2, 0.6700, 79, 0.00078986, -0.99558246, -0.25358564, 7.25832891, -4.02105999, 3.88376904, -21.51417732, 22.04033852, -96.28763580, 68.83059692, -0.27156296, -178.88740540, -0.00934938, 0.00353280, -0.56517786, -0.82490849, -0.00544262, 0.06321949, -0.10790780, 100.27100372, 88.10873413, 0.00000000, 0.00000000
2, 0.6750, 80, 0.01982439, -0.99419826, -0.25937325, 7.06104851, -3.78748274, 4.96413803, -21.68956375, 21.89418221, -96.81379700, 68.86594391, -0.30154505, -178.89611816, -0.00943357, 0.00327694, -0.56543440, -0.82473296, -0.02494081, 0.06152575, -0.10131484, 100.27100372, 88.10873413, 0.00000000, 0.00000000
2, 0.6800, 81, 0.04433673, -0.98543262, -0.26457223, 6.80391026, -3.80237150, 6.77065563, -21.68956375, 21.89418221, -96.81379700, 68.90000916, -0.33997464, -178.90164185, -0.00958243, 0.00297586, -0.56568170, -0.82456261, -0.05009534, 0.05254773, -0.09555614, 100.27100372, 88.10873413, 0.00000000, 0.00000000
5, 0.7150, 76, 0.95982927, -1.14557874, -0.45220101, 20.85662842, -9.09889889, -17.48255157, -36.80210495, -4.20929527, -102.33849335, 89.93476105, 18.93809128, -31.41568184, -0.64033109, 0.70255440, -0.07667166, -0.30085692, -0.63565469, 0.19958261, 0.45076603, 100.25000763, 89.87149811, 30.55999947, 0.00000000
5, 0.7200, 77, 0.95564276, -1.13409233, -0.40434235, 18.57851219, -6.37810087, -19.68331909, -36.80210495, -4.20929527, -102.33849335, 90.01665497, 19.03649330, -31.44945335, -0.63948137, 0.70305502, -0.07649031, -0.30154002, -0.62988991, 0.18863758, 0.40428382, 100.25000763, 89.87149811, 30.55999947, 0.00000000
1, 0.7000, 70, -0.31829852, -1.04964817, 0.06143915, 15.00543308, -17.71988678, 14.11894608, -18.21105003, 3.80005836, -101.05232239, 109.49551392, 20.61069107, 78.26290894, 0.53269076, -0.55806929, -0.58714944, -0.24506094, 0.67098355, 0.16741318, 0.24804771, 100.32100677, 83.91182709, 31.44999886, 0.00000000
3, 0.6900, 65, 0.08450462, -1.04294348, 0.25945562, -14.34282875, 2.95348191, -52.65886688, -15.11254025, -16.25255775, -49.37152863, 102.32958221, 5.53658438, 53.90201569, -0.57537681, 0.67981714, 0.37962836, 0.25034484, 0.00863874, 0.07043214, -0.04605595, 100.35800171, 80.80782318, 30.76999855, 0.00000000
3, 0.7000, 66, 0.05342565, -1.04949987, 0.26125735, -13.36857319, -0.61425185, -53.14834595, -15.05407715, -16.16486359, -49.57614517, 102.20671082, 6.05721712, 54.00949860, -0.57734495, 0.67739064, 0.38245395, 0.24808003, 0.04868437, 0.07739204, -0.05013443, 100.35800171, 80.80782318, 30.76999855, 0.00000000
3, 0.7100, 67, 0.09639481, -1.09473276, 0.26066518, -11.98242950, -4.32665920, -53.50415421, -14.76176548, -15.46331501, -49.86845779, 102.09400177, 6.58872271, 54.08024216, -0.57935148, 0.67508554, 0.38513038, 0.24553193, 0.01488086, 0.12315891, -0.05172743, 100.35800171, 80.80782318, 30.76999855, 0.00000000
4, 0.7050, 73, 0.01917275, -0.99012661, 0.29448065, -3.51659441, -5.87170315, -20.77049446, -27.21426392, -33.58666992, -14.23560333, 105.54512787, 11.11285686, 8.67026234, 0.60624313, -0.78580356, -0.11831535, 0.03136048, 0.17310899, 0.04470491, -0.03141181, 100.32000732, 83.99569702, 31.67999840, 0.00000000
4, 0.7100, 74, 0.03959564, -0.98494321, 0.30365700, -4.06198025, -4.14313412, -21.07620621, -27.21426392, -33.58666992, -14.23560333, 105.53114319, 11.20010281, 8.67813206, 0.60634214, -0.78562802, -0.11882587, 0.03190935, 0.15435192, 0.03976360, -0.04094097, 100.32000732, 83.99569702, 31.67999840, 0.00000000
4, 0.7150, 75, 0.08258487, -0.97936016, 0.31584856, -4.17743254, -2.96701002, -21.29654503, -27.21426392, -33.58666992, -14.23560333, 105.51307678, 11.30667019, 8.69261265, 0.60647088, -0.78540266, -0.11948317, 0.03255283, 0.11302011, 0.03442430, -0.05348466, 100.32000732, 83.99569702, 31.67999840, 0.00000000
5, 0.7650, 78, 0.60255915, -0.89254385, -0.16722317, 13.12626266, 17.71857452, -27.75207520, -35.72055054, -4.47237635, -101.46156311, 90.84783936, 20.21298790, -30.84998322, -0.63283044, 0.70876396, -0.06779617, -0.30427465, -0.25760758, -0.04597953, 0.18070699, 100.25000763, 89.87149811, 30.55999947, 0.00000000
5, 0.7700, 79, 0.56124002, -0.86972153, -0.14217609, 13.14272022, 18.83005905, -26.81186676, -35.77901077, -4.41391420, -101.75387573, 90.94911957, 20.34555626, -30.74738503, -0.63212293, 0.70945531, -0.06662147, -0.30439341, -0.21409450, -0.06796763, 0.15729111, 100.25000763, 89.87149811, 30.55999947, 0.00000000
2, 0.6850, 82, 0.06218712, -0.97839552, -0.26382685, 6.78667974, -3.81265593, 8.05686760, -21.68956375, 21.89418221, -96.81379700, 68.93395996, -0.38441986, -178.90493774, -0.00977731, 0.00264266, -0.56592846, -0.82439214, -0.06869394, 0.04530218, -0.09574869, 100.27100372, 88.10873413, 0.00000000, 0.00000000
1, 0.7100, 71, -0.32776693, -1.06109524, 0.05204064, 3.32012391, -10.02443981, 41.42378235, -18.21105003, 3.80005836, -101.05232239, 109.42726898, 20.22150612, 77.99465942, 0.53214931, -0.56072146, -0.58450472, -0.24650142, 0.67621070, 0.17732263, 0.25779608, 100.32100677, 83.91182709, 31.44999886, 0.00000000
3, 0.7200, 68, 0.12012279, -1.12978399, 0.21831553, -10.99429893, -8.76427078, -54.44097137, -14.49868488, -15.58023930, -50.27769470, 101.98735809, 7.13943529, 54.10826492, -0.58145362, 0.67287958, 0.38765404, 0.24262981, 0.00056104, 0.15888277, -0.01148542, 100.35800171, 80.80782318, 30.76999855, 0.00000000
3, 0.7300, 69, 0.08892100, -1.15944827, 0.22933710, -10.19912434, -13.37359524, -54.52133179, -14.49868488, -15.58023930, -50.27769470, 101.88299561, 7.70050716, 54.09001541, -0.58365214, 0.67079240, 0.38995600, 0.23942013, 0.04141857, 0.18937138, -0.02450836, 100.35800171, 80.80782318, 30.76999855, 0.00000000
3, 0.7400, 70, -0.01511461, -1.18766594, 0.22246195, -11.03057003, -12.96354580, -56.39511490, -13.76790428, -15.75562668, -49.25460434, 101.77112579, 8.27906513, 54.07860184, -0.58590955, 0.66857362, 0.39236143, 0.23616099, 0.15533352, 0.21851774, -0.01977507, 100.35800171, 80.80782318, 30.76999855, 0.00000000
