SensorId, TimeStamp (s), FrameNumber, AccX (g), AccY (g), AccZ (g), GyroX (deg/s), GyroY (deg/s), GyroZ (deg/s), MagX (uT), MagY (uT), MagZ (uT), EulerX (deg), EulerY (deg), EulerZ (deg), QuatW, QuatX, QuatY, QuatZ, LinAccX (g), LinAccY (g), LinAccZ (g), Pressure (kPa), Altitude (m), Temperature (degC), HeaveMotion (m)
3, 0.0001, 0, 0.32860234, -0.94891518, 0.23846176, 9.54614544, -9.40494156, -9.44459534, -10.99093819, -33.58666992, -96.57994843, 101.24678040, 16.19027710, -82.45417786, 0.40065411, -0.63445419, 0.43717021, 0.49580899, -0.05000503, 0.00692165, -0.05129439, 100.38100433, 78.87828827, 31.62999916, 0.00000000
2, 0.0000, 0, 0.00000000, 0.00000000, 0.00000000, 0.00000000, 0.00000000, 0.00000000, 0.00000000, 0.00000000, 0.00000000, 0.00000000, 0.00000000, 0.00000000, 1.00000000, 0.00000000, 0.00000000, 0.00000000, 0.00000000, 0.00000000, 0.00000000, 0.00000000, 0.00000000, 0.00000000, 0.00000000
2, 0.0050, 1, 0.00000000, 0.00000000, 0.00000000, 0.00000000, 0.00000000, 0.00000000, 0.00000000, 0.00000000, 0.00000000, 0.00000000, 0.00000000, 0.00000000, 1.00000000, 0.00000000, 0.00000000, 0.00000000, 0.00000000, 0.00000000, 0.00000000, 0.00000000, 0.00000000, 0.00000000, 0.00000000
2, 0.0100, 2, 0.00000000, 0.00000000, 0.00000000, 0.00000000, 0.00000000, 0.00000000, 0.00000000, 0.00000000, 0.00000000, 0.00000000, 0.00000000, 0.00000000, 1.00000000, 0.00000000, 0.00000000, 0.00000000, 0.00000000, 0.00000000, 0.00000000, 0.00000000, 0.00000000, 0.00000000, 0.00000000
4, 0.0001, 0, -0.03194076, -0.96799290, 0.17693292, 15.68174839, 20.23704529, -0.87406468, -15.84332085, -46.94533539, -67.31949615, 101.12548065, 2.14937973, 178.50686646, 0.02276000, 0.00185155, -0.77227426, -0.63487875, 0.06951226, -0.01258978, 0.01554020, 100.31500244, 84.41569519, 31.09000015, 0.00000000
2, 0.0150, 3, 0.00000000, 0.00000000, 0.00000000, 0.00000000, 0.00000000, 0.00000000, 0.00000000, 0.00000000, 0.00000000, 0.00000000, 0.00000000, 0.00000000, 1.00000000, 0.00000000, 0.00000000, 0.00000000, 0.00000000, 0.00000000, 0.00000000, 0.00000000, 0.00000000, 0.00000000, 0.00000000
1, -0.0001, 0, -0.11663818, -1.13909912, 0.07940674, -12.24070740, 38.17845154, -89.83573151, -56.62086868, 2.48465347, -65.27330780, 58.35843277, -25.33937645, -137.70046997, -0.40707991, -0.00697185, -0.51272392, -0.75587803, -0.31323850, 0.37037396, -0.55297136, 100.26900482, 88.27654266, 29.22999954, 0.00000000
3, 0.0051, 1, 0.32807097, -0.95020115, 0.24305172, 8.83109856, -9.43584919, -9.29743385, -10.99093819, -33.58666992, -96.57994843, 101.28010559, 16.24509048, -82.49291229, 0.40002838, -0.63458163, 0.43726870, 0.49606419, -0.04855397, 0.00858113, -0.05537698, 100.38100433, 78.87828827, 31.62999916, 0.00000000
3, 0.0101, 2, 0.32453886, -0.95310909, 0.24665742, 8.64979935, -10.46768570, -9.34259129, -10.99093819, -33.58666992, -96.57994843, 101.31671143, 16.30454445, -82.53549194, 0.39934433, -0.63471884, 0.43738073, 0.49634087, -0.04406139, 0.01187599, -0.05847486, 100.38100433, 78.87828827, 31.62999916, 0.00000000
3, 0.0151, 3, 0.29921353, -0.95273751, 0.23450951, 8.36024475, -11.84252739, -9.42558193, -10.64016342, -33.76205826, -96.95995331, 101.34421539, 16.36239052, -82.58634949, 0.39868253, -0.63478774, 0.43750697, 0.49667341, -0.01774444, 0.01189139, -0.04587340, 100.38100433, 78.87828827, 31.62999916, 0.00000000
1, 0.0299, 1, -0.24597168, -1.01556396, 0.06732178, -10.17570686, 28.06344604, -81.15573120, -55.65623856, 1.92926037, -64.77638245, 58.22112656, -22.64922905, -138.26992798, -0.39438659, 0.00958895, -0.50684720, -0.76646799, -0.14079115, 0.23161376, -0.55294871, 100.26900482, 88.27654266, 29.22999954, 0.00000000
1, 0.0349, 2, -0.26336670, -0.99566650, 0.08489990, -8.84570599, 26.52344704, -79.82572937, -55.07161713, 2.19234133, -64.65945435, 58.21715927, -22.24009895, -138.37541199, -0.39230457, 0.01208903, -0.50605816, -0.76802099, -0.11676188, 0.20942506, -0.57205856, 100.26900482, 88.27654266, 29.22999954, 0.00000000
1, 0.0399, 3, -0.25878906, -0.97467041, 0.10247803, -7.83070612, 24.35344505, -78.98572540, -55.07161713, 2.19234133, -64.65945435, 58.22030640, -21.84025574, -138.48812866, -0.39019701, 0.01451507, -0.50533390, -0.76952809, -0.11483925, 0.18616641, -0.59100676, 100.26900482, 88.27654266, 29.22999954, 0.00000000
4, 0.0901, 1, 0.11019563, -0.97666001, 0.31572679, 7.22278070, 3.88611674, 2.42912722, -14.73253441, -48.14381790, -68.54721069, 102.03829956, 1.57124639, -179.80393982, 0.00958205, 0.00995547, -0.77726710, -0.62901902, -0.08271541, -0.00101230, -0.10739625, 100.31500244, 84.41569519, 31.09000015, 0.00000000
4, 0.0951, 2, 0.11372644, -0.97383517, 0.32290435, 7.18568754, -0.27461928, 1.58616400, -14.90792179, -47.88073730, -69.19029236, 102.07414246, 1.56377816, -179.80694580, 0.00955095, 0.00989114, -0.77746487, -0.62877607, -0.08641353, -0.00370991, -0.11395515, 100.31500244, 84.41569519, 31.09000015, 0.00000000
3, 0.0201, 4, 0.26528028, -0.95330095, 0.22256088, 8.21654606, -12.18670559, -9.39313221, -10.64016342, -33.76205826, -96.95995331, 101.37044525, 16.42043686, -82.63897705, 0.39801863, -0.63484573, 0.43763673, 0.49701735, 0.01715973, 0.01282278, -0.03354175, 100.38100433, 78.87828827, 31.62999916, 0.00000000
3, 0.0251, 5, 0.23428005, -0.94869602, 0.22044377, 7.85894394, -11.83642960, -9.49001598, -10.61093235, -33.96667480, -96.87226105, 101.39537811, 16.47864342, -82.68969727, 0.39736894, -0.63490659, 0.43774965, 0.49735978, 0.04913416, 0.00858256, -0.03106845, 100.38100433, 78.87828827, 31.62999916, 0.00000000
3, 0.0301, 6, 0.21636046, -0.94755733, 0.22471164, 7.57267189, -11.03339100, -9.82701874, -10.61093235, -33.96667480, -96.87226105, 101.42009735, 16.53772163, -82.73596191, 0.39673504, -0.63498610, 0.43783292, 0.49769107, 0.06803828, 0.00781122, -0.03498987, 100.38100433, 78.87828827, 31.62999916, 0.00000000
2, 0.0200, 4, 0.00000000, 0.00000000, 0.00000000, 0.00000000, 0.00000000, 0.00000000, 0.00000000, 0.00000000, 0.00000000, 0.00000000, 0.00000000, 0.00000000, 1.00000000, 0.00000000, 0.00000000, 0.00000000, 0.00000000, 0.00000000, 0.00000000, 0.00000000, 0.00000000, 0.00000000, 0.00000000
2, 0.0250, 5, 0.00000000, 0.00000000, 0.00000000, 0.00000000, 0.00000000, 0.00000000, 0.00000000, 0.00000000, 0.00000000, 0.00000000, 0.00000000, 0.00000000, 1.00000000, 0.00000000, 0.00000000, 0.00000000, 0.00000000, 0.00000000, 0.00000000, 0.00000000, 0.00000000, 0.00000000, 0.00000000
1, 0.0449, 4, -0.21069336, -0.95092773, 0.10827637, -7.02570581, 21.69344330, -78.14572144, -54.39929962, 1.28617358, -63.87021255, 58.23022461, -21.45096970, -138.61029053, -0.38805339, 0.01684678, -0.50467587, -0.77099484, -0.15657909, 0.16019949, -0.59802836, 100.26900482, 88.27654266, 29.22999954, 0.00000000
1, 0.0499, 5, -0.16674805, -0.92993164, 0.11456299, -5.55570507, 17.59844017, -77.55072784, -54.39929962, 1.28617358, -63.87021255, 58.25274277, -21.07496834, -138.74902344, -0.38583371, 0.01905219, -0.50413084, -0.77241278, -0.19432911, 0.13699739, -0.60535431, 100.26900482, 88.27654266, 29.22999954, 0.00000000
1, 0.0549, 6, -0.11145020, -0.91418457, 0.12713623, -2.89570427, 10.35344028, -76.29072571, -54.39929962, 1.28617358, -63.87021255, 58.29803467, -20.72328949, -138.91659546, -0.38349047, 0.02103036, -0.50379270, -0.77374798, -0.24381645, 0.11899954, -0.61852616, 100.26900482, 88.27654266, 29.22999954, 0.00000000
3, 0.0351, 7, 0.20921907, -0.94764024, 0.22467622, 7.82171679, -10.82059097, -10.21170235, -10.61093235, -33.96667480, -96.87226105, 101.44644165, 16.59849358, -82.78072357, 0.39608976, -0.63508147, 0.43790704, 0.49801809, 0.07618627, 0.00827384, -0.03458580, 100.38100433, 78.87828827, 31.62999916, 0.00000000
3, 0.0401, 8, 0.19370741, -0.95137173, 0.18738689, 7.92520380, -11.25698471, -10.81219578, -10.05553913, -34.58053207, -96.40455627, 101.47280884, 16.66266441, -82.82707977, 0.39541996, -0.63518023, 0.43797407, 0.49836531, 0.09275884, 0.01240370, 0.00307568, 100.38100433, 78.87828827, 31.62999916, 0.00000000
2, 0.0300, 6, 0.00000000, 0.00000000, 0.00000000, 0.00000000, 0.00000000, 0.00000000, 0.00000000, 0.00000000, 0.00000000, 0.00000000, 0.00000000, 0.00000000, 1.00000000, 0.00000000, 0.00000000, 0.00000000, 0.00000000, 0.00000000, 0.00000000, 0.00000000, 0.00000000, 0.00000000, 0.00000000
2, 0.0350, 7, 0.00000000, 0.00000000, 0.00000000, 0.00000000, 0.00000000, 0.00000000, 0.00000000, 0.00000000, 0.00000000, 0.00000000, 0.00000000, 0.00000000, 1.00000000, 0.00000000, 0.00000000, 0.00000000, 0.00000000, 0.00000000, 0.00000000, 0.00000000, 0.00000000, 0.00000000, 0.00000000
2, 0.0400, 8, 0.00000000, 0.00000000, 0.00000000, 0.00000000, 0.00000000, 0.00000000, 0.00000000, 0.00000000, 0.00000000, 0.00000000, 0.00000000, 0.00000000, 1.00000000, 0.00000000, 0.00000000, 0.00000000, 0.00000000, 0.00000000, 0.00000000, 0.00000000, 0.00000000, 0.00000000, 0.00000000
4, 0.1001, 3, 0.09705669, -0.96673501, 0.33689055, 6.97399902, -4.78006315, 0.70575643, -14.90792179, -47.88073730, -69.19029236, 102.10836029, 1.56533504, -179.83105469, 0.00969676, 0.00973315, -0.77765447, -0.62854183, -0.06975546, -0.01068398, -0.12735134, 100.31500244, 84.41569519, 31.09000015, 0.00000000
4, 0.1051, 4, 0.07673228, -0.96318537, 0.34332347, 6.97281647, -9.01134586, -0.03456919, -14.70330334, -47.90996552, -68.81028748, 102.14201355, 1.57496858, -179.87510681, 0.01000644, 0.00948424, -0.77784175, -0.62830895, -0.04929658, -0.01410583, -0.13320637, 100.31500244, 84.41569519, 31.09000015, 0.00000000
4, 0.1101, 5, 0.05879370, -0.96713024, 0.34148583, 6.92807388, -12.20649242, -0.85973537, -14.70330334, -47.90996552, -68.81028748, 102.17502594, 1.59202576, -179.93388367, 0.01044716, 0.00917576, -0.77802587, -0.62807846, -0.03109313, -0.01003272, -0.13080761, 100.31500244, 84.41569519, 31.09000015, 0.00000000
1, 0.0599, 7, -0.08154297, -0.90960693, 0.13665771, -1.32070374, 3.84343791, -75.17072296, -53.61005402, 1.31540489, -63.89944458, 58.35929489, -20.39332199, -139.10989380, -0.38103622, 0.02279025, -0.50361198, -0.77502716, -0.26824290, 0.11217400, -0.62833709, 100.26900482, 88.27654266, 29.22999954, 0.00000000
1, 0.0649, 8, -0.07391357, -0.89868164, 0.14392090, -0.16570343, -2.91156411, -73.84072876, -53.61005402, 1.31540489, -63.89944458, 58.43436432, -20.08649635, -139.32931519, -0.37847331, 0.02431144, -0.50357866, -0.77625740, -0.27075946, 0.09901991, -0.63559139, 100.26900482, 88.27654266, 29.22999954, 0.00000000
4, 0.1151, 6, 0.04886198, -0.97286117, 0.33713102, 6.87770319, -14.67578983, -1.77622342, -14.70330334, -47.90996552, -68.81028748, 102.20746613, 1.61620319, 179.99636841, 0.01099680, 0.00883073, -0.77820683, -0.62784982, -0.02077107, -0.00417113, -0.12589958, 100.31500244, 84.41569519, 31.09000015, 0.00000000
4, 0.1201, 7, 0.04533612, -0.97644067, 0.33165154, 6.71501398, -16.38499832, -2.78111601, -14.11867905, -47.64688492, -68.92721558, 102.23883820, 1.64713931, 179.91920471, 0.01163194, 0.00847308, -0.77838159, -0.62762660, -0.01673393, -0.00046057, -0.11988284, 100.31500244, 84.41569519, 31.09000015, 0.00000000
4, 0.1251, 8, 0.04544005, -0.97652149, 0.32439151, 6.51333618, -17.64542580, -3.81187606, -14.11867905, -47.64688492, -68.92721558, 102.26902008, 1.68449044, 179.83700562, 0.01233803, 0.00811601, -0.77854925, -0.62740976, -0.01621551, -0.00024953, -0.11210853, 100.31500244, 84.41569519, 31.09000015, 0.00000000
3, 0.0901, 9, 0.07664897, -0.94056219, 0.13032891, 9.38206863, -5.39636183, -22.64357185, -10.26015759, -34.31745148, -96.75533295, 101.80631256, 17.53283501, -82.95589447, 0.38861734, -0.63831419, 0.43600941, 0.50142539, 0.22411270, 0.00699815, 0.06460764, 100.38100433, 78.87828827, 31.62999916, 0.00000000
3, 0.0951, 10, 0.06339331, -0.94694757, 0.11966790, 9.55878353, -2.88284492, -24.15388298, -10.26015759, -34.31745148, -96.75533295, 101.85748291, 17.65399551, -82.94471741, 0.38776752, -0.63887227, 0.43559441, 0.50173306, 0.23936546, 0.01417288, 0.07595471, 100.38100433, 78.87828827, 31.62999916, 0.00000000
4, 0.1301, 9, 0.03702887, -0.97789460, 0.31332454, 6.42155504, -19.35501862, -4.78339911, -14.55714703, -47.23764801, -69.10260010, 102.29845428, 1.72844899, 179.74749756, 0.01312875, 0.00774518, -0.77871257, -0.62719566, -0.00706557, 0.00125429, -0.10054346, 100.31500244, 84.41569519, 31.09000015, 0.00000000
4, 0.1351, 10, 0.02036836, -0.97713876, 0.30636495, 6.18426037, -20.61773872, -5.67383957, -14.55714703, -47.23764801, -69.10260010, 102.33472443, 1.77658975, 179.65284729, 0.01397625, 0.00736107, -0.77891302, -0.62693310, 0.01042428, 0.00064445, -0.09303311, 100.31500244, 84.41569519, 31.09000015, 0.00000000
2, 0.0450, 9, 0.00000000, 0.00000000, 0.00000000, 0.00000000, 0.00000000, 0.00000000, 0.00000000, 0.00000000, 0.00000000, 0.00000000, 0.00000000, 0.00000000, 1.00000000, 0.00000000, 0.00000000, 0.00000000, 0.00000000, 0.00000000, 0.00000000, 0.00000000, 0.00000000, 0.00000000, 0.00000000
2, 0.0500, 10, 0.00000000, 0.00000000, 0.00000000, 0.00000000, 0.00000000, 0.00000000, 0.00000000, 0.00000000, 0.00000000, 0.00000000, 0.00000000, 0.00000000, 1.00000000, 0.00000000, 0.00000000, 0.00000000, 0.00000000, 0.00000000, 0.00000000, 0.00000000, 0.00000000, 0.00000000, 0.00000000
2, 0.0550, 11, 0.00000000, 0.00000000, 0.00000000, 0.00000000, 0.00000000, 0.00000000, 0.00000000, 0.00000000, 0.00000000, 0.00000000, 0.00000000, 0.00000000, 1.00000000, 0.00000000, 0.00000000, 0.00000000, 0.00000000, 0.00000000, 0.00000000, 0.00000000, 0.00000000, 0.00000000, 0.00000000
1, 0.1449, 9, -0.34436035, -0.70489502, 0.11157227, 12.50430107, 8.53343964, -49.37572098, -50.65770340, -1.49079216, -61.23940277, 60.16306686, -16.70636368, -143.16920471, -0.33954373, 0.03739097, -0.51023078, -0.78928864, 0.05590282, -0.12549236, -0.58827758, 100.26900482, 88.27654266, 29.22999954, 0.00000000
1, 0.1499, 10, -0.33795166, -0.69335938, 0.11041260, 13.97430229, 12.38344097, -48.39571762, -50.65770340, -1.49079216, -61.23940277, 60.25274658, -16.46560097, -143.23858643, -0.33812901, 0.03910181, -0.51044840, -0.78967232, 0.05350014, -0.13881002, -0.58641708, 100.26900482, 88.27654266, 29.22999954, 0.00000000
1, 0.1549, 11, -0.32189941, -0.68328857, 0.10754395, 15.72430134, 15.88344288, -47.13571930, -50.65770340, -1.49079216, -61.23940277, 60.34539795, -16.22153664, -143.28839111, -0.33683091, 0.04093080, -0.51067418, -0.78998834, 0.04152189, -0.15068412, -0.58280873, 100.26900482, 88.27654266, 29.22999954, 0.00000000
1, 0.1599, 12, -0.30725098, -0.67541504, 0.11230469, 17.89430237, 18.01844215, -45.52571487, -50.45308304, -1.14001751, -61.35632706, 60.44472122, -15.97911835, -143.32391357, -0.33563027, 0.04282919, -0.51094353, -0.79022443, 0.03094741, -0.16039503, -0.58672714, 100.26900482, 88.27654266, 29.22999954, 0.00000000
1, 0.1649, 13, -0.29101563, -0.67016602, 0.11022949, 20.13430214, 21.86844444, -43.35571289, -50.45308304, -1.14001751, -61.35632706, 60.54868317, -15.73660278, -143.33596802, -0.33458441, 0.04484453, -0.51123518, -0.79036760, 0.01878599, -0.16750373, -0.58372629, 100.26900482, 88.27654266, 29.22999954, 0.00000000
3, 0.1001, 11, 0.07949333, -0.94668913, 0.11682312, 9.30605221, -0.71313071, -25.52379608, -10.23092651, -34.55130005, -97.10610962, 101.91129303, 17.77961922, -82.92079926, 0.38693547, -0.63949877, 0.43509841, 0.50200760, 0.22533706, 0.01474208, 0.07952584, 100.38100433, 78.87828827, 31.62999916, 0.00000000
3, 0.1051, 12, 0.09671837, -0.94330668, 0.10468554, 9.80249882, 0.55485868, -26.98232079, -10.23092651, -34.55130005, -97.10610962, 101.97016907, 17.91103745, -82.88862610, 0.38608116, -0.64018822, 0.43455055, 0.50226122, 0.21026999, 0.01223567, 0.09245555, 100.38100433, 78.87828827, 31.62999916, 0.00000000
3, 0.1101, 13, 0.11017299, -0.94896483, 0.10151576, 10.47935390, 2.19742131, -28.29855537, -10.23092651, -34.55130005, -97.10610962, 102.02751160, 18.03235435, -82.84832764, 0.38532150, -0.64087307, 0.43399820, 0.50244862, 0.19893318, 0.01877153, 0.09645774, 100.38100433, 78.87828827, 31.62999916, 0.00000000
4, 0.2501, 11, -0.16818717, -0.95664907, 0.05166087, -15.81569862, -5.97029400, -7.55131865, -12.48173046, -47.82227325, -71.20724487, 101.91272736, 3.21519279, 178.79739380, 0.02839590, 0.00952272, -0.77650332, -0.62940109, 0.22409040, -0.02021080, 0.15478411, 100.31500244, 84.41569519, 31.09000015, 0.00000000
4, 0.2551, 12, -0.15267447, -0.95501906, 0.04474271, -16.27922249, -5.81439304, -6.56134176, -12.48173046, -47.82227325, -71.20724487, 101.83009338, 3.25327849, 178.77566528, 0.02876632, 0.00960551, -0.77604598, -0.62994677, 0.20926431, -0.02209899, 0.16028824, 100.31500244, 84.41569519, 31.09000015, 0.00000000
2, 0.0600, 12, 0.00000000, 0.00000000, 0.00000000, 0.00000000, 0.00000000, 0.00000000, 0.00000000, 0.00000000, 0.00000000, 0.00000000, 0.00000000, 0.00000000, 1.00000000, 0.00000000, 0.00000000, 0.00000000, 0.00000000, 0.00000000, 0.00000000, 0.00000000, 0.00000000, 0.00000000, 0.00000000
2, 0.0650, 13, 0.00000000, 0.00000000, 0.00000000, 0.00000000, 0.00000000, 0.00000000, 0.00000000, 0.00000000, 0.00000000, 0.00000000, 0.00000000, 0.00000000, 1.00000000, 0.00000000, 0.00000000, 0.00000000, 0.00000000, 0.00000000, 0.00000000, 0.00000000, 0.00000000, 0.00000000, 0.00000000
2, 0.0700, 14, 0.00000000, 0.00000000, 0.00000000, 0.00000000, 0.00000000, 0.00000000, 0.00000000, 0.00000000, 0.00000000, 0.00000000, 0.00000000, 0.00000000, 1.00000000, 0.00000000, 0.00000000, 0.00000000, 0.00000000, 0.00000000, 0.00000000, 0.00000000, 0.00000000, 0.00000000, 0.00000000
4, 0.2601, 13, -0.12776630, -0.95406997, 0.04776738, -16.11012268, -4.93504429, -5.43214417, -11.63402462, -48.23151016, -71.38263702, 101.74847412, 3.28490806, 178.75701904, 0.02907598, 0.00967403, -0.77559447, -0.63048738, 0.18493542, -0.02330756, 0.15586123, 100.31500244, 84.41569519, 31.09000015, 0.00000000
4, 0.2651, 14, -0.08579870, -0.94763422, 0.04685416, -16.07850266, -4.60723400, -4.34496498, -11.63402462, -48.23151016, -71.38263702, 101.66703796, 3.31085515, 178.73884583, 0.02934463, 0.00971472, -0.77514422, -0.63102776, 0.14344227, -0.03000504, 0.15537982, 100.31500244, 84.41569519, 31.09000015, 0.00000000
4, 0.2701, 15, -0.04621956, -0.94370896, 0.05115169, -15.96570778, -5.51465654, -3.66597629, -11.42940617, -47.93919754, -72.05495453, 101.58584595, 3.33436513, 178.71548462, 0.02962531, 0.00970731, -0.77469575, -0.63156527, 0.10427999, -0.03419233, 0.14969134, 100.31500244, 84.41569519, 31.09000015, 0.00000000
1, 0.1699, 14, -0.28277588, -0.65899658, 0.11553955, 21.63930321, 23.61844444, -41.43071747, -49.86845779, -0.96463019, -60.83016586, 60.65654755, -15.49815750, -143.33473206, -0.33363926, 0.04689901, -0.51155424, -0.79044145, 0.01456958, -0.18053786, -0.58802879, 100.26900482, 88.27654266, 29.22999954, 0.00000000
1, 0.1749, 15, -0.27203369, -0.65167236, 0.11468506, 23.45930290, 25.29844475, -39.50571060, -49.86845779, -0.96463019, -60.83016586, 60.77007675, -15.26399612, -143.32051086, -0.33279246, 0.04899471, -0.51191288, -0.79043907, 0.00778621, -0.18973872, -0.58606523, 100.26900482, 88.27654266, 29.22999954, 0.00000000
1, 0.1799, 16, -0.25732422, -0.64208984, 0.11596680, 25.52430344, 26.94344521, -37.19571304, -49.86845779, -0.96463019, -60.83016586, 60.89039993, -15.03594589, -143.29257202, -0.33205596, 0.05112527, -0.51232111, -0.79034936, -0.00305376, -0.20121318, -0.58611798, 100.26900482, 88.27654266, 29.22999954, 0.00000000
3, 0.1151, 14, 0.12526576, -0.95156676, 0.11954811, 10.22701263, 4.46980810, -29.63230896, -9.44168377, -34.31745148, -97.10610962, 102.09591675, 18.17257118, -82.79275513, 0.38447016, -0.64170355, 0.43331826, 0.50262767, 0.18602940, 0.02229223, 0.07930765, 100.38100433, 78.87828827, 31.62999916, 0.00000000
3, 0.1201, 15, 0.13843414, -0.94614923, 0.13807653, 10.22181702, 5.74539566, -31.22515678, -9.44168377, -34.31745148, -97.10610962, 102.16709900, 18.31917191, -82.72863770, 0.38360739, -0.64259070, 0.43257135, 0.50279683, 0.17526078, 0.01789135, 0.06175435, 100.38100433, 78.87828827, 31.62999916, 0.00000000
3, 0.1251, 16, 0.15293054, -0.94317091, 0.14255594, 10.89358902, 5.49637747, -32.77334976, -9.41245270, -34.75592041, -97.16457367, 102.24201965, 18.47351646, -82.66382599, 0.38268623, -0.64351141, 0.43179896, 0.50298506, 0.16328779, 0.01599053, 0.05829717, 100.38100433, 78.87828827, 31.62999916, 0.00000000
1, -0.0002, 0, -0.35236913, -1.02980721, 0.21034735, 21.69018173, 93.14213562, 82.79896545, -61.79479599, 15.96024513, -86.81671906, 89.55690765, -19.97094154, -70.50303650, -0.64138258, 0.49545121, -0.50089288, -0.30374789, 0.01196818, 0.08901777, -0.21994589, 100.34200287, 82.15006256, 29.21999931, 0.00000000
2, 0.1750, 15, 0.00000000, 0.00000000, 0.00000000, 0.00000000, 0.00000000, 0.00000000, 0.00000000, 0.00000000, 0.00000000, 0.00000000, 0.00000000, 0.00000000, 1.00000000, 0.00000000, 0.00000000, 0.00000000, 0.00000000, 0.00000000, 0.00000000, 0.00000000, 0.00000000, 0.00000000, 0.00000000
2, 0.1800, 16, 0.00000000, 0.00000000, 0.00000000, 0.00000000, 0.00000000, 0.00000000, 0.00000000, 0.00000000, 0.00000000, 0.00000000, 0.00000000, 0.00000000, 1.00000000, 0.00000000, 0.00000000, 0.00000000, 0.00000000, 0.00000000, 0.00000000, 0.00000000, 0.00000000, 0.00000000, 0.00000000
2, 0.1850, 17, 0.00000000, 0.00000000, 0.00000000, 0.00000000, 0.00000000, 0.00000000, 0.00000000, 0.00000000, 0.00000000, 0.00000000, 0.00000000, 0.00000000, 1.00000000, 0.00000000, 0.00000000, 0.00000000, 0.00000000, 0.00000000, 0.00000000, 0.00000000, 0.00000000, 0.00000000, 0.00000000
3, 0.1301, 17, 0.18514681, -0.92959464, 0.15665415, 11.31583500, 5.45425272, -34.21155930, -9.41245270, -34.75592041, -97.16457367, 102.31975555, 18.63485527, -82.59734344, 0.38171995, -0.64446378, 0.43099511, 0.50318933, 0.13371180, 0.00354949, 0.04525880, 100.38100433, 78.87828827, 31.62999916, 0.00000000
3, 0.1351, 18, 0.21101020, -0.91905671, 0.17169864, 11.38491535, 6.78687668, -35.28021240, -9.41245270, -34.75592041, -97.16457367, 102.40071869, 18.79991150, -82.52247620, 0.38075230, -0.64546514, 0.43013942, 0.50337136, 0.11056640, -0.00580943, 0.03130464, 100.38100433, 78.87828827, 31.62999916, 0.00000000
4, 0.2751, 16, -0.02205336, -0.93789041, 0.05430082, -15.15044212, -10.16041565, -2.09316468, -11.42940617, -47.93919754, -72.05495453, 101.50730896, 3.35478783, 178.66772461, 0.03002001, 0.00951765, -0.77426398, -0.63207883, 0.08048311, -0.04026646, 0.14518587, 100.31500244, 84.41569519, 31.09000015, 0.00000000
4, 0.2801, 17, -0.00990857, -0.94465470, 0.07697614, -14.63296413, -12.97192287, -0.93415082, -11.42940617, -47.93919754, -72.05495453, 101.43045044, 3.37226081, 178.60498047, 0.03047792, 0.00921061, -0.77384269, -0.63257718, 0.06865867, -0.03375212, 0.12118635, 100.31500244, 84.41569519, 31.09000015, 0.00000000
4, 0.2851, 18, -0.00090170, -0.94930577, 0.07905824, -14.26763535, -14.43274879, -0.13109469, -10.87401295, -47.82227325, -72.96112061, 101.34247589, 3.38060808, 178.53373718, 0.03092083, 0.00879929, -0.77336127, -0.63314992, 0.05986513, -0.02937210, 0.11769702, 100.31500244, 84.41569519, 31.09000015, 0.00000000
1, 0.1849, 17, -0.23803711, -0.63555908, 0.11743164, 27.93930435, 28.55344772, -34.78071213, -50.07307816, -0.49693072, -61.06401443, 61.01933289, -14.81459999, -143.25077820, -0.33143157, 0.05329209, -0.51279199, -0.79016292, -0.01858054, -0.20966005, -0.58620745, 100.26900482, 88.27654266, 29.22999954, 0.00000000
1, 0.1899, 18, -0.22113037, -0.63073730, 0.12268066, 30.59930611, 30.02344513, -31.91071320, -50.07307816, -0.49693072, -61.06401443, 61.15808868, -14.60235691, -143.19467163, -0.33093104, 0.05548355, -0.51333725, -0.78986782, -0.03186488, -0.21643147, -0.58990359, 100.26900482, 88.27654266, 29.22999954, 0.00000000
4, 0.2901, 19, -0.00486754, -0.95510644, 0.09300822, -14.43138790, -16.27413750, 0.67637467, -10.87401295, -47.82227325, -72.96112061, 101.26554871, 3.39324117, 178.45314026, 0.03144575, 0.00834634, -0.77294052, -0.63364387, 0.06400274, -0.02384356, 0.10233715, 100.31500244, 84.41569519, 31.09000015, 0.00000000
4, 0.2951, 20, -0.01312943, -0.95576549, 0.09183285, -14.53022766, -17.31833649, 1.25271368, -10.55247021, -48.08535385, -73.60420990, 101.18777466, 3.40395546, 178.36683655, 0.03198988, 0.00784521, -0.77251506, -0.63414162, 0.07246113, -0.02343711, 0.10218208, 100.31500244, 84.41569519, 31.09000015, 0.00000000
1, 0.2099, 19, -0.21484375, -0.63201904, 0.17730713, 40.18931198, 39.05345154, -17.14070892, -49.66384125, -2.86465931, -60.88862991, 61.80232620, -13.86852074, -142.76901245, -0.33065963, 0.06456354, -0.51619881, -0.78742278, -0.02555158, -0.22311950, -0.63659692, 100.26900482, 88.27654266, 29.22999954, 0.00000000
1, 0.2149, 20, -0.21154785, -0.63391113, 0.19122314, 41.69430923, 41.36345291, -13.99070835, -49.66384125, -2.86465931, -60.88862991, 61.97412491, -13.70936871, -142.61511230, -0.33099195, 0.06690113, -0.51699340, -0.78656632, -0.02611404, -0.22318777, -0.64827597, 100.26900482, 88.27654266, 29.22999954, 0.00000000
1, 0.0548, 1, -0.37975770, -0.72939622, -0.00643044, 41.56235123, 94.19547272, 57.47373962, -66.44255829, 19.78953552, -86.96287537, 89.29402161, -23.84327507, -64.85119629, -0.66541302, 0.50157392, -0.49273577, -0.25072023, -0.02336829, -0.18566298, -0.00700037, 100.34200287, 82.15006256, 29.21999931, 0.00000000
1, 0.0598, 2, -0.27717575, -0.68875659, -0.02042153, 43.15338135, 88.14551544, 53.20817566, -66.44255829, 19.78953552, -86.96287537, 89.31287384, -24.10265160, -64.36489868, -0.66693401, 0.50265157, -0.49180055, -0.24631821, -0.13013750, -0.22441085, 0.00755586, 100.34200287, 82.15006256, 29.21999931, 0.00000000
2, 0.1900, 18, 0.00000000, 0.00000000, 0.00000000, 0.00000000, 0.00000000, 0.00000000, 0.00000000, 0.00000000, 0.00000000, 0.00000000, 0.00000000, 0.00000000, 1.00000000, 0.00000000, 0.00000000, 0.00000000, 0.00000000, 0.00000000, 0.00000000, 0.00000000, 0.00000000, 0.00000000, 0.00000000
2, 0.1950, 19, 0.00000000, 0.00000000, 0.00000000, 0.00000000, 0.00000000, 0.00000000, 0.00000000, 0.00000000, 0.00000000, 0.00000000, 0.00000000, 0.00000000, 1.00000000, 0.00000000, 0.00000000, 0.00000000, 0.00000000, 0.00000000, 0.00000000, 0.00000000, 0.00000000, 0.00000000, 0.00000000
2, 0.2000, 20, 0.00000000, 0.00000000, 0.00000000, 0.00000000, 0.00000000, 0.00000000, 0.00000000, 0.00000000, 0.00000000, 0.00000000, 0.00000000, 0.00000000, 1.00000000, 0.00000000, 0.00000000, 0.00000000, 0.00000000, 0.00000000, 0.00000000, 0.00000000, 0.00000000, 0.00000000, 0.00000000
3, 0.1701, 19, 0.34252310, -0.91133410, 0.16338824, 14.32015610, 2.77124000, -40.67234421, -7.83396673, -33.82051849, -97.10610962, 103.03425598, 20.08561325, -82.03072357, 0.37275371, -0.65280926, 0.42396724, 0.50512040, 0.00009833, -0.00401986, 0.04812257, 100.38100433, 78.87828827, 31.62999916, 0.00000000
3, 0.1751, 20, 0.34803608, -0.90889478, 0.15321964, 14.38685513, 2.02640676, -41.34598541, -6.78164291, -34.43437576, -97.07687378, 103.12702942, 20.28469276, -81.97035980, 0.37146941, -0.65385163, 0.42307287, 0.50546807, -0.00217106, -0.00495654, 0.05950604, 100.38100433, 78.87828827, 31.62999916, 0.00000000
2, 0.2050, 21, 0.00000000, 0.00000000, 0.00000000, 0.00000000, 0.00000000, 0.00000000, 0.00000000, 0.00000000, 0.00000000, 0.00000000, 0.00000000, 0.00000000, 1.00000000, 0.00000000, 0.00000000, 0.00000000, 0.00000000, 0.00000000, 0.00000000, 0.00000000, 0.00000000, 0.00000000, 0.00000000
2, 0.2100, 22, 0.00000000, 0.00000000, 0.00000000, 0.00000000, 0.00000000, 0.00000000, 0.00000000, 0.00000000, 0.00000000, 0.00000000, 0.00000000, 0.00000000, 1.00000000, 0.00000000, 0.00000000, 0.00000000, 0.00000000, 0.00000000, 0.00000000, 0.00000000, 0.00000000, 0.00000000, 0.00000000
2, 0.2150, 23, 0.00000000, 0.00000000, 0.00000000, 0.00000000, 0.00000000, 0.00000000, 0.00000000, 0.00000000, 0.00000000, 0.00000000, 0.00000000, 0.00000000, 1.00000000, 0.00000000, 0.00000000, 0.00000000, 0.00000000, 0.00000000, 0.00000000, 0.00000000, 0.00000000, 0.00000000, 0.00000000
3, 0.1801, 21, 0.34303373, -0.91104132, 0.14253350, 14.81263733, 1.86435163, -42.01662827, -6.78164291, -34.43437576, -97.07687378, 103.22225189, 20.48712921, -81.90959167, 0.37015381, -0.65490723, 0.42216977, 0.50582153, 0.00613064, -0.00126758, 0.07141899, 100.38100433, 78.87828827, 31.62999916, 0.00000000
3, 0.1851, 22, 0.32644436, -0.91482013, 0.13489649, 15.09252548, 1.54174352, -43.17696381, -6.78164291, -34.43437576, -97.07687378, 103.31914520, 20.69547272, -81.84864044, 0.36879730, -0.65597904, 0.42124331, 0.50619578, 0.02609759, 0.00410435, 0.08030128, 100.38100433, 78.87828827, 31.62999916, 0.00000000
3, 0.1901, 23, 0.30147508, -0.91732019, 0.13525333, 15.58574963, 1.22316802, -44.61919785, -5.78778124, -33.90821457, -97.16457367, 103.41893768, 20.91110611, -81.78708649, 0.36738744, -0.65707558, 0.42028990, 0.50659126, 0.05455853, 0.00826332, 0.08120606, 100.38100433, 78.87828827, 31.62999916, 0.00000000
1, 0.2199, 21, -0.20281982, -0.63995361, 0.20593262, 42.95431137, 43.39345169, -11.05070496, -49.13768005, -0.58462435, -60.97632217, 62.14869308, -13.55890465, -142.44450378, -0.33146498, 0.06925978, -0.51780683, -0.78562737, -0.03225341, -0.21908456, -0.66067779, 100.26900482, 88.27654266, 29.22999954, 0.00000000
1, 0.2249, 22, -0.18353271, -0.64111328, 0.21704102, 44.00431061, 45.31845093, -8.11070538, -49.13768005, -0.58462435, -60.97632217, 62.32514954, -13.41747952, -142.25773621, -0.33207664, 0.07163265, -0.51863337, -0.78461039, -0.04910249, -0.21983680, -0.66941822, 100.26900482, 88.27654266, 29.22999954, 0.00000000
1, 0.2299, 23, -0.14678955, -0.63861084, 0.23004150, 45.01931381, 46.85845566, -5.94070435, -50.45308304, 0.11692487, -61.15171051, 62.50423813, -13.28266144, -142.05844116, -0.33279157, 0.07402329, -0.51947498, -0.78352797, -0.08353229, -0.22423300, -0.67998767, 100.26900482, 88.27654266, 29.22999954, 0.00000000
1, 0.0648, 3, -0.17761798, -0.65586317, -0.03953722, 44.29893875, 80.72972107, 49.09098816, -67.81642914, 19.90645981, -87.22595978, 89.35191345, -24.34216309, -63.91872787, -0.66821206, 0.50375932, -0.49099252, -0.24216859, -0.23353782, -0.25553435, 0.02753232, 100.34200287, 82.15006256, 29.21999931, 0.00000000
1, 0.0698, 4, -0.08957147, -0.63084972, -0.07183144, 44.90481186, 71.02960968, 45.62726974, -67.81642914, 19.90645981, -87.22595978, 89.41423035, -24.56530380, -63.52550125, -0.66921973, 0.50484627, -0.49038854, -0.23831549, -0.32511133, -0.27886850, 0.06100041, 100.34200287, 82.15006256, 29.21999931, 0.00000000
1, 0.0748, 5, -0.05921390, -0.61111546, -0.12432919, 44.69205093, 58.58928299, 42.84474945, -67.81642914, 19.90645981, -87.22595978, 89.50260162, -24.77569771, -63.20054245, -0.66992664, 0.50584877, -0.49007735, -0.23481810, -0.35872507, -0.29697767, 0.11491683, 100.34200287, 82.15006256, 29.21999931, 0.00000000
2, 0.2550, 24, 0.00000000, 0.00000000, 0.00000000, 0.00000000, 0.00000000, 0.00000000, 0.00000000, 0.00000000, 0.00000000, 0.00000000, 0.00000000, 0.00000000, 1.00000000, 0.00000000, 0.00000000, 0.00000000, 0.00000000, 0.00000000, 0.00000000, 0.00000000, 0.00000000, 0.00000000, 0.00000000
2, 0.2600, 25, 0.00000000, 0.00000000, 0.00000000, 0.00000000, 0.00000000, 0.00000000, 0.00000000, 0.00000000, 0.00000000, 0.00000000, 0.00000000, 0.00000000, 1.00000000, 0.00000000, 0.00000000, 0.00000000, 0.00000000, 0.00000000, 0.00000000, 0.00000000, 0.00000000, 0.00000000, 0.00000000
2, 0.2650, 26, 0.00000000, 0.00000000, 0.00000000, 0.00000000, 0.00000000, 0.00000000, 0.00000000, 0.00000000, 0.00000000, 0.00000000, 0.00000000, 0.00000000, 1.00000000, 0.00000000, 0.00000000, 0.00000000, 0.00000000, 0.00000000, 0.00000000, 0.00000000, 0.00000000, 0.00000000, 0.00000000
1, 0.2349, 24, -0.09869385, -0.64263916, 0.24157715, 46.66431427, 48.36345291, -3.52570343, -50.45308304, 0.11692487, -61.15171051, 62.68903351, -13.15571308, -141.84626770, -0.33361509, 0.07643392, -0.52035445, -0.78236192, -0.12943476, -0.22209615, -0.68900251, 100.26900482, 88.27654266, 29.22999954, 0.00000000
1, 0.2399, 25, -0.05407715, -0.65625000, 0.25225830, 47.74931717, 48.71345139, -1.88070309, -50.45308304, 0.11692487, -61.15171051, 62.87840271, -13.03595543, -141.62829590, -0.33449617, 0.07883427, -0.52126682, -0.78113919, -0.17198528, -0.21038055, -0.69705749, 100.26900482, 88.27654266, 29.22999954, 0.00000000
1, 0.2449, 26, -0.01562500, -0.66961670, 0.25732422, 48.90431595, 48.85345459, 0.25429770, -49.78076553, -0.43846828, -60.77170181, 63.07263184, -12.92610455, -141.40440369, -0.33544621, 0.08120698, -0.52221912, -0.77985150, -0.20852515, -0.19890127, -0.69940174, 100.26900482, 88.27654266, 29.22999954, 0.00000000
4, 0.3301, 21, -0.13437569, -0.93236375, 0.02376908, -21.34794044, -21.07393646, 2.30772543, -9.61707115, -47.00379944, -75.44577789, 100.51305389, 3.47045565, 177.65986633, 0.03632851, 0.00366148, -0.76879704, -0.63844979, 0.19487777, -0.04895776, 0.15884358, 100.31500244, 84.41569519, 31.09000015, 0.00000000
4, 0.3351, 22, -0.13883464, -0.91725814, 0.01896195, -21.46701431, -19.52786636, 2.68750691, -9.32475853, -48.46535873, -75.73809052, 100.38764191, 3.45946097, 177.56016541, 0.03680698, 0.00297162, -0.76810163, -0.63926232, 0.19929799, -0.06444535, 0.16159846, 100.31500244, 84.41569519, 31.09000015, 0.00000000
2, 0.2700, 27, 0.00000000, 0.00000000, 0.00000000, 0.00000000, 0.00000000, 0.00000000, 0.00000000, 0.00000000, 0.00000000, 0.00000000, 0.00000000, 0.00000000, 1.00000000, 0.00000000, 0.00000000, 0.00000000, 0.00000000, 0.00000000, 0.00000000, 0.00000000, 0.00000000, 0.00000000, 0.00000000
2, 0.2750, 28, 0.00000000, 0.00000000, 0.00000000, 0.00000000, 0.00000000, 0.00000000, 0.00000000, 0.00000000, 0.00000000, 0.00000000, 0.00000000, 0.00000000, 1.00000000, 0.00000000, 0.00000000, 0.00000000, 0.00000000, 0.00000000, 0.00000000, 0.00000000, 0.00000000, 0.00000000, 0.00000000
2, 0.2800, 29, 0.00000000, 0.00000000, 0.00000000, 0.00000000, 0.00000000, 0.00000000, 0.00000000, 0.00000000, 0.00000000, 0.00000000, 0.00000000, 0.00000000, 1.00000000, 0.00000000, 0.00000000, 0.00000000, 0.00000000, 0.00000000, 0.00000000, 0.00000000, 0.00000000, 0.00000000, 0.00000000
3, 0.1951, 24, 0.26054174, -0.92593318, 0.13266370, 15.72198105, 1.46096432, -46.12092972, -5.78778124, -33.90821457, -97.16457367, 103.52091980, 21.13366318, -81.72193146, 0.36594322, -0.65820420, 0.41929072, 0.50699919, 0.09908939, 0.01860193, 0.08508451, 100.38100433, 78.87828827, 31.62999916, 0.00000000
3, 0.2001, 25, 0.21742138, -0.93548667, 0.14546807, 15.67882347, 2.12009573, -47.89540482, -5.61239386, -33.90821457, -97.31072998, 103.62517548, 21.36395836, -81.65057373, 0.36447135, -0.65937608, 0.41822723, 0.50741500, 0.14592665, 0.02995241, 0.07358641, 100.38100433, 78.87828827, 31.62999916, 0.00000000
3, 0.2051, 26, 0.16922553, -0.93670392, 0.15059978, 15.81527519, 2.46131492, -49.39592361, -5.61239386, -34.72668839, -97.31072998, 103.73193359, 21.60101891, -81.57496643, 0.36296666, -0.66058171, 0.41711605, 0.50783980, 0.19794887, 0.03303540, 0.06977515, 100.38100433, 78.87828827, 31.62999916, 0.00000000
1, 0.0798, 6, -0.06592706, -0.54270899, -0.19463292, 45.16450500, 45.38668823, 40.14049530, -67.67027283, 19.67260933, -86.81671906, 89.62285614, -24.97370148, -62.94835663, -0.67030525, 0.50678062, -0.49009156, -0.23167787, -0.35502830, -0.36380678, 0.18709472, 100.34200287, 82.15006256, 29.21999931, 0.00000000
1, 0.0848, 7, -0.05968488, -0.51584804, -0.14509942, 48.84098434, 29.13241959, 38.02376556, -67.67027283, 19.67260933, -86.81671906, 89.79884338, -25.16215515, -62.78612518, -0.67022687, 0.50769591, -0.49056685, -0.22887784, -0.36441457, -0.38935277, 0.14004658, 100.34200287, 82.15006256, 29.21999931, 0.00000000
1, 0.0898, 8, -0.04712279, -0.48752499, -0.01683074, 54.83366394, 0.46009311, 34.56504440, -67.90412140, 22.44957542, -86.31978607, 90.07233429, -25.32965469, -62.78316879, -0.66935217, 0.50858879, -0.49184129, -0.22671002, -0.38003820, -0.41660404, 0.01591216, 100.34200287, 82.15006256, 29.21999931, 0.00000000
1, 0.2499, 27, 0.02514648, -0.68176270, 0.25531006, 49.88431549, 48.39845276, 2.28429842, -49.78076553, -0.43846828, -60.77170181, 63.27151871, -12.82708263, -141.17761230, -0.33644840, 0.08353156, -0.52321392, -0.77850634, -0.24756491, -0.18862963, -0.69456685, 100.26900482, 88.27654266, 29.22999954, 0.00000000
1, 0.2549, 28, 0.07006836, -0.69500732, 0.24945068, 51.17931366, 47.80345154, 4.52429914, -50.21923447, 0.05846244, -61.09324646, 63.47664261, -12.74018478, -140.94812012, -0.33750528, 0.08580303, -0.52426481, -0.77709365, -0.29095456, -0.17725021, -0.68577075, 100.26900482, 88.27654266, 29.22999954, 0.00000000
3, 0.2101, 27, 0.14162229, -0.93266922, 0.15719214, 15.27644825, 4.38933468, -50.62578583, -5.61239386, -34.72668839, -97.31072998, 103.83710480, 21.83074951, -81.48821259, 0.36155629, -0.66179788, 0.41596740, 0.50820440, 0.22935301, 0.03087827, 0.06450447, 100.38100433, 78.87828827, 31.62999916, 0.00000000
3, 0.2151, 28, 0.17604597, -0.89793795, 0.17167278, 14.45270920, 6.87081957, -51.81109238, -5.87547493, -34.34668350, -97.98304749, 103.94787598, 22.07397461, -81.38520050, 0.36011380, -0.66311675, 0.41468227, 0.50855970, 0.19877036, -0.00193518, 0.05135156, 100.38100433, 78.87828827, 31.62999916, 0.00000000
4, 0.3401, 23, -0.12936148, -0.91199285, 0.01306209, -20.95826912, -16.71321106, 3.63535619, -9.32475853, -48.46535873, -75.73809052, 100.27768707, 3.45656872, 177.47454834, 0.03726298, 0.00241727, -0.76749021, -0.63997233, 0.18967517, -0.07008576, 0.16549823, 100.31500244, 84.41569519, 31.09000015, 0.00000000
4, 0.3451, 24, -0.11363087, -0.90474802, -0.00341996, -20.41188049, -14.21325779, 4.85584354, -9.32475853, -48.46535873, -75.73809052, 100.17113495, 3.44529057, 177.40016174, 0.03760118, 0.00189096, -0.76689702, -0.64066494, 0.17378345, -0.07767326, 0.18013953, 100.31500244, 84.41569519, 31.09000015, 0.00000000
4, 0.3501, 25, -0.10774881, -0.89357090, -0.01418629, -19.21609688, -13.09180737, 6.07210970, -8.38935947, -47.00379944, -76.96579742, 100.07085419, 3.42690468, 177.33026123, 0.03786791, 0.00135333, -0.76633835, -0.64131868, 0.16761051, -0.08918056, 0.18915980, 100.31500244, 84.41569519, 31.09000015, 0.00000000
2, 0.2850, 30, 0.00000000, 0.00000000, 0.00000000, 0.00000000, 0.00000000, 0.00000000, 0.00000000, 0.00000000, 0.00000000, 0.00000000, 0.00000000, 0.00000000, 1.00000000, 0.00000000, 0.00000000, 0.00000000, 0.00000000, 0.00000000, 0.00000000, 0.00000000, 0.00000000, 0.00000000, 0.00000000
2, 0.2900, 31, 0.00000000, 0.00000000, 0.00000000, 0.00000000, 0.00000000, 0.00000000, 0.00000000, 0.00000000, 0.00000000, 0.00000000, 0.00000000, 0.00000000, 1.00000000, 0.00000000, 0.00000000, 0.00000000, 0.00000000, 0.00000000, 0.00000000, 0.00000000, 0.00000000, 0.00000000, 0.00000000
2, 0.2950, 32, 0.00000000, 0.00000000, 0.00000000, 0.00000000, 0.00000000, 0.00000000, 0.00000000, 0.00000000, 0.00000000, 0.00000000, 0.00000000, 0.00000000, 1.00000000, 0.00000000, 0.00000000, 0.00000000, 0.00000000, 0.00000000, 0.00000000, 0.00000000, 0.00000000, 0.00000000, 0.00000000
1, 0.0948, 9, -0.05778302, -0.47714689, 0.02344166, 56.54980850, -18.83005333, 30.50808144, -67.90412140, 22.44957542, -86.31978607, 90.40036774, -25.48123550, -62.88780594, -0.66799033, 0.50940251, -0.49362227, -0.22502279, -0.37191910, -0.42587686, -0.01939566, 100.34200287, 82.15006256, 29.21999931, 0.00000000
1, 0.0998, 10, -0.09942818, -0.47216073, -0.01416715, 57.37661362, -32.39714050, 25.68750000, -67.90412140, 22.44957542, -86.31978607, 90.76552582, -25.60755920, -63.06853867, -0.66626471, 0.51020539, -0.49569583, -0.22375759, -0.33227387, -0.42975372, 0.02373013, 100.34200287, 82.15006256, 29.21999931, 0.00000000
1, 0.2849, 29, 0.26757813, -0.77246094, 0.26055908, 55.09931946, 40.17345047, 21.11430359, -50.27769470, 0.49693072, -60.45016098, 64.79108429, -12.56503391, -139.51338196, -0.34541142, 0.09757139, -0.53162020, -0.76717067, -0.48506829, -0.11022992, -0.67715740, 100.26900482, 88.27654266, 29.22999954, 0.00000000
1, 0.2899, 30, 0.26593018, -0.79986572, 0.26049805, 54.78431702, 36.21844864, 23.07430649, -50.27769470, 0.49693072, -60.45016098, 65.01747894, -12.59270096, -139.29522705, -0.34678906, 0.09907375, -0.53300399, -0.76539451, -0.48381138, -0.08438738, -0.67356414, 100.26900482, 88.27654266, 29.22999954, 0.00000000
1, 0.2949, 31, 0.25976563, -0.82513428, 0.25799561, 53.59431458, 32.92844772, 25.13930511, -50.77462769, 0.99386144, -60.53785324, 65.24019623, -12.63749599, -139.08799744, -0.34816116, 0.10039931, -0.53440189, -0.76362187, -0.47833881, -0.06058529, -0.66753900, 100.26900482, 88.27654266, 29.22999954, 0.00000000
1, 0.2999, 32, 0.25433350, -0.83331299, 0.24865723, 52.01931763, 29.53344727, 26.74930573, -50.77462769, 0.99386144, -60.53785324, 65.45758820, -12.69745922, -138.89326477, -0.34951177, 0.10154945, -0.53580159, -0.76187015, -0.47386855, -0.05376724, -0.65472651, 100.26900482, 88.27654266, 29.22999954, 0.00000000
1, 0.3049, 33, 0.24877930, -0.85192871, 0.23437500, 51.10931396, 25.78844452, 28.18430710, -50.74539566, 2.04618526, -60.59631729, 65.67343140, -12.77242088, -138.71315002, -0.35082373, 0.10252684, -0.53723007, -0.76012820, -0.46951708, -0.03642744, -0.63698792, 100.26900482, 88.27654266, 29.22999954, 0.00000000
3, 0.2351, 29, 0.27029750, -0.84996068, 0.25610733, 18.22211838, 10.55864429, -58.20504761, -4.44314528, -35.07746124, -97.92458344, 104.47359467, 23.11004257, -80.86788940, 0.35397995, -0.66909349, 0.40896493, 0.50966644, 0.12110923, -0.04119758, -0.02668225, 100.38100433, 78.87828827, 31.62999916, 0.00000000
3, 0.2401, 30, 0.27428329, -0.83218139, 0.24788140, 22.17383575, 3.51196313, -59.37934113, -3.91698337, -34.08359909, -98.62612915, 104.62380219, 23.39301872, -80.76821899, 0.35207337, -0.67057109, 0.40766856, 0.51008344, 0.12160560, -0.05652041, -0.01662557, 100.38100433, 78.87828827, 31.62999916, 0.00000000
2, 0.3000, 33, 0.00000000, 0.00000000, 0.00000000, 0.00000000, 0.00000000, 0.00000000, 0.00000000, 0.00000000, 0.00000000, 0.00000000, 0.00000000, 0.00000000, 1.00000000, 0.00000000, 0.00000000, 0.00000000, 0.00000000, 0.00000000, 0.00000000, 0.00000000, 0.00000000, 0.00000000, 0.00000000
4, 0.3551, 26, -0.11298205, -0.88724792, 0.01236637, -17.68683815, -13.72395325, 6.96999931, -8.38935947, -47.00379944, -76.96579742, 99.97802734, 3.40453029, 177.25650024, 0.03813070, 0.00076545, -0.76582080, -0.64192218, 0.17246796, -0.09581345, 0.16098760, 100.31500244, 84.41569519, 31.09000015, 0.00000000
4, 0.3601, 27, -0.11666083, -0.89362472, 0.04137614, -16.79635811, -14.24582672, 7.36013412, -7.65857935, -46.74071884, -78.01811981, 99.88951111, 3.38056898, 177.17985535, 0.03840000, 0.00014844, -0.76532656, -0.64249581, 0.17573521, -0.08972951, 0.13045084, 100.31500244, 84.41569519, 31.09000015, 0.00000000
4, 0.3651, 28, -0.12190507, -0.90345639, 0.06045686, -17.05227661, -13.35751343, 7.87044001, -7.65857935, -46.74071884, -78.01811981, 99.79997253, 3.35321665, 177.10719299, 0.03862529, -0.00046027, -0.76482564, -0.64307821, 0.18051979, -0.08019052, 0.10984595, 100.31500244, 84.41569519, 31.09000015, 0.00000000
4, 0.3701, 29, -0.06995017, -0.87644231, 0.06470413, -18.26897430, -12.13096142, 8.68674850, -7.65857935, -46.74071884, -78.01811981, 99.70470428, 3.32068563, 177.03994751, 0.03878673, -0.00105976, -0.76429206, -0.64370203, 0.12802038, -0.10751326, 0.10399444, 100.31500244, 84.41569519, 31.09000015, 0.00000000
4, 0.3751, 30, -0.09322609, -0.90839154, 0.06639651, -18.99558067, -14.40428638, 8.38164711, -6.84010506, -45.83454895, -78.92429352, 99.60520935, 3.29144955, 176.96177673, 0.03903254, -0.00171170, -0.76373321, -0.64434868, 0.15076169, -0.07588080, 0.10062884, 100.31500244, 84.41569519, 31.09000015, 0.00000000
3, 0.2451, 31, 0.24725199, -0.82959807, 0.19690922, 24.38269234, 1.30701351, -60.44281769, -3.91698337, -34.08359909, -98.62612915, 104.78187561, 23.68367958, -80.67766571, 0.35003650, -0.67204714, 0.40642104, 0.51053798, 0.15327162, -0.05652684, 0.03624617, 100.38100433, 78.87828827, 31.62999916, 0.00000000
3, 0.2501, 32, 0.25002339, -0.85347521, 0.21829337, 25.17337990, 5.49518204, -61.52055740, -3.91698337, -34.08359909, -98.62612915, 104.95433807, 23.97393417, -80.56234741, 0.34802377, -0.67364216, 0.40509215, 0.51086789, 0.15513770, -0.02998558, 0.01694973, 100.38100433, 78.87828827, 31.62999916, 0.00000000
3, 0.2551, 33, 0.26274681, -0.87556392, 0.23918344, 25.49015427, 6.73334074, -63.11731339, -3.04004669, -34.31745148, -98.68459320, 105.13301849, 24.26997375, -80.43697357, 0.34598511, -0.67529202, 0.40370104, 0.51117569, 0.14710061, -0.00514305, -0.00174285, 100.38100433, 78.87828827, 31.62999916, 0.00000000
2, 0.3050, 34, 0.00000000, 0.00000000, 0.00000000, 0.00000000, 0.00000000, 0.00000000, 0.00000000, 0.00000000, 0.00000000, 0.00000000, 0.00000000, 0.00000000, 1.00000000, 0.00000000, 0.00000000, 0.00000000, 0.00000000, 0.00000000, 0.00000000, 0.00000000, 0.00000000, 0.00000000, 0.00000000
2, 0.3100, 35, 0.00000000, 0.00000000, 0.00000000, 0.00000000, 0.00000000, 0.00000000, 0.00000000, 0.00000000, 0.00000000, 0.00000000, 0.00000000, 0.00000000, 1.00000000, 0.00000000, 0.00000000, 0.00000000, 0.00000000, 0.00000000, 0.00000000, 0.00000000, 0.00000000, 0.00000000, 0.00000000
1, 0.1848, 11, -0.49621341, -0.42311689, -0.00976143, 60.04888916, -6.22974730, -78.91440582, -69.21952820, 23.53113174, -79.94738007, 97.81559753, -22.93918610, -66.75466156, -0.62035215, 0.54487854, -0.51548320, -0.22923315, 0.10486850, -0.48870736, 0.13183682, 100.34200287, 82.15006256, 29.21999931, 0.00000000
1, 0.1898, 12, -0.47358203, -0.42631066, -0.01099273, 59.29306030, -0.84534377, -84.41984558, -68.57643890, 21.19263268, -80.21046448, 98.08668518, -22.52636909, -66.69576263, -0.61810100, 0.54833025, -0.51410395, -0.23017865, 0.08883724, -0.48765433, 0.13789876, 100.34200287, 82.15006256, 29.21999931, 0.00000000
1, 0.3099, 34, 0.24230957, -0.86962891, 0.23455811, 50.19931412, 21.93844414, 29.47930527, -50.74539566, 2.04618526, -60.59631729, 65.88792419, -12.86183357, -138.54855347, -0.35208973, 0.10333155, -0.53868914, -0.75839925, -0.46449208, -0.01993361, -0.63369787, 100.26900482, 88.27654266, 29.22999954, 0.00000000
1, 0.3149, 35, 0.23834229, -0.89538574, 0.23126221, 48.58931351, 15.91844273, 31.05430603, -50.74539566, 2.04618526, -60.59631729, 66.09970856, -12.97128868, -138.40914917, -0.35327125, 0.10387453, -0.54019070, -0.75670582, -0.46232510, 0.00472743, -0.62693685, 100.26900482, 88.27654266, 29.22999954, 0.00000000
1, 0.3199, 36, 0.23278809, -0.92224121, 0.22241211, 47.18931580, 11.64844131, 32.38430786, -51.41771317, 1.87079799, -59.63168716, 66.30819702, -13.09594536, -138.28738403, -0.35439998, 0.10422289, -0.54171419, -0.75503904, -0.45882550, 0.03057514, -0.61463356, 100.26900482, 88.27654266, 29.22999954, 0.00000000
1, 0.1948, 13, -0.45715532, -0.42878252, -0.01212853, 58.92163467, 1.95241535, -90.86813354, -68.57643890, 21.19263268, -80.21046448, 98.34982300, -22.07724762, -66.61579895, -0.61581624, 0.55196697, -0.51246148, -0.23127100, 0.07951181, -0.48747438, 0.14369938, 100.34200287, 82.15006256, 29.21999931, 0.00000000
1, 0.1998, 14, -0.45721310, -0.43021145, -0.02564229, 57.88591385, 6.95138788, -96.37921143, -68.72259521, 22.94650650, -79.74276733, 98.59608459, -21.60486221, -66.50298309, -0.61359817, 0.55573630, -0.51052952, -0.23240936, 0.08713667, -0.48843294, 0.16167626, 100.34200287, 82.15006256, 29.21999931, 0.00000000
1, 0.2048, 15, -0.46266317, -0.44414598, -0.04454934, 57.45029449, 9.66199207, -100.65552521, -68.72259521, 22.94650650, -79.74276733, 98.83384705, -21.11381721, -66.37055206, -0.61139262, 0.55960256, -0.50840408, -0.23360088, 0.10053398, -0.47695562, 0.18485999, 100.34200287, 82.15006256, 29.21999931, 0.00000000
2, 0.3500, 36, 0.00000000, 0.00000000, 0.00000000, 0.00000000, 0.00000000, 0.00000000, 0.00000000, 0.00000000, 0.00000000, 0.00000000, 0.00000000, 0.00000000, 1.00000000, 0.00000000, 0.00000000, 0.00000000, 0.00000000, 0.00000000, 0.00000000, 0.00000000, 0.00000000, 0.00000000, 0.00000000
2, 0.3550, 37, 0.00000000, 0.00000000, 0.00000000, 0.00000000, 0.00000000, 0.00000000, 0.00000000, 0.00000000, 0.00000000, 0.00000000, 0.00000000, 0.00000000, 1.00000000, 0.00000000, 0.00000000, 0.00000000, 0.00000000, 0.00000000, 0.00000000, 0.00000000, 0.00000000, 0.00000000, 0.00000000
2, 0.3600, 38, 0.00000000, 0.00000000, 0.00000000, 0.00000000, 0.00000000, 0.00000000, 0.00000000, 0.00000000, 0.00000000, 0.00000000, 0.00000000, 0.00000000, 1.00000000, 0.00000000, 0.00000000, 0.00000000, 0.00000000, 0.00000000, 0.00000000, 0.00000000, 0.00000000, 0.00000000, 0.00000000
3, 0.2601, 34, 0.25106296, -0.87338227, 0.23222749, 26.33432007, 3.27507663, -64.63527679, -3.04004669, -34.31745148, -98.68459320, 105.31020355, 24.57184982, -80.32647705, 0.34385425, -0.67688471, 0.40235975, 0.51156431, 0.16358501, -0.00448927, 0.00736921, 100.38100433, 78.87828827, 31.62999916, 0.00000000
3, 0.2651, 35, 0.25753617, -0.86144203, 0.22487137, 27.39817810, 2.22878885, -66.16214752, -3.33235884, -34.17129517, -97.86611938, 105.49259949, 24.88782310, -80.21791840, 0.34160569, -0.67850375, 0.40098181, 0.51200765, 0.16205055, -0.01348555, 0.01688512, 100.38100433, 78.87828827, 31.62999916, 0.00000000
3, 0.2701, 36, 0.26310110, -0.86249787, 0.21519376, 27.46426010, 3.85296416, -67.96138763, -3.33235884, -34.17129517, -97.86611938, 105.68128204, 25.20995522, -80.09664154, 0.33933997, -0.68018484, 0.39952385, 0.51242340, 0.16155580, -0.00936088, 0.02878600, 100.38100433, 78.87828827, 31.62999916, 0.00000000
4, 0.4051, 31, -0.22341944, -0.83763915, 0.07367394, -23.22045517, -5.26999331, 10.48883438, -4.73545742, -47.12072372, -81.05816650, 98.91484070, 3.06531191, 176.56265259, 0.03980490, -0.00540604, -0.75983083, -0.64887875, 0.27710491, -0.14877647, 0.08157409, 100.31500244, 84.41569519, 31.09000015, 0.00000000
4, 0.4101, 32, -0.20656498, -0.82208967, 0.06431743, -22.66354942, -3.92376232, 10.50145817, -3.94621444, -46.21455765, -81.23355865, 98.80004883, 3.01645136, 176.53514099, 0.03964298, -0.00582592, -0.75917929, -0.64964706, 0.25940067, -0.16468243, 0.08894292, 100.31500244, 84.41569519, 31.09000015, 0.00000000
1, 0.3249, 37, 0.21984863, -0.94372559, 0.21179199, 45.71931458, 7.55343866, 34.13431168, -51.41771317, 1.87079799, -59.63168716, 66.51272583, -13.23723602, -138.18170166, -0.35549402, 0.10437161, -0.54325718, -0.75339389, -0.44821340, 0.05115745, -0.60059881, 100.26900482, 88.27654266, 29.22999954, 0.00000000
1, 0.3299, 38, 0.21032715, -0.96575928, 0.20587158, 44.24930954, 3.35343766, 36.05931091, -51.30078888, 2.22157264, -60.07015610, 66.71339417, -13.39605713, -138.09234619, -0.35655618, 0.10431314, -0.54482228, -0.75176805, -0.44131744, 0.07239692, -0.59128827, 100.26900482, 88.27654266, 29.22999954, 0.00000000
3, 0.2751, 37, 0.25764084, -0.86380506, 0.21022181, 27.56385803, 5.38239241, -70.18154907, -3.33235884, -34.17129517, -97.86611938, 105.87663269, 25.54032707, -79.96237946, 0.33704475, -0.68193299, 0.39797536, 0.51281953, 0.17219226, -0.00487065, 0.03603662, 100.38100433, 78.87828827, 31.62999916, 0.00000000
3, 0.2801, 38, 0.22680418, -0.87347782, 0.21376266, 27.59241104, 6.35338640, -72.05801392, -2.07541656, -34.37591171, -98.65536499, 106.07704163, 25.87795448, -79.81842041, 0.33471975, -0.68372834, 0.39635301, 0.51320815, 0.20832045, 0.00810373, 0.03481607, 100.38100433, 78.87828827, 31.62999916, 0.00000000
2, 0.3650, 39, 0.00000000, 0.00000000, 0.00000000, 0.00000000, 0.00000000, 0.00000000, 0.00000000, 0.00000000, 0.00000000, 0.00000000, 0.00000000, 0.00000000, 1.00000000, 0.00000000, 0.00000000, 0.00000000, 0.00000000, 0.00000000, 0.00000000, 0.00000000, 0.00000000, 0.00000000, 0.00000000
2, 0.3700, 40, 0.00000000, 0.00000000, 0.00000000, 0.00000000, 0.00000000, 0.00000000, 0.00000000, 0.00000000, 0.00000000, 0.00000000, 0.00000000, 0.00000000, 1.00000000, 0.00000000, 0.00000000, 0.00000000, 0.00000000, 0.00000000, 0.00000000, 0.00000000, 0.00000000, 0.00000000, 0.00000000
2, 0.3750, 41, 0.00000000, 0.00000000, 0.00000000, 0.00000000, 0.00000000, 0.00000000, 0.00000000, 0.00000000, 0.00000000, 0.00000000, 0.00000000, 0.00000000, 1.00000000, 0.00000000, 0.00000000, 0.00000000, 0.00000000, 0.00000000, 0.00000000, 0.00000000, 0.00000000, 0.00000000, 0.00000000
4, 0.4151, 33, -0.17281392, -0.81554091, 0.03320284, -21.96247482, -2.89033532, 10.67976856, -3.94621444, -46.21455765, -81.23355865, 98.68907166, 2.96587014, 176.51271057, 0.03944155, -0.00622363, -0.75854862, -0.65039200, 0.22477868, -0.17157416, 0.11813502, 100.31500244, 84.41569519, 31.09000015, 0.00000000
4, 0.4201, 34, -0.15266071, -0.81489307, 0.00968392, -21.25879288, -2.24232340, 11.23487568, -3.94621444, -46.21455765, -81.23355865, 98.58177948, 2.91201591, 176.49316406, 0.03920269, -0.00662252, -0.75793803, -0.65111399, 0.20370132, -0.17255253, 0.13980091, 100.31500244, 84.41569519, 31.09000015, 0.00000000
4, 0.4251, 35, -0.14083469, -0.81866872, 0.00592413, -20.93645859, -2.69708085, 11.67333794, -2.86465931, -46.06840134, -82.31510925, 98.47599030, 2.85629416, 176.47114563, 0.03896626, -0.00704938, -0.75733471, -0.65182519, 0.19090948, -0.16910037, 0.14173919, 100.31500244, 84.41569519, 31.09000015, 0.00000000
1, 0.2098, 16, -0.47342145, -0.48704371, -0.04973708, 57.97853470, 12.16311932, -104.56352997, -68.72259521, 22.94650650, -79.74276733, 99.06883240, -20.60589027, -66.21998596, -0.60917342, 0.56358004, -0.50610834, -0.23481821, 0.11951499, -0.43656719, 0.19422901, 100.34200287, 82.15006256, 29.21999931, 0.00000000
1, 0.2148, 17, -0.49044812, -0.53099287, -0.02740694, 58.20304489, 13.33532524, -108.35913849, -67.90412140, 22.33265114, -79.12890625, 99.30229187, -20.08073425, -66.05832672, -0.60691869, 0.56764305, -0.50367612, -0.23609647, 0.14499950, -0.39518583, 0.17606837, 100.34200287, 82.15006256, 29.21999931, 0.00000000
1, 0.2198, 18, -0.49374270, -0.51451194, -0.00216378, 56.30613708, 13.41445923, -112.36410522, -67.90412140, 22.33265114, -79.12890625, 99.52575684, -19.53650665, -65.89112091, -0.60465354, 0.57172740, -0.50110811, -0.23751369, 0.15708230, -0.41427320, 0.15502889, 100.34200287, 82.15006256, 29.21999931, 0.00000000
3, 0.3251, 39, 0.32532242, -0.96587831, 0.24063464, 36.36072540, 5.43176413, -86.00559235, 0.99386144, -33.52820587, -98.88921356, 108.24052429, 29.15797234, -78.14079285, 0.31182477, -0.70178223, 0.37970084, 0.51584333, 0.16035669, 0.13534437, 0.03199140, 100.38100433, 78.87828827, 31.62999916, 0.00000000
3, 0.3301, 40, 0.27596861, -0.98217469, 0.24371646, 37.16801834, 3.71854949, -88.48135376, 2.74773455, -33.73282623, -99.00613403, 108.51478577, 29.57195663, -77.96048737, 0.30875406, -0.70383143, 0.37777406, 0.51631296, 0.21595980, 0.15627308, 0.03176250, 100.38100433, 78.87828827, 31.62999916, 0.00000000
2, 0.3800, 42, 0.00000000, 0.00000000, 0.00000000, 0.00000000, 0.00000000, 0.00000000, 0.00000000, 0.00000000, 0.00000000, 0.00000000, 0.00000000, 0.00000000, 1.00000000, 0.00000000, 0.00000000, 0.00000000, 0.00000000, 0.00000000, 0.00000000, 0.00000000, 0.00000000, 0.00000000, 0.00000000
2, 0.3850, 43, 0.00000000, 0.00000000, 0.00000000, 0.00000000, 0.00000000, 0.00000000, 0.00000000, 0.00000000, 0.00000000, 0.00000000, 0.00000000, 0.00000000, 1.00000000, 0.00000000, 0.00000000, 0.00000000, 0.00000000, 0.00000000, 0.00000000, 0.00000000, 0.00000000, 0.00000000, 0.00000000
1, 0.3499, 39, 0.22058105, -1.04510498, 0.14392090, 33.53930664, -14.14656830, 40.32931137, -52.38234329, 2.77696586, -59.80707169, 67.43753815, -14.17230892, -137.90861511, -0.36033064, 0.10206266, -0.55097812, -0.74576682, -0.46450704, 0.14980283, -0.51665795, 100.26900482, 88.27654266, 29.22999954, 0.00000000
1, 0.3549, 40, 0.25244141, -1.06683350, 0.11157227, 31.50930595, -17.36656761, 40.85431290, -51.62233353, 3.01081562, -59.25167847, 67.59561920, -14.39425278, -137.91078186, -0.36110121, 0.10101051, -0.55245686, -0.74444228, -0.50008613, 0.17136762, -0.48145288, 100.26900482, 88.27654266, 29.22999954, 0.00000000
1, 0.3599, 41, 0.26995850, -1.07312012, 0.07916260, 29.33930588, -20.83156776, 41.30931091, -51.62233353, 3.01081562, -59.25167847, 67.74694824, -14.62488461, -137.92927551, -0.36181051, 0.09980006, -0.55391860, -0.74317384, -0.52146399, 0.17758971, -0.44627142, 100.26900482, 88.27654266, 29.22999954, 0.00000000
1, 0.3649, 42, 0.27349854, -1.07476807, 0.05725098, 27.16930580, -23.49157143, 41.65931320, -51.62233353, 3.01081562, -59.25167847, 67.89073181, -14.86210728, -137.96041870, -0.36247420, 0.09846007, -0.55535030, -0.74195963, -0.52898961, 0.17927468, -0.42168853, 100.26900482, 88.27654266, 29.22999954, 0.00000000
1, 0.3699, 43, 0.30102539, -1.07110596, 0.03875732, 25.10430336, -25.20657158, 41.30931091, -51.97310638, 2.30926633, -59.16398621, 68.02677155, -15.10085011, -138.00111389, -0.36309186, 0.09703982, -0.55673760, -0.74080426, -0.56053597, 0.17573082, -0.40063623, 100.26900482, 88.27654266, 29.22999954, 0.00000000
4, 0.4301, 36, -0.13145113, -0.82402349, 0.01043732, -20.92219734, -4.52811813, 11.84898853, -2.86465931, -46.06840134, -82.31510925, 98.36982727, 2.80100346, 176.44003296, 0.03878531, -0.00753415, -0.75672787, -0.65253502, 0.18055825, -0.16406386, 0.13541050, 100.31500244, 84.41569519, 31.09000015, 0.00000000
4, 0.4351, 37, -0.12128522, -0.82792389, -0.01491983, -21.47963142, -5.84373045, 12.08122921, -0.96463019, -46.33148193, -82.84127045, 98.24952698, 2.73316693, 176.40171814, 0.03856461, -0.00813360, -0.75603843, -0.65333951, 0.16932198, -0.16050334, 0.15880692, 100.31500244, 84.41569519, 31.09000015, 0.00000000
4, 0.4401, 38, -0.12057449, -0.83815533, -0.02786409, -21.61497688, -6.78786612, 12.86957455, -0.96463019, -46.33148193, -82.84127045, 98.13941193, 2.67431283, 176.35890198, 0.03842930, -0.00871528, -0.75540578, -0.65407145, 0.16749373, -0.15061225, 0.16976905, 100.31500244, 84.41569519, 31.09000015, 0.00000000
1, 0.2248, 19, -0.49404284, -0.48521790, 0.00273029, 54.50486374, 11.63100815, -115.64352417, -67.99181366, 22.27418900, -79.47968292, 99.74327087, -18.97526169, -65.72872162, -0.60234171, 0.57579923, -0.49847138, -0.23909414, 0.16654271, -0.44616070, 0.15426528, 100.34200287, 82.15006256, 29.21999931, 0.00000000
1, 0.2298, 20, -0.48683235, -0.46359536, -0.00336514, 53.86994171, 10.60795593, -118.25370026, -67.99181366, 22.27418900, -79.47968292, 99.95953369, -18.40088463, -65.56763458, -0.59997731, 0.57988191, -0.49577382, -0.24077526, 0.16878581, -0.47033656, 0.16448537, 100.34200287, 82.15006256, 29.21999931, 0.00000000
3, 0.3351, 41, 0.22784081, -0.98960060, 0.22922757, 37.75646210, 0.63358772, -91.21556854, 2.74773455, -33.73282623, -99.00613403, 108.78876495, 30.00306511, -77.78895569, 0.30554730, -0.70585138, 0.37581128, 0.51689523, 0.27055866, 0.16852032, 0.04901787, 100.38100433, 78.87828827, 31.62999916, 0.00000000
3, 0.3401, 42, 0.22156818, -0.97552401, 0.20988627, 37.88253784, -1.38065445, -93.82734680, 3.12774038, -33.26512527, -99.56153107, 109.06303406, 30.44907188, -77.62040710, 0.30223879, -0.70785701, 0.37379068, 0.51756239, 0.28351539, 0.15944862, 0.07101702, 100.38100433, 78.87828827, 31.62999916, 0.00000000
3, 0.3451, 43, 0.25810829, -0.94785571, 0.21242563, 37.84049606, 0.52630234, -95.90172577, 3.12774038, -33.26512527, -99.56153107, 109.34729004, 30.90102005, -77.43412018, 0.29890984, -0.70992488, 0.37167257, 0.51818836, 0.25375032, 0.13694441, 0.07115608, 100.38100433, 78.87828827, 31.62999916, 0.00000000
2, 0.3900, 44, 0.00000000, 0.00000000, 0.00000000, 0.00000000, 0.00000000, 0.00000000, 0.00000000, 0.00000000, 0.00000000, 0.00000000, 0.00000000, 0.00000000, 1.00000000, 0.00000000, 0.00000000, 0.00000000, 0.00000000, 0.00000000, 0.00000000, 0.00000000, 0.00000000, 0.00000000, 0.00000000
4, 0.4451, 39, -0.14851312, -0.84688544, -0.03636214, -22.40707779, -9.86722183, 13.35384083, -0.96463019, -46.33148193, -82.84127045, 98.02469635, 2.61514115, 176.30061340, 0.03838191, -0.00939948, -0.75474411, -0.65482813, 0.19439439, -0.14220907, 0.17631505, 100.31500244, 84.41569519, 31.09000015, 0.00000000
4, 0.4501, 40, -0.20622015, -0.85345745, -0.04388341, -23.72130394, -14.14870739, 13.44347668, 0.02923122, -45.54224014, -83.65974426, 97.90251923, 2.55837178, 176.22116089, 0.03847343, -0.01020674, -0.75403649, -0.65562534, 0.25110078, -0.13597304, 0.18176955, 100.31500244, 84.41569519, 31.09000015, 0.00000000
2, 0.4050, 45, 0.00000000, 0.00000000, 0.00000000, 0.00000000, 0.00000000, 0.00000000, 0.00000000, 0.00000000, 0.00000000, 0.00000000, 0.00000000, 0.00000000, 1.00000000, 0.00000000, 0.00000000, 0.00000000, 0.00000000, 0.00000000, 0.00000000, 0.00000000, 0.00000000, 0.00000000, 0.00000000
2, 0.4100, 46, 0.00000000, 0.00000000, 0.00000000, 0.00000000, 0.00000000, 0.00000000, 0.00000000, 0.00000000, 0.00000000, 0.00000000, 0.00000000, 0.00000000, 1.00000000, 0.00000000, 0.00000000, 0.00000000, 0.00000000, 0.00000000, 0.00000000, 0.00000000, 0.00000000, 0.00000000, 0.00000000
2, 0.4150, 47, 0.00000000, 0.00000000, 0.00000000, 0.00000000, 0.00000000, 0.00000000, 0.00000000, 0.00000000, 0.00000000, 0.00000000, 0.00000000, 0.00000000, 1.00000000, 0.00000000, 0.00000000, 0.00000000, 0.00000000, 0.00000000, 0.00000000, 0.00000000, 0.00000000, 0.00000000, 0.00000000
1, 0.3749, 44, 0.34710693, -1.06646729, 0.02166748, 22.96930313, -26.78157425, 41.16931534, -51.97310638, 2.30926633, -59.16398621, 68.15451050, -15.34179020, -138.05027771, -0.36367372, 0.09553769, -0.55807710, -0.73970538, -0.61066484, 0.17129155, -0.38110644, 100.26900482, 88.27654266, 29.22999954, 0.00000000
1, 0.3799, 45, 0.40820313, -1.06365967, 0.01086426, 20.90430260, -29.51156998, 41.51931381, -51.97310638, 2.77696586, -58.25782013, 68.27561951, -15.58931446, -138.11250305, -0.36420688, 0.09390560, -0.55939144, -0.73865843, -0.67589474, 0.16877238, -0.36795866, 100.26900482, 88.27654266, 29.22999954, 0.00000000
1, 0.3849, 46, 0.41735840, -1.06170654, 0.00482178, 19.18930435, -33.22157288, 41.62430954, -51.97310638, 2.77696586, -58.25782013, 68.39340210, -15.84405136, -138.19305420, -0.36465779, 0.09212364, -0.56070679, -0.73766249, -0.68928611, 0.16718958, -0.35963607, 100.26900482, 88.27654266, 29.22999954, 0.00000000
1, 0.3448, 21, -0.35170552, -1.00873804, 0.13045593, 2.52322340, -66.47958374, -103.03306580, -59.83630371, 13.85559750, -73.39958954, 104.05641174, -3.46375632, -67.80638123, -0.52372164, 0.64361453, -0.45494699, -0.32326341, 0.28844666, 0.04037039, 0.10932721, 100.34200287, 82.15006256, 29.21999931, 0.00000000
1, 0.3498, 22, -0.35846233, -1.01347840, 0.12752928, -0.22726442, -62.15777206, -101.21252441, -58.95936966, 13.32943535, -73.01958466, 104.06400299, -2.89765072, -67.98611450, -0.52106470, 0.64472306, -0.45351893, -0.32732925, 0.30513749, 0.04460524, 0.11256510, 100.34200287, 82.15006256, 29.21999931, 0.00000000
3, 0.3501, 44, 0.34242588, -0.94908005, 0.24477427, 38.44606400, 3.90823960, -97.89579773, 3.12774038, -33.26512527, -99.56153107, 109.64931488, 31.35590744, -77.22174835, 0.29556566, -0.71209472, 0.36945453, 0.51871508, 0.17622717, 0.14350142, 0.04164621, 100.38100433, 78.87828827, 31.62999916, 0.00000000
3, 0.3551, 45, 0.41495800, -0.95826286, 0.25600320, 39.29980850, 5.73203707, -99.70117188, 4.64776373, -32.65127182, -99.38614655, 109.96627808, 31.81519890, -76.99178314, 0.29217720, -0.71433085, 0.36716831, 0.51918352, 0.11051397, 0.15818809, 0.03339945, 100.38100433, 78.87828827, 31.62999916, 0.00000000
3, 0.3601, 46, 0.44645837, -0.96903139, 0.23946892, 40.40145493, 5.30295563, -101.08135986, 4.64776373, -32.65127182, -99.38614655, 110.28987885, 32.27736664, -76.75859070, 0.28873882, -0.71656108, 0.36487296, 0.51965165, 0.08585864, 0.17460464, 0.05296778, 100.38100433, 78.87828827, 31.62999916, 0.00000000
1, 0.3548, 23, -0.35117626, -1.01615131, 0.12077022, -2.30362678, -57.62860107, -99.08016968, -58.95936966, 13.32943535, -73.01958466, 104.05860138, -2.34737015, -68.14633942, -0.51857257, 0.64579040, -0.45200634, -0.33125168, 0.30753130, 0.04682714, 0.11941200, 100.34200287, 82.15006256, 29.21999931, 0.00000000
1, 0.3598, 24, -0.33577466, -1.00977480, 0.12023824, -3.74100304, -52.83277512, -96.21348572, -58.95936966, 13.32943535, -73.01958466, 104.04380798, -1.81682241, -68.28675842, -0.51624441, 0.64682281, -0.45043412, -0.33499435, 0.30148232, 0.04004660, 0.11986593, 100.34200287, 82.15006256, 29.21999931, 0.00000000
1, 0.3648, 25, -0.30872130, -1.01768351, 0.12722123, -4.48011160, -47.14037323, -94.17558289, -58.05319977, 12.71557999, -72.52265167, 104.02342987, -1.30309594, -68.40213776, -0.51406699, 0.64786786, -0.44877052, -0.33853731, 0.28346127, 0.04760562, 0.11268504, 100.34200287, 82.15006256, 29.21999931, 0.00000000
3, 0.3651, 47, 0.46037373, -0.96551019, 0.27494192, 41.78601074, 2.41532326, -102.10904694, 5.90470600, -34.58053207, -99.85384369, 110.61974335, 32.75151443, -76.53358459, 0.28515223, -0.71875960, 0.36259314, 0.52019131, 0.07887179, 0.17688711, 0.02049357, 100.38100433, 78.87828827, 31.62999916, 0.00000000
4, 0.4701, 41, -0.19927868, -0.84738016, -0.05136093, -21.09688950, -14.76957417, 18.12205315, 1.57848585, -47.32534409, -84.15667725, 97.42263794, 2.29957938, 175.84642029, 0.03897566, -0.01399251, -0.75122935, -0.65874088, 0.23977023, -0.14336641, 0.18090454, 100.31500244, 84.41569519, 31.09000015, 0.00000000
4, 0.4751, 42, -0.19184311, -0.86731476, -0.04075863, -20.04872131, -13.15602589, 20.92093658, 3.27389646, -45.60070038, -84.74130249, 97.31929779, 2.20427847, 175.76770020, 0.03881777, -0.01502229, -0.75061727, -0.65942502, 0.23073664, -0.12372938, 0.16850241, 100.31500244, 84.41569519, 31.09000015, 0.00000000
2, 0.4200, 48, 0.00000000, 0.00000000, 0.00000000, 0.00000000, 0.00000000, 0.00000000, 0.00000000, 0.00000000, 0.00000000, 0.00000000, 0.00000000, 0.00000000, 1.00000000, 0.00000000, 0.00000000, 0.00000000, 0.00000000, 0.00000000, 0.00000000, 0.00000000, 0.00000000, 0.00000000, 0.00000000
2, 0.4250, 49, 0.00000000, 0.00000000, 0.00000000, 0.00000000, 0.00000000, 0.00000000, 0.00000000, 0.00000000, 0.00000000, 0.00000000, 0.00000000, 0.00000000, 1.00000000, 0.00000000, 0.00000000, 0.00000000, 0.00000000, 0.00000000, 0.00000000, 0.00000000, 0.00000000, 0.00000000, 0.00000000
2, 0.4300, 50, 0.00000000, 0.00000000, 0.00000000, 0.00000000, 0.00000000, 0.00000000, 0.00000000, 0.00000000, 0.00000000, 0.00000000, 0.00000000, 0.00000000, 1.00000000, 0.00000000, 0.00000000, 0.00000000, 0.00000000, 0.00000000, 0.00000000, 0.00000000, 0.00000000, 0.00000000, 0.00000000
1, 0.3899, 47, 0.41986084, -1.05346680, 0.00286865, 16.84430122, -39.17157364, 41.41431427, -51.97310638, 2.77696586, -58.25782013, 68.50800323, -16.10858345, -138.30342102, -0.36496347, 0.09011736, -0.56203681, -0.73674643, -0.69620502, 0.15940815, -0.35541868, 100.26900482, 88.27654266, 29.22999954, 0.00000000
1, 0.3949, 48, 0.40924072, -1.03997803, -0.00256348, 14.81430149, -42.74157715, 40.99431229, -52.26541901, 3.80005836, -58.69628525, 68.61820984, -16.37747574, -138.43260193, -0.36517352, 0.08797365, -0.56335288, -0.73589575, -0.69007415, 0.14644758, -0.34777114, 100.26900482, 88.27654266, 29.22999954, 0.00000000
2, 0.4350, 51, 0.00000000, 0.00000000, 0.00000000, 0.00000000, 0.00000000, 0.00000000, 0.00000000, 0.00000000, 0.00000000, 0.00000000, 0.00000000, 0.00000000, 1.00000000, 0.00000000, 0.00000000, 0.00000000, 0.00000000, 0.00000000, 0.00000000, 0.00000000, 0.00000000, 0.00000000, 0.00000000
2, 0.4400, 52, 0.00000000, 0.00000000, 0.00000000, 0.00000000, 0.00000000, 0.00000000, 0.00000000, 0.00000000, 0.00000000, 0.00000000, 0.00000000, 0.00000000, 1.00000000, 0.00000000, 0.00000000, 0.00000000, 0.00000000, 0.00000000, 0.00000000, 0.00000000, 0.00000000, 0.00000000, 0.00000000
2, 0.4450, 53, 0.00000000, 0.00000000, 0.00000000, 0.00000000, 0.00000000, 0.00000000, 0.00000000, 0.00000000, 0.00000000, 0.00000000, 0.00000000, 0.00000000, 1.00000000, 0.00000000, 0.00000000, 0.00000000, 0.00000000, 0.00000000, 0.00000000, 0.00000000, 0.00000000, 0.00000000, 0.00000000
4, 0.4801, 43, -0.20984215, -0.88735658, -0.04549248, -20.44396973, -12.84742355, 23.16860390, 3.27389646, -45.60070038, -84.74130249, 97.21413422, 2.09749103, 175.68927002, 0.03858527, -0.01611612, -0.74999124, -0.66012466, 0.24691486, -0.10398690, 0.17144227, 100.31500244, 84.41569519, 31.09000015, 0.00000000
4, 0.4851, 44, -0.21315555, -0.90668494, -0.04392024, -21.29217148, -13.41992378, 24.36293602, 3.27389646, -45.60070038, -84.74130249, 97.09510040, 1.96985972, 175.60678101, 0.03824424, -0.01735272, -0.74927992, -0.66092044, 0.24815664, -0.08497918, 0.16792259, 100.31500244, 84.41569519, 31.09000015, 0.00000000
4, 0.4901, 45, -0.17797820, -0.92740202, -0.05434763, -22.06786346, -14.12302303, 25.09963799, 4.70622635, -45.19146347, -85.55977631, 96.98191833, 1.85395920, 175.52127075, 0.03799880, -0.01854376, -0.74860013, -0.66167229, 0.21083868, -0.06458600, 0.17632975, 100.31500244, 84.41569519, 31.09000015, 0.00000000
1, 0.3698, 26, -0.24424960, -1.03253984, 0.12890129, -5.57298899, -38.57003021, -91.71406555, -58.05319977, 12.71557999, -72.52265167, 103.99585724, -0.81166905, -68.47907257, -0.51211423, 0.64895409, -0.44695866, -0.34179765, 0.22763124, 0.06217557, 0.11074158, 100.34200287, 82.15006256, 29.21999931, 0.00000000
1, 0.3748, 27, -0.20487207, -1.03512347, 0.11511312, -6.17965651, -34.97021484, -89.51740265, -57.26395798, 11.92633724, -72.02572632, 103.96446991, -0.33526525, -68.54141235, -0.51027215, 0.65002602, -0.44511122, -0.34491253, 0.19666737, 0.06455363, 0.12412754, 100.34200287, 82.15006256, 29.21999931, 0.00000000
1, 0.3798, 28, -0.17866336, -1.03633487, 0.07460650, -6.56341791, -32.07385254, -86.95477295, -57.26395798, 11.92633724, -72.02572632, 103.93067932, 0.12518042, -68.59303284, -0.50852686, 0.65107238, -0.44325852, -0.34788954, 0.17866683, 0.06566130, 0.16414225, 100.34200287, 82.15006256, 29.21999931, 0.00000000
1, 0.4199, 49, 0.34289551, -0.91351318, -0.04376221, 5.08429813, -37.87657547, 42.46430969, -51.76848984, 3.74159598, -57.73165512, 69.02687836, -17.73573494, -139.10635376, -0.36625344, 0.07654803, -0.56892985, -0.73233718, -0.64642602, 0.02390346, -0.29750371, 100.26900482, 88.27654266, 29.22999954, 0.00000000
1, 0.4249, 50, 0.31951904, -0.89556885, -0.04248047, 5.74929857, -35.11157608, 41.48431396, -51.76848984, 3.74159598, -57.73165512, 69.08456421, -17.99220848, -139.20071411, -0.36668721, 0.07448792, -0.56981158, -0.73164672, -0.62735438, 0.00690854, -0.29740053, 100.26900482, 88.27654266, 29.22999954, 0.00000000
3, 0.3701, 48, 0.48044869, -0.95669955, 0.29319447, 44.41935349, -2.72987914, -102.93212891, 5.90470600, -34.58053207, -99.85384369, 110.95212555, 33.23753738, -76.33104706, 0.28137630, -0.72087014, 0.36040276, 0.52084875, 0.06587263, 0.17407285, 0.00517185, 100.38100433, 78.87828827, 31.62999916, 0.00000000
1, 0.4299, 51, 0.36608887, -0.92474365, -0.00848389, 6.58929873, -31.12157631, 41.44931030, -52.41157532, 3.94621444, -58.17012405, 69.14088440, -18.24131203, -139.27592468, -0.36721435, 0.07256904, -0.57065296, -0.73091906, -0.67807734, 0.03700794, -0.33002374, 100.26900482, 88.27654266, 29.22999954, 0.00000000
1, 0.4349, 52, 0.43518066, -0.91973877, -0.03924561, 6.86929893, -26.85157204, 44.03931427, -52.41157532, 3.94621444, -58.17012405, 69.19087219, -18.49486160, -139.32562256, -0.36792761, 0.07072598, -0.57144010, -0.73012555, -0.75134164, 0.03299216, -0.29798049, 100.26900482, 88.27654266, 29.22999954, 0.00000000
1, 0.4399, 53, 0.45684814, -0.91546631, -0.08721924, 8.40929890, -23.00156975, 44.87931442, -52.41157532, 3.94621444, -58.17012405, 69.24230957, -18.74547005, -139.35505676, -0.36875704, 0.06900901, -0.57221437, -0.72926462, -0.77719152, 0.02973301, -0.24872066, 100.26900482, 88.27654266, 29.22999954, 0.00000000
3, 0.4051, 49, 0.60602319, -0.86613566, 0.28807789, 49.69707489, -4.94293070, -113.01224518, 11.40017509, -31.80356598, -101.46156311, 113.50371552, 36.86826324, -74.89224243, 0.25215724, -0.73530489, 0.34475121, 0.52620351, -0.00789052, 0.13067129, 0.03023395, 100.38100433, 78.87828827, 31.62999916, 0.00000000
3, 0.4101, 50, 0.61784637, -0.84074157, 0.30516458, 49.90958023, -4.51770449, -113.63871002, 11.40017509, -31.80356598, -101.46156311, 113.90928650, 37.39656448, -74.63236237, 0.24788578, -0.73744303, 0.34229964, 0.52684104, -0.01235429, 0.11261690, 0.01609318, 100.38100433, 78.87828827, 31.62999916, 0.00000000
3, 0.4151, 51, 0.58458787, -0.78698617, 0.32025379, 49.89956665, -7.98834562, -114.20382690, 12.33557415, -30.25431061, -101.84156799, 114.31068420, 37.93408203, -74.38375092, 0.24353200, -0.73949385, 0.33985326, 0.52758020, 0.02830446, 0.06632572, 0.00378935, 100.38100433, 78.87828827, 31.62999916, 0.00000000
4, 0.4951, 46, -0.11741973, -0.95010024, -0.06990159, -22.83802223, -15.51472378, 25.75384712, 4.70622635, -45.19146347, -85.55977631, 96.86483002, 1.73547971, 175.42869568, 0.03778046, -0.01979501, -0.74789321, -0.66244751, 0.14822505, -0.04219754, 0.18988410, 100.31500244, 84.41569519, 31.09000015, 0.00000000
4, 0.5001, 47, -0.08671203, -0.96253592, -0.06747492, -23.49619102, -17.59423447, 26.28838921, 6.51856184, -46.03916931, -85.55977631, 96.74433136, 1.61538649, 175.32572937, 0.03761500, -0.02112267, -0.74716121, -0.66324145, 0.11542614, -0.03007269, 0.18538670, 100.31500244, 84.41569519, 31.09000015, 0.00000000
4, 0.5051, 48, -0.09459815, -0.97312325, -0.06847576, -25.79596138, -22.92029381, 26.86870575, 6.51856184, -46.03916931, -85.55977631, 96.61184692, 1.49528146, 175.19622803, 0.03760836, -0.02261954, -0.74635094, -0.66410416, 0.12121698, -0.01980680, 0.18415053, 100.31500244, 84.41569519, 31.09000015, 0.00000000
2, 0.4800, 54, 0.00000000, 0.00000000, 0.00000000, 0.00000000, 0.00000000, 0.00000000, 0.00000000, 0.00000000, 0.00000000, 0.00000000, 0.00000000, 0.00000000, 1.00000000, 0.00000000, 0.00000000, 0.00000000, 0.00000000, 0.00000000, 0.00000000, 0.00000000, 0.00000000, 0.00000000, 0.00000000
2, 0.4850, 55, 0.00000000, 0.00000000, 0.00000000, 0.00000000, 0.00000000, 0.00000000, 0.00000000, 0.00000000, 0.00000000, 0.00000000, 0.00000000, 0.00000000, 1.00000000, 0.00000000, 0.00000000, 0.00000000, 0.00000000, 0.00000000, 0.00000000, 0.00000000, 0.00000000, 0.00000000, 0.00000000
4, 0.5101, 49, -0.13384545, -0.96598065, -0.08470522, -26.62763214, -25.48244858, 27.36326408, 6.51856184, -46.03916931, -85.55977631, 96.47514343, 1.37387621, 175.05401611, 0.03767151, -0.02420530, -0.74550903, -0.66498965, 0.15835206, -0.02727434, 0.19803357, 100.31500244, 84.41569519, 31.09000015, 0.00000000
2, 0.4900, 56, 0.00000000, 0.00000000, 0.00000000, 0.00000000, 0.00000000, 0.00000000, 0.00000000, 0.00000000, 0.00000000, 0.00000000, 0.00000000, 0.00000000, 1.00000000, 0.00000000, 0.00000000, 0.00000000, 0.00000000, 0.00000000, 0.00000000, 0.00000000, 0.00000000, 0.00000000, 0.00000000
2, 0.4950, 57, 0.00000000, 0.00000000, 0.00000000, 0.00000000, 0.00000000, 0.00000000, 0.00000000, 0.00000000, 0.00000000, 0.00000000, 0.00000000, 0.00000000, 1.00000000, 0.00000000, 0.00000000, 0.00000000, 0.00000000, 0.00000000, 0.00000000, 0.00000000, 0.00000000, 0.00000000, 0.00000000
2, 0.5000, 58, 0.00000000, 0.00000000, 0.00000000, 0.00000000, 0.00000000, 0.00000000, 0.00000000, 0.00000000, 0.00000000, 0.00000000, 0.00000000, 0.00000000, 1.00000000, 0.00000000, 0.00000000, 0.00000000, 0.00000000, 0.00000000, 0.00000000, 0.00000000, 0.00000000, 0.00000000, 0.00000000
1, 0.4449, 54, 0.55682373, -0.94360352, -0.11938477, 9.49429989, -17.54156685, 42.60430908, -51.50540543, 4.64776373, -57.43934631, 69.29203033, -18.97574234, -139.36204529, -0.36964542, 0.06753972, -0.57292569, -0.72839338, -0.88106656, 0.05881701, -0.21530695, 100.26900482, 88.27654266, 29.22999954, 0.00000000
1, 0.4499, 55, 0.69244385, -0.96423340, -0.11511230, 10.85930061, -14.77656937, 38.92931366, -51.50540543, 4.64776373, -57.43934631, 69.34645081, -19.18393517, -139.36244202, -0.37048066, 0.06627197, -0.57362282, -0.72753632, -1.02020967, 0.08027790, -0.21834154, 100.26900482, 88.27654266, 29.22999954, 0.00000000
1, 0.4549, 56, 0.76184082, -0.99090576, -0.09088135, 13.83430195, -16.14156723, 35.32431030, -52.73311996, 4.06313944, -57.14703369, 69.42029572, -19.37766266, -139.37655640, -0.37115744, 0.06509901, -0.57442409, -0.72666448, -1.09284639, 0.10761541, -0.24113184, 100.26900482, 88.27654266, 29.22999954, 0.00000000
3, 0.4201, 52, 0.55487549, -0.69464272, 0.33568919, 49.32041550, -10.59863377, -114.43807220, 12.33557415, -30.25431061, -101.84156799, 114.70615387, 38.47669983, -74.14305115, 0.23914550, -0.74145991, 0.33740368, 0.52839899, 0.06546397, -0.01845777, -0.00910205, 100.38100433, 78.87828827, 31.62999916, 0.00000000
3, 0.4251, 53, 0.59775710, -0.61785311, 0.35418993, 48.68123627, -8.70039177, -114.23403931, 12.33557415, -30.25431061, -101.84156799, 115.11095428, 39.01305389, -73.88521576, 0.23480517, -0.74343807, 0.33491623, 0.52914792, 0.02992925, -0.08762453, -0.02509462, 100.38100433, 78.87828827, 31.62999916, 0.00000000
3, 0.4301, 54, 0.68681616, -0.56793141, 0.39841443, 47.47809601, -3.84186602, -113.53462219, 14.61560917, -29.81584358, -102.28003693, 115.53269196, 39.53439331, -73.59400940, 0.23058417, -0.74548423, 0.33236420, 0.52973419, -0.05201975, -0.12990206, -0.06666952, 100.38100433, 78.87828827, 31.62999916, 0.00000000
4, 0.5151, 50, -0.15139683, -0.97457021, -0.08099169, -25.77384377, -25.82976723, 27.61777878, 7.71704149, -45.19146347, -86.75825500, 96.34297943, 1.25106502, 174.91021729, 0.03773751, -0.02581073, -0.74468809, -0.66584492, 0.17376858, -0.01899586, 0.19201142, 100.31500244, 84.41569519, 31.09000015, 0.00000000
1, 0.3848, 29, -0.16234095, -1.04575384, 0.04958171, -6.98787022, -28.72779465, -84.27575684, -57.26395798, 11.92633724, -72.02572632, 103.89447021, 0.56857836, -68.63188171, -0.50689089, 0.65209830, -0.44139415, -0.35071456, 0.17022140, 0.07500301, 0.18858333, 100.34200287, 82.15006256, 29.21999931, 0.00000000
1, 0.3898, 30, -0.12925200, -1.05039752, 0.05739914, -7.82682371, -26.26993561, -81.01673889, -56.62086868, 11.75094986, -72.05495453, 103.84806824, 0.98898572, -68.66307831, -0.50541788, 0.65303266, -0.43955016, -0.35340744, 0.14456788, 0.07954179, 0.18010363, 100.34200287, 82.15006256, 29.21999931, 0.00000000
3, 0.4351, 55, 0.76901889, -0.53144217, 0.44748729, 45.81084824, 0.38988671, -112.34823608, 14.61560917, -29.81584358, -102.28003693, 115.96647644, 40.03949356, -73.27413940, 0.22649963, -0.74757302, 0.32976013, 0.53017998, -0.12738258, -0.15877208, -0.11297260, 100.38100433, 78.87828827, 31.62999916, 0.00000000
3, 0.4401, 56, 0.79566342, -0.50164318, 0.48483872, 44.85021973, -0.00822678, -111.04923248, 15.58023930, -29.58199310, -103.04004669, 116.39836121, 40.53779602, -72.95300293, 0.22246456, -0.74960369, 0.32717088, 0.53062516, -0.14736822, -0.18098195, -0.14760068, 100.38100433, 78.87828827, 31.62999916, 0.00000000
2, 0.5050, 59, 0.00000000, 0.00000000, 0.00000000, 0.00000000, 0.00000000, 0.00000000, 0.00000000, 0.00000000, 0.00000000, 0.00000000, 0.00000000, 0.00000000, 1.00000000, 0.00000000, 0.00000000, 0.00000000, 0.00000000, 0.00000000, 0.00000000, 0.00000000, 0.00000000, 0.00000000, 0.00000000
2, 0.5100, 60, 0.00000000, 0.00000000, 0.00000000, 0.00000000, 0.00000000, 0.00000000, 0.00000000, 0.00000000, 0.00000000, 0.00000000, 0.00000000, 0.00000000, 1.00000000, 0.00000000, 0.00000000, 0.00000000, 0.00000000, 0.00000000, 0.00000000, 0.00000000, 0.00000000, 0.00000000, 0.00000000
2, 0.5150, 61, 0.00000000, 0.00000000, 0.00000000, 0.00000000, 0.00000000, 0.00000000, 0.00000000, 0.00000000, 0.00000000, 0.00000000, 0.00000000, 0.00000000, 1.00000000, 0.00000000, 0.00000000, 0.00000000, 0.00000000, 0.00000000, 0.00000000, 0.00000000, 0.00000000, 0.00000000, 0.00000000
1, 0.4599, 57, 0.74853516, -1.01385498, -0.05548096, 16.91430092, -18.73156929, 33.81930923, -52.73311996, 4.06313944, -57.14703369, 69.51490784, -19.56886673, -139.40667725, -0.37171161, 0.06393129, -0.57535887, -0.72574484, -1.08268964, 0.13107978, -0.27474308, 100.26900482, 88.27654266, 29.22999954, 0.00000000
1, 0.4649, 58, 0.75286865, -1.06353760, -0.04016113, 17.40430069, -19.92156792, 32.03430939, -53.14235687, 4.99853849, -57.55627060, 69.61530304, -19.75373840, -139.44642639, -0.37217677, 0.06277841, -0.57632148, -0.72484267, -1.09009886, 0.18121558, -0.28814179, 100.26900482, 88.27654266, 29.22999954, 0.00000000
4, 0.5701, 51, 0.19967842, -0.88727999, 0.32991982, -25.51522636, -35.95367813, 26.51997375, 15.58023930, -44.78222656, -86.84594727, 94.86689758, -0.14589901, 173.13981628, 0.03953645, -0.04492479, -0.73512048, -0.67529005, -0.20172463, -0.10906515, -0.24452883, 100.31500244, 84.41569519, 31.09000015, 0.00000000
4, 0.5751, 52, 0.17669946, -0.87759620, 0.35912329, -24.35665703, -38.68560028, 24.90964508, 16.92487526, -44.60683823, -87.48903656, 94.74583435, -0.25380474, 172.93664551, 0.04009099, -0.04682155, -0.73428535, -0.67603666, -0.18066865, -0.11892404, -0.27586979, 100.31500244, 84.41569519, 31.09000015, 0.00000000
4, 0.5801, 53, 0.13887940, -0.87800950, 0.39110795, -23.00215149, -39.20112610, 22.77719498, 16.92487526, -44.60683823, -87.48903656, 94.63191223, -0.35128871, 172.73197937, 0.04072198, -0.04866731, -0.73348999, -0.67673171, -0.14459796, -0.11866862, -0.30986929, 100.31500244, 84.41569519, 31.09000015, 0.00000000
1, 0.4999, 59, -0.21520996, -1.18383789, 0.31445313, 2.03929734, -27.69157410, 39.59431458, -53.31774139, 5.43700647, -57.49780655, 70.24410248, -21.20884514, -140.10293579, -0.37381372, 0.05144346, -0.58291829, -0.71959931, -0.14564461, 0.30614847, -0.62980103, 100.26900482, 88.27654266, 29.22999954, 0.00000000
1, 0.5049, 60, -0.22894287, -1.22302246, 0.32910156, 1.37429714, -14.18156719, 34.06430817, -53.05466080, 5.64162540, -57.11780167, 70.25453949, -21.39310646, -140.11279297, -0.37451902, 0.05015408, -0.58326840, -0.71903974, -0.13513699, 0.34642425, -0.64377749, 100.26900482, 88.27654266, 29.22999954, 0.00000000
1, 0.4648, 31, 0.03244566, -1.12572706, 0.09570969, 4.88715839, 1.05587435, -18.69521332, -52.82081223, 7.89242887, -71.06109619, 103.75625610, 4.73662806, -69.10876465, -0.48955816, 0.66183197, -0.42481533, -0.37662068, 0.04952342, 0.15751323, 0.13940153, 100.34200287, 82.15006256, 29.21999931, 0.00000000
1, 0.4698, 32, 0.15777361, -1.12259233, 0.17019780, 0.15601559, 2.66116929, -11.76154613, -52.82081223, 7.89242887, -71.06109619, 103.75913239, 4.79064274, -69.08184052, -0.48941004, 0.66209626, -0.42442104, -0.37679332, -0.07486146, 0.15439391, 0.06539801, 100.34200287, 82.15006256, 29.21999931, 0.00000000
4, 0.5851, 54, 0.09201940, -0.88131005, 0.40706405, -21.55079842, -38.43215942, 20.14263344, 16.92487526, -44.60683823, -87.48903656, 94.54229736, -0.43208623, 172.53120422, 0.04142972, -0.05039689, -0.73284125, -0.67726475, -0.09924085, -0.11549851, -0.32756436, 100.31500244, 84.41569519, 31.09000015, 0.00000000
4, 0.5901, 55, 0.04442777, -0.89467168, 0.42392391, -19.81978226, -37.10691452, 17.26793098, 18.44489861, -44.31452560, -87.60596466, 94.44476318, -0.50362498, 172.33946228, 0.04214947, -0.05200968, -0.73214900, -0.67784673, -0.05292104, -0.10225232, -0.34601218, 100.31500244, 84.41569519, 31.09000015, 0.00000000
4, 0.5951, 56, 0.00203241, -0.90695608, 0.42500365, -19.05253601, -35.02519608, 14.42774296, 18.44489861, -44.31452560, -87.60596466, 94.35118103, -0.56211966, 172.15931702, 0.04288485, -0.05347138, -0.73148715, -0.67840129, -0.01160119, -0.09008476, -0.34873027, 100.31500244, 84.41569519, 31.09000015, 0.00000000
4, 0.6001, 57, -0.03775518, -0.91130477, 0.41179428, -18.75686646, -31.67354202, 11.93496418, 18.44489861, -44.31452560, -87.60596466, 94.25906372, -0.60973585, 171.99690247, 0.04358621, -0.05475470, -0.73084384, -0.67894739, 0.02731044, -0.08584966, -0.33713639, 100.31500244, 84.41569519, 31.09000015, 0.00000000
3, 0.4701, 57, 0.75885671, -0.44200492, 0.58273494, 36.76180267, -5.89572573, -101.48867798, 18.50336075, -26.83425903, -103.18620300, 118.77466583, 43.44446182, -71.23275757, 0.19908100, -0.75971019, 0.31238779, 0.53443533, -0.07266670, -0.19617848, -0.23365080, 100.38100433, 78.87828827, 31.62999916, 0.00000000
3, 0.4751, 58, 0.73252392, -0.46792361, 0.56939244, 35.97353745, -8.38940525, -100.63568878, 18.50336075, -26.83425903, -103.18620300, 119.15213013, 43.90502548, -70.94660950, 0.19542529, -0.76119041, 0.30996019, 0.53509140, -0.04050872, -0.16309667, -0.21878870, 100.38100433, 78.87828827, 31.62999916, 0.00000000
2, 0.5200, 62, 0.00000000, 0.00000000, 0.00000000, 0.00000000, 0.00000000, 0.00000000, 0.00000000, 0.00000000, 0.00000000, 0.00000000, 0.00000000, 0.00000000, 1.00000000, 0.00000000, 0.00000000, 0.00000000, 0.00000000, 0.00000000, 0.00000000, 0.00000000, 0.00000000, 0.00000000, 0.00000000
2, 0.5250, 63, 0.00000000, 0.00000000, 0.00000000, 0.00000000, 0.00000000, 0.00000000, 0.00000000, 0.00000000, 0.00000000, 0.00000000, 0.00000000, 0.00000000, 1.00000000, 0.00000000, 0.00000000, 0.00000000, 0.00000000, 0.00000000, 0.00000000, 0.00000000, 0.00000000, 0.00000000, 0.00000000
2, 0.5300, 64, 0.00000000, 0.00000000, 0.00000000, 0.00000000, 0.00000000, 0.00000000, 0.00000000, 0.00000000, 0.00000000, 0.00000000, 0.00000000, 0.00000000, 1.00000000, 0.00000000, 0.00000000, 0.00000000, 0.00000000, 0.00000000, 0.00000000, 0.00000000, 0.00000000, 0.00000000, 0.00000000
1, 0.4748, 33, 0.28392807, -0.99715590, 0.20537245, -7.14714098, -0.38575020, 9.67568111, -52.82081223, 8.68167210, -70.88570404, 103.72239685, 4.74398518, -69.09519958, -0.48976836, 0.66175836, -0.42459190, -0.37672883, -0.20153531, 0.02874370, 0.03025551, 100.34200287, 82.15006256, 29.21999931, 0.00000000
1, 0.4798, 34, 0.15152830, -0.91931391, 0.14441746, -6.94918299, -40.67652130, 34.16069794, -52.82081223, 8.68167210, -70.88570404, 103.66859436, 4.62572145, -69.33383942, -0.48977560, 0.66030782, -0.42633465, -0.37729597, -0.07066324, -0.04933869, 0.09019607, 100.34200287, 82.15006256, 29.21999931, 0.00000000
1, 0.4848, 35, 0.01591224, -0.88004887, 0.13288550, -0.80384582, -51.14136505, 50.16735077, -52.82081223, 8.68167210, -70.88570404, 103.64080811, 4.44180727, -69.64220428, -0.48967046, 0.65851462, -0.42886043, -0.37770391, 0.06207774, -0.08896021, 0.10089423, 100.34200287, 82.15006256, 29.21999931, 0.00000000
1, 0.5099, 61, -0.07312012, -1.30438232, 0.31994629, 1.79429734, 4.78843832, 24.85930443, -53.05466080, 5.64162540, -57.11780167, 70.23814392, -21.50199890, -140.04345703, -0.37541664, 0.04970086, -0.58330041, -0.71857697, -0.29306215, 0.42860615, -0.63447243, 100.26900482, 88.27654266, 29.22999954, 0.00000000
1, 0.5149, 62, 0.28796387, -1.37719727, 0.22741699, 0.32429671, 26.17344666, 13.93930244, -52.93773651, 5.81701231, -57.58549881, 70.18191528, -21.52326965, -139.88574219, -0.37651879, 0.05017195, -0.58291149, -0.71828306, -0.65484059, 0.50193548, -0.54256451, 100.26900482, 88.27654266, 29.22999954, 0.00000000
1, 0.5199, 63, 0.71362305, -1.42926025, 0.10479736, 0.70929694, 41.32844925, 4.13929939, -52.93773651, 5.81701231, -57.58549881, 70.10612488, -21.47254562, -139.66929626, -0.37769753, 0.05137348, -0.58226275, -0.71810544, -1.07994676, 0.55419403, -0.42112917, 100.26900482, 88.27654266, 29.22999954, 0.00000000
4, 0.6051, 58, -0.06719258, -0.91515565, 0.42007324, -18.07700157, -27.63957596, 9.96987915, 19.76030350, -44.28529739, -86.49517822, 94.17024231, -0.64929044, 171.85540771, 0.04421541, -0.05585699, -0.73023117, -0.67947596, 0.05602463, -0.08210603, -0.34696972, 100.31500244, 84.41569519, 31.09000015, 0.00000000
3, 0.4801, 59, 0.66552329, -0.48589513, 0.55929589, 34.04018021, -11.77716160, -99.39637756, 19.40952873, -25.63577843, -103.88774872, 119.50875092, 44.36712646, -70.67893982, 0.19181268, -0.76254189, 0.30755088, 0.53586400, 0.03228652, -0.13802060, -0.20746462, 100.38100433, 78.87828827, 31.62999916, 0.00000000
3, 0.4851, 60, 0.60705113, -0.49284977, 0.58893222, 31.86384964, -11.33297729, -98.24912262, 19.40952873, -25.63577843, -103.88774872, 119.85939789, 44.82196426, -70.40642548, 0.18830124, -0.76385427, 0.30511865, 0.53663015, 0.09645122, -0.12403768, -0.23604524, 100.38100433, 78.87828827, 31.62999916, 0.00000000
3, 0.4901, 61, 0.61264598, -0.49923322, 0.62701005, 29.90454674, -8.91747856, -97.46548462, 20.52031517, -25.46039200, -104.67699432, 120.21458435, 45.26615524, -70.11581421, 0.18490177, -0.76518106, 0.30264068, 0.53732461, 0.09638211, -0.11069674, -0.27308953, 100.38100433, 78.87828827, 31.62999916, 0.00000000
2, 0.5400, 65, 0.00000000, 0.00000000, 0.00000000, 0.00000000, 0.00000000, 0.00000000, 0.00000000, 0.00000000, 0.00000000, 0.00000000, 0.00000000, 0.00000000, 1.00000000, 0.00000000, 0.00000000, 0.00000000, 0.00000000, 0.00000000, 0.00000000, 0.00000000, 0.00000000, 0.00000000, 0.00000000
2, 0.5450, 66, 0.00000000, 0.00000000, 0.00000000, 0.00000000, 0.00000000, 0.00000000, 0.00000000, 0.00000000, 0.00000000, 0.00000000, 0.00000000, 0.00000000, 1.00000000, 0.00000000, 0.00000000, 0.00000000, 0.00000000, 0.00000000, 0.00000000, 0.00000000, 0.00000000, 0.00000000, 0.00000000
2, 0.5500, 67, 0.00000000, 0.00000000, 0.00000000, 0.00000000, 0.00000000, 0.00000000, 0.00000000, 0.00000000, 0.00000000, 0.00000000, 0.00000000, 0.00000000, 1.00000000, 0.00000000, 0.00000000, 0.00000000, 0.00000000, 0.00000000, 0.00000000, 0.00000000, 0.00000000, 0.00000000, 0.00000000
1, 0.5249, 64, 1.07098389, -1.49029541, 0.04132080, 3.43929791, 48.22345352, -3.94570398, -52.93773651, 5.81701231, -57.58549881, 70.03701782, -21.37181282, -139.43299866, -0.37879050, 0.05304127, -0.58156556, -0.71797347, -1.43584991, 0.61508787, -0.35894355, 100.26900482, 88.27654266, 29.22999954, 0.00000000
1, 0.5299, 65, 1.26501465, -1.51892090, 0.08312988, 4.38429785, 48.18845749, -8.84570599, -53.84390640, 4.44314528, -57.52703857, 69.97650146, -21.24786186, -139.20622253, -0.37972513, 0.05484769, -0.58088458, -0.71789527, -1.62792206, 0.64333874, -0.40196171, 100.26900482, 88.27654266, 29.22999954, 0.00000000
1, 0.5349, 66, 1.14392090, -1.46063232, 0.22064209, -2.65070438, 37.16344833, -4.71570444, -53.84390640, 4.44314528, -57.52703857, 69.89867401, -21.16197586, -139.02767944, -0.38052517, 0.05608732, -0.58017379, -0.71795064, -1.50522590, 0.58486706, -0.54078859, 100.26900482, 88.27654266, 29.22999954, 0.00000000
1, 0.4898, 36, 0.01419504, -0.87250102, 0.25453299, 9.37022972, -50.66566086, 66.03297424, -52.96696854, 9.09090900, -70.50569916, 103.66664124, 4.17912531, -69.96655273, -0.48952743, 0.65665215, -0.43200666, -0.37754619, 0.05928282, -0.09697458, -0.02048332, 100.34200287, 82.15006256, 29.21999931, 0.00000000
1, 0.4948, 37, 0.07851690, -0.98236203, 0.43559885, 16.91711044, -52.89274979, 84.74190521, -52.96696854, 9.09090900, -70.50569916, 103.72729492, 3.82969952, -70.32408142, -0.48943430, 0.65454423, -0.43584076, -0.37692022, -0.01119192, 0.01242128, -0.20054016, 100.34200287, 82.15006256, 29.21999931, 0.00000000
1, 0.4998, 38, 0.08641033, -1.13316178, 0.44637597, 14.34712982, -56.74253082, 103.57598877, -52.90850449, 9.61707115, -70.73954773, 103.77519226, 3.39362788, -70.72283936, -0.48963907, 0.65194595, -0.44024310, -0.37604022, -0.02634383, 0.16297090, -0.21051997, 100.34200287, 82.15006256, 29.21999931, 0.00000000
2, 0.5550, 68, 0.00000000, 0.00000000, 0.00000000, 0.00000000, 0.00000000, 0.00000000, 0.00000000, 0.00000000, 0.00000000, 0.00000000, 0.00000000, 0.00000000, 1.00000000, 0.00000000, 0.00000000, 0.00000000, 0.00000000, 0.00000000, 0.00000000, 0.00000000, 0.00000000, 0.00000000, 0.00000000
2, 0.5600, 69, 0.00000000, 0.00000000, 0.00000000, 0.00000000, 0.00000000, 0.00000000, 0.00000000, 0.00000000, 0.00000000, 0.00000000, 0.00000000, 0.00000000, 1.00000000, 0.00000000, 0.00000000, 0.00000000, 0.00000000, 0.00000000, 0.00000000, 0.00000000, 0.00000000, 0.00000000, 0.00000000
2, 0.5650, 70, 0.00000000, 0.00000000, 0.00000000, 0.00000000, 0.00000000, 0.00000000, 0.00000000, 0.00000000, 0.00000000, 0.00000000, 0.00000000, 0.00000000, 1.00000000, 0.00000000, 0.00000000, 0.00000000, 0.00000000, 0.00000000, 0.00000000, 0.00000000, 0.00000000, 0.00000000, 0.00000000
3, 0.4951, 62, 0.67429066, -0.51322526, 0.64929998, 27.87664986, -5.43562174, -96.52871704, 20.52031517, -25.46039200, -104.67699432, 120.57848358, 45.69621658, -69.80094147, 0.18163437, -0.76654601, 0.30011243, 0.53791159, 0.04005144, -0.08981805, -0.29426542, 100.38100433, 78.87828827, 31.62999916, 0.00000000
3, 0.5001, 63, 0.75733477, -0.53196579, 0.65730923, 25.63058662, -3.57208538, -95.60868073, 20.52031517, -25.46039200, -104.67699432, 120.94314575, 46.11613846, -69.47162628, 0.17848463, -0.76791000, 0.29754165, 0.53844810, -0.03785513, -0.06426801, -0.30114955, 100.38100433, 78.87828827, 31.62999916, 0.00000000
3, 0.5051, 64, 0.81397969, -0.56165224, 0.65336174, 23.95520020, -2.81922746, -94.60301208, 22.33265114, -23.99883080, -105.14469147, 121.30635834, 46.52835464, -69.13504791, 0.17542116, -0.76925170, 0.29495394, 0.53896344, -0.08950048, -0.02784634, -0.29612672, 100.38100433, 78.87828827, 31.62999916, 0.00000000
4, 0.6501, 59, -0.15449102, -1.17352295, 0.28866962, -13.80959034, 12.19195080, 4.67275429, 23.88190651, -44.66530228, -84.06898499, 93.54903412, -0.92766839, 171.69033813, 0.04373574, -0.05832149, -0.72632343, -0.68347657, 0.13841879, 0.17558919, -0.22646475, 100.31500244, 84.41569519, 31.09000015, 0.00000000
4, 0.6551, 60, -0.16403201, -1.22484624, 0.21344186, -14.64451027, 14.60515785, 4.66495419, 25.37269783, -43.64220810, -83.07512665, 93.47463989, -0.95542234, 171.76181030, 0.04317100, -0.05800579, -0.72590238, -0.68398643, 0.14748065, 0.22684175, -0.15250883, 100.31500244, 84.41569519, 31.09000015, 0.00000000
2, 0.5700, 71, 0.00000000, 0.00000000, 0.00000000, 0.00000000, 0.00000000, 0.00000000, 0.00000000, 0.00000000, 0.00000000, 0.00000000, 0.00000000, 0.00000000, 1.00000000, 0.00000000, 0.00000000, 0.00000000, 0.00000000, 0.00000000, 0.00000000, 0.00000000, 0.00000000, 0.00000000, 0.00000000
2, 0.5750, 72, 0.00000000, 0.00000000, 0.00000000, 0.00000000, 0.00000000, 0.00000000, 0.00000000, 0.00000000, 0.00000000, 0.00000000, 0.00000000, 0.00000000, 1.00000000, 0.00000000, 0.00000000, 0.00000000, 0.00000000, 0.00000000, 0.00000000, 0.00000000, 0.00000000, 0.00000000, 0.00000000
2, 0.5800, 73, 0.00000000, 0.00000000, 0.00000000, 0.00000000, 0.00000000, 0.00000000, 0.00000000, 0.00000000, 0.00000000, 0.00000000, 0.00000000, 0.00000000, 1.00000000, 0.00000000, 0.00000000, 0.00000000, 0.00000000, 0.00000000, 0.00000000, 0.00000000, 0.00000000, 0.00000000, 0.00000000
1, 0.5399, 67, 0.90362549, -1.35858154, 0.29345703, -10.14070702, 25.01844597, 4.48929930, -54.39929962, 5.72931862, -57.67319489, 69.79956055, -21.13995934, -138.89346313, -0.38132372, 0.05658900, -0.57945138, -0.71807104, -1.26428509, 0.48310888, -0.61512780, 100.26900482, 88.27654266, 29.22999954, 0.00000000
1, 0.5449, 68, 0.56695557, -1.25891113, 0.28564453, -17.66571045, 10.24843979, 15.02430248, -54.39929962, 5.72931862, -57.67319489, 69.68254852, -21.19269371, -138.81401062, -0.38209698, 0.05623627, -0.57876414, -0.71824193, -0.92817426, 0.38427684, -0.60896420, 100.26900482, 88.27654266, 29.22999954, 0.00000000
3, 0.5101, 65, 0.83059686, -0.59726995, 0.64292216, 22.34470749, -5.34358072, -93.56672668, 22.33265114, -23.99883080, -105.14469147, 121.66050720, 46.94009018, -68.80697632, 0.17238224, -0.77051783, 0.29238352, 0.53953552, -0.10118578, 0.01444814, -0.28476879, 100.38100433, 78.87828827, 31.62999916, 0.00000000
3, 0.5151, 66, 0.82085955, -0.63686097, 0.62506062, 21.34007263, -9.98544788, -92.14247894, 22.33265114, -23.99883080, -105.14469147, 121.98333740, 47.35788345, -68.51214600, 0.16936679, -0.77161217, 0.28986052, 0.54028738, -0.08650174, 0.06063792, -0.26633874, 100.38100433, 78.87828827, 31.62999916, 0.00000000
1, 0.5048, 39, -0.00792892, -1.15666699, 0.24059576, 9.93638039, -59.66939545, 116.63681793, -52.90850449, 9.61707115, -70.73954773, 103.80279541, 2.89778924, -71.15138245, -0.49011260, 0.64893591, -0.44499418, -0.37503618, 0.06008496, 0.18647474, -0.00437869, 100.34200287, 82.15006256, 29.21999931, 0.00000000
1, 0.5098, 40, -0.09188038, -1.05087590, 0.11242398, 16.63087082, -56.75148773, 119.39026642, -52.90850449, 9.61707115, -70.73954773, 103.86815643, 2.38551545, -71.56916046, -0.49048170, 0.64604241, -0.44985479, -0.37374803, 0.13544156, 0.08068856, 0.12472645, 100.34200287, 82.15006256, 29.21999931, 0.00000000
4, 0.6601, 61, -0.17993344, -1.27343929, 0.13427918, -15.86572838, 16.45851898, 5.10891581, 25.37269783, -43.64220810, -83.07512665, 93.39395905, -0.98584998, 171.84242249, 0.04253735, -0.05764649, -0.72544658, -0.68453979, 0.16286595, 0.27536044, -0.07472336, 100.31500244, 84.41569519, 31.09000015, 0.00000000
4, 0.6651, 62, -0.21791089, -1.31397712, 0.05282311, -17.85688400, 16.92349243, 5.99774837, 25.69424057, -42.82373428, -80.99971008, 93.30322266, -1.02073109, 171.92517090, 0.04186740, -0.05729768, -0.72492915, -0.68515831, 0.20025676, 0.31581789, 0.00519363, 100.31500244, 84.41569519, 31.09000015, 0.00000000
4, 0.6701, 63, -0.26457974, -1.34625864, -0.02725122, -20.66826248, 17.90000916, 7.15783024, 25.69424057, -42.82373428, -80.99971008, 93.19828796, -1.06153858, 172.01251221, 0.04113885, -0.05695116, -0.72432548, -0.68586940, 0.24623913, 0.34801075, 0.08350659, 100.31500244, 84.41569519, 31.09000015, 0.00000000
1, 0.5699, 69, 0.09460449, -1.20928955, 0.11059570, -10.03570747, 14.90344238, 10.40430069, -54.54545212, 5.52470016, -58.08243179, 69.11466217, -21.59453964, -138.62107849, -0.38522378, 0.05252519, -0.57576251, -0.71926439, -0.46263850, 0.34046978, -0.44181037, 100.26900482, 88.27654266, 29.22999954, 0.00000000
1, 0.5749, 70, 0.29382324, -1.48016357, 0.11547852, 0.74429679, 29.18344879, 5.01429939, -54.54545212, 5.52470016, -58.08243179, 69.06092072, -21.56587029, -138.46485901, -0.38611224, 0.05332759, -0.57530636, -0.71909404, -0.66154706, 0.61156905, -0.44762695, 100.26900482, 88.27654266, 29.22999954, 0.00000000
1, 0.5799, 71, 0.51269531, -1.83813477, 0.00970459, 3.12429786, 35.83345032, 0.74429786, -53.96083069, 5.84624386, -58.46243668, 69.00999451, -21.50523949, -138.28358459, -0.38702729, 0.05448578, -0.57480162, -0.71891880, -0.87955844, 0.96951157, -0.34272873, 100.26900482, 88.27654266, 29.22999954, 0.00000000
1, 0.5849, 72, 0.79132080, -2.13684082, -0.11901855, 0.70929688, 38.87845230, -4.22570372, -53.96083069, 5.84624386, -58.46243668, 68.94517517, -21.41578293, -138.09674072, -0.38786760, 0.05582319, -0.57415640, -0.71887892, -1.15684247, 1.26808214, -0.21512491, 100.26900482, 88.27654266, 29.22999954, 0.00000000
1, 0.5899, 73, 1.09936523, -2.28662109, -0.14807129, -2.37070394, 36.32345200, -6.81570482, -55.21777344, 5.87547493, -58.63782501, 68.87182617, -21.31863022, -137.92797852, -0.38856903, 0.05709308, -0.57344997, -0.71896428, -1.46330404, 1.41770267, -0.18738239, 100.26900482, 88.27654266, 29.22999954, 0.00000000
3, 0.5451, 67, 0.86865807, -1.19748807, 0.50196809, 22.64166260, -22.16613007, -84.29533386, 25.72347260, -20.02338409, -106.75241089, 123.77327728, 49.81021881, -66.95737457, 0.15159701, -0.77673233, 0.27578336, 0.54557204, -0.10591570, 0.65949047, -0.14311077, 100.38100433, 78.87828827, 31.62999916, 0.00000000
3, 0.5501, 68, 0.83740199, -1.33567214, 0.49325907, 23.95955276, -26.22301674, -83.83301544, 25.72347260, -20.02338409, -106.75241089, 124.04218292, 50.23125076, -66.76277161, 0.14847267, -0.77726924, 0.27368370, 0.54672259, -0.06995302, 0.80401552, -0.13498597, 100.38100433, 78.87828827, 31.62999916, 0.00000000
2, 0.5850, 74, 0.00000000, 0.00000000, 0.00000000, 0.00000000, 0.00000000, 0.00000000, 0.00000000, 0.00000000, 0.00000000, 0.00000000, 0.00000000, 0.00000000, 1.00000000, 0.00000000, 0.00000000, 0.00000000, 0.00000000, 0.00000000, 0.00000000, 0.00000000, 0.00000000, 0.00000000, 0.00000000
3, 0.5551, 69, 0.79064131, -1.47697759, 0.48625654, 24.63945389, -28.63048553, -82.82006073, 26.24963379, -17.88950539, -107.36626434, 124.30358124, 50.65424347, -66.58351135, 0.14531827, -0.77772880, 0.27164599, 0.54793155, -0.01847619, 0.95167226, -0.12874921, 100.38100433, 78.87828827, 31.62999916, 0.00000000
3, 0.5601, 70, 0.79073882, -1.61366212, 0.51080221, 25.04650116, -27.51000023, -80.57411957, 26.24963379, -17.88950539, -107.36626434, 124.56665802, 51.06164169, -66.40434265, 0.14223748, -0.77817309, 0.26969671, 0.54907095, -0.01401218, 1.09460533, -0.15404963, 100.38100433, 78.87828827, 31.62999916, 0.00000000
3, 0.5651, 71, 0.84384382, -1.66611981, 0.54762119, 24.44923019, -25.32582664, -79.24860382, 26.24963379, -17.88950539, -107.36626434, 124.84033966, 51.45949936, -66.21020508, 0.13920963, -0.77864516, 0.26774698, 0.55013108, -0.06274376, 1.15320873, -0.19152936, 100.38100433, 78.87828827, 31.62999916, 0.00000000
1, 0.5598, 41, 0.29025769, -1.61540937, 0.30318063, 27.39516068, 55.20678711, 76.21379089, -54.86699677, 11.89710617, -69.74568939, 104.96474457, -0.92055124, -71.99040222, -0.49645489, 0.63882780, -0.47010046, -0.35275656, -0.30517480, 0.64878261, -0.04743741, 100.34200287, 82.15006256, 29.21999931, 0.00000000
1, 0.5648, 42, 0.52557838, -1.64448297, 0.22565322, 9.89220047, 23.15008926, 76.19828796, -55.13007736, 11.25401878, -70.21338654, 105.01495361, -1.31837046, -71.97650146, -0.49781957, 0.63783896, -0.47187129, -0.35024959, -0.54749227, 0.67845237, 0.03188896, 100.34200287, 82.15006256, 29.21999931, 0.00000000
2, 0.5900, 75, 0.00000000, 0.00000000, 0.00000000, 0.00000000, 0.00000000, 0.00000000, 0.00000000, 0.00000000, 0.00000000, 0.00000000, 0.00000000, 0.00000000, 1.00000000, 0.00000000, 0.00000000, 0.00000000, 0.00000000, 0.00000000, 0.00000000, 0.00000000, 0.00000000, 0.00000000, 0.00000000
2, 0.5950, 76, 0.00000000, 0.00000000, 0.00000000, 0.00000000, 0.00000000, 0.00000000, 0.00000000, 0.00000000, 0.00000000, 0.00000000, 0.00000000, 0.00000000, 1.00000000, 0.00000000, 0.00000000, 0.00000000, 0.00000000, 0.00000000, 0.00000000, 0.00000000, 0.00000000, 0.00000000, 0.00000000
4, 0.6751, 64, -0.34122583, -1.38981640, -0.09499691, -22.97434616, 17.61851692, 9.40085888, 25.69424057, -42.82373428, -80.99971008, 93.08180237, -1.11329961, 172.09790039, 0.04035772, -0.05667973, -0.72364557, -0.68665552, 0.32203853, 0.39147481, 0.14927244, 100.31500244, 84.41569519, 31.09000015, 0.00000000
4, 0.6801, 65, -0.38447726, -1.40201974, -0.16059040, -26.63946152, 18.63387299, 12.35983944, 27.27272606, -42.94065857, -78.86582947, 92.94680023, -1.17991340, 172.18772888, 0.03946487, -0.05646472, -0.72284883, -0.68756372, 0.36419070, 0.40357906, 0.21259286, 100.31500244, 84.41569519, 31.09000015, 0.00000000
4, 0.6851, 66, -0.38226897, -1.43582571, -0.19464506, -29.26844025, 18.68269157, 15.48831177, 27.27272606, -42.94065857, -78.86582947, 92.79536438, -1.26624620, 172.27731323, 0.03845638, -0.05636594, -0.72194260, -0.68858033, 0.36058307, 0.43728450, 0.24408859, 100.31500244, 84.41569519, 31.09000015, 0.00000000
1, 0.5949, 74, 1.27331543, -2.23474121, -0.07360840, -7.41070652, 25.12344551, -4.96070385, -55.21777344, 5.87547493, -58.63782501, 68.79262543, -21.25014114, -137.81185913, -0.38906026, 0.05787963, -0.57277876, -0.71917075, -1.63598919, 1.36581874, -0.26320207, 100.26900482, 88.27654266, 29.22999954, 0.00000000
1, 0.5999, 75, 1.06561279, -1.82940674, 0.06231689, -14.97070789, 7.23843908, -0.23570250, -55.21777344, 5.87547493, -58.63782501, 68.70481873, -21.23593140, -137.77612305, -0.38927153, 0.05785848, -0.57218540, -0.71953046, -1.42781949, 0.96081769, -0.40048745, 100.26900482, 88.27654266, 29.22999954, 0.00000000
1, 0.6049, 76, 0.67785645, -1.39526367, 0.15270996, -21.93571281, -6.20156527, 5.99429941, -54.80853653, 3.56620860, -59.48553085, 68.60214233, -21.27513123, -137.79541016, -0.38935998, 0.05714151, -0.57161689, -0.71999151, -1.04054368, 0.52743781, -0.49232173, 100.26900482, 88.27654266, 29.22999954, 0.00000000
1, 0.5698, 43, 0.81461900, -1.40275156, -0.07047768, -9.27713013, -10.34715176, 71.71803284, -55.13007736, 11.25401878, -70.21338654, 104.97319794, -1.65169215, -72.11879730, -0.49895585, 0.63600451, -0.47394925, -0.34916106, -0.84186786, 0.43724191, 0.32869431, 100.34200287, 82.15006256, 29.21999931, 0.00000000
1, 0.5748, 44, 0.88197476, -1.20078588, -0.28429317, -12.13569164, -26.85314178, 71.95689392, -56.18240356, 12.59865570, -69.86260986, 104.92043304, -1.96519232, -72.34094238, -0.49982929, 0.63384366, -0.47634536, -0.34857994, -0.91419399, 0.23554569, 0.54206049, 100.34200287, 82.15006256, 29.21999931, 0.00000000
1, 0.5798, 45, 0.68947613, -1.12463009, -0.18252657, -5.64119148, -25.36574745, 73.27670288, -56.18240356, 12.59865570, -69.86260986, 104.90116119, -2.28704405, -72.55738831, -0.50056827, 0.63181287, -0.47883826, -0.34779018, -0.72750998, 0.15927988, 0.43938112, 100.34200287, 82.15006256, 29.21999931, 0.00000000
3, 0.5701, 72, 0.96364915, -1.69487274, 0.59165633, 23.77067184, -26.71731758, -78.38380432, 27.12657166, -16.22332573, -107.89242554, 125.10478973, 51.85722351, -66.02454376, 0.13620748, -0.77905834, 0.26581481, 0.55123335, -0.17825705, 1.18806982, -0.23626003, 100.38100433, 78.87828827, 31.62999916, 0.00000000
3, 0.5751, 73, 1.04730570, -1.66319132, 0.60378462, 23.90664291, -32.88130569, -77.23448181, 27.12657166, -16.22332573, -107.89242554, 125.33774567, 52.26751328, -65.88073730, 0.13315490, -0.77929974, 0.26395783, 0.55252886, -0.25753540, 1.16245770, -0.24948974, 100.38100433, 78.87828827, 31.62999916, 0.00000000
3, 0.5801, 74, 1.10177732, -1.62248600, 0.59488004, 24.22504425, -38.85358810, -75.45567322, 27.47734642, -14.61560917, -108.56474304, 125.53759766, 52.68754196, -65.78144836, 0.13006364, -0.77936697, 0.26219976, 0.55400527, -0.30755424, 1.12774909, -0.24211723, 100.38100433, 78.87828827, 31.62999916, 0.00000000
4, 0.6901, 67, -0.46368033, -1.51362979, -0.23057720, -31.40991592, 15.38528061, 18.68480492, 28.03273773, -42.94065857, -76.52732849, 92.63665771, -1.36321437, 172.34976196, 0.03748751, -0.05643951, -0.72097772, -0.68963790, 0.44033006, 0.51499343, 0.27726513, 100.31500244, 84.41569519, 31.09000015, 0.00000000
4, 0.6951, 68, -0.55837041, -1.60328221, -0.25600272, -33.60075760, 13.76983452, 22.40166283, 28.03273773, -42.94065857, -76.52732849, 92.46707153, -1.47817814, 172.41357422, 0.03646290, -0.05667482, -0.71993279, -0.69076431, 0.53309691, 0.60456133, 0.29978210, 100.31500244, 84.41569519, 31.09000015, 0.00000000
2, 0.6100, 77, 0.00000000, 0.00000000, 0.00000000, 0.00000000, 0.00000000, 0.00000000, 0.00000000, 0.00000000, 0.00000000, 0.00000000, 0.00000000, 0.00000000, 1.00000000, 0.00000000, 0.00000000, 0.00000000, 0.00000000, 0.00000000, 0.00000000, 0.00000000, 0.00000000, 0.00000000, 0.00000000
2, 0.6150, 78, 0.00000000, 0.00000000, 0.00000000, 0.00000000, 0.00000000, 0.00000000, 0.00000000, 0.00000000, 0.00000000, 0.00000000, 0.00000000, 0.00000000, 1.00000000, 0.00000000, 0.00000000, 0.00000000, 0.00000000, 0.00000000, 0.00000000, 0.00000000, 0.00000000, 0.00000000, 0.00000000
2, 0.6200, 79, 0.00000000, 0.00000000, 0.00000000, 0.00000000, 0.00000000, 0.00000000, 0.00000000, 0.00000000, 0.00000000, 0.00000000, 0.00000000, 0.00000000, 1.00000000, 0.00000000, 0.00000000, 0.00000000, 0.00000000, 0.00000000, 0.00000000, 0.00000000, 0.00000000, 0.00000000, 0.00000000
1, 0.6099, 77, 0.10473633, -0.94238281, 0.29925537, -21.93571281, -31.57657242, 8.79430008, -54.80853653, 3.56620860, -59.48553085, 68.54357147, -21.37375069, -137.93594360, -0.38890284, 0.05555739, -0.57148540, -0.72046685, -0.46876150, 0.07546610, -0.63975632, 100.26900482, 88.27654266, 29.22999954, 0.00000000
1, 0.6149, 78, -0.31878662, -0.70471191, 0.43682861, -19.73071098, -39.97657394, 8.51430035, -55.65623856, 5.58316278, -60.09938431, 68.51181030, -21.48653793, -138.11903381, -0.38822079, 0.05375342, -0.57156301, -0.72090983, -0.04703134, -0.16132012, -0.77765942, 100.26900482, 88.27654266, 29.22999954, 0.00000000
2, 0.6250, 80, 0.00000000, 0.00000000, 0.00000000, 0.00000000, 0.00000000, 0.00000000, 0.00000000, 0.00000000, 0.00000000, 0.00000000, 0.00000000, 0.00000000, 1.00000000, 0.00000000, 0.00000000, 0.00000000, 0.00000000, 0.00000000, 0.00000000, 0.00000000, 0.00000000, 0.00000000, 0.00000000
2, 0.6300, 81, 0.00000000, 0.00000000, 0.00000000, 0.00000000, 0.00000000, 0.00000000, 0.00000000, 0.00000000, 0.00000000, 0.00000000, 0.00000000, 0.00000000, 1.00000000, 0.00000000, 0.00000000, 0.00000000, 0.00000000, 0.00000000, 0.00000000, 0.00000000, 0.00000000, 0.00000000, 0.00000000
2, 0.6350, 82, 0.00000000, 0.00000000, 0.00000000, 0.00000000, 0.00000000, 0.00000000, 0.00000000, 0.00000000, 0.00000000, 0.00000000, 0.00000000, 0.00000000, 1.00000000, 0.00000000, 0.00000000, 0.00000000, 0.00000000, 0.00000000, 0.00000000, 0.00000000, 0.00000000, 0.00000000, 0.00000000
4, 0.7201, 69, -0.49432242, -2.03908587, -0.25064483, -39.87703705, 24.34399414, 40.07440186, 29.78661156, -42.26834106, -72.17187500, 91.51844025, -2.34325004, 172.86912537, 0.02875831, -0.05878173, -0.71399069, -0.69709039, 0.45433635, 1.04026186, 0.27802688, 100.31500244, 84.41569519, 31.09000015, 0.00000000
4, 0.7251, 70, -0.45978868, -2.07635856, -0.27471110, -42.15790939, 25.49084663, 41.43559265, 29.78661156, -42.26834106, -72.17187500, 91.30242157, -2.55350137, 172.99154663, 0.02681190, -0.05924414, -0.71263129, -0.69851834, 0.41615322, 1.07759237, 0.29837489, 100.31500244, 84.41569519, 31.09000015, 0.00000000
1, 0.5848, 46, 0.39592585, -1.23292279, 0.05916019, 2.38132834, -20.80207443, 74.68544006, -56.18240356, 12.59865570, -69.86260986, 104.92240143, -2.62142134, -72.75361633, -0.50119632, 0.62999052, -0.48138577, -0.34667277, -0.44035590, 0.26747313, 0.19696981, 100.34200287, 82.15006256, 29.21999931, 0.00000000
1, 0.5898, 47, 0.20340692, -1.47743535, 0.19958971, -2.05938244, -44.48628235, 75.93006134, -56.21163177, 12.83250523, -70.18415833, 104.92643738, -2.92917609, -73.06613159, -0.50146234, 0.62767768, -0.48439807, -0.34628704, -0.25371367, 0.51205695, 0.05578448, 100.34200287, 82.15006256, 29.21999931, 0.00000000
1, 0.5948, 48, 0.28941682, -1.62539554, 0.06771567, -10.22320271, -60.89416504, 74.52122498, -56.21163177, 12.83250523, -70.18415833, 104.89717865, -3.21164227, -73.45636749, -0.50157607, 0.62495667, -0.48761630, -0.34652719, -0.34440899, 0.66038698, 0.18718654, 100.34200287, 82.15006256, 29.21999931, 0.00000000
2, 0.6400, 83, 0.00000000, 0.00000000, 0.00000000, 0.00000000, 0.00000000, 0.00000000, 0.00000000, 0.00000000, 0.00000000, 0.00000000, 0.00000000, 0.00000000, 1.00000000, 0.00000000, 0.00000000, 0.00000000, 0.00000000, 0.00000000, 0.00000000, 0.00000000, 0.00000000, 0.00000000, 0.00000000
2, 0.6450, 84, 0.00000000, 0.00000000, 0.00000000, 0.00000000, 0.00000000, 0.00000000, 0.00000000, 0.00000000, 0.00000000, 0.00000000, 0.00000000, 0.00000000, 1.00000000, 0.00000000, 0.00000000, 0.00000000, 0.00000000, 0.00000000, 0.00000000, 0.00000000, 0.00000000, 0.00000000, 0.00000000
1, 0.6549, 79, -0.26440430, -1.03912354, 0.84619141, 11.90930080, -5.78156519, 19.36430359, -55.01315308, 5.58316278, -59.83630371, 68.77802277, -22.05273247, -138.82276917, -0.38596302, 0.04720012, -0.57447577, -0.72026539, -0.11060303, 0.17505401, -1.18197870, 100.26900482, 88.27654266, 29.22999954, 0.00000000
1, 0.6599, 80, -0.04333496, -1.16064453, 0.77410889, 14.63930130, -9.84156704, 26.92430687, -55.01315308, 5.58316278, -59.83630371, 68.85010529, -22.19603920, -138.81977844, -0.38653201, 0.04646244, -0.57515657, -0.71946454, -0.33382106, 0.29699233, -1.10855997, 100.26900482, 88.27654266, 29.22999954, 0.00000000
1, 0.6649, 81, 0.05761719, -1.25872803, 0.77197266, 16.70429993, -12.71156788, 33.92431259, -55.74393463, 5.40777540, -59.66091537, 68.93289185, -22.37717247, -138.81784058, -0.38724351, 0.04549367, -0.57596326, -0.71849787, -0.43755662, 0.39566579, -1.10479236, 100.26900482, 88.27654266, 29.22999954, 0.00000000
1, 0.6699, 82, 0.07891846, -1.34820557, 0.76788330, 15.47930050, -13.62156677, 39.34931564, -55.74393463, 5.40777540, -59.66091537, 69.00737762, -22.58525085, -138.81024170, -0.38810328, 0.04433918, -0.57675576, -0.71746969, -0.46211272, 0.48594728, -1.09905076, 100.26900482, 88.27654266, 29.22999954, 0.00000000
3, 0.5851, 75, 1.10436893, -1.55276012, 0.56600589, 23.97432327, -45.32278061, -72.76773834, 27.47734642, -14.61560917, -108.56474304, 125.69403076, 53.11529922, -65.73557281, 0.12696996, -0.77923411, 0.26055986, 0.55568105, -0.30565238, 1.06386757, -0.21524630, 100.38100433, 78.87828827, 31.62999916, 0.00000000
3, 0.5901, 76, 1.10648930, -1.43464065, 0.50775421, 23.14992905, -53.45198441, -69.60382080, 27.47734642, -14.61560917, -108.56474304, 125.79145813, 53.55389786, -65.75837708, 0.12388666, -0.77885151, 0.25904843, 0.55761653, -0.30322140, 0.95138383, -0.15958826, 100.38100433, 78.87828827, 31.62999916, 0.00000000
4, 0.7301, 71, -0.33445883, -2.02839518, -0.23217732, -43.94725800, 27.60474014, 40.60524750, 30.60508537, -41.24525070, -69.51184082, 91.07648468, -2.75934887, 173.12547302, 0.02482946, -0.05961373, -0.71121627, -0.70000082, 0.28721437, 1.02970815, 0.25192803, 100.31500244, 84.41569519, 31.09000015, 0.00000000
4, 0.7351, 72, -0.15730977, -1.90704226, -0.15733510, -45.94756317, 29.24442863, 41.37613297, 30.60508537, -41.24525070, -69.51184082, 90.83897400, -2.96884584, 173.26846313, 0.02277619, -0.05995511, -0.70972985, -0.70154846, 0.10643000, 0.90846145, 0.17299621, 100.31500244, 84.41569519, 31.09000015, 0.00000000
4, 0.7401, 73, 0.05797068, -1.78760004, -0.11377588, -49.21411133, 24.28106308, 47.25359726, 30.60508537, -41.24525070, -69.51184082, 90.58651733, -3.20661426, 173.38710022, 0.02070634, -0.06062600, -0.70812035, -0.70317942, -0.11283833, 0.78917193, 0.12511152, 100.31500244, 84.41569519, 31.09000015, 0.00000000
3, 0.6201, 77, 0.99890375, -0.76131642, 0.18026929, 17.30896187, -73.30197144, -48.31232834, 29.23121834, -6.89856768, -113.53404999, 125.30385590, 56.19876862, -67.15769958, 0.10623416, -0.77245963, 0.25309366, 0.57268149, -0.16891490, 0.30633670, 0.14238980, 100.38100433, 78.87828827, 31.62999916, 0.00000000
3, 0.6251, 78, 1.08014929, -0.69559699, 0.20088020, 13.22175789, -69.76742554, -44.10192108, 29.23121834, -6.89856768, -113.53404999, 125.13255310, 56.58008957, -67.44277954, 0.10391529, -0.77125955, 0.25225922, 0.57508755, -0.24639794, 0.24429490, 0.11721075, 100.38100433, 78.87828827, 31.62999916, 0.00000000
1, 0.6749, 83, 0.09399414, -1.40472412, 0.65179443, 11.73430061, -16.77157021, 42.67431259, -55.74393463, 5.40777540, -59.66091537, 69.06687927, -22.81449890, -138.81239319, -0.38899359, 0.04293882, -0.57748842, -0.71648264, -0.48080266, 0.54350948, -0.98147213, 100.26900482, 88.27654266, 29.22999954, 0.00000000
1, 0.6799, 84, 0.11022949, -1.37591553, 0.46704102, 6.20429850, -26.15157318, 44.10931396, -54.98392105, 6.08009338, -59.36860657, 69.11629486, -23.06718636, -138.85955811, -0.38970092, 0.04111503, -0.57820749, -0.71562481, -0.50100929, 0.51597410, -0.79535604, 100.26900482, 88.27654266, 29.22999954, 0.00000000
1, 0.6849, 85, 0.09179688, -1.28680420, 0.29315186, 5.01429796, -34.27157211, 44.42431259, -54.98392105, 6.08009338, -59.36860657, 69.17611694, -23.33575821, -138.94775391, -0.39021331, 0.03900931, -0.57902485, -0.71480221, -0.48682272, 0.42823634, -0.61997646, 100.26900482, 88.27654266, 29.22999954, 0.00000000
2, 0.6500, 85, 0.00000000, 0.00000000, 0.00000000, 0.00000000, 0.00000000, 0.00000000, 0.00000000, 0.00000000, 0.00000000, 0.00000000, 0.00000000, 0.00000000, 1.00000000, 0.00000000, 0.00000000, 0.00000000, 0.00000000, 0.00000000, 0.00000000, 0.00000000, 0.00000000, 0.00000000, 0.00000000
2, 0.6950, 86, 0.00000000, 0.00000000, 0.00000000, 0.00000000, 0.00000000, 0.00000000, 0.00000000, 0.00000000, 0.00000000, 0.00000000, 0.00000000, 0.00000000, 1.00000000, 0.00000000, 0.00000000, 0.00000000, 0.00000000, 0.00000000, 0.00000000, 0.00000000, 0.00000000, 0.00000000, 0.00000000
2, 0.7000, 87, 0.00000000, 0.00000000, 0.00000000, 0.00000000, 0.00000000, 0.00000000, 0.00000000, 0.00000000, 0.00000000, 0.00000000, 0.00000000, 0.00000000, 1.00000000, 0.00000000, 0.00000000, 0.00000000, 0.00000000, 0.00000000, 0.00000000, 0.00000000, 0.00000000, 0.00000000, 0.00000000
2, 0.7050, 88, 0.00000000, 0.00000000, 0.00000000, 0.00000000, 0.00000000, 0.00000000, 0.00000000, 0.00000000, 0.00000000, 0.00000000, 0.00000000, 0.00000000, 1.00000000, 0.00000000, 0.00000000, 0.00000000, 0.00000000, 0.00000000, 0.00000000, 0.00000000, 0.00000000, 0.00000000, 0.00000000
1, 0.5998, 49, 0.54913962, -1.77499020, 0.00521603, -9.70092106, -66.24621582, 72.73954773, -56.59164047, 13.82636642, -69.97953796, 104.87372589, -3.47885370, -73.87020874, -0.50152594, 0.62219214, -0.49090213, -0.34693477, -0.60868609, 0.81021619, 0.24953499, 100.34200287, 82.15006256, 29.21999931, 0.00000000
1, 0.6048, 50, 0.79665679, -1.96895921, 0.13906007, -2.83055162, -64.31883240, 70.34953308, -56.59164047, 13.82636642, -69.97953796, 104.88571930, -3.73693275, -74.27171326, -0.50128525, 0.61964756, -0.49417561, -0.34718961, -0.86106706, 1.00425231, 0.11597531, 100.34200287, 82.15006256, 29.21999931, 0.00000000
4, 0.7451, 74, 0.11881018, -1.68750191, -0.11404735, -51.62075806, 18.13610458, 53.78899765, 32.09587860, -41.74217987, -66.38409424, 90.32325745, -3.47628069, 173.47579956, 0.01863197, -0.06168456, -0.70640677, -0.70486695, -0.17824176, 0.68929416, 0.12083429, 100.31500244, 84.41569519, 31.09000015, 0.00000000
4, 0.7501, 75, 0.11407871, -1.57759833, -0.10894349, -52.72540665, 13.38020134, 59.90301514, 32.09587860, -41.74217987, -66.38409424, 90.05545807, -3.77602005, 173.54185486, 0.01651890, -0.06307614, -0.70463049, -0.70657235, -0.17859805, 0.57968587, 0.11106957, 100.31500244, 84.41569519, 31.09000015, 0.00000000
4, 0.7551, 76, 0.12368947, -1.50820422, -0.05000870, -52.20801926, 10.02624035, 64.82122803, 32.79742813, -40.74831772, -63.19789505, 89.79094696, -4.10005999, 173.59254456, 0.01435573, -0.06472190, -0.70284510, -0.70824707, -0.19375665, 0.51066673, 0.04752265, 100.31500244, 84.41569519, 31.09000015, 0.00000000
3, 0.6301, 79, 1.12074268, -0.52421159, 0.21213394, 6.40240049, -63.75117493, -43.46815109, 29.34814262, -4.56007004, -115.78485870, 124.95681000, 56.94104385, -67.69116974, 0.10190672, -0.77016300, 0.25124469, 0.57735616, -0.28348249, 0.07629313, 0.10149281, 100.38100433, 78.87828827, 31.62999916, 0.00000000
3, 0.6351, 80, 1.14221597, -0.35699672, 0.22278728, 6.23086977, -58.77098846, -44.07176971, 29.34814262, -4.56007004, -115.78485870, 124.81005859, 57.28986740, -67.90303040, 0.09994226, -0.76918936, 0.25018072, 0.57945579, -0.30162072, -0.08754607, 0.08669440, 100.38100433, 78.87828827, 31.62999916, 0.00000000
3, 0.6401, 81, 1.16811311, -0.25749356, 0.27293080, 8.52771568, -55.23741150, -44.22966385, 29.34814262, -4.56007004, -115.78485870, 124.69465637, 57.62899780, -68.09053040, 0.09793428, -0.76830906, 0.24915157, 0.58140659, -0.32430184, -0.18358377, 0.03273407, 100.38100433, 78.87828827, 31.62999916, 0.00000000
1, 0.6899, 86, 0.03875732, -1.18518066, 0.15734863, 6.37929916, -42.46157837, 44.56431580, -55.91932297, 6.75241137, -59.54399109, 69.25989532, -23.61940956, -139.07795715, -0.39051822, 0.03666758, -0.58002055, -0.71395189, -0.43826839, 0.32799056, -0.48233229, 100.26900482, 88.27654266, 29.22999954, 0.00000000
1, 0.6648, 51, -0.78824484, -0.61269248, 0.88673401, 5.47835064, -74.34202576, 59.83972931, -58.14089203, 16.89564514, -68.81028748, 105.34171295, -7.05658484, -78.49746704, -0.49966589, 0.59100312, -0.53103727, -0.34503451, 0.66398668, -0.34601513, -0.62745476, 100.34200287, 82.15006256, 29.21999931, 0.00000000
1, 0.6698, 52, -1.08778644, -0.65443242, 0.98840201, 6.87726068, -73.48077393, 54.90008926, -58.14089203, 16.89564514, -68.81028748, 105.43024445, -7.22439003, -78.92755890, -0.49860859, 0.58877194, -0.53415704, -0.34556252, 0.96027195, -0.30367821, -0.72856683, 100.34200287, 82.15006256, 29.21999931, 0.00000000
1, 0.6748, 53, -1.31904900, -0.69342947, 1.00114918, 6.21010971, -66.72452545, 48.86539078, -58.28704834, 17.04179955, -68.54721069, 105.51139832, -7.37142086, -79.31716156, -0.49762750, 0.58675998, -0.53695667, -0.34605965, 1.18886709, -0.26399252, -0.74064481, 100.34200287, 82.15006256, 29.21999931, 0.00000000
