time,ax,ay,az,aT
0.005000,-0.5009,-0.7154,-1.4411,1.685
0.006000,-0.5674,-0.6868,-1.1832,1.481
0.007000,-0.5267,-0.6295,-1.0044,1.297
0.007000,-0.4264,-0.5843,-0.8663,1.129
0.007000,-0.3138,-0.5295,-0.7544,0.974
0.009000,-0.2053,-0.4652,-0.6997,0.865
0.018000,-0.1151,-0.3984,-0.6857,0.801
0.020000,-0.0978,-0.3556,-0.6956,0.787
0.025000,-0.1489,-0.3413,-0.6889,0.783
0.081000,-0.2372,-0.3389,-0.6632,0.782
0.081000,-0.3486,-0.3437,-0.6305,0.798
0.081000,-0.4499,-0.3555,-0.6098,0.837
0.082000,-0.5341,-0.3792,-0.5794,0.874
0.082000,-0.5727,-0.3981,-0.5536,0.890
0.082000,-0.6016,-0.4003,-0.5563,0.912
0.082000,-0.6115,-0.4000,-0.5709,0.927
0.082000,-0.6381,-0.4021,-0.5997,0.964
0.083000,-0.6816,-0.4138,-0.6334,1.018
0.083000,-0.7159,-0.4182,-0.6793,1.072
0.083000,-0.7506,-0.4226,-0.7280,1.128
0.093000,-0.7785,-0.4246,-0.7702,1.174
0.094000,-0.8092,-0.4048,-0.7939,1.204
0.094000,-0.8354,-0.3563,-0.7757,1.194
0.104000,-0.8572,-0.3006,-0.7225,1.161
0.104000,-0.8361,-0.2352,-0.6657,1.094
0.110000,-0.7768,-0.1792,-0.6100,1.004
0.125000,-0.7485,-0.1375,-0.5674,0.949
0.125000,-0.7607,-0.1219,-0.5832,0.966
0.126000,-0.6938,-0.0965,-0.5619,0.898
0.132000,-0.6313,-0.1068,-0.4672,0.793
0.135000,-0.5874,-0.1647,-0.4186,0.740
0.141000,-0.5190,-0.2081,-0.4012,0.688
0.145000,-0.4430,-0.2489,-0.4196,0.659
0.199000,-0.3474,-0.2823,-0.4262,0.618
0.200000,-0.2176,-0.3084,-0.5163,0.640
0.200000,-0.0824,-0.2985,-0.6352,0.707
0.201000,0.0202,-0.2715,-0.7235,0.773
0.201000,0.0474,-0.2418,-0.7817,0.820
0.201000,0.0613,-0.2190,-0.7667,0.800
0.201000,0.0760,-0.1839,-0.7263,0.753
0.202000,0.0769,-0.1414,-0.6575,0.677
0.202000,0.0830,-0.1156,-0.5673,0.585
0.202000,0.0966,-0.0922,-0.5250,0.542
0.203000,0.1417,-0.0638,-0.5472,0.569
0.210000,0.1680,-0.0401,-0.5907,0.615
0.211000,0.1971,0.0243,-0.6317,0.662
0.222000,0.2529,0.1175,-0.6820,0.737
0.223000,0.3356,0.2179,-0.6844,0.793
0.226000,0.4215,0.2945,-0.6152,0.802
0.241000,0.4700,0.3878,-0.5889,0.847
0.242000,0.4645,0.4838,-0.6133,0.909
0.242000,0.4047,0.5369,-0.6426,0.930
0.291000,-1.8160,0.0712,-0.9144,2.034
0.292000,-1.8066,0.1316,-1.0370,2.087
0.292000,-2.3583,0.3329,-0.9193,2.553
0.292000,-1.8969,0.3567,-0.7306,2.064
0.292000,-1.7139,0.1817,-0.5608,1.812
0.293000,-1.4041,-0.0534,-0.3198,1.441
0.293000,-0.9019,-0.1957,-0.1860,0.941
0.293000,-0.3137,-0.2739,-0.2546,0.488
0.293000,0.2271,-0.3956,-0.4537,0.643
0.293000,0.7310,-0.5822,-0.6738,1.152
0.302000,1.2413,-0.7689,-0.9651,1.750
0.303000,1.7732,-0.9075,-1.3572,2.410
0.305000,2.2605,-0.9907,-1.8105,3.061
0.316000,2.6271,-1.0395,-2.2594,3.618
0.317000,2.8301,-1.0920,-2.6623,4.036
0.320000,2.8385,-1.1215,-2.9606,4.252
0.325000,2.7113,-1.1160,-3.1047,4.270
0.331000,2.4503,-1.0636,-3.1168,4.105
0.336000,2.0688,-0.9811,-3.0068,3.779
0.341000,1.6302,-0.8949,-2.8150,3.374
0.357000,1.2075,-0.8078,-2.5917,2.971
0.358000,0.7831,-0.6885,-2.3585,2.579
0.358000,0.4012,-0.5302,-2.1888,2.288
0.361000,0.1690,-0.3450,-2.0974,2.132
0.366000,0.0145,-0.2354,-1.9480,1.962
0.370000,-0.1678,-0.2134,-1.7787,1.799
0.375000,-0.3352,-0.2312,-1.6199,1.670
0.417000,-0.5000,-0.3104,-1.5576,1.665
0.417000,-0.6459,-0.4177,-1.6047,1.780
0.418000,-0.7682,-0.5602,-1.7446,1.987
0.419000,-0.8595,-0.7353,-1.9749,2.276
0.419000,-0.8692,-0.9069,-2.2575,2.583
0.420000,-0.7370,-1.0625,-2.5668,2.874
0.420000,-0.4732,-1.1709,-2.8114,3.082
0.423000,-0.0644,-1.2319,-2.9629,3.209
0.424000,0.5178,-1.2761,-3.0428,3.340
0.430000,1.1699,-1.3133,-3.0197,3.495
0.433000,1.7526,-1.3841,-2.9356,3.688
0.436000,2.2337,-1.4478,-2.8405,3.893
0.441000,2.5685,-1.4789,-2.6683,3.988
0.447000,2.6787,-1.4868,-2.4119,3.899
0.451000,2.5310,-1.4766,-2.1595,3.640
0.455000,2.1793,-1.4868,-1.9489,3.280
0.463000,1.7345,-1.5319,-1.7734,2.915
0.471000,1.2404,-1.6126,-1.6123,2.596
0.472000,0.6928,-1.6738,-1.5118,2.359
0.477000,0.0594,-1.7084,-1.4887,2.267
0.481000,-0.6021,-1.7427,-1.5844,2.431
0.486000,-1.2120,-1.8076,-1.7850,2.815
0.493000,-1.6861,-1.9074,-2.2090,3.371
0.543000,-1.9667,-2.0421,-2.7726,3.966
0.544000,-1.9701,-2.1989,-2.9080,4.144
0.544000,-2.1406,-2.3679,-3.3210,4.606
0.544000,-1.9142,-2.5103,-3.8230,4.958
0.545000,-1.5272,-2.5708,-4.0413,5.027
0.545000,-0.8647,-2.5173,-4.0459,4.843
0.545000,-0.0045,-2.3910,-4.0630,4.714
0.546000,0.8884,-2.2843,-4.0261,4.713
0.546000,1.7229,-2.2111,-3.9231,4.822
0.546000,2.4702,-2.1378,-3.7966,5.009
0.547000,3.1483,-2.0591,-3.6638,5.251
0.551000,3.7125,-2.0095,-3.5035,5.486
0.557000,4.0934,-1.9481,-3.3041,5.610
0.562000,4.2332,-1.8583,-3.0245,5.525
0.571000,4.0661,-1.7813,-2.7021,5.197
0.572000,3.6401,-1.7059,-2.4586,4.712
0.577000,2.9915,-1.6462,-2.0406,3.978
0.582000,2.1096,-1.6402,-1.4651,3.047
0.586000,1.0621,-1.7050,-1.0719,2.277
0.592000,-0.0319,-1.8388,-0.8869,2.042
0.643000,-1.0722,-2.0442,-0.8910,2.474
0.644000,-1.8796,-2.2799,-1.1494,3.170
0.645000,-1.8822,-2.4560,-1.6423,3.503
0.645000,-2.4021,-2.5703,-2.3115,4.209
0.646000,-2.7074,-2.6376,-2.9890,4.819
0.646000,-2.8625,-2.6541,-3.5630,5.285
0.647000,-2.9642,-2.7022,-3.9982,5.663
0.647000,-3.0121,-2.8202,-4.3340,5.984
0.647000,-2.9789,-2.9942,-4.5285,6.192
0.648000,-2.3394,-3.1938,-4.5463,6.028
0.648000,-1.8481,-3.4163,-4.4874,5.935
0.652000,-1.2169,-3.3962,-4.2407,5.568
0.656000,-0.5262,-3.2902,-3.7065,4.984
0.661000,0.0872,-3.2892,-2.9418,4.414
0.665000,0.4792,-3.3220,-2.0253,3.920
0.672000,0.5769,-3.3019,-1.1864,3.556
0.675000,0.4683,-3.2658,-0.4741,3.333
0.688000,0.3654,-3.2099,0.2202,3.238
0.689000,0.3178,-3.1573,1.0270,3.335
0.691000,0.3307,-3.0991,1.8344,3.616
0.697000,0.4284,-3.0063,2.2711,3.792
0.701000,0.4972,-2.9074,2.9688,4.185
0.706000,0.5393,-2.8128,3.7164,4.692
0.712000,0.5281,-2.7406,4.2984,5.125
0.757000,0.3504,-2.7381,4.8389,5.571
0.759000,0.1152,-2.7392,5.1824,5.863
0.759000,-0.0444,-2.7099,5.3905,6.034
0.760000,-0.0963,-2.6415,5.5226,6.123
0.760000,-0.0917,-2.5655,5.5658,6.129
0.760000,0.1062,-2.5227,5.0315,5.629
0.762000,0.2533,-2.5253,4.8981,5.517
0.762000,0.4088,-2.5628,4.6704,5.343
0.763000,0.5388,-2.7488,4.4792,5.283
0.763000,0.6947,-3.0495,4.2709,5.294
0.769000,0.8697,-3.4356,3.9563,5.311
0.773000,1.0452,-3.8357,3.6995,5.431
0.786000,1.2993,-4.2176,3.3393,5.534
0.787000,1.6258,-4.5250,2.7213,5.525
0.787000,1.7691,-4.8267,2.3696,5.661
0.792000,1.7567,-5.1599,1.9989,5.806
0.797000,1.5713,-5.6169,1.6645,6.065
0.801000,1.3189,-6.1362,1.2926,6.408
0.807000,1.1217,-6.6640,0.7336,6.797
0.812000,2.1911,-7.6648,0.1795,7.974
0.840000,2.3216,-8.2456,0.3679,8.574
0.841000,2.1890,-8.5169,0.3686,8.801
0.841000,1.8033,-8.7189,0.5201,8.919
0.842000,1.2255,-8.8661,1.0278,9.009
0.842000,0.5857,-8.9490,1.5304,9.098
0.842000,-0.1539,-9.0224,2.1178,9.269
0.848000,-0.9410,-9.1495,2.5354,9.541
0.852000,-1.6057,-9.2830,2.6828,9.795
0.856000,-2.1450,-9.3762,2.7695,10.009
0.863000,-2.5637,-9.3445,2.8259,10.093
0.866000,-2.8542,-9.2297,2.8142,10.062
0.872000,-2.9863,-9.1060,2.8508,9.998
0.876000,-2.9345,-8.9592,2.9013,9.864
0.881000,-2.7688,-8.8470,2.8761,9.706
0.886000,-2.5116,-8.7607,2.7820,9.529
0.891000,-2.1818,-8.6997,2.6841,9.362
0.898000,-1.6295,-8.5094,2.5411,9.029
0.901000,-1.0672,-8.2739,2.4388,8.692
0.906000,-0.5756,-8.2037,2.4410,8.579
0.911000,0.1364,-8.1702,2.4594,8.533
0.936000,1.0954,-8.0753,2.4720,8.516
0.937000,2.1374,-7.8259,2.4614,8.478
0.937000,3.1629,-7.3910,2.5442,8.432
0.938000,4.1126,-6.7501,2.7661,8.374
0.938000,4.9235,-5.9049,3.0710,8.279
0.941000,5.4639,-4.9865,3.4600,8.166
0.947000,5.6492,-4.1055,3.9245,8.011
0.951000,5.5306,-3.2813,4.4137,7.800
0.957000,5.2061,-2.5400,4.8567,7.559
0.962000,4.8165,-1.9173,5.1753,7.325
0.968000,4.4063,-1.4034,5.2563,7.001
0.973000,3.9374,-1.0280,5.1027,6.527
0.978000,3.3999,-0.7978,4.7410,5.888
0.982000,2.7501,-0.7588,4.1781,5.059
0.988000,1.8929,-0.9752,3.3845,3.999
0.991000,0.9296,-1.3266,2.3462,2.851
1.045000,0.0748,-1.6252,1.2126,2.029
1.047000,-0.6152,-1.8326,0.2788,1.953
1.047000,-1.0389,-1.7999,-0.3275,2.104
1.048000,-1.2467,-1.5889,-0.5148,2.084
1.048000,-1.2581,-1.2630,-0.2435,1.799
1.048000,-1.1070,-0.9460,0.3864,1.507
1.048000,-0.8536,-0.6421,1.1268,1.553
1.049000,-0.4897,-0.3401,1.7456,1.845
1.049000,-0.0523,-0.0815,2.2829,2.285
1.049000,0.4478,0.0992,2.6857,2.725
1.050000,0.9401,0.2948,2.9778,3.137
1.051000,1.2684,0.4522,3.1591,3.434
1.056000,1.4521,0.5840,3.2420,3.600
1.062000,1.5116,0.7184,3.2229,3.632
1.066000,1.4482,0.8752,3.1617,3.586
1.072000,1.3642,1.0524,3.0627,3.514
1.077000,1.2580,1.2190,2.9567,3.437
1.083000,1.1847,1.4516,2.8745,3.431
1.089000,1.1186,1.6622,2.7518,3.404
1.093000,1.0434,1.7500,1.9901,2.848
1.099000,1.1042,1.7715,1.3203,2.470
1.103000,1.2175,1.7042,1.2996,2.465
1.106000,1.3697,1.6752,1.3879,2.571
1.155000,1.6888,1.7751,1.3843,2.814
1.156000,1.9761,1.6477,0.8028,2.695
1.157000,3.4266,2.7313,0.7012,4.438
1.158000,4.4489,3.6954,1.0770,5.883
1.158000,4.7817,4.1485,1.3316,6.469
1.159000,4.8304,4.3970,1.4242,6.685
1.159000,4.8358,4.6382,1.2838,6.822
1.160000,4.7980,4.7235,0.9343,6.797
1.160000,4.9945,4.7713,0.7929,6.953
1.161000,5.3732,5.0612,1.0207,7.452
1.167000,5.8067,5.5944,1.5149,8.204
1.169000,6.1393,6.3260,2.0699,9.055
1.173000,6.1619,6.9940,2.2333,9.585
1.178000,5.7871,7.4889,1.7375,9.623
1.183000,5.2241,7.8253,0.6786,9.433
1.188000,4.6517,7.9547,-0.4712,9.227
1.192000,4.1400,7.9024,-1.3240,9.019
1.199000,3.6245,7.6835,-1.6110,8.647
1.202000,3.1979,7.3998,-1.5709,8.213
1.207000,2.8239,7.1140,-1.3651,7.775
1.268000,2.6090,6.8243,-1.2235,7.408
1.270000,2.6764,6.5941,-1.0916,7.200
1.272000,3.0217,6.4701,-0.8786,7.195
1.273000,3.5407,6.3593,-0.5912,7.302
1.273000,4.0718,6.2414,-0.2727,7.457
1.274000,4.6887,6.1060,-0.0317,7.699
1.274000,5.4881,6.0688,0.0785,8.183
1.274000,6.0280,6.1002,0.0063,8.576
1.275000,6.3052,6.1112,-0.0532,8.781
1.275000,6.5094,6.1521,-0.0285,8.957
1.277000,6.5486,6.1536,-0.0761,8.986
1.278000,6.4429,6.0515,-0.0858,8.840
1.279000,6.2486,5.8702,0.0015,8.573
1.279000,5.8971,5.6892,0.0018,8.194
1.283000,5.5695,5.5378,0.1555,7.856
1.288000,5.3830,5.4064,0.5150,7.647
1.293000,5.2258,5.3168,0.8709,7.506
1.297000,5.1275,5.3318,1.1776,7.490
1.302000,5.1911,5.3991,1.3899,7.618
1.307000,5.5681,5.4397,1.4289,7.914
1.313000,5.9506,5.5772,1.2456,8.250
1.317000,5.9867,5.8722,0.1912,8.388
1.322000,6.1320,6.3668,-1.1810,8.918
1.327000,6.6337,6.7002,-1.1823,9.502
1.337000,7.2502,6.7879,-0.4560,9.942
1.339000,7.7045,6.7274,1.1872,10.297
1.343000,7.3522,6.6608,3.2805,10.449
1.404000,6.2178,6.6307,5.6129,10.683
1.407000,4.9538,6.4226,6.8849,10.639
1.407000,4.4540,5.8264,6.2706,9.649
1.408000,4.5827,5.0401,4.1457,7.974
1.408000,4.7230,4.3823,1.7683,6.681
1.409000,4.7585,4.0156,-0.1902,6.229
1.409000,4.7085,3.8568,-1.4210,6.250
1.410000,4.7010,3.7843,-1.9250,6.334
1.411000,4.7338,3.6419,-1.9821,6.293
1.411000,4.5656,3.2499,-1.9527,5.935
1.412000,4.3294,2.8105,-2.1239,5.582
1.413000,4.3496,2.5332,-2.3144,5.540
1.413000,4.1737,2.1762,-2.6575,5.405
1.414000,4.0312,1.8381,-2.9373,5.316
1.418000,4.2610,1.7147,-3.2710,5.639
1.423000,4.8717,1.8030,-3.6946,6.375
1.428000,5.6297,1.9797,-4.0766,7.227
1.439000,6.3895,2.1683,-4.3740,8.041
1.440000,8.6237,2.0192,-4.5178,9.943
1.443000,10.7079,1.7555,-4.0696,11.589
1.507000,12.0936,1.6135,-3.6922,12.747
1.508000,12.5270,1.6550,-3.1338,13.019
1.508000,11.9637,1.8892,-2.6897,12.407
1.508000,10.8236,2.1271,-2.5396,11.319
1.509000,9.4392,2.2353,-2.5888,10.040
1.509000,8.1304,2.2638,-2.7430,8.874
1.510000,6.9001,2.2950,-2.9235,7.837
1.510000,5.5517,2.3579,-3.1914,6.824
1.510000,4.2006,2.4197,-3.6099,6.044
1.511000,3.0155,2.4298,-3.7255,5.374
1.511000,2.1793,2.3751,-3.5038,4.761
1.512000,1.7065,2.2254,-3.2812,4.316
1.512000,1.6106,2.0230,-3.1810,4.099
1.512000,1.9437,1.8520,-3.1181,4.115
1.518000,2.5006,1.7385,-3.1022,4.347
1.523000,3.0504,1.6542,-3.1022,4.655
1.533000,3.6042,1.5592,-3.1544,5.037
1.534000,4.0250,1.3464,-3.1829,5.305
1.539000,4.2369,1.0501,-3.1385,5.376
1.543000,4.2809,0.6650,-3.1586,5.361
1.549000,4.2649,0.2082,-3.1619,5.313
1.553000,4.2277,-0.2672,-3.1948,5.306
1.557000,4.1530,-0.7681,-3.2377,5.322
1.607000,3.9690,-1.2658,-3.3212,5.328
1.608000,3.7464,-1.7623,-3.5328,5.443
1.609000,3.5784,-2.2769,-3.8296,5.714
1.609000,3.5465,-2.7897,-4.0805,6.084
1.610000,3.6600,-3.2574,-4.2722,6.501
1.610000,3.8995,-3.6569,-4.3059,6.864
1.610000,4.1183,-3.9995,-4.2226,7.126
1.611000,4.1545,-4.3749,-4.0137,7.246
1.611000,3.9388,-4.7935,-3.7234,7.236
1.612000,3.5294,-5.2185,-3.2598,7.093
1.618000,3.0487,-5.6105,-2.6827,6.926
1.620000,2.5714,-5.9852,-2.0447,6.828
1.622000,2.0544,-6.4459,-1.3620,6.901
1.629000,1.5319,-6.9344,-0.6813,7.134
1.633000,1.0323,-7.4270,0.0092,7.498
1.637000,0.6346,-7.9084,0.6431,7.960
1.643000,0.3339,-8.3349,1.1203,8.416
1.656000,0.1920,-8.6882,1.3788,8.799
1.657000,0.2183,-8.9335,1.3751,9.041
1.661000,0.4697,-9.0605,1.2443,9.158
1.663000,0.8404,-9.1212,1.0046,9.215
1.699000,1.1602,-9.1743,0.7460,9.277
1.700000,1.3047,-9.2571,0.5560,9.365
1.700000,1.2095,-9.4020,0.5713,9.497
1.700000,0.8629,-9.5950,0.7040,9.659
1.701000,0.2653,-9.8983,0.6843,9.925
1.701000,-0.4948,-10.2835,0.5378,10.309
1.701000,-1.3455,-10.6677,0.3544,10.758
1.702000,-2.2081,-11.0176,0.1687,11.238
1.709000,-2.9827,-11.3138,0.0102,11.700
1.714000,-3.6937,-11.5440,-0.0959,12.121
1.719000,-4.2961,-11.7225,-0.1497,12.486
1.724000,-4.7928,-11.8704,-0.1679,12.803
1.729000,-5.1770,-12.0185,-0.2055,13.088
1.733000,-5.4898,-12.1838,-0.3721,13.369
1.739000,-5.7293,-12.3385,-0.4837,13.612
1.743000,-5.8835,-12.4590,-0.5841,13.791
1.748000,-5.9430,-12.5356,-0.6649,13.889
1.753000,-5.9032,-12.5711,-0.7341,13.908
1.758000,-5.7999,-12.5586,-0.8337,13.858
1.772000,-5.6952,-12.5203,-1.0195,13.793
1.779000,-5.5937,-12.4827,-1.2588,13.737
1.780000,-5.5265,-12.3884,-1.5384,13.652
1.780000,-5.4358,-12.2544,-1.8038,13.527
1.828000,-5.3239,-12.0834,-2.0345,13.360
1.829000,-5.1621,-11.8878,-2.2143,13.148
1.829000,-4.9406,-11.6776,-2.3320,12.892
1.830000,-4.6233,-11.4274,-2.3885,12.557
1.830000,-4.1935,-11.1239,-2.4154,12.131
1.831000,-3.6823,-10.7828,-2.4201,11.648
1.831000,-3.1445,-10.4033,-2.4072,11.132
1.832000,-2.6592,-9.9916,-2.3669,10.607
1.832000,-2.3005,-9.5857,-2.2886,10.120
1.833000,-2.1186,-9.2433,-2.1906,9.733
1.834000,-2.1253,-8.9861,-2.0603,9.461
1.839000,-2.2821,-8.8495,-1.9118,9.337
1.844000,-2.5531,-8.8013,-1.7355,9.327
1.849000,-2.9069,-8.7613,-1.5360,9.358
1.853000,-3.3221,-8.6603,-1.2816,9.364
1.858000,-3.7841,-8.4810,-1.0178,9.343
1.865000,-4.2787,-8.2545,-0.7247,9.326
1.869000,-4.8034,-8.0260,-0.4668,9.365
1.873000,-5.3414,-7.8286,-0.2631,9.481
1.878000,-5.8518,-7.6827,-0.1587,9.659
1.917000,-6.2822,-7.6053,-0.1292,9.865
1.918000,-6.6349,-7.5736,-0.1861,10.071
1.918000,-6.8980,-7.5467,-0.2936,10.228
1.919000,-7.0760,-7.4979,-0.4541,10.320
1.919000,-7.1928,-7.4215,-0.6681,10.357
1.919000,-7.2555,-7.3352,-0.9117,10.358
1.920000,-7.2398,-7.2384,-1.1521,10.302
1.920000,-7.1169,-7.1525,-1.3991,10.187
1.924000,-6.8794,-7.0679,-1.6674,10.003
1.928000,-6.5107,-6.9492,-1.9619,9.723
1.934000,-6.0320,-6.7745,-2.2468,9.345
1.938000,-5.5130,-6.5511,-2.4912,8.917
1.943000,-4.9896,-6.2599,-2.6927,8.446
1.948000,-4.5118,-5.9352,-2.8464,7.980
1.954000,-4.1036,-5.6182,-2.9403,7.553
1.958000,-3.7265,-5.3178,-2.9813,7.145
1.966000,-3.3305,-5.0241,-2.9476,6.710
1.970000,-2.8749,-4.7388,-2.8659,6.240
1.973000,-2.3597,-4.4220,-2.7748,5.729
1.978000,-1.7994,-4.0886,-2.6886,5.214
2.035000,-1.2398,-3.7321,-2.6216,4.726
2.036000,-0.6976,-3.3215,-2.5618,4.252
2.036000,-0.2000,-2.9045,-2.5044,3.840
2.037000,0.2052,-2.5121,-2.4107,3.488
2.037000,0.4988,-2.1706,-2.2715,3.181
2.037000,0.6786,-1.8850,-2.0942,2.898
2.038000,0.7876,-1.6524,-1.8982,2.637
2.038000,0.8647,-1.4599,-1.7052,2.406
2.038000,0.8973,-1.2846,-1.5439,2.200
2.039000,0.9171,-1.1159,-1.4188,2.025
2.039000,0.9552,-0.9344,-1.3179,1.877
2.039000,1.0259,-0.7231,-1.2263,1.755
2.045000,1.1224,-0.4719,-1.1491,1.674
2.049000,1.2055,-0.2039,-1.0789,1.631
2.054000,1.2780,0.0577,-1.0037,1.626
2.058000,1.3041,0.2747,-0.9262,1.623
2.064000,1.3367,0.4690,-0.8467,1.650
2.069000,1.3952,0.6457,-0.7801,1.724
2.074000,1.5472,0.8343,-0.7502,1.911
2.082000,1.7749,1.0406,-0.7785,2.200
2.084000,2.0523,1.2437,-0.8239,2.537
2.088000,2.3552,1.4482,-0.8596,2.895
2.093000,2.6642,1.6397,-0.8372,3.238
2.145000,2.9910,1.8656,-0.7805,3.610
2.146000,3.3527,2.1145,-0.7018,4.025
2.146000,3.7697,2.4183,-0.6179,4.521
2.146000,4.2253,2.7509,-0.5747,5.075
2.147000,4.7001,3.1286,-0.5625,5.674
2.147000,5.1791,3.5080,-0.5455,6.279
2.148000,5.6404,3.9006,-0.5497,6.880
2.149000,6.0840,4.2733,-0.5102,7.452
2.149000,6.4941,4.6200,-0.4219,7.981
2.150000,6.9236,4.9723,-0.3231,8.530
2.150000,7.3145,5.3229,-0.2063,9.049
2.154000,7.6902,5.6833,-0.0259,9.562
2.159000,8.0051,6.0082,0.2204,10.011
2.163000,8.2411,6.3060,0.5277,10.390
2.169000,8.3982,6.5840,0.8808,10.708
2.174000,8.4669,6.8088,1.2816,10.940
2.180000,8.4399,6.9756,1.6763,11.077
2.184000,8.3343,7.0724,2.0332,11.118
2.189000,8.1697,7.1168,2.2942,11.075
2.194000,7.9652,7.1228,2.4328,10.959
2.200000,7.7690,7.1055,2.4370,10.807
2.205000,7.5866,7.0725,2.3240,10.629
2.210000,7.4587,7.0436,2.1231,10.476
2.217000,7.4144,7.0046,1.8658,10.369
2.220000,7.4316,6.9508,1.5935,10.300
2.225000,7.5225,6.9112,1.3280,10.301
2.268000,7.6411,6.8593,1.0790,10.325
2.269000,7.7707,6.8237,0.8732,10.378
2.269000,7.8701,6.7971,0.7035,10.423
2.270000,7.9107,6.7795,0.5841,10.435
2.270000,7.8801,6.7563,0.4863,10.391
2.270000,7.7502,6.7300,0.3982,10.272
2.271000,7.5474,6.7175,0.2955,10.108
2.271000,7.2791,6.6902,0.1907,9.888
2.272000,6.9625,6.6627,0.1124,9.637
2.280000,6.5954,6.6376,0.0388,9.357
2.281000,6.2119,6.6272,-0.0467,9.083
2.294000,5.8602,6.6173,-0.1296,8.840
2.294000,5.5335,6.5868,-0.2341,8.606
2.295000,5.2606,6.5359,-0.3432,8.397
2.307000,5.0561,6.4622,-0.4643,8.218
2.308000,4.9105,6.3637,-0.5731,8.058
2.309000,4.8358,6.2453,-0.6626,7.926
2.383000,4.7962,6.0951,-0.7448,7.792
2.385000,4.7991,5.9300,-0.8342,7.674
2.386000,4.8014,5.7860,-0.9380,7.577
2.387000,4.7911,5.6678,-1.0512,7.496
2.387000,4.7829,5.5924,-1.1808,7.453
2.388000,4.8199,5.5527,-1.3311,7.472
2.389000,4.9115,5.5607,-1.4685,7.563
2.390000,5.0623,5.5972,-1.5592,7.706
2.390000,5.2529,5.6499,-1.6057,7.880
2.391000,5.4516,5.7255,-1.5887,8.064
2.391000,5.6269,5.8238,-1.4914,8.234
2.391000,5.7237,5.9156,-1.3551,8.342
2.392000,5.7801,6.0054,-1.2014,8.421
2.393000,5.8179,6.0860,-1.0356,8.483
2.394000,5.8725,6.1594,-0.8746,8.555
2.395000,5.9611,6.2354,-0.7308,8.657
2.395000,6.0690,6.2751,-0.6137,8.751
2.399000,6.2244,6.2951,-0.5306,8.869
2.405000,6.3889,6.2735,-0.4718,8.966
2.410000,6.5646,6.2290,-0.4419,9.060
2.417000,6.7053,6.1466,-0.4527,9.107
2.421000,6.7852,6.0364,-0.5013,9.096
2.424000,6.7826,5.8955,-0.5777,9.005
2.430000,6.7312,5.7264,-0.6819,8.864
2.434000,6.6503,5.5267,-0.7992,8.684
2.439000,6.5568,5.2914,-0.9248,8.476
2.445000,6.4755,5.0168,-1.0609,8.260
2.490000,6.4352,4.7051,-1.1813,8.059
2.491000,6.4552,4.3804,-1.2765,7.905
2.491000,6.5285,4.0522,-1.3511,7.802
2.492000,6.6096,3.7180,-1.3741,7.707
2.492000,6.6812,3.3576,-1.3290,7.595
2.492000,6.6870,2.9648,-1.2356,7.418
2.493000,6.6292,2.5436,-1.1252,7.189
2.493000,6.5203,2.0990,-1.0390,6.928
2.493000,6.3702,1.6573,-1.0056,6.659
2.496000,6.1648,1.2306,-1.0034,6.366
2.503000,5.9206,0.8157,-1.0533,6.069
2.505000,5.6701,0.4076,-1.1335,5.797
2.511000,5.4298,0.0056,-1.2483,5.571
2.516000,5.2168,-0.3992,-1.3781,5.410
2.521000,5.0360,-0.8066,-1.4941,5.315
2.526000,4.8877,-1.2018,-1.5840,5.277
2.530000,4.7811,-1.6094,-1.6287,5.301
2.535000,4.7316,-2.0373,-1.6260,5.402
2.540000,4.6957,-2.4790,-1.5833,5.541
2.544000,4.6425,-2.9247,-1.5152,5.692
2.598000,4.5914,-3.3698,-1.4436,5.875
2.598000,4.5468,-3.8055,-1.3471,6.080
2.599000,4.5002,-4.1845,-1.2315,6.267
2.599000,4.4250,-4.5487,-1.1283,6.446
2.600000,4.2831,-4.8958,-1.0355,6.587
2.600000,4.0844,-5.2400,-0.9489,6.711
2.601000,3.8291,-5.5835,-0.8761,6.827
2.601000,3.5435,-5.9294,-0.8318,6.957
2.601000,3.2285,-6.2607,-0.8307,7.093
2.602000,2.9173,-6.5902,-0.8559,7.258
2.602000,2.5741,-6.8960,-0.9002,7.416
2.605000,2.1966,-7.1684,-0.9279,7.555
2.611000,1.7775,-7.4488,-0.9220,7.713
2.615000,1.3555,-7.7202,-0.8854,7.888
2.620000,0.9450,-7.9880,-0.8183,8.085
2.625000,0.5241,-8.2946,-0.7634,8.346
2.633000,0.1432,-8.6131,-0.7181,8.644
2.636000,-0.1693,-8.9191,-0.6890,8.947
2.639000,-0.4689,-9.2131,-0.6757,9.250
2.683000,-0.7914,-9.5001,-0.6630,9.556
2.684000,-1.1467,-9.7973,-0.6366,9.885
2.684000,-1.4990,-10.0660,-0.5964,10.194
2.685000,-1.8341,-10.3078,-0.5500,10.484
2.685000,-2.1258,-10.5581,-0.5119,10.782
2.686000,-2.3960,-10.8171,-0.4704,11.089
2.686000,-2.6233,-11.0661,-0.4256,11.381
2.687000,-2.8271,-11.2699,-0.3754,11.625
2.687000,-2.9932,-11.4379,-0.3177,11.827
2.691000,-3.1578,-11.5794,-0.2480,12.005
2.698000,-3.3137,-11.6807,-0.1713,12.143
2.702000,-3.4685,-11.7524,-0.1040,12.254
2.705000,-3.6200,-11.8117,-0.0579,12.354
2.710000,-3.7469,-11.8753,-0.0349,12.452
2.715000,-3.8662,-11.9312,-0.0489,12.542
2.720000,-3.9831,-11.9628,-0.1015,12.609
2.725000,-4.0665,-11.9630,-0.2020,12.637
2.733000,-4.1121,-11.9264,-0.3137,12.619
2.736000,-4.1129,-11.8729,-0.3979,12.571
2.740000,-4.1073,-11.8219,-0.4330,12.523
2.797000,-4.1051,-11.7665,-0.4187,12.469
2.798000,-4.0726,-11.6998,-0.3933,12.395
2.799000,-4.0364,-11.6274,-0.3807,12.314
2.799000,-4.0107,-11.5253,-0.3806,12.209
2.800000,-4.0076,-11.4254,-0.3976,12.114
2.800000,-4.0364,-11.3278,-0.4128,12.033
2.800000,-4.1092,-11.2685,-0.4356,12.002
2.801000,-4.1994,-11.2544,-0.4426,12.021
2.801000,-4.2663,-11.2903,-0.4316,12.077
2.802000,-4.3147,-11.3396,-0.4222,12.140
2.802000,-4.3466,-11.3953,-0.4125,12.203
2.803000,-4.3550,-11.4168,-0.3763,12.225
2.806000,-4.3946,-11.3996,-0.3354,12.222
2.812000,-4.4630,-11.3436,-0.2779,12.193
2.816000,-4.5647,-11.2712,-0.2251,12.163
2.821000,-4.6902,-11.2109,-0.1845,12.154
2.825000,-4.8057,-11.1795,-0.1775,12.170
2.832000,-4.9232,-11.1911,-0.2470,12.229
2.836000,-5.0330,-11.1856,-0.3927,12.272
2.841000,-5.1351,-11.1311,-0.5929,12.273
2.849000,-5.2008,-11.0163,-0.8209,12.210
2.853000,-5.2275,-10.8336,-1.0337,12.073
2.855000,-5.1888,-10.5758,-1.2478,11.846
2.860000,-5.0822,-10.2410,-1.4660,11.526
2.913000,-4.9219,-9.8718,-1.6861,11.159
2.914000,-4.7124,-9.4606,-1.9155,10.741
2.914000,-4.4681,-9.0383,-2.1233,10.304
2.914000,-4.2365,-8.6030,-2.3049,9.863
2.915000,-4.0294,-8.1839,-2.4632,9.449
2.915000,-3.8513,-7.7790,-2.5817,9.056
2.916000,-3.6566,-7.3970,-2.6392,8.663
2.916000,-3.4092,-7.0422,-2.6599,8.264
2.917000,-3.1188,-6.6949,-2.6439,7.845
2.917000,-2.7828,-6.3674,-2.6201,7.426
2.917000,-2.4060,-6.0601,-2.5691,7.008
2.921000,-1.9933,-5.7398,-2.4957,6.569
2.926000,-1.5400,-5.4041,-2.4093,6.114
2.931000,-1.0800,-5.0625,-2.3021,5.665
2.936000,-0.6350,-4.7242,-2.1932,5.247
2.942000,-0.1979,-4.3756,-2.0803,4.849
2.950000,0.1785,-4.0434,-1.9846,4.508
2.953000,0.4416,-3.7509,-1.8769,4.217
2.956000,0.5811,-3.4973,-1.7253,3.943
2.961000,0.6022,-3.2745,-1.5322,3.665
3.005000,0.5408,-3.0752,-1.3069,3.385
3.006000,0.4233,-2.8821,-1.0898,3.110
3.006000,0.2691,-2.6972,-0.8932,2.854
3.006000,0.1073,-2.4954,-0.7265,2.601
3.007000,-0.0123,-2.2850,-0.5776,2.357
3.007000,-0.1132,-2.0818,-0.4346,2.130
3.007000,-0.1787,-1.8617,-0.2925,1.893
3.007000,-0.1991,-1.6437,-0.1587,1.663
3.008000,-0.1816,-1.4280,-0.0380,1.440
3.017000,-0.1447,-1.1993,0.0575,1.209
3.018000,-0.0727,-0.9595,0.1229,0.970
3.021000,0.0326,-0.7080,0.1438,0.723
3.026000,0.1613,-0.4568,0.1297,0.502
3.031000,0.2802,-0.2086,0.0686,0.356
3.036000,0.4183,0.0590,-0.0274,0.423
3.042000,0.5771,0.3157,-0.1368,0.672
3.047000,0.7761,0.5669,-0.2522,0.994
3.051000,1.0105,0.8151,-0.3832,1.354
3.056000,1.2972,1.0603,-0.5275,1.756
3.061000,1.6455,1.3383,-0.6992,2.233
3.066000,2.0605,1.6759,-0.8598,2.792
3.071000,2.5170,2.0523,-1.0090,3.401
3.075000,3.0008,2.4656,-1.1274,4.044
3.083000,3.4780,2.9057,-1.1982,4.688
3.087000,3.9243,3.3509,-1.2043,5.299
3.091000,4.3426,3.8018,-1.1455,5.884
3.153000,4.7408,4.2207,-1.0031,6.426
3.154000,5.1310,4.6413,-0.7867,6.963
3.154000,5.5034,5.0346,-0.5253,7.477
3.155000,5.8408,5.4147,-0.2357,7.968
3.155000,6.1548,5.7885,0.0984,8.450
3.156000,6.4503,6.1608,0.4864,8.933
3.156000,6.7114,6.5016,0.9297,9.390
3.157000,6.9242,6.7919,1.4204,9.803
3.157000,7.0860,7.0147,1.9553,10.161
3.158000,7.1799,7.1483,2.4976,10.435
3.158000,7.2176,7.1902,3.0273,10.628
3.158000,7.1950,7.1792,3.4888,10.746
3.159000,7.1113,7.1146,3.8504,10.771
3.161000,7.0247,6.9973,4.0905,10.726
3.166000,6.9283,6.8350,4.2167,10.607
3.173000,6.8702,6.6474,4.2461,10.460
3.176000,6.8630,6.4855,4.1767,10.325
3.183000,6.9610,6.3682,4.0115,10.252
3.187000,7.1690,6.3124,3.7677,10.268
3.193000,7.4865,6.3182,3.4459,10.385
3.196000,7.8411,6.3805,3.0684,10.564
3.244000,8.1557,6.4874,2.6766,10.759
3.245000,8.3706,6.5911,2.3187,10.903
3.245000,8.5043,6.7105,2.0168,11.019
3.246000,8.5811,6.8365,1.8115,11.120
3.246000,8.6277,6.9284,1.7025,11.195
3.247000,8.6417,6.9888,1.6893,11.242
3.247000,8.6402,7.0295,1.7235,11.271
3.247000,8.6039,7.0910,1.7875,11.292
3.248000,8.6069,7.1730,1.8428,11.355
3.248000,8.4718,7.2680,1.8531,11.315
3.252000,8.3376,7.3401,1.8183,11.256
3.257000,8.1709,7.3605,1.7431,11.135
3.262000,7.9959,7.2984,1.6153,10.946
3.266000,7.8415,7.1373,1.4427,10.701
3.273000,7.7225,6.9065,1.2566,10.436
3.276000,7.6628,6.6110,1.0837,10.178
3.283000,7.6292,6.2677,0.9194,9.916
3.287000,7.6216,5.8889,0.7807,9.663
3.292000,7.6329,5.5007,0.6149,9.429
3.355000,7.6298,5.1132,0.3964,9.193
3.355000,7.6028,4.7479,0.1087,8.964
3.356000,7.5664,4.4338,-0.2236,8.773
3.356000,7.5159,4.1998,-0.5973,8.630
3.356000,7.4633,4.0197,-0.9784,8.533
3.357000,7.4207,3.8913,-1.3499,8.487
3.357000,7.4101,3.8103,-1.6896,8.502
3.358000,7.3642,3.7908,-2.0166,8.525
3.358000,7.5629,3.8402,-2.3211,8.794
3.358000,7.6899,3.9508,-2.5933,9.026
3.359000,7.8261,4.1006,-2.8044,9.270
3.359000,7.9501,4.2683,-2.9473,9.493
3.359000,8.0494,4.4099,-2.9958,9.655
3.362000,8.1285,4.5252,-2.9504,9.760
3.367000,8.1776,4.5776,-2.8571,9.798
3.372000,8.1633,4.5812,-2.7236,9.749
3.376000,8.0969,4.5400,-2.5809,9.635
3.383000,7.9888,4.4449,-2.4434,9.463
3.388000,7.8770,4.2955,-2.2919,9.260
3.391000,7.7376,4.0989,-2.1167,9.008
3.438000,7.5946,3.8573,-1.9129,8.730
3.439000,7.3951,3.5917,-1.7427,8.404
3.440000,7.1405,3.3148,-1.5848,8.030
3.440000,6.8261,3.0219,-1.4512,7.605
3.440000,6.4930,2.7057,-1.3225,7.157
3.441000,6.1491,2.3525,-1.1774,6.688
3.441000,5.8404,1.9577,-1.0066,6.241
3.441000,5.5931,1.5475,-0.8272,5.862
3.442000,5.4231,1.1301,-0.6686,5.580
3.445000,5.3397,0.7148,-0.5502,5.415
3.450000,5.2900,0.3229,-0.4812,5.322
3.453000,5.2527,-0.0576,-0.4547,5.273
3.457000,5.1914,-0.4371,-0.4559,5.230
3.462000,5.1051,-0.8285,-0.4853,5.195
3.466000,4.9599,-1.2348,-0.5308,5.139
3.473000,4.7850,-1.6271,-0.5782,5.087
3.478000,4.5783,-2.0172,-0.6114,5.040
3.483000,4.3784,-2.3880,-0.6378,5.028
3.488000,4.1876,-2.7402,-0.6982,5.053
3.493000,4.0094,-3.0289,-0.7861,5.086
3.500000,3.8293,-3.2667,-0.8754,5.109
3.503000,3.6041,-3.4465,-0.9351,5.074
3.507000,3.3125,-3.5707,-0.9585,4.964
3.511000,2.8903,-3.6487,-0.9101,4.743
3.561000,2.4190,-3.6879,-0.8074,4.484
3.563000,1.9643,-3.6742,-0.6516,4.217
3.564000,1.5954,-3.6463,-0.4359,4.004
3.564000,1.3216,-3.6352,-0.1750,3.872
3.565000,1.1690,-3.6339,0.0927,3.818
3.565000,1.0561,-3.6639,0.3241,3.827
3.565000,0.9991,-3.7048,0.5509,3.877
3.567000,0.9743,-3.7216,0.7762,3.925
3.568000,0.9523,-3.7444,0.9671,3.983
3.568000,0.9092,-3.7567,1.1528,4.033
3.569000,0.8353,-3.8041,1.3412,4.119
3.572000,0.7136,-3.8776,1.5205,4.226
3.576000,0.5256,-3.9993,1.6578,4.361
3.583000,0.2997,-4.1219,1.7605,4.492
3.587000,0.0529,-4.2427,1.8456,4.627
3.593000,-0.2315,-4.3567,1.9180,4.766
3.600000,-0.5273,-4.4683,1.9564,4.906
3.603000,-0.8391,-4.5758,1.9389,5.040
3.607000,-1.1548,-4.6699,1.8730,5.162
3.660000,-1.4505,-4.7414,1.7681,5.264
3.663000,-1.7288,-4.8021,1.6147,5.353
3.664000,-1.9897,-4.8420,1.4298,5.427
3.667000,-2.2428,-4.8682,1.2353,5.500
3.668000,-2.4788,-4.8789,1.0526,5.573
3.669000,-2.6836,-4.8721,0.8778,5.631
3.671000,-2.8597,-4.8343,0.7180,5.663
3.672000,-3.0003,-4.7919,0.5618,5.681
3.673000,-3.1031,-4.7328,0.4191,5.675
3.674000,-3.1898,-4.6455,0.2854,5.642
3.675000,-3.2367,-4.5571,0.1633,5.592
3.676000,-3.2441,-4.4636,0.0456,5.518
3.678000,-3.2023,-4.3756,-0.0844,5.423
3.679000,-3.1570,-4.2836,-0.2270,5.326
3.683000,-3.0913,-4.2068,-0.3536,5.232
3.688000,-3.0196,-4.1367,-0.4764,5.144
3.693000,-2.9611,-4.0744,-0.5737,5.069
3.697000,-2.9063,-4.0206,-0.6363,5.002
3.703000,-2.8766,-3.9635,-0.6738,4.943
3.708000,-2.8552,-3.9219,-0.6771,4.898
3.713000,-2.8373,-3.8815,-0.6703,4.854
3.718000,-2.8012,-3.8523,-0.6685,4.810
3.723000,-2.7137,-3.8040,-0.6957,4.724
3.727000,-2.5818,-3.7472,-0.7573,4.613
3.794000,-2.4293,-3.7037,-0.8532,4.511
3.796000,-2.2826,-3.6975,-0.9791,4.454
3.797000,-2.1318,-3.7216,-1.1328,4.436
3.799000,-2.0056,-3.7548,-1.2859,4.447
3.800000,-1.8875,-3.7719,-1.4339,4.455
3.802000,-1.7965,-3.7875,-1.5508,4.470
3.803000,-1.6894,-3.8110,-1.6250,4.474
3.804000,-1.5950,-3.8256,-1.6739,4.470
3.805000,-1.4986,-3.8770,-1.7313,4.503
3.807000,-1.3985,-3.9566,-1.8085,4.570
3.810000,-1.3043,-4.0957,-1.8984,4.699
3.813000,-1.2331,-4.2747,-2.0051,4.880
3.814000,-1.1685,-4.4883,-2.1041,5.093
3.814000,-1.1229,-4.7310,-2.1879,5.332
3.815000,-1.0799,-4.9692,-2.2493,5.560
3.816000,-1.0091,-5.1893,-2.2975,5.764
3.817000,-0.9276,-5.4034,-2.3373,5.960
3.817000,-0.8475,-5.6136,-2.3640,6.150
3.822000,-0.7907,-5.8336,-2.3637,6.344
3.829000,-0.7475,-6.0348,-2.3417,6.516
3.834000,-0.7139,-6.2136,-2.3122,6.668
3.838000,-0.6683,-6.3078,-2.2736,6.738
3.843000,-0.5869,-6.3315,-2.2046,6.730
3.903000,-0.4626,-6.3133,-2.0984,6.669
3.904000,-0.2620,-6.2845,-1.9481,6.585
3.904000,0.0055,-6.2715,-1.7659,6.515
3.905000,0.3134,-6.2818,-1.5414,6.476
3.905000,0.6595,-6.3351,-1.2745,6.496
3.905000,0.9865,-6.4222,-0.9644,6.569
3.906000,1.2440,-6.5435,-0.6441,6.692
3.906000,1.4319,-6.6894,-0.3485,6.850
3.906000,1.5237,-6.8313,-0.1054,7.000
3.907000,1.5810,-6.9647,0.0944,7.143
3.907000,1.6226,-7.0773,0.2804,7.266
3.907000,1.6889,-7.1598,0.4461,7.370
3.908000,1.7416,-7.2292,0.5967,7.460
3.914000,1.7448,-7.2707,0.7297,7.513
3.918000,1.6963,-7.3164,0.8602,7.560
3.923000,1.6176,-7.3707,1.0072,7.613
3.927000,1.4970,-7.4504,1.2209,7.697
3.933000,1.3632,-7.5746,1.4728,7.836
3.938000,1.2282,-7.7432,1.7583,8.035
3.942000,1.0846,-7.9343,2.0371,8.263
3.998000,0.9328,-8.1274,2.2862,8.494
4.000000,0.8393,-8.2982,2.4536,8.694
4.000000,0.8090,-8.4086,2.4801,8.804
4.000000,0.9041,-8.4564,2.3661,8.828
4.001000,1.1033,-8.4413,2.1043,8.769
4.001000,1.3646,-8.3527,1.7059,8.634
4.001000,1.6837,-8.1714,1.2038,8.429
4.002000,2.0328,-7.8786,0.6398,8.162
4.002000,2.3553,-7.5206,0.0779,7.881
4.002000,2.6710,-7.1005,-0.4493,7.600
4.003000,2.9587,-6.6639,-0.9516,7.353
4.003000,3.2170,-6.2256,-1.4080,7.148
4.009000,3.3907,-5.7955,-1.8159,6.956
4.013000,3.4608,-5.3915,-2.1892,6.770
4.018000,3.3989,-5.0194,-2.5232,6.566
4.023000,3.2217,-4.6963,-2.8323,6.361
4.028000,2.9532,-4.4405,-3.0999,6.168
4.033000,2.6084,-4.2798,-3.3296,6.017
4.038000,2.2089,-4.2009,-3.5006,5.897
4.042000,1.7645,-4.1863,-3.5996,5.796
4.102000,1.3187,-4.1972,-3.5636,5.662
4.103000,0.9148,-4.2111,-3.3652,5.468
4.105000,0.5152,-4.2510,-3.0307,5.246
4.108000,0.1082,-4.3256,-2.6044,5.050
4.110000,-0.2773,-4.4442,-2.1094,4.927
4.111000,-0.6769,-4.5780,-1.5871,4.892
4.114000,-1.0883,-4.7219,-1.0767,4.964
4.115000,-1.5256,-4.8725,-0.6095,5.142
4.117000,-1.9482,-5.0399,-0.2190,5.408
4.118000,-2.3682,-5.2296,0.0814,5.741
4.119000,-2.7571,-5.4095,0.3024,6.079
4.120000,-3.0769,-5.5500,0.4431,6.361
4.121000,-3.2800,-5.6264,0.5190,6.533
4.122000,-3.3331,-5.6306,0.5411,6.565
4.123000,-3.2655,-5.5759,0.4945,6.481
4.124000,-3.1206,-5.4716,0.3639,6.309
4.128000,-2.9133,-5.3515,0.1843,6.096
4.134000,-2.6489,-5.2207,-0.0018,5.854
4.139000,-2.3514,-5.0764,-0.2028,5.598
4.144000,-2.0313,-4.9544,-0.3843,5.368
4.148000,-1.6813,-4.8349,-0.5123,5.144
4.154000,-1.2059,-4.7091,-0.5557,4.893
4.171000,-0.6077,-4.5278,-0.5129,4.597
4.174000,0.0774,-4.2754,-0.4396,4.299
4.174000,0.8039,-3.9720,-0.3655,4.069
4.175000,1.4941,-3.6187,-0.2772,3.925
4.178000,2.0910,-3.2278,-0.1903,3.851
4.214000,2.5178,-2.8576,-0.1225,3.811
4.216000,2.7103,-2.5873,-0.0797,3.748
4.217000,2.6882,-2.4305,-0.0629,3.625
4.217000,2.5194,-2.3714,-0.0989,3.461
4.217000,2.3042,-2.3671,-0.2001,3.309
4.218000,2.0459,-2.3943,-0.3712,3.171
4.218000,1.7905,-2.4493,-0.5810,3.089
4.219000,1.5598,-2.5073,-0.8051,3.061
4.224000,1.3904,-2.5498,-1.0119,3.076
4.229000,1.3176,-2.5636,-1.1870,3.117
4.233000,1.3516,-2.5211,-1.3470,3.162
4.238000,1.4971,-2.3987,-1.4965,3.199
4.243000,1.7468,-2.2013,-1.6426,3.255
4.249000,2.0261,-1.9753,-1.7661,3.336
4.258000,2.2995,-1.7299,-1.8793,3.437
4.258000,2.6206,-1.4361,-2.0296,3.612
4.294000,3.0039,-1.1033,-2.2385,3.905
4.298000,3.4032,-0.7417,-2.4982,4.286
4.298000,3.7604,-0.3568,-2.7866,4.694
4.299000,4.0251,0.0184,-3.0622,5.058
4.299000,4.2147,0.3870,-3.3456,5.395
4.300000,4.3293,0.7303,-3.5861,5.669
4.300000,4.4619,1.0748,-3.7528,5.929
4.300000,4.6485,1.4347,-3.8459,6.201
4.304000,4.8982,1.8456,-3.9162,6.537
4.309000,5.1296,2.2764,-3.9926,6.887
4.314000,5.2835,2.7089,-4.0605,7.193
4.318000,5.3171,3.0979,-4.1128,7.402
4.323000,5.2590,3.4485,-4.1784,7.550
4.330000,5.1334,3.7585,-4.2549,7.654
4.333000,4.9766,4.0287,-4.3639,7.749
4.338000,4.7844,4.2742,-4.4882,7.830
4.343000,4.5608,4.5163,-4.6443,7.923
4.348000,4.3257,4.7560,-4.8028,8.025
4.353000,4.1081,5.0297,-4.9419,8.161
4.358000,3.9366,5.3113,-5.0421,8.314
4.365000,3.8164,5.5967,-5.1152,8.488
4.369000,3.7276,5.8900,-5.1468,8.665
4.374000,3.6678,6.1700,-5.1246,8.820
4.436000,3.6103,6.4438,-5.0130,8.927
4.438000,3.5647,6.7112,-4.8408,9.010
4.438000,3.5208,6.9837,-4.6156,9.081
4.439000,3.5094,7.2419,-4.3329,9.140
4.440000,3.5320,7.4729,-4.0176,9.190
4.440000,3.5572,7.5881,-3.6772,9.152
4.441000,3.5274,7.5967,-3.3578,9.024
4.441000,3.4162,7.5181,-3.0928,8.818
4.442000,3.2048,7.4194,-2.8752,8.578
4.442000,2.9289,7.3078,-2.6906,8.320
4.443000,2.6346,7.1718,-2.5483,8.054
4.444000,2.2768,6.9903,-2.4052,7.735
4.445000,1.8968,6.7829,-2.2634,7.398
4.446000,1.4880,6.5334,-2.1109,7.025
4.450000,1.0702,6.2424,-1.9165,6.617
4.454000,0.7089,5.9508,-1.6879,6.226
4.458000,0.3929,5.6713,-1.4587,5.869
4.465000,0.1443,5.4304,-1.2675,5.578
4.468000,-0.0268,5.2429,-1.0976,5.357
4.473000,-0.1250,5.1447,-0.9153,5.227
4.478000,-0.1432,5.0688,-0.6751,5.116
4.523000,-0.0934,4.9863,-0.3636,5.000
4.524000,0.0675,4.8851,0.0306,4.886
4.524000,0.3491,4.7412,0.4372,4.774
4.525000,0.7320,4.5590,0.8342,4.692
4.525000,1.1916,4.3526,1.1827,4.665
4.526000,1.6535,4.0978,1.4806,4.660
4.526000,2.1335,3.8445,1.7610,4.736
4.527000,2.5881,3.5397,2.0339,4.834
4.528000,3.0411,3.1952,2.2678,4.960
4.529000,3.4611,2.8135,2.4413,5.085
4.534000,3.8722,2.4019,2.5187,5.206
4.538000,4.2788,2.0032,2.4956,5.343
4.543000,4.6666,1.6059,2.3921,5.484
4.549000,5.0280,1.2051,2.2426,5.636
4.554000,5.3510,0.8010,2.0910,5.801
4.558000,5.6523,0.4010,1.9669,5.998
4.564000,5.9058,0.0006,1.8752,6.196
4.609000,6.0737,-0.4025,1.8469,6.361
4.610000,6.2306,-1.2145,1.9777,6.649
4.610000,6.2146,-1.2126,1.9944,6.638
4.610000,6.2657,-1.6218,2.1263,6.813
4.611000,6.2864,-2.0301,2.2843,6.990
4.611000,6.3012,-2.4348,2.4608,7.190
4.611000,6.3203,-2.7975,2.6453,7.401
4.611000,6.3489,-3.1061,2.8037,7.604
4.612000,6.3948,-3.3509,2.8875,7.776
4.616000,6.4487,-3.4962,2.8652,7.875
4.619000,6.5515,-3.5344,2.7323,7.930
4.623000,6.7508,-3.4373,2.5178,7.983
4.628000,7.0199,-3.2482,2.2532,8.056
4.633000,7.3266,-2.9915,1.9750,8.157
4.638000,7.6584,-2.6940,1.6955,8.294
4.643000,8.0170,-2.3774,1.3769,8.475
4.649000,8.3970,-2.0589,1.0055,8.704
4.654000,8.7616,-1.7268,0.6300,8.952
4.658000,9.0863,-1.3453,0.2681,9.189
4.666000,9.3417,-0.9508,-0.0029,9.390
4.686000,9.4913,-0.5218,-0.1730,9.507
4.686000,9.5637,-0.0707,-0.2398,9.567
4.687000,9.5827,0.4287,-0.2274,9.595
4.687000,9.5286,0.9496,-0.1651,9.577
4.706000,9.3724,1.4890,-0.0750,9.490
4.707000,9.0996,2.0180,0.0521,9.321
4.707000,8.7054,2.5076,0.2012,9.062
4.708000,8.2118,2.9506,0.3547,8.733
4.708000,7.6477,3.3349,0.4906,8.358
4.718000,7.0787,3.6586,0.6201,7.992
4.719000,6.5888,3.8766,0.6975,7.676
4.724000,6.2526,4.0202,0.6390,7.461
4.730000,6.0391,4.1784,0.4356,7.357
4.734000,5.8975,4.3941,0.1436,7.356
4.739000,5.7551,4.6621,-0.1206,7.407
4.745000,5.5494,4.9536,-0.2848,7.444
4.749000,5.2849,5.2063,-0.3366,7.426
4.754000,4.9786,5.3793,-0.2667,7.334
4.758000,4.6690,5.4967,-0.0856,7.213
4.764000,4.3775,5.5436,0.1344,7.065
4.770000,4.0762,5.5159,0.3614,6.868
4.774000,3.7532,5.4395,0.5593,6.632
4.787000,3.4231,5.2813,0.7614,6.339
4.791000,3.1174,5.0366,1.0033,6.008
4.792000,2.8657,4.6917,1.2533,5.639
4.794000,2.6610,4.2801,1.4749,5.251
4.835000,2.5214,3.8722,1.6220,4.897
4.836000,2.4300,3.5491,1.6943,4.623
4.837000,2.4106,3.3274,1.6369,4.423
4.837000,2.4321,3.1974,1.4693,4.278
4.837000,2.4865,3.0604,1.2635,4.141
4.838000,2.6274,2.8814,1.0845,4.047
4.838000,2.8830,2.6314,0.9393,4.015
4.839000,3.2507,2.2936,0.7946,4.057
4.839000,3.7062,1.9061,0.6291,4.215
4.845000,4.1629,1.4879,0.4076,4.440
4.848000,4.5721,1.0860,0.1262,4.701
4.854000,4.9082,0.7490,-0.1948,4.969
4.859000,5.1251,0.4810,-0.4826,5.170
4.864000,5.2393,0.2627,-0.6720,5.289
4.869000,5.2128,0.0387,-0.7414,5.265
4.874000,5.0649,-0.1937,-0.6841,5.115
4.879000,4.7885,-0.4684,-0.5276,4.840
4.888000,4.4212,-0.7868,-0.3546,4.505
4.890000,4.0159,-1.1322,-0.1947,4.177
4.894000,3.6139,-1.4851,-0.0799,3.908
4.934000,3.2422,-1.8594,-0.0205,3.738
4.935000,2.9299,-2.2164,-0.0119,3.674
4.935000,2.6937,-2.5684,-0.0858,3.723
4.935000,2.5373,-2.8967,-0.2397,3.858
4.935000,2.4292,-3.1751,-0.5094,4.030
4.936000,2.3289,-3.3699,-0.8582,4.185
4.936000,2.2173,-3.4759,-1.2326,4.303
4.936000,2.1082,-3.5056,-1.6011,4.393
4.941000,1.9759,-3.4696,-1.9460,4.442
4.945000,1.8224,-3.3517,-2.2648,4.437
4.949000,1.6737,-3.1883,-2.5405,4.407
4.955000,1.5535,-2.9990,-2.7732,4.370
4.959000,1.4614,-2.7842,-2.9940,4.342
4.964000,1.3730,-2.5858,-3.2029,4.339
4.969000,1.2741,-2.3886,-3.3824,4.332
4.974000,1.1308,-2.2150,-3.5418,4.328
4.979000,0.9212,-2.0752,-3.6758,4.320
4.984000,0.6598,-1.9666,-3.8316,4.357
4.989000,0.3655,-1.8940,-4.0037,4.444
4.994000,0.0502,-1.8674,-4.1703,4.570
4.999000,-0.2855,-1.8587,-4.2947,4.688
5.004000,-0.5988,-1.8848,-4.3937,4.818
5.009000,-0.8942,-1.9382,-4.4314,4.919
5.018000,-1.1357,-2.0114,-4.4084,4.977
5.019000,-1.3160,-2.0953,-4.3087,4.969
5.024000,-1.4704,-2.2191,-4.1430,4.925
5.080000,-1.6155,-2.3548,-3.9242,4.853
5.080000,-1.7655,-2.4522,-3.6530,4.741
5.081000,-1.9251,-2.5258,-3.3470,4.614
5.081000,-2.0942,-2.5734,-3.0065,4.477
5.081000,-2.2633,-2.6199,-2.6418,4.355
5.082000,-2.4438,-2.6760,-2.2774,4.280
5.082000,-2.6286,-2.7255,-1.9089,4.241
5.082000,-2.8390,-2.7778,-1.5992,4.282
5.083000,-3.0365,-2.8324,-1.2933,4.349
5.083000,-3.1948,-2.8748,-1.0155,4.416
5.083000,-3.2779,-2.9030,-0.7636,4.445
5.084000,-3.3289,-2.9080,-0.5588,4.455
5.090000,-3.3433,-2.9147,-0.3601,4.450
5.097000,-3.3331,-2.9424,-0.1935,4.450
5.100000,-3.2867,-2.9792,-0.0509,4.436
5.104000,-3.1994,-3.0500,0.0870,4.421
5.111000,-3.0787,-3.1153,0.1997,4.384
5.115000,-2.9271,-3.1900,0.2705,4.338
5.120000,-2.7542,-3.2673,0.2810,4.282
5.124000,-2.5483,-3.3472,0.2412,4.214
5.175000,-2.3719,-3.4487,0.1591,4.189
5.176000,-2.2130,-3.5823,0.0641,4.211
5.176000,-2.0650,-3.7725,-0.0262,4.301
5.177000,-1.9516,-4.0389,-0.0996,4.487
5.177000,-1.8635,-4.3526,-0.1560,4.737
5.177000,-1.7983,-4.6867,-0.2265,5.025
5.178000,-1.7271,-5.0226,-0.3235,5.321
5.178000,-1.6765,-5.3412,-0.4397,5.615
5.178000,-1.6105,-5.6406,-0.5637,5.893
5.179000,-1.5004,-5.9109,-0.6769,6.136
5.179000,-1.3700,-6.1660,-0.7776,6.364
5.188000,-1.2241,-6.4203,-0.8592,6.592
5.191000,-1.0792,-6.6887,-0.9033,6.835
5.196000,-0.9477,-6.9644,-0.9267,7.089
5.200000,-0.8222,-7.2241,-0.9346,7.331
5.205000,-0.6671,-7.4533,-0.9176,7.539
5.209000,-0.4752,-7.6520,-0.8876,7.718
5.216000,-0.2754,-7.8466,-0.8854,7.901
5.219000,-0.1035,-8.0618,-0.8940,8.112
5.224000,-0.0082,-8.3202,-0.9174,8.371
5.271000,-0.0229,-8.6101,-0.9741,8.665
5.274000,-0.1289,-8.9142,-1.0567,8.978
5.274000,-0.2981,-9.2122,-1.1693,9.291
5.275000,-0.4781,-9.4798,-1.2856,9.578
5.275000,-0.5981,-9.7199,-1.3954,9.838
5.275000,-0.6679,-9.9398,-1.4821,10.072
5.275000,-0.6593,-10.1344,-1.5289,10.270
5.276000,-0.6229,-10.3059,-1.5405,10.439
5.276000,-0.5923,-10.4545,-1.5094,10.579
5.277000,-0.5916,-10.5828,-1.4594,10.699
5.284000,-0.6308,-10.7098,-1.3781,10.816
5.286000,-0.7051,-10.8283,-1.2964,10.928
5.290000,-0.8050,-10.9381,-1.2286,11.036
5.297000,-0.9090,-11.0271,-1.1772,11.127
5.300000,-1.0219,-11.0997,-1.1207,11.203
5.307000,-1.1077,-11.1318,-1.0735,11.238
5.311000,-1.1522,-11.1281,-1.0381,11.236
5.315000,-1.1549,-11.0740,-0.9694,11.176
5.324000,-1.1038,-11.0224,-0.8697,11.112
5.325000,-0.9988,-11.0047,-0.7318,11.074
5.334000,-0.8514,-11.0039,-0.5534,11.051
5.336000,-0.6372,-11.0285,-0.3587,11.053
5.339000,-0.3486,-11.0212,-0.1335,11.028
5.388000,-0.0136,-10.9710,0.0785,10.971
5.389000,0.3014,-10.8930,0.2218,10.899
5.389000,0.5872,-10.7615,0.2679,10.781
5.390000,0.8106,-10.5954,0.1953,10.628
5.390000,0.9674,-10.4006,0.0041,10.446
5.390000,1.0745,-10.1835,-0.2889,10.244
5.390000,1.1945,-9.8936,-0.6598,9.987
5.391000,1.3706,-9.5092,-1.0656,9.666
5.391000,1.6292,-9.0439,-1.4749,9.307
5.391000,1.9685,-8.4859,-1.8760,8.911
5.400000,2.4099,-7.8445,-2.2445,8.508
5.400000,2.9200,-7.1524,-2.5463,8.134
5.405000,3.4461,-6.4138,-2.7742,7.792
5.410000,3.9356,-5.6927,-2.9419,7.520
5.415000,4.3571,-5.0017,-3.0561,7.303
5.420000,4.6749,-4.3632,-3.1220,7.116
5.425000,4.9176,-3.7918,-3.1325,6.955
5.431000,5.0805,-3.2715,-3.0662,6.776
5.435000,5.1275,-2.8221,-2.9479,6.553
5.440000,5.0541,-2.4490,-2.7614,6.258
5.446000,4.8362,-2.1754,-2.5142,5.869
5.476000,4.4862,-1.9932,-2.2129,5.385
5.477000,4.0235,-1.8965,-1.9013,4.837
5.477000,3.5081,-1.9035,-1.6092,4.303
5.477000,2.9547,-1.9800,-1.3328,3.798
5.478000,2.3278,-2.1193,-1.0778,3.327
5.478000,1.6541,-2.3025,-0.8267,2.953
5.481000,0.9797,-2.4654,-0.5657,2.713
5.486000,0.3310,-2.5544,-0.3100,2.594
5.492000,-0.2557,-2.5590,-0.0646,2.573
5.495000,-0.7375,-2.4838,0.1638,2.596
5.501000,-1.1216,-2.3495,0.3945,2.633
5.505000,-1.3727,-2.1671,0.6427,2.645
5.511000,-1.5125,-1.9768,0.8855,2.642
5.515000,-1.5848,-1.7767,1.0929,2.620
5.520000,-1.5972,-1.5529,1.2544,2.557
5.525000,-1.5909,-1.3129,1.3784,2.481
5.534000,-1.6021,-1.0613,1.4661,2.417
5.537000,-1.6486,-0.8401,1.5094,2.388
5.540000,-1.7014,-0.6366,1.5233,2.371
5.546000,-1.7922,-0.4580,1.5158,2.391
5.602000,-1.8778,-0.3065,1.4942,2.419
5.603000,-1.9675,-0.2055,1.4537,2.455
5.604000,-2.0595,-0.1510,1.3752,2.481
5.604000,-2.1771,-0.1327,1.2585,2.518
5.604000,-2.2748,-0.1262,1.1106,2.535
5.605000,-2.3763,-0.1311,0.9243,2.553
5.605000,-2.4863,-0.1617,0.6925,2.586
5.605000,-2.5922,-0.2194,0.4555,2.641
5.606000,-2.6824,-0.3028,0.2302,2.709
5.606000,-2.7302,-0.4277,-0.0103,2.763
5.606000,-2.7732,-0.5676,-0.3023,2.847
5.609000,-2.7656,-0.7075,-0.6318,2.924
5.610000,-2.6995,-0.8514,-0.9869,2.998
5.616000,-2.5827,-0.9908,-1.3557,3.081
5.621000,-2.4097,-1.1151,-1.7115,3.159
5.626000,-2.1829,-1.2483,-2.0349,3.235
5.633000,-1.8974,-1.3808,-2.3069,3.291
5.636000,-1.5386,-1.5292,-2.5298,3.333
5.641000,-1.1512,-1.6858,-2.7252,3.405
5.655000,-0.7266,-1.8135,-2.8643,3.467
5.658000,-0.2423,-1.9166,-2.9160,3.498
5.659000,0.3496,-1.9715,-2.8829,3.510
5.661000,1.0775,-1.9525,-2.7561,3.545
5.723000,1.9556,-1.7938,-2.5934,3.710
5.724000,2.9717,-1.4671,-2.4021,4.093
5.724000,4.0656,-1.0093,-2.1896,4.727
5.724000,5.1792,-0.4167,-1.9655,5.555
5.725000,6.2342,0.2472,-1.7916,6.491
5.725000,7.1143,0.9331,-1.6628,7.365
5.726000,7.7226,1.5901,-1.5739,8.040
5.727000,8.0545,2.2068,-1.5147,8.488
5.727000,8.1302,2.7607,-1.4349,8.705
5.727000,7.9413,3.2292,-1.3441,8.677
5.728000,7.5699,3.6514,-1.2784,8.501
5.728000,7.1172,4.0544,-1.2425,8.285
5.729000,6.6584,4.4467,-1.2171,8.099
5.735000,6.2191,4.8538,-1.2120,7.982
5.736000,5.8451,5.2671,-1.2338,7.964
5.742000,5.5266,5.7081,-1.2607,8.045
5.746000,5.2539,6.1387,-1.2877,8.182
5.752000,5.0168,6.5850,-1.3052,8.381
5.757000,4.8344,7.0448,-1.3202,8.645
5.761000,4.6959,7.5076,-1.3306,8.955
5.766000,4.6298,7.9449,-1.3152,9.289
5.771000,4.6189,8.3540,-1.3078,9.635
5.775000,4.6891,8.7300,-1.3014,9.995
5.825000,4.8354,9.0778,-1.2841,10.365
5.826000,5.0537,9.3823,-1.2469,10.729
5.827000,5.3031,9.6386,-1.1919,11.065
5.827000,5.5374,9.8632,-1.1290,11.368
5.827000,5.7347,10.0442,-1.0391,11.613
5.828000,5.8491,10.1453,-0.9295,11.747
5.828000,5.8351,10.1500,-0.7619,11.733
5.829000,5.7001,10.0678,-0.5515,11.583
5.829000,5.4424,9.9062,-0.3274,11.308
5.830000,5.0820,9.6513,-0.1068,10.908
5.833000,4.6632,9.3636,0.0766,10.461
5.836000,4.2205,9.0219,0.2417,9.963
5.841000,3.7975,8.6412,0.3766,9.446
5.848000,3.4074,8.2627,0.4956,8.951
5.852000,3.0482,7.8891,0.5869,8.478
5.860000,2.7250,7.5208,0.6866,8.029
5.862000,2.4311,7.1699,0.8044,7.613
5.866000,2.2190,6.8196,0.9376,7.233
5.871000,2.0527,6.4434,1.0814,6.848
5.877000,1.9279,6.0081,1.2043,6.424
5.882000,1.8635,5.5329,1.3114,5.984
5.886000,1.8499,5.0968,1.4028,5.601
5.891000,1.7961,4.7092,1.4548,5.246
5.949000,1.6995,4.3914,1.5089,4.945
5.949000,1.5801,4.0888,1.6364,4.679
5.950000,1.4429,3.7441,1.8609,4.423
5.950000,1.3169,3.3286,2.1792,4.191
5.950000,1.2218,2.7947,2.5158,3.954
5.951000,1.1940,2.1667,2.8385,3.765
5.951000,1.2696,1.4926,3.1465,3.707
5.951000,1.4712,0.8354,3.4199,3.815
5.951000,1.7455,0.1947,3.5654,3.975
5.952000,2.0443,-0.4439,3.5431,4.115
5.952000,2.2957,-1.0853,3.4043,4.247
5.954000,2.4276,-1.7582,3.2097,4.392
5.956000,2.4462,-2.4613,2.9674,4.566
5.962000,2.3832,-3.1915,2.6756,4.798
5.967000,2.2565,-3.8735,2.3256,5.050
5.972000,2.1029,-4.4634,1.9181,5.294
5.976000,1.9781,-4.9218,1.4967,5.512
5.982000,1.9062,-5.2415,1.1026,5.685
5.986000,1.9236,-5.4336,0.7077,5.807
5.991000,2.0536,-5.5151,0.3339,5.895
6.027000,2.3006,-5.5102,-0.0039,5.971
6.028000,2.6541,-5.4099,-0.2645,6.032
6.028000,3.0535,-5.2150,-0.4477,6.060
6.029000,3.4404,-4.9526,-0.5607,6.056
6.029000,3.7325,-4.6761,-0.5792,6.011
6.029000,3.9439,-4.4007,-0.5299,5.933
6.030000,4.0932,-4.1554,-0.4417,5.850
6.031000,4.2041,-3.9240,-0.3366,5.761
6.036000,4.3290,-3.7451,-0.2360,5.729
6.043000,4.4649,-3.6285,-0.1783,5.756
6.048000,4.6046,-3.5862,-0.1392,5.838
6.052000,4.7529,-3.6253,-0.1113,5.979
6.056000,4.8719,-3.6831,-0.0777,6.108
6.065000,4.9762,-3.6803,-0.0213,6.189
6.067000,5.0852,-3.5715,0.1178,6.215
6.073000,5.1942,-3.4045,0.3606,6.221
6.076000,5.2960,-3.2013,0.7136,6.229
6.083000,5.3428,-2.9764,1.1590,6.225
6.087000,5.2985,-2.6803,1.6382,6.160
6.091000,5.1369,-2.2821,2.0905,5.997
6.099000,4.8460,-1.7635,2.4881,5.726
6.101000,4.4541,-1.1490,2.8259,5.399
6.106000,3.9874,-0.4944,3.0913,5.069
6.111000,3.5005,0.1523,3.2912,4.807
6.152000,3.0268,0.7356,3.4133,4.621
6.153000,2.5895,1.2312,3.4460,4.483
6.154000,2.1835,1.5983,3.4447,4.380
6.154000,1.7750,1.8224,3.4000,4.246
6.154000,1.3234,1.8989,3.2863,4.020
6.155000,0.8456,1.8570,3.1255,3.733
6.155000,0.3853,1.7786,2.9132,3.435
6.155000,-0.0161,1.6672,2.6594,3.139
6.157000,-0.3678,1.5328,2.3863,2.860
6.164000,-0.6601,1.3662,2.1254,2.611
6.167000,-0.8999,1.2085,1.9011,2.426
6.173000,-1.0990,1.0766,1.7492,2.330
6.178000,-1.2314,0.9943,1.6430,2.281
6.182000,-1.2989,0.9618,1.5960,2.271
6.187000,-1.2947,0.9285,1.5694,2.236
6.192000,-1.2261,0.8584,1.5482,2.153
6.199000,-1.1267,0.7633,1.5228,2.042
6.202000,-1.0058,0.6701,1.4857,1.915
6.208000,-0.8658,0.5809,1.4732,1.805
6.276000,-0.7046,0.4861,1.5238,1.748
6.277000,-0.5126,0.3810,1.6472,1.767
6.277000,-0.2971,0.2656,1.8124,1.856
6.277000,-0.0705,0.1368,1.9863,1.992
6.277000,0.1580,-0.0072,2.1783,2.184
6.278000,0.3783,-0.1456,2.3791,2.413
6.278000,0.5903,-0.2739,2.5648,2.646
6.278000,0.7675,-0.3944,2.7213,2.855
6.279000,0.9267,-0.5172,2.8680,3.058
6.279000,1.0006,-0.6713,2.9832,3.217
6.279000,0.9779,-0.8251,3.0673,3.323
6.280000,0.8585,-0.9836,3.1563,3.416
6.280000,0.6667,-1.1345,3.2500,3.506
6.280000,0.4341,-1.2968,3.3170,3.588
6.285000,0.1681,-1.4438,3.3522,3.654
6.287000,-0.0905,-1.6042,3.3337,3.701
6.292000,-0.3479,-1.7816,3.2590,3.730
6.298000,-0.5827,-1.9662,3.1257,3.738
6.302000,-0.7755,-2.1173,2.9504,3.713
6.307000,-0.9308,-2.2845,2.7403,3.687
6.315000,-1.0059,-2.4416,2.4979,3.635
6.317000,-1.0001,-2.5852,2.2163,3.549
6.322000,-0.9233,-2.6962,1.9027,3.427
6.327000,-0.7732,-2.7626,1.5744,3.272
6.354000,-0.6101,-2.7610,1.2436,3.089
6.354000,-0.4460,-2.7082,0.9254,2.896
6.355000,-0.2815,-2.6192,0.6440,2.712
6.355000,-0.1115,-2.5271,0.4216,2.564
6.355000,0.0851,-2.4398,0.2772,2.457
6.358000,0.2792,-2.3408,0.1677,2.363
6.363000,0.4111,-2.2185,0.0715,2.257
6.367000,0.4854,-2.0732,0.0078,2.129
6.374000,0.5137,-1.9225,0.0010,1.990
6.379000,0.5107,-1.7754,0.0560,1.848
6.383000,0.4690,-1.6229,0.1342,1.695
6.387000,0.3887,-1.5084,0.2280,1.574
6.393000,0.2603,-1.4198,0.3299,1.481
6.398000,0.0792,-1.3811,0.4660,1.460
6.402000,-0.1545,-1.3637,0.5997,1.498
6.407000,-0.4186,-1.3831,0.7264,1.617
6.419000,-0.6939,-1.3987,0.8197,1.763
6.420000,-0.9469,-1.4149,0.8986,1.925
6.422000,-1.1775,-1.4148,0.9703,2.081
6.427000,-1.3833,-1.3868,1.0467,2.221
6.433000,-1.5713,-1.3277,1.1277,2.346
6.438000,-1.7369,-1.2500,1.2181,2.462
6.442000,-1.9040,-1.1729,1.3129,2.593
6.496000,-2.0845,-1.0797,1.3880,2.727
6.497000,-2.2690,-0.9946,1.4505,2.871
6.497000,-2.4694,-0.9394,1.5125,3.044
6.498000,-2.6783,-0.8795,1.5740,3.229
6.498000,-2.8909,-0.8298,1.6375,3.425
6.498000,-3.1216,-0.7996,1.6718,3.630
6.499000,-3.3680,-0.7696,1.7035,3.852
6.499000,-3.5988,-0.7514,1.7161,4.057
6.499000,-3.8047,-0.7384,1.7239,4.242
6.500000,-3.9926,-0.7387,1.7342,4.415
6.500000,-4.1818,-0.7123,1.7519,4.590
6.503000,-4.3651,-0.6974,1.7531,4.755
6.508000,-4.5497,-0.6532,1.7499,4.918
6.514000,-4.7358,-0.5993,1.7615,5.088
6.519000,-4.9064,-0.5513,1.7855,5.250
6.524000,-5.0616,-0.5098,1.8291,5.406
6.529000,-5.1872,-0.5032,1.8681,5.536
6.535000,-5.3117,-0.5029,1.8835,5.658
6.538000,-5.4234,-0.5278,1.8847,5.766
6.542000,-5.5199,-0.5666,1.8526,5.850
6.592000,-5.6202,-0.5962,1.8064,5.933
6.593000,-5.7123,-0.6146,1.7507,6.006
6.593000,-5.7724,-0.6238,1.7139,6.054
6.594000,-5.7525,-0.6139,1.7029,6.031
6.594000,-5.6290,-0.5782,1.6839,5.904
6.595000,-5.3924,-0.5352,1.6594,5.667
6.595000,-5.0812,-0.4954,1.6436,5.363
6.595000,-4.7769,-0.4904,1.6462,5.076
6.596000,-4.4891,-0.5015,1.6460,4.808
6.596000,-4.2419,-0.5267,1.6189,4.571
6.602000,-4.0424,-0.5470,1.5869,4.377
6.603000,-3.8881,-0.5786,1.5668,4.232
6.609000,-3.7575,-0.6215,1.5683,4.119
6.614000,-3.6242,-0.6808,1.5912,4.016
6.618000,-3.4955,-0.7731,1.6428,3.939
6.623000,-3.3785,-0.8651,1.7183,3.888
6.628000,-3.3140,-0.9549,1.8105,3.895
6.635000,-3.3066,-1.0441,1.9197,3.963
6.638000,-3.3562,-1.1163,2.0264,4.076
6.643000,-3.3528,-1.2093,2.1139,4.144
6.653000,-3.5787,-1.2941,2.1800,4.386
6.654000,-3.7130,-1.3993,2.2127,4.543
6.658000,-3.8326,-1.4926,2.1976,4.663
6.704000,-3.9397,-1.5717,2.1351,4.749
6.704000,-4.0275,-1.6218,2.0277,4.792
6.705000,-4.1079,-1.6570,1.8804,4.812
6.705000,-4.1427,-1.6797,1.7174,4.789
6.705000,-4.1176,-1.6755,1.5599,4.711
6.705000,-4.0281,-1.6606,1.3913,4.574
6.706000,-3.8789,-1.6166,1.2378,4.381
6.706000,-3.7013,-1.5579,1.1017,4.164
6.707000,-3.5383,-1.4944,0.9734,3.962
6.712000,-3.3613,-1.4217,0.8554,3.748
6.713000,-3.1989,-1.3591,0.7450,3.555
6.719000,-3.0463,-1.3208,0.6421,3.382
6.724000,-2.8891,-1.2952,0.5584,3.215
6.728000,-2.7249,-1.2869,0.4986,3.055
6.740000,-2.5466,-1.2747,0.4574,2.884
6.741000,-2.3660,-1.2515,0.4490,2.714
6.744000,-2.1951,-1.2127,0.4638,2.550
6.798000,-2.0385,-1.1827,0.5131,2.412
6.799000,-1.9081,-1.1474,0.5896,2.303
6.799000,-1.8206,-1.1284,0.6903,2.250
6.800000,-1.7663,-1.1351,0.8030,2.248
6.800000,-1.7260,-1.1628,0.8914,2.264
6.800000,-1.6661,-1.2064,0.9843,2.280
6.801000,-1.5891,-1.2585,1.0839,2.299
6.801000,-1.4925,-1.3383,1.1687,2.320
6.801000,-1.3860,-1.4240,1.2677,2.357
6.802000,-1.3056,-1.5299,1.3763,2.437
6.802000,-1.2394,-1.5841,1.4976,2.508
6.803000,-1.1634,-1.6152,1.6511,2.586
6.809000,-1.0731,-1.6380,1.8276,2.679
6.815000,-0.9852,-1.6574,2.0156,2.789
6.818000,-0.8974,-1.7047,2.2011,2.925
6.823000,-0.8193,-1.7969,2.3723,3.087
6.829000,-0.7247,-1.9195,2.5179,3.248
6.834000,-0.6209,-2.0989,2.6358,3.426
6.839000,-0.5582,-2.3397,2.7099,3.623
6.845000,-0.5702,-2.6323,2.7523,3.851
6.850000,-0.6759,-2.9260,2.7658,4.083
6.855000,-0.8488,-3.1866,2.7546,4.297
6.858000,-1.0363,-3.3680,2.7092,4.445
6.890000,-1.1737,-3.5129,2.6766,4.570
6.891000,-1.2227,-3.6474,2.6585,4.676
6.891000,-1.1663,-3.8361,2.6613,4.812
6.892000,-1.0476,-4.0144,2.6461,4.921
6.892000,-0.9288,-4.1661,2.5986,4.997
6.892000,-0.8171,-4.2315,2.4948,4.980
6.895000,-0.7098,-4.2036,2.3753,4.880
6.901000,-0.5927,-4.0944,2.2876,4.727
6.903000,-0.4752,-3.9404,2.2218,4.548
6.909000,-0.3449,-3.7701,2.1724,4.365
6.914000,-0.1757,-3.6035,2.1609,4.205
6.919000,0.0301,-3.4434,2.1726,4.072
6.923000,0.2488,-3.2997,2.1931,3.970
6.930000,0.4371,-3.1948,2.1939,3.900
6.933000,0.6143,-3.0978,2.1634,3.828
6.939000,0.7709,-3.0233,2.0920,3.756
6.944000,0.9137,-2.9620,1.9761,3.676
6.949000,1.0618,-2.9167,1.8615,3.619
6.954000,1.2102,-2.9257,1.7440,3.615
6.958000,1.3518,-2.9603,1.6285,3.639
7.005000,1.4914,-3.0183,1.4958,3.684
7.006000,1.6072,-3.0902,1.3584,3.739
7.006000,1.6873,-3.1856,1.2211,3.806
7.006000,1.7079,-3.2945,1.0865,3.867
7.007000,1.6880,-3.4117,0.9808,3.931
7.007000,1.6372,-3.5177,0.9211,3.988
7.007000,1.5316,-3.6120,0.9430,4.035
7.007000,1.3427,-3.7258,1.0850,4.106
7.008000,1.0850,-3.8514,1.3029,4.208
7.010000,0.8094,-3.9311,1.5526,4.303
7.014000,0.5592,-3.9503,1.7736,4.366
7.020000,0.3488,-3.9021,1.9609,4.381
7.024000,0.1783,-3.8415,2.1094,4.386
7.029000,0.0690,-3.7452,2.2200,4.354
7.034000,-0.0151,-3.6397,2.2977,4.304
7.039000,-0.1030,-3.5373,2.3240,4.234
7.044000,-0.1662,-3.4048,2.2971,4.111
7.048000,-0.2358,-3.2615,2.2029,3.943
7.054000,-0.2957,-3.1080,2.0693,3.745
7.059000,-0.3271,-2.9586,1.9013,3.532
7.068000,-0.3493,-2.8280,1.7066,3.321
7.069000,-0.3817,-2.7281,1.4764,3.125
7.074000,-0.4176,-2.6447,1.2255,2.945
7.078000,-0.5026,-2.5920,0.9736,2.814
7.140000,-0.6203,-2.5818,0.7331,2.755
7.141000,-0.7726,-2.5877,0.5055,2.747
7.141000,-0.9328,-2.6309,0.2710,2.804
7.141000,-1.0744,-2.6486,0.0386,2.859
7.142000,-1.1972,-2.6933,-0.1805,2.953
7.142000,-1.2816,-2.7336,-0.3916,3.044
7.142000,-1.3563,-2.7905,-0.5520,3.151
7.143000,-1.4090,-2.8327,-0.6768,3.235
7.143000,-1.4155,-2.8503,-0.7687,3.274
7.143000,-1.3877,-2.8576,-0.8379,3.285
7.144000,-1.3253,-2.8522,-0.8799,3.266
7.144000,-1.2692,-2.8412,-0.8945,3.238
7.144000,-1.1904,-2.8196,-0.8749,3.183
7.150000,-1.0532,-2.7708,-0.8163,3.075
7.154000,-0.8911,-2.7259,-0.6896,2.950
7.159000,-0.6971,-2.6803,-0.5213,2.818
7.166000,-0.4831,-2.6079,-0.3188,2.671
7.170000,-0.2707,-2.5020,-0.1344,2.520
7.175000,-0.0766,-2.3608,-0.0065,2.362
7.189000,0.0992,-2.1417,0.0721,2.145
7.190000,0.2400,-1.8882,0.1184,1.907
7.190000,0.3386,-1.6101,0.1276,1.650
7.195000,0.3688,-1.3387,0.1116,1.393
7.242000,0.3471,-1.1119,0.1167,1.171
7.243000,0.2928,-0.9129,0.1593,0.972
7.244000,0.2157,-0.7343,0.2297,0.799
7.244000,0.0893,-0.5759,0.3137,0.662
7.244000,-0.0978,-0.4282,0.4085,0.600
7.244000,-0.3246,-0.3098,0.5125,0.681
7.245000,-0.5236,-0.1844,0.6179,0.831
7.245000,-0.6519,-0.0545,0.7105,0.966
7.245000,-0.7048,0.0988,0.7690,1.048
7.245000,-0.7260,0.2369,0.8107,1.114
7.253000,-0.7538,0.3067,0.8263,1.160
7.255000,-0.7726,0.3275,0.8053,1.163
7.267000,-0.7878,0.3040,0.7413,1.124
7.268000,-0.8099,0.2503,0.6497,1.068
7.271000,-0.8610,0.1403,0.5074,1.009
7.275000,-0.9539,-0.0258,0.3059,1.002
7.283000,-1.0294,-0.2287,0.0553,1.056
7.285000,-1.1172,-0.4392,-0.2168,1.220
7.289000,-1.1984,-0.6551,-0.5053,1.456
7.294000,-1.2901,-0.8353,-0.8366,1.750
7.338000,-1.3679,-0.9510,-1.2133,2.061
7.339000,-1.3908,-1.0070,-1.6121,2.355
7.339000,-1.3534,-1.0244,-2.0074,2.629
7.340000,-1.2410,-1.0463,-2.3663,2.870
7.340000,-1.0410,-1.0559,-2.6899,3.071
7.340000,-0.8098,-1.0174,-3.0270,3.294
7.341000,-0.5803,-0.9690,-3.3643,3.549
7.341000,-0.3877,-0.9247,-3.6761,3.810
7.341000,-0.2385,-0.8766,-3.9562,4.059
7.344000,-0.1056,-0.8317,-4.1837,4.267
7.351000,-0.0150,-0.8159,-4.3355,4.412
7.354000,0.0243,-0.8311,-4.4193,4.497
7.359000,0.0053,-0.8530,-4.4404,4.522
7.364000,-0.0191,-0.8673,-4.4251,4.509
7.369000,-0.0441,-0.8497,-4.3474,4.430
7.374000,-0.0295,-0.7742,-4.2283,4.299
7.388000,0.0268,-0.6791,-4.0747,4.131
7.389000,0.1266,-0.5528,-3.9148,3.956
7.391000,0.2812,-0.4265,-3.7212,3.756
7.396000,0.4588,-0.3222,-3.5150,3.559
7.400000,0.6472,-0.2066,-3.2764,3.346
7.405000,0.8605,-0.0751,-3.0150,3.136
7.409000,1.0699,0.0839,-2.7330,2.936
7.452000,1.3019,0.2655,-2.4593,2.795
7.453000,1.5706,0.4433,-2.1769,2.721
7.453000,1.8999,0.6265,-1.8979,2.758
7.453000,2.3136,0.7910,-1.6220,2.934
7.454000,2.7971,0.9291,-1.3397,3.238
7.454000,3.3410,1.0546,-1.0704,3.663
7.454000,3.9023,1.1598,-0.8283,4.154
7.455000,4.4453,1.2464,-0.5879,4.654
7.455000,4.9392,1.3117,-0.3468,5.122
7.461000,5.3580,1.3195,-0.1031,5.519
7.465000,5.7211,1.3007,0.1262,5.868
7.469000,6.0314,1.2194,0.3380,6.163
7.474000,6.2818,1.1140,0.5490,6.403
7.480000,6.4563,0.9702,0.7393,6.571
7.485000,6.5739,0.7978,0.9282,6.687
7.489000,6.6396,0.6065,1.1036,6.758
7.495000,6.6438,0.4087,1.2872,6.780
7.501000,6.6295,0.2358,1.4743,6.796
7.505000,6.5678,0.0972,1.6797,6.780
7.509000,6.4325,0.0220,1.8913,6.705
7.562000,6.2327,0.0002,2.1098,6.580
7.563000,5.9993,0.0390,2.2976,6.424
7.564000,5.7703,0.1093,2.4335,6.263
7.565000,5.5716,0.1821,2.5087,6.113
7.565000,5.4196,0.2550,2.5477,5.994
7.566000,5.2899,0.3278,2.5367,5.876
7.566000,5.1175,0.4313,2.4719,5.700
7.567000,4.8734,0.5323,2.3827,5.451
7.567000,4.5837,0.6576,2.3345,5.186
7.568000,4.2745,0.8218,2.3826,4.962
7.569000,4.0614,1.0423,2.5046,4.884
7.571000,3.9347,1.3283,2.6932,4.950
7.575000,3.7798,1.6389,2.9457,5.065
7.586000,3.4035,2.2105,3.5989,5.424
7.587000,3.3613,2.1718,3.6589,5.422
7.591000,3.0962,2.3816,4.0634,5.636
7.595000,2.7913,2.5674,4.4103,5.817
7.600000,2.4521,2.7507,4.6488,5.932
7.605000,2.0911,2.9439,4.8016,6.008
7.611000,1.7161,3.1618,4.8775,6.061
7.656000,1.3512,3.4001,4.9023,6.117
7.657000,1.0470,3.6549,4.8871,6.192
7.658000,0.8177,3.8882,4.8821,6.295
7.658000,0.6821,4.0952,4.8920,6.416
7.658000,0.6546,4.2784,4.9168,6.550
7.659000,0.7109,4.4252,4.9255,6.660
7.660000,0.8220,4.5206,4.9021,6.719
7.660000,0.9731,4.5473,4.8157,6.694
7.660000,1.1400,4.4875,4.6699,6.576
7.661000,1.2699,4.3356,4.4272,6.325
7.665000,1.3290,4.0865,4.0764,5.923
7.671000,1.3411,3.7784,3.6422,5.417
7.675000,1.2990,3.4303,3.1180,4.814
7.680000,1.2100,3.0386,2.5350,4.138
7.685000,1.1125,2.6300,1.9052,3.433
7.691000,0.9848,2.2102,1.2646,2.730
7.696000,0.8438,1.7776,0.6584,2.075
7.701000,0.7135,1.3422,0.1153,1.524
7.705000,0.5940,0.9349,-0.3326,1.157
7.710000,0.5453,0.5465,-0.6860,1.033
7.716000,0.5674,0.1847,-0.9099,1.088
7.720000,0.6559,-0.1527,-1.0201,1.222
7.725000,0.8039,-0.4894,-1.0222,1.389
7.735000,0.9348,-0.8190,-0.9313,1.553
7.737000,1.0466,-1.1408,-0.7696,1.729
7.740000,1.1129,-1.4436,-0.5614,1.907
7.791000,1.1413,-1.7322,-0.3356,2.101
7.792000,1.1364,-1.9876,-0.1283,2.293
7.792000,1.0937,-2.2338,0.0846,2.489
7.793000,1.0300,-2.5046,0.2814,2.723
7.793000,0.9424,-2.7750,0.4725,2.968
7.794000,0.8260,-3.0286,0.6250,3.201
7.794000,0.6732,-3.2652,0.7711,3.422
7.794000,0.5339,-3.4775,0.8925,3.630
7.795000,0.3863,-3.6681,0.9969,3.821
7.795000,0.2416,-3.8819,1.0689,4.034
7.801000,0.0995,-4.1095,1.0975,4.255
7.807000,-0.0285,-4.3698,1.0834,4.502
7.808000,-0.1598,-4.6338,1.0132,4.746
7.812000,-0.2899,-4.9203,0.8971,5.010
7.818000,-0.4048,-5.2146,0.7233,5.280
7.823000,-0.5100,-5.4991,0.4975,5.545
7.826000,-0.5842,-5.7876,0.2555,5.823
7.838000,-0.6565,-6.0655,0.0287,6.101
7.842000,-0.7341,-6.3395,-0.1781,6.384
7.843000,-0.8006,-6.6283,-0.3579,6.686
7.897000,-0.8511,-6.9196,-0.5324,6.992
7.898000,-0.8977,-7.1916,-0.7209,7.283
7.899000,-0.9306,-7.4466,-0.9022,7.559
7.899000,-0.9615,-7.6748,-1.0624,7.807
7.899000,-0.9757,-7.8810,-1.2117,8.033
7.900000,-1.0112,-8.0697,-1.3600,8.246
7.900000,-1.0485,-8.2271,-1.5172,8.431
7.901000,-1.1113,-8.3694,-1.6954,8.611
7.901000,-1.1850,-8.5062,-1.8946,8.795
7.901000,-1.2623,-8.6418,-2.1077,8.984
7.902000,-1.2954,-8.7954,-2.3177,9.187
7.902000,-1.2651,-8.9588,-2.5337,9.396
7.906000,-1.2123,-9.1472,-2.7765,9.636
7.912000,-1.1181,-9.3383,-3.0262,9.880
7.915000,-1.0015,-9.4840,-3.2725,10.083
7.921000,-0.8602,-9.5679,-3.4912,10.221
7.925000,-0.6985,-9.5639,-3.6792,10.271
7.932000,-0.5475,-9.5219,-3.8366,10.280
7.939000,-0.4161,-9.4203,-3.9725,10.232
7.940000,-0.2846,-9.2373,-4.0728,10.099
7.991000,-0.0905,-8.9547,-4.1588,9.874
7.992000,0.1451,-8.6027,-4.2402,9.592
7.994000,0.3864,-8.2033,-4.2949,9.268
7.996000,0.6119,-7.8080,-4.3013,8.935
7.997000,0.7976,-7.4319,-4.2730,8.610
7.999000,0.9217,-7.0814,-4.1978,8.284
8.001000,0.9986,-6.7201,-4.0878,7.929
8.002000,1.0141,-6.2663,-3.9464,7.475
8.003000,0.8995,-5.6876,-3.8374,6.920
8.004000,0.5980,-5.0429,-3.8185,6.354
8.007000,0.0911,-4.4305,-3.8701,5.884
8.007000,-0.6325,-3.9294,-3.9918,5.637
8.008000,-1.5293,-3.5770,-4.1922,5.719
8.012000,-2.5557,-3.3423,-4.4431,6.119
8.019000,-3.6159,-3.2321,-4.7215,6.769
8.022000,-4.7073,-3.2315,-4.9673,7.568
8.027000,-5.7127,-3.2766,-5.1249,8.345
8.033000,-6.6204,-3.3877,-5.2275,9.090
8.036000,-7.4379,-3.5447,-5.3026,9.798
8.041000,-8.1346,-3.7052,-5.3654,10.425
8.054000,-8.6201,-3.8379,-5.4364,10.890
8.057000,-8.9064,-3.9893,-5.5244,11.214
8.058000,-9.0272,-4.1657,-5.5710,11.397
8.061000,-9.0187,-4.3142,-5.5327,11.426
8.120000,-8.9501,-4.3696,-5.4040,11.331
8.122000,-8.9104,-4.3215,-5.1825,11.177
8.123000,-8.8493,-4.2388,-4.8103,10.928
8.124000,-8.5895,-4.1886,-4.2253,10.449
8.125000,-8.0256,-4.2377,-3.4953,9.726
8.126000,-7.2390,-4.4461,-2.7669,8.935
8.127000,-6.3539,-4.8033,-2.1782,8.258
8.128000,-5.4380,-5.1983,-1.7647,7.727
8.129000,-4.4572,-5.4649,-1.4178,7.193
8.130000,-3.3087,-5.5722,-1.0367,6.563
8.132000,-1.9754,-5.4947,-0.5913,5.869
8.133000,-0.5004,-5.2597,-0.1400,5.285
8.134000,1.1047,-4.9058,0.2849,5.037
8.134000,2.8174,-4.4458,0.6363,5.302
8.139000,4.6088,-3.8991,0.9307,6.108
8.141000,6.4208,-3.3148,1.1649,7.319
8.147000,8.2098,-2.7371,1.3456,8.758
8.153000,9.8961,-2.1934,1.4864,10.245
8.156000,11.4725,-1.6809,1.6091,11.706
8.162000,12.9038,-1.1734,1.7178,13.070
8.167000,14.1516,-0.6106,1.7837,14.277
8.172000,15.1892,0.0214,1.7833,15.294
8.176000,16.0472,0.7509,1.6853,16.153
8.237000,16.6948,1.5425,1.5284,16.835
8.238000,17.1281,2.3518,1.3487,17.341
8.238000,17.3642,3.1436,1.1680,17.685
8.239000,17.4506,3.8726,1.0133,17.904
8.239000,17.4182,4.5222,0.8919,18.018
8.240000,17.3338,5.0974,0.7678,18.084
8.240000,17.1879,5.6082,0.5959,18.090
8.240000,16.9697,6.0491,0.3503,18.019
8.241000,16.6294,6.4425,0.0484,17.834
8.241000,16.1524,6.7913,-0.2610,17.524
8.241000,15.5631,7.0867,-0.5337,17.109
8.242000,14.9149,7.3514,-0.8097,16.648
8.242000,14.2938,7.6312,-1.0880,16.240
8.246000,13.7219,7.9367,-1.2889,15.904
8.253000,13.2308,8.2709,-1.4024,15.666
8.257000,12.8226,8.6245,-1.3706,15.514
8.263000,12.4995,8.9830,-1.1770,15.438
8.269000,12.2450,9.3656,-0.8796,15.441
8.274000,11.9939,9.8004,-0.5291,15.498
8.276000,11.7269,10.2826,-0.1111,15.597
8.340000,11.4464,10.8118,0.4266,15.751
8.341000,11.1885,11.3616,1.0615,15.981
8.341000,10.9820,11.9173,1.7207,16.297
8.342000,10.8102,12.4594,2.3912,16.668
8.342000,10.6826,13.0090,3.0618,17.109
8.342000,10.5224,13.5149,3.7241,17.528
8.343000,10.2840,13.9455,4.3267,17.859
8.343000,9.9170,14.2669,4.8327,18.035
8.343000,9.4314,14.5338,5.1792,18.083
8.344000,8.8441,14.7604,5.3468,18.019
8.344000,8.1800,14.9666,5.3239,17.868
8.345000,7.4465,15.1786,5.1350,17.669
8.345000,6.6677,15.3612,4.8079,17.422
8.349000,5.8776,15.4935,4.3799,17.140
8.353000,5.1288,15.5492,3.8997,16.831
8.357000,4.4528,15.5245,3.3635,16.497
8.362000,3.8518,15.4502,2.7715,16.163
8.367000,3.3162,15.3455,2.0883,15.838
8.372000,2.8984,15.2462,1.3239,15.576
8.376000,2.5695,15.1453,0.4602,15.369
8.383000,2.3409,15.0567,-0.4705,15.245
8.387000,2.2320,14.9385,-1.4211,15.171
8.391000,2.2425,14.7644,-2.3095,15.111
8.454000,2.3602,14.5227,-3.1087,15.038
8.455000,2.5784,14.2284,-3.8183,14.956
8.455000,2.8634,13.8409,-4.4118,14.807
8.456000,3.1720,13.3624,-4.8148,14.553
8.456000,3.4596,12.8083,-5.0162,14.184
8.457000,3.7404,12.1511,-5.0481,13.679
8.457000,3.6582,11.3571,-4.9738,12.927
8.458000,4.3830,10.4303,-4.8088,12.293
8.458000,4.7178,9.3529,-4.5708,11.429
8.458000,5.0421,8.1212,-4.2558,10.464
8.459000,5.3700,6.7656,-3.9021,9.478
8.459000,5.6637,5.3105,-3.5599,8.541
8.460000,5.9332,3.8142,-3.2334,7.759
8.463000,6.1913,2.2946,-2.8101,7.176
8.468000,6.5052,0.7994,-2.2399,6.926
8.473000,6.8453,-0.6857,-1.5530,7.053
8.478000,7.1636,-2.1323,-0.7784,7.515
8.484000,7.5372,-3.5375,0.1238,8.327
8.488000,7.9566,-4.9827,1.1429,9.457
8.492000,8.2821,-6.6028,2.3689,10.854
8.558000,8.3360,-9.8441,6.5488,14.467
8.558000,9.4393,-11.9367,10.0712,18.249
8.559000,8.6169,-11.5584,9.3514,17.184
8.560000,6.2747,-10.6785,7.1849,14.319
8.560000,3.8049,-10.6235,5.3176,12.474
8.561000,2.9395,-11.3205,4.2919,12.459
8.562000,4.0738,-12.2799,3.6983,13.456
8.563000,6.3604,-13.0286,4.0861,15.063
8.564000,8.7534,-13.3639,3.4901,16.352
8.565000,10.0841,-13.5035,3.2571,17.165
8.566000,10.1989,-13.5284,4.0940,17.430
8.567000,9.6507,-13.3565,4.9192,17.197
8.568000,9.0413,-12.9313,5.0100,16.555
8.568000,8.5319,-12.6166,4.6478,15.924
8.569000,8.0547,-12.7266,4.0918,15.607
8.573000,7.5359,-13.2164,3.3824,15.585
8.577000,6.8769,-13.8478,2.6439,15.686
8.589000,5.2202,-14.4476,1.4444,15.429
8.590000,5.2012,-14.5556,1.4332,15.523
8.592000,4.2841,-14.5461,0.9036,15.191
8.599000,3.4459,-14.3990,0.3744,14.810
8.603000,2.7413,-14.2598,-0.1280,14.521
8.606000,2.1410,-14.1744,-0.5435,14.345
8.611000,1.5854,-14.0938,-0.8423,14.208
8.667000,1.0126,-13.9927,-1.0526,14.069
8.668000,0.4160,-13.8399,-1.2166,13.899
8.669000,-0.1612,-13.6283,-1.3882,13.700
8.669000,-0.6926,-13.3937,-1.6133,13.508
8.670000,-1.1547,-13.1557,-1.8651,13.337
8.670000,-1.5479,-12.9284,-2.1164,13.192
8.670000,-1.9038,-12.7412,-2.3711,13.099
8.671000,-2.2803,-12.5777,-2.6213,13.049
8.671000,-2.6561,-12.4430,-2.8685,13.043
8.672000,-3.0506,-12.3181,-3.0884,13.061
8.672000,-3.4758,-12.2144,-3.3167,13.125
8.673000,-3.9774,-12.1011,-3.5648,13.227
8.678000,-4.4907,-11.9326,-3.8228,13.310
8.685000,-5.0330,-11.7235,-4.0973,13.400
8.687000,-5.5969,-11.4998,-4.3663,13.514
8.692000,-6.1921,-11.3020,-4.6109,13.687
8.700000,-6.8039,-11.1439,-4.8318,13.922
8.705000,-7.3817,-10.9982,-5.0320,14.169
8.706000,-7.8607,-10.8119,-5.2029,14.344
8.711000,-8.2337,-10.5875,-5.3638,14.445
8.767000,-8.4986,-10.2993,-5.5023,14.442
8.768000,-8.6818,-9.9601,-5.5942,14.348
8.768000,-8.8125,-9.5692,-5.6243,14.173
8.769000,-8.9508,-9.1612,-5.5895,13.975
8.769000,-9.1330,-8.7853,-5.4745,13.804
8.770000,-9.4142,-8.4761,-5.2643,13.718
8.770000,-9.7563,-8.2294,-4.9852,13.703
8.771000,-10.1518,-8.0313,-4.6826,13.765
8.771000,-10.6149,-7.8894,-4.3838,13.933
8.772000,-11.1071,-7.8058,-4.0769,14.175
8.772000,-11.6354,-7.7925,-3.7738,14.503
8.773000,-12.2168,-7.8706,-3.5148,14.952
8.778000,-12.2126,-8.0318,-3.2661,14.977
8.783000,-12.8688,-8.3065,-2.9642,15.601
8.789000,-13.5645,-8.6857,-2.5533,16.308
8.792000,-14.2602,-9.0916,-1.9963,17.029
8.796000,-14.9571,-9.4106,-1.3300,17.721
8.802000,-15.7928,-9.6789,-0.5592,18.531
8.807000,-16.7424,-9.9416,0.2625,19.473
8.813000,-17.6069,-10.2243,0.9526,20.382
8.818000,-18.0582,-10.4632,1.2509,20.908
8.822000,-17.8339,-10.6466,1.1116,20.800
8.828000,-17.0525,-10.8060,0.7920,20.204
8.890000,-15.9687,-10.9082,0.5372,19.346
8.894000,-14.6594,-10.9434,0.4022,18.298
8.896000,-11.2840,-10.8665,0.3255,15.669
8.898000,-9.2069,-10.6927,0.2859,14.113
8.900000,-6.9871,-10.4364,0.3146,12.563
8.902000,-4.6946,-10.1121,0.4336,11.157
8.904000,-2.3994,-9.7774,0.6403,10.088
8.905000,-0.2932,-9.4794,0.9389,9.530
8.907000,1.5015,-9.2720,1.3392,9.488
8.908000,2.9883,-9.1595,1.8096,9.803
8.909000,4.2329,-9.1035,2.2008,10.278
8.910000,5.2675,-9.0633,2.3354,10.740
8.911000,6.1148,-8.9779,2.2187,11.087
8.913000,6.8248,-8.8846,1.8098,11.349
8.914000,7.4579,-8.8319,1.1508,11.617
8.914000,8.0576,-8.8613,0.3536,11.982
8.915000,8.6792,-8.9285,-0.4910,12.461
8.920000,9.3876,-8.9702,-1.3002,13.049
8.922000,10.2674,-8.8751,-2.0972,13.733
8.928000,11.3844,-8.5422,-3.0464,14.555
8.933000,12.7555,-7.9019,-4.2662,15.600
8.938000,14.4203,-6.9145,-5.7590,16.998
8.951000,16.3005,-5.5690,-7.3780,18.739
8.954000,18.2720,-3.9220,-8.8546,20.680
8.955000,20.1419,-2.0889,-9.9493,22.562
8.960000,21.7801,-0.1614,-10.5792,24.214
8.969000,23.1208,1.7188,-10.6196,25.501
8.970000,24.0793,3.4810,-10.0524,26.325
9.015000,24.6952,5.0618,-8.8870,26.729
9.016000,25.0045,6.4581,-7.2537,26.824
9.016000,24.9888,7.6646,-5.3825,26.686
9.017000,24.6220,8.7357,-3.5574,26.367
9.017000,23.8825,9.6277,-1.9707,25.825
9.017000,22.7925,10.3529,-0.7536,25.045
9.018000,21.4296,10.9363,0.0388,24.059
9.018000,19.9150,11.4398,0.4361,22.971
9.019000,18.3661,11.9004,0.5434,21.891
9.020000,16.8724,12.2938,0.5881,20.884
9.023000,15.5182,12.6713,0.6914,20.046
9.028000,14.3156,13.0528,0.8706,19.393
9.032000,13.2528,13.4626,1.1210,18.924
9.037000,12.2796,13.8771,1.4376,18.586
9.042000,11.3790,14.2815,1.8055,18.349
9.048000,10.5321,14.6711,2.1927,18.193
9.052000,9.7749,15.0458,2.5552,18.123
9.057000,9.1120,15.4483,2.7870,18.151
9.100000,8.5099,15.8520,2.8254,18.212
9.101000,7.9491,16.2566,2.6346,18.287
9.103000,7.4149,16.6618,2.2320,18.373
9.104000,6.8809,17.0270,1.6859,18.442
9.106000,6.2868,17.2948,1.1072,18.435
9.108000,5.6067,17.4343,0.5159,18.321
9.110000,4.8795,17.4748,-0.0951,18.144
9.111000,4.1375,17.4868,-0.6560,17.982
9.112000,3.3981,17.4634,-1.1338,17.827
9.114000,2.6907,17.3955,-1.5911,17.674
9.115000,2.0802,17.2402,-2.1116,17.493
9.120000,1.5976,17.0528,-2.6709,17.334
9.123000,1.2222,16.8368,-3.2322,17.188
9.129000,0.9080,16.5873,-3.7184,17.023
9.134000,0.6383,16.2400,-4.0381,16.747
9.139000,0.4110,15.7833,-4.2512,16.351
9.143000,0.1952,15.2102,-4.4035,15.836
9.150000,0.0218,14.5708,-4.4928,15.248
9.154000,-0.0582,13.9069,-4.5141,14.621
9.157000,-0.0739,13.2180,-4.5034,13.964
9.224000,0.0058,12.4877,-4.4724,13.264
9.225000,0.1978,11.7020,-4.4593,12.524
9.226000,0.5592,10.8350,-4.4919,11.743
9.227000,1.1254,9.9466,-4.5261,10.986
9.227000,1.9512,9.0882,-4.5075,10.331
9.228000,2.9565,8.2566,-4.4112,9.817
9.228000,4.0614,7.4515,-4.1765,9.459
9.229000,5.1629,6.6678,-3.8201,9.258
9.229000,6.1840,5.8639,-3.2965,9.137
9.230000,7.1636,5.0692,-2.5825,9.148
9.230000,8.0639,4.2874,-1.7229,9.294
9.231000,8.8329,3.4700,-0.7154,9.517
9.231000,9.5316,2.6120,0.4340,9.893
9.232000,10.1923,1.6932,1.5850,10.453
9.233000,10.7725,0.7434,2.6001,11.107
9.238000,11.2568,-0.2369,3.3549,11.748
9.244000,11.6811,-1.1936,3.7557,12.328
9.250000,12.0912,-2.0811,3.7746,12.837
9.253000,12.5133,-2.9277,3.4614,13.309
9.259000,12.9635,-3.7266,2.9600,13.809
9.263000,13.4252,-4.4611,2.2687,14.328
9.308000,13.8543,-5.1560,1.4338,14.852
9.309000,14.2283,-5.8519,0.5809,15.396
9.310000,14.5010,-6.5609,-0.2324,15.918
9.310000,14.6145,-7.3047,-0.9251,16.365
9.311000,14.5162,-8.0767,-1.4797,16.678
9.311000,14.2429,-8.8694,-1.8624,16.882
9.311000,13.7977,-9.6877,-2.0358,16.981
9.312000,13.2124,-10.5161,-2.0105,17.006
9.312000,12.5145,-11.3156,-1.8172,16.969
9.321000,11.7909,-12.0426,-1.5345,16.923
9.322000,11.0254,-12.6784,-1.1979,16.844
9.324000,10.2528,-13.2349,-0.8458,16.763
9.329000,9.4831,-13.6936,-0.5187,16.665
9.334000,8.7501,-14.0872,-0.2444,16.585
9.338000,8.0134,-14.4488,-0.0023,16.522
9.343000,7.2779,-14.8145,0.2306,16.507
9.348000,6.5867,-15.1386,0.4799,16.516
9.353000,5.9470,-15.3931,0.7450,16.519
9.358000,5.3561,-15.5828,1.0067,16.508
9.366000,4.7897,-15.7150,1.1745,16.471
9.369000,4.2140,-15.8258,1.2230,16.423
9.374000,3.6213,-15.9352,1.2083,16.386
9.378000,2.9801,-16.0605,1.1437,16.375
9.455000,2.2878,-16.2141,1.0445,16.408
9.456000,1.4912,-16.3834,0.9023,16.476
9.457000,0.5995,-16.5224,0.7230,16.549
9.457000,-0.3661,-16.5899,0.5293,16.602
9.458000,-1.3751,-16.5858,0.2885,16.645
9.458000,-2.4235,-16.5135,0.0125,16.690
9.459000,-3.4546,-16.3639,-0.2499,16.726
9.459000,-4.4809,-16.2014,-0.4835,16.817
9.460000,-5.4527,-15.9996,-0.7189,16.919
9.460000,-6.3464,-15.7800,-1.0441,17.040
9.461000,-7.1316,-15.5448,-1.5158,17.170
9.461000,-7.7613,-15.3026,-2.1540,17.293
9.462000,-8.2073,-15.0388,-2.9149,17.379
9.462000,-8.4870,-14.7462,-3.6831,17.408
9.462000,-8.6504,-14.4583,-4.3826,17.409
9.463000,-8.7644,-14.1853,-4.9763,17.401
9.463000,-8.8163,-13.8657,-5.4870,17.323
9.468000,-8.8250,-13.5269,-5.9681,17.218
9.475000,-8.8116,-13.1672,-6.4085,17.091
9.480000,-8.8069,-12.8431,-6.7559,16.975
9.485000,-8.8848,-12.5916,-6.9725,16.915
9.489000,-9.0830,-12.4180,-7.0134,16.908
9.493000,-9.4293,-12.3280,-6.9190,16.993
9.540000,-9.8897,-12.2688,-6.7359,17.138
9.541000,-10.4827,-12.2143,-6.4917,17.356
9.541000,-11.1719,-12.1691,-6.2041,17.646
9.542000,-11.8779,-12.1326,-5.8713,17.965
9.543000,-11.8735,-12.0794,-5.4877,17.805
9.543000,-12.5222,-12.0213,-5.0731,18.085
9.544000,-13.1583,-11.9847,-4.6471,18.395
9.544000,-13.8152,-12.0265,-4.1978,18.791
9.545000,-14.4833,-12.1527,-3.7277,19.270
9.545000,-15.1482,-12.3925,-3.1765,19.828
9.549000,-15.7618,-12.6443,-2.4654,20.357
9.554000,-16.2834,-12.8946,-1.5943,20.832
9.560000,-16.6890,-13.0870,-0.6294,21.218
9.565000,-16.9787,-13.1807,0.3133,21.497
9.568000,-17.0597,-13.1560,1.1830,21.576
9.574000,-16.8625,-13.0340,1.8856,21.396
9.585000,-16.2780,-12.8881,2.3512,20.895
9.586000,-15.2922,-12.7583,2.5606,20.079
9.589000,-13.9583,-12.6164,2.6857,19.006
9.594000,-10.2471,-12.4017,2.8503,16.338
9.600000,-7.8151,-11.9958,3.1104,14.651
9.605000,-5.0759,-11.3519,3.4071,12.893
9.608000,-2.2477,-10.6071,3.6867,11.452
9.684000,0.3456,-9.9110,3.9436,10.672
9.684000,2.4959,-9.3377,4.1598,10.523
9.685000,4.3135,-8.8927,4.2878,10.774
9.685000,5.8087,-8.5779,4.2784,11.208
9.686000,6.8812,-8.4141,4.0716,11.607
9.686000,7.5179,-8.3824,3.6321,11.831
9.686000,7.8140,-8.4280,2.9507,11.866
9.687000,7.8859,-8.4791,1.9249,11.738
9.687000,7.8575,-8.5275,0.5785,11.610
9.688000,7.8493,-8.5167,-0.8853,11.616
9.688000,7.8963,-8.3743,-2.2318,11.724
9.688000,7.9880,-8.1440,-3.3610,11.892
9.689000,8.3001,-7.7406,-4.2970,12.136
9.689000,9.0080,-7.0560,-5.1470,12.547
9.689000,10.1528,-6.0132,-6.0317,13.252
9.690000,11.3115,-4.5556,-6.9121,14.017
9.696000,13.0195,-2.8965,-7.5841,15.343
9.699000,14.7370,-1.0240,-8.2638,16.927
9.704000,17.3788,0.7045,-8.5419,19.377
9.709000,20.1798,2.4180,-8.4240,22.001
9.716000,22.6894,4.1033,-7.8962,24.372
9.721000,24.6372,5.7306,-6.8929,26.217
9.723000,25.9958,7.2987,-5.5793,27.571
9.728000,26.5276,8.7559,-4.1110,28.236
9.774000,26.1897,10.0851,-2.7715,28.201
9.775000,25.2737,11.2782,-1.5650,27.720
9.775000,23.9616,12.2755,-0.5535,26.929
9.776000,22.3488,13.0458,0.2958,25.880
9.776000,20.5878,13.5578,0.9773,24.670
9.777000,18.8456,13.8543,1.5214,23.440
9.777000,17.2267,14.0069,1.9250,22.286
9.778000,15.8163,14.1203,2.1642,21.312
9.778000,14.6528,14.2835,2.2053,20.581
9.778000,13.7438,14.5692,2.0708,20.136
9.785000,13.0578,14.9750,1.8618,19.956
9.790000,12.5275,15.4719,1.6096,19.973
9.795000,12.0397,15.9855,1.3720,20.059
9.799000,11.5150,16.4938,1.1920,20.151
9.805000,10.9028,16.9721,1.0331,20.199
9.809000,10.1766,17.3940,0.8930,20.172
9.871000,9.4085,17.7501,0.7572,20.104
9.872000,8.6706,18.0553,0.6140,20.039
9.873000,7.9772,18.3096,0.4735,19.977
9.873000,7.2970,18.5010,0.3838,19.892
9.873000,6.6278,18.6630,0.2587,19.807
9.874000,5.9142,18.7713,0.0359,19.681
9.874000,5.1421,18.8568,-0.3159,19.548
9.875000,4.3141,18.8958,-0.7675,19.397
9.875000,3.4593,18.8478,-1.2804,19.205
9.876000,2.6505,18.7260,-1.8372,19.002
9.876000,1.9286,18.5140,-2.4471,18.774
9.877000,1.2674,18.2767,-3.0809,18.578
9.877000,0.7152,17.9955,-3.6687,18.380
9.880000,0.2986,17.6709,-4.2103,18.168
9.884000,0.0218,17.2476,-4.6835,17.872
9.889000,-0.1744,16.7507,-5.0496,17.496
9.895000,-0.2687,16.1896,-5.3177,17.043
9.900000,-0.2421,15.5452,-5.4926,16.489
9.904000,-0.1209,14.8510,-5.6175,15.878
9.909000,0.0251,14.1114,-5.7236,15.228
9.916000,0.2230,13.3395,-5.8245,14.557
9.919000,0.4437,12.4993,-5.9076,13.832
9.924000,0.7545,11.6032,-5.9723,13.072
9.976000,1.2105,10.6878,-5.9845,12.309
9.976000,1.8117,9.7651,-5.9348,11.570
9.977000,2.5603,8.8182,-5.8305,10.877
9.977000,3.4379,7.8818,-5.6461,10.287
9.978000,4.4658,7.0011,-5.3774,9.893
9.978000,5.6440,6.1784,-5.0103,9.753
9.978000,6.9170,5.4442,-4.5642,9.915
9.979000,8.2676,4.7688,-3.8961,10.309
9.979000,9.7119,4.0257,-2.9215,10.912
9.980000,11.1400,3.1377,-1.7060,11.699
9.980000,12.4846,2.1148,-0.3458,12.667
9.988000,13.7078,1.0203,1.0022,13.782
9.992000,14.7622,-0.1229,2.1896,14.924
9.994000,15.5858,-1.2683,3.1792,15.957
10.002000,16.1611,-2.3473,3.8892,16.787
10.004000,16.4480,-3.3341,4.2510,17.313
10.009000,16.4451,-4.2321,4.2387,17.502
10.021000,16.2943,-5.0829,4.0638,17.546
10.023000,16.0871,-5.8565,3.7527,17.526
10.024000,15.8855,-6.5796,3.3030,17.509
10.092000,15.6971,-7.3190,2.8068,17.546
10.094000,15.4925,-8.0683,2.2496,17.612
10.094000,15.2165,-8.8104,1.6245,17.658
10.095000,14.8809,-9.5519,1.0127,17.712
10.095000,14.4757,-10.2645,0.4734,17.752
10.096000,13.9990,-10.9574,0.0602,17.778
10.096000,13.4364,-11.6790,-0.2061,17.804
10.097000,12.7740,-12.3952,-0.3294,17.802
10.098000,11.9909,-13.0767,-0.3838,17.746
10.098000,11.1259,-13.7251,-0.4415,17.674
10.098000,10.2299,-14.2975,-0.5479,17.589
10.099000,9.3775,-14.7430,-0.7155,17.487
10.099000,8.5495,-15.0883,-0.9487,17.368
10.100000,7.7557,-15.3499,-1.1844,17.239
10.100000,6.9695,-15.5539,-1.3641,17.098
10.105000,6.1980,-15.7527,-1.4314,16.989
10.110000,5.3958,-15.9781,-1.3825,16.921
10.115000,4.5292,-16.2156,-1.2542,16.883
10.119000,3.6436,-16.4533,-1.1042,16.888
10.124000,2.7577,-16.6594,-0.9921,16.915
10.131000,1.8998,-16.8143,-0.9288,16.947
10.134000,1.1267,-16.9033,-0.9654,16.968
10.139000,0.4621,-16.9414,-1.1682,16.988
10.145000,-0.0618,-16.9392,-1.4595,17.002
10.150000,-0.5606,-16.8933,-1.7676,16.995
10.155000,-1.1354,-16.8571,-1.9748,17.010
10.160000,-1.8417,-16.8216,-2.0560,17.047
10.230000,-2.7081,-16.8067,-2.0302,17.144
10.231000,-3.7113,-16.8420,-1.9493,17.356
10.232000,-4.7913,-16.8773,-1.8904,17.646
10.234000,-5.9175,-16.9096,-1.9609,18.022
10.235000,-7.0973,-16.9762,-2.2037,18.532
10.236000,-8.3098,-17.0469,-2.5777,19.139
10.237000,-9.4405,-17.0532,-3.0401,19.728
10.238000,-10.3824,-16.9791,-3.5649,20.219
10.241000,-11.0497,-16.8333,-4.1168,20.552
10.242000,-11.4021,-16.6325,-4.6123,20.686
10.243000,-11.4828,-16.4205,-4.9800,20.647
10.245000,-11.3633,-16.2153,-5.1920,20.470
10.247000,-11.1055,-15.9924,-5.2605,20.168
10.248000,-10.7042,-15.7629,-5.2313,19.759
10.250000,-10.2333,-15.5481,-5.1476,19.312
10.252000,-9.7162,-15.3140,-5.0617,18.829
10.253000,-9.2627,-15.0820,-4.9565,18.380
10.253000,-8.9945,-14.8870,-4.7356,18.026
10.255000,-8.9995,-14.7263,-4.3704,17.803
10.260000,-9.2654,-14.6099,-3.8638,17.726
10.273000,-9.7195,-14.4973,-3.2388,17.752
10.277000,-10.2657,-14.3839,-2.6287,17.866
10.277000,-10.8556,-14.2835,-2.0852,18.061
10.353000,-11.5035,-14.2382,-1.5851,18.373
10.354000,-12.2450,-14.2880,-1.0833,18.848
10.355000,-12.2360,-14.4738,-0.5325,18.960
10.355000,-13.0196,-14.7285,0.0709,19.658
10.356000,-13.7886,-14.9325,0.7376,20.338
10.356000,-14.4805,-15.0458,1.4475,20.932
10.357000,-15.0375,-15.0305,2.1092,21.366
10.357000,-15.3666,-14.9372,2.6785,21.597
10.358000,-15.3748,-14.8032,3.1240,21.570
10.358000,-14.9811,-14.6741,3.3785,21.241
10.359000,-14.2315,-14.6051,3.4106,20.676
10.359000,-11.9379,-14.5544,3.2387,19.101
10.360000,-10.3758,-14.4548,2.9529,18.037
10.360000,-8.5967,-14.2411,2.6437,16.843
10.361000,-6.4517,-13.8853,2.3726,15.494
10.361000,-3.9093,-13.3990,2.1554,14.123
10.362000,-1.1155,-12.8257,2.0395,13.035
10.368000,1.6740,-12.1292,1.9948,12.406
10.375000,4.2269,-11.3867,1.9389,12.300
10.375000,6.4506,-10.5893,1.7775,12.526
10.380000,8.4222,-9.7708,1.4738,12.984
10.386000,10.2666,-8.9242,0.9651,13.637
10.392000,12.1279,-8.0338,0.2179,14.549
10.464000,14.0071,-7.1360,-0.6967,15.736
10.465000,15.8824,-6.2254,-1.6960,17.143
10.465000,17.6264,-5.3456,-2.7336,18.621
10.466000,19.1426,-4.4969,-3.8054,20.029
10.466000,20.3805,-3.6235,-4.8041,21.250
10.466000,21.3738,-2.6475,-5.6184,22.258
10.467000,22.0874,-1.5467,-6.1983,22.993
10.467000,22.4688,-0.3872,-6.4904,23.391
10.467000,22.5128,0.7849,-6.4681,23.437
10.468000,22.2911,1.9066,-6.1944,23.214
10.468000,21.8953,2.9736,-5.8165,22.849
10.469000,21.3790,3.9476,-5.4283,22.408
10.469000,20.7636,4.8557,-5.0534,21.914
10.469000,20.0055,5.6616,-4.6627,21.308
10.470000,19.1043,6.3559,-4.2604,20.580
10.471000,18.2319,6.9746,-3.8180,19.890
10.477000,17.6637,7.5737,-3.2804,19.497
10.481000,17.4456,8.2179,-2.6085,19.460
10.486000,17.3685,8.9209,-1.8697,19.615
10.492000,17.1675,9.6070,-1.1530,19.706
10.497000,16.7026,10.2222,-0.4277,19.587
10.502000,15.9071,10.7212,0.2960,19.185
10.506000,14.8195,11.1201,0.9437,18.552
10.512000,13.4895,11.4326,1.4401,17.741
10.587000,12.0405,11.6743,1.7890,16.866
10.588000,10.5840,11.9495,1.9925,16.087
10.588000,9.2069,12.2783,2.0932,15.489
10.589000,7.9507,12.7122,2.1488,15.147
10.589000,6.8441,13.2532,2.1465,15.070
10.589000,5.8778,13.8995,2.0840,15.234
10.590000,5.0757,14.5676,2.0189,15.558
10.590000,4.4088,15.2096,1.9411,15.954
10.590000,3.8675,15.8185,1.8218,16.386
10.591000,3.4058,16.3818,1.7199,16.820
10.591000,2.9637,16.8994,1.6524,17.237
10.591000,2.4929,17.3713,1.6238,17.624
10.592000,1.9289,17.8045,1.6153,17.981
10.592000,1.3028,18.1993,1.6220,18.318
10.592000,0.6533,18.4939,1.6418,18.578
10.593000,0.0524,18.7366,1.6290,18.807
10.597000,-0.4371,18.9088,1.6291,18.984
10.601000,-0.7935,18.9800,1.5801,19.062
10.606000,-1.0458,18.9146,1.4920,19.002
10.611000,-1.1796,18.7678,1.3392,18.852
10.616000,-1.1738,18.6356,1.1512,18.708
10.620000,-1.0120,18.5273,0.9265,18.578
10.625000,-0.7406,18.4113,0.7112,18.440
10.700000,-0.4151,18.2226,0.5076,18.234
10.701000,-0.0741,17.9321,0.2990,17.935
10.701000,0.2676,17.5131,0.1190,17.516
10.701000,0.6201,17.0211,-0.0565,17.032
10.702000,1.0072,16.4657,-0.2176,16.498
10.702000,1.4723,15.8545,-0.3787,15.927
10.703000,2.0060,15.2329,-0.5303,15.374
10.703000,2.6346,14.5844,-0.6533,14.835
10.703000,3.3628,13.8991,-0.7550,14.320
10.704000,4.1720,13.1872,-0.8259,13.856
10.704000,5.0308,12.4174,-0.8753,13.426
10.704000,5.9080,11.5945,-0.8528,13.041
10.705000,6.8111,10.7521,-0.6937,12.747
10.705000,7.7089,9.9258,-0.4341,12.575
10.706000,8.6129,9.1268,-0.0644,12.549
10.709000,9.4947,8.3694,0.4150,12.664
10.713000,10.3420,7.6144,0.9991,12.882
10.718000,11.1289,6.7661,1.7163,13.137
10.721000,11.8820,5.8003,2.5442,13.465
10.726000,12.5994,4.7099,3.4410,13.884
10.733000,13.2406,3.4824,4.3652,14.370
10.736000,13.8263,2.2197,5.2371,14.951
10.741000,14.3470,1.0027,6.0011,15.584
10.827000,14.7864,-0.1018,6.5974,16.192
10.828000,15.1352,-1.0797,6.9857,16.704
10.828000,15.3648,-1.9409,7.1529,17.059
10.829000,15.4797,-2.7370,7.1000,17.249
10.829000,15.5334,-3.5283,6.8601,17.344
10.830000,15.5162,-4.3347,6.3937,17.333
10.830000,14.8183,-6.4853,8.6185,18.328
10.830000,15.4066,-8.1959,10.3962,20.313
10.831000,14.3594,-7.8004,7.7751,18.097
10.831000,13.2580,-7.3158,3.4476,15.530
10.831000,13.1933,-7.8994,1.5596,15.456
10.831000,13.7026,-9.4448,-0.9990,16.672
10.832000,14.0703,-10.9638,-2.9274,18.076
10.832000,14.8764,-11.9677,-2.8796,19.309
10.833000,15.9657,-12.4471,-1.9858,20.342
10.833000,16.2439,-12.9364,-1.0072,20.790
10.833000,15.5202,-13.7079,-0.1494,20.708
10.834000,14.6370,-14.5177,0.3511,20.619
10.837000,13.9872,-15.1139,0.3696,20.596
10.842000,13.2638,-15.5715,0.0328,20.455
10.847000,12.2300,-16.0589,-0.3184,20.188
10.852000,10.8801,-16.6265,-0.5852,19.879
10.858000,9.3366,-17.2228,-0.7617,19.606
10.861000,7.7123,-17.7692,-0.8481,19.389
10.867000,6.0930,-18.1951,-0.9110,19.210
10.871000,4.5211,-18.4926,-0.9538,19.061
10.876000,2.9984,-18.6837,-1.0096,18.950
10.951000,1.5264,-18.7683,-1.0957,18.862
10.952000,0.0806,-18.7996,-1.2709,18.843
10.953000,-1.3112,-18.7625,-1.5293,18.870
10.953000,-2.6142,-18.6657,-1.8164,18.935
10.954000,-3.8173,-18.5310,-2.0499,19.031
10.954000,-4.9264,-18.3850,-2.2402,19.165
10.955000,-6.0068,-18.2643,-2.3894,19.375
10.955000,-7.0661,-18.1441,-2.5334,19.636
10.956000,-8.0738,-17.9998,-2.7228,19.915
10.956000,-8.9583,-17.7995,-2.9604,20.145
10.957000,-9.6602,-17.5381,-3.2131,20.279
10.957000,-10.1824,-17.2601,-3.4645,20.337
10.958000,-10.4989,-16.9710,-3.6980,20.296
10.958000,-10.6865,-16.6759,-3.9496,20.196
10.958000,-10.7788,-16.3202,-4.2072,20.006
10.959000,-10.7543,-15.9237,-4.4303,19.719
10.961000,-10.6537,-15.5039,-4.6329,19.374
10.998000,-10.4840,-15.0763,-4.8105,18.983
11.001000,-10.2880,-14.6299,-5.0037,18.572
11.002000,-10.0798,-14.1845,-5.2293,18.170
11.003000,-9.8830,-13.7460,-5.4277,17.779
11.004000,-9.6543,-13.2456,-5.6157,17.326
11.005000,-9.3762,-12.6948,-5.7798,16.807
11.006000,-9.0748,-12.1404,-5.8963,16.264
11.007000,-8.7808,-11.6199,-5.9659,15.739
11.009000,-8.5870,-11.1611,-5.9322,15.281
11.014000,-8.5239,-10.7747,-5.7485,14.893
11.016000,-8.6173,-10.4992,-5.3969,14.616
11.021000,-8.8953,-10.3384,-4.9795,14.519
11.027000,-9.3338,-10.2535,-4.5850,14.604
11.032000,-9.8489,-10.2273,-4.2327,14.816
11.037000,-10.4072,-10.2471,-3.8864,15.114
11.041000,-11.0254,-10.3523,-3.5270,15.530
11.080000,-11.6604,-10.5564,-3.1212,16.036
11.080000,-12.2763,-10.8285,-2.6306,16.580
11.081000,-12.2607,-11.1145,-2.0244,16.672
11.081000,-12.8242,-11.3297,-1.3244,17.163
11.082000,-13.3370,-11.4230,-0.5904,17.570
11.082000,-13.7247,-11.4269,0.0723,17.859
11.082000,-13.9468,-11.3875,0.6266,18.016
11.083000,-13.9747,-11.3637,1.0928,18.045
11.087000,-13.7846,-11.3550,1.5366,17.925
11.093000,-13.3027,-11.3472,1.9661,17.595
11.098000,-11.5339,-11.3209,2.3337,16.329
11.103000,-10.2471,-11.2525,2.5868,15.437
11.107000,-8.7548,-11.1351,2.6819,14.416
11.112000,-7.0881,-10.9559,2.6880,13.323
11.119000,-5.3473,-10.7570,2.6447,12.300
11.126000,-3.5921,-10.4994,2.5677,11.390
11.127000,-1.9009,-10.2240,2.4775,10.690
11.201000,-0.3268,-9.9460,2.3636,10.228
11.202000,1.1957,-9.6094,2.1845,9.927
11.203000,2.7433,-9.1593,1.9586,9.760
11.203000,2.8074,-8.6150,1.6595,9.212
11.204000,6.2129,-8.0321,1.3350,10.242
11.205000,8.1137,-7.4488,0.8891,11.050
11.207000,10.0357,-6.8558,0.2858,12.157
11.208000,11.8756,-6.2404,-0.4323,13.422
11.210000,13.6348,-5.5716,-1.1837,14.777
11.213000,15.3388,-4.8082,-1.9967,16.198
11.214000,17.0062,-3.8610,-2.9264,17.683
11.215000,18.6444,-2.6409,-3.9004,19.230
11.216000,20.2981,-1.1716,-4.7161,20.872
11.218000,21.9660,0.4910,-5.2340,22.586
11.219000,23.5749,2.2136,-5.3803,24.282
11.221000,25.0039,3.8884,-5.1612,25.825
11.222000,26.1302,5.4298,-4.7702,27.111
11.223000,26.7963,6.8080,-4.4028,27.996
11.224000,26.8616,7.9819,-4.1564,28.329
11.228000,26.2791,8.9183,-4.0709,28.048
11.234000,25.0556,9.6069,-4.1163,27.148
11.239000,23.3562,10.0577,-4.2192,25.777
11.241000,21.4149,10.3517,-4.3203,24.175
11.324000,19.4032,10.5252,-4.3450,22.498
11.325000,17.4223,10.5942,-4.2090,20.820
11.325000,15.5778,10.5531,-3.8466,19.205
11.326000,13.9701,10.4886,-3.3124,17.780
11.326000,12.5749,10.4896,-2.6947,16.596
11.327000,11.3632,10.5747,-2.0538,15.658
11.327000,10.3181,10.7604,-1.4210,14.976
11.327000,9.4109,11.0058,-0.8353,14.505
11.328000,8.6245,11.3200,-0.3569,14.236
11.328000,7.9780,11.6476,0.0446,14.118
11.328000,7.4879,11.9761,0.4146,14.130
11.329000,7.1060,12.2787,0.7425,14.206
11.329000,6.8200,12.5450,1.0039,14.314
11.330000,6.6154,12.7746,1.1765,14.434
11.330000,6.4632,12.9766,1.2144,14.548
11.331000,6.3248,13.1551,1.1079,14.639
11.332000,6.1379,13.3240,0.8597,14.695
11.333000,5.8548,13.4499,0.5010,14.677
11.337000,5.4680,13.5251,0.0921,14.589
11.343000,4.9373,13.5140,-0.3669,14.392
11.351000,4.2705,13.4170,-0.8520,14.106
11.354000,3.5230,13.2702,-1.3393,13.795
11.357000,2.7151,13.1064,-1.8021,13.505
11.362000,1.9429,12.9619,-2.2953,13.306
11.434000,1.2451,12.8711,-2.8566,13.243
11.435000,0.6506,12.8418,-3.4780,13.320
11.436000,0.1448,12.8766,-4.0985,13.514
11.436000,-0.2731,12.9179,-4.6686,13.738
11.436000,-0.5888,12.9550,-5.1075,13.938
11.437000,-0.8151,12.9894,-5.3951,14.089
11.437000,-0.9069,12.9159,-5.4782,14.059
11.438000,-0.8789,12.7534,-5.4001,13.877
11.438000,-0.7387,12.4693,-5.2495,13.549
11.438000,-0.5577,12.1169,-5.0578,13.142
11.439000,-0.3960,11.7381,-4.8513,12.707
11.439000,-0.3277,11.3472,-4.6273,12.259
11.440000,-0.3353,10.9080,-4.3794,11.759
11.440000,-0.3584,10.4348,-4.1014,11.218
11.440000,-0.3153,9.9194,-3.8067,10.629
11.444000,-0.1997,9.3803,-3.4926,10.011
11.447000,-0.0786,8.7729,-3.1957,9.337
11.455000,-0.0090,8.0877,-2.9477,8.608
11.457000,0.0359,7.3250,-2.7127,7.811
11.466000,0.0805,6.5548,-2.4670,7.004
11.469000,0.1993,5.7815,-2.2019,6.190
11.473000,0.4318,5.0341,-1.9526,5.417
11.478000,0.7520,4.3242,-1.7753,4.735
11.564000,1.1101,3.6623,-1.6668,4.174
11.564000,1.5112,3.0516,-1.6132,3.768
11.565000,1.9627,2.5113,-1.5167,3.530
11.565000,2.4744,2.0563,-1.3804,3.501
11.566000,3.0772,1.6719,-1.1442,3.684
11.566000,3.8713,1.3537,-0.7603,4.171
11.566000,4.9042,1.0012,-0.2310,5.011
11.567000,6.1779,0.5878,0.4603,6.223
11.567000,7.5844,0.0422,1.3325,7.701
11.568000,9.0016,-0.6148,2.3671,9.328
11.568000,10.2693,-1.3342,3.5138,10.936
11.568000,11.3062,-2.0733,4.7426,12.435
11.569000,12.0647,-2.7885,6.0090,13.764
11.569000,12.5305,-3.4527,7.2852,14.900
11.570000,12.6993,-4.0326,8.5405,15.826
11.570000,12.6492,-4.4890,9.7197,16.572
11.571000,12.4542,-4.8365,10.8193,17.192
11.571000,12.1568,-5.1128,11.8244,17.713
11.574000,11.8925,-5.3082,12.6837,18.179
11.579000,11.6945,-5.4478,13.3697,18.579
11.585000,11.5496,-5.5683,13.8844,18.899
11.588000,11.4431,-5.6454,14.2167,19.103
11.593000,11.3674,-5.7330,14.3875,19.212
11.601000,11.2935,-5.8852,14.3816,19.210
11.605000,11.1258,-6.1511,14.1331,19.010
11.608000,10.7641,-6.5707,13.5665,18.523
11.684000,10.2320,-7.1080,12.6947,17.787
11.685000,9.5801,-7.7487,11.6323,16.945
11.685000,8.8275,-8.4600,10.4576,16.089
11.685000,7.9695,-9.2234,9.2318,15.291
11.686000,7.0658,-9.9651,8.0561,14.633
11.686000,6.1572,-10.6248,6.9771,14.124
11.687000,5.3031,-11.1807,6.0015,13.753
11.687000,4.5110,-11.6285,5.1253,13.485
11.687000,3.7574,-11.9852,4.3345,13.287
11.688000,2.9924,-12.2701,3.6177,13.138
11.688000,2.2308,-12.4908,2.9708,13.032
11.688000,1.4221,-12.6580,2.4028,12.962
11.689000,0.5883,-12.7696,1.9122,12.925
11.689000,-0.3018,-12.8398,1.4901,12.929
11.689000,-1.2173,-12.8800,1.1545,12.989
11.690000,-2.1299,-12.8851,0.8855,13.090
11.694000,-3.0207,-12.8311,0.6730,13.199
11.698000,-3.8500,-12.7241,0.5049,13.303
11.703000,-4.6158,-12.5978,0.3821,13.422
11.709000,-5.3068,-12.4617,0.2982,13.548
11.713000,-5.9286,-12.3204,0.2477,13.675
11.718000,-6.4603,-12.1667,0.2250,13.777
11.723000,-6.8910,-12.0124,0.2417,13.851
11.727000,-7.2212,-11.8479,0.3039,13.878
11.806000,-7.4229,-11.6828,0.4111,13.848
11.807000,-7.5181,-11.5103,0.5242,13.758
11.807000,-7.5073,-11.3069,0.6259,13.587
11.808000,-7.4097,-11.0972,0.6986,13.362
11.808000,-7.2442,-10.8732,0.7298,13.086
11.808000,-7.0372,-10.6689,0.6870,12.799
11.809000,-6.8170,-10.4873,0.5830,12.522
11.809000,-6.5666,-10.3075,0.4158,12.229
11.810000,-6.2997,-10.1492,0.1948,11.947
11.810000,-6.0182,-9.9621,-0.0614,11.639
11.810000,-5.6732,-9.7765,-0.2864,11.307
11.811000,-5.2566,-9.5686,-0.4507,10.927
11.811000,-4.7482,-9.2967,-0.6038,10.457
11.811000,-4.1993,-8.9981,-0.7810,9.960
11.812000,-3.6305,-8.6618,-0.9908,9.444
11.812000,-3.1218,-8.3504,-1.2633,9.004
11.816000,-2.7466,-8.1100,-1.5490,8.701
11.818000,-2.4994,-7.9560,-1.8396,8.540
11.824000,-2.3436,-7.8313,-2.1800,8.460
11.829000,-2.2501,-7.6862,-2.5838,8.415
11.835000,-2.2378,-7.5233,-3.0259,8.412
11.839000,-2.3608,-7.3749,-3.4980,8.497
11.843000,-2.6312,-7.2477,-3.9743,8.675
11.932000,-3.0249,-7.1512,-4.4340,8.941
11.934000,-3.5565,-7.0966,-4.8122,9.283
11.934000,-4.1831,-7.0806,-5.1257,9.691
11.935000,-4.8408,-7.1089,-5.3498,10.129
11.935000,-5.4943,-7.1952,-5.4872,10.586
11.936000,-6.1350,-7.3381,-5.5267,11.047
11.936000,-6.7758,-7.5411,-5.4426,11.507
11.937000,-7.4246,-7.8030,-5.2237,11.971
11.938000,-8.0034,-8.0508,-4.8789,12.356
11.938000,-8.4553,-8.2264,-4.4212,12.598
11.939000,-8.7235,-8.2979,-3.8748,12.648
11.939000,-8.9037,-8.3033,-3.2712,12.606
11.940000,-8.9987,-8.2588,-2.6607,12.501
11.940000,-8.9777,-8.1971,-2.0983,12.337
11.941000,-8.7550,-8.0742,-1.5024,12.004
11.941000,-8.1971,-7.8686,-0.7602,11.388
11.941000,-7.3519,-7.5520,0.1232,10.540
11.942000,-6.3703,-7.2160,1.1382,9.693
11.942000,-5.3432,-6.8328,2.2088,8.951
11.944000,-4.3160,-6.3618,3.2704,8.354
11.950000,-3.1956,-5.7283,4.2442,7.813
11.955000,-1.7669,-4.8665,5.1433,7.298
11.958000,0.0078,-3.7388,5.9777,7.051
12.045000,2.1095,-2.4596,6.8291,7.559
12.050000,4.5074,-1.0603,7.7422,9.021
12.050000,7.0157,0.3390,8.6366,11.132
12.051000,9.5013,1.6309,9.3779,13.449
12.051000,11.8261,2.7533,9.8295,15.622
12.052000,13.8630,3.5940,9.9736,17.452
12.054000,15.5498,4.1378,9.8286,18.855
12.055000,16.8932,4.3442,9.4562,19.841
12.055000,17.8545,4.2834,8.7862,20.355
12.056000,18.3830,4.0739,7.7106,20.347
12.056000,18.5692,3.8204,6.2982,19.977
12.057000,18.5203,3.6106,4.6534,19.434
12.059000,18.3272,3.4774,2.9349,18.884
12.060000,18.0238,3.3857,1.2734,18.383
12.060000,17.6325,3.3125,-0.3206,17.944
12.061000,17.1329,3.1945,-1.8307,17.524
12.062000,16.4662,3.0134,-3.2278,17.048
12.063000,15.6021,2.7822,-4.4443,16.460
12.063000,14.5702,2.5042,-5.4582,15.759
12.064000,13.4093,2.2477,-6.2138,14.949
12.064000,12.1871,2.0144,-6.6851,14.045
12.073000,10.9445,1.8050,-6.8453,13.035
12.075000,9.7299,1.6061,-6.7588,11.955
12.079000,8.6007,1.4040,-6.4271,10.828
12.170000,7.5975,1.2230,-5.8848,9.688
12.171000,6.7274,1.0556,-5.2207,8.581
12.172000,5.9371,0.9163,-4.5348,7.527
12.172000,5.2286,0.7999,-3.8495,6.542
12.172000,4.5725,0.7206,-3.1418,5.594
12.173000,3.9277,0.6781,-2.4707,4.689
12.173000,3.2890,0.6270,-1.8372,3.819
12.173000,2.6466,0.5718,-1.2378,2.977
12.174000,2.0045,0.4985,-0.6519,2.166
12.175000,1.3600,0.4213,-0.0904,1.427
12.176000,0.7247,0.3280,0.4146,0.897
12.177000,0.0789,0.2141,0.8544,0.884
12.178000,-0.5607,0.0816,1.2321,1.356
12.179000,-1.1466,-0.0624,1.5414,1.922
12.180000,-1.6691,-0.2018,1.7653,2.438
12.181000,-2.1425,-0.3491,1.8753,2.869
12.182000,-2.5975,-0.5167,1.8686,3.241
12.183000,-3.0675,-0.7267,1.7330,3.597
12.185000,-3.5545,-0.9606,1.4876,3.971
12.186000,-4.0823,-1.2067,1.1346,4.406
12.187000,-4.6936,-1.4845,0.7362,4.978
12.198000,-5.3691,-1.7696,0.2965,5.661
12.201000,-6.0868,-2.0353,-0.1736,6.420
12.202000,-6.8179,-2.2736,-0.7394,7.225
12.206000,-7.5002,-2.4505,-1.3699,8.008
12.209000,-8.1340,-2.5701,-2.0268,8.768
12.255000,-8.7193,-2.6466,-2.6478,9.489
12.256000,-9.2657,-2.6724,-3.2165,10.166
12.256000,-9.7136,-2.6258,-3.7500,10.738
12.257000,-10.0317,-2.5234,-4.2797,11.195
12.257000,-10.2322,-2.3584,-4.8201,11.554
12.258000,-10.2744,-2.1505,-5.3542,11.784
12.258000,-10.1537,-1.9096,-5.8366,11.866
12.258000,-9.9156,-1.6412,-6.2575,11.839
12.259000,-9.5580,-1.2936,-6.6044,11.690
12.259000,-9.0332,-0.8673,-6.8534,11.372
12.306000,-8.3675,-0.3712,-6.9897,10.909
12.307000,-7.6928,0.1648,-7.0125,10.411
12.307000,-7.1122,0.6962,-6.9065,9.938
12.307000,-6.6760,1.1839,-6.6711,9.512
12.308000,-6.3553,1.6178,-6.3612,9.136
12.308000,-6.0921,2.0096,-6.0376,8.809
12.309000,-5.8978,2.3947,-5.7899,8.605
12.309000,-5.8080,2.7993,-5.6045,8.543
12.310000,-5.8602,3.1350,-5.4489,8.594
12.310000,-6.0445,3.3521,-5.3069,8.714
12.315000,-6.3464,3.4344,-5.1598,8.871
12.320000,-6.7228,3.4075,-4.9865,9.037
12.325000,-7.0873,3.3084,-4.7779,9.165
12.330000,-7.3852,3.1959,-4.5561,9.247
12.335000,-7.6214,3.0953,-4.3594,9.310
12.339000,-7.7916,3.0292,-4.2020,9.356
12.344000,-7.8438,3.0117,-4.1287,9.362
12.430000,-7.8532,3.0610,-4.0620,9.356
12.430000,-7.8734,3.1787,-3.8756,9.334
12.431000,-7.7332,3.3855,-3.5134,9.144
12.431000,-7.3188,3.7012,-2.9532,8.717
12.432000,-6.5015,4.1405,-2.2592,8.032
12.432000,-5.2533,4.6926,-1.4407,7.190
12.432000,-3.6557,5.2873,-0.4427,6.443
12.433000,-1.9146,5.8753,0.7513,6.225
12.433000,-0.1829,6.4270,2.1723,6.787
12.433000,1.4963,6.9491,3.8254,8.072
12.434000,3.2785,7.4916,5.6959,9.966
12.434000,5.3917,8.1410,7.7158,12.445
12.435000,7.9296,8.9425,9.6496,15.361
12.435000,10.7804,9.8771,11.2263,18.434
12.435000,13.6984,10.8772,12.2908,21.378
12.436000,16.3560,11.7367,12.8241,23.869
12.436000,18.4255,12.3032,12.8366,25.606
12.437000,19.6608,12.5457,12.3298,26.381
12.440000,20.0166,12.5265,11.3694,26.208
12.445000,19.5752,12.2644,10.0000,25.172
12.450000,18.4980,11.7822,8.4014,23.486
12.455000,17.0371,11.1859,6.7383,21.466
12.460000,15.3853,10.5520,5.1608,19.357
12.469000,13.7182,9.8681,3.8078,17.322
12.471000,12.1329,9.1910,2.7397,15.466
12.474000,10.6138,8.5056,1.9253,13.737
12.552000,9.1479,7.8056,1.4434,12.112
12.553000,7.7192,7.0674,1.3235,10.549
12.554000,6.3567,6.3028,1.5295,9.081
12.554000,5.0823,5.5429,2.0019,7.782
12.554000,3.9411,4.7955,2.7051,6.771
12.555000,2.9493,4.0660,3.5096,6.128
12.555000,2.1425,3.3711,4.2986,5.868
12.555000,1.4856,2.7155,4.9518,5.840
12.556000,1.0038,2.1420,5.4609,5.951
12.556000,0.7411,1.6318,5.9491,6.213
12.557000,0.6868,1.1326,6.4532,6.588
12.557000,0.7657,0.6368,6.8658,6.938
12.557000,0.8697,0.1316,7.1174,7.172
12.558000,0.9233,-0.3911,7.2225,7.292
12.558000,0.9118,-0.9489,7.2186,7.338
12.558000,0.8848,-1.5147,7.1308,7.343
12.561000,0.8487,-2.0566,6.9405,7.288
12.565000,0.8457,-2.5476,6.6841,7.203
12.571000,0.9329,-2.9691,6.3935,7.111
12.576000,1.0875,-3.3034,6.0935,7.016
12.583000,1.2788,-3.5829,5.8035,6.939
12.587000,1.4733,-3.8345,5.5258,6.885
12.590000,1.5929,-4.0875,5.2471,6.839
12.594000,1.6338,-4.3329,4.9248,6.760
12.684000,1.6297,-4.5457,4.5419,6.629
12.685000,1.6582,-4.7219,4.1231,6.484
12.685000,1.7390,-4.8688,3.7093,6.363
12.686000,1.8536,-5.0394,3.3329,6.320
12.686000,1.9641,-5.2580,3.0070,6.368
12.687000,1.9969,-5.5320,2.6729,6.460
12.687000,1.9445,-5.7956,2.2944,6.529
12.687000,1.8164,-6.0298,1.9239,6.585
12.688000,1.6387,-6.2462,1.5927,6.651
12.688000,1.4278,-6.4491,1.3180,6.736
12.688000,1.2046,-6.6025,1.1051,6.802
12.689000,0.9881,-6.7302,0.9521,6.869
12.689000,0.7751,-6.8031,0.8196,6.896
12.690000,0.5604,-6.8548,0.6747,6.911
12.690000,0.3650,-6.8733,0.5236,6.903
12.690000,0.1765,-6.8727,0.3742,6.885
12.691000,0.0087,-6.8456,0.2295,6.849
12.691000,-0.1344,-6.8277,0.0715,6.829
12.691000,-0.2652,-6.7996,-0.0706,6.805
12.696000,-0.3648,-6.7423,-0.1963,6.755
12.701000,-0.4165,-6.6823,-0.2956,6.702
12.708000,-0.4419,-6.6293,-0.3757,6.655
12.711000,-0.4503,-6.5715,-0.4511,6.602
12.718000,-0.4464,-6.5523,-0.5263,6.589
12.721000,-0.4610,-6.5598,-0.6137,6.605
12.725000,-0.4939,-6.5821,-0.7471,6.643
12.821000,-0.5494,-6.6048,-0.9054,6.689
12.822000,-0.6586,-6.6277,-1.0940,6.750
12.822000,-0.8261,-6.6334,-1.3038,6.811
12.822000,-1.0346,-6.6031,-1.5092,6.852
12.823000,-1.2888,-6.5220,-1.6746,6.856
12.823000,-1.5478,-6.3973,-1.7693,6.816
12.823000,-1.7779,-6.2675,-1.7982,6.758
12.824000,-1.9908,-6.1301,-1.7470,6.678
12.824000,-2.1642,-6.0104,-1.6726,6.603
12.825000,-2.3147,-5.9254,-1.5867,6.556
12.825000,-2.4637,-5.8897,-1.5224,6.563
12.826000,-2.5750,-5.8727,-1.5031,6.586
12.826000,-2.6555,-5.8870,-1.5236,6.635
12.826000,-2.7246,-5.9659,-1.5740,6.745
12.827000,-2.8243,-6.1084,-1.6327,6.925
12.827000,-2.9762,-6.3238,-1.7622,7.208
12.827000,-3.1415,-6.5545,-1.9390,7.523
12.828000,-3.3008,-6.7913,-2.1756,7.858
12.828000,-3.4446,-7.0194,-2.4315,8.188
12.829000,-3.5599,-7.2598,-2.6924,8.522
12.833000,-3.6539,-7.5243,-2.9612,8.873
12.837000,-3.7715,-7.8399,-3.2263,9.279
12.840000,-3.9340,-8.2383,-3.4732,9.768
12.846000,-4.1559,-8.7385,-3.6660,10.348
12.905000,-4.4516,-9.3447,-3.7428,11.007
12.906000,-4.8732,-10.0003,-3.6944,11.722
12.906000,-5.4565,-10.6880,-3.5547,12.516
12.907000,-6.2017,-11.3975,-3.3167,13.393
12.907000,-7.0658,-12.1278,-2.9973,14.352
12.907000,-8.0063,-12.8943,-2.6132,15.401
12.907000,-8.9900,-13.6804,-2.1579,16.511
12.908000,-10.0553,-14.5092,-1.6815,17.733
12.908000,-11.1883,-15.3495,-1.2391,19.035
12.908000,-11.1869,-16.1390,-0.9356,19.659
12.908000,-12.2574,-16.8367,-0.8688,20.844
12.909000,-13.1293,-17.4391,-1.0814,21.856
12.911000,-13.1285,-17.9381,-1.4047,22.273
12.964000,-14.1661,-18.3211,-1.5518,23.211
12.966000,-14.0230,-18.6215,-1.3984,23.353
12.967000,-13.1913,-18.9128,-1.0860,23.084
12.969000,-10.2190,-19.1899,-0.8511,21.758
12.970000,-8.3529,-19.4512,-0.6774,21.180
12.971000,-6.1830,-19.6276,-0.5404,20.586
12.973000,-3.7359,-19.7229,-0.5217,20.080
12.975000,-1.1442,-19.7062,-0.6615,19.751
12.976000,1.4528,-19.5302,-0.7998,19.601
12.978000,3.9639,-19.2107,-0.8900,19.636
12.979000,6.3598,-18.7778,-0.8289,19.843
12.980000,8.7415,-18.2112,-0.5514,20.208
12.982000,11.0957,-17.4302,-0.1974,20.663
12.984000,13.2723,-16.4597,0.0503,21.144
12.988000,15.1115,-15.3698,0.1407,21.555
12.992000,16.4156,-14.2804,0.0133,21.758
12.999000,17.1061,-13.2846,-0.4228,21.663
13.002000,17.3563,-12.3357,-1.1682,21.325
13.006000,17.3824,-11.4277,-2.1152,20.910
13.012000,17.4463,-10.4463,-3.0650,20.564
13.104000,17.6349,-9.4045,-3.9309,20.369
13.107000,17.8919,-8.3817,-4.6176,20.290
13.113000,18.1068,-7.4476,-4.9964,20.206
13.115000,18.2813,-6.5518,-4.9985,20.053
13.117000,18.5126,-5.6463,-4.6562,19.907
13.118000,18.8310,-4.6720,-4.0813,19.826
13.120000,19.2600,-3.6074,-3.4262,19.892
13.121000,19.8665,-2.4131,-2.7122,20.195
13.122000,20.5306,-1.1734,-2.0473,20.666
13.123000,21.1677,0.0844,-1.4317,21.216
13.124000,21.7412,1.3088,-0.8277,21.796
13.125000,22.2366,2.5162,-0.2458,22.380
13.127000,22.6801,3.6973,0.2923,22.981
13.128000,23.0934,4.8850,0.7981,23.618
13.131000,23.3680,6.0291,1.2765,24.167
13.133000,23.3901,7.0804,1.7083,24.498
13.134000,23.0624,7.9757,2.1152,24.494
13.135000,22.3657,8.6747,2.4783,24.117
13.135000,21.3443,9.1739,2.7849,23.399
13.136000,20.0617,9.4868,2.9698,22.390
13.137000,18.5985,9.6625,2.9746,21.169
13.137000,17.0425,9.7530,2.7939,19.834
13.138000,17.0553,9.8299,2.4850,19.841
13.138000,14.0861,9.9621,2.1054,17.381
13.139000,12.8362,10.1674,1.6857,16.462
13.143000,11.8268,10.5070,1.2407,15.869
13.156000,11.1015,10.9696,0.8088,15.628
13.158000,10.6404,11.5670,0.3928,15.722
13.158000,10.4238,12.2440,0.0504,16.080
13.161000,10.3810,12.9565,-0.2326,16.604
13.257000,10.4991,13.6970,-0.4724,17.264
13.259000,10.7148,14.4792,-0.6496,18.024
13.260000,10.9190,15.2924,-0.8308,18.809
13.260000,10.9816,16.0856,-1.0035,19.502
13.261000,10.8539,16.8704,-1.1477,20.093
13.262000,10.5140,17.5914,-1.1796,20.528
13.262000,10.0150,18.2246,-1.0037,20.819
13.263000,9.3840,18.7751,-0.6240,20.999
13.263000,8.6459,19.2139,-0.0567,21.070
13.264000,7.8543,19.5480,0.5931,21.075
13.265000,7.0743,19.7843,1.1684,21.044
13.266000,6.3090,19.9849,1.5169,21.012
13.266000,5.6304,20.1975,1.5955,21.028
13.267000,5.0581,20.4394,1.4238,21.104
13.268000,4.6419,20.6699,1.0364,21.210
13.268000,4.3905,20.8530,0.5114,21.316
13.269000,4.2365,20.9529,-0.0804,21.377
13.270000,4.1048,20.9622,-0.7282,21.373
13.271000,3.9519,20.8590,-1.4524,21.280
13.271000,3.7800,20.6462,-2.2324,21.108
13.272000,3.5795,20.2930,-2.9688,20.819
13.272000,3.2713,19.7491,-3.5916,20.338
13.319000,2.9357,19.0285,-4.0738,19.680
13.321000,2.6500,18.1914,-4.4588,18.916
13.323000,2.4172,17.2793,-4.7444,18.081
13.324000,2.2310,16.3431,-4.9118,17.210
13.325000,2.0703,15.3906,-4.9637,16.303
13.327000,1.9564,14.4401,-4.9696,15.396
13.328000,1.8617,13.4910,-4.9631,14.495
13.329000,1.8078,12.5454,-4.9560,13.609
13.330000,1.8236,11.6158,-4.9195,12.746
13.331000,1.9715,10.7101,-4.8365,11.916
13.333000,2.3138,9.8218,-4.6615,11.115
13.334000,2.7757,8.9503,-4.3294,10.323
13.348000,3.3415,8.1260,-3.8505,9.593
13.350000,4.0943,7.3579,-3.2443,9.024
13.350000,4.9483,6.6338,-2.4685,8.636
13.354000,5.8986,5.9178,-1.4572,8.482
13.357000,6.8639,5.1799,-0.2549,8.603
13.363000,7.8569,4.3919,1.0910,9.067
13.454000,8.8463,3.5229,2.5952,9.869
13.456000,9.8398,2.5933,4.1882,11.004
13.457000,10.7324,1.5559,5.6810,12.243
13.459000,11.4698,0.4221,6.9384,13.412
13.460000,12.0640,-0.7520,7.8573,14.417
13.462000,12.4948,-1.8849,8.2803,15.107
13.464000,12.7904,-2.9649,8.1672,15.462
13.465000,12.9765,-3.9792,7.7756,15.642
13.467000,13.1078,-4.9624,7.2592,15.784
13.469000,13.1862,-5.8810,6.6035,15.877
13.470000,13.1997,-6.7077,5.8494,15.920
13.471000,13.1931,-7.4834,5.1279,16.011
13.473000,13.2428,-8.1759,4.4682,16.192
13.473000,13.3584,-8.8064,3.9347,16.477
13.474000,13.4969,-9.4252,3.5576,16.842
13.474000,13.6154,-10.0481,3.3307,17.246
13.475000,13.6620,-10.6833,3.2592,17.647
13.475000,13.6325,-11.3419,3.3199,18.042
13.477000,13.5298,-12.0032,3.4602,18.415
13.477000,13.2760,-12.6725,3.6278,18.708
13.478000,12.8217,-13.3667,3.7489,18.898
13.479000,12.1724,-14.0891,3.7743,18.998
13.479000,11.3360,-14.7957,3.7316,19.009
13.482000,10.4036,-15.4409,3.5702,18.958
13.488000,9.4850,-16.0160,3.3241,18.908
13.493000,8.6325,-16.5221,3.0328,18.886
13.500000,7.8452,-16.9859,2.7145,18.906
13.502000,7.0406,-17.4242,2.4148,18.947
13.507000,6.1441,-17.8517,2.1057,18.996
13.512000,5.2123,-18.2024,1.8052,19.020
13.600000,4.3164,-18.4639,1.5097,19.022
13.601000,3.4769,-18.6451,1.2247,19.006
13.601000,2.7174,-18.7347,0.9029,18.952
13.602000,1.9984,-18.7673,0.5554,18.882
13.603000,1.2788,-18.7799,0.1971,18.824
13.603000,0.5532,-18.7627,-0.1401,18.771
13.603000,-0.2193,-18.7396,-0.4610,18.747
13.604000,-1.0200,-18.6917,-0.7895,18.736
13.604000,-1.8302,-18.6079,-1.1609,18.734
13.605000,-2.5836,-18.4739,-1.5821,18.721
13.605000,-3.2663,-18.3253,-2.0211,18.724
13.606000,-3.8954,-18.1361,-2.4372,18.709
13.606000,-4.5188,-17.9350,-2.8404,18.712
13.607000,-5.1526,-17.7243,-3.2488,18.742
13.607000,-5.7509,-17.5057,-3.6906,18.792
13.608000,-6.2631,-17.2524,-4.1792,18.824
13.608000,-6.6792,-16.9665,-4.6991,18.830
13.608000,-6.9751,-16.6859,-5.1961,18.817
13.609000,-7.1123,-16.3582,-5.6325,18.706
13.612000,-7.1145,-16.0005,-6.0015,18.511
13.685000,-7.0460,-15.5927,-6.3031,18.235
13.686000,-6.8993,-15.1789,-6.5327,17.907
13.687000,-6.7434,-14.7551,-6.7378,17.567
13.687000,-6.5760,-14.3440,-6.8722,17.211
13.688000,-6.4496,-13.9800,-6.8657,16.858
13.688000,-6.4379,-13.6537,-6.7060,16.518
13.688000,-6.5023,-13.3345,-6.4768,16.188
13.689000,-6.6305,-13.0527,-6.1519,15.880
13.689000,-6.8437,-12.8114,-5.7147,15.609
13.690000,-7.1822,-12.5999,-5.2062,15.409
13.690000,-7.6458,-12.3897,-4.6769,15.292
13.690000,-8.2557,-12.2228,-4.1483,15.322
13.691000,-9.0479,-12.1090,-3.6224,15.544
13.691000,-10.0392,-12.0452,-3.1155,15.987
13.691000,-11.1912,-12.0113,-2.6848,16.635
13.692000,-11.1816,-12.0119,-2.3567,16.579
13.701000,-12.4408,-12.0690,-2.0724,17.456
13.704000,-13.6586,-12.1385,-1.7597,18.357
13.707000,-14.6524,-12.1920,-1.3723,19.111
13.712000,-15.3668,-12.2239,-0.9210,19.657
13.779000,-15.9237,-12.2381,-0.4294,20.088
13.781000,-16.3308,-12.2284,0.0683,20.402
13.783000,-16.4497,-12.1891,0.5120,20.480
13.785000,-16.1494,-12.1581,0.8462,20.232
13.788000,-15.3302,-12.1411,1.0655,19.585
13.790000,-14.0596,-12.1136,1.2021,18.597
13.793000,-10.7694,-12.0551,1.2733,16.215
13.794000,-8.9480,-11.9326,1.2766,14.969
13.794000,-7.0967,-11.7283,1.2194,13.762
13.795000,-5.2176,-11.4472,1.1414,12.632
13.795000,-3.3412,-11.0598,1.0418,11.600
13.796000,-1.5679,-10.6439,0.9219,10.798
13.798000,0.1562,-10.2304,0.8565,10.267
13.800000,1.8912,-9.8053,0.8314,10.021
13.800000,3.6716,-9.3130,0.8131,10.044
13.801000,5.4502,-8.7014,0.6876,10.290
13.801000,7.1983,-7.9733,0.3164,10.747
13.803000,8.9921,-7.1498,-0.1127,11.489
13.812000,10.9152,-6.1964,-0.4667,12.560
13.813000,12.8244,-5.2237,-0.7293,13.867
13.818000,14.5944,-4.3076,-0.8963,15.243
13.822000,16.1763,-3.4173,-1.0039,16.564
13.827000,17.5405,-2.4784,-1.0527,17.746
13.890000,18.7201,-1.4113,-1.0266,18.801
13.892000,19.7871,-0.1999,-0.8999,19.809
13.893000,20.8254,1.1420,-0.5705,20.865
13.893000,21.8584,2.5835,0.0153,22.011
13.894000,22.8679,4.0585,0.8982,23.243
13.895000,23.8021,5.4856,2.0770,24.514
13.895000,24.5906,6.8079,3.4398,25.746
13.896000,25.0899,8.0089,4.7940,26.770
13.897000,25.1826,9.0824,5.9293,27.419
13.898000,24.7987,10.0296,6.7243,27.582
13.898000,23.9290,10.8407,7.1013,27.213
13.900000,22.6437,11.4735,7.1126,26.362
13.901000,21.0546,11.8826,6.8161,25.119
13.901000,19.2802,12.0669,6.3692,23.620
13.911000,17.4422,12.0486,5.8513,21.992
13.912000,15.6163,11.8776,5.3102,20.326
13.914000,13.8878,11.6706,4.8034,18.766
13.917000,12.3415,11.4942,4.3789,17.424
13.923000,10.9993,11.4348,4.0148,16.366
13.928000,9.8712,11.5267,3.7209,15.625
13.986000,8.9286,11.7439,3.4873,15.159
13.989000,8.1857,12.0718,3.3163,14.958
13.990000,7.6425,12.5106,3.2029,15.006
13.991000,7.2889,13.0287,3.1565,15.259
13.993000,7.0622,13.5849,3.1886,15.639
13.995000,6.9689,14.1378,3.2462,16.093
13.997000,6.9989,14.6917,3.2840,16.602
13.999000,7.1773,15.2025,3.4380,17.159
14.000000,7.4244,15.6713,3.6882,17.729
14.003000,7.6269,16.0274,3.9188,18.177
14.004000,7.6622,16.2508,4.0766,18.423
14.005000,7.4703,16.3263,4.1255,18.422
14.008000,7.0253,16.2802,3.9889,18.174
14.010000,6.3420,16.1296,3.6294,17.708
14.011000,5.4621,15.9089,3.1054,17.105
14.013000,4.4460,15.6690,2.4580,16.472
14.022000,3.4384,15.4115,1.7678,15.889
14.026000,2.4518,15.1656,1.0086,15.396
14.027000,1.5462,14.9537,0.1407,15.034
14.030000,0.7602,14.7860,-0.7698,14.826
14.083000,0.1437,14.6341,-1.6938,14.733
14.083000,-0.2960,14.4514,-2.5841,14.684
14.083000,-0.5835,14.2474,-3.4521,14.671
14.084000,-0.7577,14.0364,-4.2827,14.695
14.084000,-0.8621,13.8042,-5.0750,14.733
14.084000,-0.8995,13.5508,-5.7803,14.760
14.084000,-0.8800,13.2663,-6.4032,14.757
14.084000,-0.8320,12.9136,-6.9503,14.689
14.085000,-0.7748,12.5138,-7.3810,14.549
14.085000,-0.7324,12.0357,-7.7096,14.312
14.085000,-0.7068,11.4914,-7.9558,13.995
14.088000,-0.7075,10.9119,-8.1342,13.628
14.094000,-0.7596,10.3059,-8.2381,13.216
14.099000,-0.8054,9.6519,-8.2941,12.751
14.103000,-0.8207,8.9216,-8.3190,12.226
14.108000,-0.7598,8.1638,-8.3272,11.686
14.156000,-0.5793,7.3890,-8.2896,11.120
14.156000,-0.2507,6.6050,-8.1248,10.474
14.156000,0.2676,5.8066,-7.7088,9.655
14.157000,1.0353,5.0581,-7.0168,8.712
14.157000,2.0289,4.4500,-6.2042,7.900
14.157000,3.1435,4.0413,-5.3374,7.396
14.158000,4.3190,3.8451,-4.3962,7.264
14.158000,5.5023,3.7514,-3.2643,7.416
14.158000,6.7108,3.6639,-1.8673,7.871
14.159000,7.8821,3.4512,-0.2552,8.608
14.164000,8.9690,3.0257,1.4066,9.570
14.169000,10.0128,2.3818,3.0229,10.727
14.173000,11.0116,1.4923,4.4942,11.987
14.178000,11.9591,0.4382,5.7702,13.286
14.184000,12.9559,-0.6892,6.8588,14.676
14.188000,13.9732,-1.8741,7.8117,16.118
14.193000,15.0464,-3.0320,8.6600,17.623
14.269000,16.1244,-4.1288,9.3561,19.094
14.269000,17.1678,-5.1013,9.8480,20.439
14.270000,18.1321,-5.9034,10.1041,21.580
14.270000,18.9729,-6.5421,10.1322,22.482
14.270000,19.6248,-7.0858,9.8487,23.072
14.270000,20.0393,-7.6700,9.4715,23.454
14.271000,20.0897,-8.3778,8.9293,23.527
14.271000,19.7624,-9.2291,8.1875,23.297
14.271000,19.0940,-10.1980,7.3347,22.856
14.272000,18.1385,-11.2334,6.3751,22.267
14.272000,16.8923,-12.3052,5.3081,21.562
14.273000,15.4165,-13.3492,4.1514,20.811
14.273000,13.7793,-14.3311,2.9829,20.103
14.274000,12.0585,-15.2319,1.8313,19.513
14.274000,10.2978,-16.0316,0.7549,19.069
14.275000,8.5480,-16.7381,-0.2224,18.796
14.279000,6.8336,-17.3469,-1.1051,18.677
14.283000,5.1760,-17.8614,-1.9239,18.696
14.289000,3.6137,-18.3148,-2.6134,18.850
14.295000,2.1151,-18.7031,-3.1515,19.084
14.299000,0.6918,-19.0548,-3.4942,19.385
14.304000,-0.6065,-19.3300,-3.6234,19.676
14.309000,-1.6872,-19.5110,-3.5328,19.900
14.313000,-2.5490,-19.6216,-3.1911,20.042
14.402000,-3.2069,-19.6278,-2.6119,20.059
14.403000,-3.7530,-19.5422,-1.8773,19.988
14.404000,-4.2813,-19.3843,-1.1504,19.885
14.404000,-4.8045,-19.1845,-0.4692,19.783
14.405000,-5.3591,-19.0178,0.0597,19.759
14.405000,-5.8664,-18.8459,0.3537,19.741
14.406000,-6.2894,-18.6611,0.4437,19.698
14.406000,-6.6000,-18.4635,0.3883,19.612
14.407000,-6.8037,-18.2556,0.2699,19.484
14.407000,-6.9417,-18.0427,0.1282,19.332
14.407000,-7.0623,-17.8204,-0.0940,19.169
14.408000,-7.2228,-17.5818,-0.4107,19.012
14.408000,-7.4259,-17.3028,-0.8260,18.847
14.409000,-7.6383,-16.9163,-1.3250,18.608
14.409000,-7.8170,-16.4704,-1.8740,18.327
14.410000,-7.9404,-16.0031,-2.4394,18.031
14.410000,-8.0348,-15.5293,-3.0043,17.741
14.410000,-8.1259,-15.0473,-3.5165,17.459
14.411000,-8.2277,-14.5627,-3.9526,17.187
14.418000,-8.3918,-14.1047,-4.2729,16.959
14.420000,-8.5863,-13.6525,-4.5292,16.752
14.425000,-8.7936,-13.2182,-4.7779,16.579
14.430000,-9.0010,-12.8254,-5.0369,16.458
14.442000,-9.1836,-12.4919,-5.2580,16.372
14.444000,-9.4102,-12.1646,-5.4281,16.309
14.444000,-9.6633,-11.8434,-5.5772,16.271
14.536000,-9.9473,-11.5327,-5.6798,16.255
14.537000,-10.2692,-11.2399,-5.7272,16.266
14.538000,-10.6118,-10.9687,-5.7078,16.294
14.539000,-10.9510,-10.7251,-5.6437,16.334
14.539000,-11.3010,-10.5345,-5.5160,16.405
14.540000,-11.6687,-10.4368,-5.2939,16.526
14.540000,-11.6593,-10.4618,-4.9731,16.435
14.540000,-11.9975,-10.5717,-4.6040,16.640
14.541000,-12.2549,-10.7022,-4.1955,16.802
14.541000,-12.3908,-10.7878,-3.7037,16.841
14.542000,-12.3551,-10.7619,-3.0939,16.675
14.542000,-11.6413,-10.6425,-2.4681,15.965
14.543000,-11.0512,-10.5172,-1.9327,15.378
14.543000,-10.3671,-10.4171,-1.5417,14.777
14.543000,-9.6347,-10.4045,-1.3610,14.245
14.544000,-8.6964,-10.4784,-1.3491,13.684
14.544000,-7.4803,-10.5882,-1.4694,13.047
14.545000,-6.0273,-10.6763,-1.7166,12.380
14.545000,-4.3996,-10.6920,-2.0445,11.741
14.545000,-2.6720,-10.6068,-2.3760,11.193
14.552000,-0.9235,-10.4473,-2.6434,10.816
14.554000,0.8005,-10.2023,-2.7995,10.610
14.560000,2.4528,-9.8890,-2.8714,10.586
14.568000,4.0626,-9.4813,-2.8720,10.707
14.570000,5.7294,-8.8772,-2.8454,10.942
14.574000,7.5269,-8.1051,-2.9498,11.448
14.579000,9.5059,-7.2012,-2.9542,12.286
14.682000,11.6827,-6.1943,-2.7715,13.511
14.683000,14.0212,-5.1304,-2.2985,15.106
14.684000,19.1658,-2.7695,-0.8062,19.382
14.684000,19.2512,-2.5494,-0.7881,19.435
14.684000,22.3549,-0.8060,0.0618,22.370
14.685000,25.7199,1.3049,0.9413,25.770
14.685000,29.1682,3.7288,1.8917,29.466
14.686000,31.9344,6.3561,2.9951,32.698
14.686000,32.0056,8.9786,4.2830,33.516
14.686000,32.0651,11.3297,5.6885,34.480
14.687000,32.1079,13.2155,7.0926,35.438
14.687000,32.1320,14.5491,8.3531,36.248
14.688000,32.1367,15.2904,9.3006,36.784
14.688000,31.0438,15.5331,9.6952,36.042
14.688000,27.3922,15.3848,9.5968,32.850
14.689000,23.7176,14.9562,9.1563,29.497
14.690000,20.2919,14.3308,8.3730,26.215
14.690000,17.3259,13.6445,7.2502,23.215
14.690000,14.8710,13.0511,5.9237,20.653
14.691000,12.8839,12.6837,4.5682,18.648
14.691000,11.2349,12.5956,3.3505,17.207
14.692000,9.7800,12.7701,2.3668,16.258
14.695000,8.4693,13.1306,1.6594,15.713
14.701000,7.2600,13.5476,1.2699,15.423
14.705000,6.1791,13.9588,1.1910,15.312
14.709000,5.2533,14.2968,1.3649,15.292
14.716000,4.4951,14.5446,1.6914,15.317
14.720000,3.8755,14.7209,2.0802,15.364
14.724000,3.3318,14.8632,2.4064,15.421
14.729000,2.8274,15.0233,2.6462,15.514
14.825000,2.3186,15.1882,2.7973,15.617
14.826000,1.7929,15.3306,2.8164,15.690
14.827000,1.2691,15.3971,2.6913,15.682
14.827000,0.7569,15.3395,2.4745,15.556
14.827000,0.2348,15.1410,2.0320,15.279
14.828000,-0.2803,14.8116,1.3530,14.876
14.828000,-0.7881,14.4288,0.4890,14.459
14.829000,-1.2619,14.0175,-0.5173,14.084
14.829000,-1.6638,13.5857,-1.5710,13.777
14.829000,-1.9528,13.1662,-2.6289,13.567
14.830000,-2.1271,12.7545,-3.6658,13.440
14.830000,-2.1896,12.3656,-4.6511,13.392
14.830000,-2.1528,11.9786,-5.5688,13.384
14.831000,-2.0703,11.5648,-6.3553,13.357
14.831000,-1.9182,11.1590,-7.0330,13.329
14.832000,-1.9435,10.7849,-7.6327,13.355
14.832000,-1.5459,10.4497,-8.0986,13.311
14.833000,-1.3601,10.1340,-8.3903,13.227
14.833000,-1.2063,9.8253,-8.4914,13.042
14.833000,-1.0486,9.4822,-8.4319,12.732
14.838000,-0.9174,9.0453,-8.2368,12.268
14.839000,-0.8601,8.4879,-7.9385,11.653
14.845000,-0.8474,7.8080,-7.5737,10.911
14.855000,-0.7997,7.0490,-7.1933,10.103
14.857000,-0.6594,6.2666,-6.7812,9.257
14.861000,-0.3640,5.4940,-6.3307,8.390
14.923000,0.1062,4.7300,-5.8309,7.509
14.924000,0.7320,3.9740,-5.2801,6.649
14.924000,1.4275,3.2116,-4.6940,5.864
14.924000,2.1046,2.4835,-4.1336,5.262
14.925000,2.7566,1.8566,-3.5545,4.866
14.925000,3.4301,1.3563,-2.8939,4.688
14.926000,4.1231,1.0085,-2.1250,4.747
14.926000,4.8837,0.8127,-1.2851,5.115
14.926000,5.7451,0.7247,-0.3920,5.804
14.927000,6.7286,0.6997,0.5561,6.788
14.927000,7.6948,0.6277,1.4603,7.857
14.927000,8.5196,0.4321,2.2992,8.835
14.928000,9.2148,0.1288,3.0279,9.700
14.930000,9.7277,-0.3230,3.6743,10.403
14.935000,10.0795,-0.8748,4.2427,10.971
14.941000,10.2800,-1.4993,4.7493,11.423
14.946000,10.4220,-2.1173,5.1792,11.829
14.951000,10.5794,-2.6666,5.5062,12.221
14.954000,10.7828,-3.1260,5.7223,12.601
14.959000,11.0555,-3.5454,5.8507,13.001
15.007000,11.3824,-3.9869,5.9572,13.452
15.007000,11.7322,-4.4775,6.0903,13.957
15.008000,12.0689,-5.0087,6.2718,14.494
15.008000,12.3710,-5.5603,6.4679,15.026
15.009000,12.5859,-6.1666,6.6136,15.498
15.009000,12.6711,-6.8021,6.6941,15.863
15.009000,12.6151,-7.4531,6.6033,16.072
15.010000,12.3969,-8.0969,6.2575,16.075
15.010000,12.0646,-8.6961,5.6595,15.912
15.010000,11.6640,-9.2681,4.9102,15.686
15.019000,11.2027,-9.8818,4.0619,15.481
15.020000,10.6787,-10.5293,3.0978,15.313
15.026000,10.0827,-11.2046,2.0224,15.208
15.031000,9.4507,-11.8665,0.8744,15.195
15.036000,8.7971,-12.4929,-0.2843,15.282
15.040000,8.1412,-13.0856,-1.3918,15.474
15.044000,7.4328,-13.6583,-2.3748,15.730
15.055000,6.6509,-14.1861,-3.1774,15.987
15.056000,5.7864,-14.6450,-3.7824,16.195
15.060000,4.8183,-15.0470,-4.1969,16.348
15.126000,3.7542,-15.4066,-4.4535,16.471
15.127000,2.5968,-15.7162,-4.5515,16.567
15.129000,1.3796,-15.9797,-4.4941,16.657
15.131000,0.1194,-16.2250,-4.3063,16.787
15.132000,-1.1051,-16.4734,-4.0600,17.002
15.134000,-2.2900,-16.7109,-3.7522,17.279
15.135000,-3.4264,-16.9138,-3.3868,17.587
15.137000,-4.5316,-17.0411,-2.9845,17.884
15.138000,-5.6277,-17.1118,-2.5781,18.197
15.139000,-6.7226,-17.1491,-2.2406,18.555
15.141000,-7.7167,-17.0882,-1.9969,18.856
15.142000,-8.5303,-16.9210,-1.8846,19.043
15.144000,-9.1241,-16.6602,-1.9178,19.092
15.145000,-9.4927,-16.3470,-2.0552,19.015
15.147000,-9.6729,-16.0204,-2.2542,18.849
15.148000,-9.7396,-15.6740,-2.4798,18.619
15.150000,-9.7173,-15.3213,-2.7333,18.348
15.155000,-9.6729,-14.9413,-3.0072,18.051
15.157000,-9.6060,-14.5395,-3.3088,17.738
15.162000,-9.5043,-14.1115,-3.6339,17.397
15.166000,-9.3740,-13.6912,-3.9429,17.055
15.171000,-9.2193,-13.2736,-4.2228,16.704
15.175000,-9.0460,-12.8577,-4.4513,16.339
15.180000,-8.8794,-12.4343,-4.6394,15.968
15.227000,-8.8979,-12.0519,-4.7840,15.726
15.230000,-8.7105,-11.6729,-4.8985,15.366
15.233000,-8.6946,-11.2542,-4.9960,15.074
15.235000,-8.6792,-10.8146,-5.0708,14.765
15.237000,-8.6473,-10.4025,-5.0757,14.448
15.238000,-8.6559,-10.0689,-5.0546,14.208
15.239000,-8.7284,-9.7974,-5.0562,14.062
15.241000,-8.8529,-9.6000,-5.0209,13.991
15.242000,-9.0530,-9.4660,-4.8987,13.984
15.243000,-9.3237,-9.4080,-4.6903,14.051
15.244000,-9.6650,-9.4006,-4.3931,14.180
15.246000,-9.9885,-9.4239,-4.0380,14.314
15.247000,-10.2918,-9.4390,-3.6748,14.440
15.253000,-10.5417,-9.4408,-3.3219,14.536
15.256000,-10.7310,-9.4496,-2.9835,14.607
15.262000,-10.8527,-9.4998,-2.6588,14.666
15.266000,-10.8903,-9.5635,-2.3519,14.683
15.272000,-10.7121,-9.5826,-2.0814,14.523
15.277000,-10.2536,-9.5259,-1.8491,14.117
15.287000,-9.5076,-9.4074,-1.6552,13.477
15.290000,-8.5367,-9.2678,-1.5255,12.692
15.291000,-7.4081,-9.1478,-1.4499,11.860
15.295000,-6.1650,-9.0599,-1.3991,11.047
15.359000,-4.8411,-8.9209,-1.2914,10.232
15.360000,-3.4365,-8.7463,-1.1463,9.467
15.360000,-2.0010,-8.5837,-0.9471,8.865
15.360000,-0.5712,-8.4338,-0.6560,8.479
15.361000,0.7408,-8.2511,-0.3861,8.293
15.361000,1.9254,-8.0937,-0.1349,8.321
15.361000,2.9827,-7.9377,0.1022,8.480
15.361000,3.9300,-7.7564,0.2244,8.698
15.362000,4.8949,-7.5213,0.2417,8.977
15.362000,6.0257,-7.2096,0.3188,9.402
15.362000,7.3996,-6.8104,0.5004,10.069
15.362000,8.9639,-6.3412,0.8217,11.011
15.363000,10.6037,-5.8055,1.2051,12.149
15.367000,12.2783,-5.1320,1.5355,13.396
15.370000,13.9617,-4.2570,1.7367,14.699
15.376000,15.6322,-3.1522,1.7905,16.047
15.382000,17.2860,-1.8209,1.7340,17.468
15.386000,18.8713,-0.3459,1.6693,18.948
15.390000,20.3121,1.2094,1.6865,20.418
15.395000,21.5445,2.7411,1.8634,21.798
15.441000,22.4938,4.1457,2.2341,22.982
15.441000,23.1112,5.3460,2.7958,23.886
15.441000,23.3575,6.3386,3.4253,24.443
15.442000,23.1699,7.1108,4.0115,24.566
15.442000,22.4771,7.6747,4.4264,24.160
15.442000,21.3090,8.0339,4.5832,23.230
15.443000,19.7794,8.2088,4.4386,21.870
15.443000,18.0749,8.3246,4.0697,20.312
