time,ax,ay,az,aT
0.005000,-0.1218,0.0019,-0.4875,0.502
0.006000,-0.1726,-0.0067,-0.3782,0.416
0.006000,-0.2281,-0.0108,-0.2830,0.364
0.006000,-0.2501,-0.0103,-0.2329,0.342
0.007000,-0.2604,-0.0125,-0.2229,0.343
0.020000,-0.2493,-0.0413,-0.2244,0.338
0.021000,-0.2600,-0.0702,-0.2158,0.345
0.023000,-0.2734,-0.0851,-0.1853,0.341
0.058000,-0.2946,-0.0811,-0.1686,0.349
0.059000,-0.3187,-0.0749,-0.1851,0.376
0.059000,-0.3099,-0.0617,-0.2301,0.391
0.059000,-0.2778,-0.0460,-0.2752,0.394
0.059000,-0.2292,-0.0374,-0.2918,0.373
0.060000,-0.1639,-0.0358,-0.2822,0.328
0.060000,-0.0988,-0.0079,-0.2681,0.286
0.068000,-0.0550,0.0034,-0.2710,0.277
0.068000,-0.0206,-0.0066,-0.2981,0.299
0.078000,0.0116,-0.0045,-0.3374,0.338
0.079000,0.0177,-0.0118,-0.3652,0.366
0.083000,0.0071,-0.0020,-0.3983,0.398
0.092000,-0.0060,-0.0038,-0.4104,0.410
0.093000,-0.0239,-0.0005,-0.3848,0.386
0.097000,-0.0658,0.0005,-0.3284,0.335
0.100000,-0.0912,0.0088,-0.2604,0.276
0.112000,-0.1071,0.0244,-0.1926,0.222
0.113000,-0.1137,0.0374,-0.1463,0.189
0.116000,-0.1372,0.0696,-0.1095,0.189
0.171000,-0.1800,0.0704,-0.1107,0.223
0.172000,-0.1894,0.0615,-0.1380,0.242
0.172000,-0.1822,0.0527,-0.1820,0.263
0.172000,-0.2133,0.0487,-0.2117,0.304
0.173000,-0.2205,0.0471,-0.2198,0.315
0.173000,-0.2134,0.0456,-0.2303,0.317
0.173000,-0.2063,0.0440,-0.2480,0.326
0.173000,-0.2254,0.0352,-0.2154,0.314
0.173000,-0.2611,0.0216,-0.1825,0.319
0.174000,-0.2441,0.0269,-0.1877,0.309
0.174000,-0.2221,0.0465,-0.2190,0.315
0.177000,-0.2096,0.0708,-0.2526,0.336
0.182000,-0.1898,0.0903,-0.3100,0.375
0.189000,-0.2010,0.0907,-0.3460,0.410
0.191000,-0.2193,0.0672,-0.3795,0.443
0.197000,-0.1970,0.0343,-0.4370,0.481
0.205000,-0.1497,0.0346,-0.4934,0.517
0.208000,-0.1645,0.0161,-0.5377,0.563
0.211000,-0.1317,0.0097,-0.5676,0.583
0.217000,-0.0422,0.0439,-0.6449,0.648
0.228000,-0.0244,0.0448,-0.7314,0.733
0.230000,0.0312,0.0388,-0.7156,0.717
0.231000,0.1032,0.0518,-0.6618,0.672
0.239000,0.1085,0.0742,-0.6347,0.648
0.241000,0.0973,0.1321,-0.6624,0.682
0.246000,0.1006,0.1991,-0.7163,0.750
0.251000,0.1228,0.2278,-0.7200,0.765
0.287000,0.1402,0.2255,-0.6957,0.745
0.287000,0.1718,0.2187,-0.6979,0.751
0.288000,0.2035,0.2192,-0.7336,0.792
0.288000,0.2473,0.2508,-0.7860,0.861
0.288000,0.2200,0.2825,-0.8124,0.888
0.288000,0.2235,0.3262,-0.8048,0.897
0.288000,0.2660,0.3584,-0.7620,0.883
0.294000,0.2928,0.3765,-0.6937,0.842
0.296000,0.2845,0.3974,-0.6832,0.840
0.301000,0.3271,0.4114,-0.6588,0.843
0.314000,0.2987,0.3561,-0.5988,0.758
0.314000,0.3882,0.3130,-0.6369,0.809
0.316000,0.4930,0.2773,-0.6968,0.897
0.331000,0.5676,0.2348,-0.7641,0.980
0.331000,0.5977,0.1759,-0.8150,1.026
0.331000,0.6143,0.1054,-0.8304,1.038
0.385000,0.3019,-0.0100,-0.8557,0.907
0.386000,-1.5643,-0.4214,-1.0469,1.929
0.387000,-1.7324,-0.4277,-1.3013,2.208
0.387000,-1.9765,-0.4211,-1.3732,2.443
0.387000,-1.9787,-0.5114,-1.6863,2.650
0.387000,-2.0166,-0.5094,-1.8628,2.792
0.388000,-1.7335,-0.5948,-1.8428,2.599
0.388000,-1.3245,-0.7152,-1.7905,2.339
0.389000,-1.2238,-0.8513,-1.6989,2.260
0.389000,-1.1940,-0.9436,-1.5749,2.190
0.390000,-0.9118,-0.9517,-1.4850,1.986
0.394000,-0.5153,-0.9331,-1.3955,1.756
0.396000,-0.2457,-0.9214,-1.3229,1.631
0.402000,-0.1599,-0.9456,-1.2406,1.568
0.415000,-0.1789,-0.9770,-1.1818,1.544
0.416000,-0.2359,-1.0203,-1.1899,1.585
0.416000,-0.3047,-1.0682,-1.2481,1.671
0.427000,-0.4500,-1.1206,-1.3301,1.797
0.428000,-0.6511,-1.1703,-1.4672,1.986
0.431000,-0.8147,-1.2196,-1.6522,2.209
0.443000,-0.9343,-1.2679,-1.8597,2.437
0.444000,-0.9761,-1.2862,-2.0327,2.596
0.446000,-0.9110,-1.2789,-2.1573,2.668
0.452000,-0.8181,-1.3058,-2.2361,2.716
0.513000,-0.7209,-1.3457,-2.2947,2.756
0.514000,-0.6319,-1.3863,-2.3408,2.793
0.514000,-0.5585,-1.4372,-2.3861,2.841
0.515000,-0.4965,-1.5104,-2.4355,2.909
0.517000,-0.4985,-1.5626,-2.4722,2.967
0.517000,-0.5743,-1.5961,-2.5206,3.038
0.517000,-0.6824,-1.6131,-2.6091,3.142
0.518000,-0.8232,-1.5987,-2.7218,3.262
0.518000,-0.9773,-1.6003,-2.8040,3.373
0.519000,-1.1134,-1.6178,-2.8464,3.458
0.519000,-1.2173,-1.6340,-2.8443,3.499
0.519000,-1.2823,-1.6963,-2.8222,3.534
0.520000,-1.3087,-1.9126,-2.8247,3.654
0.524000,-1.2571,-1.8926,-2.7706,3.583
0.527000,-1.2091,-1.8062,-2.7316,3.491
0.532000,-1.1075,-1.7086,-2.5733,3.281
0.538000,-0.9144,-1.6187,-2.3485,2.995
0.542000,-0.7109,-1.5687,-2.1584,2.761
0.547000,-0.5117,-1.4962,-1.9191,2.487
0.565000,-0.3260,-1.4136,-1.6039,2.163
0.565000,-0.1628,-1.3306,-1.2864,1.858
0.566000,-0.0293,-1.2454,-1.0211,1.611
0.566000,0.0812,-1.1699,-0.7957,1.417
0.573000,0.1958,-1.1295,-0.6134,1.300
0.576000,0.2859,-1.1313,-0.4692,1.258
0.582000,0.2995,-1.1899,-0.4562,1.309
0.614000,0.3210,-1.2692,-0.5985,1.439
0.615000,0.4075,-1.3179,-0.8727,1.632
0.615000,0.5127,-1.4104,-1.2715,1.967
0.616000,0.6764,-1.3993,-1.6477,2.265
0.616000,0.8487,-1.3031,-1.9298,2.478
0.616000,0.9640,-1.2511,-2.1088,2.635
0.617000,0.9368,-1.2670,-2.2230,2.725
0.624000,0.8641,-1.3309,-2.2367,2.742
0.628000,0.8425,-1.4299,-2.2375,2.786
0.632000,0.8807,-1.5199,-2.2544,2.858
0.636000,0.9509,-1.6269,-2.4426,3.085
0.642000,0.9838,-1.6333,-2.3658,3.039
0.647000,0.8976,-1.5703,-1.9387,2.651
0.662000,0.6790,-1.4712,-1.4725,2.189
0.663000,0.3601,-1.4012,-0.8629,1.685
0.663000,0.6598,-1.6861,-0.3986,1.854
0.667000,1.2668,-2.0235,-0.0274,2.387
0.672000,1.6563,-2.0577,-0.2115,2.650
0.677000,1.6952,-1.9369,0.6524,2.655
0.683000,1.4131,-1.8338,1.2567,2.634
0.720000,1.1022,-1.7035,1.5578,2.558
0.720000,0.7192,-1.5380,1.7793,2.459
0.721000,0.3750,-1.3303,2.0621,2.482
0.721000,0.1027,-1.0710,2.3698,2.603
0.721000,-0.0920,-0.8293,2.4077,2.548
0.721000,-0.3285,-0.6163,2.4145,2.514
0.722000,-0.5412,-0.4621,2.3668,2.471
0.722000,-0.5741,-0.4407,2.1336,2.253
0.727000,-0.4705,-0.4703,1.8534,1.969
0.731000,-0.2705,-0.5266,1.5515,1.661
0.738000,-0.0271,-0.5535,1.2323,1.351
0.742000,0.2135,-0.5351,0.9592,1.119
0.750000,0.4620,-0.4544,0.7421,0.985
0.753000,0.6947,-0.3568,0.6042,0.987
0.757000,0.9264,-0.2717,0.6239,1.149
0.763000,1.0549,-0.1965,0.7381,1.302
0.768000,1.1092,-0.1431,0.8422,1.400
0.785000,1.0774,-0.1093,0.9309,1.428
0.785000,0.9476,-0.1057,0.9515,1.347
0.785000,0.7532,-0.1014,0.8797,1.163
0.787000,0.5013,-0.1110,0.6868,0.858
0.793000,0.1963,-0.1047,0.3989,0.457
0.798000,-0.1586,-0.1161,0.0321,0.199
0.804000,-0.5561,-0.1436,-0.3951,0.697
0.808000,-0.9860,-0.2050,-0.8239,1.301
0.812000,-1.4237,-0.2799,-1.2478,1.914
0.817000,-1.7861,-0.4078,-1.6858,2.490
0.853000,-1.8938,-0.5760,-1.9999,2.814
0.854000,-1.7947,-0.8257,-2.1453,2.916
0.854000,-1.5718,-1.1018,-2.2505,2.958
0.855000,-1.3103,-1.3423,-2.3523,3.009
0.856000,-1.0783,-1.5211,-2.4214,3.056
0.857000,-0.9208,-1.6191,-2.4628,3.088
0.857000,-0.8905,-1.6416,-2.4931,3.115
0.858000,-0.9607,-1.6288,-2.5196,3.150
0.863000,-1.1053,-1.6189,-2.5494,3.216
0.868000,-1.3054,-1.6427,-2.5822,3.327
0.872000,-1.5209,-1.6902,-2.6295,3.476
0.879000,-1.7041,-1.7803,-2.7032,3.658
0.883000,-1.8463,-1.8961,-2.8217,3.869
0.896000,-1.9120,-2.0465,-2.9897,4.097
0.901000,-1.9376,-2.2118,-3.1901,4.339
0.902000,-1.9739,-2.4010,-3.4083,4.613
0.902000,-2.0213,-2.5580,-3.6463,4.891
0.935000,-2.0350,-2.6696,-3.8584,5.114
0.936000,-2.0300,-2.7311,-4.0203,5.267
0.936000,-2.0132,-2.6888,-4.1490,5.338
0.937000,-2.0162,-2.5498,-4.2131,5.321
0.937000,-1.9248,-2.5032,-4.2025,5.257
0.937000,-1.6488,-2.4454,-4.1218,5.068
0.938000,-1.2899,-2.3970,-4.0443,4.875
0.943000,-0.9401,-2.3655,-3.9046,4.661
0.948000,-0.5594,-2.3009,-3.6833,4.379
0.952000,-0.1570,-2.1323,-3.3470,3.972
0.957000,0.2013,-1.9138,-2.9396,3.513
0.962000,0.4733,-1.7056,-2.5355,3.092
0.967000,0.6447,-1.5386,-2.1398,2.713
0.972000,0.7468,-1.4299,-1.7258,2.362
0.977000,0.7471,-1.3562,-1.3230,2.037
0.983000,0.6593,-1.3015,-1.0042,1.771
0.989000,0.4932,-1.2868,-0.7910,1.589
0.993000,0.3440,-1.2896,-0.5921,1.460
0.997000,0.2577,-1.2783,-0.4388,1.376
1.052000,0.2486,-1.2887,-0.3289,1.353
1.053000,0.4080,-1.3308,-0.2087,1.407
1.053000,0.6486,-1.3737,-0.0700,1.521
1.053000,0.9618,-1.3769,0.0351,1.680
1.053000,1.2611,-1.3391,0.1287,1.844
1.054000,1.4477,-1.2792,0.1898,1.941
1.054000,1.3682,-1.2858,-0.0991,1.880
1.054000,0.9392,-1.4699,-0.4050,1.791
1.055000,0.6444,-1.5736,-0.7247,1.848
1.055000,0.5992,-1.3666,-0.2532,1.513
1.055000,0.0378,-1.5171,0.3521,1.558
1.058000,-0.6762,-1.9089,0.7442,2.158
1.063000,-1.0558,-2.2331,1.0550,2.686
1.067000,-1.3100,-2.4290,1.3479,3.071
1.073000,-1.5046,-2.5489,1.4594,3.300
1.078000,-1.8264,-2.7629,1.4976,3.635
1.096000,-2.0876,-3.0116,1.4980,3.959
1.097000,-2.2440,-3.2604,1.5551,4.253
1.097000,-2.2847,-3.5160,1.6266,4.498
1.097000,-2.2088,-3.8135,1.6922,4.721
1.137000,-1.9635,-4.1042,1.7875,4.888
1.138000,-1.5118,-4.3514,1.8548,4.966
1.139000,-0.8610,-4.5743,1.9055,5.030
1.140000,0.0194,-4.7500,1.8437,5.095
1.140000,1.1421,-4.8126,1.7372,5.242
1.140000,2.3809,-4.7064,1.6132,5.516
1.141000,3.5309,-4.4685,1.4324,5.873
1.141000,4.5115,-4.1779,1.2457,6.274
1.143000,5.3519,-3.9001,1.1604,6.723
1.147000,5.9638,-3.6595,1.1278,7.087
1.152000,6.4078,-3.4851,1.0869,7.375
1.159000,6.3976,-3.4096,1.0492,7.325
1.163000,6.8476,-3.4502,1.0110,7.734
1.169000,6.9377,-3.6219,0.9602,7.885
1.174000,7.1015,-3.9165,0.8419,8.153
1.179000,7.4526,-4.2210,0.6888,8.593
1.184000,7.9300,-4.4132,0.4738,9.088
1.189000,8.4683,-4.4497,0.1484,9.567
1.194000,9.1161,-4.2548,-0.2884,10.064
1.198000,9.7910,-3.8861,-0.8226,10.566
1.242000,10.3890,-3.3842,-1.4043,11.016
1.244000,10.9117,-2.8469,-1.9575,11.446
1.244000,11.4061,-2.3262,-2.4134,11.888
1.245000,11.8479,-1.8136,-2.7884,12.306
1.245000,12.2128,-1.2922,-3.0767,12.661
1.245000,12.4623,-0.7361,-3.3184,12.918
1.246000,12.4811,-0.1959,-3.5028,12.965
1.247000,12.3076,0.2919,-3.5958,12.825
1.248000,11.9390,0.9282,-4.2051,12.692
1.248000,11.4865,1.3427,-4.1375,12.283
1.253000,10.9889,1.4788,-3.5642,11.647
1.258000,10.3688,1.4668,-2.9643,10.883
1.264000,9.6662,1.4606,-2.6242,10.122
1.269000,8.9390,1.4723,-2.4710,9.390
1.274000,8.1771,1.5000,-2.2914,8.624
1.278000,7.3895,1.5052,-1.9517,7.790
1.284000,6.5610,1.5012,-1.5269,6.902
1.288000,5.7287,1.4815,-1.0324,6.007
1.293000,4.9706,1.4732,-0.5390,5.212
1.298000,4.2894,1.5079,-0.2013,4.551
1.310000,3.6900,1.6230,0.1226,4.033
1.313000,3.3470,1.8926,0.5418,3.883
1.314000,3.1759,2.1811,1.4395,4.113
1.359000,3.0861,2.4732,2.6676,4.770
1.360000,3.0844,2.7512,4.1191,5.835
1.360000,3.1124,2.9857,5.5974,7.066
1.360000,3.1873,3.2852,6.6708,8.090
1.361000,3.2636,3.7060,7.1739,8.709
1.361000,3.2080,4.2378,7.2413,8.983
1.362000,3.0818,4.8591,6.8976,8.983
1.362000,2.8517,5.4654,6.4508,8.923
1.362000,2.5893,5.9926,5.8735,8.781
1.363000,2.3402,6.4509,5.1296,8.568
1.369000,2.0751,6.7490,4.7565,8.513
1.373000,1.5668,6.8131,4.6739,8.409
1.379000,1.2162,6.8314,4.1408,8.080
1.385000,1.5991,6.8377,3.5987,7.891
1.389000,2.0831,6.7457,3.9042,8.068
1.394000,2.0599,6.5441,4.1035,7.994
1.398000,1.9426,6.2755,3.1829,7.300
1.404000,1.4339,6.3262,1.6887,6.703
1.408000,0.8148,6.6287,0.4833,6.696
1.414000,0.1979,6.9626,-0.0982,6.966
1.425000,-0.3234,7.1722,-0.0437,7.180
1.427000,-0.6965,7.2131,0.3617,7.256
1.428000,-1.0917,7.1309,0.7133,7.249
1.433000,-1.3199,6.9069,0.8933,7.088
1.476000,-1.4030,6.6128,0.9577,6.827
1.479000,-1.4868,6.3803,0.9769,6.624
1.479000,-1.6141,6.2982,0.9998,6.578
1.480000,-1.7580,6.3163,0.9934,6.631
1.480000,-1.9567,6.3247,0.9867,6.694
1.481000,-2.1381,6.2759,1.0251,6.709
1.481000,-2.2640,6.1628,1.0945,6.656
1.482000,-2.2986,6.0453,1.2014,6.578
1.482000,-2.2399,5.9803,1.3170,6.520
1.484000,-2.1245,5.9580,1.3835,6.475
1.489000,-2.0339,5.9563,1.3770,6.443
1.495000,-1.9684,5.9677,1.3217,6.421
1.498000,-1.8826,5.9896,1.2487,6.401
1.504000,-1.7696,5.9980,1.2083,6.369
1.509000,-1.6774,5.9638,1.1863,6.308
1.513000,-1.6085,5.8751,1.2496,6.218
1.519000,-1.6969,5.7223,1.2493,6.098
1.524000,-1.8846,5.5202,1.2479,5.965
1.528000,-2.0658,5.2958,1.3693,5.847
1.533000,-2.2092,5.0856,1.5819,5.766
1.538000,-2.3648,4.8803,1.8063,5.716
1.544000,-2.4823,4.7065,2.0470,5.701
1.548000,-2.5522,4.5786,2.3275,5.735
1.592000,-2.5391,4.4724,2.6110,5.768
1.595000,-2.4218,4.3831,2.8606,5.767
1.596000,-2.1940,4.3028,3.0850,5.731
1.597000,-1.9663,4.1977,3.2355,5.653
1.597000,-1.8297,4.0533,3.2520,5.509
1.598000,-1.8274,3.8982,3.1198,5.317
1.599000,-1.9678,3.7188,2.8732,5.095
1.600000,-2.0089,3.5443,2.5749,4.820
1.604000,-1.9432,3.3796,2.2948,4.524
1.604000,-1.8736,3.1911,1.9976,4.205
1.605000,-1.0872,2.7871,1.6923,3.437
1.609000,-0.5809,2.4288,1.7850,3.070
1.614000,-0.6914,2.2957,2.2859,3.313
1.627000,-1.0323,2.2077,2.5444,3.523
1.628000,-1.1236,2.0754,2.5572,3.480
1.628000,-0.9649,1.8275,2.5536,3.285
1.633000,-0.7767,1.4422,2.6637,3.127
1.666000,-0.5229,0.9630,2.8768,3.078
1.666000,-0.1936,0.4432,3.0179,3.056
1.667000,0.0989,-0.0763,2.9046,2.907
1.667000,0.3456,-0.5425,2.5146,2.596
1.667000,0.6163,-0.9264,1.9649,2.258
1.668000,0.9375,-1.2235,1.3908,2.076
1.671000,1.3283,-1.4839,0.8349,2.160
1.675000,1.8075,-1.6843,0.3048,2.489
1.679000,2.3125,-1.8729,-0.1584,2.980
1.684000,2.7972,-2.1078,-0.5160,3.540
1.689000,3.2400,-2.3845,-0.8042,4.102
1.694000,3.6550,-2.7033,-1.0476,4.665
1.699000,4.0995,-3.0423,-1.2791,5.263
1.705000,4.5854,-3.3757,-1.5185,5.893
1.709000,5.0621,-3.7156,-1.7371,6.515
1.714000,5.4862,-4.0361,-1.9232,7.077
1.720000,5.8483,-4.3517,-2.0659,7.577
1.724000,6.1460,-4.6743,-2.1222,8.008
1.728000,6.3963,-5.0326,-2.0817,8.401
1.733000,6.7477,-5.4430,-2.0080,8.899
1.739000,7.3103,-5.8842,-2.0293,9.601
1.745000,8.0431,-6.3420,-2.1912,10.474
1.749000,8.8977,-6.7597,-2.5007,11.451
1.766000,9.8379,-7.0566,-2.9512,12.461
1.770000,10.7623,-7.1812,-3.4937,13.402
1.771000,11.4981,-7.2063,-3.9258,14.126
1.772000,11.9807,-7.0657,-4.3527,14.574
1.774000,12.6735,-6.7648,-4.8674,15.168
1.815000,12.9600,-6.4563,-5.1916,15.382
1.816000,12.8420,-6.0936,-5.3224,15.178
1.816000,12.3919,-5.6486,-5.3729,14.640
1.817000,11.5959,-5.1283,-5.4191,13.789
1.817000,10.5815,-4.6009,-5.3295,12.710
1.818000,9.4565,-4.1660,-5.1166,11.531
1.822000,8.3389,-3.8720,-4.7596,10.353
1.824000,7.2646,-3.6944,-4.2637,9.198
1.824000,6.2699,-3.5804,-3.6782,8.103
1.825000,5.3813,-3.5010,-3.1072,7.132
1.828000,4.5968,-3.4128,-2.6925,6.327
1.835000,3.8804,-3.3232,-2.4513,5.667
1.842000,3.2376,-3.2022,-2.3782,5.137
1.845000,2.6897,-3.0641,-2.4130,4.738
1.849000,2.2344,-2.8992,-2.4885,4.426
1.889000,1.8262,-2.7293,-2.5329,4.147
1.890000,1.4723,-2.5734,-2.4988,3.877
1.891000,1.3495,-2.4901,-2.4250,3.729
1.891000,1.1850,-2.4718,-2.2088,3.520
1.891000,0.5823,-2.4192,-2.0009,3.193
1.892000,-0.0721,-2.3483,-1.8596,2.996
1.892000,-0.7220,-2.2863,-1.8938,3.055
1.892000,-1.3149,-2.3233,-2.0064,3.340
1.894000,-1.8692,-2.4429,-2.1277,3.740
1.899000,-2.3755,-2.5851,-2.1739,4.129
1.905000,-2.8289,-2.6851,-2.1076,4.433
1.909000,-3.2485,-2.7284,-1.9824,4.683
1.914000,-3.6104,-2.7152,-1.8373,4.877
1.921000,-3.5658,-2.7395,-1.7684,4.832
1.924000,-3.9021,-2.6890,-1.6702,5.025
1.930000,-4.4346,-2.5669,-1.5517,5.354
1.938000,-4.8301,-2.4294,-1.4461,5.597
1.940000,-5.0815,-2.2979,-1.4517,5.763
1.944000,-5.2492,-2.2561,-1.4121,5.885
1.949000,-5.3668,-2.2926,-1.2892,5.977
1.954000,-5.3004,-2.4040,-1.1672,5.936
1.959000,-5.1678,-2.5319,-1.0715,5.854
1.964000,-5.3900,-2.5765,-0.9732,6.053
1.973000,-5.6270,-2.5537,-0.8825,6.242
1.974000,-5.8306,-2.5018,-0.8716,6.404
1.980000,-6.0512,-2.4266,-0.8913,6.580
1.984000,-6.2648,-2.3812,-0.8530,6.756
2.037000,-6.4740,-2.3848,-0.7735,6.942
2.038000,-6.6428,-2.4345,-0.6790,7.107
2.038000,-6.8718,-2.4755,-0.5474,7.325
2.038000,-7.1227,-2.4913,-0.3673,7.555
2.039000,-7.3020,-2.4925,-0.1910,7.718
2.039000,-7.4195,-2.5082,-0.0401,7.832
2.040000,-7.5302,-2.5265,0.1215,7.944
2.040000,-7.6414,-2.5521,0.2768,8.061
2.040000,-7.7265,-2.6092,0.4257,8.166
2.040000,-7.7690,-2.6943,0.5449,8.241
2.041000,-7.8024,-2.7956,0.6679,8.315
2.045000,-7.8698,-2.8913,0.7732,8.420
2.051000,-7.9089,-2.9860,0.8468,8.496
2.054000,-7.9509,-3.0577,0.9180,8.568
2.060000,-7.9409,-3.1138,1.0318,8.592
2.064000,-7.8742,-3.1441,1.1627,8.558
2.072000,-7.7412,-3.1733,1.2672,8.462
2.074000,-7.5732,-3.2067,1.3336,8.332
2.079000,-7.3990,-3.2544,1.3671,8.198
2.084000,-7.2450,-3.3022,1.3898,8.082
2.108000,-7.1638,-3.3577,1.3943,8.034
2.109000,-7.1412,-3.4395,1.3891,8.047
2.110000,-7.1199,-3.5450,1.3671,8.070
2.110000,-7.0857,-3.6695,1.3411,8.091
2.110000,-7.0247,-3.8179,1.3308,8.105
2.114000,-6.9752,-3.9713,1.3247,8.135
2.120000,-6.9619,-4.1608,1.3050,8.215
2.124000,-7.0016,-4.3672,1.2936,8.353
2.129000,-7.0637,-4.6168,1.2772,8.535
2.135000,-7.1367,-4.9236,1.2613,8.762
2.139000,-7.2281,-5.2588,1.2609,9.027
2.144000,-7.3166,-5.6079,1.2404,9.302
2.150000,-7.4294,-6.0014,1.1793,9.623
2.154000,-7.5592,-6.3983,1.0805,9.962
2.160000,-7.7041,-6.8077,0.9607,10.326
2.165000,-7.8258,-7.2219,0.8393,10.682
2.171000,-7.9317,-7.6566,0.7040,11.047
2.174000,-8.0121,-8.0898,0.5216,11.398
2.180000,-8.0675,-8.5208,0.2925,11.738
2.184000,-8.0929,-8.9201,0.0358,12.044
2.225000,-8.0618,-9.3063,-0.2345,12.315
2.226000,-7.9523,-9.6738,-0.5098,12.533
2.227000,-7.7566,-10.0456,-0.7764,12.715
2.227000,-7.4551,-10.4264,-1.0236,12.858
2.228000,-7.0064,-10.8039,-1.2500,12.937
2.229000,-6.4387,-11.1876,-1.4447,12.989
2.229000,-5.7750,-11.5536,-1.6690,13.024
2.230000,-5.0172,-11.9116,-1.9332,13.069
2.231000,-4.1790,-12.2135,-2.2716,13.107
2.237000,-3.2383,-12.4680,-2.6420,13.150
2.240000,-2.1731,-12.7035,-3.0184,13.237
2.245000,-0.9855,-12.8969,-3.4561,13.388
2.250000,0.2243,-12.9940,-3.9699,13.589
2.255000,1.3876,-12.9488,-4.5933,13.809
2.262000,2.4543,-12.7904,-5.3169,14.067
2.266000,3.4152,-12.5062,-6.0875,14.322
2.270000,4.3547,-12.1129,-6.8382,14.576
2.275000,5.3401,-11.5942,-7.5140,14.812
2.281000,6.3574,-10.9483,-8.0267,14.990
2.286000,7.4312,-10.2325,-8.3079,15.131
2.290000,8.5590,-9.4671,-8.3902,15.273
2.295000,9.6722,-8.6424,-8.3159,15.408
2.301000,10.7158,-7.7791,-8.0620,15.503
2.311000,11.6277,-6.9431,-7.6598,15.559
2.312000,12.3430,-6.1927,-7.1308,15.542
2.316000,12.8336,-5.5534,-6.4937,15.418
2.367000,13.1102,-5.0059,-5.7543,15.167
2.369000,13.1539,-4.4677,-4.9234,14.739
2.370000,12.9214,-3.9008,-3.9468,14.063
2.371000,12.4102,-3.3052,-2.8187,13.148
2.372000,11.7019,-2.7088,-1.6361,12.122
2.372000,10.8732,-2.0998,-0.4612,11.084
2.373000,9.9712,-1.4919,0.6988,10.106
2.373000,9.0015,-0.9259,1.8514,9.236
2.374000,8.0035,-0.3682,2.9512,8.538
2.374000,7.0764,0.2289,3.9663,8.115
2.374000,6.3275,0.9234,4.8788,8.043
2.375000,5.8303,1.7121,5.6885,8.324
2.383000,5.6371,2.6093,6.3512,8.884
2.386000,5.6821,3.5198,6.8627,9.580
2.390000,5.9068,4.4020,7.1878,10.292
2.396000,6.2437,5.2211,7.2955,10.930
2.402000,6.5586,5.9750,7.2036,11.428
2.407000,6.8407,6.6499,6.9553,11.806
2.411000,7.1094,7.2226,6.5808,12.084
2.415000,7.3358,7.7099,6.0887,12.261
2.457000,7.4721,8.1337,5.5144,12.345
2.458000,7.5137,8.5212,4.8914,12.369
2.459000,7.4435,8.8551,4.2520,12.325
2.459000,7.3053,9.1269,3.6422,12.245
2.459000,7.0585,9.3205,3.1264,12.102
2.460000,6.6917,9.4292,2.7069,11.875
2.460000,6.2125,9.4417,2.3858,11.551
2.461000,5.6671,9.3729,2.1918,11.170
2.461000,5.0468,9.2114,2.0808,10.707
2.467000,4.3857,8.9723,2.0311,10.191
2.472000,3.7065,8.6805,2.0284,9.654
2.475000,3.0386,8.3796,2.0486,9.146
2.482000,2.3803,8.0704,2.0513,8.661
2.487000,1.7324,7.7775,2.0441,8.226
2.491000,1.1388,7.5112,2.0171,7.860
2.496000,0.6333,7.2526,1.9753,7.543
2.503000,0.2066,6.9831,1.9046,7.241
2.507000,-0.1600,6.6910,1.8241,6.937
2.511000,-0.4475,6.3766,1.6912,6.612
2.515000,-0.6743,6.0549,1.5012,6.275
2.523000,-0.8552,5.7762,1.2930,5.981
2.526000,-1.0209,5.5120,1.0576,5.705
2.530000,-1.1618,5.2652,0.8097,5.452
2.583000,-1.2658,5.0646,0.5883,5.253
2.585000,-1.3331,4.8887,0.4010,5.083
2.586000,-1.3612,4.7210,0.2479,4.920
2.587000,-1.3647,4.5782,0.1436,4.779
2.588000,-1.3604,4.4579,0.1049,4.662
2.590000,-1.3244,4.3693,0.1291,4.567
2.590000,-1.2879,4.3197,0.2112,4.513
2.593000,-1.2577,4.2828,0.3410,4.477
2.594000,-1.2604,4.2248,0.5132,4.439
2.594000,-1.2503,4.1578,0.7517,4.406
2.595000,-1.2514,4.0840,1.0392,4.396
2.595000,-1.2515,3.9869,1.3681,4.397
2.597000,-1.2554,3.8495,1.7141,4.397
2.602000,-1.2341,3.6842,2.0789,4.407
2.606000,-1.1705,3.4815,2.4264,4.402
2.612000,-1.0598,3.2560,2.7370,4.384
2.617000,-0.8876,3.0125,3.0060,4.347
2.624000,-0.6586,2.7701,3.2500,4.321
2.626000,-0.3851,2.5480,3.4880,4.337
2.632000,-0.0240,2.3197,3.7173,4.382
2.683000,0.4054,2.0920,3.8993,4.444
2.685000,0.8931,1.8455,4.0315,4.523
2.685000,1.4148,1.6039,4.1186,4.641
2.685000,1.9199,1.3427,4.1511,4.767
2.686000,2.4061,1.0668,4.1674,4.929
2.686000,2.8588,0.7807,4.1556,5.104
2.687000,3.2972,0.4699,4.1490,5.320
2.687000,3.7044,0.1510,4.1596,5.572
2.687000,4.0924,-0.1761,4.1803,5.853
2.688000,4.4708,-0.5092,4.1865,6.146
2.688000,4.8658,-0.8558,4.1453,6.449
2.691000,5.3131,-1.2040,4.0805,6.807
2.696000,5.7860,-1.5999,4.0111,7.220
2.702000,6.2820,-2.0388,3.8295,7.634
2.706000,6.7981,-2.5095,3.5743,8.080
2.711000,7.3196,-3.0307,3.2807,8.575
2.717000,7.8676,-3.5957,2.9396,9.136
2.723000,8.4032,-4.1879,2.5284,9.723
2.726000,8.9070,-4.7544,2.0386,10.300
2.731000,9.3474,-5.2642,1.4620,10.827
2.768000,9.6598,-5.6478,0.7948,11.218
2.769000,9.8680,-5.8587,0.1020,11.477
2.770000,9.9435,-5.8537,-0.5609,11.552
2.770000,9.8622,-5.6973,-1.1162,11.444
2.771000,9.6866,-5.4394,-1.5185,11.213
2.771000,9.4981,-5.1590,-1.7340,10.947
2.771000,9.3367,-4.8162,-1.7757,10.655
2.772000,9.1886,-4.4564,-1.6870,10.351
2.776000,8.9983,-4.0996,-1.5122,10.003
2.781000,8.7609,-3.7706,-1.2711,9.622
2.787000,8.4572,-3.5083,-0.9619,9.206
2.791000,8.1158,-3.3135,-0.6237,8.788
2.797000,7.7301,-3.1906,-0.2925,8.368
2.801000,7.3504,-3.1590,0.0004,8.000
2.805000,6.9671,-3.1976,0.2121,7.669
2.811000,6.5826,-3.2823,0.3812,7.365
2.817000,6.1541,-3.4274,0.4771,7.060
2.821000,5.6839,-3.6190,0.5264,6.759
2.825000,5.1617,-3.8408,0.5076,6.454
2.831000,4.6140,-4.0856,0.3970,6.176
2.881000,4.0632,-4.2974,0.2334,5.919
2.882000,3.5215,-4.4948,0.0503,5.710
2.882000,3.4345,-4.6650,-0.1329,5.794
2.883000,2.4362,-4.7774,-0.3358,5.373
2.883000,1.9163,-4.8033,-0.5374,5.199
2.884000,1.4437,-4.7603,-0.7214,5.026
2.884000,1.0235,-4.6289,-0.9052,4.826
2.884000,0.6106,-4.4618,-1.1156,4.640
2.885000,0.1950,-4.2645,-1.3050,4.464
2.885000,-0.2293,-4.0760,-1.4621,4.336
2.893000,-0.6626,-3.9087,-1.5609,4.261
2.894000,-1.0738,-3.7340,-1.6185,4.209
2.897000,-1.4818,-3.5544,-1.6691,4.197
2.902000,-1.8700,-3.3651,-1.7057,4.211
2.907000,-2.2506,-3.1980,-1.7213,4.273
2.912000,-2.6012,-3.0540,-1.7528,4.378
2.919000,-2.9534,-2.9385,-1.7785,4.530
2.922000,-3.2832,-2.8537,-1.8035,4.709
2.926000,-3.5716,-2.7828,-1.8109,4.876
2.931000,-3.8235,-2.7018,-1.8007,5.016
2.935000,-4.0442,-2.6379,-1.7680,5.142
2.947000,-4.2307,-2.6065,-1.7253,5.260
2.948000,-4.3930,-2.5749,-1.6701,5.359
2.952000,-4.5145,-2.5646,-1.5908,5.430
2.961000,-4.6284,-2.5615,-1.4949,5.497
2.962000,-4.6993,-2.5806,-1.3800,5.536
2.966000,-4.7460,-2.5874,-1.2395,5.546
3.004000,-4.7926,-2.6020,-1.1068,5.565
3.005000,-4.8462,-2.6508,-0.9823,5.610
3.005000,-4.9141,-2.7340,-0.8467,5.687
3.005000,-4.9960,-2.8611,-0.6980,5.799
3.006000,-5.1088,-3.0184,-0.5459,5.959
3.006000,-5.2450,-3.2207,-0.4071,6.168
3.006000,-5.4191,-3.4304,-0.2816,6.420
3.006000,-5.6021,-3.6613,-0.1690,6.695
3.015000,-5.8014,-3.8798,-0.0696,6.980
3.016000,-6.0144,-4.1142,0.0051,7.287
3.029000,-6.2102,-4.3551,0.0837,7.586
3.030000,-6.3817,-4.6149,0.1690,7.877
3.033000,-6.5361,-4.8630,0.2684,8.151
3.037000,-6.6974,-5.0991,0.3603,8.425
3.048000,-6.8753,-5.3250,0.4520,8.708
3.049000,-7.0770,-5.5246,0.5388,8.994
3.052000,-7.2787,-5.6890,0.6403,9.260
3.066000,-7.5118,-5.8499,0.7325,9.549
3.066000,-7.7857,-5.9854,0.8180,9.855
3.066000,-8.1221,-6.1286,0.8657,10.212
3.145000,-8.5092,-6.2858,0.8830,10.616
3.146000,-8.9159,-6.4426,0.8917,11.036
3.146000,-9.2927,-6.5898,0.9094,11.428
3.147000,-9.6255,-6.7300,0.9387,11.782
3.147000,-9.8979,-6.8489,0.9802,12.076
3.147000,-10.0984,-6.9678,1.0269,12.312
3.148000,-10.2629,-7.0895,1.0741,12.520
3.148000,-10.3946,-7.2276,1.1227,12.710
3.149000,-10.5126,-7.3775,1.1247,12.892
3.149000,-10.6197,-7.5557,1.0757,13.078
3.150000,-10.7257,-7.7426,0.9835,13.265
3.150000,-10.8143,-7.9475,0.8796,13.449
3.150000,-10.8571,-8.1343,0.7551,13.587
3.151000,-10.8378,-8.3075,0.6155,13.669
3.151000,-10.7423,-8.4479,0.4582,13.674
3.152000,-10.5466,-8.5413,0.2618,13.574
3.154000,-10.2746,-8.6311,0.0285,13.419
3.158000,-9.9551,-8.7151,-0.2560,13.233
3.163000,-9.5952,-8.8075,-0.5653,13.037
3.166000,-9.2282,-8.9253,-0.8805,12.868
3.172000,-8.8131,-9.0490,-1.1827,12.687
3.176000,-8.3280,-9.1879,-1.4800,12.489
3.182000,-7.7842,-9.2797,-1.7925,12.244
3.190000,-7.1668,-9.3484,-2.0923,11.964
3.193000,-6.4777,-9.4249,-2.3515,11.676
3.197000,-5.7163,-9.5346,-2.5539,11.406
3.240000,-4.8990,-9.6893,-2.7025,11.189
3.242000,-4.0682,-9.9089,-2.8147,11.075
3.242000,-3.2426,-10.1721,-2.9149,11.067
3.243000,-2.4099,-10.4546,-3.0153,11.144
3.243000,-1.6414,-10.7224,-3.1472,11.295
3.244000,-0.9437,-10.9483,-3.3611,11.491
3.244000,-0.2998,-11.1322,-3.6565,11.721
3.245000,0.2976,-11.2405,-3.9683,11.924
3.245000,0.8848,-11.3066,-4.2603,12.115
3.248000,1.4553,-11.3151,-4.5494,12.282
3.252000,2.0403,-11.2942,-4.8377,12.455
3.258000,2.6668,-11.2116,-5.1325,12.616
3.262000,3.3302,-11.0289,-5.4164,12.730
3.267000,4.0475,-10.7419,-5.6744,12.805
3.277000,4.8214,-10.3472,-5.8628,12.833
3.279000,5.6559,-9.8263,-5.9946,12.825
3.282000,6.5009,-9.2386,-6.0477,12.814
3.328000,7.2941,-8.6158,-6.0044,12.786
3.330000,8.0473,-7.9990,-5.7632,12.726
3.330000,8.7698,-7.4105,-5.2879,12.641
3.330000,9.4385,-6.8543,-4.5380,12.516
3.331000,9.9853,-6.3584,-3.5067,12.346
3.332000,10.4202,-5.8985,-2.2880,12.191
3.332000,10.7649,-5.4546,-0.9614,12.106
3.333000,11.0259,-4.9850,0.3574,12.106
3.333000,11.1024,-4.4718,1.6042,12.076
3.334000,10.9465,-3.9336,2.7127,11.944
3.341000,10.5556,-3.3902,3.7008,11.688
3.341000,9.9582,-2.8549,4.6272,11.346
3.347000,9.2060,-2.2993,5.4859,10.960
3.352000,8.3745,-1.6711,6.3016,10.613
3.358000,7.4756,-0.9863,7.0944,10.353
3.363000,6.5596,-0.2760,7.9042,10.275
3.368000,5.6604,0.4365,8.6757,10.368
3.373000,4.8924,1.2036,9.4249,10.687
3.378000,4.3817,2.0651,10.1432,11.240
3.382000,4.1679,2.9956,10.7709,11.931
3.421000,4.2218,3.9923,11.2130,12.629
3.421000,4.4886,4.9639,11.4065,13.225
3.422000,4.9110,5.8488,11.3069,13.644
3.422000,5.4524,6.6158,10.9321,13.893
3.423000,6.0475,7.2626,10.3628,14.025
3.423000,6.5886,7.7757,9.6565,14.040
3.424000,7.0147,8.1309,8.7980,13.882
3.424000,7.2859,8.3414,7.8240,13.560
3.428000,7.3907,8.4493,6.7758,13.112
3.432000,7.3419,8.4629,5.7286,12.583
3.437000,7.1783,8.4144,4.7309,12.030
3.442000,6.9226,8.3052,3.8246,11.468
3.447000,6.5868,8.1811,3.0243,10.930
3.452000,6.2102,8.0599,2.3068,10.433
3.458000,5.8173,7.9543,1.6823,9.997
3.465000,5.4087,7.8600,1.1510,9.610
3.469000,4.9873,7.7680,0.7083,9.258
3.475000,4.5635,7.6956,0.3187,8.953
3.479000,4.1759,7.6263,0.0010,8.695
3.484000,3.8368,7.5891,-0.2374,8.507
3.489000,3.5560,7.5531,-0.4276,8.359
3.492000,3.3120,7.5231,-0.5818,8.240
3.498000,3.1071,7.4918,-0.6808,8.139
3.508000,2.9102,7.4424,-0.7442,8.026
3.510000,2.7094,7.3534,-0.7795,7.875
3.513000,2.4785,7.2296,-0.8224,7.687
3.517000,2.2250,7.0211,-0.8897,7.419
3.568000,1.9638,6.7309,-1.0050,7.083
3.569000,1.6978,6.4170,-1.1291,6.733
3.570000,1.4776,6.0990,-1.2428,6.397
3.570000,1.3058,5.8320,-1.3241,6.121
3.570000,1.1726,5.6066,-1.3633,5.888
3.571000,1.0828,5.4180,-1.3412,5.686
3.571000,1.0483,5.2444,-1.2554,5.494
3.571000,1.1001,5.0715,-1.0968,5.304
3.572000,1.2356,4.9015,-0.8824,5.131
3.572000,1.3994,4.7437,-0.6531,4.989
3.572000,1.5700,4.5740,-0.3971,4.852
3.579000,1.7257,4.3661,-0.0860,4.696
3.584000,1.8760,4.0650,0.2776,4.486
3.589000,2.0167,3.6563,0.7123,4.236
3.593000,2.2050,3.1785,1.1794,4.044
3.599000,2.4601,2.6915,1.6286,3.993
3.607000,2.7578,2.2930,2.0164,4.115
3.609000,3.0862,2.0092,2.3812,4.385
3.613000,3.4160,1.8540,2.7778,4.777
3.617000,3.7043,1.7841,3.2270,5.227
3.668000,3.9389,1.7199,3.7330,5.693
3.669000,4.1484,1.6420,4.2852,6.186
3.670000,4.3327,1.5167,4.8611,6.686
3.670000,4.4942,1.3625,5.4358,7.183
3.670000,4.6019,1.1389,5.9702,7.624
3.671000,4.6729,0.8649,6.4157,7.984
3.671000,4.7383,0.5332,6.7554,8.269
3.671000,4.8533,0.1583,6.9607,8.487
3.672000,5.0106,-0.2790,7.0250,8.633
3.672000,5.2049,-0.8098,6.9298,8.705
3.673000,5.4459,-1.4074,6.6909,8.741
3.679000,5.7617,-1.9906,6.3525,8.804
3.684000,6.1040,-2.5427,5.9300,8.882
3.688000,6.4632,-3.0924,5.4387,8.995
3.693000,6.8006,-3.6085,4.9084,9.130
3.699000,7.0950,-4.0761,4.4240,9.302
3.704000,7.3536,-4.4737,4.0267,9.503
3.708000,7.5738,-4.7920,3.7237,9.705
3.714000,7.7678,-5.0264,3.4739,9.883
3.718000,7.9212,-5.1724,3.2460,10.002
3.724000,8.0287,-5.2452,3.0419,10.061
3.728000,8.0909,-5.2540,2.8669,10.064
3.732000,8.1075,-5.1948,2.6940,9.999
3.794000,8.0734,-5.0873,2.4778,9.859
3.795000,8.0006,-4.9391,2.2090,9.658
3.796000,7.8576,-4.7886,1.8953,9.395
3.796000,7.6726,-4.6317,1.5850,9.101
3.797000,7.4653,-4.4965,1.2528,8.805
3.797000,7.2541,-4.3933,0.9138,8.530
3.797000,7.0315,-4.3484,0.5830,8.288
3.798000,6.7638,-4.3738,0.2494,8.059
3.798000,6.4624,-4.4987,-0.0932,7.875
3.798000,6.1214,-4.6974,-0.4147,7.727
3.799000,5.7380,-4.9246,-0.7432,7.598
3.799000,5.3176,-5.1583,-1.0800,7.487
3.800000,4.8485,-5.3785,-1.3981,7.375
3.806000,4.3125,-5.5608,-1.6780,7.234
3.808000,3.7167,-5.7410,-1.9289,7.106
3.814000,3.0660,-5.8999,-2.1272,6.981
3.818000,2.3632,-6.0109,-2.2947,6.854
3.823000,1.6524,-6.0230,-2.4156,6.696
3.830000,0.9680,-5.9452,-2.4692,6.510
3.833000,0.3657,-5.7653,-2.4973,6.294
3.879000,-0.1308,-5.5294,-2.4818,6.062
3.880000,-0.5201,-5.2673,-2.4246,5.822
3.881000,-0.8409,-4.9827,-2.3128,5.557
3.881000,-1.1241,-4.7213,-2.1574,5.311
3.882000,-1.4102,-4.4979,-1.9790,5.112
3.882000,-1.6780,-4.3255,-1.7737,4.967
3.884000,-1.9290,-4.1646,-1.5604,4.848
3.885000,-2.1564,-4.0236,-1.3373,4.757
3.886000,-2.3746,-3.8956,-1.1246,4.699
3.887000,-2.6053,-3.7978,-0.9397,4.700
3.889000,-2.8604,-3.7736,-0.7954,4.802
3.894000,-3.1664,-3.8256,-0.7085,5.016
3.899000,-3.5082,-3.9137,-0.6460,5.295
3.905000,-3.8668,-4.0163,-0.6171,5.609
3.908000,-4.2516,-4.1067,-0.6268,5.944
3.913000,-4.6556,-4.1293,-0.6292,6.255
3.918000,-5.0478,-4.1133,-0.6070,6.540
3.973000,-5.3922,-4.0711,-0.5290,6.777
3.975000,-5.6940,-3.9962,-0.4426,6.970
3.975000,-5.9675,-3.8960,-0.3598,7.136
3.975000,-6.2347,-3.8107,-0.2727,7.312
3.976000,-6.5076,-3.7500,-0.2001,7.513
3.976000,-6.7696,-3.7236,-0.1367,7.727
3.977000,-7.0279,-3.6889,-0.0865,7.938
3.978000,-7.2278,-3.6535,-0.0441,8.099
3.978000,-7.3721,-3.6291,-0.0088,8.217
3.978000,-7.4731,-3.6110,0.0392,8.300
3.979000,-7.5168,-3.5993,0.1080,8.335
3.980000,-7.5013,-3.5851,0.2123,8.317
3.984000,-7.4317,-3.5605,0.3146,8.247
3.990000,-7.3609,-3.5382,0.3958,8.177
3.994000,-7.3441,-3.5475,0.4375,8.168
4.000000,-7.3625,-3.6169,0.4687,8.216
4.005000,-7.4256,-3.7158,0.4799,8.317
4.009000,-7.5527,-3.8284,0.4695,8.481
4.014000,-7.7248,-3.9358,0.4230,8.680
4.022000,-7.9251,-4.0328,0.3502,8.899
4.026000,-8.1395,-4.1216,0.2585,9.127
4.028000,-8.3704,-4.2160,0.1696,9.374
4.034000,-8.5846,-4.3166,0.1221,9.610
4.086000,-8.7752,-4.4364,0.0683,9.833
4.087000,-8.9374,-4.5568,0.0033,10.032
4.088000,-9.0712,-4.6847,-0.0853,10.210
4.088000,-9.1671,-4.7865,-0.2217,10.344
4.088000,-9.2323,-4.8883,-0.3844,10.454
4.089000,-9.2620,-4.9757,-0.5380,10.528
4.089000,-9.2801,-5.0505,-0.6851,10.588
4.090000,-9.2794,-5.1463,-0.7926,10.641
4.090000,-9.2718,-5.2771,-0.8467,10.702
4.090000,-9.2403,-5.4714,-0.8646,10.773
4.091000,-9.1658,-5.6953,-0.8710,10.826
4.095000,-9.0743,-5.8935,-0.9044,10.858
4.100000,-8.9587,-6.0564,-0.9747,10.858
4.103000,-8.8524,-6.2029,-1.0821,10.863
4.109000,-8.7457,-6.3137,-1.2122,10.854
4.114000,-8.5980,-6.4294,-1.3698,10.823
4.119000,-8.3972,-6.5494,-1.5527,10.762
4.125000,-8.1576,-6.6764,-1.7561,10.687
4.129000,-7.8721,-6.7714,-1.9680,10.569
4.134000,-7.5668,-6.8438,-2.2052,10.438
4.139000,-7.2367,-6.8933,-2.4416,10.288
4.144000,-6.8650,-6.9288,-2.6553,10.109
4.148000,-6.4541,-6.9702,-2.8295,9.912
4.155000,-5.9895,-7.0100,-2.9018,9.666
4.161000,-5.4207,-7.0674,-2.8915,9.364
4.163000,-4.7549,-7.0833,-2.7912,8.976
4.223000,-4.0349,-7.0564,-2.6634,8.554
4.224000,-3.2846,-7.0135,-2.5417,8.151
4.224000,-2.5303,-6.9829,-2.4351,7.816
4.224000,-1.8004,-7.0030,-2.3248,7.595
4.225000,-1.1213,-7.0602,-2.2271,7.488
4.225000,-0.4759,-7.1594,-2.1206,7.482
4.225000,0.0903,-7.2699,-2.0170,7.545
4.226000,0.5612,-7.3812,-1.9572,7.657
4.226000,0.9391,-7.4826,-1.9382,7.786
4.226000,1.2675,-7.5513,-1.9527,7.902
4.227000,1.6068,-7.5868,-1.9840,8.005
4.227000,2.0002,-7.5455,-2.0463,8.070
4.230000,2.4676,-7.4287,-2.0913,8.102
4.235000,2.9985,-7.2121,-2.1182,8.093
4.243000,3.5549,-6.9028,-2.1003,8.043
4.244000,4.1149,-6.5418,-2.0153,7.987
4.251000,4.6927,-6.1540,-1.8555,7.958
4.256000,5.2927,-5.7593,-1.5892,7.982
4.259000,5.8908,-5.3338,-1.2234,8.040
4.264000,6.4281,-4.9193,-0.7770,8.132
4.312000,6.8881,-4.5634,-0.2644,8.267
4.313000,7.2441,-4.3027,0.3022,8.431
4.314000,7.4722,-4.1473,0.9081,8.594
4.314000,7.5936,-4.0664,1.5055,8.744
4.314000,7.6330,-3.9968,2.0581,8.858
4.315000,7.6057,-3.9025,2.5541,8.922
4.315000,7.4955,-3.7635,2.9529,8.892
4.315000,7.3357,-3.5485,3.2286,8.765
4.316000,7.1360,-3.2359,3.3958,8.540
4.316000,6.9255,-2.8152,3.4670,8.241
4.325000,6.7293,-2.3120,3.4854,7.923
4.326000,6.5811,-1.7158,3.5064,7.652
4.328000,6.4758,-1.0508,3.5449,7.457
4.336000,6.4127,-0.3033,3.6604,7.390
4.340000,6.3459,0.4569,3.8530,7.438
4.345000,6.3086,1.2128,4.1197,7.632
4.349000,6.2848,1.9549,4.4402,7.939
4.356000,6.2885,2.6690,4.7875,8.342
4.359000,6.3071,3.3541,5.1490,8.806
4.368000,6.3447,4.0145,5.5019,9.308
4.426000,6.3844,4.6525,5.8219,9.813
4.427000,6.4270,5.2233,6.0973,10.284
4.427000,6.4321,5.7514,6.2965,10.682
4.428000,6.4186,6.1769,6.4046,10.971
4.428000,6.3432,6.5333,6.4281,11.146
4.429000,6.1846,6.8259,6.3690,11.199
4.429000,5.9386,7.0220,6.2396,11.113
4.429000,5.6315,7.1479,6.0245,10.913
4.430000,5.2999,7.2165,5.7410,10.636
4.430000,4.9518,7.2264,5.3750,10.278
4.431000,4.5756,7.1950,4.9484,9.858
4.431000,4.1672,7.1447,4.4930,9.413
4.431000,3.7488,7.0740,4.0456,8.970
4.435000,3.3186,6.9931,3.6422,8.555
4.439000,2.9321,6.9243,3.2952,8.210
4.445000,2.6160,6.8654,3.0071,7.938
4.450000,2.3516,6.8192,2.7419,7.717
4.456000,2.1461,6.7766,2.4977,7.534
4.459000,1.9973,6.7495,2.2815,7.399
4.464000,1.8859,6.7547,2.1176,7.326
4.510000,1.8283,6.7753,2.0225,7.303
4.511000,1.7907,6.7681,1.9939,7.279
4.511000,1.7635,6.7446,2.0192,7.258
4.512000,1.7272,6.7001,2.0576,7.219
4.512000,1.6772,6.6343,2.0941,7.156
4.512000,1.5849,6.5425,2.1096,7.055
4.513000,1.4432,6.4081,2.1089,6.899
4.513000,1.2764,6.2506,2.0945,6.715
4.513000,1.0991,6.0700,2.0953,6.515
4.515000,0.9261,5.8812,2.1088,6.316
4.519000,0.7670,5.6819,2.1565,6.126
4.525000,0.6652,5.4721,2.2286,5.946
4.530000,0.6037,5.2495,2.2916,5.760
4.534000,0.5374,5.0168,2.3409,5.562
4.540000,0.4805,4.7953,2.3837,5.377
4.544000,0.4525,4.5998,2.4296,5.222
4.550000,0.4582,4.4017,2.5005,5.083
4.555000,0.4977,4.2153,2.6129,4.984
4.560000,0.5753,4.0093,2.7474,4.894
4.565000,0.6840,3.7931,2.8993,4.823
4.572000,0.8139,3.5811,3.0610,4.781
4.575000,0.9748,3.3468,3.2205,4.746
4.579000,1.1401,3.0591,3.3752,4.696
4.584000,1.3291,2.7252,3.5083,4.637
4.639000,1.5130,2.3475,3.6270,4.578
4.640000,1.7062,1.9620,3.7266,4.544
4.640000,1.9015,1.5708,3.7640,4.500
4.641000,2.0895,1.2295,3.7494,4.465
4.641000,2.2533,0.9426,3.6950,4.429
4.642000,2.4145,0.7078,3.6200,4.409
4.642000,2.6110,0.5198,3.5654,4.450
4.642000,2.8614,0.3159,3.5332,4.558
4.643000,3.0989,0.0891,3.5142,4.686
4.643000,3.3446,-0.1801,3.4745,4.826
4.643000,3.5792,-0.4825,3.4117,4.968
4.646000,3.7837,-0.8037,3.3258,5.101
4.651000,3.9700,-1.1414,3.1811,5.214
4.655000,4.1189,-1.5005,2.9990,5.311
4.660000,4.2595,-1.8710,2.7898,5.425
4.665000,4.4035,-2.2698,2.5751,5.583
4.672000,4.5558,-2.6681,2.3625,5.784
4.676000,4.7043,-3.0610,2.1497,6.010
4.680000,4.8322,-3.4657,1.9226,6.250
4.684000,4.9589,-3.8621,1.6963,6.510
4.734000,5.0701,-4.2575,1.4491,6.777
4.736000,5.1683,-4.6710,1.2173,7.072
4.737000,5.2656,-5.0854,0.9773,7.385
4.738000,5.3360,-5.4692,0.7628,7.679
4.740000,5.3792,-5.8061,0.5594,7.935
4.741000,5.3911,-6.0806,0.3941,8.136
4.742000,5.3978,-6.2574,0.2594,8.268
4.744000,5.3946,-6.3485,0.1336,8.332
4.745000,5.3765,-6.3950,0.0073,8.355
4.746000,5.3482,-6.3875,-0.1028,8.331
4.747000,5.2975,-6.3169,-0.2113,8.247
4.748000,5.2056,-6.1731,-0.3249,8.082
4.754000,5.0650,-5.9904,-0.4246,7.856
4.757000,4.8901,-5.7713,-0.5079,7.581
4.761000,4.6902,-5.5353,-0.5794,7.278
4.766000,4.4410,-5.3164,-0.6153,6.955
4.771000,4.1503,-5.1402,-0.6439,6.638
4.777000,3.8084,-4.9856,-0.6867,6.311
4.782000,3.4296,-4.8619,-0.7506,5.997
4.786000,3.0452,-4.7496,-0.8473,5.705
4.790000,2.6315,-4.6439,-0.9429,5.420
4.795000,2.1905,-4.5521,-1.0323,5.156
4.801000,1.7375,-4.4585,-1.0989,4.910
4.811000,1.2939,-4.3731,-1.1569,4.705
4.813000,0.8623,-4.3003,-1.2161,4.551
4.817000,0.4599,-4.2518,-1.2791,4.464
4.884000,0.0819,-4.2034,-1.3461,4.414
4.885000,-0.2838,-4.1531,-1.3931,4.390
4.885000,-0.6481,-4.0972,-1.4424,4.392
4.886000,-1.0064,-4.0075,-1.4800,4.389
4.886000,-1.3822,-3.8888,-1.5328,4.403
4.887000,-1.7778,-3.7456,-1.6084,4.447
4.887000,-2.1740,-3.5833,-1.6880,4.518
4.888000,-2.5414,-3.4102,-1.7724,4.608
4.888000,-2.8681,-3.2555,-1.8595,4.720
4.888000,-3.1612,-3.1094,-1.9639,4.850
4.889000,-3.4543,-2.9527,-2.0502,4.985
4.889000,-3.7305,-2.8119,-2.1282,5.133
4.890000,-4.0188,-2.6708,-2.1932,5.300
4.890000,-4.2708,-2.5260,-2.2222,5.437
4.892000,-4.4844,-2.4115,-2.2414,5.563
4.896000,-4.6717,-2.3275,-2.2512,5.684
4.903000,-4.8614,-2.2740,-2.2586,5.823
4.909000,-5.0754,-2.2609,-2.2564,5.997
4.911000,-5.3060,-2.2678,-2.2280,6.186
4.915000,-5.5463,-2.2616,-2.1853,6.376
4.922000,-5.7725,-2.2446,-2.1160,6.545
4.925000,-5.9798,-2.2382,-2.0249,6.698
4.930000,-6.1995,-2.2209,-1.8927,6.852
4.990000,-6.4103,-2.2172,-1.7386,7.002
4.991000,-6.6143,-2.2138,-1.5864,7.153
4.991000,-6.8187,-2.2374,-1.4508,7.322
4.992000,-7.0045,-2.2495,-1.3220,7.475
4.992000,-7.1573,-2.2617,-1.2096,7.603
4.992000,-7.2939,-2.2860,-1.0826,7.720
4.993000,-7.4097,-2.2939,-0.9455,7.814
4.993000,-7.4998,-2.3063,-0.7961,7.887
4.993000,-7.5788,-2.3376,-0.6486,7.958
4.994000,-7.6538,-2.3976,-0.5199,8.037
4.994000,-7.7201,-2.4978,-0.4074,8.124
4.994000,-7.7851,-2.5931,-0.3252,8.212
4.996000,-7.8559,-2.7209,-0.2754,8.318
5.003000,-7.9111,-2.8478,-0.2314,8.411
5.005000,-7.9629,-2.9880,-0.2071,8.508
5.011000,-8.0114,-3.1078,-0.2025,8.595
5.016000,-8.0757,-3.2237,-0.2124,8.698
5.023000,-8.1200,-3.3333,-0.2296,8.781
5.027000,-8.1492,-3.4312,-0.2299,8.845
5.030000,-8.1633,-3.5271,-0.2037,8.895
5.100000,-8.1673,-3.6137,-0.1701,8.933
5.101000,-8.1826,-3.6838,-0.1220,8.974
5.101000,-8.1949,-3.7301,-0.0687,9.004
5.101000,-8.1900,-3.7693,-0.0125,9.016
5.102000,-8.1559,-3.8207,0.0560,9.007
5.103000,-8.1094,-3.8652,0.1132,8.984
5.103000,-8.0627,-3.9125,0.1425,8.963
5.104000,-8.0037,-3.9388,0.1296,8.921
5.104000,-7.9183,-3.9702,0.0891,8.858
5.104000,-7.8113,-4.0098,0.0143,8.780
5.105000,-7.6828,-4.0764,-0.1138,8.698
5.105000,-7.5592,-4.1749,-0.2856,8.640
5.105000,-7.4452,-4.2981,-0.5009,8.611
5.106000,-7.3525,-4.4049,-0.7433,8.603
5.106000,-7.2595,-4.5164,-1.0006,8.608
5.112000,-7.1086,-4.6042,-1.2323,8.559
5.116000,-6.8856,-4.6657,-1.4434,8.442
5.121000,-6.6236,-4.7202,-1.6698,8.303
5.127000,-6.3227,-4.7463,-1.9122,8.134
5.130000,-6.0063,-4.7629,-2.1371,7.958
5.139000,-5.6722,-4.7922,-2.3665,7.794
5.143000,-5.2551,-4.8073,-2.5985,7.581
5.145000,-4.7383,-4.7915,-2.7856,7.292
5.150000,-4.1431,-4.7285,-2.9426,6.941
5.202000,-3.5244,-4.6310,-3.0679,6.579
5.203000,-2.8843,-4.5515,-3.1305,6.232
5.204000,-2.2709,-4.5322,-3.1287,5.957
5.204000,-1.6789,-4.6277,-3.0796,5.807
5.204000,-1.1128,-4.8808,-2.9739,5.823
5.204000,-0.5197,-5.3053,-2.8141,6.028
5.205000,0.1127,-5.8600,-2.5980,6.411
5.205000,0.8258,-6.4837,-2.3760,6.955
5.205000,1.6193,-7.0958,-2.1743,7.596
5.206000,2.4795,-7.6212,-2.0238,8.266
5.206000,3.3993,-7.9930,-1.9216,8.896
5.212000,4.3619,-8.2161,-1.8596,9.486
5.216000,5.3365,-8.2880,-1.8396,10.028
5.221000,6.2884,-8.2132,-1.8385,10.506
5.226000,7.1647,-7.9777,-1.7960,10.872
5.231000,7.9799,-7.5702,-1.7164,11.132
5.239000,8.7525,-6.9992,-1.6354,11.326
5.242000,9.4772,-6.2920,-1.5618,11.482
5.246000,10.1513,-5.4563,-1.4833,11.620
5.251000,10.7224,-4.5333,-1.4012,11.725
5.316000,11.1780,-3.5781,-1.3103,11.810
5.317000,11.5100,-2.6515,-1.1908,11.871
5.318000,11.7891,-1.8020,-1.0090,11.969
5.318000,12.0269,-1.0582,-0.8075,12.100
5.319000,12.2165,-0.3741,-0.6078,12.237
5.319000,12.3072,0.2363,-0.4262,12.317
5.319000,12.2672,0.8014,-0.2601,12.296
5.320000,12.0673,1.2783,-0.0663,12.135
5.320000,11.7143,1.6836,0.1722,11.836
5.320000,11.2138,2.0018,0.4933,11.402
5.321000,10.5894,2.2584,0.8433,10.860
5.321000,9.8807,2.4762,1.2313,10.260
5.322000,9.0982,2.6604,1.6323,9.619
5.322000,8.2927,2.8475,2.0484,9.004
5.327000,7.4891,3.0522,2.4833,8.460
5.331000,6.6761,3.3040,2.9319,8.005
5.342000,6.6935,3.5949,3.3639,8.309
5.343000,5.1067,3.9256,3.7763,7.467
5.347000,4.3789,4.2818,4.1421,7.394
5.351000,3.7418,4.6730,4.4602,7.465
5.407000,3.2123,5.0874,4.7235,7.649
5.408000,2.7660,5.5100,4.9164,7.886
5.408000,2.4221,5.8977,5.0365,8.125
5.409000,2.1754,6.2431,5.0739,8.334
5.409000,2.0305,6.5176,5.0192,8.473
5.410000,1.9557,6.7401,4.8364,8.523
5.410000,1.9411,6.9251,4.5429,8.507
5.410000,1.9670,7.0866,4.1438,8.442
5.411000,1.9971,7.2080,3.6758,8.334
5.411000,1.9953,7.2703,3.1704,8.179
5.411000,1.9641,7.2953,2.6473,8.005
5.411000,1.8797,7.2524,2.1241,7.787
5.416000,1.7684,7.1805,1.6467,7.576
5.422000,1.6426,7.0988,1.2107,7.386
5.427000,1.5075,7.0128,0.8184,7.220
5.431000,1.3851,6.9205,0.4485,7.072
5.439000,1.2780,6.8294,0.1226,6.949
5.443000,1.1817,6.7254,-0.1497,6.830
5.446000,1.1204,6.5968,-0.3566,6.701
5.451000,1.1012,6.4723,-0.4884,6.583
5.509000,1.1145,6.3208,-0.5909,6.445
5.510000,1.1128,6.1377,-0.6787,6.275
5.510000,1.0915,5.9400,-0.7519,6.086
5.511000,1.0819,5.7444,-0.7867,5.898
5.511000,1.0866,5.5490,-0.7856,5.709
5.511000,1.1537,5.3753,-0.7627,5.550
5.512000,1.2565,5.2162,-0.7251,5.414
5.512000,1.3663,5.0620,-0.6512,5.283
5.512000,1.4302,4.9221,-0.4932,5.149
5.513000,1.4914,4.7892,-0.2802,5.024
5.513000,1.5526,4.6418,-0.0320,4.895
5.513000,1.5564,4.4988,0.2462,4.767
5.517000,1.5149,4.3078,0.5493,4.599
5.521000,1.4312,4.1096,0.8667,4.437
5.527000,1.3582,3.9451,1.1502,4.328
5.531000,1.3275,3.8383,1.3683,4.286
5.536000,1.3723,3.7916,1.5448,4.318
5.541000,1.4876,3.7901,1.6747,4.403
5.546000,1.6516,3.8144,1.7674,4.517
5.555000,1.8495,3.8474,1.8111,4.637
5.557000,2.0832,3.8671,1.8368,4.761
5.566000,2.3453,3.8566,1.8329,4.872
5.566000,2.6112,3.7724,1.8190,4.935
5.615000,2.8422,3.6333,1.7762,4.943
5.616000,3.0262,3.4512,1.7240,4.903
5.617000,3.1582,3.2355,1.6531,4.814
5.617000,3.2429,2.9836,1.5540,4.673
5.617000,3.2423,2.6650,1.4443,4.439
5.618000,3.0697,2.2127,1.5146,4.076
5.618000,2.7183,1.6320,1.8395,3.666
5.618000,2.2386,0.9402,2.4667,3.461
5.619000,1.7184,0.2379,3.0510,3.510
5.619000,1.4230,-0.6650,3.4218,3.765
5.621000,1.9256,-1.2376,3.3610,4.067
5.627000,2.2117,-1.6213,2.9267,4.011
5.632000,2.2645,-1.7999,1.7958,3.405
5.637000,2.5839,-2.0940,0.5962,3.379
5.643000,3.0413,-2.6253,-0.1026,4.019
5.647000,3.4665,-3.2076,0.1333,4.725
5.655000,3.7961,-3.6054,1.0056,5.331
5.658000,4.0610,-3.8679,1.8256,5.898
5.663000,4.2836,-4.0555,2.2750,6.322
5.666000,4.4681,-4.1328,2.4582,6.564
5.728000,4.6209,-4.0596,2.5709,6.666
5.728000,4.7699,-3.9053,2.6674,6.717
5.729000,4.9392,-3.7375,2.7233,6.766
5.729000,5.1379,-3.5284,2.6899,6.788
5.730000,5.2848,-3.2833,2.5669,6.730
5.730000,5.3673,-3.0056,2.3666,6.591
5.730000,5.4087,-2.6999,2.0862,6.395
5.731000,5.4848,-2.3907,1.7166,6.225
5.731000,5.5924,-2.1121,1.2780,6.113
5.731000,5.7211,-1.8453,0.7739,6.061
5.732000,5.8172,-1.6148,0.2676,6.043
5.734000,5.8823,-1.4263,-0.2191,6.057
5.735000,5.9298,-1.3085,-0.6650,6.109
5.738000,5.9491,-1.2595,-1.0816,6.176
5.743000,5.8918,-1.2967,-1.4752,6.211
5.748000,5.7073,-1.4223,-1.9431,6.195
5.761000,5.3882,-1.6054,-2.4533,6.134
5.765000,4.9064,-1.8296,-2.9705,6.020
5.766000,4.3031,-2.0682,-3.4465,5.888
5.767000,3.6222,-2.3271,-3.8472,5.774
5.813000,2.9196,-2.5979,-4.1823,5.724
5.814000,2.2226,-2.8460,-4.4184,5.706
5.814000,1.5203,-3.0543,-4.5804,5.711
5.814000,0.8432,-3.1944,-4.6598,5.712
5.815000,0.2567,-3.2809,-4.6700,5.713
5.815000,-0.2289,-3.3276,-4.6454,5.719
5.815000,-0.6345,-3.3416,-4.6184,5.736
5.815000,-1.0240,-3.3203,-4.5781,5.747
5.816000,-1.4096,-3.2552,-4.5086,5.737
5.817000,-1.7656,-3.1736,-4.4047,5.709
5.826000,-2.0972,-3.0932,-4.2886,5.688
5.829000,-2.4086,-3.0401,-4.1590,5.687
5.834000,-2.6997,-3.0144,-4.0431,5.720
5.839000,-2.9609,-2.9833,-3.9295,5.754
5.842000,-3.2131,-2.9455,-3.8433,5.811
5.847000,-3.4805,-2.9018,-3.7847,5.904
5.854000,-3.7629,-2.8688,-3.7253,6.022
5.857000,-4.0699,-2.8152,-3.6728,6.163
5.862000,-4.3966,-2.7911,-3.6373,6.352
5.867000,-4.7478,-2.8040,-3.6163,6.594
5.873000,-5.1088,-2.8212,-3.6033,6.859
5.877000,-5.4916,-2.8282,-3.5980,7.149
5.882000,-5.8556,-2.8340,-3.5929,7.432
5.939000,-6.1869,-2.8120,-3.5611,7.672
5.940000,-6.4379,-2.7577,-3.5049,7.832
5.941000,-6.6400,-2.6775,-3.4499,7.947
5.941000,-6.7650,-2.5911,-3.4030,8.004
5.941000,-6.8442,-2.5034,-3.3542,8.022
5.942000,-6.9305,-2.4240,-3.3032,8.051
5.942000,-7.0411,-2.3554,-3.2447,8.103
5.943000,-7.1711,-2.3240,-3.1761,8.180
5.943000,-7.2898,-2.2979,-3.0919,8.245
5.943000,-7.3853,-2.2511,-3.0137,8.288
5.944000,-7.4674,-2.2052,-2.9554,8.328
5.944000,-7.5314,-2.1624,-2.9095,8.358
5.949000,-7.5631,-2.1203,-2.8856,8.368
5.953000,-7.5507,-2.0814,-2.8642,8.340
5.957000,-7.4970,-2.0552,-2.8088,8.266
5.962000,-7.4117,-2.0610,-2.7410,8.167
5.968000,-7.3044,-2.1134,-2.6560,8.055
5.973000,-7.1847,-2.1837,-2.5754,7.939
5.979000,-7.0668,-2.2885,-2.5355,7.849
5.984000,-6.9435,-2.3987,-2.5410,7.773
5.990000,-6.7883,-2.5740,-2.5729,7.702
5.993000,-6.6059,-2.8163,-2.5956,7.636
5.997000,-6.3984,-3.0919,-2.6021,7.568
6.002000,-6.1635,-3.3766,-2.5781,7.486
6.063000,-5.8627,-3.6630,-2.5338,7.363
6.064000,-5.5246,-3.9705,-2.4761,7.240
6.064000,-5.1515,-4.3204,-2.4056,7.141
6.064000,-4.7432,-4.7078,-2.3152,7.073
6.065000,-4.3162,-5.1157,-2.2171,7.051
6.065000,-3.8607,-5.5247,-2.1212,7.066
6.066000,-3.3554,-5.9281,-2.0460,7.112
6.066000,-2.8192,-6.3111,-1.9748,7.189
6.066000,-2.2209,-6.6689,-1.9074,7.283
6.067000,-1.5509,-6.9750,-1.8630,7.384
6.067000,-0.8496,-7.2415,-1.8173,7.514
6.068000,-0.1026,-7.4105,-1.7680,7.619
6.068000,0.6947,-7.5095,-1.7455,7.741
6.075000,1.5014,-7.4906,-1.7565,7.839
6.077000,2.2961,-7.3330,-1.7960,7.891
6.083000,3.0428,-7.0349,-1.9089,7.899
6.087000,3.7340,-6.6111,-2.1019,7.878
6.093000,4.4130,-6.0709,-2.3596,7.868
6.097000,5.0924,-5.4261,-2.5943,7.881
6.104000,5.7597,-4.7009,-2.7693,7.934
6.107000,6.4072,-3.9297,-2.9008,8.057
6.112000,7.0270,-3.1349,-2.9717,8.248
6.118000,7.6045,-2.3549,-2.9484,8.489
6.122000,8.1359,-1.6234,-2.8234,8.764
6.129000,8.5946,-0.9549,-2.5970,9.029
6.133000,8.9706,-0.3624,-2.2769,9.262
6.195000,9.2468,0.1582,-1.8851,9.438
6.196000,9.3803,0.6110,-1.4416,9.510
6.197000,9.3499,0.9915,-0.9785,9.453
6.197000,9.1100,1.2267,-0.4871,9.205
6.198000,8.7118,1.3488,0.0560,8.816
6.198000,8.2179,1.3581,0.6451,8.354
6.198000,7.6527,1.2958,1.2393,7.860
6.199000,7.0072,1.2150,1.8021,7.336
6.199000,6.2866,1.2004,2.3216,6.808
6.200000,5.5341,1.2251,2.8215,6.331
6.200000,4.7761,1.2636,3.2924,5.937
6.201000,4.0441,1.3641,3.7081,5.654
6.202000,3.3954,1.5338,4.0782,5.524
6.212000,2.8181,1.7564,4.3670,5.486
6.212000,2.3529,2.0338,4.5189,5.486
6.212000,2.0212,2.3544,4.5297,5.491
6.218000,1.8397,2.7113,4.4308,5.511
6.225000,1.8438,3.1067,4.2273,5.561
6.228000,2.0259,3.5452,3.9312,5.668
6.233000,2.3017,3.9713,3.5861,5.825
6.291000,2.5747,4.3866,3.2060,6.012
6.291000,2.7899,4.7886,2.7909,6.205
6.292000,2.9380,5.1630,2.2975,6.369
6.292000,3.0213,5.5077,1.8195,6.540
6.293000,3.0280,5.8038,1.4145,6.697
6.293000,2.9752,6.0416,1.0651,6.818
6.293000,2.8798,6.2167,0.7519,6.892
6.294000,2.7589,6.3409,0.4937,6.933
6.294000,2.6127,6.4242,0.2828,6.941
6.294000,2.4177,6.4524,0.0830,6.891
6.295000,2.1625,6.4284,-0.1225,6.783
6.295000,1.8785,6.3575,-0.3123,6.637
6.303000,1.6045,6.2785,-0.4552,6.496
6.304000,1.3405,6.1942,-0.5489,6.361
6.308000,1.0939,6.1239,-0.5886,6.249
6.313000,0.8744,6.0509,-0.5888,6.142
6.321000,0.7059,5.9849,-0.5590,6.052
6.327000,0.5786,5.9352,-0.5043,5.985
6.328000,0.4924,5.8660,-0.4246,5.902
6.332000,0.4235,5.8108,-0.3534,5.837
6.393000,0.3526,5.7598,-0.2814,5.777
6.393000,0.2916,5.7203,-0.1988,5.731
6.394000,0.2358,5.7088,-0.1349,5.715
6.394000,0.1807,5.7447,-0.1087,5.749
6.394000,0.1191,5.8089,-0.0842,5.811
6.394000,0.0939,5.8727,-0.0324,5.874
6.394000,0.1026,5.9911,0.0802,5.992
6.395000,0.1211,6.1278,0.2009,6.132
6.395000,0.1566,6.2640,0.3057,6.273
6.395000,0.2401,6.3540,0.4500,6.374
6.395000,0.4047,6.4101,0.6916,6.460
6.396000,0.7029,6.4413,0.9985,6.556
6.398000,1.0985,6.4730,1.3222,6.697
6.404000,1.4572,6.4281,1.5373,6.768
6.409000,1.7625,6.3113,1.6412,6.755
6.413000,2.0387,6.1204,1.6405,6.656
6.418000,2.2962,5.9204,1.4917,6.523
6.423000,2.5572,5.7143,1.2211,6.378
6.428000,2.7960,5.4620,0.9191,6.204
6.433000,3.0777,5.1451,0.6315,6.029
6.438000,3.4434,4.7975,0.3557,5.916
6.443000,3.8668,4.4291,0.0918,5.880
6.448000,4.3003,4.0374,-0.2010,5.902
6.492000,4.7181,3.6491,-0.5422,5.989
6.493000,5.2285,3.2766,-0.9252,6.239
6.493000,5.9060,2.9084,-1.3470,6.720
6.494000,6.7458,2.4800,-1.7455,7.396
6.494000,7.6782,1.9580,-2.0316,8.180
6.494000,8.6412,1.3714,-2.2316,9.029
6.495000,9.6592,0.8136,-2.3506,9.974
6.495000,10.6884,0.3441,-2.4067,10.961
6.495000,11.6647,-0.0780,-2.3908,11.907
6.499000,12.5742,-0.4957,-2.2720,12.787
6.505000,13.4722,-0.9351,-1.9783,13.649
6.508000,14.3569,-1.4537,-1.4624,14.504
6.513000,15.2053,-2.0401,-0.7305,15.359
6.518000,15.9399,-2.6570,0.1484,16.161
6.523000,16.4993,-3.1982,1.0509,16.839
6.528000,16.7999,-3.5719,1.8401,17.274
6.533000,16.8436,-3.7703,2.3803,17.424
6.584000,16.6682,-3.8113,2.5457,17.287
6.584000,16.3785,-3.7178,2.3828,16.963
6.585000,16.0839,-3.5811,1.9792,16.596
6.585000,15.8243,-3.4952,1.3452,16.261
6.586000,15.6218,-3.4507,0.5283,16.007
6.586000,15.5213,-3.4357,-0.3902,15.902
6.587000,15.4773,-3.4391,-1.3349,15.911
6.587000,15.4919,-3.4584,-2.2783,16.036
6.587000,15.5647,-3.5279,-3.2125,16.280
6.588000,15.6758,-3.6268,-4.1866,16.626
6.588000,15.7673,-3.7553,-5.1729,17.014
6.623000,15.7768,-3.9803,-6.1654,17.400
6.625000,15.6765,-4.3067,-7.1442,17.758
6.625000,15.4256,-4.7058,-8.1171,18.055
6.626000,14.9699,-5.1481,-9.0482,18.234
6.626000,14.2661,-5.6126,-9.9132,18.256
6.627000,13.2692,-6.1092,-10.6311,18.067
6.628000,11.9927,-6.5857,-11.1261,17.635
6.629000,10.5841,-6.9925,-11.4907,17.116
6.658000,9.1733,-7.3327,-11.7122,16.586
6.659000,7.8296,-7.5865,-11.7945,16.061
6.660000,6.5653,-7.8103,-11.7371,15.552
6.660000,5.3849,-7.9769,-11.5249,15.015
6.660000,4.2537,-8.0602,-11.1813,14.425
6.661000,3.1843,-8.0590,-10.7517,13.809
6.691000,2.2107,-7.9764,-10.2809,13.199
6.692000,1.3673,-7.8368,-9.7777,12.605
6.692000,0.6669,-7.6721,-9.2701,12.052
6.693000,0.0881,-7.4899,-8.8024,11.558
6.693000,0.0225,-7.5593,-8.7601,11.571
6.693000,-0.4240,-7.4248,-8.3856,11.208
6.693000,-1.0963,-7.2400,-8.0211,10.861
6.722000,-1.4089,-7.1603,-7.9557,10.796
6.723000,-1.6879,-7.0183,-7.9184,10.715
6.724000,-1.9272,-6.8356,-7.8944,10.619
6.724000,-2.1205,-6.6463,-7.8639,10.512
6.724000,-2.3088,-6.4764,-7.8266,10.418
6.724000,-2.4980,-6.3338,-7.7964,10.351
6.751000,-2.6955,-6.2282,-7.7634,10.311
6.752000,-2.9401,-6.1450,-7.7389,10.310
6.752000,-3.2083,-6.0792,-7.7106,10.330
6.753000,-3.5030,-6.0090,-7.6661,10.351
6.753000,-3.8316,-5.9030,-7.6024,10.360
6.782000,-4.1916,-5.7514,-7.5316,10.362
6.783000,-4.5877,-5.5683,-7.4369,10.361
6.783000,-5.0193,-5.3536,-7.3260,10.369
6.784000,-5.4285,-5.1570,-7.1851,10.377
6.784000,-5.7838,-4.9809,-7.0335,10.379
6.784000,-6.0753,-4.8133,-6.8622,10.352
6.811000,-6.2480,-4.6351,-6.6831,10.256
6.812000,-6.2666,-4.4302,-6.5581,10.095
6.812000,-6.1439,-4.1803,-6.5033,9.875
6.812000,-5.9100,-3.8839,-6.5345,9.629
6.813000,-5.6017,-3.5632,-6.6196,9.375
6.813000,-5.2754,-3.2648,-6.7602,9.175
6.814000,-4.9652,-3.0008,-6.9268,9.035
6.842000,-4.6646,-2.8359,-7.0829,8.942
6.843000,-4.4053,-2.6986,-7.2256,8.883
6.843000,-4.2306,-2.5867,-7.3262,8.847
6.844000,-4.1399,-2.5020,-7.4205,8.858
6.844000,-4.1263,-2.4374,-7.4917,8.893
6.844000,-4.1799,-2.3901,-7.5301,8.938
6.872000,-4.2525,-2.2953,-7.5359,8.952
6.872000,-4.3532,-2.1863,-7.5167,8.957
6.873000,-4.4599,-2.0869,-7.4751,8.951
6.873000,-4.5816,-2.0325,-7.4161,8.951
6.873000,-4.7202,-2.0376,-7.2926,8.923
6.874000,-4.8705,-2.1113,-7.0903,8.857
6.902000,-5.0099,-2.2196,-6.8266,8.754
6.903000,-5.0880,-2.3408,-6.5210,8.596
6.903000,-5.1114,-2.4484,-6.2215,8.416
6.904000,-5.0583,-2.5551,-5.9311,8.203
6.904000,-4.9287,-2.6560,-5.6714,7.969
6.904000,-4.7273,-2.7561,-5.4255,7.706
6.935000,-4.4305,-2.8843,-5.1407,7.374
6.936000,-4.0339,-3.0770,-4.7905,6.978
6.936000,-3.5783,-3.3272,-4.4084,6.581
6.936000,-3.0690,-3.6387,-4.0287,6.236
6.936000,-2.5298,-3.9755,-3.6799,5.979
6.937000,-1.9751,-4.3380,-3.3550,5.829
6.939000,-1.4483,-4.7529,-3.0467,5.828
6.944000,-0.9400,-5.1914,-2.7023,5.928
6.949000,-0.4645,-5.6580,-2.2999,6.125
6.965000,-0.0649,-6.1849,-1.8429,6.454
6.966000,0.2668,-6.7403,-1.3364,6.877
6.966000,0.6002,-7.3528,-0.7878,7.419
6.969000,0.9451,-7.9388,-0.2239,7.998
6.978000,1.3689,-8.4622,0.3215,8.578
6.979000,1.8434,-8.8271,0.8052,9.053
6.983000,2.3659,-8.9918,1.2049,9.376
7.017000,2.9361,-8.9778,1.5233,9.568
7.018000,3.5248,-8.8288,1.7633,9.669
7.018000,4.0929,-8.5334,1.9418,9.661
7.018000,4.5994,-8.1325,2.0499,9.565
7.018000,5.0236,-7.6780,2.0899,9.410
7.019000,5.3864,-7.1580,2.0625,9.193
7.019000,5.7012,-6.5635,1.9683,8.914
7.048000,5.9501,-5.9093,1.8388,8.585
7.049000,6.1060,-5.2247,1.6792,8.210
7.049000,6.1873,-4.5503,1.5380,7.833
7.049000,6.1787,-3.9231,1.4147,7.454
7.049000,6.0466,-3.3690,1.3191,7.046
7.050000,5.7812,-2.8762,1.2630,6.579
7.086000,5.3872,-2.4474,1.2773,6.053
7.087000,4.9108,-2.0918,1.3203,5.499
7.087000,4.3886,-1.8042,1.3490,4.933
7.087000,3.8140,-1.5869,1.3408,4.343
7.087000,3.1997,-1.4224,1.2959,3.734
7.088000,2.5563,-1.2907,1.2407,3.121
7.088000,1.9110,-1.2389,1.1702,2.561
7.123000,1.2550,-1.2636,1.1065,2.097
7.124000,0.6254,-1.3112,0.9750,1.750
7.124000,0.0519,-1.3185,0.8435,1.566
7.125000,-0.4290,-1.2845,0.7071,1.528
7.125000,-0.8117,-1.2204,0.5902,1.580
7.125000,-1.0766,-1.1208,0.5576,1.651
7.125000,-1.2405,-0.9975,0.6119,1.705
7.126000,-1.2820,-0.8840,0.7598,1.733
7.159000,-1.2298,-0.7734,0.9842,1.755
7.159000,-1.1058,-0.6468,1.2585,1.796
7.160000,-0.9342,-0.4735,1.5320,1.856
7.160000,-0.7538,-0.2444,1.7879,1.956
7.160000,-0.5603,0.0161,2.0122,2.089
7.160000,-0.3565,0.2715,2.2377,2.282
7.161000,-0.1474,0.5337,2.4428,2.505
7.193000,0.0645,0.8118,2.6081,2.732
7.194000,0.2667,1.0958,2.7167,2.941
7.194000,0.4304,1.3928,2.7592,3.121
7.195000,0.5671,1.6878,2.7232,3.254
7.195000,0.6886,1.9905,2.6042,3.349
7.195000,0.7973,2.3270,2.4069,3.441
7.195000,0.9003,2.6733,2.1365,3.539
7.227000,0.9856,3.0104,1.8218,3.654
7.227000,1.0841,3.3195,1.4992,3.800
7.228000,1.2414,3.5715,1.1947,3.965
7.228000,1.4619,3.7856,0.9032,4.157
7.228000,1.7026,3.9210,0.5793,4.314
7.228000,1.9154,4.0210,0.1919,4.458
7.260000,2.0762,4.1118,-0.2417,4.613
7.260000,2.0657,4.2392,-0.6876,4.766
7.260000,2.3502,4.3888,-1.1262,5.104
7.261000,2.4653,4.5392,-1.5260,5.386
7.261000,2.5664,4.6568,-1.8725,5.637
7.261000,2.6224,4.7536,-2.1729,5.848
7.261000,2.6120,4.8224,-2.4131,5.992
7.292000,2.5739,4.8732,-2.5788,6.085
7.293000,2.4891,4.9108,-2.6535,6.112
7.293000,2.3841,4.9278,-2.6447,6.080
7.293000,2.2828,4.9219,-2.5865,6.010
7.294000,2.1829,4.8903,-2.4699,5.897
7.294000,2.0748,4.8426,-2.3286,5.760
7.295000,1.9612,4.7978,-2.1992,5.630
7.299000,1.8634,4.7678,-2.0576,5.517
7.321000,1.7837,4.7499,-1.8537,5.402
7.322000,1.6907,4.7390,-1.6166,5.285
7.322000,1.6010,4.6940,-1.3636,5.144
7.323000,1.4960,4.6246,-1.1528,4.995
7.335000,1.3659,4.5375,-0.9964,4.842
7.335000,1.2014,4.4041,-0.8971,4.652
7.335000,1.0173,4.2222,-0.8451,4.424
7.375000,0.8208,3.9921,-0.8115,4.156
7.375000,0.5955,3.7258,-0.7963,3.856
7.375000,0.3563,3.4480,-0.8088,3.559
7.376000,0.0918,3.1805,-0.8512,3.294
7.376000,-0.1762,2.9046,-0.9209,3.052
7.376000,-0.4449,2.6040,-1.0008,2.825
7.376000,-0.6974,2.3268,-1.0931,2.664
7.376000,-0.9378,2.0836,-1.2352,2.597
7.380000,-1.1160,1.9031,-1.4103,2.618
7.384000,-1.1650,1.7760,-1.6035,2.661
7.407000,-1.0733,1.6926,-1.8094,2.700
7.407000,-0.8680,1.6240,-2.0203,2.734
7.408000,-0.5615,1.5531,-2.1835,2.738
7.408000,-0.2304,1.4658,-2.3272,2.760
7.419000,0.0722,1.3212,-2.4633,2.796
7.419000,0.3201,1.1147,-2.6229,2.868
7.420000,0.5060,0.8273,-2.7815,2.946
7.482000,0.5992,0.4551,-2.9769,3.070
7.482000,0.5836,0.0419,-3.2473,3.300
7.483000,0.6061,-0.3362,-3.6252,3.691
7.483000,0.6450,-0.6046,-4.0236,4.120
7.483000,0.7675,-0.7386,-4.3893,4.517
7.483000,0.9707,-0.7956,-4.6834,4.849
7.484000,1.2638,-0.7974,-4.8319,5.058
7.484000,1.6415,-0.7847,-4.8608,5.190
7.484000,2.0888,-0.7968,-4.7732,5.271
7.484000,2.6026,-0.8586,-4.5816,5.339
7.484000,3.1967,-1.0045,-4.2772,5.433
7.485000,3.8630,-1.2502,-3.8606,5.603
7.485000,4.5576,-1.6494,-3.3394,5.886
7.512000,5.1960,-2.2245,-2.7187,6.272
7.513000,5.7422,-2.9379,-2.0684,6.774
7.513000,6.1867,-3.7800,-1.3580,7.376
7.513000,6.5514,-4.6602,-0.6407,8.065
7.513000,6.8175,-5.5331,0.0495,8.780
7.515000,6.9760,-6.3824,0.7189,9.482
7.525000,6.9774,-7.2099,1.3382,10.122
7.526000,6.8179,-7.9584,1.8755,10.646
7.531000,6.5056,-8.6322,2.3303,11.057
7.536000,6.0579,-9.1973,2.7311,11.347
7.540000,5.4803,-9.6392,3.0874,11.510
7.545000,4.8051,-9.9257,3.3753,11.533
7.550000,4.0852,-10.0491,3.5639,11.418
7.575000,3.3305,-9.9971,3.6201,11.142
7.576000,2.6008,-9.7286,3.5740,10.686
7.576000,1.9553,-9.2696,3.3980,10.065
7.576000,1.4386,-8.6159,3.1198,9.276
7.576000,1.0994,-7.8131,2.7463,8.354
7.589000,0.9407,-6.9223,2.3100,7.358
7.590000,0.9322,-6.0138,1.8145,6.350
7.590000,1.0319,-5.1606,1.2439,5.408
7.595000,1.1335,-4.3921,0.6111,4.577
7.600000,1.1931,-3.7160,-0.0711,3.904
7.640000,1.2132,-3.1605,-0.7638,3.470
7.641000,1.1982,-2.7399,-1.4423,3.320
7.641000,1.1677,-2.4273,-2.0468,3.383
7.641000,1.0961,-2.2102,-2.5654,3.559
7.641000,1.0003,-2.0790,-2.9624,3.755
7.641000,0.8558,-2.0039,-3.2203,3.888
7.642000,0.6681,-1.9994,-3.3832,3.986
7.642000,0.4265,-2.0342,-3.4864,4.059
7.646000,0.1344,-2.1033,-3.5433,4.123
7.650000,-0.2071,-2.2066,-3.5557,4.190
7.655000,-0.5924,-2.3611,-3.5564,4.310
7.660000,-1.0340,-2.5462,-3.5813,4.514
7.665000,-1.4860,-2.7019,-3.6410,4.771
7.672000,-1.9261,-2.8086,-3.7105,5.036
7.675000,-2.3565,-2.8255,-3.7857,5.279
7.682000,-2.7580,-2.7886,-3.8052,5.465
7.686000,-3.1016,-2.7404,-3.7458,5.582
7.752000,-3.3686,-2.7052,-3.5814,5.612
7.753000,-3.5642,-2.6955,-3.3456,5.582
7.753000,-3.7512,-2.7094,-3.0287,5.530
7.753000,-3.9418,-2.7257,-2.6855,5.494
7.754000,-4.1702,-2.7450,-2.3321,5.510
7.754000,-4.4387,-2.7667,-1.9941,5.598
7.754000,-4.7239,-2.8075,-1.6895,5.749
7.755000,-5.0596,-2.8670,-1.4097,5.984
7.755000,-5.4271,-2.8948,-1.1367,6.255
7.756000,-5.8024,-2.8997,-0.8768,6.546
7.756000,-6.1693,-2.8936,-0.6484,6.845
7.756000,-6.5088,-2.8732,-0.4117,7.127
7.757000,-6.7999,-2.8459,-0.1756,7.373
7.763000,-7.0597,-2.8043,0.0607,7.596
7.764000,-7.3170,-2.7963,0.2832,7.838
7.765000,-7.6438,-2.8144,0.4729,8.159
7.772000,-8.0059,-2.8361,0.6225,8.516
7.776000,-8.3768,-2.8582,0.7271,8.881
7.781000,-8.6917,-2.8516,0.8201,9.184
7.788000,-8.9266,-2.8254,0.9158,9.408
7.792000,-9.1007,-2.8058,1.0019,9.576
7.795000,-9.1874,-2.8069,1.0782,9.667
7.800000,-9.2202,-2.7881,1.1202,9.697
7.873000,-9.1920,-2.7400,1.1421,9.659
7.873000,-9.0813,-2.6416,1.1223,9.524
7.874000,-8.8716,-2.5291,1.0821,9.288
7.874000,-8.5580,-2.4338,0.9997,8.953
7.875000,-8.2198,-2.3664,0.8771,8.598
7.875000,-7.8855,-2.2886,0.7235,8.243
7.876000,-7.5982,-2.2272,0.5483,7.937
7.876000,-7.3723,-2.1416,0.3612,7.686
7.877000,-7.1738,-2.0510,0.1496,7.463
7.877000,-6.9524,-1.9620,-0.0506,7.224
7.878000,-6.6914,-1.9088,-0.2256,6.962
7.878000,-6.3953,-1.8627,-0.3732,6.671
7.878000,-6.1000,-1.8453,-0.5250,6.395
7.879000,-5.8176,-1.8400,-0.6928,6.141
7.879000,-5.5266,-1.8376,-0.8624,5.888
7.881000,-5.1982,-1.8665,-1.0310,5.619
7.886000,-4.8304,-1.9324,-1.2011,5.339
7.891000,-4.4591,-2.0517,-1.3891,5.101
7.896000,-4.0991,-2.1889,-1.6018,4.915
7.900000,-3.8148,-2.3583,-1.8078,4.835
7.906000,-3.6106,-2.5665,-2.0216,4.869
7.910000,-3.5032,-2.7800,-2.2361,5.000
7.916000,-3.4704,-3.0289,-2.4393,5.212
7.981000,-3.4470,-3.3027,-2.6000,5.436
7.982000,-3.3990,-3.6388,-2.6778,5.654
7.982000,-3.3255,-4.0242,-2.6925,5.874
7.982000,-3.1944,-4.4311,-2.6570,6.074
7.983000,-2.9286,-4.8286,-2.5573,6.199
7.983000,-2.5130,-5.1465,-2.4397,6.225
7.984000,-1.9853,-5.3727,-2.3904,6.207
7.984000,-1.3526,-5.4762,-2.3375,6.106
7.984000,-0.6432,-5.4382,-2.3354,5.953
7.985000,0.1460,-5.2557,-2.3954,5.778
7.985000,1.0422,-4.9164,-2.5087,5.617
7.985000,2.0741,-4.4158,-2.6310,5.543
7.986000,3.2550,-3.7577,-2.7316,5.672
7.986000,4.5472,-2.9318,-2.7707,6.079
7.991000,5.9203,-1.9475,-2.7373,6.807
7.997000,7.2964,-0.9042,-2.5948,7.797
8.002000,8.5691,0.1534,-2.3692,8.892
8.006000,9.6634,1.2076,-2.0704,9.956
8.010000,10.5226,2.2087,-1.6891,10.884
8.016000,11.0907,3.1054,-1.2407,11.584
8.080000,11.4009,3.8521,-0.7499,12.057
8.082000,11.4565,4.4207,-0.2419,12.282
8.083000,11.2768,4.8311,0.2537,12.271
8.083000,10.8838,5.0881,0.7285,12.036
8.084000,10.3162,5.2593,1.1026,11.632
8.084000,9.6108,5.3289,1.3301,11.070
8.084000,8.8120,5.3295,1.4444,10.399
8.085000,7.9679,5.2592,1.4908,9.663
8.085000,7.1206,5.1459,1.5247,8.917
8.085000,6.3119,5.0124,1.5939,8.216
8.086000,5.6026,4.8954,1.7054,7.633
8.086000,5.0292,4.8267,1.8302,7.207
8.086000,4.5732,4.7952,1.9877,6.918
8.087000,4.2486,4.8388,2.1871,6.801
8.092000,4.0651,4.9530,2.4071,6.845
8.096000,4.0101,5.1446,2.6548,7.042
8.101000,4.0544,5.3891,2.9157,7.347
8.109000,4.1522,5.6793,3.1611,7.713
8.111000,4.2500,5.9952,3.3499,8.076
8.116000,4.3402,6.3436,3.5229,8.455
8.166000,4.4369,6.6958,3.6797,8.835
8.167000,4.5588,7.0129,3.8394,9.203
8.168000,4.6768,7.2922,3.9846,9.536
8.168000,4.7761,7.5384,4.0769,9.811
8.168000,4.8636,7.7389,4.1206,10.026
8.168000,4.9390,7.8696,4.1037,10.157
8.169000,4.9781,7.9162,4.0144,10.177
8.169000,4.9786,7.8670,3.8482,10.074
8.169000,4.9524,7.6956,3.6535,9.854
8.170000,4.9117,7.4003,3.4546,9.530
8.171000,4.8855,6.9669,3.2951,9.125
8.176000,4.8858,6.4103,3.1894,8.668
8.181000,4.9130,5.7500,3.1521,8.194
8.188000,4.9770,4.9647,3.1903,7.720
8.191000,5.0851,4.0522,3.3253,7.303
8.197000,5.2764,3.0514,3.5280,7.043
8.202000,5.5052,1.9836,3.7786,6.966
8.206000,5.7267,0.8705,4.0575,7.072
8.214000,5.9319,-0.2804,4.3260,7.347
8.216000,6.1143,-1.4186,4.5502,7.753
8.264000,6.3037,-2.5001,4.7400,8.274
8.265000,6.4908,-3.4937,4.9144,8.859
8.266000,6.6330,-4.3492,5.0254,9.390
8.266000,6.7279,-5.0164,5.0469,9.793
8.266000,6.7708,-5.4385,4.9909,10.017
8.267000,6.7660,-5.6643,4.8691,10.078
8.267000,6.6949,-5.7176,4.5957,9.931
8.268000,6.5593,-5.6303,4.1231,9.577
8.268000,6.4399,-5.4056,3.5770,9.137
8.268000,6.3404,-5.1399,3.0540,8.715
8.276000,6.2336,-4.8795,2.5333,8.312
8.277000,6.0898,-4.6398,1.9751,7.907
8.282000,5.8654,-4.4492,1.3910,7.492
8.299000,5.5641,-4.3586,0.7613,7.109
8.302000,5.1878,-4.3917,0.1167,6.798
8.302000,4.7265,-4.5288,-0.5407,6.568
8.303000,4.1798,-4.7603,-1.1684,6.442
8.335000,3.5969,-5.0244,-1.7508,6.422
8.336000,2.9542,-5.3231,-2.2803,6.501
8.336000,2.2193,-5.6244,-2.7117,6.627
8.337000,1.4010,-5.9129,-3.0264,6.789
8.337000,0.5031,-6.1854,-3.1996,6.982
8.337000,-0.4255,-6.4035,-3.2209,7.181
8.338000,-1.4081,-6.6008,-3.0884,7.422
8.341000,-2.4366,-6.7581,-2.8981,7.747
8.347000,-3.4950,-6.8413,-2.6316,8.121
8.352000,-4.5293,-6.8353,-2.2942,8.515
8.356000,-5.5340,-6.7927,-1.9244,8.971
8.361000,-6.4551,-6.7043,-1.5724,9.439
8.366000,-7.2330,-6.6087,-1.2440,9.876
8.371000,-7.8537,-6.4885,-0.9470,10.231
8.376000,-8.3318,-6.3293,-0.6909,10.486
8.381000,-8.7016,-6.1191,-0.4442,10.647
8.407000,-8.9999,-5.8587,-0.2182,10.741
8.408000,-9.2341,-5.5807,0.0148,10.789
8.408000,-9.4173,-5.2931,0.2656,10.806
8.408000,-9.5695,-5.0033,0.5068,10.810
8.408000,-9.6985,-4.7165,0.6871,10.806
8.411000,-9.8172,-4.4590,0.8131,10.813
8.417000,-9.9455,-4.2126,0.9387,10.842
8.421000,-10.0961,-3.9812,1.0728,10.906
8.426000,-10.2789,-3.7800,1.1992,11.017
8.431000,-10.5014,-3.5848,1.3019,11.173
8.436000,-10.7161,-3.4219,1.3764,11.333
8.442000,-10.9038,-3.2795,1.4014,11.472
8.446000,-11.0075,-3.1735,1.3919,11.540
8.452000,-11.0370,-3.1211,1.3457,11.548
8.456000,-11.0117,-3.1388,1.2607,11.520
8.461000,-10.9390,-3.1717,1.1085,11.443
8.466000,-10.8285,-3.1980,0.8628,11.324
8.474000,-10.6730,-3.2054,0.5092,11.156
8.478000,-10.4606,-3.1963,0.0911,10.938
8.483000,-10.1915,-3.1898,-0.3336,10.684
8.493000,-9.8827,-3.2292,-0.7004,10.420
8.499000,-9.5674,-3.3241,-1.0075,10.178
8.500000,-9.2884,-3.5079,-1.2531,10.008
8.531000,-9.0571,-3.8042,-1.4146,9.925
8.532000,-8.8656,-4.1841,-1.4930,9.916
8.532000,-8.6821,-4.6206,-1.5639,9.959
8.533000,-8.5490,-5.1038,-1.6498,10.092
8.533000,-8.4082,-5.5659,-1.7660,10.237
8.534000,-8.2447,-6.0205,-1.9131,10.387
8.534000,-8.0531,-6.4794,-2.0370,10.535
8.543000,-7.8253,-6.9584,-2.1127,10.683
8.544000,-7.5796,-7.4258,-2.1895,10.834
8.546000,-7.3649,-7.8330,-2.2999,10.995
8.556000,-7.1610,-8.1527,-2.4254,11.119
8.557000,-6.9113,-8.3738,-2.6341,11.172
8.561000,-6.5098,-8.4603,-2.9397,11.072
8.567000,-5.8338,-8.3348,-3.3439,10.709
8.572000,-5.7439,-7.9708,-3.7923,10.531
8.577000,-3.4156,-7.3815,-4.1962,9.152
8.582000,-1.7526,-6.5848,-4.5341,8.185
8.587000,0.0970,-5.6374,-4.7741,7.388
8.592000,2.0883,-4.5651,-4.9205,7.029
8.597000,4.1661,-3.4090,-4.9825,7.335
8.604000,6.2772,-2.2128,-4.8836,8.255
8.613000,8.3974,-1.0029,-4.5148,9.587
8.613000,10.4025,0.1920,-3.8498,11.094
8.617000,12.0974,1.3145,-2.9667,12.525
8.643000,13.3881,2.2914,-1.9058,13.716
8.643000,14.2116,3.1284,-0.7701,14.572
8.644000,14.5247,3.7621,0.3323,15.008
8.644000,14.3494,4.1781,1.3030,15.002
8.645000,13.7354,4.3634,2.0755,14.561
8.647000,12.7480,4.3494,2.6192,13.722
8.655000,11.4831,4.1817,2.9168,12.564
8.659000,10.0290,3.9036,3.0064,11.174
8.662000,8.4886,3.5821,2.9485,9.674
8.667000,7.0219,3.2873,2.8635,8.265
8.672000,5.7924,3.1036,2.8525,7.164
8.677000,4.8606,3.0587,2.9135,6.440
8.682000,4.2335,3.1931,3.0300,6.107
8.687000,3.8861,3.4538,3.1785,6.094
8.692000,3.7814,3.8041,3.2829,6.289
8.697000,3.8729,4.2103,3.3273,6.618
8.704000,4.0770,4.6206,3.3266,7.003
8.707000,4.3380,5.0279,3.2699,7.402
8.712000,4.6141,5.4366,3.1794,7.807
8.717000,4.8663,5.8704,3.0655,8.218
8.738000,5.0795,6.3052,2.9428,8.615
8.739000,5.2442,6.7123,2.8687,8.988
8.740000,5.3764,7.0911,2.8403,9.341
8.740000,5.4954,7.4272,2.8785,9.677
8.742000,5.5797,7.7062,2.9466,9.960
8.747000,5.6321,7.8899,3.0225,10.154
8.752000,5.6625,7.9857,3.1200,10.275
8.764000,5.6613,7.9813,3.2313,10.305
8.764000,5.6648,7.8797,3.4060,10.285
8.768000,5.6975,7.6811,3.6341,10.231
8.772000,5.8125,7.3880,3.8552,10.160
8.777000,6.0004,6.9866,4.0595,10.065
8.782000,6.2519,6.4915,4.2852,9.979
8.787000,6.5652,5.9508,4.5294,9.951
8.792000,6.9331,5.3456,4.7825,9.976
8.797000,7.3462,4.7478,5.0707,10.110
8.802000,7.7350,4.1620,5.4512,10.338
8.807000,8.0923,3.5831,5.9666,10.673
8.812000,8.3968,2.9845,6.5964,11.087
8.818000,8.6415,2.3085,7.3157,11.555
8.829000,8.8482,1.5951,8.0322,12.056
8.830000,9.0194,0.8394,8.6998,12.559
8.832000,9.1264,0.0624,9.3490,13.065
8.904000,9.1428,-0.7439,9.8786,13.481
8.905000,9.0716,-1.5408,10.1933,13.732
8.905000,8.9393,-2.2928,10.2772,13.813
8.906000,8.8031,-2.9952,10.1430,13.760
8.906000,8.6198,-3.6340,9.7180,13.489
8.906000,8.4367,-4.1470,9.0236,13.031
8.907000,8.2744,-4.5277,8.1237,12.448
8.907000,8.1111,-4.8137,7.1480,11.834
8.907000,7.9480,-4.9676,6.1240,11.196
8.908000,7.7054,-5.0067,5.0345,10.478
8.908000,7.3634,-5.0123,3.9554,9.746
8.908000,6.9474,-5.0213,2.9310,9.059
8.909000,6.5011,-5.0869,1.9849,8.490
8.909000,6.0791,-5.2146,1.0939,8.084
8.909000,5.6383,-5.4163,0.1486,7.820
8.912000,5.1598,-5.6436,-0.8691,7.696
8.918000,4.6061,-5.8887,-1.9653,7.730
8.922000,3.9322,-6.1296,-3.1248,7.925
8.928000,3.1146,-6.3199,-4.2680,8.238
8.933000,2.2069,-6.4446,-5.3206,8.644
8.939000,1.2487,-6.4736,-6.2472,9.083
8.943000,1.1243,-6.4249,-7.0396,9.597
8.947000,-0.6722,-6.3077,-7.6135,9.910
9.017000,-1.6079,-6.1720,-7.9347,10.180
9.018000,-2.5150,-6.0419,-8.0137,10.347
9.019000,-3.3945,-5.9506,-7.8784,10.440
9.019000,-4.2261,-5.8569,-7.5392,10.440
9.020000,-4.9927,-5.7393,-6.9966,10.335
9.020000,-5.6968,-5.6412,-6.2935,10.192
9.021000,-6.3257,-5.5827,-5.5061,10.075
9.021000,-6.8705,-5.5429,-4.6900,9.996
9.022000,-7.3079,-5.4977,-3.8645,9.928
9.023000,-7.6983,-5.4259,-3.0844,9.911
9.023000,-8.0806,-5.3177,-2.4209,9.972
9.024000,-8.4221,-5.1831,-1.8699,10.064
9.024000,-8.7212,-4.9966,-1.3407,10.140
9.024000,-8.9311,-4.7710,-0.8054,10.158
9.025000,-9.0120,-4.5067,-0.2603,10.079
9.028000,-8.9601,-4.2545,0.2982,9.923
9.033000,-8.8097,-4.0350,0.8847,9.730
9.039000,-8.6260,-3.8336,1.4622,9.552
9.043000,-8.4336,-3.6706,2.0120,9.415
9.047000,-8.2713,-3.5349,2.4915,9.334
9.106000,-8.1273,-3.3933,2.8775,9.265
9.107000,-8.0116,-3.2702,3.1419,9.206
9.107000,-7.8790,-3.1686,3.2920,9.108
9.107000,-7.7538,-3.1119,3.3123,8.988
9.108000,-7.6338,-3.1078,3.2342,8.854
9.108000,-7.5551,-3.1678,3.0585,8.745
9.109000,-7.4726,-3.2964,2.8145,8.639
9.109000,-7.4200,-3.5052,2.5004,8.579
9.109000,-7.3759,-3.7952,2.1507,8.569
9.110000,-7.3212,-4.1586,1.8037,8.611
9.110000,-7.2989,-4.5539,1.4499,8.724
9.110000,-7.3018,-4.9584,1.1061,8.895
9.115000,-7.3368,-5.3354,0.7650,9.104
9.119000,-7.3896,-5.6955,0.4484,9.341
9.123000,-7.4215,-6.0566,0.1870,9.581
9.128000,-7.3798,-6.3890,-0.0097,9.761
9.133000,-7.2595,-6.6945,-0.1401,9.876
9.138000,-7.0146,-6.9462,-0.2934,9.876
9.143000,-6.6403,-7.1062,-0.4392,9.736
9.148000,-6.1628,-7.1870,-0.5612,9.484
9.216000,-5.6510,-7.2250,-0.7418,9.202
9.217000,-5.1477,-7.2154,-0.9933,8.919
9.217000,-4.6188,-7.1173,-1.2949,8.583
9.218000,-4.0423,-6.8920,-1.6203,8.153
9.218000,-3.3676,-6.5197,-1.9745,7.599
9.219000,-2.5899,-5.9798,-2.3148,6.916
9.219000,-1.7401,-5.3349,-2.6098,6.189
9.219000,-0.8352,-4.5860,-2.8470,5.462
9.220000,0.1603,-3.7750,-2.9902,4.819
9.220000,1.2867,-2.9256,-3.0250,4.401
9.221000,2.4862,-2.0367,-2.9993,4.396
9.221000,3.7362,-1.0742,-2.9562,4.884
9.221000,4.9570,-0.0570,-2.9197,5.753
9.222000,6.0809,0.9692,-2.9236,6.816
9.224000,7.0236,1.9830,-2.9591,7.875
9.229000,7.7393,2.8987,-3.0267,8.801
9.234000,8.2014,3.6560,-3.1246,9.508
9.238000,8.4074,4.2029,-3.2106,9.933
9.244000,8.3503,4.5614,-3.2804,10.065
9.248000,8.0282,4.7418,-3.3705,9.914
9.255000,7.4319,4.6875,-3.4930,9.456
9.258000,6.6199,4.4746,-3.6000,8.764
9.263000,5.6764,4.1477,-3.6917,7.941
9.269000,4.6644,3.8045,-3.7509,7.092
9.340000,3.6633,3.4394,-3.7484,6.269
9.341000,2.6663,3.0918,-3.6315,5.464
9.341000,1.7167,2.7459,-3.4359,4.721
9.341000,0.8173,2.4747,-3.1784,4.110
9.342000,-0.0246,2.2236,-2.8945,3.650
9.342000,-0.7971,2.0318,-2.5979,3.393
9.342000,-1.5050,1.9165,-2.3023,3.352
9.343000,-2.1416,1.8758,-1.9875,3.472
9.343000,-2.6543,1.9073,-1.6577,3.665
9.344000,-3.0509,2.0204,-1.3268,3.892
9.344000,-3.3127,2.1859,-0.9941,4.092
9.344000,-3.4404,2.4059,-0.6664,4.251
9.345000,-3.4727,2.6461,-0.3578,4.381
9.345000,-3.4223,2.9011,-0.0676,4.487
9.345000,-3.3376,3.1320,0.2045,4.582
9.350000,-3.2287,3.2783,0.4753,4.626
9.354000,-3.1054,3.3397,0.7354,4.619
9.359000,-2.9609,3.3472,0.9801,4.575
9.364000,-2.8048,3.2813,1.1929,4.478
9.378000,-2.6110,3.2137,1.3782,4.364
9.380000,-2.3723,3.1395,1.5194,4.218
9.381000,-2.1438,3.0606,1.5990,4.064
9.383000,-1.8869,2.9342,1.6673,3.866
9.460000,-1.6398,2.7028,1.7476,3.612
9.461000,-1.4118,2.3165,1.8777,3.299
9.461000,-1.1880,1.8044,2.0284,2.963
9.461000,-1.0420,1.1858,2.1768,2.689
9.462000,-0.9586,0.4976,2.3200,2.559
9.462000,-0.9203,-0.2140,2.4718,2.646
9.463000,-0.8856,-0.9025,2.6694,2.954
9.463000,-0.7889,-1.5290,2.8930,3.366
9.463000,-0.6228,-2.0686,3.1637,3.831
9.464000,-0.4082,-2.5477,3.5356,4.377
9.464000,-0.1232,-2.9706,4.0393,5.016
9.464000,0.2754,-3.3325,4.7146,5.780
9.465000,0.8165,-3.6601,5.5506,6.699
9.465000,1.4688,-4.0072,6.5248,7.797
9.466000,2.1625,-4.4105,7.5809,9.033
9.466000,2.8301,-4.8645,8.6417,10.313
9.469000,3.3855,-5.2979,9.6088,11.483
9.474000,3.7521,-5.6159,10.3670,12.373
9.479000,3.9468,-5.7135,10.8455,12.878
9.484000,4.0604,-5.5718,11.0786,13.049
9.489000,4.1568,-5.2516,11.0084,12.886
9.494000,4.2997,-4.7822,10.6009,12.399
9.499000,4.4949,-4.2385,9.9920,11.748
9.563000,4.7248,-3.6692,9.2549,11.020
9.565000,4.9735,-3.1041,8.4195,10.260
9.566000,5.2088,-2.6113,7.5750,9.557
9.567000,5.3953,-2.2113,6.7543,8.923
9.567000,5.4719,-1.9267,5.9174,8.287
9.570000,5.4541,-1.7726,5.0082,7.614
9.572000,5.3408,-1.7231,3.9757,6.877
9.573000,5.1455,-1.7539,2.8385,6.133
9.575000,4.8751,-1.8625,1.6051,5.460
9.576000,4.5273,-2.0370,0.3064,4.974
9.577000,4.0980,-2.2524,-1.0182,4.786
9.579000,3.6262,-2.4921,-2.2980,4.964
9.580000,3.1294,-2.6969,-3.4485,5.381
9.582000,2.5944,-2.8557,-4.5027,5.930
9.583000,2.0735,-2.9250,-5.4635,6.535
9.584000,1.5393,-2.8965,-6.2836,7.088
9.585000,1.0388,-2.7427,-6.9284,7.524
9.589000,0.5879,-2.5348,-7.3428,7.790
9.595000,0.2387,-2.3248,-7.5630,7.916
9.600000,0.0662,-2.1278,-7.6202,7.912
9.606000,0.0099,-1.9360,-7.5376,7.782
9.610000,-0.0013,-1.7242,-7.3348,7.535
9.614000,0.0098,-1.4907,-7.0036,7.160
9.619000,0.0299,-1.2913,-6.5073,6.634
9.705000,0.0501,-1.1602,-5.9809,6.093
9.706000,0.0968,-1.0842,-5.4886,5.595
9.707000,0.1295,-1.0703,-5.0173,5.132
9.707000,0.0926,-1.0668,-4.5433,4.668
9.708000,0.0028,-1.0766,-4.0210,4.163
9.708000,-0.1784,-1.1120,-3.4550,3.634
9.709000,-0.4487,-1.1833,-2.9075,3.171
9.710000,-0.8491,-1.2921,-2.4145,2.867
9.710000,-1.3892,-1.4193,-2.0322,2.841
9.710000,-2.0546,-1.5683,-1.7678,3.131
9.711000,-2.7860,-1.6948,-1.5444,3.608
9.711000,-3.5288,-1.8216,-1.3548,4.196
9.711000,-4.2596,-1.9337,-1.1327,4.813
9.712000,-4.9149,-2.0416,-0.8917,5.396
9.712000,-5.4859,-2.1334,-0.6307,5.920
9.713000,-6.0044,-2.2352,-0.3676,6.417
9.713000,-6.4521,-2.3130,-0.1606,6.856
9.714000,-6.8227,-2.3791,0.0003,7.226
9.714000,-7.1531,-2.4234,0.0813,7.553
9.720000,-7.4367,-2.4528,0.0782,7.831
9.724000,-7.6767,-2.4746,0.0039,8.066
9.730000,-7.8643,-2.4979,-0.1097,8.252
9.736000,-7.9809,-2.5299,-0.2428,8.376
9.741000,-8.0243,-2.5898,-0.3501,8.439
9.745000,-7.9617,-2.6991,-0.4192,8.417
9.749000,-7.7954,-2.8581,-0.4603,8.316
9.841000,-7.5590,-3.0745,-0.4954,8.175
9.842000,-7.2860,-3.3317,-0.5679,8.032
9.843000,-7.0284,-3.6080,-0.6905,7.931
9.843000,-6.7618,-3.8910,-0.8637,7.849
9.844000,-6.4255,-4.1351,-1.0719,7.716
9.844000,-6.0213,-4.3401,-1.3109,7.537
9.845000,-5.5608,-4.5132,-1.5600,7.330
9.845000,-5.0790,-4.6688,-1.8082,7.132
9.845000,-4.5969,-4.8185,-2.0656,6.973
9.846000,-4.1281,-5.0061,-2.3171,6.890
9.847000,-3.6790,-5.2572,-2.5965,6.922
9.847000,-3.2394,-5.5615,-2.8735,7.048
9.848000,-2.7867,-5.8513,-3.1725,7.216
9.849000,-2.3035,-6.0756,-3.5180,7.389
9.850000,-1.7891,-6.1998,-3.8715,7.525
9.850000,-1.1954,-6.1888,-4.2050,7.577
9.851000,-0.4953,-6.0540,-4.5016,7.560
9.852000,0.2801,-5.7981,-4.7735,7.516
9.853000,1.1117,-5.4241,-4.9961,7.458
9.853000,2.0254,-4.9519,-5.1161,7.403
9.857000,2.9851,-4.4058,-5.0753,7.354
9.861000,3.9628,-3.8227,-4.8374,7.329
9.865000,4.9463,-3.2247,-4.4595,7.399
9.872000,5.9032,-2.6136,-4.0125,7.601
9.875000,6.7745,-1.9959,-3.4524,7.861
9.880000,7.4947,-1.3726,-2.7469,8.099
9.885000,7.9949,-0.7519,-1.8754,8.246
9.949000,8.2750,-0.1894,-0.9125,8.327
9.951000,8.3372,0.2756,0.0597,8.342
9.953000,8.1593,0.6781,0.9732,8.245
9.954000,7.7700,1.0490,1.8183,8.049
9.956000,7.1814,1.3884,2.6284,7.772
9.958000,6.4289,1.7145,3.3783,7.462
9.959000,5.5371,2.0186,4.0681,7.161
9.960000,4.5495,2.3062,4.6975,6.934
9.961000,3.5313,2.5494,5.3117,6.869
9.963000,2.5360,2.7829,5.9010,7.000
9.964000,1.6570,3.0089,6.4645,7.320
9.965000,0.9525,3.2645,6.9830,7.767
9.966000,0.4632,3.5380,7.4272,8.240
9.967000,0.1841,3.8317,7.7706,8.666
9.968000,0.0909,4.1549,8.0154,9.029
9.969000,0.1354,4.4791,8.1499,9.301
9.973000,0.2857,4.7840,8.1541,9.458
9.977000,0.5126,5.0746,8.0477,9.528
9.981000,0.7897,5.3294,7.8020,9.481
9.986000,1.1095,5.5293,7.4484,9.343
9.990000,1.4335,5.6960,7.0138,9.148
9.995000,1.7111,5.8656,6.5490,8.957
10.000000,1.9232,6.0497,6.0731,8.785
10.078000,2.0387,6.2175,5.6245,8.628
10.079000,2.0409,6.3237,5.2416,8.463
10.079000,1.9470,6.3590,4.9385,8.283
10.080000,1.7742,6.3262,4.6671,8.059
10.080000,1.5399,6.2234,4.3937,7.772
10.080000,1.2997,6.0824,4.1734,7.490
10.081000,1.0686,5.9254,3.9990,7.228
10.082000,0.9018,5.7479,3.8656,6.985
10.082000,0.7802,5.5597,3.7710,6.763
10.083000,0.6827,5.3109,3.6936,6.505
10.083000,0.6238,5.0234,3.6189,6.223
10.084000,0.6489,4.7405,3.5519,5.959
10.084000,0.7558,4.4502,3.4925,5.707
10.084000,0.9229,4.1885,3.4049,5.476
10.085000,1.1403,3.9720,3.3083,5.294
10.085000,1.3985,3.7910,3.2076,5.159
10.087000,1.6492,3.6335,3.1293,5.071
10.095000,1.9044,3.4707,3.1190,5.040
10.096000,2.1568,3.3070,3.1738,5.066
10.102000,2.3942,3.1209,3.2961,5.132
10.189000,2.6022,2.9045,3.4994,5.240
10.191000,2.7929,2.6723,3.7140,5.361
10.193000,2.9279,2.4117,3.9105,5.448
10.194000,3.0241,2.1060,4.0839,5.501
10.196000,3.1317,1.7573,4.2003,5.526
10.197000,3.2678,1.3656,4.2641,5.543
10.198000,3.4514,0.9358,4.2613,5.563
10.199000,3.7017,0.4799,4.1754,5.601
10.202000,4.0115,0.0289,4.0208,5.680
10.203000,4.3685,-0.3931,3.8269,5.821
10.205000,4.7679,-0.7674,3.5987,6.023
10.205000,5.2403,-1.1540,3.3724,6.338
10.205000,5.7688,-1.5576,3.1895,6.773
10.206000,6.3120,-2.0098,3.0667,7.300
10.206000,6.8265,-2.5326,3.0041,7.877
10.207000,7.2833,-3.0980,2.9753,8.456
10.207000,7.6178,-3.7350,2.9057,8.968
10.208000,7.8422,-4.3951,2.7679,9.406
10.208000,7.9325,-5.0452,2.5454,9.740
10.209000,7.9176,-5.6562,2.2224,9.981
10.209000,7.8262,-6.1821,1.7979,10.134
10.212000,7.6679,-6.5650,1.2682,10.174
10.216000,7.4475,-6.7880,0.6484,10.098
10.227000,7.1750,-6.8423,-0.0069,9.915
10.228000,6.8668,-6.7497,-0.6183,9.649
10.231000,6.5779,-6.4695,-1.1807,9.301
10.289000,6.2647,-6.0356,-1.6772,8.859
10.290000,5.9361,-5.4708,-2.1270,8.348
10.290000,5.5852,-4.8895,-2.5487,7.848
10.290000,5.2376,-4.3452,-2.9423,7.414
10.291000,4.8808,-3.9101,-3.3026,7.072
10.291000,4.5075,-3.6057,-3.6171,6.812
10.292000,4.1081,-3.4295,-3.8760,6.608
10.292000,3.7135,-3.3603,-4.0886,6.465
10.292000,3.3250,-3.3749,-4.3052,6.402
10.293000,2.9212,-3.4591,-4.5234,6.400
10.293000,2.5171,-3.5858,-4.7362,6.452
10.294000,2.0609,-3.7352,-4.9509,6.535
10.296000,1.5563,-3.8967,-5.1276,6.626
10.301000,0.9989,-4.0604,-5.2405,6.704
10.337000,0.4197,-4.2147,-5.2770,6.767
10.338000,-0.1856,-4.3382,-5.2336,6.800
10.339000,-0.7706,-4.4259,-5.1122,6.806
10.339000,-1.3390,-4.4512,-4.9004,6.754
10.339000,-1.8950,-4.4029,-4.6483,6.677
10.340000,-2.4372,-4.2653,-4.3919,6.589
10.340000,-2.9249,-4.1063,-4.1178,6.509
10.341000,-3.3462,-3.9190,-3.8199,6.415
10.347000,-3.7130,-3.7609,-3.5063,6.342
10.351000,-4.0233,-3.6442,-3.1868,6.295
10.356000,-4.2773,-3.5551,-2.8855,6.266
10.362000,-4.4919,-3.4662,-2.5637,6.226
10.366000,-4.6824,-3.3881,-2.2517,6.203
10.371000,-4.8779,-3.3305,-1.9557,6.222
10.376000,-5.0288,-3.2864,-1.6772,6.237
10.381000,-5.1285,-3.2421,-1.4036,6.228
10.435000,-5.1844,-3.1965,-1.1481,6.198
10.435000,-5.2187,-3.1670,-0.9003,6.171
10.436000,-5.2654,-3.1610,-0.6760,6.179
10.436000,-5.3465,-3.1881,-0.4576,6.242
10.436000,-5.4693,-3.2314,-0.2205,6.356
10.436000,-5.6292,-3.3035,0.0188,6.527
10.437000,-5.8242,-3.4102,0.2611,6.754
10.437000,-6.0160,-3.5566,0.4850,7.005
10.437000,-6.2117,-3.7352,0.6977,7.282
10.438000,-6.4113,-3.9480,0.8897,7.582
10.438000,-6.5837,-4.1635,1.0488,7.860
10.442000,-6.7457,-4.3581,1.1750,8.116
10.447000,-6.8876,-4.5426,1.2683,8.348
10.452000,-7.0168,-4.7078,1.3192,8.552
10.456000,-7.1116,-4.8800,1.3562,8.731
10.462000,-7.1794,-5.0638,1.3842,8.894
10.467000,-7.2419,-5.3003,1.4080,9.084
10.472000,-7.3277,-5.5741,1.4014,9.313
10.477000,-7.4563,-5.8616,1.3360,9.578
10.567000,-7.6538,-6.1673,1.2262,9.906
10.567000,-7.8918,-6.4667,1.0508,10.257
10.568000,-8.1391,-6.7472,0.8053,10.603
10.568000,-8.3910,-6.9962,0.4967,10.936
10.569000,-8.5972,-7.1932,0.1301,11.210
10.569000,-8.7602,-7.3545,-0.2756,11.441
10.569000,-8.8585,-7.4413,-0.7562,11.594
10.570000,-8.8661,-7.4312,-1.2876,11.640
10.570000,-8.7447,-7.3143,-1.8313,11.547
10.570000,-8.4946,-7.1266,-2.3396,11.332
10.571000,-8.1735,-6.8967,-2.8074,11.057
10.571000,-7.7767,-6.6272,-3.2441,10.720
10.572000,-7.3308,-6.3398,-3.6496,10.356
10.572000,-6.8526,-6.0490,-4.0045,9.979
10.572000,-6.3300,-5.7622,-4.2706,9.566
10.573000,-5.7820,-5.5062,-4.4078,9.120
10.573000,-5.2010,-5.3075,-4.3853,8.629
10.573000,-4.6013,-5.1954,-4.2158,8.120
10.574000,-3.9871,-5.2327,-3.9142,7.655
10.577000,-3.3723,-5.4103,-3.5244,7.285
10.583000,-2.7804,-5.7088,-3.1356,7.082
10.587000,-2.2299,-6.0453,-2.8300,7.037
10.591000,-1.6772,-6.4046,-2.5981,7.112
10.597000,-1.1052,-6.7364,-2.3807,7.230
10.601000,-0.4819,-6.9947,-2.2213,7.355
10.607000,0.2145,-7.1818,-2.1633,7.504
10.611000,1.0251,-7.2800,-2.1585,7.662
10.617000,1.8849,-7.2526,-2.1681,7.801
10.707000,2.7080,-7.0825,-2.1988,7.895
10.707000,3.4344,-6.7772,-2.1849,7.906
10.708000,4.0879,-6.3350,-2.0852,7.822
10.708000,4.6807,-5.7630,-1.8967,7.663
10.708000,5.2092,-5.0837,-1.6687,7.468
10.709000,5.7016,-4.3404,-1.4121,7.304
10.709000,6.0994,-3.5610,-1.1018,7.148
10.709000,6.3205,-2.7873,-0.6891,6.942
10.710000,6.3766,-2.0608,-0.1666,6.703
10.710000,6.2917,-1.4147,0.4390,6.464
10.710000,6.0989,-0.8706,1.0864,6.256
10.711000,5.8417,-0.4210,1.7315,6.107
10.711000,5.5321,-0.0399,2.3596,6.014
10.711000,5.1771,0.2863,2.9555,5.968
10.712000,4.8081,0.5701,3.4902,5.969
10.712000,4.4509,0.8239,3.9412,6.002
10.713000,4.1058,1.0487,4.3108,6.045
10.713000,3.7990,1.2397,4.5532,6.058
10.713000,3.5184,1.3659,4.6589,5.996
10.718000,3.2786,1.5212,4.6229,5.868
10.723000,3.0922,1.7113,4.4192,5.659
10.728000,2.9678,1.9452,4.0598,5.392
10.733000,2.9179,2.2384,3.6221,5.162
10.738000,2.9420,2.5960,3.1690,5.043
10.742000,3.0327,3.0012,2.7462,5.074
10.747000,3.1825,3.4444,2.3896,5.263
10.752000,3.3578,3.8968,2.1016,5.557
10.823000,3.5003,4.3643,1.8719,5.899
10.824000,3.6531,4.8351,1.6502,6.281
10.825000,3.7846,5.3135,1.4244,6.677
10.826000,3.8706,5.7564,1.2568,7.050
10.827000,3.9061,6.1397,1.1450,7.366
10.828000,3.8902,6.4626,1.0858,7.621
10.828000,3.8307,6.7063,1.0600,7.796
10.829000,3.7271,6.8923,1.0459,7.905
10.830000,3.5604,7.0353,1.0292,7.952
10.831000,3.3450,7.1042,1.0338,7.920
10.832000,3.0954,7.1237,1.0503,7.838
10.833000,2.8402,7.0982,1.0713,7.720
10.834000,2.5630,7.0356,1.0992,7.568
10.837000,2.2930,6.9290,1.1243,7.385
10.838000,2.0468,6.7931,1.1324,7.185
10.842000,1.8248,6.6257,1.1258,6.964
10.843000,1.6198,6.4610,1.0930,6.750
10.843000,1.4395,6.3204,1.0289,6.563
10.847000,1.2982,6.1878,0.9411,6.392
10.857000,1.1963,6.0780,0.8681,6.255
10.865000,1.1339,5.9935,0.8221,6.155
10.865000,1.1207,5.9320,0.7981,6.090
10.866000,1.1830,5.8889,0.8224,6.063
10.951000,1.2775,5.8516,0.8799,6.054
10.952000,1.4090,5.8274,0.9373,6.068
10.953000,1.5343,5.7993,1.0041,6.082
10.953000,1.6459,5.7577,1.0801,6.085
10.954000,1.7202,5.6954,1.1654,6.063
10.954000,1.7883,5.6290,1.2786,6.043
10.954000,1.8645,5.5371,1.4151,6.012
10.955000,1.9082,5.3981,1.6033,5.946
10.955000,1.9386,5.2048,1.8214,5.845
10.955000,1.9536,4.9718,2.0644,5.727
10.956000,1.9606,4.7327,2.3081,5.619
10.956000,1.9815,4.4732,2.5423,5.514
10.957000,2.0453,4.2055,2.7457,5.423
10.957000,2.1353,3.9370,2.9227,5.348
10.957000,2.2422,3.6605,3.0734,5.279
10.958000,2.3614,3.3717,3.1857,5.205
10.958000,2.5051,3.1090,3.2692,5.160
10.958000,2.6926,2.9084,3.3384,5.182
10.963000,2.8879,2.7698,3.3908,5.245
10.968000,3.0980,2.7145,3.4408,5.367
10.972000,3.3228,2.6991,3.5169,5.540
10.978000,3.5835,2.7183,3.5924,5.756
10.983000,3.8964,2.7239,3.6960,6.022
10.989000,4.2252,2.7105,3.7986,6.295
10.992000,4.5503,2.6512,3.9000,6.553
10.997000,4.8641,2.5074,3.9932,6.774
11.003000,5.1641,2.2645,4.0252,6.928
11.084000,5.4095,1.9270,3.9961,6.996
11.085000,5.6103,1.4957,3.9352,7.014
11.087000,5.7999,0.9851,3.8716,7.043
11.089000,5.9837,0.4005,3.8125,7.106
11.090000,6.1956,-0.2431,3.7630,7.253
11.092000,6.4716,-0.8904,3.7589,7.537
11.093000,6.7519,-1.5513,3.8192,7.911
11.094000,7.0322,-2.2322,3.9059,8.348
11.095000,7.2962,-2.8971,3.9540,8.790
11.096000,7.5633,-3.5072,3.9421,9.222
11.097000,7.8172,-4.0051,3.8991,9.610
11.099000,8.0718,-4.3481,3.8514,9.945
11.100000,8.2771,-4.5863,3.7973,10.196
11.102000,8.4206,-4.7181,3.7390,10.351
11.103000,8.4783,-4.7607,3.6694,10.393
11.103000,8.4810,-4.7530,3.5668,10.356
11.104000,8.4310,-4.6957,3.4433,10.246
11.104000,8.3543,-4.6184,3.3127,10.104
11.104000,8.2148,-4.5541,3.0470,9.875
11.105000,8.0717,-4.4939,2.7188,9.630
11.140000,7.9170,-4.4431,2.3457,9.377
11.142000,7.6998,-4.3950,1.9524,9.078
11.143000,7.4460,-4.3430,1.5346,8.756
11.144000,7.1410,-4.2790,1.0340,8.389
11.145000,6.7746,-4.2395,0.4346,8.004
11.146000,6.3922,-4.1736,-0.2407,7.638
11.147000,5.9935,-4.1142,-0.9308,7.329
11.148000,5.5618,-4.0603,-1.6083,7.072
11.149000,5.1304,-3.9761,-2.2536,6.871
11.157000,4.6953,-3.8498,-2.8299,6.699
11.159000,4.2685,-3.6960,-3.3253,6.553
11.163000,3.8552,-3.5190,-3.7065,6.402
11.167000,3.4387,-3.3284,-3.9882,6.230
11.214000,2.9982,-3.1649,-4.1901,6.047
11.215000,2.5290,-3.0409,-4.3080,5.848
11.215000,2.0638,-2.9596,-4.3811,5.676
11.215000,1.5956,-2.9071,-4.4031,5.512
11.215000,1.1108,-2.8712,-4.3939,5.365
11.216000,0.6150,-2.8708,-4.3545,5.252
11.216000,0.0964,-2.8798,-4.2950,5.172
11.216000,-0.4171,-2.8775,-4.2623,5.160
11.217000,-0.9208,-2.8738,-4.2210,5.189
11.225000,-1.4021,-2.8447,-4.1744,5.243
11.225000,-1.8582,-2.8068,-4.1500,5.344
11.228000,-2.2961,-2.7622,-4.1627,5.498
11.234000,-2.6941,-2.7471,-4.1938,5.691
11.240000,-3.0658,-2.7506,-4.2469,5.916
11.244000,-3.4450,-2.7823,-4.2838,6.161
11.247000,-3.8146,-2.8278,-4.2981,6.405
11.308000,-4.1580,-2.8483,-4.2854,6.616
11.308000,-4.5061,-2.8438,-4.3085,6.852
11.309000,-4.8446,-2.8286,-4.3819,7.118
11.309000,-5.1425,-2.7847,-4.4477,7.347
11.310000,-5.3694,-2.7292,-4.4551,7.492
11.310000,-5.5856,-2.6554,-4.3966,7.588
11.310000,-5.7793,-2.5849,-4.2580,7.630
11.311000,-5.9628,-2.5113,-4.0942,7.657
11.311000,-6.1480,-2.4436,-3.9339,7.697
11.311000,-6.3329,-2.3701,-3.8056,7.759
11.312000,-6.5225,-2.2815,-3.6873,7.832
11.312000,-6.7218,-2.1990,-3.5759,7.925
11.313000,-6.9214,-2.1322,-3.4714,8.031
11.319000,-7.1073,-2.0596,-3.3565,8.125
11.325000,-7.2628,-1.9830,-3.2166,8.187
11.328000,-7.4025,-1.9125,-3.0730,8.240
11.334000,-7.5194,-1.8553,-2.9328,8.282
11.340000,-7.6329,-1.7970,-2.8027,8.327
11.344000,-7.7478,-1.7521,-2.6898,8.386
11.347000,-7.8644,-1.7153,-2.5816,8.453
11.442000,-7.8489,-1.6893,-2.4826,8.404
11.443000,-8.0364,-1.6572,-2.3806,8.544
11.443000,-8.1135,-1.6311,-2.2922,8.587
11.444000,-8.1783,-1.5966,-2.2104,8.621
11.444000,-8.2236,-1.5846,-2.1352,8.643
11.445000,-8.2543,-1.5831,-2.0857,8.660
11.445000,-8.2606,-1.5750,-2.0596,8.658
11.445000,-8.2426,-1.5700,-2.0449,8.636
11.446000,-8.2098,-1.5606,-2.0391,8.602
11.446000,-8.1433,-1.5470,-2.0304,8.534
11.447000,-8.0618,-1.5696,-2.0331,8.461
11.447000,-7.9870,-1.6357,-2.0475,8.406
11.447000,-7.9186,-1.7376,-2.0760,8.369
11.448000,-7.8325,-1.8487,-2.1498,8.330
11.448000,-7.7166,-1.9518,-2.2569,8.273
11.449000,-7.5709,-2.0298,-2.3805,8.192
11.449000,-7.3641,-2.0951,-2.5111,8.058
11.449000,-7.0675,-2.1426,-2.6153,7.835
11.450000,-6.6808,-2.1632,-2.6981,7.523
11.450000,-6.2089,-2.1476,-2.7598,7.126
11.454000,-5.6782,-2.1013,-2.8006,6.671
11.458000,-5.0979,-2.0509,-2.8159,6.174
11.464000,-4.5137,-2.0171,-2.8083,5.686
11.468000,-3.9662,-2.0547,-2.7995,5.272
11.473000,-3.4645,-2.1614,-2.7658,4.932
11.478000,-2.9991,-2.3563,-2.6930,4.669
11.483000,-2.5645,-2.6269,-2.5549,4.473
11.564000,-2.1156,-2.9812,-2.3898,4.367
11.565000,-1.6135,-3.3561,-2.2317,4.341
11.565000,-1.0628,-3.7228,-2.1401,4.424
11.566000,-0.4395,-4.0525,-2.1078,4.589
11.566000,0.2135,-4.3662,-2.1032,4.851
11.567000,0.8191,-4.7106,-2.0995,5.222
11.567000,1.3516,-5.0917,-2.0964,5.670
11.567000,1.8639,-5.4734,-2.0914,6.149
11.568000,2.3779,-5.8216,-2.0936,6.628
11.568000,2.9394,-6.0927,-2.0975,7.082
11.568000,3.5943,-6.2929,-2.0861,7.541
11.569000,4.3301,-6.3806,-2.0588,7.981
11.569000,5.1543,-6.3411,-2.0320,8.421
11.570000,6.0619,-6.1650,-2.0167,8.878
11.570000,7.0786,-5.8460,-1.9427,9.384
11.570000,8.2080,-5.4042,-1.7228,9.977
11.571000,9.3733,-4.8736,-1.3734,10.654
11.574000,10.5240,-4.2553,-0.9442,11.391
11.579000,11.6332,-3.6169,-0.3632,12.188
11.584000,11.7331,-3.0203,0.3930,12.122
11.589000,13.5855,-2.5463,1.3381,13.887
11.593000,14.3243,-2.2281,2.3797,14.691
11.598000,14.8447,-2.0473,3.4471,15.377
11.654000,15.1350,-1.9615,4.4309,15.892
11.655000,15.1687,-1.9087,5.2510,16.165
11.655000,14.9597,-1.8631,5.7946,16.151
11.656000,14.5437,-1.7815,6.0257,15.843
11.656000,13.9854,-1.6344,5.9256,15.277
11.656000,13.3329,-1.4375,5.5288,14.505
11.657000,12.6649,-1.1710,4.8701,13.619
11.657000,12.0561,-0.8283,4.0394,12.742
11.657000,11.5212,-0.4489,3.1194,11.944
11.657000,11.0387,-0.0699,2.2331,11.263
11.658000,10.5899,0.2571,1.4673,10.694
11.658000,10.1602,0.5270,0.8959,10.213
11.665000,9.6831,0.7423,0.5136,9.725
11.669000,9.1828,0.9152,0.2598,9.232
11.674000,8.6720,1.0621,0.0691,8.737
11.679000,8.1531,1.1568,-0.0756,8.235
11.683000,7.6407,1.1871,-0.1268,7.733
11.690000,7.1067,1.1337,-0.1099,7.197
11.695000,6.5111,0.9799,-0.0707,6.585
11.698000,5.8761,0.7404,-0.0387,5.923
11.792000,5.1834,0.4540,-0.0046,5.203
11.793000,4.4411,0.1236,0.0218,4.443
11.793000,4.3841,-0.2308,0.0551,4.391
11.793000,2.9132,-0.5967,0.1231,2.976
11.794000,2.2089,-0.9401,0.2452,2.413
11.794000,1.5655,-1.2224,0.3804,2.022
11.794000,0.9687,-1.4721,0.5332,1.841
11.795000,0.3636,-1.6699,0.6442,1.826
11.795000,-0.2417,-1.8057,0.7344,1.964
11.795000,-0.8306,-1.8840,0.7877,2.204
11.796000,-1.3814,-1.8948,0.8164,2.483
11.796000,-1.8676,-1.8592,0.8641,2.773
11.797000,-1.9088,-1.8080,0.9118,2.783
11.797000,-2.8207,-1.7457,0.9527,3.451
11.797000,-3.2458,-1.6215,1.0008,3.764
11.797000,-3.6175,-1.4569,1.0518,4.039
11.798000,-3.9645,-1.2325,1.1224,4.301
11.798000,-4.2774,-0.9677,1.2031,4.548
11.799000,-4.5373,-0.6793,1.3229,4.775
11.799000,-4.7535,-0.3984,1.4547,4.987
11.804000,-4.9431,-0.1299,1.5843,5.192
11.809000,-5.0772,0.1311,1.7043,5.357
11.815000,-5.1870,0.3868,1.8096,5.507
11.820000,-5.2483,0.6351,1.8976,5.617
11.824000,-5.2614,0.8829,1.9970,5.697
11.830000,-5.2597,1.0917,2.0804,5.761
11.833000,-5.2121,1.2665,2.1645,5.784
11.927000,-5.1687,1.3977,2.2610,5.812
11.929000,-5.1294,1.5045,2.3837,5.853
11.930000,-5.0866,1.5630,2.5318,5.893
11.931000,-5.0380,1.5951,2.6835,5.927
11.932000,-4.9879,1.6290,2.8495,5.971
11.933000,-4.9339,1.6508,3.0130,6.012
11.934000,-4.8662,1.6796,3.1588,6.040
11.935000,-4.7940,1.6963,3.2963,6.060
11.936000,-4.6811,1.6893,3.4107,6.033
11.937000,-4.5112,1.6628,3.4994,5.947
11.938000,-4.2984,1.6385,3.5621,5.818
11.940000,-4.0451,1.6520,3.5965,5.659
11.941000,-3.7896,1.7033,3.5904,5.491
11.942000,-3.5104,1.7704,3.5484,5.296
11.943000,-3.1855,1.8344,3.4825,5.064
11.944000,-2.7943,1.8704,3.4073,4.787
11.945000,-2.3198,1.9095,3.3059,4.467
11.946000,-1.7651,1.9653,3.1762,4.131
11.946000,-1.2023,2.0159,2.9943,3.805
11.947000,-0.6269,2.0463,2.7751,3.505
11.948000,-0.0460,2.0423,2.5090,3.235
11.949000,0.5560,2.0198,2.1927,3.033
11.950000,1.2077,1.9858,1.8743,2.986
11.955000,1.8750,1.9401,1.5353,3.104
11.962000,2.5406,1.8799,1.1933,3.378
11.966000,3.2092,1.8098,0.8460,3.780
11.970000,3.8479,1.7699,0.4903,4.264
11.975000,4.4518,1.7432,0.1260,4.783
11.981000,5.0083,1.7579,-0.2656,5.314
11.984000,5.4973,1.7826,-0.6410,5.815
12.087000,5.9233,1.7932,-1.0167,6.272
12.090000,6.2622,1.7943,-1.3907,6.661
12.092000,6.5273,1.7787,-1.7831,6.996
12.093000,6.6973,1.7393,-2.1679,7.251
12.095000,6.8104,1.6858,-2.5545,7.466
12.096000,6.8499,1.6042,-2.9640,7.634
12.097000,6.8498,1.4685,-3.3752,7.776
12.097000,6.7926,1.3271,-3.7647,7.879
12.098000,6.6928,1.1920,-4.1164,7.947
12.099000,6.5456,1.0585,-4.4492,7.985
12.100000,6.3583,0.8933,-4.7989,8.016
12.101000,6.1574,0.6944,-5.1080,8.030
12.103000,5.9839,0.4595,-5.3842,8.063
12.104000,5.8302,0.2177,-5.6457,8.119
12.105000,5.6869,-0.0263,-5.9433,8.226
12.106000,5.5301,-0.2747,-6.2720,8.366
12.106000,5.3573,-0.5034,-6.6337,8.542
12.107000,5.1832,-0.7166,-7.0259,8.760
12.107000,5.0344,-0.8977,-7.4414,9.029
12.107000,4.9322,-1.0598,-7.8647,9.344
12.108000,4.8892,-1.1957,-8.3030,9.709
12.108000,4.8771,-1.3334,-8.7203,10.080
12.109000,4.9250,-1.4582,-9.1238,10.470
12.110000,5.0290,-1.5192,-9.5184,10.872
12.110000,5.2255,-1.5178,-9.8867,11.285
12.164000,5.4717,-1.4611,-10.2072,11.673
12.165000,5.6838,-1.3751,-10.4943,12.014
12.165000,5.7833,-1.3120,-10.7239,12.254
12.166000,5.7755,-1.3048,-10.8935,12.399
12.166000,5.6709,-1.3624,-11.0082,12.458
12.166000,5.5178,-1.4362,-11.0747,12.456
12.167000,5.3502,-1.4922,-11.0642,12.380
12.167000,5.2133,-1.4874,-10.9768,12.243
12.168000,5.1356,-1.4244,-10.7982,12.042
12.169000,5.1094,-1.3181,-10.5431,11.790
12.169000,5.1267,-1.2265,-10.1974,11.479
12.170000,5.1914,-1.1820,-9.7019,11.067
12.178000,5.3074,-1.2240,-9.1008,10.606
12.181000,5.4454,-1.3486,-8.4692,10.159
12.184000,5.5760,-1.5331,-7.8557,9.755
12.253000,5.6580,-1.7543,-7.3086,9.408
12.254000,5.6816,-2.0031,-6.8354,9.111
12.254000,5.6945,-2.2583,-6.4482,8.894
12.254000,5.7471,-2.5412,-6.1278,8.777
12.254000,5.8319,-2.8424,-5.8715,8.750
12.255000,5.9345,-3.1664,-5.6478,8.783
12.255000,6.0309,-3.4817,-5.4562,8.847
12.255000,6.1075,-3.7092,-5.3206,8.909
12.256000,6.1690,-3.8151,-5.2454,8.951
12.256000,6.1703,-3.7801,-5.2132,8.919
12.256000,6.1309,-3.5729,-5.2502,8.827
12.257000,6.0652,-3.1718,-5.3744,8.702
12.257000,5.9855,-2.6124,-5.4853,8.529
12.257000,5.8794,-1.9381,-5.5295,8.301
12.262000,5.7467,-1.2450,-5.4403,8.011
12.265000,5.6518,-0.6007,-5.1801,7.690
12.277000,5.6042,-0.0658,-4.7427,7.342
12.278000,5.5743,0.3660,-4.1840,6.979
12.282000,5.5316,0.6601,-3.5371,6.599
12.284000,5.4803,0.8133,-2.8794,6.244
12.368000,5.4158,0.8129,-2.2194,5.909
12.369000,5.2976,0.6609,-1.6369,5.584
12.370000,5.1215,0.3766,-1.1876,5.271
12.370000,4.8926,0.0007,-0.9263,4.980
12.370000,4.6291,-0.4298,-0.8147,4.720
12.371000,4.3742,-0.8857,-0.7849,4.531
12.371000,4.1116,-1.3829,-0.8317,4.417
12.372000,3.8592,-1.8939,-0.9332,4.399
12.372000,3.6273,-2.4179,-1.0578,4.486
12.373000,3.4329,-2.9232,-1.1667,4.657
12.373000,3.2676,-3.4015,-1.2390,4.877
12.373000,3.1291,-3.8144,-1.2720,5.095
12.374000,3.0131,-4.1544,-1.3140,5.298
12.374000,2.9364,-4.4307,-1.3650,5.488
12.374000,2.9035,-4.6030,-1.4320,5.627
12.375000,2.8837,-4.6589,-1.5367,5.691
12.375000,2.8596,-4.5822,-1.6739,5.655
12.375000,2.8497,-4.3923,-1.8313,5.547
12.381000,2.8345,-4.1086,-1.9869,5.372
12.391000,2.7991,-3.8106,-2.1283,5.185
12.394000,2.7163,-3.5251,-2.2003,4.964
12.395000,2.6416,-3.2661,-2.2075,4.745
12.400000,2.5670,-3.0292,-2.1571,4.519
12.484000,2.5186,-2.7886,-2.0657,4.288
12.486000,2.5033,-2.5685,-1.9455,4.080
12.486000,2.5108,-2.3720,-1.7987,3.894
12.487000,2.5292,-2.1944,-1.6353,3.726
12.487000,2.5581,-2.0555,-1.4673,3.595
12.487000,2.5471,-1.9700,-1.3138,3.478
12.488000,2.5150,-1.9238,-1.1724,3.376
12.488000,2.4451,-1.9051,-1.0478,3.272
12.488000,2.3418,-1.9075,-0.9350,3.162
12.489000,2.2227,-1.9518,-0.8343,3.073
12.489000,2.0945,-2.0217,-0.7527,3.007
12.490000,1.9240,-2.1578,-0.7214,2.980
12.490000,1.7069,-2.3432,-0.7093,2.985
12.490000,1.4693,-2.5565,-0.7351,3.039
12.491000,1.2100,-2.8108,-0.7703,3.156
12.491000,0.9386,-3.0965,-0.8078,3.335
12.491000,0.6530,-3.4203,-0.8425,3.583
12.492000,0.3369,-3.7532,-0.8746,3.868
12.495000,0.0001,-4.0730,-0.9086,4.173
12.502000,-0.3477,-4.3416,-0.9375,4.455
12.507000,-0.6553,-4.5576,-0.9591,4.703
12.511000,-0.9637,-4.7573,-0.9852,4.953
12.516000,-1.2416,-4.9165,-1.0208,5.173
12.601000,-1.5296,-5.0421,-1.0636,5.375
12.605000,-1.7963,-5.1317,-1.1375,5.555
12.606000,-2.0541,-5.1951,-1.2068,5.715
12.607000,-2.3045,-5.2404,-1.2739,5.865
12.608000,-2.5598,-5.2848,-1.3364,6.022
12.609000,-2.7959,-5.3087,-1.3896,6.159
12.610000,-3.0249,-5.2904,-1.4264,6.259
12.611000,-3.2303,-5.2522,-1.4420,6.332
12.612000,-3.4068,-5.1760,-1.4343,6.360
12.613000,-3.5476,-5.1152,-1.4033,6.381
12.614000,-3.6672,-5.0745,-1.3467,6.404
12.615000,-3.7012,-5.0611,-1.2812,6.400
12.616000,-3.9008,-5.0725,-1.2499,6.520
12.617000,-4.0270,-5.0685,-1.2166,6.587
12.618000,-4.1344,-5.0623,-1.1933,6.644
12.620000,-4.2451,-5.0354,-1.1919,6.693
12.621000,-4.3446,-4.9901,-1.2050,6.725
12.622000,-4.4284,-4.9530,-1.2205,6.755
12.624000,-4.5038,-4.9050,-1.2505,6.775
12.625000,-4.5538,-4.8694,-1.2807,6.789
12.625000,-4.6001,-4.8322,-1.3374,6.804
12.631000,-4.6525,-4.7863,-1.3989,6.820
12.635000,-4.6821,-4.7052,-1.4772,6.800
12.715000,-4.7323,-4.5964,-1.5818,6.784
12.716000,-4.7697,-4.4556,-1.6789,6.739
12.716000,-4.8014,-4.3109,-1.7566,6.688
12.716000,-4.8371,-4.1940,-1.8318,6.659
12.716000,-4.8601,-4.0786,-1.9068,6.625
12.717000,-4.8584,-4.0005,-1.9890,6.600
12.717000,-4.8681,-3.8981,-2.0739,6.572
12.717000,-4.8768,-3.7874,-2.1424,6.536
12.718000,-4.8872,-3.6833,-2.2044,6.505
12.718000,-4.8872,-3.6050,-2.2478,6.476
12.718000,-4.8794,-3.5595,-2.2679,6.452
12.719000,-4.8708,-3.5614,-2.2529,6.441
12.719000,-4.8760,-3.5679,-2.2077,6.433
12.719000,-4.8851,-3.5594,-2.1398,6.412
12.719000,-4.9173,-3.5457,-2.0661,6.405
12.720000,-4.9917,-3.5296,-1.9653,6.422
12.720000,-5.1081,-3.5133,-1.8640,6.474
12.725000,-5.2378,-3.5399,-1.7624,6.563
12.727000,-5.3615,-3.5799,-1.6771,6.661
12.731000,-5.4888,-3.6120,-1.6083,6.765
12.815000,-5.6198,-3.6097,-1.5581,6.859
12.816000,-5.7711,-3.5802,-1.5196,6.959
12.817000,-5.9475,-3.5616,-1.4928,7.091
12.817000,-6.1226,-3.5563,-1.4657,7.231
12.818000,-6.2749,-3.5658,-1.4214,7.356
12.818000,-6.4187,-3.5831,-1.3765,7.479
12.819000,-6.5376,-3.5960,-1.3238,7.578
12.819000,-6.7319,-3.5114,-1.2104,7.689
12.820000,-6.7219,-3.5470,-1.2275,7.699
12.820000,-6.7853,-3.4949,-1.2026,7.727
12.820000,-6.8600,-3.4480,-1.1858,7.769
12.821000,-6.9435,-3.4016,-1.1818,7.822
12.821000,-7.0430,-3.3797,-1.1882,7.902
12.821000,-7.1658,-3.3771,-1.2307,8.017
12.822000,-7.3574,-3.4081,-1.2877,8.210
12.822000,-7.5485,-3.4242,-1.3180,8.393
12.822000,-7.7582,-3.4373,-1.3504,8.592
12.823000,-7.9794,-3.4662,-1.3775,8.808
12.878000,-8.1571,-3.5297,-1.3992,8.997
12.879000,-8.3129,-3.6323,-1.3746,9.175
12.879000,-8.4494,-3.7497,-1.3371,9.340
12.879000,-8.5498,-3.9152,-1.2962,9.492
12.879000,-8.6452,-4.1594,-1.2230,9.671
12.880000,-8.7165,-4.4578,-1.1418,9.857
12.880000,-8.8330,-4.7476,-1.0957,10.088
12.880000,-8.9776,-5.0256,-1.0727,10.344
12.880000,-9.1046,-5.2764,-1.0469,10.575
12.880000,-9.1543,-5.5404,-1.0014,10.747
12.881000,-9.1239,-5.8168,-0.9320,10.860
12.881000,-9.0585,-6.1193,-0.8798,10.967
12.887000,-8.9292,-6.3661,-0.8163,10.997
12.892000,-8.7547,-6.5998,-0.7325,10.988
12.897000,-8.5058,-6.7864,-0.5904,10.897
12.901000,-8.1297,-6.9459,-0.4594,10.703
12.908000,-7.6044,-7.0826,-0.3545,10.398
12.911000,-6.8605,-7.1588,-0.2610,9.919
12.916000,-5.8882,-7.1826,-0.1695,9.289
13.018000,-4.7619,-7.1674,-0.0892,8.606
13.019000,-3.5386,-7.1497,0.0106,7.978
13.019000,-2.2694,-7.1686,0.1398,7.521
13.020000,-0.9418,-7.2626,0.2744,7.329
13.020000,0.4340,-7.4355,0.3931,7.458
13.020000,1.8222,-7.6617,0.5202,7.893
13.021000,3.1653,-7.9320,0.6316,8.564
13.021000,4.4243,-8.2439,0.6561,9.379
13.021000,5.5780,-8.5535,0.5482,10.226
13.021000,6.6147,-8.8609,0.3732,11.064
13.022000,7.5224,-9.1297,0.1698,11.831
13.022000,8.2943,-9.3262,-0.0376,12.481
13.023000,8.9171,-9.4440,-0.2420,12.991
13.023000,9.4788,-9.4555,-0.4377,13.396
13.023000,10.0499,-9.3234,-0.6027,13.722
13.024000,10.6206,-9.0403,-0.7028,13.965
13.024000,11.1644,-8.6353,-0.6965,14.131
13.024000,11.6269,-8.0864,-0.5762,14.174
13.025000,12.0544,-7.4176,-0.3436,14.158
13.025000,12.4611,-6.6503,-0.0005,14.125
13.026000,12.8006,-5.8315,0.4872,14.075
13.026000,13.0694,-5.0077,1.1221,14.041
13.033000,13.2545,-4.2017,1.8897,14.032
13.037000,13.3293,-3.4425,2.7397,14.037
13.043000,13.2649,-2.7043,3.5976,14.008
13.047000,13.0756,-1.9654,4.3744,13.927
13.053000,12.7532,-1.1859,5.0586,13.771
13.058000,12.3659,-0.3375,5.6480,13.599
13.062000,11.9446,0.6015,6.1430,13.445
13.067000,11.5062,1.5597,6.5546,13.334
13.161000,11.0986,2.5376,6.9211,13.324
13.164000,10.7569,3.5013,7.2633,13.443
13.166000,10.4996,4.4359,7.5896,13.694
13.167000,10.3141,5.3265,7.8844,14.033
13.168000,10.1523,6.1540,8.1299,14.389
13.169000,9.9659,6.8861,8.2901,14.679
13.172000,9.6882,7.4681,8.3429,14.807
13.173000,9.3028,7.9124,8.2919,14.762
13.174000,8.8054,8.1785,8.1675,14.530
13.174000,8.2159,8.3103,7.9188,14.116
13.175000,7.5189,8.3135,7.4527,13.461
13.177000,6.7825,8.2372,6.8530,12.681
13.178000,5.9959,8.1138,6.2043,11.844
13.179000,5.1771,7.9277,5.5671,10.984
13.182000,4.3654,7.7183,4.9513,10.156
13.183000,3.5738,7.5010,4.4004,9.402
13.183000,2.8157,7.3175,3.8950,8.755
13.184000,2.1204,7.1660,3.4329,8.224
13.184000,1.5289,7.0564,2.9998,7.819
13.185000,1.0392,6.9748,2.5979,7.515
13.186000,0.6441,6.9237,2.2155,7.298
13.186000,0.3075,6.8505,1.8431,7.101
13.187000,-0.0084,6.7747,1.4713,6.933
13.187000,-0.2659,6.7370,1.1339,6.837
13.258000,-0.4745,6.7325,0.8337,6.801
13.259000,-0.6324,6.7325,0.5446,6.784
13.259000,-0.7781,6.7175,0.2668,6.768
13.259000,-0.9069,6.6686,-0.0087,6.730
13.260000,-1.0597,6.5931,-0.2648,6.683
13.260000,-1.2293,6.4913,-0.4961,6.625
13.260000,-1.4228,6.4015,-0.7073,6.596
13.261000,-1.6136,6.3217,-0.9099,6.588
13.261000,-1.7922,6.2711,-1.1133,6.616
13.261000,-1.9583,6.2356,-1.2911,6.662
13.262000,-2.0950,6.2153,-1.4218,6.711
13.262000,-2.2000,6.2007,-1.5199,6.753
13.262000,-2.2781,6.1726,-1.5592,6.762
13.263000,-2.3150,6.1501,-1.5638,6.755
13.263000,-2.3347,6.1114,-1.5413,6.721
13.267000,-2.3538,6.0663,-1.5037,6.678
13.273000,-2.3890,6.0122,-1.4275,6.625
13.277000,-2.4285,5.9563,-1.3176,6.566
13.282000,-2.4816,5.8914,-1.1672,6.498
13.355000,-2.5173,5.8053,-0.9790,6.403
13.358000,-2.5448,5.7175,-0.7610,6.304
13.359000,-2.5450,5.6060,-0.5445,6.181
13.360000,-2.5395,5.4567,-0.3586,6.029
13.360000,-2.5115,5.2768,-0.2175,5.848
13.361000,-2.4537,5.1046,-0.0904,5.664
13.362000,-2.3589,4.9139,0.0158,5.451
13.362000,-2.2345,4.7478,0.1082,5.248
13.364000,-2.0731,4.5873,0.2155,5.039
13.364000,-1.8797,4.4107,0.3428,4.807
13.365000,-1.6425,4.2396,0.5163,4.576
13.366000,-1.3784,4.0786,0.7263,4.366
13.367000,-1.1260,3.8940,0.9777,4.170
13.367000,-0.8756,3.6641,1.2438,3.967
13.367000,-0.6249,3.3722,1.5197,3.751
13.368000,-0.3714,3.0352,1.8026,3.550
13.370000,-0.0935,2.6746,2.0879,3.394
13.410000,0.1873,2.3144,2.3441,3.299
13.411000,0.4545,1.9596,2.5762,3.269
13.411000,0.7488,1.6127,2.8320,3.344
13.412000,1.0609,1.2762,3.1162,3.531
13.412000,1.4216,0.9714,3.3998,3.811
13.412000,1.8068,0.7052,3.6759,4.156
13.412000,2.2043,0.4749,3.9251,4.527
13.413000,2.6426,0.2850,4.1668,4.942
13.413000,3.1335,0.1232,4.3790,5.386
13.417000,3.6360,-0.0421,4.5806,5.848
13.422000,4.1807,-0.2091,4.7834,6.356
13.428000,4.7624,-0.4025,4.9629,6.890
13.432000,5.3352,-0.6346,5.1006,7.408
13.441000,5.8867,-0.9490,5.2274,7.930
13.443000,6.4214,-1.3414,5.3574,8.470
13.448000,6.9681,-1.8453,5.4594,9.042
13.453000,7.5288,-2.4539,5.5315,9.659
13.533000,8.0723,-3.1792,5.5542,10.301
13.534000,8.5819,-3.9827,5.5338,10.961
13.534000,9.0263,-4.8428,5.4895,11.622
13.535000,9.4486,-5.7283,5.4127,12.304
13.535000,9.8344,-6.5939,5.3132,12.978
13.536000,10.1956,-7.4347,5.1366,13.624
13.536000,10.5200,-8.1963,4.8569,14.193
13.536000,10.7885,-8.8252,4.4975,14.646
13.537000,10.9602,-9.2886,3.9918,14.911
13.537000,10.9989,-9.5481,3.3174,14.938
13.538000,10.9519,-9.5894,2.5288,14.775
13.538000,10.8186,-9.4587,1.7228,14.473
13.538000,10.6304,-9.1929,0.9658,14.087
13.539000,10.3413,-8.8767,0.3275,13.632
13.539000,9.9727,-8.5364,-0.1967,13.129
13.540000,9.5489,-8.2081,-0.6164,12.607
13.540000,9.0865,-7.9111,-0.9550,12.086
13.542000,8.5633,-7.6632,-1.2098,11.555
13.547000,7.9972,-7.4870,-1.4402,11.049
13.552000,7.3355,-7.3638,-1.7228,10.536
13.557000,6.6079,-7.2883,-2.0357,10.046
13.562000,5.8560,-7.2452,-2.3384,9.605
13.567000,5.0684,-7.2059,-2.6549,9.201
13.635000,4.2330,-7.1439,-2.9863,8.824
13.636000,3.4007,-7.0377,-3.3214,8.493
13.636000,2.5489,-6.9079,-3.6185,8.204
13.636000,1.7387,-6.7278,-3.8631,7.950
13.637000,1.0120,-6.4824,-4.0359,7.703
13.637000,0.3882,-6.2012,-4.1534,7.474
13.637000,-0.1718,-5.8925,-4.2310,7.256
13.638000,-0.6727,-5.5575,-4.3089,7.064
13.638000,-1.1453,-5.2226,-4.3745,6.908
13.638000,-1.6016,-4.9168,-4.4174,6.801
13.638000,-2.0367,-4.6547,-4.3929,6.717
13.639000,-2.4296,-4.4756,-4.3066,6.669
13.639000,-2.8370,-4.3587,-4.1783,6.671
13.639000,-3.2954,-4.3071,-3.9889,6.732
13.643000,-3.7929,-4.3112,-3.7429,6.854
13.648000,-4.3464,-4.3633,-3.4373,7.053
13.661000,-4.9226,-4.4613,-3.0860,7.325
13.662000,-5.4759,-4.5860,-2.7238,7.644
13.662000,-5.9757,-4.7231,-2.3426,7.969
13.667000,-6.3986,-4.8454,-1.9269,8.254
13.672000,-6.8047,-4.9454,-1.5331,8.551
13.677000,-7.1946,-5.0198,-1.1693,8.850
13.684000,-7.5591,-5.0882,-0.8442,9.151
13.770000,-7.8701,-5.1243,-0.5706,9.409
13.771000,-8.1378,-5.1262,-0.3213,9.623
13.772000,-8.3844,-5.1179,-0.0758,9.823
13.772000,-8.6083,-5.0872,0.1789,10.001
13.772000,-8.8218,-5.0563,0.4289,10.177
13.773000,-9.0086,-5.0049,0.6773,10.328
13.773000,-9.1426,-4.9216,0.9071,10.423
13.774000,-9.2576,-4.8306,1.1089,10.501
13.774000,-9.3275,-4.7200,1.2657,10.530
13.774000,-9.3643,-4.6163,1.3822,10.531
13.775000,-9.3823,-4.5250,1.4844,10.522
13.775000,-9.3987,-4.4381,1.5606,10.510
13.775000,-9.4444,-4.3822,1.6056,10.535
13.775000,-9.5003,-4.3433,1.6337,10.573
13.776000,-9.5614,-4.3117,1.6420,10.616
13.776000,-9.6111,-4.2802,1.6160,10.645
13.777000,-9.6589,-4.2633,1.5316,10.669
13.777000,-9.6907,-4.2319,1.3821,10.664
13.779000,-9.6778,-4.1981,1.1841,10.615
13.783000,-9.5917,-4.1430,0.9428,10.491
13.788000,-9.5020,-4.0544,0.6584,10.352
13.794000,-9.4329,-3.9710,0.3384,10.240
13.798000,-9.3652,-3.8518,0.0093,10.126
13.803000,-9.2631,-3.7376,-0.3070,9.993
13.814000,-9.1078,-3.6192,-0.5961,9.819
13.815000,-8.8825,-3.4753,-0.8843,9.579
13.818000,-8.6087,-3.2992,-1.1527,9.291
13.909000,-8.3391,-3.1371,-1.3677,9.014
13.910000,-8.0901,-2.9944,-1.5560,8.766
13.911000,-7.8545,-2.8903,-1.7464,8.550
13.911000,-7.6562,-2.8275,-1.9151,8.383
13.912000,-7.5022,-2.8204,-2.0646,8.277
13.912000,-7.4425,-2.8474,-2.2286,8.274
13.913000,-7.4076,-2.9104,-2.3905,8.310
13.913000,-7.3851,-3.0138,-2.5413,8.371
13.913000,-7.3582,-3.1738,-2.6431,8.438
13.914000,-7.3359,-3.3754,-2.7568,8.533
13.914000,-7.3300,-3.6417,-2.9092,8.686
13.915000,-7.3235,-3.9361,-3.0668,8.862
13.915000,-7.3304,-4.2752,-3.2377,9.083
13.915000,-7.3791,-4.6412,-3.3626,9.343
13.916000,-7.5049,-5.0454,-3.4663,9.685
13.916000,-7.7025,-5.4816,-3.6141,10.121
13.916000,-7.8707,-5.9458,-3.7829,10.565
13.917000,-7.8943,-6.4330,-3.9588,10.926
13.917000,-7.6484,-6.8828,-4.1114,11.080
13.918000,-7.0559,-7.2554,-4.2246,10.967
13.924000,-6.0923,-7.5599,-4.2539,10.600
13.928000,-4.7328,-7.7607,-4.1621,9.998
13.933000,-3.0558,-7.8310,-4.0339,9.324
14.024000,-1.1736,-7.7169,-3.9185,8.734
14.025000,0.8897,-7.4338,-3.8428,8.415
14.026000,3.0400,-7.0506,-3.7329,8.537
14.026000,5.2480,-6.5480,-3.5430,9.109
14.027000,7.3999,-5.9405,-3.2465,10.029
14.027000,9.4522,-5.2438,-2.9711,11.210
14.027000,11.3670,-4.4388,-2.7362,12.506
14.028000,13.1029,-3.5145,-2.5214,13.798
14.028000,14.6132,-2.4759,-2.3642,15.009
14.029000,15.7270,-1.3778,-2.2617,15.948
14.029000,16.4122,-0.3055,-2.1609,16.557
14.030000,16.7095,0.6860,-2.0211,16.845
14.030000,16.6915,1.5530,-1.7882,16.859
14.031000,16.4232,2.2915,-1.4919,16.649
14.031000,15.9429,2.8798,-1.1501,16.242
14.031000,15.2819,3.3443,-0.7475,15.661
14.032000,14.4099,3.7102,-0.3285,14.884
14.032000,13.3294,4.0554,0.0644,13.933
14.032000,12.1201,4.3886,0.4327,12.897
14.034000,10.8400,4.7318,0.7591,11.852
14.042000,9.4988,5.0256,1.0623,10.799
14.044000,8.1253,5.3067,1.3612,9.800
14.048000,6.7942,5.5880,1.6725,8.955
14.138000,5.4930,5.8473,1.9718,8.261
14.139000,4.2649,6.1023,2.1852,7.759
14.140000,3.1841,6.3630,2.2795,7.471
14.140000,2.2524,6.6107,2.2820,7.347
14.140000,1.4477,6.8458,2.1291,7.314
14.141000,0.7481,7.0740,1.8396,7.347
14.141000,0.1430,7.2975,1.4721,7.446
14.141000,-0.4011,7.5124,1.0684,7.599
14.142000,-0.9395,7.6667,0.7421,7.760
14.142000,-1.4575,7.7801,0.5078,7.932
14.142000,-1.9546,7.8146,0.3549,8.063
14.143000,-2.4182,7.7856,0.3262,8.159
14.143000,-2.8260,7.7028,0.4208,8.216
14.143000,-3.1921,7.6024,0.5994,8.267
14.143000,-3.5135,7.5083,0.8586,8.334
14.144000,-3.7588,7.4230,1.1763,8.403
14.144000,-3.9538,7.2888,1.4980,8.426
14.144000,-4.0958,7.0776,1.8139,8.376
14.145000,-4.1557,6.7804,2.2194,8.256
14.148000,-4.1377,6.4002,2.7735,8.110
14.197000,-3.9912,5.9539,3.5204,7.986
14.198000,-3.6968,5.4274,4.4685,7.943
14.198000,-3.1947,4.8032,5.5888,8.032
14.198000,-2.4588,4.0256,6.8747,8.337
14.199000,-1.5614,3.0195,8.2523,8.925
14.199000,-0.5507,1.7603,9.5860,9.762
14.199000,0.5373,0.3622,10.7281,10.748
14.199000,1.6333,-1.1607,11.5702,11.742
14.200000,2.7179,-2.7369,12.0770,12.678
14.200000,3.7315,-4.3422,12.1683,13.448
14.209000,4.6002,-5.9472,11.8681,14.049
14.210000,5.3074,-7.5006,11.3511,14.604
14.214000,5.8444,-8.9343,10.7198,15.129
14.218000,6.2028,-10.1685,10.0727,15.599
14.258000,6.4122,-11.1328,9.2939,15.857
14.259000,6.5265,-11.6664,8.3427,15.758
14.259000,6.6776,-11.6665,7.2297,15.263
14.260000,6.9009,-11.1267,5.9971,14.401
14.260000,7.1903,-10.1278,4.7608,13.302
14.260000,7.5043,-8.8583,3.6196,12.161
14.260000,7.8096,-7.4834,2.5672,11.117
14.261000,8.1221,-6.0965,1.5930,10.280
14.265000,8.4625,-4.8052,0.7029,9.757
14.270000,8.8042,-3.6405,-0.1787,9.529
14.274000,9.0752,-2.6046,-1.1544,9.512
14.279000,9.1822,-1.7700,-2.2430,9.616
14.284000,9.0570,-1.1659,-3.4500,9.762
14.294000,8.5869,-0.8103,-4.7326,9.838
14.295000,7.7828,-0.6457,-6.0314,9.867
14.299000,6.7064,-0.6241,-7.2565,9.901
14.358000,5.4764,-0.6615,-8.3446,10.003
14.358000,4.2056,-0.6903,-9.2889,10.220
14.358000,2.9620,-0.6426,-10.0522,10.499
14.359000,1.8012,-0.4776,-10.5313,10.695
14.359000,0.7804,-0.2564,-10.8099,10.841
14.360000,-0.0898,-0.0148,-10.9260,10.926
14.360000,-0.8279,0.3587,-10.8621,10.899
14.361000,-1.5188,0.8565,-10.6384,10.780
14.361000,-2.0843,1.3396,-10.1681,10.466
14.361000,-2.4925,1.6858,-9.4111,9.880
14.362000,-2.7245,1.8987,-8.3797,9.014
14.362000,-2.8624,2.0292,-7.1952,8.005
14.364000,-2.8829,2.1241,-6.0170,7.002
14.369000,-2.8496,2.2147,-4.8853,6.074
14.374000,-2.7783,2.3020,-3.7973,5.238
14.380000,-2.7229,2.3555,-2.7498,4.530
14.385000,-2.7322,2.3235,-1.7421,3.987
14.393000,-2.8714,2.1559,-0.7681,3.672
14.397000,-3.1291,1.8282,0.1782,3.628
14.399000,-3.5148,1.3791,1.0852,3.929
14.497000,-4.0136,0.8668,1.8983,4.524
14.498000,-4.5582,0.3161,2.6445,5.279
14.499000,-5.0794,-0.2801,3.3101,6.069
14.499000,-5.5243,-0.9082,3.8363,6.787
14.499000,-5.8813,-1.5897,4.1689,7.382
14.500000,-6.2010,-2.3575,4.2374,7.872
14.500000,-6.5175,-3.1891,4.0749,8.322
14.500000,-6.8769,-4.0235,3.7290,8.797
14.501000,-7.2627,-4.8192,3.2490,9.302
14.501000,-7.7277,-5.5570,2.5694,9.859
14.501000,-8.2598,-6.2261,1.8013,10.499
14.502000,-8.8514,-6.8650,1.0741,11.253
14.502000,-9.4584,-7.5076,0.4133,12.083
14.503000,-10.0296,-8.1542,-0.1369,12.927
14.503000,-10.4989,-8.8336,-0.5590,13.732
14.504000,-10.8296,-9.5226,-0.8473,14.446
14.504000,-10.9703,-10.1844,-1.0058,15.003
14.505000,-10.9395,-10.7751,-1.0287,15.389
14.505000,-10.7910,-11.2538,-0.8821,15.616
14.506000,-10.4947,-11.5649,-0.6537,15.631
14.506000,-10.0044,-11.6447,-0.4547,15.359
14.510000,-9.2408,-11.4025,-0.3589,14.681
14.516000,-8.1709,-10.8473,-0.3962,13.586
14.526000,-6.8032,-10.0797,-0.5935,12.175
14.527000,-5.1796,-9.1684,-0.8859,10.568
14.530000,-3.3796,-8.1705,-1.2207,8.926
14.536000,-1.4380,-7.1118,-1.5842,7.427
14.641000,0.5783,-5.9827,-1.9765,6.327
14.644000,2.5974,-4.7311,-2.3740,5.896
14.646000,4.4929,-3.3813,-2.7423,6.256
14.648000,6.1515,-1.9944,-3.0451,7.148
14.650000,7.5711,-0.6292,-3.2520,8.264
14.652000,8.7609,0.6273,-3.3252,9.392
14.653000,9.7463,1.7332,-3.2755,10.427
14.656000,10.4890,2.6394,-3.0924,11.249
14.657000,10.9488,3.3530,-2.8045,11.789
14.659000,11.1345,3.8964,-2.4831,12.055
14.660000,11.0730,4.2542,-2.1550,12.056
14.661000,10.8115,4.4712,-1.8672,11.848
14.662000,10.3943,4.5865,-1.6546,11.481
14.663000,9.8344,4.6510,-1.5229,10.985
14.664000,9.1423,4.6756,-1.4389,10.369
14.665000,8.3491,4.7031,-1.3891,9.683
14.665000,7.4961,4.7275,-1.3967,8.972
14.666000,6.6261,4.7682,-1.4300,8.288
14.666000,5.7604,4.8592,-1.4382,7.672
14.666000,4.8892,4.9696,-1.4658,7.124
14.667000,3.9982,5.0718,-1.4780,6.625
14.667000,3.1061,5.1564,-1.4954,6.203
14.668000,2.2607,5.2173,-1.4590,5.870
14.668000,1.4973,5.2572,-1.3052,5.620
14.669000,0.8373,5.2813,-1.0189,5.444
14.670000,0.3138,5.2805,-0.6304,5.327
14.670000,-0.0424,5.2401,-0.1257,5.242
14.675000,-0.2507,5.1576,0.4975,5.188
14.683000,-0.3447,5.0114,1.1550,5.154
14.691000,-0.3698,4.8803,1.7694,5.204
14.694000,-0.3115,4.7710,2.3331,5.320
14.695000,-0.1868,4.6715,2.8387,5.469
14.700000,-0.0361,4.5453,3.2703,5.600
14.796000,0.0956,4.3472,3.6039,5.648
14.798000,0.2446,4.0895,3.9247,5.673
14.798000,0.4450,3.7748,4.3059,5.743
14.803000,0.6922,3.4004,4.7652,5.895
14.807000,0.9580,2.9162,5.2987,6.124
14.808000,1.2474,2.2716,5.8491,6.398
14.808000,1.5369,1.4861,6.3822,6.731
14.810000,1.8099,0.5767,6.8875,7.145
14.811000,2.0361,-0.3891,7.3406,7.628
14.812000,2.2542,-1.3243,7.6939,8.126
14.813000,2.4699,-2.1850,7.9307,8.589
14.814000,2.7290,-2.9729,8.1334,9.080
14.815000,3.0104,-3.6277,8.2834,9.531
14.816000,3.3068,-4.1324,8.4530,9.973
14.816000,3.6042,-4.4683,8.7017,10.425
14.817000,3.8644,-4.6572,8.9066,10.768
14.818000,4.1232,-4.6829,9.0033,10.954
14.821000,4.3657,-4.5581,9.0352,11.021
14.822000,4.6249,-4.2984,8.9710,10.970
14.823000,4.8786,-3.9333,8.8134,10.814
14.824000,5.1284,-3.4713,8.5126,10.527
14.824000,5.3280,-2.9781,8.0593,10.110
14.825000,5.5262,-2.4498,7.5225,9.650
14.826000,5.7674,-1.9380,6.9433,9.232
14.826000,5.9780,-1.5328,6.3537,8.858
14.835000,6.1326,-1.2735,5.6714,8.450
14.837000,6.1743,-1.1474,4.8330,7.924
14.840000,6.1087,-1.1113,3.8280,7.294
14.845000,5.9179,-1.1082,2.6753,6.588
14.851000,5.5748,-1.1616,1.4186,5.869
14.931000,5.1009,-1.2271,0.1035,5.247
14.933000,4.5495,-1.3079,-1.2006,4.884
14.934000,3.9332,-1.4099,-2.4399,4.839
14.934000,3.2944,-1.5130,-3.5120,5.047
14.935000,2.6147,-1.6114,-4.3495,5.325
14.936000,1.8694,-1.6989,-4.9842,5.588
14.937000,1.0870,-1.7713,-5.4242,5.809
14.937000,0.2881,-1.8231,-5.6784,5.971
14.938000,-0.4952,-1.8589,-5.7306,6.045
14.939000,-1.1823,-1.8618,-5.5888,6.008
14.940000,-1.7546,-1.7953,-5.3478,5.908
14.940000,-2.1483,-1.6357,-5.1070,5.777
14.941000,-2.2963,-1.3763,-4.8189,5.513
14.942000,-2.2489,-1.0597,-4.5150,5.154
14.942000,-2.1300,-0.7365,-4.2388,4.801
14.943000,-1.9856,-0.3795,-3.9943,4.477
14.944000,-1.8539,-0.0255,-3.7924,4.221
14.945000,-1.7423,0.3036,-3.6217,4.030
14.946000,-1.6135,0.5442,-3.4363,3.835
14.997000,-1.4726,0.6751,-3.1919,3.579
14.997000,-1.3923,0.6928,-2.9405,3.326
14.998000,-1.4402,0.5894,-2.7455,3.156
14.998000,-1.6401,0.4443,-2.5793,3.089
14.998000,-1.9541,0.3081,-2.4739,3.168
14.998000,-2.4014,0.1544,-2.3612,3.371
14.999000,-2.9220,-0.0337,-2.2438,3.684
14.999000,-3.5113,-0.2630,-2.1448,4.123
14.999000,-4.1625,-0.5517,-2.0722,4.682
15.001000,-4.8255,-0.8964,-1.8908,5.260
15.003000,-5.4766,-1.3257,-1.6387,5.868
15.012000,-6.1135,-1.8400,-1.3845,6.533
15.015000,-6.7026,-2.4294,-1.1690,7.225
15.016000,-7.1893,-3.0909,-0.9821,7.887
15.078000,-7.6193,-3.8308,-0.8213,8.568
15.079000,-8.0857,-4.6506,-0.7417,9.357
15.080000,-8.6337,-5.5347,-0.7221,10.281
15.081000,-9.2768,-6.4322,-0.7318,11.312
15.081000,-9.9761,-7.2814,-0.7453,12.373
15.082000,-10.6350,-8.0203,-0.7876,13.343
15.083000,-11.1216,-8.6021,-0.8207,14.084
15.083000,-11.0917,-9.0426,-0.8332,14.335
15.084000,-11.2943,-9.3945,-0.7721,14.711
15.085000,-10.9162,-9.6630,-0.6856,14.595
15.085000,-10.4196,-9.8919,-0.5806,14.379
15.086000,-9.8404,-10.0672,-0.4978,14.087
15.086000,-9.1974,-10.1360,-0.4920,13.696
15.087000,-8.4330,-10.0186,-0.6151,13.110
15.093000,-7.5007,-9.7428,-0.7905,12.321
15.096000,-6.3103,-9.3230,-1.0450,11.306
15.101000,-4.8396,-8.7609,-1.3951,10.105
15.150000,-3.1621,-8.0366,-1.7976,8.821
15.151000,-1.3487,-7.1929,-2.2147,7.646
15.151000,0.5635,-6.2311,-2.5273,6.748
15.151000,2.4552,-5.1631,-2.7107,6.327
15.152000,4.2800,-4.0151,-2.7381,6.476
15.153000,5.9536,-2.8358,-2.6511,7.107
15.153000,7.3973,-1.6353,-2.4396,7.959
15.153000,8.5804,-0.4683,-2.1515,8.858
15.153000,9.4653,0.6132,-1.8649,9.667
15.154000,10.0435,1.5677,-1.6255,10.294
15.157000,10.3207,2.3442,-1.5008,10.689
15.163000,10.2814,2.9450,-1.4762,10.796
15.168000,9.9386,3.3799,-1.5564,10.612
15.180000,9.2723,3.6793,-1.7620,10.130
15.181000,8.3604,3.8507,-2.0761,9.436
15.183000,7.3025,3.9250,-2.4848,8.655
15.272000,6.1472,3.8993,-2.9550,7.856
15.273000,4.9072,3.8277,-3.4125,7.098
15.273000,3.6978,3.7287,-3.8039,6.484
15.273000,2.5503,3.6126,-4.0930,6.026
15.273000,1.4738,3.5213,-4.3287,5.771
15.274000,0.4966,3.4820,-4.5472,5.749
15.274000,-0.3587,3.4830,-4.7030,5.863
15.274000,-1.0979,3.5177,-4.7698,6.027
15.274000,-1.7196,3.5627,-4.7121,6.153
15.275000,-2.1723,3.6033,-4.4949,6.157
15.275000,-2.4641,3.5990,-4.1264,6.004
15.275000,-2.6364,3.5638,-3.5846,5.701
15.276000,-2.7354,3.5166,-2.9025,5.317
15.276000,-2.8258,3.4621,-2.1302,4.951
15.276000,-2.9154,3.4231,-1.2751,4.674
15.276000,-3.0018,3.3661,-0.3158,4.521
15.277000,-3.0896,3.3170,0.6873,4.585
15.277000,-3.1501,3.2586,1.6714,4.831
15.277000,-3.2045,3.1619,2.6857,5.242
15.282000,-3.2256,3.0079,3.7096,5.763
15.287000,-3.2385,2.7724,4.6779,6.329
15.292000,-3.2472,2.4177,5.6419,6.944
15.297000,-3.2170,1.9419,6.5971,7.592
15.302000,-3.1064,1.2977,7.5557,8.272
15.307000,-2.8502,0.4733,8.5158,8.993
15.311000,-2.4097,-0.5618,9.4423,9.761
15.317000,-1.7939,-1.8289,10.2471,10.562
15.420000,-1.0746,-3.3153,10.8940,11.438
15.421000,-0.3252,-4.9147,11.4044,12.423
15.422000,0.3952,-6.4893,11.7593,13.437
15.422000,1.0635,-7.9257,12.0746,14.482
15.423000,1.6681,-9.1016,12.3526,15.434
15.423000,2.1287,-9.9166,12.5305,16.121
15.424000,2.5034,-10.2993,12.4476,16.349
15.424000,2.8859,-10.2265,12.0901,16.096
15.424000,3.3788,-9.6683,11.4918,15.393
15.425000,4.0249,-8.6957,10.7344,14.389
15.425000,4.8147,-7.4861,9.8103,13.246
15.426000,5.6623,-6.2715,8.8479,12.234
15.426000,6.4575,-5.1737,7.9373,11.466
15.426000,7.0826,-4.2672,7.0633,10.875
15.427000,7.5231,-3.5349,6.1655,10.349
15.427000,7.8507,-2.9523,5.1613,9.848
15.428000,8.1311,-2.4399,3.9921,9.381
15.428000,8.4095,-1.9155,2.6360,9.019
15.428000,8.6541,-1.4090,1.1008,8.837
15.429000,8.7406,-0.9351,-0.6173,8.812
15.429000,8.5723,-0.5484,-2.4436,8.931
15.429000,8.0900,-0.2675,-4.2498,9.142
15.433000,7.2781,-0.0853,-5.9284,9.387
15.438000,6.0959,-0.0582,-7.4918,9.659
15.442000,4.6164,-0.1075,-8.8958,10.023
15.448000,2.9560,-0.1404,-10.0517,10.478
15.452000,1.2738,-0.0986,-10.8725,10.947
15.457000,-0.2406,-0.0253,-11.5598,11.562
15.463000,-1.4778,0.0472,-12.1158,12.206
15.467000,-2.3565,0.2875,-12.3956,12.621
15.577000,-2.9650,0.8108,-12.4313,12.806
15.579000,-3.4013,1.4754,-12.3531,12.897
15.579000,-3.6700,2.0480,-12.0570,12.769
15.580000,-3.6864,2.4591,-11.3706,12.204
15.580000,-3.5211,2.6439,-10.3065,11.208
15.581000,-3.2686,2.6358,-9.0035,9.935
15.581000,-2.9877,2.4948,-7.6518,8.585
15.582000,-2.6707,2.2998,-6.2347,7.162
15.582000,-2.4187,2.0726,-4.8130,5.772
15.582000,-2.3146,1.7870,-3.4319,4.509
15.583000,-2.4091,1.3959,-2.1772,3.535
15.583000,-2.7525,0.8679,-1.0748,3.080
15.584000,-3.3465,0.1512,-0.1237,3.352
15.584000,-4.1832,-0.7628,0.7221,4.313
15.584000,-5.2134,-1.8132,1.4949,5.719
15.585000,-6.4123,-2.9288,2.1835,7.380
15.585000,-7.7929,-4.0708,2.7071,9.199
15.586000,-9.2463,-5.1739,2.9831,11.007
15.586000,-10.6264,-6.1590,3.0563,12.657
15.587000,-10.6037,-6.9887,2.9492,13.038
15.587000,-11.7035,-7.6978,2.6187,14.251
15.588000,-12.5076,-8.3065,2.0875,15.159
15.588000,-13.0894,-8.7899,1.5307,15.841
15.590000,-13.5456,-9.1997,1.0408,16.407
15.688000,-13.9646,-9.5825,0.6680,16.949
15.689000,-14.3460,-10.0130,0.4176,17.500
15.690000,-14.6935,-10.4532,0.2647,18.034
15.690000,-14.8787,-10.7767,0.1941,18.373
15.691000,-14.7711,-10.8554,0.1857,18.332
15.691000,-14.2498,-10.6415,0.2438,17.786
15.692000,-13.2682,-10.1477,0.3071,16.707
15.692000,-9.7920,-9.4847,0.3358,13.637
15.693000,-7.2566,-8.7399,0.3495,11.365
15.693000,-4.3614,-7.9254,0.3515,9.053
15.693000,-1.2214,-7.0027,0.3063,7.115
15.694000,1.9917,-5.9208,0.1499,6.249
