SensorId, TimeStamp (s), FrameNumber, AccX (g), AccY (g), AccZ (g), GyroX (deg/s), GyroY (deg/s), GyroZ (deg/s), MagX (uT), MagY (uT), MagZ (uT), EulerX (deg), EulerY (deg), EulerZ (deg), QuatW, QuatX, QuatY, QuatZ, LinAccX (g), LinAccY (g), LinAccZ (g), Pressure (kPa), Altitude (m), Temperature (degC), HeaveMotion (m)
1, 0.0002, 0, 0.34533691, -0.86376953, 0.15893555, 12.73016167, 6.87804890, 13.99016190, -19.70184135, 6.78164291, -52.99620056, 100.58186340, 33.22192001, -146.50337219, -0.03416668, -0.38732886, 0.65329063, 0.64963090, 0.20283118, 0.04157513, -0.00561251, 100.29300690, 86.26172638, 29.31999969, 0.00000000
1, -0.0001, 0, -0.24909927, -0.93728399, 0.19270396, -13.63287258, -13.43079853, -131.64155579, -27.15580177, 5.55393171, -60.01169205, 100.12307739, -3.88627315, -7.90303946, -0.64186192, 0.76297164, -0.07452282, -0.01827753, 0.17797607, -0.04494707, -0.01922614, 100.41700745, 75.85894775, 30.21999931, 0.00000000
1, 0.0052, 1, 0.34710693, -0.87805176, 0.14904785, 11.75016117, 6.24804926, 15.56516266, -19.70184135, 6.78164291, -52.99620056, 100.65132141, 33.13966751, -146.48381042, -0.03374595, -0.38704461, 0.65389585, 0.64921337, 0.19988155, 0.05528958, 0.00543760, 100.29300690, 86.26172638, 29.31999969, 0.00000000
1, 0.0102, 2, 0.34716797, -0.88861084, 0.14581299, 10.77015972, 5.79304934, 16.93016243, -19.40952873, 6.66471767, -52.32388306, 100.71348572, 33.05111694, -146.46858215, -0.03328297, -0.38670960, 0.65449512, 0.64883292, 0.19854674, 0.06520621, 0.00975024, 100.29300690, 86.26172638, 29.31999969, 0.00000000
1, 0.0152, 3, 0.34783936, -0.89739990, 0.15069580, 9.26515961, 5.44304895, 18.08516121, -19.40952873, 6.66471767, -52.32388306, 100.76623535, 32.95719910, -146.45678711, -0.03277185, -0.38633358, 0.65507025, 0.64850247, 0.19652036, 0.07327975, 0.00582343, 100.29300690, 86.26172638, 29.31999969, 0.00000000
1, 0.0949, 1, -0.09417687, -0.93534327, 0.08495376, -6.21609259, -17.76997185, -104.74407196, -19.23414230, 8.76936531, -60.91785812, 98.98328400, 7.58469629, -7.47742987, -0.64347839, 0.75983304, -0.00659791, -0.09244320, 0.22366726, -0.04416224, 0.06824812, 100.41700745, 75.85894775, 30.21999931, 0.00000000
1, 0.0999, 2, -0.08084061, -0.91599762, 0.08262005, -5.48879671, -18.55217552, -102.35336304, -19.23414230, 8.76936531, -60.91785812, 98.95281982, 8.10457897, -7.49025965, -0.64324409, 0.75961798, -0.00370830, -0.09593704, 0.21937825, -0.06237930, 0.06991838, 100.41700745, 75.85894775, 30.21999931, 0.00000000
1, 0.0202, 4, 0.35186768, -0.90020752, 0.15032959, 7.51515913, 5.51304865, 18.99516296, -20.49108505, 7.07395506, -52.64542389, 100.80983734, 32.85874176, -146.44570923, -0.03220346, -0.38593575, 0.65561068, 0.64822161, 0.19106641, 0.07530518, 0.00701874, 100.29300690, 86.26172638, 29.31999969, 0.00000000
1, 0.0252, 5, 0.35607910, -0.90209961, 0.15179443, 6.15015841, 5.89804888, 19.87016487, -20.49108505, 7.07395506, -52.64542389, 100.84722137, 32.75562286, -146.43345642, -0.03157629, -0.38552529, 0.65612727, 0.64797401, 0.18536049, 0.07635708, 0.00629483, 100.29300690, 86.26172638, 29.31999969, 0.00000000
1, 0.1049, 3, -0.07436231, -0.89929366, 0.08584528, -3.91741419, -18.49636841, -99.74313354, -18.24028015, 7.89242887, -60.68400955, 98.92758179, 8.60232067, -7.50615406, -0.64297748, 0.75942010, -0.00096726, -0.09929893, 0.22162630, -0.07791167, 0.06609194, 100.41700745, 75.85894775, 30.21999931, 0.00000000
1, 0.1099, 4, -0.07343664, -0.89449728, 0.08891378, -2.45438933, -18.20786095, -96.70534515, -18.24028015, 7.89242887, -60.68400955, 98.91165161, 9.09405231, -7.52212477, -0.64264119, 0.75926203, 0.00173230, -0.10261875, 0.22916573, -0.08147819, 0.06251521, 100.41700745, 75.85894775, 30.21999931, 0.00000000
1, 0.1149, 5, -0.07702830, -0.89677918, 0.07150703, -1.12596786, -18.42212486, -93.08192444, -18.24028015, 7.89242887, -60.68400955, 98.90163422, 9.56807041, -7.54210854, -0.64226538, 0.75912732, 0.00430018, -0.10584226, 0.24104622, -0.07787762, 0.07950567, 100.41700745, 75.85894775, 30.21999931, 0.00000000
1, 0.1199, 6, -0.07944278, -0.90506589, 0.07621058, 0.30705351, -18.33550072, -88.89184570, -16.92487526, 8.15550995, -60.80093384, 98.89815521, 10.02132034, -7.56500149, -0.64185059, 0.75902164, 0.00672516, -0.10894383, 0.25134015, -0.06828292, 0.07448518, 100.41700745, 75.85894775, 30.21999931, 0.00000000
1, 0.1249, 7, -0.06943708, -0.91545570, 0.10245719, 1.58300912, -19.48567200, -82.55600739, -16.92487526, 8.15550995, -60.80093384, 98.89907074, 10.44416332, -7.59862375, -0.64141411, 0.75893760, 0.00890228, -0.11190453, 0.24864060, -0.05663509, 0.04804857, 100.41700745, 75.85894775, 30.21999931, 0.00000000
1, 0.1299, 8, -0.05550514, -0.92520154, 0.15840848, 4.02244473, -25.58139420, -75.82706451, -17.12949371, 8.62320995, -60.85939789, 98.90538025, 10.83845997, -7.66816235, -0.64092320, 0.75888520, 0.01067397, -0.11487786, 0.24148574, -0.04569697, -0.00799993, 100.41700745, 75.85894775, 30.21999931, 0.00000000
1, 0.0452, 6, 0.40161133, -0.87677002, 0.13360596, 3.66515756, 8.38304901, 22.88016510, -20.34492874, 6.89856768, -52.87927628, 100.97499847, 32.29812241, -146.35231018, -0.02851153, -0.38387048, 0.65810764, 0.64708966, 0.13315974, 0.04720641, 0.02715459, 100.29300690, 86.26172638, 29.31999969, 0.00000000
1, 0.0502, 7, 0.41400146, -0.86737061, 0.13226318, 4.26015806, 8.17304897, 23.23016357, -20.34492874, 6.89856768, -52.87927628, 101.00762939, 32.17630386, -146.33105469, -0.02769228, -0.38342860, 0.65862679, 0.64685887, 0.11897618, 0.03678539, 0.02917653, 100.29300690, 86.26172638, 29.31999969, 0.00000000
1, 0.0552, 8, 0.42779541, -0.87347412, 0.13488770, 4.40015793, 7.40304899, 23.51016426, -20.34492874, 6.89856768, -52.87927628, 101.03833008, 32.05384445, -146.31469727, -0.02688957, -0.38295636, 0.65915287, 0.64663655, 0.10337527, 0.04186324, 0.02722589, 100.29300690, 86.26172638, 29.31999969, 0.00000000
1, 0.1349, 9, -0.04751826, -0.94011223, 0.18226385, 4.51663780, -26.99532318, -70.39892578, -17.12949371, 8.62320995, -60.85939789, 98.91163635, 11.20703506, -7.74908638, -0.64043576, 0.75883389, 0.01222397, -0.11774474, 0.23986495, -0.02958291, -0.03194397, 100.41700745, 75.85894775, 30.21999931, 0.00000000
1, 0.1399, 10, -0.04212777, -0.95515013, 0.19786379, 4.26544476, -25.68881416, -65.38716888, -17.12949371, 8.62320995, -60.85939789, 98.91669464, 11.54985332, -7.82741308, -0.63997489, 0.75877756, 0.01364593, -0.12042682, 0.24041450, -0.01337712, -0.04764831, 100.41700745, 75.85894775, 30.21999931, 0.00000000
1, 0.1849, 11, 0.03362164, -0.93274772, 0.10122820, -0.17404856, -4.99814081, -23.16044044, -14.82022762, 9.32475853, -60.88862991, 98.85174561, 13.55367756, -8.19758129, -0.63782871, 0.75781482, 0.02264462, -0.13556698, 0.20000571, -0.02810379, 0.04694054, 100.41700745, 75.85894775, 30.21999931, 0.00000000
1, 0.1899, 12, 0.04801038, -0.92931569, 0.08660889, 0.91756463, -2.88733768, -17.79609299, -14.82022762, 9.32475853, -60.88862991, 98.85593414, 13.64383030, -8.19831848, -0.63769728, 0.75780410, 0.02314664, -0.13615946, 0.18730521, -0.03111162, 0.06157962, 100.41700745, 75.85894775, 30.21999931, 0.00000000
1, 0.0602, 9, 0.44464111, -0.86370850, 0.13690186, 4.15515757, 6.80804920, 23.75516319, -20.57877731, 6.60625553, -52.73311996, 101.06575012, 31.93074608, -146.30215454, -0.02609293, -0.38246009, 0.65967470, 0.64643085, 0.08471081, 0.03106118, 0.02583933, 100.29300690, 86.26172638, 29.31999969, 0.00000000
1, 0.0652, 10, 0.46252441, -0.86303711, 0.13983154, 3.77015805, 6.00304937, 24.00016403, -20.57877731, 6.60625553, -52.73311996, 101.08859253, 31.80721474, -146.29461670, -0.02530611, -0.38193411, 0.66018802, 0.64624906, 0.06499816, 0.02934087, 0.02347866, 100.29300690, 86.26172638, 29.31999969, 0.00000000
1, 0.0702, 11, 0.46960449, -0.85675049, 0.14788818, 3.45515776, 4.63804817, 24.59516525, -20.43262100, 6.95702982, -52.87927628, 101.10529327, 31.68206596, -146.29570007, -0.02453653, -0.38135225, 0.66070002, 0.64609897, 0.05606911, 0.02198207, 0.01590662, 100.29300690, 86.26172638, 29.31999969, 0.00000000
1, 0.0752, 12, 0.47094727, -0.84912109, 0.15344238, 2.89515758, 3.44804788, 24.87516403, -20.43262100, 6.95702982, -52.87927628, 101.11542511, 31.55669975, -146.30397034, -0.02378402, -0.38072899, 0.66119885, 0.64598435, 0.05286068, 0.01325718, 0.01074245, 100.29300690, 86.26172638, 29.31999969, 0.00000000
1, 0.0802, 13, 0.47161865, -0.83648682, 0.17138672, 2.47515726, 0.75304705, 25.92516518, -20.43262100, 6.95702982, -52.87927628, 101.11476135, 31.42877769, -146.32896423, -0.02307267, -0.37999946, 0.66169971, 0.64592695, 0.05029730, -0.00050864, -0.00694179, 100.29300690, 86.26172638, 29.31999969, 0.00000000
1, 0.1302, 14, 0.50061035, -0.84033203, 0.21899414, 5.34515858, -15.41695786, 29.25016594, -20.98801422, 6.31394339, -52.85004425, 100.79103851, 30.13606834, -147.10856628, -0.01782841, -0.36956817, 0.66661811, 0.64708716, 0.00193280, -0.00890842, -0.05700445, 100.29300690, 86.26172638, 29.31999969, 0.00000000
1, 0.1352, 15, 0.49993896, -0.85772705, 0.22827148, 6.43015862, -16.67695999, 29.46016693, -20.52031517, 4.79392004, -52.61619186, 100.75982666, 30.00695419, -147.23504639, -0.01758537, -0.36823502, 0.66726106, 0.64719123, 0.00065330, 0.00728578, -0.06654115, 100.29300690, 86.26172638, 29.31999969, 0.00000000
1, 0.1949, 13, 0.06416835, -0.92896330, 0.07684319, 2.72388959, -1.01803315, -12.27133942, -14.73253441, 9.38322163, -60.80093384, 98.87046814, 13.70527744, -8.19386101, -0.63753623, 0.75786048, 0.02350768, -0.13653807, 0.17233527, -0.03113783, 0.07154000, 100.41700745, 75.85894775, 30.21999931, 0.00000000
1, 0.1999, 14, 0.07259611, -0.93609595, 0.07886102, 4.47196817, -0.13318408, -6.38373518, -14.73253441, 9.38322163, -60.80093384, 98.89378357, 13.73698235, -8.18951035, -0.63735080, 0.75797689, 0.02368861, -0.13672529, 0.16456646, -0.02379276, 0.06986411, 100.41700745, 75.85894775, 30.21999931, 0.00000000
1, 0.2049, 15, 0.07807396, -0.93639398, 0.09080405, 5.66863394, -0.62095541, -0.10120115, -14.73253441, 9.61707115, -60.33323669, 98.89189911, 13.65746784, -8.20270538, -0.63743860, 0.75799984, 0.02315229, -0.13628002, 0.15852398, -0.02361080, 0.05815834, 100.41700745, 75.85894775, 30.21999931, 0.00000000
1, 0.2099, 16, 0.08277085, -0.93066180, 0.09697669, 6.16001129, -1.54027307, 6.49549437, -14.73253441, 9.61707115, -60.33323669, 98.91970825, 13.62662125, -8.21565342, -0.63727450, 0.75816894, 0.02285853, -0.13615653, 0.15274136, -0.02957607, 0.05226790, 100.41700745, 75.85894775, 30.21999931, 0.00000000
1, 0.2149, 17, 0.08813094, -0.92080259, 0.10122424, 6.50934458, -2.55694318, 12.74115562, -14.73253441, 9.61707115, -60.33323669, 98.94700623, 13.56571960, -8.23870945, -0.63713616, 0.75834841, 0.02232806, -0.13589302, 0.14646354, -0.03958734, 0.04854024, 100.41700745, 75.85894775, 30.21999931, 0.00000000
1, 0.2199, 18, 0.09257893, -0.91493356, 0.10667146, 6.79037714, -3.84854698, 18.80587387, -15.25869656, 9.41245270, -60.80093384, 98.97312927, 13.47586155, -8.27316570, -0.63702476, 0.75853378, 0.02155939, -0.13550346, 0.14059880, -0.04572884, 0.04361317, 100.41700745, 75.85894775, 30.21999931, 0.00000000
1, 0.2249, 19, 0.09959783, -0.91009688, 0.11318320, 6.69162798, -6.11577940, 24.74701309, -15.25869656, 9.41245270, -60.80093384, 98.99510956, 13.35842323, -8.32387352, -0.63695294, 0.75870824, 0.02053176, -0.13502315, 0.13168767, -0.05095719, 0.03758931, 100.41700745, 75.85894775, 30.21999931, 0.00000000
1, 0.2299, 20, 0.10438234, -0.90640795, 0.10862377, 6.20053530, -8.31437492, 30.58962440, -15.11254025, 9.76322746, -60.71324158, 99.01121521, 13.21383572, -8.39040279, -0.63693213, 0.75886071, 0.01925245, -0.13445215, 0.12457296, -0.05514021, 0.04254371, 100.41700745, 75.85894775, 30.21999931, 0.00000000
1, 0.1402, 16, 0.50360107, -0.87707520, 0.23596191, 6.88515854, -17.37696075, 29.63516617, -20.52031517, 4.79392004, -52.61619186, 100.72917175, 29.87757301, -147.36543274, -0.01736504, -0.36687580, 0.66791755, 0.64729196, -0.00496383, 0.02543977, -0.07447642, 100.29300690, 86.26172638, 29.31999969, 0.00000000
1, 0.1452, 17, 0.50659180, -0.89819336, 0.24438477, 6.88515854, -17.51695824, 29.88016891, -21.30955887, 5.67085648, -52.87927628, 100.69837189, 29.74706268, -147.49662781, -0.01714182, -0.36550456, 0.66857624, 0.64739352, -0.00992511, 0.04536045, -0.08314585, 100.29300690, 86.26172638, 29.31999969, 0.00000000
1, 0.1502, 18, 0.50268555, -0.91894531, 0.24755859, 6.39515877, -17.34195900, 30.26516533, -21.30955887, 5.67085648, -52.87927628, 100.66580200, 29.61443329, -147.62698364, -0.01689477, -0.36412659, 0.66922581, 0.64750540, -0.00802186, 0.06489855, -0.08658795, 100.29300690, 86.26172638, 29.31999969, 0.00000000
1, 0.2549, 21, -0.04158563, -0.91632354, 0.12737559, 7.34822178, -20.15226364, 60.01710510, -14.38175964, 8.44782257, -60.27477264, 99.06237793, 12.05059528, -8.96831703, -0.63722974, 0.75956714, 0.00876880, -0.13007398, 0.25139058, -0.04935903, 0.02499453, 100.41700745, 75.85894775, 30.21999931, 0.00000000
1, 0.2599, 22, -0.07697129, -0.92742324, 0.13826753, 7.87577009, -21.57983017, 64.56819916, -14.38175964, 8.44782257, -60.27477264, 99.06948853, 11.74862862, -9.12867260, -0.63733536, 0.75968999, 0.00598565, -0.12899245, 0.28155383, -0.03934886, 0.01427575, 100.41700745, 75.85894775, 30.21999931, 0.00000000
1, 0.1552, 19, 0.50628662, -0.93957520, 0.24658203, 5.13515806, -16.88695908, 30.19516754, -21.30955887, 5.67085648, -52.87927628, 100.62862396, 29.48165703, -147.75444031, -0.01661636, -0.36276361, 0.66983742, 0.64764529, -0.01363908, 0.08430339, -0.08593304, 100.29300690, 86.26172638, 29.31999969, 0.00000000
1, 0.1602, 20, 0.51037598, -0.95147705, 0.23980713, 4.05015802, -16.01195908, 29.77516747, -21.36802101, 5.81701231, -52.58696365, 100.58905029, 29.35007095, -147.87623596, -0.01630702, -0.36143753, 0.67041075, 0.64780122, -0.01973354, 0.09498304, -0.07953299, 100.29300690, 86.26172638, 29.31999969, 0.00000000
1, 0.1652, 21, 0.51367188, -0.95989990, 0.23065186, 3.10515738, -15.52195835, 29.04016495, -21.36802101, 5.81701231, -52.58696365, 100.54684448, 29.22156715, -147.99424744, -0.01598919, -0.36014673, 0.67094475, 0.64797515, -0.02499712, 0.10220332, -0.07079773, 100.29300690, 86.26172638, 29.31999969, 0.00000000
1, 0.2649, 23, -0.09446341, -0.94205165, 0.14714746, 8.13668251, -21.70417213, 68.41764832, -14.38175964, 8.44782257, -60.27477264, 99.07810211, 11.42777443, -9.29258633, -0.63744760, 0.75981361, 0.00307001, -0.12780669, 0.29361698, -0.02581549, 0.00564113, 100.41700745, 75.85894775, 30.21999931, 0.00000000
1, 0.2699, 24, -0.06120966, -0.99122488, 0.17619415, 9.20045185, -20.85136223, 71.01830292, -15.72639561, 9.17860222, -60.94709015, 99.09343719, 11.09345341, -9.45415020, -0.63753223, 0.75996429, 0.00008614, -0.12651908, 0.25461656, 0.02222268, -0.02299580, 100.41700745, 75.85894775, 30.21999931, 0.00000000
1, 0.2749, 25, -0.01714264, -1.04136932, 0.22456399, 10.28365993, -22.29382515, 70.54950714, -15.72639561, 9.17860222, -60.94709015, 99.11382294, 10.76264668, -9.62251663, -0.63757151, 0.76012903, -0.00292826, -0.12529108, 0.20472082, 0.07124321, -0.07083428, 100.41700745, 75.85894775, 30.21999931, 0.00000000
1, 0.2002, 22, 0.52502441, -0.88177490, 0.17779541, 2.19515729, -18.88195801, 24.94516373, -20.43262100, 6.02163124, -52.44080734, 100.21719360, 28.42551231, -148.79962158, -0.01425001, -0.35168055, 0.67403102, 0.64946121, -0.04860313, 0.01653525, -0.02164488, 100.29300690, 86.26172638, 29.31999969, 0.00000000
1, 0.2052, 23, 0.50390625, -0.87219238, 0.17425537, 2.65015745, -19.96695900, 24.98016548, -20.43262100, 6.02163124, -52.44080734, 100.16544342, 28.32024765, -148.93641663, -0.01417000, -0.35037810, 0.67447639, 0.64970458, -0.02910267, 0.00595129, -0.01873110, 100.29300690, 86.26172638, 29.31999969, 0.00000000
1, 0.2102, 24, 0.47760010, -0.85272217, 0.15325928, 3.35015726, -20.87696075, 24.94516373, -21.16340256, 6.69394922, -52.49926758, 100.11513519, 28.21584892, -149.07801819, -0.01412843, -0.34904975, 0.67493910, 0.64993989, -0.00440334, -0.01450861, 0.00164501, 100.29300690, 86.26172638, 29.31999969, 0.00000000
1, 0.2799, 26, 0.05108349, -1.06298101, 0.24049477, 10.48221874, -22.36315346, 64.76170349, -15.98947620, 8.79859638, -60.77170181, 99.13682556, 10.46053028, -9.78656387, -0.63756692, 0.76029170, -0.00575393, -0.12422542, 0.13112511, 0.09189590, -0.08609492, 100.41700745, 75.85894775, 30.21999931, 0.00000000
1, 0.2849, 27, 0.15663323, -1.05994010, 0.21202070, 9.81785297, -16.79391479, 54.45736313, -15.98947620, 8.79859638, -60.77170181, 99.16365814, 10.20497227, -9.91439533, -0.63752574, 0.76046187, -0.00807921, -0.12326160, 0.02104733, 0.08813901, -0.05677828, 100.41700745, 75.85894775, 30.21999931, 0.00000000
1, 0.2899, 28, 0.32448435, -1.02451742, 0.12736699, 7.37996292, -6.58733749, 40.39533615, -15.98947620, 8.79859638, -60.77170181, 99.18956757, 10.01081657, -9.97980118, -0.63749146, 0.76061934, -0.00964093, -0.12235165, -0.15023887, 0.05228205, 0.02890261, 100.41700745, 75.85894775, 30.21999931, 0.00000000
1, 0.2152, 25, 0.45996094, -0.84942627, 0.14056396, 4.96015787, -21.43696022, 25.43516541, -21.16340256, 6.69394922, -52.49926758, 100.07151031, 28.10942841, -149.22299194, -0.01411395, -0.34768936, 0.67545319, 0.65013528, 0.01161021, -0.01878452, 0.01380696, 100.29300690, 86.26172638, 29.31999969, 0.00000000
1, 0.2202, 26, 0.43927002, -0.84869385, 0.14587402, 6.95515871, -21.82196045, 26.24016571, -21.57263947, 6.19701815, -52.67465591, 100.03682709, 27.99928665, -149.37068176, -0.01411821, -0.34629229, 0.67603439, 0.65027678, 0.03061803, -0.02050146, 0.00808879, 100.29300690, 86.26172638, 29.31999969, 0.00000000
1, 0.2252, 27, 0.42388916, -0.85321045, 0.15130615, 8.77515984, -20.91196060, 27.92016602, -21.57263947, 6.19701815, -52.67465591, 100.01321411, 27.88001823, -149.51472473, -0.01407542, -0.34486955, 0.67669147, 0.65035027, 0.04419866, -0.01699620, 0.00242684, 100.29300690, 86.26172638, 29.31999969, 0.00000000
1, 0.2302, 28, 0.39971924, -0.85699463, 0.15246582, 9.23016071, -20.42195892, 29.28516769, -21.57263947, 6.19701815, -52.67465591, 99.99288177, 27.75355530, -149.65718079, -0.01398626, -0.34341922, 0.67738068, 0.65040219, 0.06644296, -0.01426992, 0.00112631, 100.29300690, 86.26172638, 29.31999969, 0.00000000
1, 0.2949, 29, 0.39985234, -1.00701761, 0.09113877, 4.93753672, 1.98724496, 30.50072289, -16.51563835, 9.29552746, -59.80707169, 99.21210480, 9.85871792, -9.99433231, -0.63748831, 0.76075608, -0.01062275, -0.12143381, -0.22828668, 0.03442622, 0.06583021, 100.41700745, 75.85894775, 30.21999931, 0.00000000
1, 0.2999, 30, 0.50746769, -1.00284827, 0.08673573, 4.66831064, 6.61556911, 17.43485069, -16.51563835, 9.29552746, -59.80707169, 99.23892212, 9.76745892, -9.97521496, -0.63742697, 0.76091391, -0.01104084, -0.12072667, -0.33771360, 0.03001897, 0.07097038, 100.41700745, 75.85894775, 30.21999931, 0.00000000
1, 0.3349, 31, 0.35688591, -1.09545588, 0.15871906, 10.91263580, -3.19084787, -5.83756018, -16.48640823, 8.88629055, -60.85939789, 99.58830261, 10.19225693, -9.83261967, -0.63480467, 0.76282644, -0.00806329, -0.12269429, -0.18043476, 0.12466742, 0.00408716, 100.41700745, 75.85894775, 30.21999931, 0.00000000
1, 0.3399, 32, 0.28428584, -1.08757126, 0.20686111, 11.66024971, -1.83671689, 0.45954049, -16.48640823, 8.88629055, -60.85939789, 99.64491272, 10.19165134, -9.84218407, -0.63441807, 0.76313931, -0.00819100, -0.12273926, -0.10782357, 0.11688588, -0.04328880, 100.41700745, 75.85894775, 30.21999931, 0.00000000
1, 0.2352, 29, 0.37622070, -0.87017822, 0.16107178, 9.72015953, -20.59695816, 30.82516670, -21.07570839, 5.96316862, -53.02542877, 99.97424316, 27.61961365, -149.80189514, -0.01386587, -0.34191722, 0.67810494, 0.65044147, 0.08790391, -0.00219092, -0.00757919, 100.29300690, 86.26172638, 29.31999969, 0.00000000
1, 0.3449, 33, 0.27781200, -1.08336389, 0.30671102, 13.54920197, 2.33403444, 7.37008190, -16.57410049, 8.97398376, -60.15784836, 99.71372223, 10.15354061, -9.83669853, -0.63400632, 0.76352471, -0.00844288, -0.12245330, -0.10208344, 0.11261730, -0.14202617, 100.41700745, 75.85894775, 30.21999931, 0.00000000
1, 0.3499, 34, 0.31585565, -1.09279525, 0.33081874, 15.43543053, 6.71530724, 14.21557236, -16.57410049, 8.97398376, -60.15784836, 99.79485321, 10.07801723, -9.81516457, -0.63356882, 0.76398313, -0.00881115, -0.12183115, -0.14125173, 0.12204477, -0.16472089, 100.41700745, 75.85894775, 30.21999931, 0.00000000
1, 0.3549, 35, 0.37123239, -1.11477959, 0.29733709, 16.58770943, 13.50579071, 23.47632599, -16.72025681, 9.32475853, -60.12861633, 99.89057159, 9.96028614, -9.76692390, -0.63310587, 0.76452816, -0.00925314, -0.12078166, -0.19850957, 0.14401391, -0.12950353, 100.41700745, 75.85894775, 30.21999931, 0.00000000
1, 0.2602, 30, 0.19915771, -1.01501465, 0.15759277, 6.78015852, -14.26195908, 41.01016998, -21.13417053, 5.67085648, -53.14235687, 99.86270142, 26.79836464, -150.50320435, -0.01208624, -0.33377030, 0.68194044, 0.65069854, 0.25245956, 0.13600129, -0.00469810, 100.29300690, 86.26172638, 29.31999969, 0.00000000
1, 0.2652, 31, 0.15985107, -1.05004883, 0.15673828, 5.20515823, -9.88695621, 43.88016891, -21.13417053, 5.67085648, -53.14235687, 99.84535217, 26.59066200, -150.59974670, -0.01121036, -0.33218059, 0.68272072, 0.65070957, 0.28858566, 0.16940911, -0.00384188, 100.29300690, 86.26172638, 29.31999969, 0.00000000
1, 0.2702, 32, 0.12969971, -1.08685303, 0.16931152, 4.01515818, -4.88195467, 46.12017059, -21.51417732, 6.05086231, -53.34697342, 99.83381653, 26.36762047, -150.67065430, -0.01010448, -0.33066538, 0.68349940, 0.65068197, 0.31531563, 0.20449468, -0.01632708, 100.29300690, 86.26172638, 29.31999969, 0.00000000
1, 0.2752, 33, 0.10900879, -1.12054443, 0.19335938, 2.40515709, 1.20804727, 48.11517334, -21.51417732, 6.05086231, -53.34697342, 99.82851410, 26.12954521, -150.70980835, -0.00873707, -0.32926294, 0.68426085, 0.65061259, 0.33234158, 0.23638293, -0.04016954, 100.29300690, 86.26172638, 29.31999969, 0.00000000
1, 0.3599, 36, 0.36934745, -1.14217615, 0.19025199, 15.80095482, 17.94065857, 28.56946182, -16.72025681, 9.32475853, -60.12861633, 99.98108673, 9.80440140, -9.70196247, -0.63273305, 0.76504886, -0.00979066, -0.11938776, -0.19883940, 0.17143473, -0.02081449, 100.41700745, 75.85894775, 30.21999931, 0.00000000
1, 0.3649, 37, 0.33932671, -1.17059207, 0.10000541, 14.61999893, 19.62599945, 33.42681122, -16.72025681, 9.32475853, -60.12861633, 100.06623077, 9.62302494, -9.63310432, -0.63242328, 0.76554185, -0.01043746, -0.11780331, -0.17161050, 0.19974652, 0.07086714, 100.41700745, 75.85894775, 30.21999931, 0.00000000
1, 0.3699, 38, 0.29383552, -1.19962931, 0.06507657, 14.29605770, 15.09002686, 38.01980972, -16.86641312, 9.20783424, -59.10552216, 100.14511108, 9.42288399, -9.59124660, -0.63214344, 0.76599813, -0.01136124, -0.11624298, -0.12940508, 0.22852397, 0.10710070, 100.41700745, 75.85894775, 30.21999931, 0.00000000
1, 0.3749, 39, 0.25677449, -1.20638525, 0.06919573, 14.04473019, 7.30069160, 41.76319122, -16.86641312, 9.20783424, -59.10552216, 100.21576691, 9.21108246, -9.59185982, -0.63188457, 0.76640379, -0.01262400, -0.11483890, -0.09595302, 0.23490945, 0.10421365, 100.41700745, 75.85894775, 30.21999931, 0.00000000
1, 0.3799, 40, 0.24021375, -1.20254147, 0.07133108, 14.09503746, 0.91990453, 44.97547150, -17.12949371, 6.31394339, -59.83630371, 100.28117371, 8.98909378, -9.62739754, -0.63163382, 0.76677400, -0.01417053, -0.11355861, -0.08318251, 0.23066624, 0.10328360, 100.41700745, 75.85894775, 30.21999931, 0.00000000
1, 0.2802, 34, 0.09265137, -1.14825439, 0.21716309, 0.02515645, 8.13804913, 49.69017792, -21.63110161, 6.05086231, -53.61005402, 99.82750702, 25.87779427, -150.71238708, -0.00708380, -0.32800958, 0.68497688, 0.65051228, 0.34480184, 0.26220879, -0.06368130, 100.29300690, 86.26172638, 29.31999969, 0.00000000
1, 0.2852, 35, 0.08843994, -1.16015625, 0.23181152, -2.28484416, 16.29305267, 50.25017166, -21.63110161, 6.05086231, -53.61005402, 99.83409882, 25.61632347, -150.67089844, -0.00513780, -0.32696995, 0.68563437, 0.65036124, 0.34493840, 0.27218050, -0.07792500, 100.29300690, 86.26172638, 29.31999969, 0.00000000
1, 0.2902, 36, 0.11383057, -1.14764404, 0.24353027, -3.19484472, 25.11305618, 49.83017349, -21.63110161, 6.05086231, -53.61005402, 99.85676575, 25.34936714, -150.58105469, -0.00292684, -0.32619157, 0.68625814, 0.65010786, 0.31535694, 0.25774369, -0.08901823, 100.29300690, 86.26172638, 29.31999969, 0.00000000
1, 0.4099, 41, -0.03672845, -0.99496663, 0.11438195, 25.86791801, 12.34427834, 56.55997849, -17.91873741, 8.94475269, -58.60859299, 100.87112427, 7.40642500, -9.80075169, -0.62903929, 0.77000123, -0.02472731, -0.10390612, 0.16659895, 0.02097140, 0.07033072, 100.41700745, 75.85894775, 30.21999931, 0.00000000
1, 0.4149, 42, -0.04118839, -0.98848999, 0.13566458, 25.39447784, 16.17445374, 56.44697952, -18.29874229, 8.94475269, -58.87167358, 101.00214386, 7.11431932, -9.77414131, -0.62845200, 0.77071184, -0.02629000, -0.10178475, 0.16596481, 0.01425257, 0.05140180, 100.41700745, 75.85894775, 30.21999931, 0.00000000
1, 0.4199, 43, -0.03988784, -0.97352147, 0.14294253, 24.26792526, 21.07800484, 56.36788559, -18.29874229, 9.55860806, -58.87167358, 101.13027191, 6.81786680, -9.72389126, -0.62790293, 0.77140754, -0.02771014, -0.09950131, 0.15953004, -0.00091934, 0.04646971, 100.41700745, 75.85894775, 30.21999931, 0.00000000
1, 0.4249, 44, -0.01824576, -0.94576991, 0.13607043, 23.37306976, 24.42122459, 56.07339478, -18.29874229, 9.55860806, -58.87167358, 101.25553894, 6.51952267, -9.65753269, -0.62738174, 0.77208734, -0.02902456, -0.09711382, 0.13273835, -0.02883813, 0.05569257, 100.41700745, 75.85894775, 30.21999931, 0.00000000
1, 0.4299, 45, -0.01282184, -0.92515397, 0.12321811, 23.61917305, 24.47743225, 55.26539993, -18.76644325, 9.52937698, -58.81321335, 101.38172150, 6.22494841, -9.59080601, -0.62684381, 0.77276874, -0.03031103, -0.09474553, 0.12221485, -0.04957399, 0.07084811, 100.41700745, 75.85894775, 30.21999931, 0.00000000
1, 0.2952, 37, 0.17181396, -1.11248779, 0.26190186, -3.40484476, 34.03805923, 46.78517151, -22.56650162, 5.81701231, -52.55773163, 99.89979553, 25.08971405, -150.44007874, -0.00053199, -0.32575557, 0.68682957, 0.64972937, 0.25322306, 0.22075728, -0.10646977, 100.29300690, 86.26172638, 29.31999969, 0.00000000
1, 0.3402, 38, 0.86920166, -1.19848633, 0.22747803, 19.90516281, 31.34305573, 3.14015770, -23.88190651, 5.23238802, -53.02542877, 101.00141144, 23.67612267, -148.12178040, 0.01874810, -0.33286610, 0.69035161, 0.64207745, -0.46748090, 0.29942954, -0.05336127, 100.29300690, 86.26172638, 29.31999969, 0.00000000
1, 0.3452, 39, 0.81909180, -1.23175049, 0.21112061, 20.67516136, 22.34805489, 0.09515676, -24.70038033, 5.67085648, -52.38234329, 101.15280914, 23.65419197, -148.00215149, 0.01912362, -0.33350599, 0.69091332, 0.64112943, -0.41781056, 0.33298030, -0.03452786, 100.29300690, 86.26172638, 29.31999969, 0.00000000
1, 0.3502, 40, 0.75305176, -1.22271729, 0.18200684, 19.48516273, 14.61305141, -2.87984419, -24.70038033, 5.67085648, -52.38234329, 101.28285980, 23.65410042, -147.92085266, 0.01920003, -0.33401766, 0.69140393, 0.64033133, -0.35185671, 0.32433075, -0.00327832, 100.29300690, 86.26172638, 29.31999969, 0.00000000
1, 0.3552, 41, 0.67456055, -1.19555664, 0.15954590, 17.17516136, 8.69804955, -5.60984516, -24.55422401, 4.29698896, -52.14849472, 101.38983917, 23.67305374, -147.86827087, 0.01905538, -0.33444420, 0.69179451, 0.63969094, -0.27313918, 0.29762110, 0.02093239, 100.29300690, 86.26172638, 29.31999969, 0.00000000
1, 0.3602, 42, 0.60980225, -1.16027832, 0.13946533, 13.36016178, 4.14804840, -7.63984585, -24.55422401, 4.29698896, -52.14849472, 101.46887970, 23.70638847, -147.83781433, 0.01877239, -0.33480164, 0.69205230, 0.63923329, -0.20789801, 0.26282343, 0.04232398, 100.29300690, 86.26172638, 29.31999969, 0.00000000
1, 0.3652, 43, 0.55346680, -1.09490967, 0.10766602, 10.10516071, -0.75195348, -8.89984608, -24.55422401, 4.29698896, -52.14849472, 101.52168274, 23.75074387, -147.83215332, 0.01835382, -0.33505765, 0.69220459, 0.63894624, -0.15089533, 0.19792941, 0.07498787, 100.29300690, 86.26172638, 29.31999969, 0.00000000
1, 0.3702, 44, 0.47222900, -0.99963379, 0.07623291, 8.04015923, -6.14195490, -9.14484596, -24.05729294, 6.34317446, -51.79771805, 101.55266571, 23.80168533, -147.85502625, 0.01779581, -0.33516899, 0.69229990, 0.63880038, -0.06886123, 0.10311277, 0.10691866, 100.29300690, 86.26172638, 29.31999969, 0.00000000
1, 0.3752, 45, 0.39074707, -0.96270752, 0.07232666, 7.48015928, -11.32195663, -8.33984566, -24.05729294, 6.34317446, -51.79771805, 101.56925964, 23.85388756, -147.90652466, 0.01711195, -0.33511111, 0.69239503, 0.63874638, 0.01344602, 0.06661136, 0.11108417, 100.29300690, 86.26172638, 29.31999969, 0.00000000
1, 0.4349, 46, -0.01378813, -0.91673672, 0.11178546, 24.06088066, 22.91422462, 53.78537750, -18.76644325, 9.52937698, -58.81321335, 101.50902557, 5.93902588, -9.53100967, -0.62627798, 0.77345157, -0.03159204, -0.09246913, 0.11820483, -0.05806467, 0.08456324, 100.41700745, 75.85894775, 30.21999931, 0.00000000
1, 0.4399, 47, -0.02211567, -0.91173947, 0.12242096, 23.98086548, 20.21425247, 51.58385849, -19.46799088, 9.50014591, -58.34551239, 101.63441467, 5.66644287, -9.48297787, -0.62569797, 0.77411866, -0.03287224, -0.09034346, 0.12171392, -0.06312488, 0.07615604, 100.41700745, 75.85894775, 30.21999931, 0.00000000
1, 0.4449, 48, -0.03485360, -0.90182781, 0.14871937, 24.08672333, 16.91661453, 49.68119812, -19.46799088, 9.50014591, -58.34551239, 101.75867462, 5.40639400, -9.44986534, -0.62509805, 0.77477300, -0.03417863, -0.08838032, 0.12981579, -0.07308149, 0.05205001, 100.41700745, 75.85894775, 30.21999931, 0.00000000
1, 0.4499, 49, -0.04408384, -0.91011393, 0.17258047, 24.12543678, 13.33486366, 47.98292923, -19.46799088, 9.50014591, -58.34551239, 101.88143158, 5.15823364, -9.43320370, -0.62448138, 0.77541238, -0.03552545, -0.08658396, 0.13462330, -0.06479657, 0.03033308, 100.41700745, 75.85894775, 30.21999931, 0.00000000
1, 0.4549, 50, -0.05044201, -0.89901364, 0.18059675, 23.57724953, 11.21251869, 46.22175980, -19.81876564, 9.50014591, -58.14089203, 102.00001526, 4.91131544, -9.42683220, -0.62388015, 0.77602214, -0.03692808, -0.08485007, 0.13670781, -0.07585137, 0.02443552, 100.41700745, 75.85894775, 30.21999931, 0.00000000
1, 0.4302, 46, -0.17156982, -0.93072510, 0.20800781, -0.46484369, 11.14805031, 20.15016556, -23.99883080, 3.82928967, -52.73311996, 101.48143768, 23.66044617, -148.69659424, 0.01425178, -0.32938546, 0.69474036, 0.63924807, 0.57334411, 0.03329858, -0.02579135, 100.29300690, 86.26172638, 29.31999969, 0.00000000
1, 0.4352, 47, -0.11828613, -0.95208740, 0.19250488, -0.21984364, 17.62305450, 22.56516457, -23.99883080, 3.82928967, -52.73311996, 101.50823975, 23.53232002, -148.62689209, 0.01541856, -0.32919258, 0.69504702, 0.63898689, 0.51808047, 0.05388558, -0.00975473, 100.29300690, 86.26172638, 29.31999969, 0.00000000
1, 0.4402, 48, -0.05743408, -0.97412109, 0.20404053, 0.30515659, 23.15305519, 24.28016281, -23.99883080, 3.82928967, -52.73311996, 101.54845428, 23.39023781, -148.52969360, 0.01679329, -0.32910159, 0.69538790, 0.63862807, 0.45500410, 0.07509068, -0.02051359, 100.29300690, 86.26172638, 29.31999969, 0.00000000
1, 0.4799, 51, -0.10058253, -0.93296003, 0.31014743, 22.92247581, 1.94282448, 38.85851288, -20.72493362, 9.03244686, -57.81935120, 102.59384155, 3.86229491, -9.45221806, -0.62063819, 0.77903765, -0.04326290, -0.07769838, 0.16799253, -0.04132434, -0.09487097, 100.41700745, 75.85894775, 30.21999931, 0.00000000
1, 0.4849, 52, -0.11091515, -0.94029748, 0.30256444, 22.63785553, 1.72081745, 37.84032440, -20.72493362, 9.03244686, -57.81935120, 102.70536804, 3.67602777, -9.48495007, -0.61999571, 0.77958661, -0.04457578, -0.07657158, 0.17508167, -0.03376245, -0.08538274, 100.41700745, 75.85894775, 30.21999931, 0.00000000
1, 0.4899, 53, -0.10982013, -0.95855224, 0.31368038, 22.90371895, 3.06777239, 36.95768738, -21.22186470, 10.02630806, -57.55627060, 102.81875610, 3.49264550, -9.51050186, -0.61934167, 0.78014600, -0.04582301, -0.07542217, 0.17075409, -0.01529035, -0.09456119, 100.41700745, 75.85894775, 30.21999931, 0.00000000
1, 0.4949, 54, -0.09363107, -0.97664392, 0.31976855, 22.71741867, 3.66878223, 36.51871109, -21.22186470, 10.02630806, -57.55627060, 102.93144226, 3.31079650, -9.53297806, -0.61869168, 0.78070033, -0.04703814, -0.07426432, 0.15137458, 0.00304266, -0.09867615, 100.41700745, 75.85894775, 30.21999931, 0.00000000
1, 0.4999, 55, -0.08163770, -0.98510253, 0.31549153, 22.55415535, 2.44972396, 36.45667648, -21.22186470, 10.02630806, -57.55627060, 103.04307556, 3.13065958, -9.56169605, -0.61804211, 0.78124374, -0.04828348, -0.07314974, 0.13624671, 0.01177042, -0.09244336, 100.41700745, 75.85894775, 30.21999931, 0.00000000
1, 0.4452, 49, 0.04974365, -1.00921631, 0.22540283, 0.44515663, 28.92805672, 25.89016533, -24.08652496, 4.58930111, -52.52849960, 101.60055542, 23.23439217, -148.40368652, 0.01838605, -0.32912198, 0.69574994, 0.63817924, 0.34539634, 0.10931432, -0.04090237, 100.29300690, 86.26172638, 29.31999969, 0.00000000
1, 0.4502, 50, 0.11566162, -1.01910400, 0.23785400, 0.58515662, 32.39305878, 27.92016602, -24.08652496, 4.58930111, -52.52849960, 101.65927124, 23.06500626, -148.26174927, 0.02013846, -0.32917631, 0.69613999, 0.63767284, 0.27680427, 0.11826739, -0.05221105, 100.29300690, 86.26172638, 29.31999969, 0.00000000
1, 0.4552, 51, 0.19219971, -1.01947021, 0.24432373, 0.79515672, 33.16305923, 29.46016693, -24.96346092, 6.10932446, -52.52849960, 101.71943665, 22.88716507, -148.11781311, 0.02195401, -0.32920426, 0.69655478, 0.63714528, 0.19743924, 0.11765176, -0.05749699, 100.29300690, 86.26172638, 29.31999969, 0.00000000
1, 0.4602, 52, 0.25537109, -1.02386475, 0.25512695, 1.63515699, 32.25305939, 30.54516602, -24.96346092, 6.10932446, -52.52849960, 101.78089905, 22.70480919, -147.98028564, 0.02375992, -0.32917354, 0.69700670, 0.63660181, 0.13134736, 0.12104198, -0.06708634, 100.29300690, 86.26172638, 29.31999969, 0.00000000
1, 0.4652, 53, 0.31256104, -1.02313232, 0.27276611, 3.24515772, 30.04805756, 31.45516968, -24.96346092, 6.10932446, -52.52849960, 101.84496307, 22.52010536, -147.85585022, 0.02550082, -0.32905433, 0.69751626, 0.63603777, 0.07119145, 0.11930664, -0.08347161, 100.29300690, 86.26172638, 29.31999969, 0.00000000
1, 0.5049, 56, -0.07999905, -0.99410176, 0.29422897, 22.91386795, 2.13710904, 36.54980087, -21.25109673, 9.70476437, -57.52703857, 103.16153717, 2.93891120, -9.59491158, -0.61734998, 0.78181589, -0.04962443, -0.07197504, 0.13142055, 0.02108841, -0.06919821, 100.41700745, 75.85894775, 30.21999931, 0.00000000
1, 0.5099, 57, -0.07859938, -1.00739229, 0.27434015, 23.16591263, 4.69570112, 35.97664261, -21.25109673, 9.70476437, -57.52703857, 103.27693176, 2.75867867, -9.61285019, -0.61667866, 0.78237820, -0.05079433, -0.07079503, 0.12682806, 0.03471958, -0.04729326, 100.41700745, 75.85894775, 30.21999931, 0.00000000
1, 0.5149, 58, -0.05829755, -1.02598166, 0.26546139, 22.91864395, 4.39688635, 35.27162552, -22.01110840, 10.28938866, -57.20549393, 103.39109039, 2.58225155, -9.63179970, -0.61601073, 0.78293163, -0.05194736, -0.06964451, 0.10344516, 0.05364113, -0.03641215, 100.41700745, 75.85894775, 30.21999931, 0.00000000
1, 0.5199, 59, -0.05082518, -1.01167464, 0.24561305, 21.86535835, 3.11447167, 34.62352753, -22.01110840, 10.28938866, -57.20549393, 103.49977112, 2.41048503, -9.65658665, -0.61537206, 0.78345168, -0.05310951, -0.06855732, 0.09300818, 0.03968460, -0.01461287, 100.41700745, 75.85894775, 30.21999931, 0.00000000
1, 0.5249, 60, -0.03255910, -0.99060941, 0.19555065, 20.76479149, 2.77491570, 33.85828781, -22.01110840, 10.28938866, -57.20549393, 103.60298920, 2.24286652, -9.68244267, -0.61476594, 0.78394055, -0.05425124, -0.06750450, 0.07193094, 0.01900617, 0.03731479, 100.41700745, 75.85894775, 30.21999931, 0.00000000
1, 0.4752, 54, 0.38305664, -0.99371338, 0.26934814, 5.27515841, 19.89805603, 32.47016907, -25.34346581, 5.84624386, -52.44080734, 101.95751953, 22.15709877, -147.68487549, 0.02855227, -0.32837379, 0.69865125, 0.63501328, -0.00518475, 0.08790258, -0.07772623, 100.29300690, 86.26172638, 29.31999969, 0.00000000
1, 0.4802, 55, 0.38232422, -0.98895264, 0.25555420, 7.34015942, 13.45805073, 33.17016983, -25.28500366, 4.26775789, -52.06079865, 102.00695801, 21.98089027, -147.65098572, 0.02977637, -0.32774428, 0.69931233, 0.63455451, -0.00731950, 0.08217081, -0.06289489, 100.29300690, 86.26172638, 29.31999969, 0.00000000
1, 0.4852, 56, 0.35089111, -0.98132324, 0.24517822, 8.53015995, 3.62304831, 34.46516800, -25.28500366, 4.26775789, -52.06079865, 102.04231262, 21.80857468, -147.67057800, 0.03071913, -0.32680365, 0.70003587, 0.63419682, 0.02131118, 0.07356889, -0.05166628, 100.29300690, 86.26172638, 29.31999969, 0.00000000
1, 0.5449, 61, 0.01645656, -0.98695123, 0.08593608, 20.27233696, 1.87735188, 31.88024902, -22.53726959, 9.23706532, -56.59164047, 104.01890564, 1.59691358, -9.78512001, -0.61229277, 0.78589588, -0.05866326, -0.06343459, 0.01187256, 0.01688204, 0.15420191, 100.41700745, 75.85894775, 30.21999931, 0.00000000
1, 0.5499, 62, 0.03717114, -0.97933400, 0.07192549, 20.25166893, -2.27053690, 31.99195480, -22.53726959, 9.23706532, -56.59164047, 104.11924744, 1.44467318, -9.83472061, -0.61167747, 0.78635007, -0.05987415, -0.06260505, -0.01148236, 0.00964304, 0.16999756, 100.41700745, 75.85894775, 30.21999931, 0.00000000
1, 0.4902, 57, 0.32189941, -0.97052002, 0.21838379, 9.19515991, -1.55695367, 34.99016953, -26.30809593, 5.99239969, -52.26541901, 102.07070160, 21.63910675, -147.71810913, 0.03150865, -0.32570371, 0.70079046, 0.63389039, 0.04754247, 0.06178910, -0.02416662, 100.29300690, 86.26172638, 29.31999969, 0.00000000
1, 0.4952, 58, 0.28979492, -0.96752930, 0.19140625, 10.24516106, -5.05695534, 34.99016953, -26.30809593, 5.99239969, -52.26541901, 102.09769440, 21.47332764, -147.78407288, 0.03217616, -0.32450762, 0.70157719, 0.63360000, 0.07694214, 0.05784220, 0.00345986, 100.29300690, 86.26172638, 29.31999969, 0.00000000
1, 0.5002, 59, 0.25207520, -0.96960449, 0.18267822, 10.45516014, -7.57695580, 34.46516800, -26.30809593, 5.99239969, -52.26541901, 102.12130737, 21.31278419, -147.86267090, 0.03274895, -0.32325736, 0.70236403, 0.63333797, 0.11202979, 0.05899221, 0.01280223, 100.29300690, 86.26172638, 29.31999969, 0.00000000
1, 0.5052, 60, 0.17895508, -0.97003174, 0.16595459, 9.61515999, -8.83695602, 33.59016800, -26.22040367, 6.08009338, -52.79158020, 102.13888550, 21.15786552, -147.94689941, 0.03327071, -0.32199705, 0.70311528, 0.63311917, 0.18261158, 0.05851802, 0.03003477, 100.29300690, 86.26172638, 29.31999969, 0.00000000
1, 0.5549, 63, 0.05916401, -0.95927978, 0.04467133, 21.11292076, -2.85969114, 32.17726517, -22.77112007, 9.85092068, -57.46857452, 104.20374298, 1.29701948, -9.88227844, -0.61116844, 0.78671992, -0.06103637, -0.06180238, -0.03601401, -0.01003309, 0.19892463, 100.41700745, 75.85894775, 30.21999931, 0.00000000
1, 0.5599, 64, 0.09278046, -0.96671569, 0.07466483, 23.68702507, -0.96190017, 32.40004349, -22.77112007, 9.85092068, -57.46857452, 104.32164001, 1.14140725, -9.92653751, -0.61043644, 0.78726393, -0.06223487, -0.06090769, -0.07236803, -0.00225496, 0.17078224, 100.41700745, 75.85894775, 30.21999931, 0.00000000
1, 0.5649, 65, 0.09739657, -0.99154150, 0.13423598, 25.04438591, -1.28066099, 33.11125946, -22.74188805, 9.90938282, -57.79011917, 104.44641113, 0.98285455, -9.97353935, -0.60965681, 0.78783900, -0.06346958, -0.06000117, -0.07988501, 0.02295743, 0.11328745, 100.41700745, 75.85894775, 30.21999931, 0.00000000
1, 0.5102, 61, 0.15216064, -0.96337891, 0.16680908, 8.84515953, -8.55695629, 33.03016663, -26.22040367, 6.08009338, -52.79158020, 102.15359497, 21.00540924, -148.02896118, 0.03379634, -0.32075974, 0.70383531, 0.63291931, 0.20691453, 0.05097664, 0.02962576, 100.29300690, 86.26172638, 29.31999969, 0.00000000
1, 0.5452, 62, 0.21832275, -0.97082520, 0.18756104, 6.60515881, -4.67195511, 25.57516479, -26.36655998, 5.23238802, -51.85618210, 102.22721100, 20.07689667, -148.49107361, 0.03725868, -0.31342694, 0.70797092, 0.63178521, 0.12544933, 0.05306062, 0.01125714, 100.29300690, 86.26172638, 29.31999969, 0.00000000
1, 0.5502, 63, 0.22918701, -0.97045898, 0.20294189, 6.60515881, -5.54695463, 25.05016518, -26.36655998, 5.23238802, -51.85618210, 102.24068451, 19.96036720, -148.54817200, 0.03768753, -0.31251073, 0.70850414, 0.63161594, 0.11265728, 0.05205563, -0.00374992, 100.29300690, 86.26172638, 29.31999969, 0.00000000
1, 0.5552, 64, 0.22735596, -0.96710205, 0.24493408, 6.57015896, -7.05195570, 24.17516327, -26.45425224, 5.72931862, -52.06079865, 102.25177765, 19.84971809, -148.61209106, 0.03804616, -0.31157961, 0.70902604, 0.63146877, 0.11263996, 0.04808433, -0.04541204, 100.29300690, 86.26172638, 29.31999969, 0.00000000
1, 0.5602, 65, 0.23333740, -0.96331787, 0.26361084, 6.04515839, -9.57195663, 23.16016579, -26.45425224, 5.72931862, -52.06079865, 102.25631714, 19.74671555, -148.68791199, 0.03830592, -0.31060919, 0.70952290, 0.63137299, 0.10492910, 0.04371781, -0.06383275, 100.29300690, 86.26172638, 29.31999969, 0.00000000
1, 0.5652, 66, 0.21759033, -0.94677734, 0.30017090, 5.13515806, -14.22695827, 22.25016594, -26.30809593, 6.37240553, -51.76848984, 102.24866486, 19.65309143, -148.78683472, 0.03840881, -0.30953678, 0.70998931, 0.63136917, 0.11911067, 0.02660865, -0.10036651, 100.29300690, 86.26172638, 29.31999969, 0.00000000
1, 0.5702, 67, 0.20611572, -0.93316650, 0.31555176, 4.92515802, -18.14695740, 22.04016495, -26.30809593, 6.37240553, -51.76848984, 102.23338318, 19.56463623, -148.90577698, 0.03838725, -0.30836210, 0.71045250, 0.63142419, 0.12911244, 0.01243785, -0.11585020, 100.29300690, 86.26172638, 29.31999969, 0.00000000
1, 0.5752, 68, 0.19342041, -0.91601563, 0.32910156, 4.85515785, -22.31196213, 21.97016335, -26.30809593, 6.37240553, -51.76848984, 102.21076202, 19.48088646, -149.04611206, 0.03823553, -0.30707413, 0.71091861, 0.63153642, 0.14041221, -0.00526983, -0.12963039, 100.29300690, 86.26172638, 29.31999969, 0.00000000
1, 0.5802, 69, 0.16870117, -0.90679932, 0.34509277, 5.48515797, -25.74196053, 21.97016335, -26.68810272, 3.68313360, -51.24232483, 102.18560791, 19.40071297, -149.20414734, 0.03796890, -0.30569214, 0.71140635, 0.63167375, 0.16379783, -0.01503393, -0.14592506, 100.29300690, 86.26172638, 29.31999969, 0.00000000
1, 0.5902, 70, 0.14257813, -0.90728760, 0.38604736, 7.65515900, -28.08696365, 22.49516487, -26.24963379, 6.19701815, -51.50540543, 102.14546967, 19.24111176, -149.54202271, 0.03728170, -0.30279586, 0.71248537, 0.63189352, 0.18729910, -0.01559103, -0.18736164, 100.29300690, 86.26172638, 29.31999969, 0.00000000
1, 0.5952, 71, 0.11791992, -0.91113281, 0.39758301, 8.84515953, -27.35196304, 22.77516365, -26.24963379, 6.19701815, -51.50540543, 102.13480377, 19.15854454, -149.70895386, 0.03694243, -0.30134767, 0.71307379, 0.63194203, 0.21060358, -0.01224983, -0.19899607, 100.29300690, 86.26172638, 29.31999969, 0.00000000
1, 0.6002, 72, 0.10882568, -0.93096924, 0.42773438, 10.56016064, -24.23696136, 22.98516464, -26.24963379, 6.19701815, -51.50540543, 102.13817596, 19.07166290, -149.85992432, 0.03668323, -0.29998088, 0.71370542, 0.63189429, 0.21828631, 0.00710565, -0.22905457, 100.29300690, 86.26172638, 29.31999969, 0.00000000
1, 0.5699, 66, 0.06753002, -1.00431883, 0.19318748, 24.77235031, -2.04337263, 34.32337189, -22.74188805, 9.90938282, -57.79011917, 104.56987762, 0.81948382, -10.02608395, -0.60888541, 0.78839880, -0.06476528, -0.05908905, -0.05298936, 0.03613318, 0.05634420, 100.41700745, 75.85894775, 30.21999931, 0.00000000
1, 0.5749, 67, 0.05746066, -0.99685466, 0.22374159, 24.60197830, -2.48184586, 35.12129211, -22.74188805, 9.90938282, -57.79011917, 104.69261932, 0.65290999, -10.08211040, -0.60811847, 0.78894800, -0.06609951, -0.05817103, -0.04589441, 0.02912288, 0.02786846, 100.41700745, 75.85894775, 30.21999931, 0.00000000
1, 0.5799, 68, 0.04833366, -0.97537088, 0.26046258, 23.91320610, -1.28206491, 35.68442917, -23.29728127, 10.17246437, -57.79011917, 104.81211090, 0.48220438, -10.13338852, -0.60737813, 0.78947765, -0.06741920, -0.05719849, -0.03982143, 0.00808152, -0.00680325, 100.41700745, 75.85894775, 30.21999931, 0.00000000
1, 0.5849, 69, 0.04812578, -0.96436989, 0.29232985, 24.72749138, -0.80497295, 36.42153931, -23.29728127, 10.17246437, -57.79011917, 104.93585205, 0.30744153, -10.18365860, -0.60661066, 0.79002512, -0.06875335, -0.05618737, -0.04272141, -0.00244659, -0.03658111, 100.41700745, 75.85894775, 30.21999931, 0.00000000
1, 0.6052, 73, 0.09979248, -0.94628906, 0.44854736, 11.26015949, -21.50695801, 23.37016487, -26.74656487, 6.31394339, -51.85618210, 102.14975739, 18.98004532, -149.99711609, 0.03651042, -0.29867786, 0.71435547, 0.63178706, 0.22582987, 0.02195555, -0.24960671, 100.29300690, 86.26172638, 29.31999969, 0.00000000
1, 0.6102, 74, 0.07177734, -0.96545410, 0.44976807, 11.50516033, -17.41195869, 23.72016525, -26.74656487, 6.31394339, -51.85618210, 102.16952515, 18.88244629, -150.11349487, 0.03647164, -0.29747659, 0.71500880, 0.63161695, 0.25226197, 0.04065046, -0.25042772, 100.29300690, 86.26172638, 29.31999969, 0.00000000
1, 0.6152, 75, 0.06695557, -0.97894287, 0.43151855, 12.06516075, -12.19695854, 24.14016533, -26.30809593, 5.72931862, -51.50540543, 102.20082855, 18.77733612, -150.20338440, 0.03659980, -0.29640630, 0.71567345, 0.63135993, 0.25537801, 0.05366839, -0.23159903, 100.29300690, 86.26172638, 29.31999969, 0.00000000
1, 0.6202, 76, 0.05242920, -0.99078369, 0.42132568, 12.83516121, -6.91195583, 24.70016479, -26.30809593, 5.72931862, -51.50540543, 102.24469757, 18.66394615, -150.26666260, 0.03689840, -0.29546478, 0.71635699, 0.63100857, 0.26806438, 0.06504121, -0.22061580, 100.29300690, 86.26172638, 29.31999969, 0.00000000
1, 0.6252, 77, 0.03491211, -1.00885010, 0.40252686, 13.15016079, -1.38195372, 25.12016296, -26.30809593, 5.72931862, -51.50540543, 102.29919434, 18.54268074, -150.30195618, 0.03737729, -0.29466251, 0.71704453, 0.63057441, 0.28361031, 0.08264059, -0.20083618, 100.29300690, 86.26172638, 29.31999969, 0.00000000
1, 0.5899, 70, 0.01961311, -0.96200943, 0.31488597, 24.19423294, 2.17914867, 36.70977020, -23.61882401, 10.49400711, -57.11780167, 105.05713654, 0.12755647, -10.22025871, -0.60586900, 0.79056197, -0.07001673, -0.05506729, -0.01737943, -0.00430713, -0.05714038, 100.41700745, 75.85894775, 30.21999931, 0.00000000
1, 0.6149, 71, -0.10452059, -0.96722686, 0.38158756, 21.52677917, 16.85715103, 36.63790131, -23.18035698, 9.82168961, -57.00087738, 105.64710236, -0.85665691, -10.18408966, -0.60239899, 0.79321051, -0.07521636, -0.04769830, 0.08948457, 0.00362884, -0.11419726, 100.41700745, 75.85894775, 30.21999931, 0.00000000
1, 0.6199, 72, -0.10114291, -0.95594716, 0.40372920, 21.04048729, 18.77502441, 36.37433243, -23.18035698, 9.82168961, -57.00087738, 105.75206757, -1.05682313, -10.14252472, -0.60180378, 0.79368448, -0.07602116, -0.04602311, 0.08256727, -0.00713516, -0.13454828, 100.41700745, 75.85894775, 30.21999931, 0.00000000
1, 0.6249, 73, -0.09783009, -0.95403433, 0.38188750, 20.06556702, 17.21538353, 37.15576935, -23.18035698, 9.82168961, -57.00087738, 105.85219574, -1.25871849, -10.10988712, -0.60123616, 0.79412395, -0.07689183, -0.04438431, 0.07579638, -0.00846622, -0.11101288, 100.41700745, 75.85894775, 30.21999931, 0.00000000
1, 0.6352, 78, -0.00177002, -1.03564453, 0.36865234, 12.17016125, 12.05805111, 26.20516586, -26.45425224, 6.86933661, -52.03157043, 102.43486023, 18.27079964, -150.26924133, 0.03903379, -0.29356948, 0.71836871, 0.62947577, 0.31587180, 0.10846278, -0.16451111, 100.29300690, 86.26172638, 29.31999969, 0.00000000
1, 0.6402, 79, -0.00750732, -1.04180908, 0.33837891, 11.08516026, 16.08305168, 27.18516541, -25.37269783, 6.63548660, -51.65156174, 102.50643921, 18.12071609, -150.21748352, 0.04014255, -0.29317769, 0.71899319, 0.62887537, 0.31915778, 0.11409461, -0.13290562, 100.29300690, 86.26172638, 29.31999969, 0.00000000
1, 0.6299, 74, -0.11059190, -0.96457875, 0.37759003, 19.37515068, 15.62680721, 37.79268646, -23.91113663, 10.55247021, -56.65010071, 105.94899750, -1.46158481, -10.08610630, -0.60068601, 0.79453713, -0.07782477, -0.04278579, 0.08502546, 0.00263042, -0.10514353, 100.41700745, 75.85894775, 30.21999931, 0.00000000
1, 0.6349, 75, -0.11112037, -0.98073125, 0.36445451, 18.23169518, 16.00624084, 37.53587341, -23.91113663, 10.55247021, -56.65010071, 106.03990936, -1.66378677, -10.06048298, -0.60017413, 0.79491860, -0.07873648, -0.04118455, 0.08205545, 0.01933648, -0.09051546, 100.41700745, 75.85894775, 30.21999931, 0.00000000
1, 0.6399, 76, -0.10609277, -0.98489559, 0.36295825, 17.06816864, 15.03448963, 36.96668625, -24.26191139, 11.45863724, -56.21163177, 106.12506866, -1.86197686, -10.03906727, -0.59969592, 0.79526693, -0.07965180, -0.03963564, 0.07355164, 0.02402116, -0.08759072, 100.41700745, 75.85894775, 30.21999931, 0.00000000
1, 0.6449, 77, -0.12240914, -0.98120701, 0.35427693, 16.14502144, 11.80373096, 36.27048874, -24.26191139, 11.45863724, -56.21163177, 106.20600891, -2.05238199, -10.03249359, -0.59923548, 0.79558504, -0.08062577, -0.03821998, 0.08653352, 0.02085277, -0.07759891, 100.41700745, 75.85894775, 30.21999931, 0.00000000
1, 0.6499, 78, -0.13649884, -0.96773386, 0.32203025, 15.19748688, 10.62419128, 35.72865295, -24.26191139, 11.45863724, -56.21163177, 106.28238678, -2.23856950, -10.03110790, -0.59880096, 0.79587591, -0.08161019, -0.03686257, 0.09744275, 0.00792266, -0.04410810, 100.41700745, 75.85894775, 30.21999931, 0.00000000
1, 0.6899, 79, -0.26130819, -0.94475842, 0.32496214, 13.69209862, 7.39904213, 30.20280457, -25.43115997, 11.28325081, -55.86085892, 106.86608887, -3.61583424, -10.14059544, -0.59537476, 0.79795891, -0.08966842, -0.02738632, 0.19809702, -0.01098278, -0.03787534, 100.41700745, 75.85894775, 30.21999931, 0.00000000
1, 0.6949, 80, -0.28146902, -0.94310427, 0.30841693, 12.65228462, 7.80361700, 28.92875290, -25.43115997, 11.28325081, -55.86085892, 106.93000031, -3.76542664, -10.14502048, -0.59499639, 0.79818505, -0.09048522, -0.02631281, 0.21567269, -0.01211935, -0.02033909, 100.41700745, 75.85894775, 30.21999931, 0.00000000
1, 0.6452, 80, -0.01263428, -1.03442383, 0.32348633, 10.28016090, 19.05805397, 28.02516747, -25.37269783, 6.63548660, -51.65156174, 102.57823944, 17.96323967, -150.15165710, 0.04137789, -0.29283908, 0.71959960, 0.62825918, 0.32170129, 0.10614441, -0.11666673, 100.29300690, 86.26172638, 29.31999969, 0.00000000
1, 0.6502, 81, -0.02502441, -1.03039551, 0.30206299, 9.61515999, 20.98305511, 29.04016495, -25.37269783, 6.63548660, -51.65156174, 102.64912415, 17.79862976, -150.07739258, 0.04270989, -0.29251945, 0.72019547, 0.62763590, 0.33138803, 0.10152058, -0.09389919, 100.29300690, 86.26172638, 29.31999969, 0.00000000
1, 0.6552, 82, -0.04687500, -1.03186035, 0.28857422, 8.84515953, 22.90805626, 29.98516846, -27.36042023, 6.48933077, -51.41771317, 102.71852112, 17.62721062, -149.99465942, 0.04413798, -0.29222056, 0.72077674, 0.62700880, 0.35041565, 0.10235715, -0.07908388, 100.29300690, 86.26172638, 29.31999969, 0.00000000
1, 0.6999, 81, -0.30900478, -0.93923712, 0.29260805, 12.17006969, 9.21687412, 27.91701317, -25.43115997, 11.28325081, -55.86085892, 106.99094391, -3.91223717, -10.14136505, -0.59463817, 0.79840267, -0.09122942, -0.02521825, 0.24068081, -0.01548493, -0.00361625, 100.41700745, 75.85894775, 30.21999931, 0.00000000
1, 0.7049, 82, -0.31516317, -0.94203830, 0.29263365, 12.36103535, 10.87647629, 27.04278183, -26.42502213, 11.31248188, -55.97778320, 107.05307770, -4.08376741, -10.13209629, -0.59428257, 0.79861194, -0.09206058, -0.02391973, 0.24407375, -0.01218723, -0.00269213, 100.41700745, 75.85894775, 30.21999931, 0.00000000
1, 0.7099, 83, -0.30876702, -0.94632173, 0.29653695, 11.77610683, 11.87941933, 25.67204666, -26.42502213, 11.31248188, -55.97778320, 107.11086273, -4.22373772, -10.11269665, -0.59394407, 0.79882771, -0.09265655, -0.02279231, 0.23497809, -0.00742116, -0.00565174, 100.41700745, 75.85894775, 30.21999931, 0.00000000
1, 0.6602, 83, -0.06799316, -1.03411865, 0.27996826, 8.35515976, 25.04305649, 30.86016464, -27.36042023, 6.48933077, -51.41771317, 102.78812408, 17.44907188, -149.90229797, 0.04566326, -0.29195073, 0.72134942, 0.62636626, 0.36859807, 0.10396370, -0.06914182, 100.29300690, 86.26172638, 29.31999969, 0.00000000
1, 0.6652, 84, -0.07366943, -1.03656006, 0.26416016, 7.69015884, 26.86305618, 31.91016960, -27.15580177, 6.60625553, -51.30078888, 102.85644531, 17.26368904, -149.80218506, 0.04728285, -0.29169539, 0.72191131, 0.62571734, 0.37122104, 0.10572538, -0.05200675, 100.29300690, 86.26172638, 29.31999969, 0.00000000
1, 0.6702, 85, -0.07928467, -1.04321289, 0.26062012, 6.46515894, 28.92805672, 33.90516663, -27.15580177, 6.60625553, -51.30078888, 102.92064667, 17.06616974, -149.69419861, 0.04903736, -0.29142991, 0.72245830, 0.62507433, 0.37359267, 0.11164179, -0.04717856, 100.29300690, 86.26172638, 29.31999969, 0.00000000
1, 0.7149, 84, -0.28395814, -0.94537556, 0.30333823, 11.78024578, 14.01831055, 23.61984444, -26.19117165, 11.75094986, -55.59777832, 107.16762543, -4.35705757, -10.08017349, -0.59361124, 0.79905254, -0.09312546, -0.02164371, 0.20780107, -0.00792138, -0.01150099, 100.41700745, 75.85894775, 30.21999931, 0.00000000
1, 0.7199, 85, -0.25947902, -0.94762123, 0.30880168, 11.61316776, 15.69392776, 21.94435310, -26.19117165, 11.75094986, -55.59777832, 107.22265625, -4.48486376, -10.03726101, -0.59328854, 0.79927999, -0.09349211, -0.02048087, 0.18106329, -0.00523407, -0.01603333, 100.41700745, 75.85894775, 30.21999931, 0.00000000
1, 0.7249, 86, -0.25388983, -0.95118916, 0.30063337, 11.67067051, 16.49538803, 20.49053574, -26.19117165, 11.75094986, -55.59777832, 107.27739716, -4.60695076, -9.98848724, -0.59296495, 0.79951417, -0.09378736, -0.01932762, 0.17334187, -0.00120910, -0.00699987, 100.41700745, 75.85894775, 30.21999931, 0.00000000
1, 0.6752, 86, -0.07513428, -1.04241943, 0.25408936, 5.03015757, 29.87305832, 34.85017014, -27.15580177, 6.60625553, -51.30078888, 102.97828674, 16.86287498, -149.58283997, 0.05086550, -0.29115620, 0.72297323, 0.62446010, 0.36606920, 0.11006452, -0.03944956, 100.29300690, 86.26172638, 29.31999969, 0.00000000
1, 0.7299, 87, -0.24828774, -0.96003878, 0.28239802, 11.62860394, 16.73562050, 19.16481018, -26.83425903, 12.07249355, -55.97778320, 107.33157349, -4.72310495, -9.93668938, -0.59264183, 0.79975170, -0.09402989, -0.01820047, 0.16574201, 0.00810968, 0.01208858, 100.41700745, 75.85894775, 30.21999931, 0.00000000
1, 0.7349, 88, -0.24588563, -0.96256459, 0.28234008, 11.97815037, 17.00746918, 18.11527443, -26.83425903, 12.07249355, -55.97778320, 107.38713074, -4.83470058, -9.88213444, -0.59230620, 0.80000138, -0.09422897, -0.01708965, 0.16137853, 0.01107767, 0.01301635, 100.41700745, 75.85894775, 30.21999931, 0.00000000
1, 0.6802, 87, -0.08074951, -1.04205322, 0.26000977, 3.14015746, 29.80305672, 35.90016937, -28.06196976, 6.37240553, -50.74539566, 103.02555084, 16.65445328, -149.47337341, 0.05274383, -0.29084215, 0.72344726, 0.62390149, 0.36822295, 0.10886797, -0.04431671, 100.29300690, 86.26172638, 29.31999969, 0.00000000
1, 0.8699, 89, -0.12452910, -0.94533014, 0.34290588, 6.97664976, 18.96953392, 18.75149536, -30.19584846, 12.97866154, -54.89622879, 108.71885681, -7.81066799, -7.52193022, -0.58372450, 0.80645174, -0.09278482, 0.01709864, -0.01171920, 0.00634631, -0.02690227, 100.41700745, 75.85894775, 30.21999931, 0.00000000
1, 0.8749, 90, -0.18007359, -0.95445633, 0.31696969, 6.51799440, 18.59002686, 18.43281746, -30.31277466, 10.11400127, -55.01315308, 108.74356842, -7.92762566, -7.46272802, -0.58355480, 0.80653000, -0.09295259, 0.01824868, 0.04185750, 0.01591849, -0.00080044, 100.41700745, 75.85894775, 30.21999931, 0.00000000
1, 0.7352, 88, 0.13116455, -0.97808838, 0.20971680, 2.19515729, 24.48305511, 40.17016983, -30.07892418, 6.89856768, -50.97924423, 103.41284180, 14.19184494, -148.43403625, 0.07396448, -0.28550383, 0.72864980, 0.61813140, 0.11494663, 0.03525487, 0.01499041, 100.29300690, 86.26172638, 29.31999969, 0.00000000
1, 0.7402, 89, 0.12731934, -0.97418213, 0.23199463, 2.54515743, 23.64305687, 38.91016769, -30.10815430, 5.93393755, -50.45308304, 103.44306946, 13.97515774, -148.36207581, 0.07573377, -0.28491202, 0.72912538, 0.61762911, 0.11508809, 0.03055990, -0.00657310, 100.29300690, 86.26172638, 29.31999969, 0.00000000
1, 0.7452, 90, 0.12103271, -0.96954346, 0.23901367, 2.02015710, 22.52305603, 38.00016785, -30.10815430, 5.93393755, -50.45308304, 103.46931458, 13.76416016, -148.29481506, 0.07744913, -0.28431615, 0.72957653, 0.61715806, 0.11777392, 0.02516356, -0.01292245, 100.29300690, 86.26172638, 29.31999969, 0.00000000
1, 0.7502, 91, 0.10626221, -0.97113037, 0.25823975, 1.42515695, 19.72305489, 36.70516968, -30.98509216, 6.10932446, -50.54077530, 103.48935699, 13.56270409, -148.24014282, 0.07904760, -0.28368318, 0.73000246, 0.61674297, 0.12909022, 0.02601374, -0.03160550, 100.29300690, 86.26172638, 29.31999969, 0.00000000
1, 0.8799, 91, -0.15188104, -0.88067460, 0.28760022, 4.61652231, 19.93328857, 18.38388062, -30.31277466, 10.11400127, -55.01315308, 108.75773621, -8.04654980, -7.39705706, -0.58345681, 0.80655771, -0.09308600, 0.01943706, 0.01171114, -0.05745117, 0.02895026, 100.41700745, 75.85894775, 30.21999931, 0.00000000
1, 0.8849, 92, -0.12475824, -0.90176022, 0.28672877, 6.26027250, 19.57057571, 19.58113861, -30.31277466, 10.11400127, -55.01315308, 108.78054810, -8.17055798, -7.33505344, -0.58329731, 0.80662185, -0.09326890, 0.02064987, -0.01754479, -0.03596660, 0.03008269, 100.41700745, 75.85894775, 30.21999931, 0.00000000
1, 0.8899, 93, -0.07433571, -0.90774047, 0.31669566, 6.50255442, 17.45391846, 20.78948212, -30.48816109, 12.71557999, -55.07161713, 108.80617523, -8.29692364, -7.28518057, -0.58311868, 0.80668783, -0.09354801, 0.02181999, -0.07020602, -0.02959812, 0.00054802, 100.41700745, 75.85894775, 30.21999931, 0.00000000
1, 0.7552, 92, 0.09881592, -0.97674561, 0.27526855, 0.30515659, 17.06305313, 35.34016800, -30.98509216, 6.10932446, -50.54077530, 103.50088501, 13.37097263, -148.19723511, 0.08053821, -0.28301734, 0.73038822, 0.61639917, 0.13324267, 0.03091482, -0.04821748, 100.29300690, 86.26172638, 29.31999969, 0.00000000
1, 0.7602, 93, 0.06115723, -0.97723389, 0.29675293, -0.81484377, 14.82305050, 34.18516922, -30.98509216, 6.10932446, -50.54077530, 103.50440979, 13.18747139, -148.16418457, 0.08193997, -0.28232336, 0.73073536, 0.61612105, 0.16775131, 0.03069851, -0.06944000, 100.29300690, 86.26172638, 29.31999969, 0.00000000
1, 0.7652, 94, 0.07049561, -0.97528076, 0.30187988, -1.37484396, 13.03805065, 33.45016861, -31.39432907, 6.54779291, -50.89155197, 103.50318909, 13.00962162, -148.13920593, 0.08327176, -0.28160205, 0.73106295, 0.61588395, 0.15536781, 0.02805331, -0.07440376, 100.29300690, 86.26172638, 29.31999969, 0.00000000
1, 0.8949, 94, -0.11762301, -0.91667736, 0.34241784, 6.85633755, 14.92217445, 21.91640854, -30.48816109, 12.71557999, -55.07161713, 108.83548737, -8.42457676, -7.24929285, -0.58291543, 0.80675960, -0.09393074, 0.02293123, -0.02919298, -0.02024147, -0.02494352, 100.41700745, 75.85894775, 30.21999931, 0.00000000
1, 0.8999, 95, -0.13848446, -0.92210281, 0.34638840, 6.11035633, 14.84590530, 21.92408562, -30.57585526, 11.75094986, -55.24700165, 108.86108398, -8.55217171, -7.21383667, -0.58273703, 0.80681115, -0.09431636, 0.02403697, -0.01053745, -0.01435983, -0.02862972, 100.41700745, 75.85894775, 30.21999931, 0.00000000
1, 0.9049, 96, -0.18130541, -0.92910933, 0.30903199, 5.82260799, 15.08953857, 21.82839775, -30.57585526, 11.75094986, -55.24700165, 108.88280487, -8.68527317, -7.17696285, -0.58258468, 0.80683893, -0.09471995, 0.02518590, 0.03012504, -0.00684340, 0.00887056, 100.41700745, 75.85894775, 30.21999931, 0.00000000
1, 0.9099, 97, -0.18549600, -0.92710233, 0.29244107, 5.59373903, 16.37556458, 21.86196327, -30.57585526, 11.75094986, -55.24700165, 108.90451813, -8.81507301, -7.13415384, -0.58242935, 0.80687356, -0.09506468, 0.02634170, 0.03208768, -0.00837508, 0.02568925, 100.41700745, 75.85894775, 30.21999931, 0.00000000
1, 0.9149, 98, -0.15759902, -0.92148840, 0.30843651, 6.58454943, 19.76037025, 21.96508408, -30.98509216, 13.00789261, -54.83776474, 108.92862701, -8.95082188, -7.07533407, -0.58225197, 0.80692792, -0.09532543, 0.02762314, 0.00183102, -0.01354613, 0.01002742, 100.41700745, 75.85894775, 30.21999931, 0.00000000
1, 0.7702, 95, 0.04364014, -0.98309326, 0.31005859, -2.38984442, 11.07804966, 32.61016846, -31.39432907, 6.54779291, -50.89155197, 103.49486542, 12.83814621, -148.12300110, 0.08453073, -0.28085053, 0.73135835, 0.61570489, 0.17928006, 0.03518159, -0.08252930, 100.29300690, 86.26172638, 29.31999969, 0.00000000
1, 0.8452, 96, 0.06976318, -0.97924805, 0.33825684, 1.32015693, 25.98805618, 26.90516663, -32.82666016, 6.57702398, -51.38848114, 103.51076508, 10.56780052, -147.40995789, 0.10352857, -0.27414310, 0.73462778, 0.61192274, 0.11433080, 0.02351675, -0.10872121, 100.29300690, 86.26172638, 29.31999969, 0.00000000
1, 0.8502, 97, 0.06298828, -0.98303223, 0.33197021, 0.37515658, 27.10805702, 27.18516541, -33.00204468, 5.78778124, -50.92078400, 103.53115845, 10.40395164, -147.30825806, 0.10511871, -0.27399683, 0.73483956, 0.61146271, 0.11830573, 0.02688045, -0.10195782, 100.29300690, 86.26172638, 29.31999969, 0.00000000
1, 0.8552, 98, 0.04321289, -0.98272705, 0.32421875, -0.25484362, 28.99805641, 27.81516647, -33.00204468, 5.78778124, -50.92078400, 103.54962921, 10.23479652, -147.19807434, 0.10679350, -0.27387711, 0.73503119, 0.61099571, 0.13520044, 0.02613924, -0.09376731, 100.29300690, 86.26172638, 29.31999969, 0.00000000
1, 0.8602, 99, 0.03576660, -0.97674561, 0.32025146, -1.26984394, 30.57305717, 28.13016510, -33.00204468, 5.78778124, -50.92078400, 103.56398010, 10.06223106, -147.08059692, 0.10853896, -0.27378362, 0.73518980, 0.61053896, 0.13969539, 0.01970544, -0.08941274, 100.29300690, 86.26172638, 29.31999969, 0.00000000
1, 0.8652, 100, 0.03564453, -0.97167969, 0.31207275, -1.61984420, 32.28805542, 28.37516594, -34.05437088, 6.08009338, -51.41771317, 103.57762146, 9.88643456, -146.95504761, 0.11034979, -0.27372539, 0.73533142, 0.61006975, 0.13680866, 0.01417759, -0.08088236, 100.29300690, 86.26172638, 29.31999969, 0.00000000
1, 0.8702, 101, 0.03546143, -0.96636963, 0.31164551, -2.31984425, 33.75805664, 28.79516602, -34.05437088, 6.08009338, -51.41771317, 103.58852386, 9.70684910, -146.82286072, 0.11222693, -0.27368850, 0.73544967, 0.60960120, 0.13392237, 0.00839576, -0.08014046, 100.29300690, 86.26172638, 29.31999969, 0.00000000
1, 0.9499, 99, -0.00776352, -0.95394886, 0.32619169, 5.73348284, 11.89581013, 27.18649673, -32.09587860, 13.47559166, -54.25314331, 109.10833740, -9.97342396, -6.73488045, -0.58090025, 0.80721796, -0.09799495, 0.03675632, -0.16560680, 0.02264807, -0.00543635, 100.41700745, 75.85894775, 30.21999931, 0.00000000
1, 0.9549, 100, -0.01211546, -0.94605339, 0.32703060, 5.52004147, 9.21893024, 28.35223770, -32.09587860, 13.47559166, -54.25314331, 109.13713074, -10.09900951, -6.73470402, -0.58069414, 0.80724901, -0.09861170, 0.03767312, -0.16360882, 0.01530073, -0.00595470, 100.41700745, 75.85894775, 30.21999931, 0.00000000
1, 0.8752, 102, 0.03161621, -0.97302246, 0.31500244, -2.63484454, 35.29805374, 29.32016754, -33.93744659, 3.94621444, -51.09616852, 103.59857178, 9.52287197, -146.68382263, 0.11417077, -0.27367303, 0.73555541, 0.60911942, 0.13462245, 0.01457119, -0.08319378, 100.29300690, 86.26172638, 29.31999969, 0.00000000
1, 0.8802, 103, 0.04223633, -0.97930908, 0.32037354, -3.01984453, 36.80305862, 29.74016762, -33.93744659, 3.94621444, -51.09616852, 103.60736084, 9.33506489, -146.53797913, 0.11617818, -0.27368104, 0.73564529, 0.60862738, 0.12078366, 0.02037245, -0.08828657, 100.29300690, 86.26172638, 29.31999969, 0.00000000
1, 0.9352, 104, 0.28210449, -0.94250488, 0.32360840, -5.85484600, 29.87305832, 32.71516800, -35.95439911, 6.05086231, -50.92078400, 103.53383636, 7.16076231, -144.88069153, 0.13957797, -0.27336821, 0.73577625, 0.60367304, -0.15661289, -0.02202496, -0.09137297, 100.29300690, 86.26172638, 29.31999969, 0.00000000
1, 0.9402, 105, 0.30877686, -0.93658447, 0.30932617, -5.78484583, 26.37305641, 32.92516708, -35.89593506, 6.22624969, -51.21309662, 103.51603699, 6.96986294, -144.79029846, 0.14136067, -0.27297017, 0.73585474, 0.60334259, -0.18660846, -0.02841869, -0.07728493, 100.29300690, 86.26172638, 29.31999969, 0.00000000
1, 0.9452, 106, 0.29754639, -0.93597412, 0.29571533, -5.50484562, 21.78805542, 33.13516998, -35.89593506, 6.22624969, -51.21309662, 103.49663544, 6.78332233, -144.72257996, 0.14299791, -0.27244553, 0.73596907, 0.60305446, -0.17862906, -0.02948944, -0.06390063, 100.29300690, 86.26172638, 29.31999969, 0.00000000
1, 0.9599, 101, -0.01445355, -0.94204640, 0.33112690, 5.22773266, 7.26406050, 29.88671112, -32.09587860, 13.47559166, -54.25314331, 109.16624451, -10.25205040, -6.74937487, -0.58048916, 0.80724216, -0.09946939, 0.03871013, -0.16369137, 0.01185927, -0.00971706, 100.41700745, 75.85894775, 30.21999931, 0.00000000
1, 0.9649, 102, -0.02676195, -0.94043970, 0.31740993, 5.25527859, 5.31371021, 31.34711647, -32.38819122, 10.46477604, -54.34083557, 109.19766998, -10.40879250, -6.77592134, -0.58027107, 0.80723137, -0.10042767, 0.03971568, -0.15401593, 0.01090365, 0.00430468, 100.41700745, 75.85894775, 30.21999931, 0.00000000
1, 0.9699, 103, -0.04620977, -0.94363773, 0.30811656, 5.63846016, 3.55536151, 33.64882278, -32.38819122, 10.46477604, -54.34083557, 109.23335266, -10.57350922, -6.81486940, -0.58002657, 0.80722165, -0.10151073, 0.04071930, -0.13734224, 0.01480139, 0.01394136, 100.41700745, 75.85894775, 30.21999931, 0.00000000
1, 0.9502, 107, 0.29504395, -0.92297363, 0.27484131, -4.87484503, 17.44805145, 33.24017334, -36.56825638, 6.34317446, -51.24232483, 103.47768402, 6.60135698, -144.67619324, 0.14449061, -0.27180645, 0.73612612, 0.60279530, -0.17929998, -0.04293231, -0.04326336, 100.29300690, 86.26172638, 29.31999969, 0.00000000
1, 0.9552, 108, 0.27490234, -0.90966797, 0.26531982, -3.68484473, 12.82805061, 33.17016983, -36.56825638, 6.34317446, -51.24232483, 103.46198273, 6.42512608, -144.65228271, 0.14581861, -0.27105489, 0.73634082, 0.60255152, -0.16223967, -0.05665002, -0.03394128, 100.29300690, 86.26172638, 29.31999969, 0.00000000
1, 0.9602, 109, 0.25567627, -0.90264893, 0.25823975, -2.14484406, 8.87304974, 33.13516998, -36.56825638, 6.34317446, -51.24232483, 103.45175934, 6.25367832, -144.64764404, 0.14700009, -0.27020970, 0.73661906, 0.60230404, -0.14600539, -0.06404211, -0.02698208, 100.29300690, 86.26172638, 29.31999969, 0.00000000
1, 0.9652, 110, 0.21936035, -0.90686035, 0.25964355, -0.60484374, 6.03804874, 33.76516724, -36.04209137, 5.90470600, -51.53463745, 103.44767761, 6.08245993, -144.65762329, 0.14808846, -0.26927894, 0.73696172, 0.60203493, -0.11265792, -0.06016564, -0.02839739, 100.29300690, 86.26172638, 29.31999969, 0.00000000
1, 0.9702, 111, 0.19299316, -0.90191650, 0.24920654, 0.27015656, 1.87304747, 34.18516922, -36.04209137, 5.90470600, -51.53463745, 103.44580841, 5.91404152, -144.68843079, 0.14904334, -0.26823035, 0.73735762, 0.60178268, -0.08922903, -0.06542153, -0.01792838, 100.29300690, 86.26172638, 29.31999969, 0.00000000
1, 0.9749, 104, -0.05126933, -0.94968843, 0.31220490, 5.86441612, 2.92213869, 35.45356369, -31.89126015, 12.56942368, -54.51622391, 109.27146912, -10.74568653, -6.85998201, -0.57976639, 0.80720901, -0.10267255, 0.04174745, -0.13521615, 0.02157525, 0.01025863, 100.41700745, 75.85894775, 30.21999931, 0.00000000
1, 0.9799, 105, -0.06343495, -0.95148373, 0.31567201, 5.70503855, 1.67221987, 36.68768692, -31.89126015, 12.56942368, -54.51622391, 109.31045532, -10.92160606, -6.91333055, -0.57950258, 0.80718708, -0.10390961, 0.04276201, -0.12606281, 0.02412592, 0.00720033, 100.41700745, 75.85894775, 30.21999931, 0.00000000
1, 0.9849, 106, -0.08132781, -0.94753540, 0.30809444, 5.25340891, 0.98504895, 37.58841324, -31.89126015, 12.56942368, -54.51622391, 109.34834290, -11.10061169, -6.97164392, -0.57924801, 0.80714893, -0.10519630, 0.04377314, -0.11120577, 0.02096442, 0.01515932, 100.41700745, 75.85894775, 30.21999931, 0.00000000
1, 0.9899, 107, -0.09263752, -0.93466890, 0.30401278, 5.12372494, 0.06540732, 38.12897873, -32.44665146, 13.70944118, -54.48699188, 109.38681030, -11.28061962, -7.03545618, -0.57899123, 0.80710447, -0.10652535, 0.04476489, -0.10296462, 0.00889416, 0.01965171, 100.41700745, 75.85894775, 30.21999931, 0.00000000
1, 0.9949, 108, -0.11230744, -0.92132521, 0.29425803, 5.38460684, -0.71985614, 39.01829910, -32.44665146, 13.70944118, -54.48699188, 109.42787933, -11.46348000, -7.10471821, -0.57871807, 0.80706179, -0.10790475, 0.04575261, -0.08638462, -0.00361595, 0.02982327, 100.41700745, 75.85894775, 30.21999931, 0.00000000
1, 0.9952, 112, 0.13519287, -0.89410400, 0.32220459, -0.11484358, -8.31195641, 33.80016708, -37.32826614, 6.72318029, -51.44694519, 103.41440582, 5.10703087, -144.98532104, 0.15288493, -0.26220134, 0.73944974, 0.60090828, -0.04550932, -0.07468612, -0.09111524, 100.29300690, 86.26172638, 29.31999969, 0.00000000
1, 1.0002, 113, 0.14013672, -0.90216064, 0.35009766, -0.63984364, -10.83195591, 33.55516815, -37.88365936, 6.05086231, -52.26541901, 103.40314484, 4.95638418, -145.07728577, 0.15342236, -0.26083007, 0.73988831, 0.60082829, -0.05308736, -0.06689567, -0.11911751, 100.29300690, 86.26172638, 29.31999969, 0.00000000
1, 1.0052, 114, 0.14709473, -0.91009521, 0.36157227, -1.37484396, -13.03695774, 33.52016830, -37.88365936, 6.05086231, -52.26541901, 103.38754272, 4.80844498, -145.17990112, 0.15389569, -0.25939661, 0.74032015, 0.60079592, -0.06263587, -0.05923761, -0.13079077, 100.29300690, 86.26172638, 29.31999969, 0.00000000
1, 1.0249, 109, -0.03192300, -0.87555575, 0.34100565, 6.91937542, 6.45806408, 46.77616882, -32.68050385, 13.35866737, -54.72084045, 109.67945099, -12.71115780, -7.40726423, -0.57697731, 0.80670494, -0.11609946, 0.05334209, -0.18797298, -0.04379563, -0.01412697, 100.41700745, 75.85894775, 30.21999931, 0.00000000
1, 1.0299, 110, -0.00430949, -0.87824821, 0.37323901, 6.82966328, 5.47223616, 48.64662933, -32.68050385, 13.35866737, -54.72084045, 109.72692108, -12.94938278, -7.46451902, -0.57664627, 0.80661887, -0.11765459, 0.05479661, -0.21969226, -0.04002559, -0.04584537, 100.41700745, 75.85894775, 30.21999931, 0.00000000
1, 1.0349, 111, 0.01054925, -0.88310122, 0.37922928, 6.63430786, 4.31975269, 50.16394424, -32.68050385, 13.35866737, -54.72084045, 109.77558899, -13.19276905, -7.53021955, -0.57630956, 0.80651897, -0.11929201, 0.05624770, -0.23868363, -0.03401034, -0.05135782, 100.41700745, 75.85894775, 30.21999931, 0.00000000
1, 1.0399, 112, 0.00065553, -0.89441824, 0.37545377, 6.57607365, 3.61855078, 51.79542542, -33.84975052, 14.38175964, -54.31160355, 109.82574463, -13.44260311, -7.60243177, -0.57596439, 0.80640692, -0.12100409, 0.05771466, -0.23299699, -0.02146474, -0.04716196, 100.41700745, 75.85894775, 30.21999931, 0.00000000
1, 1.0449, 113, -0.01535854, -0.90888190, 0.35620660, 6.17697382, 1.72650969, 53.57812500, -33.84975052, 14.38175964, -54.31160355, 109.87718964, -13.69756985, -7.68720913, -0.57561541, 0.80627590, -0.12282684, 0.05915767, -0.22124046, -0.00570307, -0.02751536, 100.41700745, 75.85894775, 30.21999931, 0.00000000
1, 1.0499, 114, -0.03855638, -0.92879295, 0.34276760, 5.66427612, 0.39212921, 55.30545044, -33.61590195, 14.41099072, -53.75621033, 109.92881012, -13.95833015, -7.78179026, -0.57526946, 0.80612177, -0.12474449, 0.06059425, -0.20240436, 0.01554070, -0.01370808, 100.41700745, 75.85894775, 30.21999931, 0.00000000
1, 1.0549, 115, -0.04770833, -0.94132495, 0.34911022, 5.54744911, 1.57362258, 56.84234619, -33.61590195, 14.41099072, -53.75621033, 109.98056793, -14.20883465, -7.87176657, -0.57492131, 0.80597889, -0.12657696, 0.06198252, -0.19763270, 0.02938385, -0.01964675, 100.41700745, 75.85894775, 30.21999931, 0.00000000
1, 1.0599, 116, -0.04258482, -0.95015550, 0.36428726, 5.68448067, 2.34046173, 58.33106232, -33.61590195, 14.41099072, -53.75621033, 110.03229523, -14.48696613, -7.96291399, -0.57457024, 0.80579382, -0.12855035, 0.06356297, -0.20730083, 0.03956733, -0.03439518, 100.41700745, 75.85894775, 30.21999931, 0.00000000
1, 1.0102, 115, 0.15618896, -0.91778564, 0.37408447, -1.96984434, -15.73195934, 33.17016983, -38.35136032, 5.96316862, -51.15463257, 103.36818695, 4.66529417, -145.29518127, 0.15427911, -0.25789917, 0.74074864, 0.60081398, -0.07423310, -0.05182517, -0.14356822, 100.29300690, 86.26172638, 29.31999969, 0.00000000
1, 1.0152, 116, 0.17028809, -0.91967773, 0.37792969, -2.80984426, -16.67695808, 33.03017044, -38.35136032, 5.96316862, -51.15463257, 103.34455872, 4.52386808, -145.41484070, 0.15463738, -0.25637510, 0.74115801, 0.60086924, -0.09079947, -0.05021865, -0.14775075, 100.29300690, 86.26172638, 29.31999969, 0.00000000
1, 1.0202, 117, 0.18212891, -0.92657471, 0.38177490, -3.05484462, -16.85195923, 32.78516388, -38.35136032, 5.96316862, -51.15463257, 103.31995392, 4.38379002, -145.53501892, 0.15498592, -0.25485206, 0.74155742, 0.60093457, -0.10508553, -0.04360674, -0.15196648, 100.29300690, 86.26172638, 29.31999969, 0.00000000
1, 1.0649, 117, -0.04239175, -0.95945275, 0.37655547, 5.91587925, 1.22325206, 59.98400116, -34.11283112, 14.26483440, -54.45775986, 110.08785248, -14.77087975, -8.06278992, -0.57419610, 0.80560315, -0.13060836, 0.06514664, -0.21230230, 0.05032706, -0.04623490, 100.41700745, 75.85894775, 30.21999931, 0.00000000
1, 1.0699, 118, -0.04458810, -0.93948960, 0.35733703, 5.26888418, -0.80523580, 61.55628967, -34.11283112, 14.26483440, -54.45775986, 110.14403534, -15.05861378, -8.17573833, -0.57382441, 0.80538732, -0.13277346, 0.06669442, -0.21489334, 0.03192332, -0.02654296, 100.41700745, 75.85894775, 30.21999931, 0.00000000
1, 1.1299, 119, -0.47125909, -0.91065872, 0.27165815, 9.70522785, 4.62660694, 82.23996735, -36.53902435, 15.14177132, -53.63928604, 111.28443146, -19.04672050, -10.26932430, -0.56657165, 0.80252850, -0.16586238, 0.08622320, 0.14589533, 0.02877818, 0.06868292, 100.41700745, 75.85894775, 30.21999931, 0.00000000
1, 1.1349, 120, -0.47300479, -0.92313576, 0.26667863, 9.85385513, 15.90886879, 82.43688965, -36.53902435, 15.14177132, -53.63928604, 111.36089325, -19.45962143, -10.34882355, -0.56602204, 0.80211478, -0.16831167, 0.08889385, 0.14094287, 0.04391894, 0.07403268, 100.41700745, 75.85894775, 30.21999931, 0.00000000
1, 1.1399, 121, -0.42491502, -0.95064723, 0.27411523, 10.46508789, 30.15181541, 82.80364227, -36.91902924, 15.28792763, -53.81467438, 111.41774750, -19.89999771, -10.35928059, -0.56554610, 0.80164725, -0.17041638, 0.09207471, 0.08567500, 0.07415002, 0.06666687, 100.41700745, 75.85894775, 30.21999931, 0.00000000
1, 1.1449, 122, -0.37035644, -0.97662556, 0.26904717, 10.07321739, 36.19736099, 83.30325317, -36.91902924, 15.28792763, -53.81467438, 111.46291351, -20.35371017, -10.34118271, -0.56511784, 0.80112970, -0.17238806, 0.09547482, 0.02373798, 0.10293022, 0.07157631, 100.41700745, 75.85894775, 30.21999931, 0.00000000
1, 1.1499, 123, -0.31798494, -0.99373507, 0.26325071, 10.00088787, 42.31287384, 83.90562439, -37.29903412, 12.45249939, -54.10698700, 111.49738312, -20.82138443, -10.29411316, -0.56472647, 0.80056727, -0.17422703, 0.09910129, -0.03620305, 0.12290572, 0.07700185, 100.41700745, 75.85894775, 30.21999931, 0.00000000
1, 1.0252, 118, 0.19970703, -0.93151855, 0.38983154, -3.29984474, -17.02695847, 32.36516953, -37.64981079, 5.84624386, -50.62847137, 103.29439545, 4.24590254, -145.65544128, 0.15532014, -0.25333574, 0.74194503, 0.60101104, -0.12507370, -0.03894284, -0.16041011, 100.29300690, 86.26172638, 29.31999969, 0.00000000
1, 1.0302, 119, 0.20227051, -0.92803955, 0.39031982, -3.82484484, -17.65695953, 31.63016701, -37.64981079, 5.84624386, -50.62847137, 103.26634216, 4.11226130, -145.77801514, 0.15562007, -0.25182250, 0.74231315, 0.60111493, -0.12998256, -0.04269955, -0.16132268, 100.29300690, 86.26172638, 29.31999969, 0.00000000
1, 1.0352, 120, 0.19171143, -0.91406250, 0.38299561, -3.57984471, -18.18195915, 30.82516670, -37.76673508, 5.93393755, -51.21309662, 103.23967743, 3.98307920, -145.90214539, 0.15587883, -0.25032258, 0.74268049, 0.60122061, -0.12169206, -0.05694292, -0.15442288, 100.29300690, 86.26172638, 29.31999969, 0.00000000
1, 1.1549, 124, -0.24422079, -1.01132941, 0.26903746, 10.35668087, 48.45281601, 85.09901428, -37.29903412, 12.45249939, -54.10698700, 111.51816559, -21.29900742, -10.21523952, -0.56438768, 0.79995692, -0.17589848, 0.10293378, -0.11775729, 0.14341053, 0.07066280, 100.41700745, 75.85894775, 30.21999931, 0.00000000
1, 1.1599, 125, -0.17092240, -1.03391576, 0.27739966, 10.15104008, 51.12795258, 86.77778625, -37.29903412, 12.45249939, -54.10698700, 111.53862000, -21.79618645, -10.12982178, -0.56402463, 0.79930896, -0.17761272, 0.10693617, -0.19904888, 0.16900826, 0.06158810, 100.41700745, 75.85894775, 30.21999931, 0.00000000
1, 1.1649, 126, -0.10994222, -1.03935444, 0.25315687, 9.41010857, 51.20048141, 89.31269073, -38.35136032, 15.49254608, -54.16544724, 111.55639648, -22.30533409, -10.04892635, -0.56366467, 0.79860693, -0.17941350, 0.11099589, -0.26816362, 0.17766148, 0.08503260, 100.41700745, 75.85894775, 30.21999931, 0.00000000
1, 1.0402, 121, 0.17358398, -0.90051270, 0.37768555, -2.91484475, -18.04195786, 29.63516617, -37.76673508, 5.93393755, -51.21309662, 103.21676636, 3.85947657, -146.02416992, 0.15610321, -0.24886878, 0.74304962, 0.60130978, -0.10573626, -0.07073332, -0.14948040, 100.29300690, 86.26172638, 29.31999969, 0.00000000
1, 1.0452, 122, 0.15637207, -0.87420654, 0.37805176, -2.03984427, -16.92195892, 28.62016487, -37.76673508, 5.93393755, -51.21309662, 103.19892883, 3.73949099, -146.13948059, 0.15632749, -0.24748273, 0.74342138, 0.60136414, -0.09063336, -0.09725436, -0.15014395, 100.29300690, 86.26172638, 29.31999969, 0.00000000
1, 1.0802, 123, 0.05102539, -0.82000732, 0.34069824, 1.70515704, -3.65695453, 24.52516556, -37.76673508, 5.96316862, -51.15463257, 103.18216705, 2.93183231, -146.66424561, 0.15893294, -0.23990646, 0.74586815, 0.60072124, 0.00062528, -0.15234925, -0.11298212, 100.29300690, 86.26172638, 29.31999969, 0.00000000
1, 1.0852, 124, 0.04467773, -0.82293701, 0.33123779, 1.60015702, -1.03195357, 23.68516350, -38.26366425, 6.66471767, -51.41771317, 103.18854523, 2.81770515, -146.69631958, 0.15950334, -0.23911953, 0.74616474, 0.60051543, 0.00497626, -0.14949293, -0.10339095, 100.29300690, 86.26172638, 29.31999969, 0.00000000
1, 1.0902, 125, 0.04339600, -0.84222412, 0.32232666, 1.21515679, 2.22304773, 22.98516464, -38.26366425, 6.66471767, -51.41771317, 103.19387817, 2.70327163, -146.71173096, 0.16016524, -0.23843773, 0.74642056, 0.60029238, 0.00426688, -0.13027672, -0.09435726, 100.29300690, 86.26172638, 29.31999969, 0.00000000
1, 1.1699, 127, -0.07339760, -1.04347336, 0.22896005, 9.09645748, 51.33559036, 92.29934692, -38.35136032, 15.49254608, -54.16544724, 111.57394409, -22.82865334, -9.97314453, -0.56329024, 0.79785669, -0.18131265, 0.11512922, -0.31302965, 0.18514439, 0.10830858, 100.41700745, 75.85894775, 30.21999931, 0.00000000
1, 1.1749, 128, -0.04758520, -1.05036759, 0.23371960, 9.21061039, 51.43468475, 95.49001312, -38.90675354, 15.78485775, -54.16544724, 111.59371185, -23.36700821, -9.90309525, -0.56288391, 0.79706603, -0.18331562, 0.11934297, -0.34744596, 0.19552916, 0.10254726, 100.41700745, 75.85894775, 30.21999931, 0.00000000
1, 1.0952, 126, 0.04272461, -0.85614014, 0.30792236, 0.37515658, 6.38804913, 21.76016426, -38.26366425, 6.66471767, -51.41771317, 103.19603729, 2.59005356, -146.70545959, 0.16093926, -0.23789886, 0.74661177, 0.60006142, 0.00295768, -0.11644097, -0.07988955, 100.29300690, 86.26172638, 29.31999969, 0.00000000
1, 1.1002, 127, 0.04913330, -0.89111328, 0.30004883, 0.06015652, 11.28804970, 20.32516289, -38.55597687, 5.81701231, -51.53463745, 103.19774628, 2.47822475, -146.67370605, 0.16183843, -0.23753251, 0.74674463, 0.59979922, -0.00540729, -0.08154458, -0.07195994, 100.29300690, 86.26172638, 29.31999969, 0.00000000
1, 1.1052, 128, 0.06958008, -0.92071533, 0.30419922, -0.91984385, 16.08305168, 18.36516190, -38.55597687, 5.81701231, -51.53463745, 103.19556427, 2.37046814, -146.61631775, 0.16285254, -0.23734842, 0.74679691, 0.59953254, -0.02775395, -0.05202577, -0.07610920, 100.29300690, 86.26172638, 29.31999969, 0.00000000
1, 1.2299, 129, -0.12088621, -1.13117242, 0.27208915, 14.14658642, 69.22825623, 132.58599854, -43.40835953, 17.88950539, -54.75007248, 112.00159454, -30.37611580, -9.50309563, -0.55578727, 0.78520274, -0.21227072, 0.17175141, -0.38264078, 0.32926559, 0.04948338, 100.41700745, 75.85894775, 30.21999931, 0.00000000
1, 1.2349, 130, -0.06755729, -1.19558346, 0.37779409, 13.63908100, 73.67589569, 135.78305054, -43.40835953, 17.88950539, -54.89622879, 112.01882935, -31.14330673, -9.40021801, -0.55496389, 0.78371358, -0.21501586, 0.17769773, -0.44767702, 0.39988649, -0.05844191, 100.41700745, 75.85894775, 30.21999931, 0.00000000
1, 1.2399, 131, -0.01528076, -1.32737589, 0.44025326, 11.74413681, 75.37659454, 139.73851013, -44.37298965, 18.53259277, -54.89622879, 112.02485657, -31.93205643, -9.29609489, -0.55416387, 0.78209174, -0.21785937, 0.18377224, -0.51177502, 0.53820968, -0.12353545, 100.41700745, 75.85894775, 30.21999931, 0.00000000
1, 1.1102, 129, 0.04864502, -0.95684814, 0.30462646, -2.56484461, 21.26305580, 16.54516220, -38.38058853, 5.93393755, -51.65156174, 103.18616486, 2.26566434, -146.53161621, 0.16400467, -0.23734713, 0.74674952, 0.59927797, -0.00865950, -0.01599646, -0.07664762, 100.29300690, 86.26172638, 29.31999969, 0.00000000
1, 1.1152, 130, 0.06268311, -0.97851563, 0.30444336, -3.64984512, 30.22305870, 12.80016041, -38.38058853, 5.93393755, -51.65156174, 103.17305756, 2.16889215, -146.39898682, 0.16536175, -0.23769392, 0.74656957, 0.59899163, -0.02442363, 0.00555667, -0.07665648, 100.29300690, 86.26172638, 29.31999969, 0.00000000
1, 1.1652, 131, 0.39324951, -0.89025879, 0.27423096, -18.73484993, 61.16306686, -11.73484707, -39.63753128, 6.51856184, -52.58696365, 102.74195862, 1.66175902, -143.88555908, 0.18271421, -0.25072896, 0.73984367, 0.59697729, -0.36421913, -0.08461926, -0.05339181, 100.29300690, 86.26172638, 29.31999969, 0.00000000
1, 1.1702, 132, 0.41387939, -0.87023926, 0.26422119, -20.62485313, 58.95806122, -14.18484879, -39.63753128, 6.51856184, -52.58696365, 102.64764404, 1.66616142, -143.58224487, 0.18447296, -0.25255716, 0.73867828, 0.59710884, -0.38484114, -0.10499114, -0.04494441, 100.29300690, 86.26172638, 29.31999969, 0.00000000
1, 1.1752, 133, 0.42449951, -0.85418701, 0.26165771, -22.37484932, 56.47306442, -16.77484894, -40.01753998, 5.84624386, -52.17772675, 102.54436493, 1.68643832, -143.28826904, 0.18610200, -0.25438812, 0.73745316, 0.59734052, -0.39517853, -0.12142120, -0.04410597, 100.29300690, 86.26172638, 29.31999969, 0.00000000
1, 1.1802, 134, 0.42541504, -0.83355713, 0.26300049, -24.43985367, 54.89806366, -19.60984802, -40.01753998, 5.84624386, -52.17772675, 102.43077087, 1.72281182, -142.99893188, 0.18762796, -0.25625050, 0.73614985, 0.59767449, -0.39552674, -0.14245456, -0.04734419, 100.29300690, 86.26172638, 29.31999969, 0.00000000
1, 1.1852, 135, 0.43585205, -0.80761719, 0.24645996, -26.04985237, 54.58306503, -23.80985260, -40.89447403, 5.61239386, -52.49926758, 102.30944061, 1.78063416, -142.70671082, 0.18905079, -0.25822443, 0.73475444, 0.59809357, -0.40506986, -0.16881603, -0.03284719, 100.29300690, 86.26172638, 29.31999969, 0.00000000
1, 1.1902, 136, 0.44250488, -0.78198242, 0.23052979, -27.06485176, 53.74306107, -27.48485374, -40.89447403, 5.61239386, -52.49926758, 102.18337250, 1.85792732, -142.41482544, 0.19036072, -0.26028374, 0.73329204, 0.59858000, -0.41046587, -0.19487344, -0.01904552, 100.29300690, 86.26172638, 29.31999969, 0.00000000
1, 1.1952, 137, 0.44604492, -0.75506592, 0.21563721, -26.92485428, 51.11806107, -32.83985519, -40.89447403, 5.61239386, -52.49926758, 102.05823517, 1.96479750, -142.13029480, 0.19144356, -0.26244482, 0.73178822, 0.59913117, -0.41225594, -0.22219849, -0.00632386, 100.29300690, 86.26172638, 29.31999969, 0.00000000
1, 1.2002, 138, 0.44879150, -0.75897217, 0.20904541, -25.52485275, 47.51306152, -38.15985489, -41.04063034, 5.37854433, -53.46389771, 101.94026947, 2.10204124, -141.85809326, 0.19225456, -0.26469103, 0.73028398, 0.59971839, -0.41274536, -0.21865070, -0.00179297, 100.29300690, 86.26172638, 29.31999969, 0.00000000
1, 1.2449, 132, -0.00580087, -1.39268136, 0.40606511, 9.72305775, 75.59424591, 143.02926636, -44.37298965, 18.53259277, -54.89622879, 112.02234650, -32.73649597, -9.19720936, -0.55338120, 0.78034967, -0.22081560, 0.18990573, -0.53300327, 0.61046672, -0.09220492, 100.41700745, 75.85894775, 30.21999931, 0.00000000
1, 1.2499, 133, -0.03474386, -1.49690747, 0.30708495, 7.77373600, 75.83900452, 146.67030334, -46.27301788, 19.11721611, -55.48085403, 112.01211548, -33.55830002, -9.10405445, -0.55260843, 0.77848375, -0.22389449, 0.19610757, -0.51580453, 0.72200346, 0.00348449, 100.41700745, 75.85894775, 30.21999931, 0.00000000
1, 1.2549, 134, -0.06428041, -1.57052302, 0.19650292, 7.78108549, 75.71767426, 148.84053040, -46.27301788, 19.11721611, -55.48085403, 111.99843597, -34.38239670, -9.01090717, -0.55181861, 0.77656120, -0.22698252, 0.20230666, -0.49797106, 0.80316097, 0.11071545, 100.41700745, 75.85894775, 30.21999931, 0.00000000
1, 1.2602, 139, 0.28625488, -1.19000244, 0.10217285, -18.24485207, 8.55804920, -110.71488190, -39.43291473, 3.88775206, -53.63928604, 100.99274445, 6.51644754, -139.60089111, 0.17813757, -0.29992190, 0.71047372, 0.61117995, -0.17512810, 0.21449637, 0.08765101, 100.29300690, 86.26172638, 29.31999969, 0.00000000
1, 1.2652, 140, 0.20135498, -1.19647217, 0.11724854, -18.20985031, 6.87804890, -114.03988647, -39.43291473, 3.88775206, -53.63928604, 100.91860962, 7.06972218, -139.45776367, 0.17554566, -0.30349520, 0.70843315, 0.61253321, -0.08071154, 0.22181010, 0.07109363, 100.29300690, 86.26172638, 29.31999969, 0.00000000
1, 1.2702, 141, 0.05932617, -1.19805908, 0.15539551, -17.92984962, 5.26804876, -117.39988708, -38.67290115, 3.30312777, -53.52236176, 100.84658813, 7.64119482, -139.31993103, 0.17280588, -0.30712351, 0.70634931, 0.61390871, 0.07115840, 0.22438279, 0.03147871, 100.29300690, 86.26172638, 29.31999969, 0.00000000
1, 1.2599, 135, -0.06438666, -1.61171186, 0.12437160, 8.64065361, 78.57302094, 150.65026855, -47.03303146, 19.81876564, -55.15930939, 111.98534393, -35.22771835, -8.90903759, -0.55095023, 0.77457041, -0.23009832, 0.20868471, -0.50972062, 0.85209060, 0.17948350, 100.41700745, 75.85894775, 30.21999931, 0.00000000
1, 1.2649, 136, -0.03811635, -1.63528514, 0.09593565, 9.36694241, 83.59057617, 152.30291748, -47.03303146, 19.81876564, -55.15930939, 111.95934296, -36.09002304, -8.78089905, -0.55006152, 0.77249140, -0.23312947, 0.21526738, -0.54812026, 0.88364542, 0.20440236, 100.41700745, 75.85894775, 30.21999931, 0.00000000
1, 1.2699, 137, 0.00501974, -1.63266635, 0.08229887, 9.55790234, 88.68132782, 153.61360168, -47.03303146, 19.81876564, -55.15930939, 111.91580963, -36.96781540, -8.62430191, -0.54917347, 0.77031052, -0.23606668, 0.22204231, -0.60351551, 0.88922286, 0.21426421, 100.41700745, 75.85894775, 30.21999931, 0.00000000
1, 1.2752, 142, -0.05187988, -1.20404053, 0.19140625, -17.78985023, 5.58304882, -119.32488251, -38.67290115, 3.30312777, -53.52236176, 100.77706146, 8.22199535, -139.17926025, 0.17001760, -0.31081229, 0.70422190, 0.61527336, 0.19237033, 0.23148003, -0.00598215, 100.29300690, 86.26172638, 29.31999969, 0.00000000
1, 1.2802, 143, -0.14703369, -1.21020508, 0.23272705, -17.19485092, 7.64804888, -120.96987915, -38.67290115, 3.30312777, -53.52236176, 100.71360779, 8.80910683, -139.02725220, 0.16723575, -0.31460267, 0.70205301, 0.61658657, 0.29763672, 0.23889607, -0.04868641, 100.29300690, 86.26172638, 29.31999969, 0.00000000
1, 1.2852, 144, -0.21990967, -1.21954346, 0.27563477, -16.35484886, 10.97305012, -122.29988098, -38.05904770, 3.01081562, -53.84390640, 100.65865326, 9.39983273, -138.85780334, 0.16450357, -0.31852034, 0.69984388, 0.61782026, 0.38068652, 0.24962735, -0.09285932, 100.29300690, 86.26172638, 29.31999969, 0.00000000
1, 1.2749, 138, 0.05443609, -1.61715043, 0.07090139, 10.11286068, 93.01612854, 154.62123108, -48.87459564, 20.34492874, -55.39315796, 111.85746002, -37.85820770, -8.44189358, -0.54826814, 0.76804364, -0.23891364, 0.22897913, -0.66524339, 0.88212740, 0.22160506, 100.41700745, 75.85894775, 30.21999931, 0.00000000
1, 1.2949, 139, -0.04004537, -1.39889443, 0.09467003, 9.14666367, 79.52034760, 157.85212708, -50.48231506, 21.25109673, -55.56854630, 111.68502808, -41.41904449, -7.82138824, -0.54392540, 0.75868499, -0.25088024, 0.25612783, -0.61887062, 0.69958907, 0.18101025, 100.41700745, 75.85894775, 30.21999931, 0.00000000
1, 1.2999, 140, -0.09312161, -1.30156481, 0.14239284, 12.80317497, 77.27507019, 158.38299561, -51.21309662, 21.80648994, -55.89009094, 111.69017792, -42.29741287, -7.73024416, -0.54255301, 0.75637704, -0.25412288, 0.26258641, -0.57737237, 0.61164689, 0.12954743, 100.41700745, 75.85894775, 30.21999931, 0.00000000
1, 1.2902, 145, -0.28674316, -1.23681641, 0.31414795, -15.89984894, 15.59305191, -123.31487274, -38.05904770, 3.01081562, -53.84390640, 100.61170959, 9.99142647, -138.66464233, 0.16187395, -0.32258740, 0.69757921, 0.61896491, 0.45770442, 0.26842758, -0.13252033, 100.29300690, 86.26172638, 29.31999969, 0.00000000
1, 1.2952, 146, -0.33074951, -1.26953125, 0.35620117, -15.16484928, 20.77305412, -123.48989105, -37.00672150, 3.21543407, -54.16544724, 100.57501984, 10.57925892, -138.44551086, 0.15938205, -0.32679516, 0.69527429, 0.61999685, 0.51182848, 0.30279607, -0.17557207, 100.29300690, 86.26172638, 29.31999969, 0.00000000
1, 1.3049, 141, -0.19102876, -1.19096184, 0.26330024, 15.09999180, 70.01609802, 159.79313660, -51.21309662, 21.80648994, -55.89009094, 111.73455048, -43.15590668, -7.68264103, -0.54100996, 0.75417626, -0.25746164, 0.26877478, -0.49092102, 0.51050526, 0.00519632, 100.41700745, 75.85894775, 30.21999931, 0.00000000
1, 1.3099, 142, -0.27000961, -1.10994816, 0.34273782, 15.01696014, 59.65990448, 161.68553162, -52.70388794, 23.15112495, -57.03010941, 111.83216858, -44.01716995, -7.71235275, -0.53926551, 0.75200140, -0.26117486, 0.27472588, -0.42302158, 0.43929410, -0.07716046, 100.41700745, 75.85894775, 30.21999931, 0.00000000
1, 1.3149, 143, -0.39232883, -1.04345870, 0.36170977, 14.66400528, 45.09316635, 163.30574036, -52.70388794, 23.15112495, -57.03010941, 111.99990845, -44.85881424, -7.84420443, -0.53731644, 0.74993229, -0.26527417, 0.28021842, -0.31134349, 0.38303897, -0.09843491, 100.41700745, 75.85894775, 30.21999931, 0.00000000
1, 1.3402, 147, -0.06622314, -1.58337402, 0.35791016, -13.20484638, 73.09807587, -102.13987732, -35.98363113, 2.86465931, -54.54545212, 100.77321625, 15.20702553, -135.06253052, 0.14734237, -0.36979035, 0.67338198, 0.62297845, 0.32671839, 0.63487208, -0.17768142, 100.29300690, 86.26172638, 29.31999969, 0.00000000
1, 1.3452, 148, -0.00085449, -1.51483154, 0.31347656, -12.81984806, 74.28807068, -99.75988007, -35.57439423, 3.12774038, -54.37006760, 100.83551788, 15.62735653, -134.58706665, 0.14701797, -0.37465283, 0.67093623, 0.62278849, 0.26847857, 0.56843787, -0.13260925, 100.29300690, 86.26172638, 29.31999969, 0.00000000
1, 1.3502, 149, 0.05297852, -1.44091797, 0.26019287, -10.71984768, 73.72806549, -97.79987335, -35.57439423, 3.12774038, -54.37006760, 100.91073608, 16.03804970, -134.11489868, 0.14669177, -0.37944523, 0.66856354, 0.62251556, 0.22157972, 0.49666798, -0.07851630, 100.29300690, 86.26172638, 29.31999969, 0.00000000
1, 1.3199, 144, -0.53633201, -0.98404586, 0.34295043, 15.67746830, 31.99262619, 163.82182312, -52.70388794, 23.15112495, -57.03010941, 112.24070740, -45.67794037, -8.06986809, -0.53514695, 0.74799997, -0.26967135, 0.28529146, -0.17745933, 0.33412933, -0.08121848, 100.41700745, 75.85894775, 30.21999931, 0.00000000
1, 1.3249, 145, -0.65720677, -0.94484818, 0.39205396, 19.02704620, 22.55761528, 163.37902832, -53.31774139, 23.58959389, -57.23472595, 112.55135345, -46.47630310, -8.36618137, -0.53273427, 0.74622875, -0.27421868, 0.29007062, -0.06647104, 0.30551696, -0.13108738, 100.41700745, 75.85894775, 30.21999931, 0.00000000
1, 1.3299, 146, -0.69255602, -0.92254341, 0.51945025, 22.26155281, 13.62899399, 162.10853577, -53.31774139, 23.58959389, -57.23472595, 112.93055725, -47.25032425, -8.73047733, -0.53009796, 0.74462205, -0.27887726, 0.29455319, -0.04078689, 0.29381734, -0.25834957, 100.41700745, 75.85894775, 30.21999931, 0.00000000
1, 1.3349, 147, -0.71544892, -0.90873313, 0.64912790, 23.05345726, 0.74897617, 160.59967041, -54.60391617, 25.98655319, -56.76702499, 113.38874817, -47.99032974, -9.19192219, -0.52727145, 0.74317962, -0.28376117, 0.29857746, -0.02706190, 0.29067898, -0.38707745, 100.41700745, 75.85894775, 30.21999931, 0.00000000
1, 1.3552, 150, 0.10644531, -1.37091064, 0.20941162, -7.28984642, 72.18807220, -96.78488159, -35.57439423, 3.12774038, -54.37006760, 101.00429535, 16.44455528, -133.65002441, 0.14628728, -0.38417742, 0.66629177, 0.62214398, 0.17494193, 0.42888355, -0.02664788, 100.29300690, 86.26172638, 29.31999969, 0.00000000
1, 1.3602, 151, 0.17382813, -1.30615234, 0.17327881, -3.05484462, 69.52806854, -95.90987396, -35.25284958, 0.93539900, -54.48699188, 101.11853790, 16.84850883, -133.19789124, 0.14575422, -0.38882849, 0.66414839, 0.62167126, 0.11432758, 0.36644799, 0.01089122, 100.29300690, 86.26172638, 29.31999969, 0.00000000
1, 1.3652, 152, 0.23431396, -1.25482178, 0.13946533, 0.93515682, 65.95806885, -95.20987701, -35.25284958, 0.93539900, -54.48699188, 101.25075531, 17.25155449, -132.76290894, 0.14506517, -0.39337757, 0.66213042, 0.62112272, 0.06057309, 0.31754303, 0.04640221, 100.29300690, 86.26172638, 29.31999969, 0.00000000
1, 1.3702, 153, 0.29956055, -1.19586182, 0.09613037, 5.13515806, 61.16306686, -94.43988037, -34.72668839, 2.60157847, -54.66238022, 101.39984131, 17.65451431, -132.35139465, 0.14418283, -0.39779139, 0.66025341, 0.62051499, 0.00203872, 0.26111272, 0.09169508, 100.29300690, 86.26172638, 29.31999969, 0.00000000
1, 1.3752, 154, 0.33331299, -1.16247559, 0.07452393, 9.16015911, 55.17806244, -93.42487335, -34.72668839, 2.60157847, -54.66238022, 101.56264496, 18.05740356, -131.96968079, 0.14308219, -0.40202981, 0.65852499, 0.61987442, -0.02501662, 0.23035038, 0.11545554, 100.29300690, 86.26172638, 29.31999969, 0.00000000
1, 1.4052, 155, 0.37213135, -1.05712891, 0.03424072, 24.87516403, -11.60195827, -82.88986969, -34.14206314, 2.07541656, -54.37006760, 102.53953552, 20.51913834, -130.83493042, 0.12976468, -0.42066991, 0.65169460, 0.61765057, -0.02331789, 0.14217615, 0.16870454, 100.29300690, 86.26172638, 29.31999969, 0.00000000
1, 1.4102, 156, 0.35888672, -1.05407715, 0.03234863, 25.71516609, -20.49195862, -80.05487061, -33.93744659, 2.57234716, -54.16544724, 102.66331482, 20.93212700, -130.84844971, 0.12655158, -0.42253670, 0.65102953, 0.61774433, -0.00330932, 0.14205651, 0.17205206, 100.29300690, 86.26172638, 29.31999969, 0.00000000
1, 1.3399, 148, -0.76805061, -0.89377046, 0.69491428, 21.69140816, -13.59481335, 158.34724426, -54.60391617, 25.98655319, -56.76702499, 113.92486572, -48.68862915, -9.76163197, -0.52431446, 0.74188334, -0.28890687, 0.30205354, 0.01717192, 0.28649840, -0.43112707, 100.41700745, 75.85894775, 30.21999931, 0.00000000
1, 1.4152, 157, 0.30108643, -1.06744385, 0.06048584, 27.71016502, -42.61196518, -77.63986969, -33.93744659, 2.57234716, -54.16544724, 102.75447845, 21.35769463, -130.97973633, 0.12273654, -0.42374313, 0.65057474, 0.61816663, 0.06136593, 0.15836410, 0.14493755, 100.29300690, 86.26172638, 29.31999969, 0.00000000
1, 1.4202, 158, 0.25103760, -1.08239746, 0.06555176, 28.23516464, -55.63197327, -75.78486633, -32.94358444, 2.04618526, -53.61005402, 102.82154083, 21.78880119, -131.18122864, 0.11859012, -0.42454123, 0.65022689, 0.61879408, 0.11839396, 0.17625633, 0.14042136, 100.29300690, 86.26172638, 29.31999969, 0.00000000
1, 1.4252, 159, 0.19995117, -1.09820557, 0.06689453, 28.58516693, -68.26697540, -74.17486572, -32.94358444, 2.04618526, -53.61005402, 102.86324310, 22.22627068, -131.45126343, 0.11411989, -0.42494595, 0.64997095, 0.61962515, 0.17653972, 0.19500405, 0.13920698, 100.29300690, 86.26172638, 29.31999969, 0.00000000
1, 1.4049, 149, -0.48649472, -0.41221231, 0.16537148, -9.92926598, 40.64646149, 19.48338127, -56.47471619, 29.37737465, -56.79625702, 117.91751862, -54.64670563, -14.09250546, -0.50290751, 0.72641957, -0.32828134, 0.33411083, -0.32912719, -0.09949398, 0.10453503, 100.41700745, 75.85894775, 30.21999931, 0.00000000
1, 1.4099, 150, -0.40060264, -0.37480351, 0.12494686, -11.74251652, 43.80532837, 7.59390736, -57.05933762, 29.28968048, -57.05933762, 117.60980225, -54.78216934, -13.78734589, -0.50379562, 0.72541404, -0.32772943, 0.33549681, -0.41633552, -0.13648409, 0.14161895, 100.41700745, 75.85894775, 30.21999931, 0.00000000
1, 1.4149, 151, -0.37106946, -0.31307933, 0.12163731, -11.60504532, 45.07118988, -14.77601624, -57.05933762, 29.28968048, -57.05933762, 117.21978760, -54.82008743, -13.38129425, -0.50502414, 0.72470886, -0.32643983, 0.33642951, -0.44652331, -0.19908264, 0.14137879, 100.41700745, 75.85894775, 30.21999931, 0.00000000
1, 1.4302, 160, 0.18817139, -1.11614990, 0.06591797, 29.28516388, -80.27197266, -72.31987000, -32.94358444, 2.04618526, -53.61005402, 102.88127899, 22.66820526, -131.78746033, 0.10934381, -0.42496747, 0.64981359, 0.62063593, 0.19543852, 0.21588627, 0.13990974, 100.29300690, 86.26172638, 29.31999969, 0.00000000
1, 1.4352, 161, 0.16131592, -1.13543701, 0.07812500, 30.09016609, -92.97698975, -70.21986389, -31.62817764, 2.98158431, -53.52236176, 102.87338257, 23.11409187, -132.19445801, 0.10424662, -0.42457828, 0.64976084, 0.62183344, 0.22945422, 0.23810056, 0.12701477, 100.29300690, 86.26172638, 29.31999969, 0.00000000
1, 1.4402, 162, 0.12823486, -1.14953613, 0.08764648, 30.93016624, -104.24698639, -67.76986694, -31.62817764, 2.98158431, -53.52236176, 102.84129333, 23.56043816, -132.66578674, 0.09887780, -0.42380524, 0.64980841, 0.62318653, 0.26969475, 0.25510138, 0.11639930, 100.29300690, 86.26172638, 29.31999969, 0.00000000
1, 1.4602, 163, 0.05133057, -1.11804199, 0.20391846, 38.35017014, -135.99198914, -53.31486130, -28.64659500, 1.22771120, -53.31774139, 102.52944946, 25.27704239, -135.10531616, 0.07539222, -0.41716570, 0.65119702, 0.62946904, 0.37407419, 0.23467276, -0.00722939, 100.29300690, 86.26172638, 29.31999969, 0.00000000
1, 1.4652, 164, 0.02362061, -1.11376953, 0.22802734, 39.08517456, -135.88699341, -48.97486115, -28.64659500, 1.22771120, -53.31774139, 102.43407440, 25.66297340, -135.78147888, 0.06947308, -0.41494471, 0.65181214, 0.63097972, 0.40796244, 0.23293799, -0.03342774, 100.29300690, 86.26172638, 29.31999969, 0.00000000
1, 1.4199, 152, -0.37089056, -0.27662700, 0.14204033, -11.08130836, 40.65145493, -24.98305702, -57.05933762, 29.28968048, -57.05933762, 116.82691193, -54.80089569, -12.96876907, -0.50632125, 0.72422183, -0.32491657, 0.33700272, -0.44670254, -0.23743883, 0.11754066, 100.41700745, 75.85894775, 30.21999931, 0.00000000
1, 1.4249, 153, -0.38568458, -0.26349834, 0.17746040, -10.37615299, 33.37176132, -33.50796890, -57.32241821, 28.85121346, -57.29319000, 116.45737457, -54.72571945, -12.58037472, -0.50761616, 0.72397465, -0.32327387, 0.33716556, -0.43137997, -0.25311059, 0.07911316, 100.41700745, 75.85894775, 30.21999931, 0.00000000
1, 1.4299, 154, -0.40691498, -0.25509807, 0.20223820, -10.72499561, 25.22464561, -41.09373474, -57.32241821, 28.85121346, -57.29319000, 116.11579895, -54.59714508, -12.22803593, -0.50891668, 0.72394282, -0.32157674, 0.33689621, -0.40904623, -0.26458496, 0.05188062, 100.41700745, 75.85894775, 30.21999931, 0.00000000
1, 1.4349, 155, -0.42649937, -0.26068908, 0.20607984, -11.33156872, 17.80629349, -48.65884018, -57.55627060, 27.03887749, -57.96550751, 115.79745483, -54.41717911, -11.90737534, -0.51024109, 0.72410876, -0.31981358, 0.33621401, -0.38777813, -0.26257575, 0.04607980, 100.41700745, 75.85894775, 30.21999931, 0.00000000
1, 1.4399, 156, -0.43239689, -0.27534416, 0.21364534, -12.13385963, 11.85083103, -56.29174805, -57.55627060, 27.03887749, -57.96550751, 115.49279022, -54.18894577, -11.60780334, -0.51161706, 0.72444588, -0.31795263, 0.33516014, -0.37970102, -0.25205365, 0.03698564, 100.41700745, 75.85894775, 30.21999931, 0.00000000
1, 1.4702, 165, -0.01281738, -1.11370850, 0.25750732, 38.28017044, -133.92700195, -44.77486038, -27.59427071, 3.59543991, -53.25928116, 102.33191681, 26.02524948, -136.45486450, 0.06373696, -0.41263852, 0.65244794, 0.63243872, 0.45018744, 0.23526487, -0.06504555, 100.29300690, 86.26172638, 29.31999969, 0.00000000
1, 1.4752, 166, -0.02349854, -1.10015869, 0.27752686, 36.28517151, -129.79699707, -40.81985474, -27.59427071, 3.59543991, -53.25928116, 102.22273254, 26.36268997, -137.11320496, 0.05826095, -0.41031203, 0.65306294, 0.63384438, 0.46625334, 0.22393478, -0.08727039, 100.29300690, 86.26172638, 29.31999969, 0.00000000
1, 1.4802, 167, -0.05993652, -1.06701660, 0.29498291, 33.17016983, -123.88199615, -37.21485519, -27.59427071, 3.59543991, -53.34697342, 102.10599518, 26.67511368, -137.74609375, 0.05310685, -0.40802366, 0.65361786, 0.63520092, 0.50767279, 0.19283308, -0.10701085, 100.29300690, 86.26172638, 29.31999969, 0.00000000
1, 1.4852, 168, -0.09155273, -1.02404785, 0.31518555, 29.70516586, -112.82199097, -32.80485535, -26.54194641, 4.26775789, -53.34697342, 101.99298859, 26.95327759, -138.32588196, 0.04845046, -0.40589535, 0.65410948, 0.63642943, 0.54376870, 0.15169251, -0.12945649, 100.29300690, 86.26172638, 29.31999969, 0.00000000
1, 1.4902, 169, -0.10980225, -0.99493408, 0.32995605, 27.81516647, -99.76698303, -30.45985413, -26.54194641, 4.26775789, -53.34697342, 101.89866638, 27.20553017, -138.83860779, 0.04426404, -0.40404850, 0.65454608, 0.63745975, 0.56603014, 0.12426403, -0.14613947, 100.29300690, 86.26172638, 29.31999969, 0.00000000
1, 1.4952, 170, -0.11193848, -0.96148682, 0.34881592, 25.99516487, -88.46198273, -28.42985344, -25.89885902, 4.23852682, -53.52236176, 101.82012177, 27.43554306, -139.29293823, 0.04048816, -0.40244660, 0.65493304, 0.63832617, 0.57181692, 0.09239351, -0.16664121, 100.29300690, 86.26172638, 29.31999969, 0.00000000
1, 1.5002, 171, -0.14703369, -0.92987061, 0.37109375, 24.87516403, -76.94698334, -27.27485275, -25.89885902, 4.23852682, -53.52236176, 101.76263428, 27.64764977, -139.68624878, 0.03709252, -0.40112397, 0.65527833, 0.63901019, 0.61026257, 0.06228330, -0.19023350, 100.29300690, 86.26172638, 29.31999969, 0.00000000
1, 1.5052, 172, -0.17700195, -0.90710449, 0.38818359, 24.03516388, -64.24197388, -26.71485329, -24.99269104, 4.70622635, -53.17158508, 101.73169708, 27.84381676, -140.01086426, 0.03409001, -0.40013337, 0.65558159, 0.63948727, 0.64332175, 0.04098636, -0.20822647, 100.29300690, 86.26172638, 29.31999969, 0.00000000
1, 1.5049, 157, -0.49885461, -0.39132380, 0.25178173, -36.61876297, -58.83437729, -166.99261475, -54.92546082, 25.16807938, -57.00087738, 112.36387634, -46.57302856, -9.76919746, -0.53733039, 0.74162453, -0.28420436, 0.28372023, -0.23069504, -0.24192381, 0.00745084, 100.41700745, 75.85894775, 30.21999931, 0.00000000
1, 1.5099, 158, -0.48324892, -0.39867368, 0.23372537, -37.84933853, -58.95824051, -175.39244080, -53.69775009, 21.10494041, -56.82548904, 112.11287689, -45.65007782, -9.68650150, -0.53998500, 0.74360788, -0.28038836, 0.27721113, -0.23525086, -0.24633452, 0.02717394, 100.41700745, 75.85894775, 30.21999931, 0.00000000
1, 1.5149, 159, -0.45873761, -0.40955582, 0.22468160, -37.93928146, -59.09283066, -182.93070984, -53.69775009, 21.10494041, -56.82548904, 111.85386658, -44.69164658, -9.59196663, -0.54269457, 0.74563020, -0.27631280, 0.27049869, -0.24810341, -0.24756347, 0.03776082, 100.41700745, 75.85894775, 30.21999931, 0.00000000
1, 1.5199, 160, -0.44175559, -0.45311183, 0.20395981, -37.18595886, -61.59358597, -191.72792053, -53.69775009, 21.10494041, -56.82548904, 111.60047150, -43.68743515, -9.49860287, -0.54541230, 0.74774849, -0.27198103, 0.26348433, -0.25268912, -0.21639034, 0.06000045, 100.41700745, 75.85894775, 30.21999931, 0.00000000
1, 1.5249, 161, -0.45934853, -0.48240119, 0.17154607, -37.33127975, -65.78863525, -198.45089722, -52.73311996, 22.68342590, -56.73779678, 111.35939789, -42.64399719, -9.42271805, -0.54811770, 0.74992883, -0.26750961, 0.25614917, -0.22192469, -0.19971885, 0.09396745, 100.41700745, 75.85894775, 30.21999931, 0.00000000
1, 1.5299, 162, -0.51606601, -0.52521455, 0.10637283, -38.21348953, -70.98226929, -205.92442322, -52.73311996, 22.68342590, -56.73779678, 111.12934875, -41.55612564, -9.36838150, -0.55082589, 0.75216609, -0.26290458, 0.24843188, -0.15111478, -0.16971813, 0.16077280, 100.41700745, 75.85894775, 30.21999931, 0.00000000
1, 1.5349, 163, -0.57975918, -0.53765929, 0.07104288, -37.68198013, -71.93815613, -210.93139648, -50.36539078, 20.02338409, -56.65010071, 110.90312958, -40.44300461, -9.31475639, -0.55350792, 0.75441200, -0.25812769, 0.24054484, -0.07281135, -0.17018078, 0.19772810, 100.41700745, 75.85894775, 30.21999931, 0.00000000
1, 1.5399, 164, -0.64139289, -0.54406738, 0.07020804, -36.52006912, -71.92954254, -215.25740051, -50.36539078, 20.02338409, -56.65010071, 110.68127441, -39.30951691, -9.25768375, -0.55614257, 0.75665981, -0.25317070, 0.23254257, 0.00388054, -0.17670217, 0.20014167, 100.41700745, 75.85894775, 30.21999931, 0.00000000
1, 1.5202, 173, -0.26538086, -0.81396484, 0.37719727, 19.73016167, -23.04696083, -27.51985168, -24.20344925, 4.26775789, -52.87927628, 101.80351257, 28.35566139, -140.54476929, 0.02746513, -0.39938223, 0.65612495, 0.63971835, 0.73973334, -0.04780650, -0.19736552, 100.29300690, 86.26172638, 29.31999969, 0.00000000
1, 1.5252, 174, -0.28344727, -0.79437256, 0.34942627, 18.71516228, -8.73195648, -27.86985397, -24.20344925, 4.26775789, -52.87927628, 101.88945007, 28.50100517, -140.56082153, 0.02611106, -0.39995840, 0.65617144, 0.63936740, 0.76007438, -0.06594642, -0.16865674, 100.29300690, 86.26172638, 29.31999969, 0.00000000
1, 1.5302, 175, -0.27758789, -0.77899170, 0.30987549, 18.57516289, 2.11804748, -27.27485275, -24.17421722, 5.02776957, -52.64542389, 102.00333405, 28.63223839, -140.51687622, 0.02508660, -0.40081915, 0.65621054, 0.63882899, 0.75628603, -0.07988813, -0.12774009, 100.29300690, 86.26172638, 29.31999969, 0.00000000
1, 1.5449, 165, -0.77435815, -0.58049953, 0.10254574, -35.16342163, -70.41723633, -219.76036072, -50.36539078, 20.02338409, -56.65010071, 110.45913696, -38.15738678, -9.18797302, -0.55873823, 0.75889766, -0.24798870, 0.22447169, 0.15231702, -0.15317406, 0.16904613, 100.41700745, 75.85894775, 30.21999931, 0.00000000
1, 1.5499, 166, -0.85567135, -0.61058307, 0.15348794, -35.13086319, -59.78555298, -225.92190552, -49.89768982, 20.14031029, -57.00087738, 110.19609833, -36.99451828, -9.04912567, -0.56144977, 0.76101947, -0.24231672, 0.21657862, 0.24950823, -0.13603644, 0.11896540, 100.41700745, 75.85894775, 30.21999931, 0.00000000
1, 1.5352, 176, -0.25683594, -0.76733398, 0.27923584, 19.41516113, 11.49805069, -25.55985260, -24.17421722, 5.02776957, -52.64542389, 102.14581299, 28.74517822, -140.42231750, 0.02436376, -0.40189227, 0.65629143, 0.63809919, 0.73733705, -0.09014906, -0.09527657, 100.29300690, 86.26172638, 29.31999969, 0.00000000
1, 1.5402, 177, -0.25384521, -0.76763916, 0.25231934, 20.32516289, 19.72305298, -22.89985275, -24.17421722, 5.02776957, -52.64542389, 102.31375122, 28.83618164, -140.28466797, 0.02393451, -0.40311825, 0.65643406, 0.63719481, 0.73582608, -0.08852660, -0.06610936, 100.29300690, 86.26172638, 29.31999969, 0.00000000
1, 1.5452, 178, -0.26354980, -0.77380371, 0.22900391, 20.71016121, 26.47805786, -19.67985153, -23.82344246, 2.60157847, -52.79158020, 102.50024414, 28.90383339, -140.11289978, 0.02378143, -0.40443909, 0.65663517, 0.63615549, 0.74665570, -0.08115966, -0.04020296, 100.29300690, 86.26172638, 29.31999969, 0.00000000
1, 1.5502, 179, -0.25738525, -0.77789307, 0.19665527, 20.57016373, 32.39305878, -16.03985023, -23.82344246, 2.60157847, -52.79158020, 102.70011902, 28.94676781, -139.91230774, 0.02390124, -0.40581846, 0.65688843, 0.63501006, 0.74124134, -0.07601236, -0.00500946, 100.29300690, 86.26172638, 29.31999969, 0.00000000
1, 1.5949, 167, -0.55517465, -0.76793242, 0.22537459, -39.39203644, 18.37574959, -268.27557373, -45.83454895, 15.37562084, -56.70856476, 106.09864807, -26.28758049, -4.36077642, -0.59186953, 0.77245325, -0.16620263, 0.15932110, 0.10679042, -0.09101933, 0.02151312, 100.41700745, 75.85894775, 30.21999931, 0.00000000
1, 1.5999, 168, -0.55940479, -0.81493914, 0.17288417, -38.12785721, 13.44722176, -270.02154541, -44.46068192, 13.91405964, -57.64396286, 105.69706726, -25.00728607, -3.88130403, -0.59510624, 0.77326345, -0.15702669, 0.15249540, 0.13117118, -0.05507293, 0.07041543, 100.41700745, 75.85894775, 30.21999931, 0.00000000
1, 1.5552, 180, -0.24493408, -0.77777100, 0.14996338, 20.04516220, 36.27805710, -12.50484753, -24.37883568, 5.55393171, -52.44080734, 102.90588379, 28.96753502, -139.69432068, 0.02423958, -0.40720221, 0.65718347, 0.63380504, 0.72918725, -0.07523001, 0.04468399, 100.29300690, 86.26172638, 29.31999969, 0.00000000
1, 1.6049, 169, -0.59612238, -0.85328686, 0.11022399, -35.31262207, 9.71195793, -271.58355713, -44.46068192, 13.91405964, -57.64396286, 105.32947540, -23.71586990, -3.43254018, -0.59816301, 0.77405137, -0.14787181, 0.14553197, 0.18850094, -0.02727968, 0.12971602, 100.41700745, 75.85894775, 30.21999931, 0.00000000
1, 1.6099, 170, -0.61434299, -0.90600705, 0.08366593, -30.89865875, 9.18283081, -272.63381958, -42.70681000, 13.59251690, -58.17012405, 105.00183105, -22.41190529, -2.99924994, -0.60097361, 0.77487487, -0.13862823, 0.13849884, 0.22761580, 0.01536846, 0.15328549, 100.41700745, 75.85894775, 30.21999931, 0.00000000
1, 1.6149, 171, -0.59645343, -0.95039058, 0.14590408, -26.39358711, 10.35255814, -271.85708618, -42.70681000, 13.59251690, -58.17012405, 104.70829773, -21.11098862, -2.57258940, -0.60354841, 0.77569419, -0.12933278, 0.13153277, 0.23063236, 0.05013342, 0.08850291, 100.41700745, 75.85894775, 30.21999931, 0.00000000
1, 1.6199, 172, -0.57825667, -0.97557271, 0.24290375, -23.20042038, 8.61505795, -269.41543579, -42.70681000, 13.59251690, -58.17012405, 104.44766235, -19.81778908, -2.16857243, -0.60590637, 0.77648467, -0.12012884, 0.12457184, 0.23332956, 0.06628603, -0.01070191, 100.41700745, 75.85894775, 30.21999931, 0.00000000
1, 1.6249, 173, -0.56385624, -0.97909069, 0.27826238, -22.41578293, 6.14900208, -266.50469971, -41.27447891, 10.31861973, -58.14089203, 104.20796967, -18.53401566, -1.79021251, -0.60812527, 0.77718723, -0.11106762, 0.11759166, 0.23999870, 0.06149236, -0.04805590, 100.41700745, 75.85894775, 30.21999931, 0.00000000
1, 1.6299, 174, -0.53658354, -0.93711901, 0.20513624, -23.33316612, 6.11468983, -263.93505859, -41.27447891, 10.31861973, -58.14089203, 103.97537231, -17.26121902, -1.42367244, -0.61027950, 0.77774835, -0.10208404, 0.11065845, 0.23405845, 0.01194354, 0.02315113, 100.41700745, 75.85894775, 30.21999931, 0.00000000
1, 1.5752, 181, -0.13677979, -0.79168701, -0.01800537, 20.01016235, 43.24306107, 1.84515750, -23.50189972, 5.32008171, -52.09003067, 103.73471832, 28.83009148, -138.75880432, 0.02734856, -0.41216743, 0.65887564, 0.62869155, 0.61923671, -0.05938174, 0.22516850, 100.29300690, 86.26172638, 29.31999969, 0.00000000
1, 1.5802, 182, -0.08111572, -0.80932617, -0.04797363, 21.41016388, 43.62805939, 4.61015797, -24.52499199, 5.75855017, -51.91464615, 103.95513916, 28.75551224, -138.52340698, 0.02834415, -0.41325629, 0.65949225, 0.62728447, 0.56248611, -0.04152433, 0.25853306, 100.29300690, 86.26172638, 29.31999969, 0.00000000
1, 1.5852, 183, -0.00897217, -0.82531738, -0.06268311, 22.35516167, 43.59306335, 6.67515898, -24.52499199, 5.75855017, -51.91464615, 104.17829132, 28.67016983, -138.29158020, 0.02937810, -0.41428405, 0.66016901, 0.62584543, 0.48907614, -0.02538152, 0.27671736, 100.29300690, 86.26172638, 29.31999969, 0.00000000
1, 1.5902, 184, 0.04571533, -0.83074951, -0.06146240, 23.26516533, 43.90806198, 8.11015892, -24.52499199, 5.75855017, -51.91464615, 104.40525055, 28.57668114, -138.06062317, 0.03044371, -0.41527829, 0.66089302, 0.62436968, 0.43298286, -0.01984307, 0.27903888, 100.29300690, 86.26172638, 29.31999969, 0.00000000
1, 1.6349, 175, -0.49623922, -0.88932323, 0.17982884, -24.12295341, 7.33142471, -261.19696045, -38.40982056, 9.67553329, -58.60859299, 103.74806213, -16.00177956, -1.06222236, -0.61237162, 0.77816767, -0.09315116, 0.10382138, 0.21484444, -0.04296179, 0.04647093, 100.41700745, 75.85894775, 30.21999931, 0.00000000
1, 1.6399, 176, -0.40638378, -0.84213138, 0.17560735, -24.69008636, 2.08643961, -257.63430786, -38.40982056, 9.67553329, -58.60859299, 103.53558350, -14.75222015, -0.73881191, -0.61436665, 0.77848029, -0.08447013, 0.09688626, 0.14604312, -0.09675172, 0.04885734, 100.41700745, 75.85894775, 30.21999931, 0.00000000
1, 1.5952, 185, 0.09692383, -0.84020996, -0.05725098, 24.03516388, 44.67806244, 8.84515953, -24.75884247, 6.25548077, -51.91464615, 104.63694000, 28.47785568, -137.82710266, 0.03153746, -0.41627133, 0.66164708, 0.62285376, 0.38027492, -0.01028883, 0.27845719, 100.29300690, 86.26172638, 29.31999969, 0.00000000
1, 1.6002, 186, 0.15710449, -0.85314941, -0.04980469, 26.34516525, 43.80305862, 10.73516083, -24.75884247, 6.25548077, -51.91464615, 104.87590027, 28.37017059, -137.60183716, 0.03261518, -0.41718704, 0.66249603, 0.62128121, 0.31847936, 0.00272823, 0.27475536, 100.29300690, 86.26172638, 29.31999969, 0.00000000
1, 1.6052, 187, 0.24987793, -0.87249756, -0.03649902, 25.85516357, 41.59806061, 12.41516113, -25.43115997, 5.40777540, -51.47617722, 105.10475922, 28.25641632, -137.39186096, 0.03368346, -0.41799164, 0.66336203, 0.61975747, 0.22398171, 0.02209616, 0.26513296, 100.29300690, 86.26172638, 29.31999969, 0.00000000
1, 1.6699, 177, -0.23358625, -0.94735312, 0.11992247, -10.67927742, -57.46081161, -235.71194458, -32.97281647, 9.00321579, -59.13475418, 102.73377991, -7.37391758, 0.03972767, -0.62302178, 0.77955675, -0.03987746, 0.05044858, 0.09970304, -0.01944899, 0.09658694, 100.41700745, 75.85894775, 30.21999931, 0.00000000
1, 1.6749, 178, -0.30753100, -1.02607810, 0.13537328, -8.55226707, -67.80677795, -231.98966980, -32.97281647, 9.00321579, -59.13475418, 102.69728088, -6.16803598, -0.03822338, -0.62368959, 0.77981853, -0.03386270, 0.04180786, 0.19452389, 0.05656710, 0.08072205, 100.41700745, 75.85894775, 30.21999931, 0.00000000
1, 1.6102, 188, 0.30236816, -0.85754395, -0.01531982, 23.54516220, 37.67805862, 13.64016151, -25.43115997, 5.40777540, -51.47617722, 105.31036377, 28.14119148, -137.20588684, 0.03471339, -0.41864949, 0.66419077, 0.61836749, 0.16971844, 0.00707656, 0.24735138, 100.29300690, 86.26172638, 29.31999969, 0.00000000
1, 1.6252, 189, 0.47357178, -0.80682373, 0.05004883, 16.12516212, 30.11805725, 16.30016136, -25.86962891, 6.37240553, -51.85618210, 105.80966187, 27.78955460, -136.73957825, 0.03776588, -0.42005548, 0.66638082, 0.61486882, -0.00688450, -0.04429033, 0.19038290, 100.29300690, 86.26172638, 29.31999969, 0.00000000
1, 1.6302, 190, 0.51629639, -0.79718018, 0.11041260, 14.65516090, 26.51305580, 18.50516319, -26.24963379, 6.28471184, -51.71002579, 105.93666077, 27.66429901, -136.62411499, 0.03876456, -0.42025235, 0.66706872, 0.61392552, -0.05150299, -0.05433690, 0.13225043, 100.29300690, 86.26172638, 29.31999969, 0.00000000
1, 1.6352, 191, 0.55322266, -0.79528809, 0.14392090, 11.85516071, 22.69805527, 21.23516273, -26.24963379, 6.28471184, -51.71002579, 106.03768158, 27.53096962, -136.53401184, 0.03977656, -0.42026192, 0.66773665, 0.61312771, -0.09046766, -0.05678276, 0.10068618, 100.29300690, 86.26172638, 29.31999969, 0.00000000
1, 1.6402, 192, 0.60418701, -0.79577637, 0.18426514, 7.34015942, 16.18805313, 24.77016449, -26.24963379, 6.28471184, -51.71002579, 106.09698486, 27.38956451, -136.48498535, 0.04077620, -0.41998565, 0.66835850, 0.61257350, -0.14359525, -0.05709139, 0.06164417, 100.29300690, 86.26172638, 29.31999969, 0.00000000
1, 1.6452, 193, 0.63110352, -0.79327393, 0.22076416, 4.50515795, 10.23805046, 27.43016434, -26.77579689, 6.25548077, -51.47617722, 106.12525177, 27.24358940, -136.47247314, 0.04172532, -0.41946703, 0.66896290, 0.61220521, -0.17276147, -0.06055610, 0.02600774, 100.29300690, 86.26172638, 29.31999969, 0.00000000
1, 1.6502, 194, 0.62170410, -0.79290771, 0.24804688, 2.12515736, 3.06304812, 29.81016541, -26.77579689, 6.25548077, -51.47617722, 106.12218475, 27.09615898, -136.50247192, 0.04257206, -0.41868222, 0.66955906, 0.61203229, -0.16564544, -0.06203041, -0.00088115, 100.29300690, 86.26172638, 29.31999969, 0.00000000
1, 1.6552, 195, 0.59558105, -0.79187012, 0.27276611, 0.72515672, -4.28695488, 32.19016647, -25.95732307, 5.46623802, -51.44694519, 106.09253693, 26.94746971, -136.57571411, 0.04329313, -0.41762826, 0.67017382, 0.61202902, -0.14182773, -0.06430016, -0.02562254, 100.29300690, 86.26172638, 29.31999969, 0.00000000
1, 1.6602, 196, 0.56317139, -0.79827881, 0.30120850, -0.25484362, -10.69195747, 34.53516769, -25.95732307, 5.46623802, -51.44694519, 106.04103851, 26.79633522, -136.68687439, 0.04390730, -0.41633189, 0.67081577, 0.61216521, -0.11176001, -0.05923314, -0.05442814, 100.29300690, 86.26172638, 29.31999969, 0.00000000
1, 1.6799, 179, -0.36892521, -1.09554040, 0.15770899, -7.86958122, -73.61656952, -229.12236023, -32.97281647, 9.00321579, -59.13475418, 102.66574097, -4.96985197, -0.14832984, -0.62425089, 0.78001893, -0.02809864, 0.03304428, 0.27670169, 0.12377997, 0.05804477, 100.41700745, 75.85894775, 30.21999931, 0.00000000
1, 1.6849, 180, -0.42679080, -1.15399516, 0.19604501, -7.86334896, -76.46749878, -226.42126465, -30.83893585, 9.06167793, -59.01782990, 102.63331604, -3.78181934, -0.27581286, -0.62473583, 0.78013504, -0.02250119, 0.02425392, 0.35518128, 0.18039744, 0.01929629, 100.41700745, 75.85894775, 30.21999931, 0.00000000
1, 1.6899, 181, -0.44702893, -1.18237603, 0.22403969, -8.26672840, -77.72736359, -223.39663696, -30.83893585, 9.06167793, -59.01782990, 102.59687042, -2.60725546, -0.41327626, -0.62516236, 0.78015476, -0.01703890, 0.01550034, 0.39585811, 0.20737711, -0.00912281, 100.41700745, 75.85894775, 30.21999931, 0.00000000
1, 1.6949, 182, -0.41870850, -1.19874454, 0.24184604, -11.11675262, -76.79995728, -220.95468140, -28.41274452, 9.12014008, -58.66705704, 102.54335785, -1.44575799, -0.54963493, -0.62561882, 0.78001213, -0.01163453, 0.00684155, 0.38781574, 0.22272895, -0.02753197, 100.41700745, 75.85894775, 30.21999931, 0.00000000
1, 1.6999, 183, -0.37778318, -1.19306076, 0.23113228, -13.02165985, -74.73677826, -219.05854797, -28.41274452, 9.12014008, -58.66705704, 102.47752380, -0.29590735, -0.67911041, -0.62607563, 0.77973568, -0.00623778, -0.00169680, 0.36703467, 0.21642651, -0.01769319, 100.41700745, 75.85894775, 30.21999931, 0.00000000
1, 1.7049, 184, -0.32514963, -1.17660153, 0.20018263, -14.56238174, -70.37772369, -216.90202332, -28.41274452, 9.12014008, -58.66705704, 102.40048218, 0.83287054, -0.79159057, -0.62653023, 0.77933276, -0.00082935, -0.00999255, 0.33430123, 0.19973379, 0.01215387, 100.41700745, 75.85894775, 30.21999931, 0.00000000
1, 1.6952, 197, 0.44036865, -0.80621338, 0.27484131, -3.43984485, -13.31695747, 44.30017090, -27.12657166, 3.62467122, -51.44694519, 105.41036987, 25.54668236, -137.82231140, 0.04851605, -0.40415195, 0.67567492, 0.61463064, -0.00835128, -0.06315029, -0.03491004, 100.29300690, 86.26172638, 29.31999969, 0.00000000
1, 1.7002, 198, 0.45043945, -0.81225586, 0.26550293, -3.82484531, -9.57195663, 43.11016846, -27.12657166, 3.62467122, -51.44694519, 105.34210205, 25.35153198, -137.93672180, 0.04945736, -0.40261546, 0.67635161, 0.61481977, -0.02150107, -0.05881689, -0.02624726, 100.29300690, 86.26172638, 29.31999969, 0.00000000
