SensorId, TimeStamp (s), FrameNumber, AccX (g), AccY (g), AccZ (g), GyroX (deg/s), GyroY (deg/s), GyroZ (deg/s), MagX (uT), MagY (uT), MagZ (uT), EulerX (deg), EulerY (deg), EulerZ (deg), QuatW, QuatX, QuatY, QuatZ, LinAccX (g), LinAccY (g), LinAccZ (g), Pressure (kPa), Altitude (m), Temperature (degC), HeaveMotion (m)
1, 0.0000, 0, -0.27624968, -0.53507102, 0.05247691, -15.56410313, 44.00144577, -46.17430496, -35.54516220, 8.47705364, -66.91026306, 99.49224854, -15.20745564, 6.52691603, -0.63370651, 0.76011854, -0.04229964, 0.13728356, 0.01300882, -0.41646445, 0.10570613, 100.00600433, 110.37925720, 32.46999741, 0.00000000
1, 0.0050, 1, -0.27832070, -0.56107044, 0.09765002, -18.21321869, 46.91817093, -52.59076691, -35.42823792, 7.36626720, -66.50102234, 99.32657623, -14.98616886, 6.81073761, -0.63471353, 0.75942391, -0.03936914, 0.13734724, 0.01852593, -0.39193758, 0.05794994, 100.00600433, 110.37925720, 32.46999741, 0.00000000
1, 0.0150, 2, -0.23123771, -0.63626552, 0.08379572, -23.17116737, 51.42900848, -63.88219833, -35.80824280, 7.62934828, -66.99795532, 98.95190430, -14.46115685, 7.42194128, -0.63705641, 0.75780034, -0.03280283, 0.13719246, -0.01988461, -0.31995875, 0.06605000, 100.00600433, 110.37925720, 32.46999741, 0.00000000
1, 0.0200, 3, -0.19238998, -0.66392279, 0.04648998, -26.50214386, 55.08132935, -69.25593567, -35.80824280, 7.62934828, -66.99795532, 98.73567963, -14.16113091, 7.75717163, -0.63842654, 0.75682288, -0.02914357, 0.13704495, -0.05367417, -0.29405028, 0.10007795, 100.00600433, 110.37925720, 32.46999741, 0.00000000
1, 0.0250, 4, -0.13567716, -0.68368924, 0.00745920, -29.36064911, 57.83856964, -74.90238953, -35.80824280, 7.62934828, -66.99795532, 98.50279999, -13.83399391, 8.10908318, -0.63991785, 0.75574285, -0.02523808, 0.13682494, -0.10487252, -0.27614775, 0.13558774, 100.00600433, 110.37925720, 32.46999741, 0.00000000
1, 0.0300, 5, -0.06823172, -0.69826841, -0.05483077, -31.52239799, 55.71264648, -81.48030090, -35.16515732, 8.18474102, -67.17333984, 98.26294708, -13.47140408, 8.45312977, -0.64150530, 0.75460708, -0.02118821, 0.13634595, -0.16617677, -0.26350936, 0.19422626, 100.00600433, 110.37925720, 32.46999741, 0.00000000
1, 0.0350, 6, 0.00291033, -0.71613097, -0.08354457, -31.43310356, 49.65066528, -88.70647430, -35.16515732, 8.18474102, -67.17333984, 98.03205872, -13.06741333, 8.76945305, -0.64311421, 0.75350040, -0.01706986, 0.13546212, -0.23056211, -0.24773814, 0.21938688, 100.00600433, 110.37925720, 32.46999741, 0.00000000
1, 0.0400, 7, 0.07571591, -0.75590158, -0.04168541, -31.68837547, 45.51199722, -96.37313080, -35.10669327, 7.27857351, -67.67027283, 97.80603027, -12.62140942, 9.06790733, -0.64476001, 0.75239909, -0.01281743, 0.13422365, -0.29606673, -0.21025695, 0.17406605, 100.00600433, 110.37925720, 32.46999741, 0.00000000
1, 0.0450, 8, 0.10385986, -0.78207040, 0.01838901, -33.27219772, 44.61043930, -107.34580231, -35.10669327, 7.27857351, -67.67027283, 97.57431030, -12.11929035, 9.36683750, -0.64650548, 0.75124496, -0.00823984, 0.13264216, -0.31599855, -0.18655115, 0.11037529, 100.00600433, 110.37925720, 32.46999741, 0.00000000
1, 0.0500, 9, 0.06776988, -0.78454435, 0.05375257, -39.73533249, 44.32102203, -117.99640656, -35.10669327, 7.27857351, -67.67027283, 97.31092072, -11.55680466, 9.66927147, -0.64852029, 0.74988377, -0.00332005, 0.13070898, -0.27071667, -0.18665212, 0.07087245, 100.00600433, 110.37925720, 32.46999741, 0.00000000
1, 0.0700, 10, -0.09673032, -0.93831348, 0.12037914, -29.10401535, 44.24170685, -132.75036621, -34.05437088, 6.78164291, -67.55334473, 96.41175842, -9.10006523, 10.91020584, -0.65572441, 0.74485475, 0.01802207, 0.12203330, -0.06447455, -0.04258347, -0.01110274, 100.00600433, 110.37925720, 32.46999741, 0.00000000
1, 0.0750, 11, -0.09938467, -0.98964655, 0.14269792, -30.44006348, 45.46102905, -134.70227051, -34.05437088, 6.78164291, -67.55334473, 96.21173859, -8.45551777, 11.21261978, -0.65739304, 0.74361247, 0.02352997, 0.11967145, -0.05080745, 0.00660385, -0.03672061, 100.00600433, 110.37925720, 32.46999741, 0.00000000
1, 0.0800, 12, -0.08670921, -1.01779044, 0.11628165, -31.39290619, 50.20985794, -136.99555969, -33.46974564, 5.20315695, -68.10874176, 96.00717926, -7.80100584, 11.53728485, -0.65907270, 0.74228489, 0.02924265, 0.11739360, -0.05215701, 0.03278202, -0.01364237, 100.00600433, 110.37925720, 32.46999741, 0.00000000
1, 0.0850, 13, -0.06239631, -1.03536499, 0.04599534, -30.37245369, 56.34897995, -139.91175842, -33.46974564, 5.20315695, -68.10874176, 95.80757141, -7.13395309, 11.89139462, -0.66069788, 0.74091887, 0.03523047, 0.11522374, -0.06481490, 0.04857942, 0.05336693, 100.00600433, 110.37925720, 32.46999741, 0.00000000
1, 0.0900, 14, -0.05225138, -1.05355680, -0.01769589, -27.73607826, 61.18211365, -142.98481750, -32.50511551, 7.07395506, -67.84565735, 95.62252045, -6.45276451, 12.26845455, -0.66221553, 0.73956525, 0.04146884, 0.11311148, -0.06306104, 0.06512032, 0.11393580, 100.00600433, 110.37925720, 32.46999741, 0.00000000
1, 0.0950, 15, -0.05269661, -1.08325028, -0.02642241, -24.98443413, 65.28688049, -146.14680481, -32.50511551, 7.07395506, -67.84565735, 95.45363617, -5.75660610, 12.66494656, -0.66362065, 0.73822892, 0.04793962, 0.11102937, -0.05058409, 0.09322187, 0.11976053, 100.00600433, 110.37925720, 32.46999741, 0.00000000
1, 0.1000, 16, -0.08064619, -1.13832796, -0.02821063, -21.99922562, 67.40716553, -150.72608948, -32.50511551, 7.07395506, -67.84565735, 95.30101776, -5.03725767, 13.07227707, -0.66492945, 0.73690611, 0.05463394, 0.10887338, -0.01025697, 0.14684287, 0.11878832, 100.00600433, 110.37925720, 32.46999741, 0.00000000
1, 0.1050, 17, -0.09844419, -1.17348754, -0.02489970, -19.43496513, 66.45576477, -153.72581482, -31.21894073, 6.28471184, -68.16719818, 95.16923523, -4.30173731, 13.47337818, -0.66612160, 0.73562992, 0.06140359, 0.10658447, 0.02026150, 0.18070063, 0.11308572, 100.00600433, 110.37925720, 32.46999741, 0.00000000
1, 0.1100, 18, -0.13056354, -1.23134160, 0.00267201, -17.05633736, 63.36161423, -156.03811646, -31.21894073, 6.28471184, -68.16719818, 95.05565643, -3.55245996, 13.85809517, -0.66722029, 0.73439109, 0.06816531, 0.10411683, 0.06531857, 0.23739593, 0.08340298, 100.00600433, 110.37925720, 32.46999741, 0.00000000
1, 0.1150, 19, -0.16340257, -1.26345468, 0.03853134, -17.55663300, 63.25047684, -157.40145874, -30.45892906, 3.68313360, -68.48874664, 94.94470215, -2.79560161, 14.24106598, -0.66830498, 0.73309374, 0.07496137, 0.10160175, 0.11122072, 0.26851153, 0.04555593, 100.00600433, 110.37925720, 32.46999741, 0.00000000
1, 0.1850, 20, -0.04046552, -1.04291081, -0.00318783, -6.66170216, 5.61587238, -69.25038910, -26.77579689, 6.13855600, -68.51797485, 93.99823761, 6.17757082, 18.45559502, -0.67852503, 0.71493667, 0.15338121, 0.07031102, 0.14665255, 0.05099656, 0.07081695, 100.00600433, 110.37925720, 32.46999741, 0.00000000
1, 0.1900, 21, -0.09785309, -1.07227695, -0.03729426, -2.70830917, 1.73273039, -58.35183716, -25.63577843, 1.57848585, -68.48874664, 93.98712158, 6.46802521, 18.48424721, -0.67877990, 0.71445435, 0.15524054, 0.06865352, 0.20938146, 0.08097348, 0.10442249, 100.00600433, 110.37925720, 32.46999741, 0.00000000
1, 0.1950, 22, -0.16819838, -1.11135530, -0.00132769, -1.10968769, -4.81771278, -48.92401886, -25.63577843, 1.57848585, -68.48874664, 93.98009491, 6.71370697, 18.47675514, -0.67899650, 0.71409953, 0.15661627, 0.06706031, 0.28408489, 0.12049267, 0.06806987, 100.00600433, 110.37925720, 32.46999741, 0.00000000
1, 0.2000, 23, -0.20331426, -1.13383162, 0.05186041, -3.54596043, -4.53823948, -41.06970596, -25.63577843, 1.57848585, -68.48874664, 93.95990753, 6.89305067, 18.46577263, -0.67924947, 0.71375686, 0.15757719, 0.06588521, 0.32257670, 0.14327647, 0.01444830, 100.00600433, 110.37925720, 32.46999741, 0.00000000
1, 0.2050, 24, -0.22018290, -1.10786819, 0.08353223, -7.72428417, 4.12582541, -34.88618851, -25.31423569, 5.43700647, -68.81028748, 93.92483521, 7.06560707, 18.49830818, -0.67956394, 0.71327317, 0.15876131, 0.06503200, 0.34226346, 0.11757508, -0.01779619, 100.00600433, 110.37925720, 32.46999741, 0.00000000
1, 0.2100, 25, -0.21189056, -1.02451539, 0.05921686, -10.21656132, 17.41018295, -29.03462982, -25.31423569, 5.43700647, -68.81028748, 93.88549805, 7.20454645, 18.59556389, -0.67984533, 0.71271694, 0.16015050, 0.06478254, 0.33658639, 0.03453313, 0.00597671, 100.00600433, 110.37925720, 32.46999741, 0.00000000
1, 0.2150, 26, -0.20872015, -0.95839512, 0.03396968, -10.08804321, 28.82130241, -22.56003952, -25.72347260, 5.93393755, -68.10874176, 93.85405731, 7.30749655, 18.74799919, -0.68002236, 0.71217602, 0.16167781, 0.06507850, 0.33549839, -0.03133122, 0.03071733, 100.00600433, 110.37925720, 32.46999741, 0.00000000
1, 0.2200, 27, -0.20746408, -0.89676189, -0.00727555, -8.41838741, 42.98413086, -12.60436535, -25.72347260, 5.93393755, -68.10874176, 93.83994293, 7.35621595, 18.96838760, -0.68001634, 0.71171278, 0.16332158, 0.06609757, 0.33534500, -0.09278903, 0.07175429, 100.00600433, 110.37925720, 32.46999741, 0.00000000
1, 0.2600, 28, 0.09302853, -0.89908290, 0.04107426, 1.08513677, 41.96660614, 37.90081024, -26.27886581, 6.34317446, -68.02104950, 94.04466248, 6.52758074, 20.96134949, -0.67682964, 0.71118623, 0.17103298, 0.08284675, 0.02145515, -0.09193262, 0.02763061, 100.00600433, 110.37925720, 32.46999741, 0.00000000
1, 0.2650, 29, 0.11090601, -0.88628078, 0.04230151, 1.67026532, 35.89445496, 42.97140884, -27.12657166, 3.44928384, -67.20256805, 94.07199860, 6.30085182, 21.12657356, -0.67634904, 0.71142679, 0.17076953, 0.08521646, -0.00025903, -0.10513678, 0.02697412, 100.00600433, 110.37925720, 32.46999741, 0.00000000
1, 0.2700, 30, 0.11507291, -0.87667489, 0.03907621, 3.16998148, 30.76036072, 48.47333908, -27.12657166, 3.44928384, -67.20256805, 94.10321045, 6.04840612, 21.26391792, -0.67583501, 0.71176767, 0.17018844, 0.08757773, -0.00870947, -0.11516728, 0.03078495, 100.00600433, 110.37925720, 32.46999741, 0.00000000
1, 0.2750, 31, 0.10655123, -0.86408281, 0.05466170, 4.58315325, 17.81605148, 52.80875397, -27.12657166, 3.44928384, -67.20256805, 94.13409424, 5.77881575, 21.33463097, -0.67535180, 0.71222812, 0.16909511, 0.08965454, -0.00481903, -0.12822598, 0.01576981, 100.00600433, 110.37925720, 32.46999741, 0.00000000
1, 0.2800, 32, 0.06043857, -0.85763180, 0.07875402, 5.41910887, 8.07964039, 55.33516312, -27.85735130, 6.08009338, -67.23180389, 94.16394806, 5.50004435, 21.35547066, -0.67490029, 0.71276599, 0.16763835, 0.09149695, 0.03642771, -0.13515769, -0.00786550, 100.00600433, 110.37925720, 32.46999741, 0.00000000
1, 0.2850, 33, -0.05189517, -0.84482837, 0.16897860, 4.08705902, 0.98887914, 57.14603424, -27.85735130, 6.08009338, -67.23180389, 94.18365479, 5.21473837, 21.34000397, -0.67453063, 0.71330190, 0.16590968, 0.09318186, 0.14360932, -0.14854768, -0.09792635, 100.00600433, 110.37925720, 32.46999741, 0.00000000
1, 0.2900, 34, 0.06484501, -0.77297449, 0.34642345, 6.61252308, -4.24918365, 60.07363510, -27.85735130, 6.16778708, -67.81642914, 94.21369171, 4.91674471, 21.29716301, -0.67410356, 0.71395016, 0.16394509, 0.09477124, 0.02130922, -0.22111961, -0.27449650, 100.00600433, 110.37925720, 32.46999741, 0.00000000
1, 0.2950, 35, 0.25091007, -0.82665634, 0.52255094, 17.08135414, -22.58208275, 61.39620590, -27.85735130, 6.16778708, -67.81642914, 94.28865814, 4.61897230, 21.16186333, -0.67347050, 0.71498626, 0.16144215, 0.09575295, -0.17040637, -0.16808712, -0.44913679, 100.00600433, 110.37925720, 32.46999741, 0.00000000
1, 0.3150, 36, 0.63402462, -1.12082696, 0.60785723, 23.12176132, -26.32804108, 29.29748917, -28.52966881, 5.49546909, -67.11487579, 94.75403595, 3.83894038, 20.54484558, -0.67033827, 0.71957976, 0.15346321, 0.09643999, -0.56802720, 0.12550429, -0.52589738, 100.00600433, 110.37925720, 32.46999741, 0.00000000
1, 0.3200, 37, 0.52600443, -1.24356496, 0.48860353, 23.24874496, -19.91002655, 26.04878616, -28.52966881, 5.49546909, -67.11487579, 94.86333466, 3.71760201, 20.43470573, -0.66962886, 0.72051835, 0.15216282, 0.09642112, -0.46185499, 0.24845402, -0.40520585, 100.00600433, 110.37925720, 32.46999741, 0.00000000
1, 0.3250, 38, 0.30918500, -1.35431969, 0.30998936, 21.96067238, -9.97538280, 28.19479942, -28.52966881, 5.49546909, -67.11487579, 94.96957397, 3.58159232, 20.37305832, -0.66888279, 0.72138983, 0.15108004, 0.09678528, -0.24689817, 0.35951203, -0.22544684, 100.00600433, 110.37925720, 32.46999741, 0.00000000
1, 0.3300, 39, -0.01439734, -1.44544423, 0.09548604, 25.76762199, 3.13949370, 34.66316986, -28.26658821, 5.20315695, -66.55948639, 95.09888458, 3.40789032, 20.37380219, -0.66790068, 0.72235769, 0.15019338, 0.09772491, 0.07438228, 0.45099896, -0.00976967, 100.00600433, 110.37925720, 32.46999741, 0.00000000
1, 0.3350, 40, -0.20963845, -1.46901429, -0.01586689, 31.64948273, 0.18469320, 39.46022797, -28.26658821, 5.20315695, -66.55948639, 95.25665283, 3.21167541, 20.35725021, -0.66672891, 0.72353804, 0.14909440, 0.09867218, 0.26657185, 0.47479275, 0.10369381, 100.00600433, 110.37925720, 32.46999741, 0.00000000
1, 0.3400, 41, -0.33733690, -1.46082282, -0.10694959, 35.33172226, 2.51934958, 43.67525864, -29.37737465, 6.05086231, -65.88716888, 95.43345642, 2.99349570, 20.34983253, -0.66540349, 0.72483927, 0.14794593, 0.09979101, 0.39079463, 0.46682590, 0.19749108, 100.00600433, 110.37925720, 32.46999741, 0.00000000
1, 0.3450, 42, -0.42362061, -1.42943156, -0.16721486, 35.37442398, 14.39280033, 46.79695129, -29.37737465, 6.05086231, -65.88716888, 95.61337280, 2.75417757, 20.39943123, -0.66398221, 0.72610539, 0.14704338, 0.10137470, 0.47314179, 0.43562526, 0.26074076, 100.00600433, 110.37925720, 32.46999741, 0.00000000
1, 0.3500, 43, -0.45216131, -1.39183414, -0.19559512, 32.82431793, 31.47365570, 48.25305939, -29.90353584, 7.65857935, -65.82870483, 95.77881622, 2.49099636, 20.53241158, -0.66254646, 0.72720480, 0.14652516, 0.10361391, 0.49729902, 0.39815986, 0.29209673, 100.00600433, 110.37925720, 32.46999741, 0.00000000
1, 0.3750, 44, -0.22551069, -1.11509705, -0.33653176, 2.45826459, 34.66042328, 39.49683762, -31.07278633, 3.88775206, -65.94563293, 96.17518616, 1.25840092, 21.54354668, -0.65771127, 0.72963905, 0.14628062, 0.11681074, 0.24921647, 0.12170261, 0.44161251, 100.00600433, 110.37925720, 32.46999741, 0.00000000
1, 0.3800, 45, -0.05755821, -0.97620487, -0.31137311, 7.93894720, 16.04269600, 36.35440063, -31.07278633, 3.88775206, -65.94563293, 96.21659851, 1.06924069, 21.60401917, -0.65716654, 0.73001820, 0.14562768, 0.11831389, 0.07777255, -0.01724502, 0.41764140, 100.00600433, 110.37925720, 32.46999741, 0.00000000
1, 0.3850, 46, 0.02989250, -0.94179094, -0.24482736, 15.78016853, -0.20538391, 35.48173523, -31.07278633, 3.88775206, -65.94563293, 96.29563141, 0.89317924, 21.58399010, -0.65647793, 0.73069835, 0.14457645, 0.11922444, -0.01294746, -0.05169297, 0.35256809, 100.00600433, 110.37925720, 32.46999741, 0.00000000
1, 0.3900, 47, 0.16333243, -0.90806472, -0.10372912, 25.11811256, -19.07722092, 37.08628082, -32.03741455, 7.51242304, -65.71177673, 96.42008209, 0.71957517, 21.46897125, -0.65559977, 0.73175156, 0.14298122, 0.11952026, -0.14975850, -0.08547077, 0.21388301, 100.00600433, 110.37925720, 32.46999741, 0.00000000
1, 0.3950, 48, 0.26064968, -0.91115797, 0.01883900, 29.06167221, -32.76628494, 39.96964645, -32.03741455, 7.51242304, -65.71177673, 96.56386566, 0.53959817, 21.28392601, -0.65466207, 0.73300314, 0.14092189, 0.11943661, -0.25048879, -0.08233988, 0.09398392, 100.00600433, 110.37925720, 32.46999741, 0.00000000
1, 0.4000, 49, 0.33063102, -0.92554998, 0.11466669, 29.76514053, -46.23299026, 42.58408737, -32.47588348, 7.27857351, -65.53639221, 96.71234894, 0.37056181, 21.03117371, -0.65377581, 0.73434335, 0.13849463, 0.11889629, -0.32378051, -0.06783466, 0.00087485, 100.00600433, 110.37925720, 32.46999741, 0.00000000
1, 0.4050, 50, 0.34352547, -0.93925107, 0.16051997, 27.58353615, -62.64855576, 43.65772629, -32.47588348, 7.27857351, -65.53639221, 96.84918213, 0.19059169, 20.69468117, -0.65303576, 0.73571754, 0.13545251, 0.11796933, -0.33982655, -0.05393711, -0.04252566, 100.00600433, 110.37925720, 32.46999741, 0.00000000
1, 0.4100, 51, 0.29286718, -0.93589187, 0.15777698, 24.04281425, -81.72173309, 43.21313095, -32.47588348, 7.27857351, -65.53639221, 96.96916199, 0.02485934, 20.26335526, -0.65251434, 0.73707551, 0.13185966, 0.11643770, -0.29212570, -0.05704002, -0.03775090, 100.00600433, 110.37925720, 32.46999741, 0.00000000
1, 0.4200, 52, 0.12330591, -0.88883376, 0.21958895, 19.98649597, -111.83288574, 39.49751282, -31.94972229, 7.98012257, -64.54253387, 97.17839813, -0.24815358, 19.16464806, -0.65195262, 0.73975873, 0.12343337, 0.11170974, -0.12764856, -0.10373815, -0.09622779, 100.00600433, 110.37925720, 32.46999741, 0.00000000
1, 0.4250, 53, 0.03949550, -0.86810541, 0.25970003, 22.11056900, -117.24530029, 37.90432739, -31.59894753, 8.27243519, -64.83484650, 97.29265594, -0.36306122, 18.55944061, -0.65167183, 0.74115545, 0.11897839, 0.10888828, -0.04598869, -0.12428024, -0.13459948, 100.00600433, 110.37925720, 32.46999741, 0.00000000
1, 0.4300, 54, -0.05746341, -0.87354422, 0.29787841, 25.05023766, -116.39921570, 37.08086777, -31.59894753, 8.27243519, -64.83484650, 97.42276001, -0.47309604, 17.95869827, -0.65127623, 0.74260527, 0.11458471, 0.10605203, 0.04893812, -0.11861020, -0.17084602, 100.00600433, 110.37925720, 32.46999741, 0.00000000
1, 0.4350, 55, -0.24483979, -0.91760981, 0.32550618, 27.29030418, -110.80484009, 35.53824615, -31.59894753, 8.27243519, -64.83484650, 97.56489563, -0.57763052, 17.38642883, -0.65076900, 0.74406391, 0.11040752, 0.10333854, 0.23438731, -0.07425803, -0.19660157, 100.00600433, 110.37925720, 32.46999741, 0.00000000
1, 0.4400, 56, -0.35195613, -0.95088923, 0.31766787, 27.21069908, -101.73565674, 33.51209259, -31.36509705, 8.38935947, -65.03945923, 97.70712280, -0.67665702, 16.86017418, -0.65021366, 0.74545068, 0.10655078, 0.10085922, 0.33977687, -0.04061608, -0.18660128, 100.00600433, 110.37925720, 32.46999741, 0.00000000
1, 0.4450, 57, -0.51756167, -1.00351369, 0.29767233, 24.40982056, -85.68142700, 29.72414398, -31.36509705, 8.38935947, -65.03945923, 97.83512878, -0.76641464, 16.41575813, -0.64967877, 0.74665445, 0.10325871, 0.09880477, 0.50381833, 0.01236972, -0.16483057, 100.00600433, 110.37925720, 32.46999741, 0.00000000
1, 0.4500, 58, -0.61209893, -1.03045988, 0.26282513, 21.75467682, -72.95874023, 25.46935844, -30.86816597, 8.44782257, -64.48406982, 97.95308685, -0.86230749, 16.03520203, -0.64914215, 0.74773407, 0.10033347, 0.09716749, 0.59687847, 0.03967957, -0.12820233, 100.00600433, 110.37925720, 32.46999741, 0.00000000
1, 0.4550, 59, -0.66555542, -1.04822063, 0.22073485, 20.37410164, -56.96873474, 20.50507927, -30.86816597, 8.44782257, -64.48406982, 98.05982971, -0.92440742, 15.73895931, -0.64863539, 0.74864101, 0.09813660, 0.09580225, 0.64912426, 0.05779573, -0.08437300, 100.00600433, 110.37925720, 32.46999741, 0.00000000
1, 0.4850, 60, -0.10781271, -1.02323186, 0.21659620, 19.81886864, 28.50170517, 0.18607804, -31.16047859, 5.87547493, -63.84098053, 98.68282318, -1.12106717, 15.71131229, -0.64439088, 0.75232148, 0.09736529, 0.09640005, 0.08779739, 0.03446149, -0.06801261, 100.00600433, 110.37925720, 32.46999741, 0.00000000
1, 0.4900, 61, 0.00759262, -1.00946414, 0.18380684, 18.38334274, 32.33834457, -0.54545265, -30.80970383, 8.18474102, -63.60713196, 98.77155304, -1.14242280, 15.87164402, -0.64365196, 0.75269842, 0.09837276, 0.09736526, -0.02789825, 0.02099385, -0.03335336, 100.00600433, 110.37925720, 32.46999741, 0.00000000
1, 0.4950, 62, 0.07181571, -0.99791837, 0.18200131, 17.96968079, 31.38052368, 0.03287032, -30.80970383, 8.18474102, -63.60713196, 98.85827637, -1.16615117, 16.02677345, -0.64292663, 0.75306857, 0.09933239, 0.09831685, -0.09251033, 0.00969090, -0.02987057, 100.00600433, 110.37925720, 32.46999741, 0.00000000
1, 0.5000, 63, 0.13862897, -0.99453473, 0.18938051, 18.01021004, 28.44551849, 1.89026749, -31.48202324, 9.26629639, -63.25635529, 98.94953918, -1.17682648, 16.16673088, -0.64219558, 0.75346619, 0.10027096, 0.09909216, -0.15967497, 0.00654154, -0.03554553, 100.00600433, 110.37925720, 32.46999741, 0.00000000
1, 0.5050, 64, 0.17592123, -0.99449134, 0.18889393, 17.70808983, 24.42826653, 3.72623038, -31.48202324, 9.26629639, -63.25635529, 99.03565979, -1.21390688, 16.28458405, -0.64148998, 0.75387228, 0.10091243, 0.09991992, -0.19741130, 0.00674914, -0.03344087, 100.00600433, 110.37925720, 32.46999741, 0.00000000
1, 0.5100, 65, 0.19797285, -0.99322474, 0.18155676, 17.29271889, 18.03858376, 5.68234777, -31.48202324, 9.26629639, -63.25635529, 99.12036896, -1.25583804, 16.36928558, -0.64081639, 0.75430220, 0.10130848, 0.10059431, -0.22015682, 0.00574331, -0.02458232, 100.00600433, 110.37925720, 32.46999741, 0.00000000
1, 0.5150, 66, 0.21033253, -0.99406195, 0.17402764, 16.96292114, 10.46436310, 7.67924643, -32.27126694, 9.44168377, -63.02250671, 99.20427704, -1.30179155, 16.41494560, -0.64017731, 0.75476456, 0.10142516, 0.10107706, -0.23328361, 0.00684315, -0.01557970, 100.00600433, 110.37925720, 32.46999741, 0.00000000
1, 0.5200, 67, 0.21048567, -0.99783111, 0.18148501, 16.35416603, 2.40278721, 9.56292343, -32.27126694, 9.44168377, -63.02250671, 99.28605652, -1.35070324, 16.41923332, -0.63958508, 0.75525308, 0.10125142, 0.10135002, -0.23429437, 0.01084937, -0.02162668, 100.00600433, 110.37925720, 32.46999741, 0.00000000
1, 0.5550, 68, -0.07660625, -0.98635936, 0.20385930, 13.19252682, -19.65491867, 17.56004333, -31.62817764, 9.99707699, -62.78865814, 99.80443573, -1.77807581, 15.77195168, -0.63629794, 0.75899214, 0.09504028, 0.10011709, 0.04537432, 0.00104302, -0.03575728, 100.00600433, 110.37925720, 32.46999741, 0.00000000
1, 0.5600, 69, -0.08762167, -0.99389338, 0.20392868, 12.58992290, -16.84296799, 17.73989487, -31.62817764, 9.99707699, -62.78865814, 99.87069702, -1.85109103, 15.67391491, -0.63587135, 0.75948924, 0.09404118, 0.10000022, 0.05512866, 0.00881575, -0.03471979, 100.00600433, 110.37925720, 32.46999741, 0.00000000
1, 0.5650, 70, -0.09800559, -0.99971890, 0.20153919, 12.19692230, -13.77878952, 17.64267159, -32.56357574, 7.68781042, -62.14557266, 99.93462372, -1.92612958, 15.59097958, -0.63544488, 0.75996065, 0.09312861, 0.09998357, 0.06422089, 0.01488032, -0.03126226, 100.00600433, 110.37925720, 32.46999741, 0.00000000
1, 0.5700, 71, -0.09663865, -1.00519538, 0.20482802, 11.72348213, -9.91714001, 17.67063904, -32.56357574, 7.68781042, -62.14557266, 99.99565125, -2.00453234, 15.52697563, -0.63501757, 0.76040143, 0.09232025, 0.10009746, 0.06149119, 0.02058217, -0.03350662, 100.00600433, 110.37925720, 32.46999741, 0.00000000
1, 0.5750, 72, -0.09830530, -1.00991225, 0.21051100, 11.85262012, -5.87689877, 17.73024559, -31.65740967, 9.61707115, -62.17480087, 100.05670166, -2.08664083, 15.48273468, -0.63456881, 0.76082760, 0.09162250, 0.10034616, 0.06173141, 0.02552363, -0.03816389, 100.00600433, 110.37925720, 32.46999741, 0.00000000
1, 0.5800, 73, -0.10881795, -1.01421499, 0.21039972, 11.80614281, -2.01311827, 17.82293320, -31.65740967, 9.61707115, -62.17480087, 100.11688232, -2.17251754, 15.45736694, -0.63410521, 0.76123512, 0.09102857, 0.10072570, 0.07075986, 0.03006532, -0.03705504, 100.00600433, 110.37925720, 32.46999741, 0.00000000
1, 0.5850, 74, -0.12558576, -1.01327920, 0.21205296, 11.68550491, 2.12599707, 18.02828026, -31.65740967, 9.61707115, -62.17480087, 100.17571259, -2.26299047, 15.45211983, -0.63362777, 0.76162118, 0.09054194, 0.10124859, 0.08596873, 0.02936670, -0.03774416, 100.00600433, 110.37925720, 32.46999741, 0.00000000
1, 0.5900, 75, -0.14105858, -1.01206553, 0.21777739, 11.52176952, 6.92282820, 18.39006615, -32.73896408, 9.96784592, -61.59017944, 100.23282623, -2.35944891, 15.47009563, -0.63313454, 0.76198238, 0.09017541, 0.10194123, 0.09977083, 0.02838691, -0.04252667, 100.00600433, 110.37925720, 32.46999741, 0.00000000
1, 0.5950, 76, -0.14847966, -1.00692511, 0.22792676, 11.28114986, 12.17403984, 18.65850449, -32.73896408, 9.96784592, -61.59017944, 100.28764343, -2.46187687, 15.51360512, -0.63262671, 0.76231384, 0.08994418, 0.10281645, 0.10540754, 0.02347323, -0.05175071, 100.00600433, 110.37925720, 32.46999741, 0.00000000
1, 0.6000, 77, -0.14024508, -1.00081539, 0.23755775, 10.92682743, 18.01522064, 18.97749901, -32.76819611, 9.90938282, -61.44402313, 100.34624481, -2.58091378, 15.58373451, -0.63205111, 0.76265484, 0.08980208, 0.10394558, 0.09518944, 0.01760665, -0.06040519, 100.00600433, 110.37925720, 32.46999741, 0.00000000
1, 0.6050, 78, -0.12267015, -1.00066590, 0.24151202, 10.31093121, 21.97168922, 19.36006355, -32.76819611, 9.90938282, -61.44402313, 100.39385986, -2.69563055, 15.67467976, -0.63153201, 0.76291561, 0.08981360, 0.10516930, 0.07553519, 0.01770592, -0.06344227, 100.00600433, 110.37925720, 32.46999741, 0.00000000
1, 0.6100, 79, -0.08931690, -0.98515868, 0.20392498, 7.99144268, 28.49829674, 19.43999481, -32.76819611, 9.90938282, -62.81789017, 100.42813873, -2.81668043, 15.79761791, -0.63106304, 0.76308131, 0.08999165, 0.10662124, 0.04019419, 0.00247649, -0.02511846, 100.00600433, 110.37925720, 32.46999741, 0.00000000
1, 0.6150, 80, -0.06160252, -0.97605371, 0.17455199, 8.16025257, 29.23254013, 19.38524246, -32.70973206, 9.52937698, -62.81789017, 100.46281433, -2.93819141, 15.92416477, -0.63058424, 0.76324600, 0.09019234, 0.10809514, 0.01043654, -0.00636837, 0.00490772, 100.00600433, 110.37925720, 32.46999741, 0.00000000
1, 0.6200, 81, -0.04684305, -0.97283638, 0.17122601, 8.68898487, 29.62101555, 19.35272026, -32.70973206, 9.52937698, -62.81789017, 100.49979401, -3.05996990, 16.05259705, -0.63008475, 0.76342154, 0.09040717, 0.10957873, -0.00643899, -0.00935686, 0.00887850, 100.00600433, 110.37925720, 32.46999741, 0.00000000
1, 0.6250, 82, -0.03980128, -0.97223079, 0.17188299, 8.84379292, 28.48360062, 18.90301323, -33.73282623, 9.90938282, -62.11634064, 100.53754425, -3.17858624, 16.17576408, -0.62958527, 0.76360291, 0.09060612, 0.11101115, -0.01556716, -0.00973296, 0.00886527, 100.00600433, 110.37925720, 32.46999741, 0.00000000
1, 0.6300, 83, -0.02590553, -0.97442615, 0.15356983, 8.92446709, 24.63098145, 18.35447884, -33.73282623, 9.90938282, -62.11634064, 100.57649994, -3.29108405, 16.28038597, -0.62909967, 0.76380157, 0.09071749, 0.11229968, -0.03140695, -0.00727487, 0.02785074, 100.00600433, 110.37925720, 32.46999741, 0.00000000
1, 0.6350, 84, -0.01451735, -0.97694099, 0.14218368, 8.98591328, 19.51491737, 18.19670105, -33.93744659, 10.72785759, -61.73633194, 100.61701965, -3.39821744, 16.35989952, -0.62863189, 0.76402491, 0.09069357, 0.11341321, -0.04465095, -0.00450562, 0.03992824, 100.00600433, 110.37925720, 32.46999741, 0.00000000
1, 0.6400, 85, -0.01036571, -0.98246562, 0.14370075, 8.92779732, 15.53908634, 18.38309097, -33.93744659, 10.72785759, -61.73633194, 100.65827942, -3.50269222, 16.41959190, -0.62818009, 0.76426601, 0.09055369, 0.11439961, -0.05063831, 0.00125666, 0.03909836, 100.00600433, 110.37925720, 32.46999741, 0.00000000
1, 0.6500, 86, -0.01545004, -0.97839606, 0.15637256, 8.43106174, 6.83794546, 19.37379456, -33.70359421, 10.26015759, -61.94095230, 100.73565674, -3.69728732, 16.47537613, -0.62738723, 0.76476026, 0.08992580, 0.11593282, -0.04905896, -0.00236369, 0.02773956, 100.00600433, 110.37925720, 32.46999741, 0.00000000
1, 0.6550, 87, -0.02518307, -0.97606206, 0.18068859, 8.25454617, 4.08759403, 20.71257210, -33.70359421, 10.26015759, -61.94095230, 100.77713013, -3.80274367, 16.47632408, -0.62698895, 0.76504755, 0.08939036, 0.11660399, -0.04112772, -0.00449815, 0.00405698, 100.00600433, 110.37925720, 32.46999741, 0.00000000
1, 0.6600, 88, -0.03752056, -0.96765327, 0.19911966, 7.40505552, 1.02628624, 21.70198631, -33.90821457, 10.93247604, -60.94709015, 100.81545258, -3.91022539, 16.46119690, -0.62662512, 0.76533055, 0.08873357, 0.11720341, -0.03070380, -0.01268700, -0.01374594, 100.00600433, 110.37925720, 32.46999741, 0.00000000
1, 0.6650, 89, -0.04228638, -0.96095788, 0.19914646, 7.04673862, -1.59953678, 22.13468742, -33.90821457, 10.93247604, -60.94709015, 100.85292816, -4.01738405, 16.43266106, -0.62628061, 0.76561791, 0.08798841, 0.11772844, -0.02780693, -0.01913268, -0.01315242, 100.00600433, 110.37925720, 32.46999741, 0.00000000
1, 0.6700, 90, -0.05099403, -0.95057309, 0.19822665, 6.75515032, -3.87496972, 22.50479126, -33.90821457, 10.93247604, -60.94709015, 100.88983917, -4.12421846, 16.39249992, -0.62595183, 0.76590967, 0.08716702, 0.11818869, -0.02095824, -0.02926525, -0.01162896, 100.00600433, 110.37925720, 32.46999741, 0.00000000
1, 0.6750, 91, -0.06303979, -0.95224559, 0.20169577, 6.58550072, -4.57106209, 22.42025566, -34.46360779, 10.75708866, -61.56094742, 100.92622375, -4.22996235, 16.34891510, -0.62563127, 0.76619935, 0.08632839, 0.11862396, -0.01076607, -0.02734773, -0.01453722, 100.00600433, 110.37925720, 32.46999741, 0.00000000
1, 0.6800, 92, -0.08234009, -0.95786798, 0.20201257, 7.09143925, -5.26030207, 22.29222870, -34.46360779, 10.75708866, -61.56094742, 100.96543121, -4.33439064, 16.30198288, -0.62529653, 0.76650482, 0.08547773, 0.11903062, 0.00670994, -0.02146519, -0.01427695, 100.00600433, 110.37925720, 32.46999741, 0.00000000
1, 0.6850, 93, -0.10413609, -0.96544731, 0.19683167, 7.16277599, -5.22986412, 22.50236130, -34.87284470, 10.43554497, -61.03478622, 101.00511932, -4.43984938, 16.25492859, -0.62495732, 0.76681221, 0.08462122, 0.11944368, 0.02669141, -0.01360872, -0.00850995, 100.00600433, 110.37925720, 32.46999741, 0.00000000
1, 0.7200, 94, -0.05074397, -0.98621202, 0.16969833, 5.24864864, -2.58972335, 23.57111740, -35.10669327, 11.04940033, -61.29786682, 101.23210907, -5.22841454, 16.00548744, -0.62277311, 0.76861674, 0.07883430, 0.12315513, -0.04032327, 0.00909884, 0.02241465, 100.00600433, 110.37925720, 32.46999741, 0.00000000
1, 0.7250, 95, -0.02432589, -0.98694146, 0.15647559, 4.96762896, -5.83062935, 23.53249741, -35.54516220, 9.32475853, -61.44402313, 101.26200104, -5.33815622, 15.95392418, -0.62249762, 0.76886505, 0.07791479, 0.12358294, -0.06862739, 0.01012383, 0.03617477, 100.00600433, 110.37925720, 32.46999741, 0.00000000
1, 0.7300, 96, -0.02106193, -0.98632538, 0.15507987, 5.31491137, -8.05887985, 23.61517525, -35.54516220, 9.32475853, -61.44402313, 101.29476166, -5.44610977, 15.89122772, -0.62221682, 0.76913399, 0.07693363, 0.12393695, -0.07376727, 0.00979116, 0.03808781, 100.00600433, 110.37925720, 32.46999741, 0.00000000
1, 0.7350, 97, -0.02652280, -0.98876035, 0.15043294, 5.36126328, -8.80539703, 24.26278114, -35.57439423, 11.37094402, -61.09324646, 101.32827759, -5.55647612, 15.82413960, -0.62193286, 0.76940948, 0.07591057, 0.12428324, -0.07019879, 0.01252740, 0.04325497, 100.00600433, 110.37925720, 32.46999741, 0.00000000
1, 0.7400, 98, -0.04012825, -0.99286497, 0.14098087, 4.91088963, -9.59699440, 25.16100311, -35.57439423, 11.37094402, -61.09324646, 101.36018372, -5.67044163, 15.75220299, -0.62166059, 0.76967907, 0.07483338, 0.12462877, -0.05853424, 0.01694620, 0.05317958, 100.00600433, 110.37925720, 32.46999741, 0.00000000
1, 0.7450, 99, -0.05457884, -0.99899375, 0.14910789, 4.46941233, -11.15188313, 25.93576241, -35.57439423, 11.37094402, -61.09324646, 101.39089966, -5.78665543, 15.67175674, -0.62140292, 0.76994663, 0.07368536, 0.12494446, -0.04611529, 0.02336439, 0.04549387, 100.00600433, 110.37925720, 32.46999741, 0.00000000
1, 0.7500, 100, -0.06187963, -1.00110745, 0.15279563, 4.63961983, -13.32461071, 26.54780197, -35.83747482, 11.31248188, -60.80093384, 101.41754913, -5.89809990, 15.58163357, -0.62118888, 0.77019417, 0.07249413, 0.12517922, -0.04080515, 0.02576955, 0.04223869, 100.00600433, 110.37925720, 32.46999741, 0.00000000
1, 0.7550, 101, -0.06944156, -0.99916399, 0.15206935, 4.69329739, -14.69601917, 27.11031532, -35.83747482, 11.31248188, -60.80093384, 101.45165253, -6.01649380, 15.48240852, -0.62092656, 0.77048844, 0.07121149, 0.12540677, -0.03523950, 0.02413688, 0.04343367, 100.00600433, 110.37925720, 32.46999741, 0.00000000
1, 0.8050, 102, -0.12224654, -0.97735667, 0.22083254, 4.25071287, -6.76738644, 30.42457581, -36.04209137, 11.48786926, -60.83016586, 101.79486847, -7.32213926, 14.61710835, -0.61800629, 0.77326572, 0.05857150, 0.12922010, -0.00513509, 0.00598732, -0.02010125, 100.00600433, 110.37925720, 32.46999741, 0.00000000
1, 0.8100, 103, -0.11622309, -0.96561193, 0.21794719, 4.22800159, -4.79245853, 30.85751343, -36.33440399, 11.42940617, -60.53785324, 101.82352448, -7.46829796, 14.56186962, -0.61769843, 0.77348673, 0.05742682, 0.12988099, -0.01366302, -0.00533405, -0.01676412, 100.00600433, 110.37925720, 32.46999741, 0.00000000
1, 0.8150, 104, -0.11252221, -0.96572900, 0.21689998, 4.67242384, -3.16650558, 31.48649788, -36.33440399, 11.42940617, -60.53785324, 101.85356140, -7.61915112, 14.51392174, -0.61736703, 0.77371055, 0.05630732, 0.13061230, -0.01995176, -0.00477577, -0.01527500, 100.00600433, 110.37925720, 32.46999741, 0.00000000
1, 0.8200, 105, -0.10588172, -0.96775436, 0.21562307, 4.60193253, -3.07772565, 32.12044907, -36.33440399, 11.42940617, -60.53785324, 101.88343811, -7.77317905, 14.46566105, -0.61703271, 0.77393210, 0.05516830, 0.13136362, -0.02924153, -0.00229286, -0.01355143, 100.00600433, 110.37925720, 32.46999741, 0.00000000
1, 0.8250, 106, -0.09396050, -0.97335100, 0.21601962, 4.47057581, -3.79518700, 32.94626999, -36.83133698, 11.86787510, -60.53785324, 101.91340637, -7.93049002, 14.41289616, -0.61669856, 0.77415454, 0.05398116, 0.13211304, -0.04386891, 0.00377369, -0.01349398, 100.00600433, 110.37925720, 32.46999741, 0.00000000
1, 0.8300, 107, -0.08537096, -0.97428679, 0.21822038, 4.11401606, -3.50759459, 33.90407181, -36.83133698, 11.86787510, -60.53785324, 101.94171906, -8.09275723, 14.36046886, -0.61636859, 0.77436644, 0.05276739, 0.13289855, -0.05525078, 0.00518979, -0.01527245, 100.00600433, 110.37925720, 32.46999741, 0.00000000
1, 0.8350, 108, -0.08519875, -0.97612309, 0.23355223, 3.90127611, -3.35713649, 34.82172394, -37.21134186, 11.83864307, -60.47939301, 101.96915436, -8.25964642, 14.30772877, -0.61603892, 0.77457207, 0.05152529, 0.13371408, -0.05832040, 0.00749948, -0.03022419, 100.00600433, 110.37925720, 32.46999741, 0.00000000
1, 0.8400, 109, -0.08758950, -0.97739911, 0.23742263, 4.01404381, -3.68781519, 35.58355713, -37.21134186, 11.83864307, -60.47939301, 101.99768829, -8.42990303, 14.25245953, -0.61570007, 0.77478248, 0.05024912, 0.13453843, -0.05886341, 0.00928783, -0.03371439, 100.00600433, 110.37925720, 32.46999741, 0.00000000
1, 0.8650, 110, -0.09754094, -0.99490094, 0.26250073, 2.40434194, -1.92748332, 40.06258011, -37.62057877, 12.71557999, -59.71937943, 102.12931824, -9.34570885, 13.98359776, -0.61398280, 0.77573687, 0.04355526, 0.13914214, -0.06466614, 0.02961909, -0.05709410, 100.00600433, 110.37925720, 32.46999741, 0.00000000
1, 0.8700, 111, -0.10528546, -0.98791826, 0.25209472, 1.68681395, -1.22284937, 40.92975998, -37.62057877, 12.71557999, -59.71937943, 102.14636993, -9.54455280, 13.93424606, -0.61367488, 0.77586836, 0.04214978, 0.14019579, -0.06029856, 0.02326751, -0.04651725, 100.00600433, 110.37925720, 32.46999741, 0.00000000
1, 0.8750, 112, -0.11274860, -0.98354137, 0.23167379, 1.64644492, -0.61829311, 41.85604095, -36.83133698, 12.59865570, -60.83016586, 102.16307068, -9.74854946, 13.88682652, -0.61335963, 0.77599424, 0.04072879, 0.14129440, -0.05627381, 0.01956147, -0.02595092, 100.00600433, 110.37925720, 32.46999741, 0.00000000
1, 0.8800, 113, -0.11421695, -0.97494781, 0.21781644, 1.56988609, 0.05389600, 42.85449982, -36.83133698, 12.59865570, -60.83016586, 102.17918396, -9.95811653, 13.84159851, -0.61303741, 0.77611315, 0.03929153, 0.14244220, -0.05835129, 0.01165416, -0.01194011, 100.00600433, 110.37925720, 32.46999741, 0.00000000
1, 0.8850, 114, -0.10267416, -0.97263551, 0.21284299, 1.53454328, 0.27221897, 43.91172028, -38.11750793, 12.92019844, -60.36246490, 102.19534302, -10.17306614, 13.79623318, -0.61270708, 0.77622885, 0.03782399, 0.14362520, -0.07355791, 0.01004288, -0.00680092, 100.00600433, 110.37925720, 32.46999741, 0.00000000
1, 0.8900, 115, -0.10345184, -0.97131360, 0.21803516, 1.14943445, 0.00005106, 44.96169662, -38.11750793, 12.92019844, -60.36246490, 102.21021271, -10.39285278, 13.74831104, -0.61238128, 0.77633482, 0.03631112, 0.14482726, -0.07654104, 0.00942869, -0.01187991, 100.00600433, 110.37925720, 32.46999741, 0.00000000
1, 0.8950, 116, -0.10294192, -0.96820641, 0.20813264, 1.00447369, 0.49255803, 46.16706085, -38.11750793, 12.92019844, -60.36246490, 102.22435760, -10.61904335, 13.70145607, -0.61204952, 0.77643281, 0.03476958, 0.14607795, -0.08087953, 0.00708441, -0.00188115, 100.00600433, 110.37925720, 32.46999741, 0.00000000
1, 0.9000, 117, -0.11172846, -0.97058177, 0.18490951, 0.58390713, 0.21923976, 47.25251389, -38.05904770, 11.57556248, -59.77784348, 102.23280334, -10.84046173, 13.65382481, -0.61176229, 0.77649623, 0.03324179, 0.14729439, -0.07589907, 0.01024970, 0.02134712, 100.00600433, 110.37925720, 32.46999741, 0.00000000
1, 0.9050, 118, -0.12321865, -0.97159255, 0.15941399, 0.63047558, -0.37158188, 48.67497635, -38.05904770, 11.57556248, -59.77784348, 102.24683380, -11.07799435, 13.59982395, -0.61142296, 0.77658695, 0.03158965, 0.14858238, -0.06830293, 0.01208818, 0.04683935, 100.00600433, 110.37925720, 32.46999741, 0.00000000
1, 0.9100, 119, -0.13248502, -0.97424793, 0.14730348, 1.34917998, -0.61330265, 50.30751801, -38.67290115, 12.65711784, -60.07015610, 102.26527405, -11.32322216, 13.54274750, -0.61104625, 0.77669716, 0.02988037, 0.14990406, -0.06317048, 0.01562693, 0.05903428, 100.00600433, 110.37925720, 32.46999741, 0.00000000
1, 0.9300, 120, -0.17502710, -0.99295235, 0.12101325, 4.12317514, -1.97404206, 57.25021362, -39.08213806, 12.86173630, -60.21630859, 102.38169098, -12.38249493, 13.27225971, -0.60918689, 0.77731341, 0.02238797, 0.15548027, -0.03852157, 0.03844339, 0.08625598, 100.00600433, 110.37925720, 32.46999741, 0.00000000
1, 0.9350, 121, -0.17915769, -0.99372339, 0.14057186, 4.92983150, -0.64924914, 58.95402527, -39.37445068, 12.59865570, -60.07015610, 102.42170715, -12.66974354, 13.20466232, -0.60861343, 0.77750695, 0.02040848, 0.15702283, -0.03929242, 0.04037364, 0.06711285, 100.00600433, 110.37925720, 32.46999741, 0.00000000
1, 0.9400, 122, -0.16595371, -0.98355186, 0.15767795, 5.61398888, 1.93354976, 60.44401932, -39.37445068, 12.59865570, -60.07015610, 102.46307373, -12.96696186, 13.14808178, -0.60800004, 0.77769709, 0.01845194, 0.15869074, -0.05755613, 0.03143159, 0.05048915, 100.00600433, 110.37925720, 32.46999741, 0.00000000
1, 0.9450, 123, -0.15375261, -0.97833967, 0.16843225, 6.55702543, 3.55809832, 61.31198502, -40.10523224, 13.27097321, -60.04092407, 102.50789642, -13.27012253, 13.09839725, -0.60734284, 0.77789634, 0.01651561, 0.16043493, -0.07491124, 0.02752288, 0.04024674, 100.00600433, 110.37925720, 32.46999741, 0.00000000
1, 0.9500, 124, -0.13374938, -0.96819901, 0.18478633, 6.75324917, 5.30188560, 62.75313950, -40.10523224, 13.27097321, -60.04092407, 102.54977417, -13.57313442, 13.05695820, -0.60669148, 0.77807146, 0.01463321, 0.16222289, -0.10014716, 0.01871913, 0.02441816, 100.00600433, 110.37925720, 32.46999741, 0.00000000
1, 0.9550, 125, -0.12276711, -0.95846021, 0.18403178, 6.93662310, 5.10190010, 63.90275955, -40.10523224, 13.27097321, -60.04092407, 102.59602356, -13.89052963, 13.01154804, -0.60599279, 0.77825999, 0.01265259, 0.16408543, -0.11641327, 0.01039749, 0.02566559, 100.00600433, 110.37925720, 32.46999741, 0.00000000
1, 0.9600, 126, -0.13085268, -0.95905364, 0.22419992, 7.57362604, 5.66765547, 65.24012756, -40.19292450, 13.53405380, -59.66091537, 102.64547729, -14.21501827, 12.96714783, -0.60525751, 0.77845597, 0.01064612, 0.16600084, -0.11388778, 0.01243280, -0.01400746, 100.00600433, 110.37925720, 32.46999741, 0.00000000
1, 0.9650, 127, -0.13307078, -0.94525397, 0.27228776, 7.45204973, 9.97163963, 65.83498383, -40.19292450, 13.53405380, -59.66091537, 102.68943024, -14.54706860, 12.94342995, -0.60451508, 0.77861130, 0.00873239, 0.16807677, -0.11737626, 0.00011249, -0.06163863, 100.00600433, 110.37925720, 32.46999741, 0.00000000
1, 0.9850, 128, -0.10106365, -0.90670240, 0.14780848, 4.35253811, 13.95448303, 68.59828186, -40.80678177, 12.92019844, -59.95322800, 102.79640198, -15.92542839, 12.95872593, -0.60172558, 0.77877522, 0.00146186, 0.17729455, -0.17221814, -0.03170975, 0.06342705, 100.00600433, 110.37925720, 32.46999741, 0.00000000
1, 0.9900, 129, -0.11154697, -0.90400040, 0.16921847, 4.94668150, 12.21721745, 70.09162140, -40.80678177, 12.92019844, -59.95322800, 102.82709503, -16.28067017, 12.94046021, -0.60100585, 0.77881515, -0.00055531, 0.17955182, -0.16772813, -0.03267590, 0.04209451, 100.00600433, 110.37925720, 32.46999741, 0.00000000
1, 0.9950, 130, -0.11784926, -0.90050483, 0.17999980, 5.19629860, 9.69597626, 72.20157623, -41.80064392, 9.96784592, -60.24554062, 102.86354065, -16.64341545, 12.90668964, -0.60025483, 0.77887344, -0.00270843, 0.18177718, -0.16748360, -0.03433075, 0.03148370, 100.00600433, 110.37925720, 32.46999741, 0.00000000
1, 1.0000, 131, -0.11882005, -0.90090108, 0.16857488, 4.90001345, 8.11900043, 73.95542145, -41.80064392, 9.96784592, -60.24554062, 102.89823914, -17.00101471, 12.86460114, -0.59953260, 0.77891493, -0.00489132, 0.18392479, -0.17253599, -0.03200802, 0.04308754, 100.00600433, 110.37925720, 32.46999741, 0.00000000
1, 1.0050, 132, -0.11445975, -0.90009344, 0.15745994, 4.61063957, 6.01488733, 75.90692902, -41.80064392, 9.96784592, -60.24554062, 102.93923950, -17.37770462, 12.80712605, -0.59875840, 0.77897084, -0.00727125, 0.18611862, -0.18303144, -0.03080625, 0.05441612, 100.00600433, 110.37925720, 32.46999741, 0.00000000
1, 1.0100, 133, -0.11313733, -0.89714992, 0.16188759, 4.88702154, 4.09906054, 77.47014618, -42.32680511, 14.64484024, -59.60245514, 102.98562622, -17.75982094, 12.73760605, -0.59795463, 0.77904022, -0.00975199, 0.18828619, -0.19070162, -0.03164496, 0.05028006, 100.00600433, 110.37925720, 32.46999741, 0.00000000
1, 1.0150, 134, -0.12267373, -0.89525521, 0.17702161, 4.80840158, 2.11211610, 78.96608734, -42.32680511, 14.64484024, -59.60245514, 103.03588867, -18.14696121, 12.65566635, -0.59713334, 0.77911407, -0.01233601, 0.19042325, -0.18761334, -0.03136741, 0.03546101, 100.00600433, 110.37925720, 32.46999741, 0.00000000
1, 1.0200, 135, -0.14584129, -0.89519608, 0.19416887, 4.37143373, 0.36399856, 80.54237366, -42.99912262, 13.85559750, -60.21630859, 103.08811951, -18.53975487, 12.56233311, -0.59630537, 0.77918082, -0.01502269, 0.19253956, -0.17097783, -0.02917651, 0.01861024, 100.00600433, 110.37925720, 32.46999741, 0.00000000
1, 1.0350, 136, -0.21141377, -0.91185939, 0.23518027, 2.04987669, -0.77312082, 85.03150177, -43.81759644, 10.93247604, -59.89476776, 103.24327087, -19.75421524, 12.23885059, -0.59382975, 0.77926052, -0.02356236, 0.19890773, -0.12545528, -0.00528462, -0.02163372, 100.00600433, 110.37925720, 32.46999741, 0.00000000
1, 1.0400, 137, -0.21616308, -0.90620852, 0.23567232, 1.57061327, 0.86856383, 86.12830353, -43.81759644, 10.93247604, -59.89476776, 103.28627777, -20.17449570, 12.13895416, -0.59301853, 0.77920377, -0.02644884, 0.20117393, -0.12757814, -0.00835779, -0.02200645, 100.00600433, 110.37925720, 32.46999741, 0.00000000
1, 1.0450, 138, -0.21899486, -0.91562057, 0.20706606, 2.10532069, 0.98919529, 87.10583496, -44.40222168, 14.84945869, -59.54399109, 103.33309937, -20.59960175, 12.03788090, -0.59217209, 0.77914774, -0.02936026, 0.20346741, -0.13161640, 0.00377012, 0.00671804, 100.00600433, 110.37925720, 32.46999741, 0.00000000
1, 1.0500, 139, -0.22500005, -0.91805053, 0.19215493, 2.52078128, 2.21608686, 88.39167023, -44.40222168, 14.84945869, -59.54399109, 103.37942505, -21.02336693, 11.94225883, -0.59131795, 0.77907568, -0.03222544, 0.20578076, -0.13253155, 0.00896001, 0.02174821, 100.00600433, 110.37925720, 32.46999741, 0.00000000
1, 1.0550, 140, -0.22245345, -0.92130172, 0.19445124, 3.81693625, 4.11559963, 89.54211426, -44.40222168, 14.84945869, -59.54399109, 103.43188477, -21.46375084, 11.85317039, -0.59037840, 0.77900970, -0.03512223, 0.20823975, -0.14213391, 0.01504664, 0.01960979, 100.00600433, 110.37925720, 32.46999741, 0.00000000
1, 1.0600, 141, -0.21211262, -0.93533969, 0.19632603, 5.68692017, 5.82444859, 91.59207153, -44.84069061, 15.20023346, -59.63168716, 103.49227142, -21.91596413, 11.76973152, -0.58934993, 0.77896106, -0.03802678, 0.21080902, -0.15978467, 0.03211415, 0.01799767, 100.00600433, 110.37925720, 32.46999741, 0.00000000
1, 1.0650, 142, -0.20202957, -0.94127131, 0.18244667, 6.35614157, 6.79488182, 93.49949646, -44.84069061, 15.20023346, -59.63168716, 103.55594635, -22.37848473, 11.68820667, -0.58827281, 0.77890491, -0.04096410, 0.21345799, -0.17727298, 0.04123300, 0.03217566, 100.00600433, 110.37925720, 32.46999741, 0.00000000
1, 1.0700, 143, -0.19289920, -0.95870936, 0.16645947, 7.65680647, 8.50116825, 95.45146942, -45.57146835, 15.69716454, -59.69014740, 103.62456512, -22.85239220, 11.61234856, -0.58712626, 0.77884936, -0.04391090, 0.21621369, -0.19395740, 0.06200968, 0.04847508, 100.00600433, 110.37925720, 32.46999741, 0.00000000
1, 1.0800, 144, -0.16723184, -0.99481988, 0.16298692, 9.38382626, 10.74962234, 99.65429688, -45.57146835, 15.69716454, -59.69014740, 103.77341461, -23.83506966, 11.47033119, -0.58465594, 0.77871656, -0.04989013, 0.22201152, -0.23528607, 0.10521588, 0.05265179, 100.00600433, 110.37925720, 32.46999741, 0.00000000
1, 1.0850, 145, -0.16372037, -1.00611758, 0.16663937, 10.39988804, 12.54862499, 101.99768829, -46.15609360, 15.28792763, -60.01169205, 103.85349274, -24.34526062, 11.40464401, -0.58332807, 0.77863526, -0.05292608, 0.22506531, -0.24688843, 0.12029835, 0.04936350, 100.00600433, 110.37925720, 32.46999741, 0.00000000
1, 1.0900, 146, -0.15844297, -1.01977146, 0.16556190, 11.11710453, 15.52942848, 104.33799744, -46.15609360, 15.28792763, -60.01169205, 103.93279266, -24.87027740, 11.35075092, -0.58194762, 0.77852136, -0.05595723, 0.22827680, -0.26044405, 0.13791731, 0.05075563, 100.00600433, 110.37925720, 32.46999741, 0.00000000
1, 1.0950, 147, -0.14171158, -1.03255022, 0.15122129, 12.11903000, 18.41667938, 106.32192993, -46.53609848, 15.84332085, -59.63168716, 104.01258087, -25.40830994, 11.30868340, -0.58050740, 0.77838242, -0.05897083, 0.23163423, -0.28559750, 0.15485083, 0.06538423, 100.00600433, 110.37925720, 32.46999741, 0.00000000
1, 1.1000, 148, -0.13087778, -1.05467689, 0.14613070, 13.74905396, 22.44414520, 108.92093658, -46.53609848, 15.84332085, -59.63168716, 104.08834839, -25.94963455, 11.28724861, -0.57903630, 0.77820992, -0.06186382, 0.23511520, -0.30498055, 0.18125454, 0.07066916, 100.00600433, 110.37925720, 32.46999741, 0.00000000
1, 1.1050, 149, -0.14154625, -1.08444023, 0.18743061, 15.32603455, 27.93242645, 111.59049225, -46.53609848, 15.84332085, -59.63168716, 104.16621399, -26.52462006, 11.28752708, -0.57743120, 0.77800459, -0.06477895, 0.23892625, -0.30324119, 0.21543565, 0.02940146, 100.00600433, 110.37925720, 32.46999741, 0.00000000
1, 1.1100, 150, -0.14098214, -1.12060165, 0.20226368, 16.98963356, 32.16489410, 114.36920929, -47.90996552, 17.80181122, -59.60245514, 104.24417877, -27.11820602, 11.30613899, -0.57573712, 0.77776891, -0.06766203, 0.24294920, -0.31304500, 0.25635168, 0.01454975, 100.00600433, 110.37925720, 32.46999741, 0.00000000
1, 1.1150, 151, -0.10148440, -1.19050562, 0.23415957, 18.34411621, 41.69003677, 118.57494354, -47.90996552, 17.80181122, -59.60245514, 104.30783081, -27.74385643, 11.37024021, -0.57396376, 0.77743137, -0.07043138, 0.24739771, -0.36217722, 0.33123833, -0.01755577, 100.00600433, 110.37925720, 32.46999741, 0.00000000
1, 1.1250, 152, 0.04176596, -1.35909045, 0.28240824, 20.36603737, 55.85124588, 127.26422119, -48.14381790, 16.54487038, -59.74861145, 104.40231323, -29.08410645, 11.59539795, -0.57017994, 0.77648622, -0.07584134, 0.25731713, -0.52592093, 0.51073086, -0.06694491, 100.00600433, 110.37925720, 32.46999741, 0.00000000
1, 1.1300, 153, 0.08524636, -1.44995463, 0.27141431, 21.96215820, 62.98146820, 131.19947815, -48.14381790, 16.54487038, -59.74861145, 104.43306732, -29.79734230, 11.75949287, -0.56815118, 0.77588141, -0.07845695, 0.26278681, -0.58013105, 0.60757774, -0.05700008, 100.00600433, 110.37925720, 32.46999741, 0.00000000
1, 1.1350, 154, 0.08856568, -1.52998722, 0.23039424, 23.76704407, 70.33913422, 134.43649292, -50.01461411, 18.97106171, -59.57322311, 104.45228577, -30.53542900, 11.96099949, -0.56602478, 0.77519274, -0.08097498, 0.26858050, -0.59441364, 0.69394457, -0.01736827, 100.00600433, 110.37925720, 32.46999741, 0.00000000
1, 1.1400, 155, 0.09206207, -1.60645437, 0.20748582, 26.98061562, 78.76375580, 137.26036072, -50.01461411, 18.97106171, -59.57322311, 104.46228027, -31.29764175, 12.20736217, -0.56375980, 0.77443832, -0.08333798, 0.27472728, -0.60919785, 0.77702391, 0.00391358, 100.00600433, 110.37925720, 32.46999741, 0.00000000
1, 1.1450, 156, 0.13366465, -1.68178689, 0.23367862, 30.40672684, 87.19692993, 139.80128479, -50.83308792, 20.08184814, -59.83630371, 104.46231079, -32.08259964, 12.49997425, -0.56135046, 0.77361834, -0.08553316, 0.28121942, -0.66246521, 0.85920620, -0.02403237, 100.00600433, 110.37925720, 32.46999741, 0.00000000
1, 1.1500, 157, 0.20896898, -1.75965285, 0.27356020, 33.42961121, 96.66671753, 142.54733276, -50.83308792, 20.08184814, -59.83630371, 104.44438934, -32.88606262, 12.84670067, -0.55882901, 0.77270705, -0.08750761, 0.28805649, -0.74967414, 0.94418359, -0.06589479, 100.00600433, 110.37925720, 32.46999741, 0.00000000
1, 1.1550, 158, 0.31189278, -1.84423161, 0.26249477, 35.35423660, 105.84154510, 145.58073425, -50.83308792, 20.08184814, -59.83630371, 104.40439606, -33.72187424, 13.24475098, -0.55618554, 0.77166498, -0.08936880, 0.29530343, -0.86465061, 1.03628039, -0.05716563, 100.00600433, 110.37925720, 32.46999741, 0.00000000
1, 1.1600, 159, 0.48397580, -1.93493831, 0.18978702, 36.17770004, 111.97454834, 148.69589233, -52.20695496, 20.49108505, -60.30400467, 104.34336853, -34.58005142, 13.67891502, -0.55346131, 0.77050060, -0.09116896, 0.30281606, -1.04890084, 1.13495231, 0.01296462, 100.00600433, 110.37925720, 32.46999741, 0.00000000
1, 1.1750, 160, 0.57997680, -2.05697441, 0.01672149, 40.11337280, 117.23462677, 154.48468018, -53.58082199, 21.22186470, -60.50862122, 104.10232544, -37.24480820, 15.08212662, -0.54467386, 0.76658231, -0.09660619, 0.32611242, -1.18214655, 1.28267932, 0.17615211, 100.00600433, 110.37925720, 32.46999741, 0.00000000
1, 1.1800, 161, 0.54561192, -2.07612014, 0.03881027, 42.93967819, 115.83498383, 154.31015015, -53.58082199, 21.22186470, -60.50862122, 104.02851105, -38.13283539, 15.55714130, -0.54150254, 0.76528227, -0.09837854, 0.33382595, -1.16014671, 1.31068420, 0.15063454, 100.00600433, 110.37925720, 32.46999741, 0.00000000
1, 1.1850, 162, 0.57081246, -2.10738540, 0.17831025, 44.43299866, 115.63047791, 153.19967651, -55.42238998, 23.12189484, -61.35632706, 103.95157623, -39.01472855, 16.03985596, -0.53825659, 0.76396859, -0.10008974, 0.34148791, -1.19779110, 1.35075843, 0.00782990, 100.00600433, 110.37925720, 32.46999741, 0.00000000
1, 1.1900, 163, 0.64163083, -2.11273980, 0.37843311, 38.83063126, 111.01037598, 152.10929871, -55.42238998, 23.12189484, -61.35632706, 103.85341644, -39.88530731, 16.50290489, -0.53515404, 0.76254195, -0.10195036, 0.34892154, -1.28091979, 1.36484861, -0.19564737, 100.00600433, 110.37925720, 32.46999741, 0.00000000
1, 1.1950, 164, 0.64506447, -2.05857015, 0.46781942, 25.97247696, 100.66767120, 151.74604797, -56.65010071, 24.11575508, -61.18093872, 103.72268677, -40.74132919, 16.90868568, -0.53240180, 0.76092267, -0.10423099, 0.35592279, -1.29604971, 1.31952548, -0.28882802, 100.00600433, 110.37925720, 32.46999741, 0.00000000
1, 1.2000, 165, 0.52146834, -1.96606588, 0.42972338, 12.41474628, 95.45094299, 152.35511780, -56.65010071, 24.11575508, -61.18093872, 103.53659058, -41.58721161, 17.28872681, -0.53005040, 0.75902796, -0.10682188, 0.36264616, -1.18354833, 1.23598981, -0.25535637, 100.00600433, 110.37925720, 32.46999741, 0.00000000
1, 1.2050, 166, 0.30398956, -1.81650174, 0.43297705, -0.51608360, 106.11516571, 153.29969788, -56.65010071, 24.11575508, -61.18093872, 103.22934723, -42.45518112, 17.74654770, -0.52811062, 0.75660270, -0.10943261, 0.36969742, -0.97726464, 1.09533167, -0.26466140, 100.00600433, 110.37925720, 32.46999741, 0.00000000
1, 1.2100, 167, 0.01031252, -1.67513585, 0.42289472, -12.05731201, 130.55741882, 151.01470947, -58.46243668, 25.69424057, -62.05787659, 102.73613739, -43.33700943, 18.38514709, -0.52666831, 0.75347412, -0.11158273, 0.37742102, -0.69484931, 0.96282220, -0.26301324, 100.00600433, 110.37925720, 32.46999741, 0.00000000
1, 1.2500, 168, -0.60267329, -0.93190837, 0.94388795, -24.16577339, -32.24592590, 127.51892853, -61.59017944, 28.20812607, -64.04560089, 100.99986267, -49.37726974, 19.75786400, -0.51407123, 0.73627716, -0.14145871, 0.41667277, -0.15708902, 0.28928438, -0.82303596, 100.00600433, 110.37925720, 32.46999741, 0.00000000
1, 1.2550, 169, -0.28919250, -0.77027690, 0.66765523, -30.05284309, -42.62784576, 113.78121185, -61.59017944, 28.20812607, -64.04560089, 101.22520447, -49.89532089, 19.26680756, -0.51268655, 0.73566705, -0.14660968, 0.41767466, -0.47594249, 0.13557304, -0.54454720, 100.00600433, 110.37925720, 32.46999741, 0.00000000
1, 1.2600, 170, -0.04203112, -0.60447514, 0.43515727, -31.13829994, -48.12478256, 95.57709503, -61.97018433, 28.17889404, -63.66559601, 101.46470642, -50.31745148, 18.75332260, -0.51162064, 0.73522913, -0.15131710, 0.41807383, -0.72753847, -0.02346995, -0.30972728, 100.00600433, 110.37925720, 32.46999741, 0.00000000
1, 1.2650, 171, 0.00093987, -0.46942443, 0.37032241, -30.50378227, -46.56456375, 74.18931580, -61.97018433, 28.17889404, -63.66559601, 101.67926788, -50.63501358, 18.27866364, -0.51092619, 0.73490280, -0.15529056, 0.41803980, -0.77417773, -0.15338212, -0.24304272, 100.00600433, 110.37925720, 32.46999741, 0.00000000
1, 1.2700, 172, -0.09555495, -0.37399295, 0.37295562, -29.50502777, -40.50559235, 49.78448868, -61.88248825, 25.31423569, -63.25635529, 101.83671570, -50.83820724, 17.88559723, -0.51068115, 0.73464352, -0.15832779, 0.41765535, -0.68026096, -0.24535750, -0.24453096, 100.00600433, 110.37925720, 32.46999741, 0.00000000
1, 1.2750, 173, -0.22478145, -0.31772983, 0.47800744, -28.01824760, -37.35432053, 21.86903000, -61.88248825, 25.31423569, -63.25635529, 101.94927979, -50.90739059, 17.56029892, -0.51091725, 0.73454690, -0.16037376, 0.41675505, -0.55248076, -0.30009341, -0.34879926, 100.00600433, 110.37925720, 32.46999741, 0.00000000
1, 1.2800, 174, -0.28616256, -0.33630234, 0.48251948, -26.66027832, -47.62553406, 4.64167166, -61.56094742, 28.79274940, -63.57789993, 102.10874176, -50.88120270, 17.18317032, -0.51134920, 0.73478341, -0.16207294, 0.41514799, -0.49107736, -0.28126490, -0.35205415, 100.00600433, 110.37925720, 32.46999741, 0.00000000
1, 1.2850, 175, -0.46009806, -0.41923445, 0.34750545, -26.23847771, -62.25133133, -9.97854805, -61.56094742, 28.79274940, -63.57789993, 102.33811188, -50.76734543, 16.71791649, -0.51192617, 0.73539162, -0.16362266, 0.41274515, -0.31569809, -0.19891769, -0.21488594, 100.00600433, 110.37925720, 32.46999741, 0.00000000
1, 1.2900, 176, -0.56750619, -0.45900542, 0.17692198, -28.65238953, -58.71955872, -18.73184204, -61.56094742, 28.79274940, -63.57789993, 102.52059937, -50.61345673, 16.29663277, -0.51275957, 0.73593801, -0.16485527, 0.41023856, -0.20627224, -0.16030483, -0.04209165, 100.00600433, 110.37925720, 32.46999741, 0.00000000
1, 1.2950, 177, -0.60546106, -0.40042856, 0.11217601, -28.88996887, -56.01117325, -28.68918610, -60.88862991, 29.08506203, -62.81789017, 102.67007446, -50.41314316, 15.91535854, -0.51379442, 0.73649544, -0.16571112, 0.40759003, -0.16607422, -0.22087380, 0.02487604, 100.00600433, 110.37925720, 32.46999741, 0.00000000
1, 1.3000, 178, -0.60469276, -0.32926390, 0.18909024, -26.87093163, -60.80862427, -40.04593658, -60.88862991, 29.08506203, -62.81789017, 102.85198212, -50.15748596, 15.50903034, -0.51486629, 0.73728460, -0.16632949, 0.40454760, -0.16433404, -0.29492849, -0.04937530, 100.00600433, 110.37925720, 32.46999741, 0.00000000
1, 1.3050, 179, -0.59016424, -0.28070703, 0.32583234, -27.34996033, -68.14041901, -52.65812302, -59.86553574, 28.03273773, -63.02250671, 103.04064941, -49.82533264, 15.08334732, -0.51617742, 0.73824680, -0.16665764, 0.40097120, -0.17571399, -0.34728879, -0.18296653, 100.00600433, 110.37925720, 32.46999741, 0.00000000
1, 1.3100, 180, -0.54385525, -0.23427238, 0.41705024, -33.22811890, -70.50368500, -66.69554138, -59.86553574, 28.03273773, -63.02250671, 103.18936920, -49.42139816, 14.66900063, -0.51789767, 0.73920643, -0.16668841, 0.39695203, -0.21789186, -0.39846572, -0.27104223, 100.00600433, 110.37925720, 32.46999741, 0.00000000
1, 1.3150, 181, -0.46468374, -0.18895908, 0.42029858, -41.96954346, -68.65506744, -81.64770508, -59.86553574, 28.03273773, -63.02250671, 103.25835419, -48.94632721, 14.29926586, -0.52016139, 0.74002802, -0.16634451, 0.39258152, -0.29186603, -0.44944054, -0.27164173, 100.00600433, 110.37925720, 32.46999741, 0.00000000
1, 1.3200, 182, -0.38049462, -0.13611510, 0.36208284, -50.03517914, -66.80127716, -96.57328033, -59.89476776, 27.68196487, -62.75942612, 103.25201416, -48.40069580, 13.97302437, -0.52294070, 0.74072188, -0.16561191, 0.38786185, -0.36983979, -0.50891000, -0.21141939, 100.00600433, 110.37925720, 32.46999741, 0.00000000
1, 1.3250, 183, -0.32409295, -0.09883623, 0.29459935, -54.37086487, -67.27342224, -110.48011780, -59.89476776, 27.68196487, -62.75942612, 103.20412445, -47.78697586, 13.67028141, -0.52607501, 0.74139941, -0.16450995, 0.38276434, -0.41913378, -0.55375028, -0.14240623, 100.00600433, 110.37925720, 32.46999741, 0.00000000
1, 1.3300, 184, -0.32024932, -0.11112034, 0.21543415, -54.22960663, -70.66451263, -125.98570251, -58.93013763, 25.98655319, -62.26249695, 103.15113831, -47.09406662, 13.37200165, -0.52941847, 0.74221700, -0.16297665, 0.37718526, -0.41490197, -0.54988092, -0.06189310, 100.00600433, 110.37925720, 32.46999741, 0.00000000
1, 1.3350, 185, -0.32749605, -0.17631131, 0.19891980, -51.09712601, -76.29506683, -137.06101990, -58.93013763, 25.98655319, -62.26249695, 103.12455750, -46.34100723, 13.05521679, -0.53277779, 0.74324185, -0.16115679, 0.37117109, -0.39881054, -0.49393421, -0.04382984, 100.00600433, 110.37925720, 32.46999741, 0.00000000
1, 1.3400, 186, -0.31239560, -0.30423057, 0.21662611, -47.95780945, -85.50540924, -148.46710205, -58.93013763, 25.98655319, -62.26249695, 103.14031219, -45.52194595, 12.69697285, -0.53612626, 0.74452686, -0.15912171, 0.36459401, -0.40419585, -0.37589926, -0.05926462, 100.00600433, 110.37925720, 32.46999741, 0.00000000
1, 1.3450, 187, -0.26464796, -0.36205441, 0.27479410, -51.30965042, -92.70425415, -157.46423340, -58.14089203, 25.54808426, -62.11634064, 103.15644073, -44.65090561, 12.30913258, -0.53964269, 0.74586189, -0.15700714, 0.35752574, -0.44155785, -0.32848442, -0.11478443, 100.00600433, 110.37925720, 32.46999741, 0.00000000
1, 1.3500, 188, -0.26548979, -0.36805716, 0.28366843, -56.17151642, -101.39121246, -165.95182800, -58.14089203, 25.54808426, -62.11634064, 103.17872620, -43.72605133, 11.87637329, -0.54332626, 0.74725407, -0.15488638, 0.34988317, -0.42937708, -0.33328313, -0.12091603, 100.00600433, 110.37925720, 32.46999741, 0.00000000
1, 1.3550, 189, -0.32275739, -0.37739581, 0.25329927, -56.60508347, -108.14016724, -172.31140137, -56.12393951, 23.09266281, -61.79479599, 103.20540619, -42.76507187, 11.42120171, -0.54705566, 0.74868780, -0.15271324, 0.34187043, -0.35996121, -0.33496460, -0.08776141, 100.00600433, 110.37925720, 32.46999741, 0.00000000
1, 1.3600, 190, -0.36584523, -0.43646005, 0.26120138, -54.48537064, -111.15730286, -177.94854736, -56.12393951, 23.09266281, -61.79479599, 103.23922729, -41.77301788, 10.96263695, -0.55073243, 0.75018936, -0.15038341, 0.33360851, -0.30422875, -0.28711891, -0.09279811, 100.00600433, 110.37925720, 32.46999741, 0.00000000
1, 1.3650, 191, -0.38462275, -0.50332963, 0.31740502, -55.90711212, -112.75026703, -184.69842529, -56.12393951, 23.09266281, -61.79479599, 103.25477600, -40.74613571, 10.51173019, -0.55449313, 0.75165474, -0.14787814, 0.32509187, -0.27229047, -0.23173505, -0.14618099, 100.00600433, 110.37925720, 32.46999741, 0.00000000
1, 1.3700, 192, -0.39852858, -0.54824436, 0.36291078, -61.45439148, -111.79691315, -193.08770752, -54.77930450, 22.21572685, -60.80093384, 103.21987915, -39.67960358, 10.08620453, -0.55850661, 0.75295210, -0.14513968, 0.31633550, -0.24447173, -0.19860777, -0.18931831, 100.00600433, 110.37925720, 32.46999741, 0.00000000
1, 1.3750, 193, -0.42229834, -0.58672154, 0.38719389, -66.99421692, -105.89816284, -202.90150452, -54.77930450, 22.21572685, -60.80093384, 103.11549377, -38.57242203, 9.71695709, -0.56281644, 0.75401592, -0.14199698, 0.30746484, -0.20596631, -0.17226848, -0.21208458, 100.00600433, 110.37925720, 32.46999741, 0.00000000
1, 1.3800, 194, -0.46050650, -0.62905562, 0.38429469, -72.41252899, -95.55209351, -213.66244507, -53.05466080, 21.07570839, -60.36246490, 102.92807770, -37.42516327, 9.42912197, -0.56745118, 0.75479031, -0.13830371, 0.29860169, -0.15217216, -0.14241995, -0.20878497, 100.00600433, 110.37925720, 32.46999741, 0.00000000
1, 1.3900, 195, -0.59580857, -0.65576124, 0.26326635, -82.53943634, -75.37697601, -238.07991028, -53.05466080, 21.07570839, -60.36246490, 102.32044220, -34.99492645, 9.08804321, -0.57769364, 0.75546664, -0.12911360, 0.28083807, 0.01722228, -0.14169210, -0.09053049, 100.00600433, 110.37925720, 32.46999741, 0.00000000
1, 1.3950, 196, -0.65940464, -0.64334953, 0.19617210, -81.70432281, -58.85546494, -249.92994690, -50.54077530, 18.38643646, -61.03478622, 101.92774963, -33.71237183, 9.05461407, -0.58309174, 0.75547230, -0.12337872, 0.27210900, 0.09922107, -0.16746333, -0.02618967, 100.00600433, 110.37925720, 32.46999741, 0.00000000
1, 1.4000, 197, -0.68325984, -0.63187087, 0.16173126, -79.14285278, -49.05128479, -258.45684814, -50.54077530, 18.38643646, -61.03478622, 101.51664734, -32.40256500, 9.07781219, -0.58846551, 0.75536281, -0.11709219, 0.26348594, 0.14216907, -0.19236021, 0.00496796, 100.00600433, 110.37925720, 32.46999741, 0.00000000
1, 1.4050, 198, -0.67353147, -0.59631240, 0.16094542, -76.28609467, -39.99140167, -266.33929443, -49.19614029, 17.04179955, -60.88862991, 101.09328461, -31.05833244, 9.15134621, -0.59380960, 0.75515538, -0.11023659, 0.25490862, 0.15218058, -0.24126637, 0.00218306, 100.00600433, 110.37925720, 32.46999741, 0.00000000
1, 1.4100, 199, -0.62643647, -0.54952037, 0.16681941, -73.08802032, -32.67161560, -274.16235352, -49.19614029, 17.04179955, -60.88862991, 100.66829681, -29.68206215, 9.26246643, -0.59908110, 0.75487179, -0.10288118, 0.24634537, 0.12560241, -0.30125517, -0.00743398, 100.00600433, 110.37925720, 32.46999741, 0.00000000
1, 1.4150, 200, -0.56410235, -0.51333189, 0.16805945, -69.09132385, -26.57567978, -281.49896240, -49.19614029, 17.04179955, -60.88862991, 100.25161743, -28.27448273, 9.40231895, -0.60423303, 0.75454026, -0.09506541, 0.23776902, 0.08456618, -0.35037839, -0.01253647, 100.00600433, 110.37925720, 32.46999741, 0.00000000
1, 1.4200, 201, -0.50826490, -0.48825571, 0.17590442, -65.15045929, -21.67221642, -288.51284790, -46.97456741, 15.55100822, -60.88862991, 99.84794617, -26.83572006, 9.56303883, -0.60924983, 0.75416642, -0.08683295, 0.22914563, 0.05077526, -0.38807976, -0.02432250, 100.00600433, 110.37925720, 32.46999741, 0.00000000
1, 1.4250, 202, -0.46007165, -0.47934955, 0.19037946, -61.47799683, -18.22158241, -296.04864502, -46.97456741, 15.55100822, -60.88862991, 99.46054840, -25.36167908, 9.73655510, -0.61413080, 0.75375503, -0.07820934, 0.22040932, 0.02543549, -0.40927538, -0.04276600, 100.00600433, 110.37925720, 32.46999741, 0.00000000
1, 1.4900, 203, -0.31992623, -1.36264157, 0.30017504, 3.27310967, -53.55524826, -329.08676147, -36.33440399, 9.55860806, -61.85326004, 97.25919342, -4.10141182, 11.17038536, -0.65475202, 0.74871320, 0.04945330, 0.09101036, 0.24040431, 0.37326384, -0.17730062, 100.00600433, 110.37925720, 32.46999741, 0.00000000
1, 1.4950, 204, -0.32099357, -1.52938485, 0.36436564, -0.28885385, -58.67237854, -327.58609009, -32.94358444, 7.27857351, -61.67787170, 97.25859070, -2.43971777, 11.08350849, -0.65614742, 0.74813098, 0.05845055, 0.07971370, 0.27028316, 0.53806001, -0.24145296, 100.00600433, 110.37925720, 32.46999741, 0.00000000
1, 1.5000, 205, -0.31222564, -1.60003960, 0.37411487, -5.32145119, -62.72673798, -325.90103149, -32.94358444, 7.27857351, -61.67787170, 97.23211670, -0.78582621, 10.97490025, -0.65756464, 0.74727368, 0.06723463, 0.06833979, 0.29036683, 0.60763723, -0.25154090, 100.00600433, 110.37925720, 32.46999741, 0.00000000
1, 1.5050, 206, -0.29335490, -1.63283145, 0.33677334, -11.67846107, -74.59367371, -322.80810547, -31.01432228, 7.22011089, -61.67787170, 97.16950989, 0.86177921, 10.80449295, -0.65908581, 0.74611449, 0.07555508, 0.05666305, 0.30037215, 0.64018846, -0.21509382, 100.00600433, 110.37925720, 32.46999741, 0.00000000
1, 1.5100, 207, -0.26494020, -1.61365771, 0.29380804, -11.81473541, -83.26707458, -319.92849731, -31.01432228, 7.22011089, -61.67787170, 97.10000610, 2.50021219, 10.58726215, -0.66049486, 0.74482667, 0.08351576, 0.04477578, 0.30068937, 0.62156582, -0.17329225, 100.00600433, 110.37925720, 32.46999741, 0.00000000
1, 1.5150, 208, -0.24267633, -1.53871000, 0.23933230, -9.33617306, -93.10524750, -315.46249390, -31.01432228, 7.22011089, -61.67787170, 97.03366089, 4.12222052, 10.31616688, -0.66171336, 0.74349189, 0.09103499, 0.03267951, 0.30692381, 0.54798889, -0.11999241, 100.00600433, 110.37925720, 32.46999741, 0.00000000
1, 1.5200, 209, -0.23118939, -1.47465169, 0.22975013, -3.39386153, -103.46591187, -308.28393555, -27.50657654, 7.60011673, -61.61940765, 96.98451996, 5.71463633, 9.98693657, -0.66263473, 0.74222082, 0.09801244, 0.02042450, 0.32330465, 0.48601493, -0.11147316, 100.00600433, 110.37925720, 32.46999741, 0.00000000
1, 1.5250, 210, -0.21721779, -1.43407941, 0.30328140, 2.07780647, -115.68444061, -299.32095337, -27.50657654, 7.60011673, -61.61940765, 96.94607544, 7.26967955, 9.58915901, -0.66329086, 0.74101013, 0.10433204, 0.00800618, 0.33630404, 0.44811738, -0.18594706, 100.00600433, 110.37925720, 32.46999741, 0.00000000
1, 1.5350, 211, -0.17104982, -1.37115192, 0.44026452, 6.69998074, -140.65875244, -280.13552856, -24.29114342, 7.92166042, -61.64863968, 96.84336090, 10.25969696, 8.57546329, -0.66413605, 0.73853117, 0.11487638, -0.01727954, 0.34176934, 0.39237285, -0.32527426, 100.00600433, 110.37925720, 32.46999741, 0.00000000
1, 1.5400, 212, -0.15297309, -1.34700024, 0.44961286, 6.11727238, -148.95863342, -269.70510864, -24.29114342, 7.92166042, -61.64863968, 96.75762177, 11.68605042, 7.98244381, -0.66444671, 0.73715842, 0.11921610, -0.02992800, 0.34835279, 0.37263608, -0.33643317, 100.00600433, 110.37925720, 32.46999741, 0.00000000
1, 1.5450, 213, -0.23048371, -1.30756736, 0.43412638, 6.07163715, -151.11306763, -256.78656006, -21.89418221, 8.59397793, -61.38555908, 96.65258789, 13.04849339, 7.36543512, -0.66466928, 0.73572105, 0.12305739, -0.04226512, 0.44945794, 0.33800673, -0.32337537, 100.00600433, 110.37925720, 32.46999741, 0.00000000
1, 1.5500, 214, -0.43034869, -1.27376604, 0.43405759, 9.44140244, -149.50204468, -239.86087036, -21.89418221, 8.59397793, -61.38555908, 96.55191803, 14.31684399, 6.74102211, -0.66468203, 0.73438430, 0.12633042, -0.05402125, 0.67130703, 0.30918491, -0.32610962, 100.00600433, 110.37925720, 32.46999741, 0.00000000
1, 1.5550, 215, -0.78184986, -1.38224363, 0.47164237, 16.69410515, -144.79264832, -220.00140381, -19.35106659, 9.12014008, -62.29172516, 96.47382355, 15.49106026, 6.12378550, -0.66440302, 0.73324978, 0.12911686, -0.06513243, 1.04296827, 0.42268103, -0.36675930, 100.00600433, 110.37925720, 32.46999741, 0.00000000
1, 1.5600, 216, -0.82289279, -1.48257828, 0.59340930, 14.62367535, -132.06307983, -205.33529663, -19.35106659, 9.12014008, -62.29172516, 96.38847351, 16.58456230, 5.55895948, -0.66407561, 0.73208594, 0.13179544, -0.07539129, 1.10244274, 0.52792048, -0.49070367, 100.00600433, 110.37925720, 32.46999741, 0.00000000
1, 1.5650, 217, -0.85122216, -1.58609641, 0.68961871, -5.63679886, -105.53784943, -187.09431458, -19.35106659, 9.12014008, -62.29172516, 96.22802734, 17.57164192, 5.11624575, -0.66423440, 0.73045444, 0.13471428, -0.08414918, 1.14737225, 0.63608551, -0.59000987, 100.00600433, 110.37925720, 32.46999741, 0.00000000
1, 1.5700, 218, -0.87292278, -1.47913051, 0.44487518, -25.40423203, -82.74717712, -174.20643616, -16.69102669, 8.74013424, -62.26249695, 95.99475098, 18.48096085, 4.77962923, -0.66488248, 0.72835213, 0.13794434, -0.09168361, 1.18510389, 0.53405178, -0.34928018, 100.00600433, 110.37925720, 32.46999741, 0.00000000
1, 1.5750, 219, -0.86379504, -1.27132356, 0.14194898, -29.50434113, -64.60106659, -162.47000122, -16.69102669, 8.74013424, -62.26249695, 95.76323700, 19.32136345, 4.52644682, -0.66555399, 0.72622669, 0.14133544, -0.09827063, 1.19090629, 0.33110255, -0.05040042, 100.00600433, 110.37925720, 32.46999741, 0.00000000
1, 1.5800, 220, -0.79121035, -1.08958936, 0.05285273, -16.56415939, -52.48674393, -150.18284607, -15.75562668, 8.88629055, -62.40865326, 95.61117554, 20.09405899, 4.32666063, -0.66575634, 0.72456563, 0.14462756, -0.10419262, 1.13153481, 0.15380602, 0.03585080, 100.00600433, 110.37925720, 32.46999741, 0.00000000
1, 1.5850, 221, -0.73366320, -1.00989020, 0.22190070, -0.32254323, -45.55264282, -137.11480713, -15.75562668, 8.88629055, -62.40865326, 95.54777527, 20.79824257, 4.15459394, -0.66542989, 0.72345912, 0.14762998, -0.10961460, 1.08537722, 0.07803398, -0.13471588, 100.00600433, 110.37925720, 32.46999741, 0.00000000
1, 1.5900, 222, -0.70615929, -0.99895287, 0.43773630, 8.23709106, -38.74655533, -124.37265778, -14.17714119, 10.17246437, -62.67173386, 95.53575897, 21.43578339, 4.01113987, -0.66482496, 0.72269064, 0.15038328, -0.11450337, 1.06799674, 0.07076938, -0.35122311, 100.00600433, 110.37925720, 32.46999741, 0.00000000
1, 1.5950, 223, -0.67826879, -1.00058568, 0.57465541, 9.22118855, -29.16974068, -112.23917389, -14.17714119, 10.17246437, -62.67173386, 95.54386902, 22.00840187, 3.91219878, -0.66416627, 0.72205782, 0.15302362, -0.11874130, 1.04932332, 0.07594602, -0.48836443, 100.00600433, 110.37925720, 32.46999741, 0.00000000
1, 1.6000, 224, -0.64743304, -0.98175752, 0.56144089, 7.05841494, -21.08809280, -99.89096069, -14.17714119, 10.17246437, -62.67173386, 95.57052612, 22.48313332, 3.85362768, -0.66350198, 0.72160697, 0.15533669, -0.12214328, 1.02672756, 0.06048775, -0.47506827, 100.00600433, 110.37925720, 32.46999741, 0.00000000
1, 1.6050, 225, -0.62070483, -0.94512081, 0.43347859, 6.68502235, -16.57394791, -86.28350830, -13.35866737, 11.16632557, -62.52557755, 95.58561707, 22.92057991, 3.80890250, -0.66294694, 0.72111511, 0.15753350, -0.12521026, 1.00739002, 0.02702381, -0.34692162, 100.00600433, 110.37925720, 32.46999741, 0.00000000
1, 1.6100, 226, -0.60159922, -0.88233411, 0.20096835, 9.68891716, -13.75135040, -67.71186066, -13.35866737, 11.16632557, -62.52557755, 95.61789703, 23.26429558, 3.76982474, -0.66236961, 0.72084606, 0.15921023, -0.12767009, 0.99484551, -0.03281239, -0.11407617, 100.00600433, 110.37925720, 32.46999741, 0.00000000
1, 1.6150, 227, -0.58569729, -0.85113871, 0.14333883, 16.10011292, -10.90791416, -51.70685959, -12.48173046, 10.37708282, -62.61326981, 95.68509674, 23.52709007, 3.73793411, -0.66165358, 0.72088498, 0.16042979, -0.12962167, 0.98363423, -0.06187929, -0.05570904, 100.00600433, 110.37925720, 32.46999741, 0.00000000
1, 1.6200, 228, -0.56110716, -0.84996367, 0.10148763, 26.59587097, -9.49768925, -31.09100914, -12.48173046, 10.37708282, -62.61326981, 95.80371857, 23.68679047, 3.70308256, -0.66070920, 0.72137731, 0.16098332, -0.13100655, 0.96202862, -0.06155831, -0.01214499, 100.00600433, 110.37925720, 32.46999741, 0.00000000
1, 1.6250, 229, -0.55571610, -0.87910533, 0.12701364, 31.89735031, -11.98878765, -15.26913071, -12.48173046, 10.37708282, -62.61326981, 95.94019318, 23.76917458, 3.64636636, -0.65970230, 0.72211844, 0.16093706, -0.13205025, 0.95819306, -0.03153539, -0.03566429, 100.00600433, 110.37925720, 32.46999741, 0.00000000
1, 1.6300, 230, -0.55796373, -0.91164291, 0.16859531, 34.28150940, -14.74846077, -0.92375743, -12.56942368, 9.58784008, -62.87635040, 96.07948303, 23.78179741, 3.56676960, -0.65871930, 0.72301215, 0.16034573, -0.13278395, 0.96081054, 0.00137292, -0.07511239, 100.00600433, 110.37925720, 32.46999741, 0.00000000
1, 1.6350, 231, -0.56758863, -0.93295360, 0.21018067, 34.87496567, -16.79442978, 12.05933380, -12.56942368, 9.58784008, -62.87635040, 96.21447754, 23.73113060, 3.46862864, -0.65780401, 0.72400105, 0.15928251, -0.13321233, 0.96977043, 0.02260134, -0.11456715, 100.00600433, 110.37925720, 32.46999741, 0.00000000
1, 1.6400, 232, -0.59244728, -0.94335485, 0.23666351, 35.19884109, -17.35645294, 24.06471252, -12.71557999, 11.60479355, -62.29172516, 96.34726715, 23.62129402, 3.36030364, -0.65694875, 0.72507775, 0.15782179, -0.13331519, 0.99303937, 0.03252574, -0.13894120, 100.00600433, 110.37925720, 32.46999741, 0.00000000
1, 1.6450, 233, -0.62971252, -0.94385397, 0.24084650, 35.67183304, -15.80000591, 34.92691422, -12.71557999, 11.60479355, -62.29172516, 96.48348999, 23.45686340, 3.25372171, -0.65612704, 0.72624940, 0.15605904, -0.13305989, 1.02787852, 0.03221047, -0.14095633, 100.00600433, 110.37925720, 32.46999741, 0.00000000
1, 1.6500, 234, -0.67211944, -0.93579268, 0.22602016, 36.54552078, -12.26961422, 44.95475769, -12.71557999, 11.60479355, -62.29172516, 96.63636780, 23.18608475, 3.16013980, -0.65531826, 0.72765011, 0.15375902, -0.13206652, 1.06662440, 0.02285283, -0.12370464, 100.00600433, 110.37925720, 32.46999741, 0.00000000
1, 1.6550, 235, -0.70295864, -0.92747557, 0.20581509, 38.01339340, -7.99033880, 54.46711349, -13.03712368, 12.07249355, -62.49634552, 96.79689026, 22.92064095, 3.08293295, -0.65447062, 0.72905725, 0.15158585, -0.13101768, 1.09301186, 0.01295703, -0.10078712, 100.00600433, 110.37925720, 32.46999741, 0.00000000
1, 1.6600, 236, -0.71345520, -0.92004132, 0.19317947, 40.37441635, -4.05040216, 63.92494965, -13.03712368, 12.07249355, -62.49634552, 96.97527313, 22.60615730, 3.02018690, -0.65356869, 0.73061031, 0.14921007, -0.12958783, 1.09867978, 0.00384419, -0.08514990, 100.00600433, 110.37925720, 32.46999741, 0.00000000
1, 1.6800, 237, -0.51576328, -0.94884384, 0.19663467, 46.72984314, -3.37472153, 102.17219543, -13.68021011, 10.49400711, -62.08710861, 97.80211639, 20.85657501, 2.76753783, -0.64960885, 0.73803842, 0.13684829, -0.12074848, 0.87338358, 0.02337901, -0.07352598, 100.00600433, 110.37925720, 32.46999741, 0.00000000
1, 1.6850, 238, -0.47268286, -0.95216799, 0.20207618, 46.13325500, -8.32220268, 109.31766510, -13.68021011, 10.49400711, -62.08710861, 97.99079895, 20.32127762, 2.64429998, -0.64872980, 0.73995304, 0.13285404, -0.11819068, 0.82167876, 0.02389616, -0.07531179, 100.00600433, 110.37925720, 32.46999741, 0.00000000
1, 1.6900, 239, -0.43371108, -0.95219278, 0.19769494, 44.86882019, -14.03065300, 115.99781036, -14.49868488, 11.80941200, -61.82402802, 98.16191864, 19.75721741, 2.48468852, -0.64793998, 0.74182087, 0.12848511, -0.11561679, 0.77359080, 0.02100950, -0.06751351, 100.00600433, 110.37925720, 32.46999741, 0.00000000
1, 1.6950, 240, -0.30610073, -0.96679926, 0.22620383, 43.34269714, -21.84328842, 121.71979523, -14.49868488, 11.80941200, -61.82402802, 98.31152344, 19.17077255, 2.27867174, -0.64725149, 0.74361557, 0.12371349, -0.11312114, 0.63634813, 0.03256169, -0.09271763, 100.00600433, 110.37925720, 32.46999741, 0.00000000
1, 1.7000, 241, 0.04719198, -1.03955948, 0.29448879, 42.41444016, -36.17621613, 122.09101868, -14.49868488, 11.80941200, -61.82402802, 98.43890381, 18.58671761, 1.99758875, -0.64662427, 0.74532562, 0.11848905, -0.11102777, 0.27321276, 0.10222486, -0.15760727, 100.00600433, 110.37925720, 32.46999741, 0.00000000
1, 1.7050, 242, 0.43561813, -1.20053697, 0.33211726, 42.29509354, -49.26583099, 111.51025391, -15.11254025, 10.81555080, -61.32709503, 98.54412079, 18.07164383, 1.65519559, -0.64602321, 0.74685371, 0.11327060, -0.10969686, -0.12419248, 0.26047525, -0.19228134, 100.00600433, 110.37925720, 32.46999741, 0.00000000
1, 1.7100, 243, 0.97258204, -1.37500620, 0.37445593, 35.56050491, -38.11004639, 91.14605713, -15.11254025, 10.81555080, -61.32709503, 98.64062500, 17.64950943, 1.38649952, -0.64547414, 0.74812311, 0.10905867, -0.10854112, -0.66867483, 0.43274021, -0.23158926, 100.00600433, 110.37925720, 32.46999741, 0.00000000
1, 1.7150, 244, 1.67277098, -1.59638309, 0.34127787, 15.93276787, -9.91719723, 61.57249451, -15.46331501, 11.60479355, -61.18093872, 98.69106293, 17.35267448, 1.28696549, -0.64528513, 0.74881929, 0.10669625, -0.10720436, -1.37428665, 0.65261197, -0.19567510, 100.00600433, 110.37925720, 32.46999741, 0.00000000
1, 1.7250, 245, 2.80280375, -1.50874043, -0.57870924, -70.80260468, 92.69092560, -13.25436211, -15.46331501, 11.60479355, -61.18093872, 98.39663696, 17.21234894, 1.97081864, -0.64793807, 0.74666005, 0.11063970, -0.10214726, -2.50543880, 0.56484246, 0.72354639, 100.00600433, 110.37925720, 32.46999741, 0.00000000
1, 1.7300, 246, 2.63225079, -1.41607189, -0.70254236, -70.40684509, 58.00199509, -8.89850235, -15.87255192, 7.74627304, -61.59017944, 98.13533783, 17.21415138, 2.27783179, -0.64990824, 0.74487895, 0.11287854, -0.10016559, -2.33458138, 0.47179103, 0.84310770, 100.00600433, 110.37925720, 32.46999741, 0.00000000
1, 1.7350, 247, 2.13115835, -1.40990555, -0.86466110, -63.53506851, -21.92137146, 4.56702471, -15.87255192, 7.74627304, -61.59017944, 97.78311157, 17.20561790, 2.16080141, -0.65209877, 0.74300224, 0.11237892, -0.10042857, -1.83312345, 0.46510720, 0.99852061, 100.00600433, 110.37925720, 32.46999741, 0.00000000
1, 1.7400, 248, 1.43718767, -1.34280348, -0.99541450, -46.51666641, -82.86273956, 27.60960960, -15.81408882, 10.78631973, -61.41479111, 97.41840363, 17.12217140, 1.71197343, -0.65412676, 0.74144757, 0.10932122, -0.10209098, -1.13985872, 0.39708406, 1.12162757, 100.00600433, 110.37925720, 32.46999741, 0.00000000
1, 1.7450, 249, 0.72057301, -1.32783067, -0.87144482, -19.34327126, -144.75105286, 53.12926483, -15.81408882, 10.78631973, -61.41479111, 97.09217834, 16.94844627, 0.92627996, -0.65566128, 0.74049282, 0.10354678, -0.10515147, -0.42608804, 0.38042095, 0.99044663, 100.00600433, 110.37925720, 32.46999741, 0.00000000
1, 1.7500, 250, 0.01082923, -1.33853555, -0.48546126, 0.50626272, -207.41365051, 76.34015656, -15.81408882, 10.78631973, -61.41479111, 96.76316833, 16.68571854, -0.19841869, -0.65694946, 0.73983896, 0.09508725, -0.10960944, 0.27870753, 0.38863403, 0.59747100, 100.00600433, 110.37925720, 32.46999741, 0.00000000
1, 1.7550, 251, -0.63313389, -1.25291276, -0.07816602, 9.43351460, -249.52026367, 98.32226563, -15.31715870, 10.31861973, -61.94095230, 96.42752075, 16.33859253, -1.54933023, -0.65809906, 0.73928225, 0.08470044, -0.11486172, 0.91619086, 0.30006972, 0.18330055, 100.00600433, 110.37925720, 32.46999741, 0.00000000
1, 1.7600, 252, -1.10073483, -1.16343546, 0.18271163, 21.24549675, -248.44786072, 117.51123810, -15.31715870, 10.31861973, -61.94095230, 96.15989685, 15.88873768, -2.90077758, -0.65886635, 0.73903763, 0.07365572, -0.11955518, 1.37603617, 0.20756717, -0.08323569, 100.00600433, 110.37925720, 32.46999741, 0.00000000
1, 1.7650, 253, -1.28247094, -1.24055982, 0.28128588, 38.32438660, -196.17593384, 130.00180054, -14.52791595, 9.76322746, -62.61326981, 96.06114197, 15.34542561, -3.98429489, -0.65889561, 0.73950338, 0.06361694, -0.12224674, 1.54876769, 0.28181565, -0.18453301, 100.00600433, 110.37925720, 32.46999741, 0.00000000
1, 1.7700, 254, -1.20322108, -1.44345689, 0.29595947, 51.16753387, -113.44241333, 132.89691162, -14.52791595, 9.76322746, -62.61326981, 96.14801788, 14.74445534, -4.64035463, -0.65823883, 0.74072403, 0.05579471, -0.12221543, 1.45955968, 0.48208338, -0.19837080, 100.00600433, 110.37925720, 32.46999741, 0.00000000
1, 1.7750, 255, -0.94003749, -1.67106593, 0.27551931, 56.95029068, -24.79776001, 129.29278564, -14.52791595, 9.76322746, -62.61326981, 96.38449097, 14.11564636, -4.83934021, -0.65712577, 0.74253619, 0.05060613, -0.11943567, 1.18590260, 0.70737600, -0.17393740, 100.00600433, 110.37925720, 32.46999741, 0.00000000
1, 1.7800, 256, -0.46510023, -1.83355403, 0.14110316, 53.70457077, 34.01652527, 125.93381500, -14.64484024, 9.14937115, -62.23326492, 96.67876434, 13.47154808, -4.73793268, -0.65594292, 0.74452692, 0.04723095, -0.11483856, 0.70043468, 0.86794895, -0.03347543, 100.00600433, 110.37925720, 32.46999741, 0.00000000
1, 1.7850, 257, -0.08396926, -1.75537276, -0.17254172, 36.33840561, 99.29998016, 125.18719482, -14.64484024, 9.14937115, -62.23326492, 96.95993042, 12.79220200, -4.30685949, -0.65515667, 0.74631274, 0.04583515, -0.10810302, 0.30871731, 0.78818607, 0.28639233, 100.00600433, 110.37925720, 32.46999741, 0.00000000
1, 1.7900, 258, 0.06964610, -1.55550265, -0.32605851, 31.52765846, 98.01313782, 129.21369934, -15.87255192, 9.99707699, -61.67787170, 97.20920563, 12.09168530, -3.88922286, -0.65451413, 0.74792528, 0.04429167, -0.10127855, 0.14364123, 0.58647114, 0.44527882, 100.00600433, 110.37925720, 32.46999741, 0.00000000
1, 1.7950, 259, 0.15167256, -1.34459674, -0.31024626, 32.50237656, 82.95472717, 132.94349670, -15.87255192, 9.99707699, -61.67787170, 97.44155884, 11.38047314, -3.55436778, -0.65385199, 0.74946916, 0.04218949, -0.09483502, 0.04945859, 0.37351340, 0.43433720, 100.00600433, 110.37925720, 32.46999741, 0.00000000
1, 1.8000, 260, 0.24375974, -1.18548524, -0.18414503, 33.53240585, 57.03720474, 134.87141418, -15.87255192, 9.99707699, -61.67787170, 97.64101410, 10.67666721, -3.35592699, -0.65323305, 0.75085843, 0.03928764, -0.08919021, -0.05504084, 0.21228914, 0.31261897, 100.00600433, 110.37925720, 32.46999741, 0.00000000
1, 1.8350, 261, -0.72714990, -0.28051126, 0.82659352, 28.72282219, -85.34144592, 87.16292572, -18.50336075, 10.23092651, -61.38555908, 98.48722839, 6.83026695, -5.39201260, -0.64884132, 0.75713921, 0.00328018, -0.07572706, 0.84553254, -0.70273852, -0.68265450, 100.00600433, 110.37925720, 32.46999741, 0.00000000
1, 1.8400, 262, -0.76861578, -0.25268859, 0.92733020, 26.49390030, -84.57209778, 81.84664917, -18.94182968, 10.17246437, -61.44402313, 98.56488800, 6.48778582, -5.87350273, -0.64823306, 0.75761729, -0.00190488, -0.07620008, 0.88075686, -0.73123342, -0.78204870, 100.00600433, 110.37925720, 32.46999741, 0.00000000
1, 1.8450, 263, -0.76592940, -0.25103480, 0.95499361, 29.52997589, -71.33580017, 80.02037048, -18.94182968, 10.17246437, -61.44402313, 98.66788483, 6.14530325, -6.28799152, -0.64750326, 0.75820559, -0.00666440, -0.07628582, 0.87210119, -0.73333925, -0.80796450, 100.00600433, 110.37925720, 32.46999741, 0.00000000
1, 1.8500, 264, -0.67638618, -0.34618858, 0.88411009, 33.58775711, -56.91205978, 79.89187622, -18.94182968, 10.17246437, -61.44402313, 98.83025360, 5.76818132, -6.63166809, -0.64645201, 0.75910455, -0.01119125, -0.07572933, 0.77644658, -0.63835829, -0.73450470, 100.00600433, 110.37925720, 32.46999741, 0.00000000
1, 1.8550, 265, -0.59864640, -0.53548753, 0.82512981, 35.69232941, -45.83268356, 79.07759857, -18.26951218, 10.14323330, -61.53171539, 98.98158264, 5.41299486, -6.91999817, -0.64549643, 0.75992006, -0.01521765, -0.07499470, 0.69246393, -0.44915676, -0.67275304, 100.00600433, 110.37925720, 32.46999741, 0.00000000
1, 1.8600, 266, -0.51797861, -0.76670694, 0.76664621, 32.91517258, -37.49019623, 75.87669373, -18.26951218, 10.14323330, -61.53171539, 99.12469482, 5.06783819, -7.16521311, -0.64461726, 0.76067376, -0.01889351, -0.07407466, 0.60588622, -0.21799850, -0.61183250, 100.00600433, 110.37925720, 32.46999741, 0.00000000
1, 1.8650, 267, -0.44668147, -0.98124242, 0.65871197, 25.58899498, -29.87335587, 70.78852081, -18.50336075, 7.42472935, -61.15171051, 99.23606873, 4.74224329, -7.36931229, -0.64396232, 0.76123923, -0.02216274, -0.07305011, 0.52910328, -0.00345093, -0.50193548, 100.00600433, 110.37925720, 32.46999741, 0.00000000
1, 1.8700, 268, -0.40501258, -1.18197012, 0.51063120, 18.72245979, -16.31341171, 64.95984650, -18.50336075, 7.42472935, -61.15171051, 99.31983185, 4.43485117, -7.50207233, -0.64352369, 0.76165169, -0.02483529, -0.07174518, 0.48238820, 0.19733414, -0.35246855, 100.00600433, 110.37925720, 32.46999741, 0.00000000
1, 1.8750, 269, -0.39621088, -1.41426957, 0.35194969, 15.62047482, 6.82679176, 60.43327713, -18.50336075, 7.42472935, -61.15171051, 99.39752197, 4.13131809, -7.51704645, -0.64319396, 0.76204765, -0.02669686, -0.06980216, 0.46869606, 0.42971531, -0.19274695, 100.00600433, 110.37925720, 32.46999741, 0.00000000
1, 1.8800, 270, -0.38659510, -1.67861962, 0.21893394, 14.73666382, 32.14737320, 57.29746628, -19.73107338, 10.55247021, -60.68400955, 99.47968292, 3.82270503, -7.40466022, -0.64290851, 0.76249331, -0.02773945, -0.06710692, 0.45406449, 0.69414121, -0.05868225, 100.00600433, 110.37925720, 32.46999741, 0.00000000
1, 1.9150, 271, 0.17111242, -0.80491519, 0.07390508, -3.63655043, 29.11248970, 62.54158020, -21.22186470, 9.29552746, -60.21630859, 99.43846893, 1.53707278, -6.12329245, -0.64500654, 0.76219100, -0.03208268, -0.04474655, -0.14303401, -0.18126601, 0.08917321, 100.00600433, 110.37925720, 32.46999741, 0.00000000
1, 1.9200, 272, 0.13009910, -0.76773739, -0.00182440, -0.51329917, 17.82705307, 62.19778061, -21.22186470, 9.29552746, -60.21630859, 99.43757629, 1.21572697, -6.08581781, -0.64516234, 0.76212585, -0.03364482, -0.04240086, -0.10749294, -0.21847451, 0.16480853, 100.00600433, 110.37925720, 32.46999741, 0.00000000
1, 1.9250, 273, 0.04861268, -0.77861714, -0.02206037, 2.81871414, 6.73758411, 61.01473236, -21.92341423, 8.36012840, -60.30400467, 99.45214844, 0.90926927, -6.10213757, -0.64518398, 0.76212996, -0.03548605, -0.04045185, -0.03137349, -0.20763695, 0.18502846, 100.00600433, 110.37925720, 32.46999741, 0.00000000
1, 1.9300, 274, -0.03725091, -0.82401514, 0.00472030, 4.66333294, -2.14856243, 58.92168045, -21.92341423, 8.36012840, -60.30400467, 99.47541809, 0.62040430, -6.16069794, -0.64512265, 0.76216805, -0.03751129, -0.03885406, 0.04930656, -0.16229527, 0.15834199, 100.00600433, 110.37925720, 32.46999741, 0.00000000
1, 1.9350, 275, -0.11910477, -0.87954998, 0.04003446, 5.83442879, -8.28800964, 56.79751205, -21.92341423, 8.36012840, -60.30400467, 99.50457764, 0.34706247, -6.24793339, -0.64500469, 0.76222706, -0.03964078, -0.03751791, 0.12623620, -0.10678519, 0.12321658, 100.00600433, 110.37925720, 32.46999741, 0.00000000
1, 1.9400, 276, -0.18427806, -0.94462943, 0.07030566, 6.66337442, -12.55479813, 54.89760590, -22.27418900, 9.64630222, -60.74247360, 99.53818512, 0.08664548, -6.35480309, -0.64484483, 0.76230079, -0.04182851, -0.03637543, 0.18673514, -0.04168336, 0.09324436, 100.00600433, 110.37925720, 32.46999741, 0.00000000
1, 1.9450, 277, -0.23156264, -1.00998282, 0.12669405, 6.73042774, -15.57512093, 53.03710175, -22.27418900, 9.64630222, -60.74247360, 99.57257080, -0.16204864, -6.47519684, -0.64467061, 0.76237017, -0.04403944, -0.03538543, 0.22948700, 0.02367473, 0.03722111, 100.00600433, 110.37925720, 32.46999741, 0.00000000
1, 1.9500, 278, -0.23813158, -1.05030584, 0.15926687, 6.54058075, -18.03071022, 50.77269745, -22.27418900, 9.64630222, -60.74247360, 99.60512543, -0.41786543, -6.60600615, -0.64450777, 0.76241517, -0.04635815, -0.03440600, 0.23164262, 0.06405843, 0.00513912, 100.00600433, 110.37925720, 32.46999741, 0.00000000
1, 1.9600, 279, -0.17371884, -1.03785563, 0.21433708, 4.10216284, -25.91871071, 47.63628769, -22.56650162, 9.20783424, -60.21630859, 99.65584564, -0.85192615, -6.92986012, -0.64423192, 0.76240259, -0.05096674, -0.03331602, 0.15923581, 0.05174973, -0.04885210, 100.00600433, 110.37925720, 32.46999741, 0.00000000
1, 1.9650, 280, -0.14523351, -1.01148474, 0.22199415, 3.49939322, -29.24354362, 46.61830139, -22.77112007, 10.05553913, -60.27477264, 99.67696381, -1.05741370, -7.11282206, -0.64411277, 0.76235580, -0.05334384, -0.03296662, 0.12711072, 0.02548561, -0.05603522, 100.00600433, 110.37925720, 32.46999741, 0.00000000
1, 1.9700, 281, -0.13933593, -0.98112297, 0.24043530, 3.37024808, -33.44114685, 45.85390472, -22.77112007, 10.05553913, -60.27477264, 99.69849396, -1.25556910, -7.31593704, -0.64398319, 0.76229662, -0.05581327, -0.03277829, 0.11767825, -0.00477728, -0.07405552, 100.00600433, 110.37925720, 32.46999741, 0.00000000
1, 1.9750, 282, -0.13992541, -0.96373141, 0.25214118, 3.68855262, -36.44612503, 44.90192413, -22.94650650, 9.85092068, -61.03478622, 99.72262573, -1.44643557, -7.53317213, -0.64383048, 0.76223958, -0.05833580, -0.03271566, 0.11487639, -0.02204413, -0.08534620, 100.00600433, 110.37925720, 32.46999741, 0.00000000
1, 1.9800, 283, -0.15075022, -0.95474589, 0.26019108, 4.20096922, -37.94241714, 43.56280518, -22.94650650, 9.85092068, -61.03478622, 99.75018311, -1.62933958, -7.75675058, -0.64365083, 0.76219320, -0.06085613, -0.03273888, 0.12245294, -0.03088127, -0.09296310, 100.00600433, 110.37925720, 32.46999741, 0.00000000
1, 1.9850, 284, -0.17391561, -0.94808447, 0.26106757, 4.83343935, -37.71847153, 41.70231628, -22.94650650, 9.85092068, -61.03478622, 99.78147125, -1.80314457, -7.97778845, -0.64344454, 0.76216477, -0.06330897, -0.03280525, 0.14254467, -0.03736638, -0.09338200, 100.00600433, 110.37925720, 32.46999741, 0.00000000
1, 1.9900, 285, -0.21335799, -0.95224464, 0.24769036, 5.44790030, -36.09215927, 39.45487213, -23.58959389, 6.86933661, -61.53171539, 99.81616211, -1.96711886, -8.18902779, -0.64321524, 0.76215768, -0.06564192, -0.03287891, 0.17911687, -0.03299174, -0.07954328, 100.00600433, 110.37925720, 32.46999741, 0.00000000
1, 1.9950, 286, -0.25848225, -0.95893240, 0.23330988, 6.10438538, -32.06173325, 37.19408035, -23.58959389, 6.86933661, -61.53171539, 99.85391998, -2.12320828, -8.37859917, -0.64296937, 0.76217735, -0.06778692, -0.03288037, 0.22152235, -0.02607522, -0.06466632, 100.00600433, 110.37925720, 32.46999741, 0.00000000
1, 2.0050, 287, -0.34304664, -0.99377477, 0.19268480, 6.76424456, -22.95898819, 32.56545258, -23.09266281, 9.14937115, -60.45016098, 99.93804169, -2.44382763, -8.68475723, -0.64244604, 0.76228642, -0.07163926, -0.03240831, 0.30053627, 0.00930286, -0.02290760, 100.00600433, 110.37925720, 32.46999741, 0.00000000
1, 2.0100, 288, -0.34923488, -1.01959300, 0.15507801, 5.69659567, -11.63077545, 30.39540482, -23.09266281, 9.14937115, -60.45016098, 99.97056580, -2.58353877, -8.76814461, -0.64226013, 0.76233613, -0.07298318, -0.03192319, 0.30437416, 0.03539149, 0.01521931, 100.00600433, 110.37925720, 32.46999741, 0.00000000
1, 2.0150, 289, -0.33375198, -1.02917993, 0.13157132, 5.18911505, -5.38939238, 28.48255348, -23.56036186, 9.93861389, -60.68400955, 99.99922180, -2.71913338, -8.81919003, -0.64210737, 0.76238471, -0.07408734, -0.03128607, 0.28656477, 0.04521334, 0.03923647, 100.00600433, 110.37925720, 32.46999741, 0.00000000
1, 2.0200, 290, -0.30162832, -1.02556288, 0.11707942, 4.44818544, -0.46962634, 26.40096283, -23.56036186, 9.93861389, -60.68400955, 100.02300262, -2.84870934, -8.84425831, -0.64199144, 0.76242471, -0.07498331, -0.03054624, 0.25219041, 0.04180419, 0.05422626, 100.00600433, 110.37925720, 32.46999741, 0.00000000
1, 2.0250, 291, -0.27280110, -1.01172018, 0.11288477, 4.00096989, 3.68687892, 24.29744148, -23.70651817, 9.88015175, -60.74247360, 100.04345703, -2.97150970, -8.84706116, -0.64190054, 0.76246363, -0.07569206, -0.02972874, 0.22120413, 0.02813924, 0.05885455, 100.00600433, 110.37925720, 32.46999741, 0.00000000
1, 2.0300, 292, -0.24041878, -1.00659657, 0.12606137, 4.58214331, 8.09622955, 22.18685341, -23.70651817, 9.88015175, -60.74247360, 100.06554413, -3.08771729, -8.82634354, -0.64180154, 0.76253045, -0.07620758, -0.02882215, 0.18673567, 0.02316645, 0.04612236, 100.00600433, 110.37925720, 32.46999741, 0.00000000
1, 2.0350, 293, -0.20122628, -1.00859916, 0.14520976, 4.52350235, 12.49737930, 20.18936920, -23.70651817, 9.88015175, -60.74247360, 100.08597565, -3.19791603, -8.78221893, -0.64171606, 0.76260668, -0.07653305, -0.02782549, 0.14554928, 0.02530623, 0.02741172, 100.00600433, 110.37925720, 32.46999741, 0.00000000
1, 2.0400, 294, -0.16738825, -1.00276268, 0.15967135, 3.55279279, 15.90897369, 18.46033096, -23.96959877, 10.08477020, -60.74247360, 100.10044098, -3.30257893, -8.71979904, -0.64167148, 0.76266485, -0.07670414, -0.02676718, 0.10982971, 0.01959744, 0.01330219, 100.00600433, 110.37925720, 32.46999741, 0.00000000
1, 2.0850, 295, 0.06618290, -0.95221174, 0.15261264, 5.85351896, -6.42714024, 19.65126228, -24.52499199, 9.67553329, -60.74247360, 100.23129272, -4.20175552, -8.37583828, -0.64115262, 0.76306021, -0.07944404, -0.01874214, -0.13944063, -0.02954873, 0.02299196, 100.00600433, 110.37925720, 32.46999741, 0.00000000
1, 2.0900, 296, 0.05785118, -0.95930469, 0.15565845, 6.80132198, -11.10445881, 20.40401649, -24.43729782, 9.41245270, -59.36860657, 100.27095795, -4.29230881, -8.44866657, -0.64090240, 0.76317173, -0.08043873, -0.01851608, -0.13269091, -0.02222830, 0.02054627, 100.00600433, 110.37925720, 32.46999741, 0.00000000
1, 2.0950, 297, 0.03269003, -0.96413732, 0.16329975, 7.02970982, -14.99918365, 21.67531204, -24.43729782, 9.41245270, -59.36860657, 100.31340790, -4.38560820, -8.54191303, -0.64063114, 0.76328093, -0.08158483, -0.01838314, -0.10915883, -0.01715799, 0.01353375, 100.00600433, 110.37925720, 32.46999741, 0.00000000
1, 2.1000, 298, 0.00189052, -0.96497023, 0.17146406, 6.73834133, -17.05597687, 23.10218811, -24.70038033, 9.52937698, -59.83630371, 100.35447693, -4.47189093, -8.64642239, -0.64036554, 0.76337713, -0.08276650, -0.01836029, -0.07996126, -0.01608881, 0.00598222, 100.00600433, 110.37925720, 32.46999741, 0.00000000
1, 2.1050, 299, -0.02492080, -0.97165358, 0.16230820, 6.74610233, -17.36948013, 24.56680870, -24.70038033, 9.52937698, -59.83630371, 100.39701843, -4.57717419, -8.75411987, -0.64009529, 0.76346409, -0.08407478, -0.01822610, -0.05482122, -0.00912757, 0.01575572, 100.00600433, 110.37925720, 32.46999741, 0.00000000
1, 2.1100, 300, -0.05238547, -0.98009109, 0.16235317, 6.52374077, -16.22958374, 26.34941864, -24.70038033, 9.52937698, -59.83630371, 100.43834686, -4.69215918, -8.85788727, -0.63983673, 0.76353776, -0.08541007, -0.01800494, -0.02931282, -0.00040376, 0.01631495, 100.00600433, 110.37925720, 32.46999741, 0.00000000
1, 2.1150, 301, -0.06962389, -0.97675228, 0.17231700, 5.53236723, -13.28294277, 28.04467201, -24.08652496, 8.68167210, -60.30400467, 100.47387695, -4.81808901, -8.94875145, -0.63962233, 0.76357847, -0.08671865, -0.01764189, -0.01423917, -0.00346704, 0.00692178, 100.00600433, 110.37925720, 32.46999741, 0.00000000
1, 2.1200, 302, -0.07119555, -0.96833241, 0.18263355, 4.78364468, -10.00078678, 28.90358353, -24.08652496, 8.68167210, -60.30400467, 100.50459290, -4.95115232, -9.02427483, -0.63944447, 0.76359630, -0.08796322, -0.01714833, -0.01497374, -0.01161271, -0.00287543, 100.00600433, 110.37925720, 32.46999741, 0.00000000
1, 2.1250, 303, -0.06349733, -0.95587218, 0.19822368, 4.13009644, -5.74470139, 29.85459709, -25.05115509, 10.14323330, -59.45629883, 100.53047180, -5.09271765, -9.07973862, -0.63930428, 0.76359409, -0.08911993, -0.01648900, -0.02514445, -0.02380496, -0.01800897, 100.00600433, 110.37925720, 32.46999741, 0.00000000
1, 2.1300, 304, -0.05240162, -0.95661783, 0.20363949, 3.74370050, -3.01632023, 30.69569778, -25.05115509, 10.14323330, -59.45629883, 100.55341339, -5.24087191, -9.12256145, -0.63918704, 0.76357836, -0.09022786, -0.01571681, -0.03879955, -0.02276770, -0.02303201, 100.00600433, 110.37925720, 32.46999741, 0.00000000
1, 2.1400, 305, 0.00751154, -0.96206391, 0.21609078, 2.93357348, 2.73755741, 33.05144119, -25.19731140, 7.60011673, -59.80707169, 100.58889771, -5.56222439, -9.16676235, -0.63903260, 0.76349711, -0.09230302, -0.01378039, -0.10425334, -0.01671630, -0.03481001, 100.00600433, 110.37925720, 32.46999741, 0.00000000
1, 2.1450, 306, 0.03611507, -0.96792078, 0.21205346, 2.64751863, 3.25109506, 34.78488159, -25.19731140, 7.60011673, -59.80707169, 100.60411835, -5.73616934, -9.18255711, -0.63897496, 0.76343435, -0.09337078, -0.01268958, -0.13582954, -0.01051506, -0.03049807, 100.00600433, 110.37925720, 32.46999741, 0.00000000
1, 2.1500, 307, 0.05664942, -0.96625233, 0.19519210, 2.33165908, 3.30930042, 36.61300278, -25.57731628, 10.11400127, -60.18708038, 100.62014771, -5.88874197, -9.20013618, -0.63890535, 0.76338953, -0.09433199, -0.01175112, -0.15919629, -0.01182206, -0.01337804, 100.00600433, 110.37925720, 32.46999741, 0.00000000
1, 2.1550, 308, 0.07951617, -0.96285832, 0.17592736, 2.38273501, 2.49377728, 38.69604492, -25.57731628, 10.11400127, -60.18708038, 100.63497925, -6.08120775, -9.22336483, -0.63885212, 0.76329958, -0.09555037, -0.01057725, -0.18504989, -0.01482335, 0.00615757, 100.00600433, 110.37925720, 32.46999741, 0.00000000
1, 2.1600, 309, 0.10783214, -0.95882034, 0.15507801, 2.51666641, 0.83013147, 41.31865311, -25.57731628, 10.11400127, -60.18708038, 100.65173340, -6.28503513, -9.25730133, -0.63878661, 0.76319951, -0.09690227, -0.00938489, -0.21679948, -0.01840783, 0.02728793, 100.00600433, 110.37925720, 32.46999741, 0.00000000
1, 2.1650, 310, 0.14024061, -0.95581198, 0.13583492, 3.12484813, -1.80571306, 43.98215485, -25.92809105, 10.43554497, -59.13475418, 100.67342377, -6.49951744, -9.30681038, -0.63868839, 0.76310170, -0.09841618, -0.00820318, -0.25283533, -0.02091780, 0.04688898, 100.00600433, 110.37925720, 32.46999741, 0.00000000
1, 2.1700, 311, 0.17835133, -0.95258009, 0.10509642, 3.49948645, -5.54203176, 47.42860413, -25.92809105, 10.43554497, -59.13475418, 100.69972229, -6.72748375, -9.37810612, -0.63856006, 0.76299518, -0.10014875, -0.00704782, -0.29475066, -0.02357995, 0.07807418, 100.00600433, 110.37925720, 32.46999741, 0.00000000
1, 2.1750, 312, 0.19973633, -0.94691908, 0.08691415, 4.15935278, -9.50196266, 50.12998962, -25.25577354, 9.90938282, -59.48553085, 100.73232269, -6.96502399, -9.47165680, -0.63838995, 0.76289088, -0.10208131, -0.00594579, -0.32017291, -0.02863701, 0.09673983, 100.00600433, 110.37925720, 32.46999741, 0.00000000
1, 2.2500, 313, -0.15592638, -0.94424975, 0.11134487, 22.80649948, -16.51400375, 88.00246429, -27.76965714, 9.26629639, -59.71937943, 102.22612762, -11.94482899, -12.46458912, -0.62948054, 0.76249468, -0.14897749, 0.01272982, -0.04957651, -0.01257711, 0.09339578, 100.00600433, 110.37925720, 32.46999741, 0.00000000
1, 2.2550, 314, -0.17169240, -0.96455562, 0.09003730, 23.95224190, -13.88977623, 89.38242340, -27.76965714, 9.26629639, -59.71937943, 102.38195801, -12.36665154, -12.63065052, -0.62853211, 0.76257896, -0.15231283, 0.01488355, -0.04089367, 0.00980310, 0.11683854, 100.00600433, 110.37925720, 32.46999741, 0.00000000
1, 2.2600, 315, -0.20987494, -0.96846604, 0.07447400, 24.63377953, -11.16023445, 90.56047058, -27.91581345, 8.41859055, -59.42706680, 102.54003906, -12.79669666, -12.78579140, -0.62756765, 0.76265985, -0.15560921, 0.01716466, -0.00996800, 0.01589326, 0.13457739, 100.00600433, 110.37925720, 32.46999741, 0.00000000
1, 2.2650, 316, -0.24197260, -0.96498406, 0.06735926, 25.55839157, -7.94115257, 91.74709320, -27.91581345, 8.41859055, -59.42706680, 102.70090485, -13.23559093, -12.92761230, -0.62658268, 0.76274252, -0.15885323, 0.01959127, 0.01472067, 0.01467646, 0.14390248, 100.00600433, 110.37925720, 32.46999741, 0.00000000
1, 2.2700, 317, -0.24853691, -0.96775365, 0.07084934, 26.93957329, -4.16851950, 93.25657654, -27.91581345, 8.41859055, -59.42706680, 102.86611938, -13.68557930, -13.05375862, -0.62556529, 0.76283598, -0.16203998, 0.02219377, 0.01368464, 0.01981277, 0.14271480, 100.00600433, 110.37925720, 32.46999741, 0.00000000
1, 2.2750, 318, -0.21530361, -0.97342646, 0.05890340, 28.11208725, -0.68710047, 95.21745300, -29.23121834, 10.78631973, -59.16398621, 103.03491211, -14.14862919, -13.16627121, -0.62452000, 0.76293027, -0.16519253, 0.02497341, -0.02731228, 0.02800704, 0.15707961, 100.00600433, 110.37925720, 32.46999741, 0.00000000
1, 2.2800, 319, -0.18097812, -0.97827911, 0.04867099, 29.58218765, 1.65399969, 96.90198517, -29.23121834, 10.78631973, -59.16398621, 103.20996857, -14.62217140, -13.27062798, -0.62342864, 0.76303566, -0.16833225, 0.02788694, -0.06958070, 0.03551326, 0.16978410, 100.00600433, 110.37925720, 32.46999741, 0.00000000
1, 2.2850, 320, -0.17122225, -0.97904384, 0.06411396, 31.09601212, 3.20649052, 98.07644653, -29.23121834, 10.78631973, -59.16398621, 103.39221191, -15.10287380, -13.37029839, -0.62228459, 0.76315647, -0.17146339, 0.03089460, -0.08746873, 0.03902593, 0.15684763, 100.00600433, 110.37925720, 32.46999741, 0.00000000
1, 2.3000, 321, -0.21239440, -0.99112236, 0.16612488, 35.78978729, 7.06128883, 101.71894836, -30.89739799, 10.58170128, -58.60859299, 103.99494934, -16.57338333, -13.66429424, -0.61845207, 0.76366293, -0.18086857, 0.04028349, -0.07118561, 0.06004760, 0.06285752, 100.00600433, 110.37925720, 32.46999741, 0.00000000
1, 2.3050, 322, -0.21799055, -1.01239312, 0.16851644, 37.01636505, 12.03261662, 104.03011322, -30.89739799, 10.58170128, -58.60859299, 104.20170593, -17.09218407, -13.73470211, -0.61711645, 0.76381814, -0.18393427, 0.04378800, -0.07416184, 0.08463748, 0.06310595, 100.00600433, 110.37925720, 32.46999741, 0.00000000
1, 2.3100, 323, -0.23030184, -1.03102756, 0.18185592, 37.91610336, 14.63127327, 106.39405823, -31.42355919, 11.54633141, -58.11166382, 104.41122437, -17.62537384, -13.79711819, -0.61575222, 0.76395559, -0.18700232, 0.04744895, -0.07071437, 0.10676201, 0.05240883, 100.00600433, 110.37925720, 32.46999741, 0.00000000
1, 2.3150, 324, -0.24590395, -1.01859498, 0.19102252, 38.03751373, 19.55152130, 107.52629089, -31.42355919, 11.54633141, -58.11166382, 104.61534882, -18.16996574, -13.83819294, -0.61440623, 0.76405764, -0.18997069, 0.05130403, -0.06414209, 0.09796405, 0.04582031, 100.00600433, 110.37925720, 32.46999741, 0.00000000
1, 2.3200, 325, -0.21489213, -1.00200093, 0.18219768, 39.44284058, 24.10778236, 108.31803894, -31.42355919, 11.54633141, -58.11166382, 104.82057953, -18.72396088, -13.85925007, -0.61303335, 0.76416123, -0.19283472, 0.05534229, -0.10427616, 0.08516575, 0.05724607, 100.00600433, 110.37925720, 32.46999741, 0.00000000
1, 2.3250, 326, -0.16530308, -0.99724996, 0.17605361, 42.10325623, 25.06697655, 109.95449066, -32.50511551, 12.10172462, -58.08243179, 105.03916168, -19.28699112, -13.87984085, -0.61155927, 0.76429921, -0.19571564, 0.05947712, -0.16310647, 0.08439450, 0.06614424, 100.00600433, 110.37925720, 32.46999741, 0.00000000
1, 2.3300, 327, -0.14412031, -0.99953949, 0.18924184, 44.88322067, 28.06531334, 112.30401611, -32.50511551, 12.10172462, -58.08243179, 105.26857758, -19.86515427, -13.89070606, -0.60999465, 0.76446193, -0.19858165, 0.06379654, -0.19376731, 0.09085385, 0.05574754, 100.00600433, 110.37925720, 32.46999741, 0.00000000
1, 2.3350, 328, -0.12585624, -1.02086842, 0.18948820, 48.14155960, 35.59855652, 114.54522705, -32.56357574, 12.18941784, -57.99473953, 105.50304413, -20.46396446, -13.86852932, -0.60836154, 0.76464796, -0.20130591, 0.06845283, -0.22176796, 0.11661252, 0.05825689, 100.00600433, 110.37925720, 32.46999741, 0.00000000
1, 2.3400, 329, -0.07428759, -1.08836150, 0.23475619, 51.31959152, 40.78052902, 116.03038025, -32.56357574, 12.18941784, -57.99473953, 105.74542236, -21.07692337, -13.82436562, -0.60664332, 0.76486510, -0.20392559, 0.07334673, -0.28342322, 0.18870252, 0.01579151, 100.00600433, 110.37925720, 32.46999741, 0.00000000
1, 2.3450, 330, -0.00933530, -1.12534332, 0.29072884, 55.49649048, 48.74805450, 117.91972351, -32.56357574, 12.18941784, -57.99473953, 105.99517822, -21.70991516, -13.74440289, -0.60482919, 0.76512361, -0.20637588, 0.07859066, -0.35872194, 0.23050869, -0.03727914, 100.00600433, 110.37925720, 32.46999741, 0.00000000
1, 2.3500, 331, 0.01835425, -1.14252400, 0.32388994, 58.93702316, 55.39808655, 117.82411957, -34.46360779, 12.71557999, -57.84858322, 106.24924469, -22.33926582, -13.63247395, -0.60294062, 0.76544660, -0.20856492, 0.08399382, -0.39675108, 0.25272152, -0.06761067, 100.00600433, 110.37925720, 32.46999741, 0.00000000
1, 2.3550, 332, 0.03545884, -1.18340588, 0.35236436, 63.60019684, 61.10152817, 118.42649841, -34.46360779, 12.71557999, -57.84858322, 106.51548767, -22.99255562, -13.49439621, -0.60091895, 0.76581156, -0.21066032, 0.08972954, -0.42431054, 0.29887766, -0.09324853, 100.00600433, 110.37925720, 32.46999741, 0.00000000
1, 2.3600, 333, 0.04380219, -1.25033271, 0.37093627, 67.38499451, 66.30284119, 120.78069305, -35.28208160, 12.51096153, -56.79625702, 106.79098511, -23.66509819, -13.33552837, -0.59878343, 0.76620096, -0.21267366, 0.09573135, -0.44340235, 0.37141556, -0.10900912, 100.00600433, 110.37925720, 32.46999741, 0.00000000
1, 2.3650, 334, 0.03589047, -1.33462715, 0.37451729, 72.14609528, 73.49357605, 124.78224945, -35.28208160, 12.51096153, -56.79625702, 107.07695770, -24.36785698, -13.14807510, -0.59651023, 0.76661181, -0.21460190, 0.10211751, -0.44658995, 0.46170500, -0.10984769, 100.00600433, 110.37925720, 32.46999741, 0.00000000
1, 2.3700, 335, 0.02072735, -1.44997203, 0.35497051, 78.02155304, 82.83422089, 129.59204102, -35.28208160, 12.51096153, -56.79625702, 107.37411499, -25.10814667, -12.92212009, -0.59407461, 0.76704872, -0.21640900, 0.10899042, -0.44297379, 0.58352292, -0.08762395, 100.00600433, 110.37925720, 32.46999741, 0.00000000
1, 2.3750, 336, 0.01178376, -1.58329749, 0.27624482, 82.96395111, 90.06195831, 135.02932739, -36.27594376, 14.11867905, -57.38088226, 107.68200684, -25.88621330, -12.66989708, -0.59148014, 0.76748246, -0.21817312, 0.11628607, -0.44596815, 0.72389472, -0.00626506, 100.00600433, 110.37925720, 32.46999741, 0.00000000
1, 2.3800, 337, -0.01319120, -1.72793639, 0.22535199, 87.27352142, 96.53319550, 139.82571411, -36.27594376, 14.11867905, -57.38088226, 107.99809265, -26.69816399, -12.39446735, -0.58873916, 0.76789856, -0.21989362, 0.12395538, -0.43346357, 0.87599504, 0.04713914, 100.00600433, 110.37925720, 32.46999741, 0.00000000
1, 2.4150, 338, -0.01309822, -2.57758522, 0.43838996, 75.95098877, 170.22868347, 149.29766846, -41.80064392, 16.69102669, -56.03624725, 109.35094452, -33.14700317, -8.92609692, -0.57061505, 0.76678813, -0.22528233, 0.18889828, -0.53117907, 1.78468227, -0.16445699, 100.00600433, 110.37925720, 32.46999741, 0.00000000
1, 2.4200, 339, -0.00683230, -2.59116912, 0.49386531, 67.06237793, 178.41122437, 147.67799377, -41.80064392, 16.69102669, -56.03624725, 109.28918457, -34.13721466, -8.20616245, -0.56887031, 0.76550460, -0.22519225, 0.19919296, -0.55198944, 1.80694914, -0.22361916, 100.00600433, 110.37925720, 32.46999741, 0.00000000
1, 2.4250, 340, 0.05758723, -2.53755093, 0.49659777, 53.88302231, 188.56632996, 146.51046753, -44.51914597, 17.80181122, -56.38702011, 109.11045837, -35.13747406, -7.41464186, -0.56761175, 0.76373076, -0.22490142, 0.20964633, -0.63078028, 1.76191485, -0.23133385, 100.00600433, 110.37925720, 32.46999741, 0.00000000
1, 2.4300, 341, 0.08804002, -2.40076518, 0.43487588, 36.74975586, 202.01098633, 144.73559570, -44.51914597, 17.80181122, -56.38702011, 108.77810669, -36.14834595, -6.52606201, -0.56700581, 0.76133734, -0.22434957, 0.22031146, -0.67543310, 1.63351250, -0.17658067, 100.00600433, 110.37925720, 32.46999741, 0.00000000
1, 2.4350, 342, 0.02194627, -2.14900851, 0.40162691, 22.75905418, 213.17611694, 137.43328857, -46.62379456, 18.59105492, -56.56240845, 108.30312347, -37.13727951, -5.53689289, -0.56697565, 0.75846869, -0.22338706, 0.23100272, -0.62326235, 1.38961554, -0.15224196, 100.00600433, 110.37925720, 32.46999741, 0.00000000
1, 2.4400, 343, 0.00495655, -1.81127691, 0.34896114, 10.16295242, 220.38949585, 128.37158203, -46.62379456, 18.59105492, -56.56240845, 107.69964600, -38.08682632, -4.46239185, -0.56745404, 0.75520962, -0.22204652, 0.24155706, -0.61945283, 1.05915797, -0.10978521, 100.00600433, 110.37925720, 32.46999741, 0.00000000
1, 2.4450, 344, 0.00448354, -1.41022325, 0.20807649, 5.97223043, 218.32348633, 121.47039032, -46.62379456, 18.59105492, -56.56240845, 107.04434967, -38.99092102, -3.36035514, -0.56805450, 0.75184369, -0.22054687, 0.25180224, -0.63116747, 0.66509950, 0.02028386, 100.00600433, 110.37925720, 32.46999741, 0.00000000
1, 2.4500, 345, -0.11173473, -0.92913055, 0.13093732, 13.08827686, 208.16023254, 116.40551758, -48.69921112, 19.46799088, -57.46857452, 106.42403412, -39.83498383, -2.28181672, -0.56835556, 0.74874151, -0.21896197, 0.26156023, -0.52642155, 0.19076070, 0.08701048, 100.00600433, 110.37925720, 32.46999741, 0.00000000
1, 2.4550, 346, -0.25994307, -0.76684117, 0.10408446, 14.98415089, 197.70158386, 113.08255768, -48.69921112, 19.46799088, -57.46857452, 105.82841492, -40.65124130, -1.24166214, -0.56843251, 0.74574798, -0.21755183, 0.27095330, -0.38913280, 0.03510553, 0.10339359, 100.00600433, 110.37925720, 32.46999741, 0.00000000
1, 2.4600, 347, -0.53351569, -0.56874764, 0.05520971, 8.89073372, 185.84580994, 108.49601746, -50.74539566, 20.92955208, -58.22858810, 105.22017670, -41.42135239, -0.24553347, -0.56859624, 0.74271619, -0.21634038, 0.27976406, -0.12571387, -0.15647684, 0.14195390, 100.00600433, 110.37925720, 32.46999741, 0.00000000
1, 2.4650, 348, -0.70535117, -0.41760877, 0.08810969, 4.51657724, 184.92475891, 104.63893890, -50.74539566, 20.92955208, -58.22858810, 104.56439972, -42.16331482, 0.77427685, -0.56889081, 0.73955852, -0.21506140, 0.28838354, 0.03626545, -0.30148250, 0.09846105, 100.00600433, 110.37925720, 32.46999741, 0.00000000
1, 2.4700, 349, -0.73467129, -0.35927302, 0.23825049, 8.80322075, 173.91950989, 101.72820282, -50.74539566, 20.92955208, -58.22858810, 103.95073700, -42.86914063, 1.74938691, -0.56893373, 0.73661286, -0.21389025, 0.29659232, 0.05597791, -0.35394225, -0.06163251, 100.00600433, 110.37925720, 32.46999741, 0.00000000
1, 2.4750, 350, -0.74356800, -0.37415811, 0.30541331, 7.30108976, 141.93009949, 100.28379822, -52.96696854, 21.77725792, -59.54399109, 103.45172119, -43.52338791, 2.53369427, -0.56870550, 0.73400712, -0.21347401, 0.30370465, 0.05618482, -0.33306196, -0.13731287, 100.00600433, 110.37925720, 32.46999741, 0.00000000
1, 2.4800, 351, -0.84478223, -0.32988527, 0.28803545, -0.65724760, 99.99617767, 100.15673828, -52.96696854, 21.77725792, -59.54399109, 103.09215546, -44.12498856, 3.05016279, -0.56831479, 0.73172492, -0.21419242, 0.30938435, 0.14968967, -0.37126079, -0.12667632, 100.00600433, 110.37925720, 32.46999741, 0.00000000
1, 2.4850, 352, -1.02183354, -0.23860770, 0.34291154, -5.15821218, 66.65582275, 101.69774628, -53.63928604, 22.09880066, -59.16398621, 102.86050415, -44.69505310, 3.34623957, -0.56771588, 0.72974169, -0.21584228, 0.31398708, 0.31940269, -0.45652813, -0.18661033, 100.00600433, 110.37925720, 32.46999741, 0.00000000
1, 2.4900, 353, -1.22483969, -0.20340213, 0.40265518, -6.28930140, 54.34605789, 101.87441254, -53.63928604, 22.09880066, -59.16398621, 102.67713165, -45.25171280, 3.56297207, -0.56701964, 0.72787726, -0.21781334, 0.31818369, 0.51533312, -0.48563269, -0.25059527, 100.00600433, 110.37925720, 32.46999741, 0.00000000
1, 2.4950, 354, -1.32097626, -0.22336648, 0.36989540, -11.55240726, 62.16677094, 97.74630737, -53.63928604, 22.09880066, -59.16398621, 102.41880798, -45.79611969, 3.84566975, -0.56660807, 0.72579432, -0.21952793, 0.32246789, 0.60483831, -0.45959902, -0.22238281, 100.00600433, 110.37925720, 32.46999741, 0.00000000
1, 2.5000, 355, -1.26641428, -0.24887607, 0.32377219, -18.13900375, 70.00517273, 90.93643951, -54.60391617, 21.74802589, -60.12861633, 102.08432007, -46.33196259, 4.19179296, -0.56647766, 0.72347713, -0.22103596, 0.32684407, 0.54389274, -0.42829275, -0.18142705, 100.00600433, 110.37925720, 32.46999741, 0.00000000
1, 2.5050, 356, -1.04652154, -0.24685079, 0.35103044, -24.34577942, 60.62502289, 81.81850433, -54.60391617, 21.74802589, -60.12861633, 101.73885345, -46.79477692, 4.50134039, -0.56665337, 0.72121781, -0.22245795, 0.33054724, 0.31807300, -0.42519748, -0.21346855, 100.00600433, 110.37925720, 32.46999741, 0.00000000
1, 2.5100, 357, -0.80981457, -0.19249694, 0.34883565, -35.77563477, 49.30390549, 66.02584076, -55.15930939, 23.32651329, -60.65477753, 101.37225342, -47.16774368, 4.75919390, -0.56729698, 0.71897805, -0.22382617, 0.33338660, 0.07670475, -0.47553158, -0.21579926, 100.00600433, 110.37925720, 32.46999741, 0.00000000
1, 2.5150, 358, -0.44105348, -0.06999502, 0.32422838, -46.70258331, 26.96132660, 42.25258255, -55.15930939, 23.32651329, -60.65477753, 101.04026031, -47.40160751, 4.89394474, -0.56840450, 0.71701497, -0.22516201, 0.33482555, -0.29526985, -0.59531808, -0.19474566, 100.00600433, 110.37925720, 32.46999741, 0.00000000
1, 2.5200, 359, -0.20328100, -0.00616388, 0.28583077, -51.83278275, 13.42084599, 18.08955574, -55.15930939, 23.32651329, -60.65477753, 100.72813416, -47.50368118, 4.96614218, -0.56988907, 0.71535313, -0.22615395, 0.33518773, -0.53455091, -0.65808415, -0.15966077, 100.00600433, 110.37925720, 32.46999741, 0.00000000
1, 2.5250, 360, -0.00123892, 0.09940090, 0.23549928, -55.90975952, 3.42945099, -8.45593834, -54.98392105, 23.09266281, -61.18093872, 100.42189789, -47.46590042, 5.00221777, -0.57178837, 0.71399248, -0.22662681, 0.33453423, -0.73643601, -0.76426852, -0.11220458, 100.00600433, 110.37925720, 32.46999741, 0.00000000
1, 2.5300, 361, 0.14706373, 0.16199319, 0.21614273, -55.49618530, -6.97644663, -33.52617645, -54.98392105, 23.09266281, -61.18093872, 100.14923096, -47.29544449, 4.99507189, -0.57393521, 0.71303558, -0.22657321, 0.33293134, -0.88305557, -0.82918262, -0.09536803, 100.00600433, 110.37925720, 32.46999741, 0.00000000
1, 2.5350, 362, 0.28733838, 0.19695538, 0.22669937, -51.00784683, -20.84646034, -53.54313278, -55.45162201, 20.16954041, -61.76556396, 99.95444489, -47.01438141, 4.91196966, -0.57609159, 0.71258271, -0.22617863, 0.33043566, -1.02033198, -0.86782825, -0.10746849, 100.00600433, 110.37925720, 32.46999741, 0.00000000
1, 2.5650, 363, -0.09036876, -0.19258091, -0.07596739, -16.16547012, -50.52601624, -99.31552887, -54.34083557, 21.16340256, -60.68400955, 100.02243042, -44.24448395, 3.67545676, -0.58576959, 0.71716249, -0.21912108, 0.30747035, -0.60882545, -0.51117438, 0.19957750, 100.00600433, 110.37925720, 32.46999741, 0.00000000
1, 2.5700, 364, -0.27367538, -0.17529881, -0.05473147, -15.95605564, -60.69147491, -106.78123474, -53.37620544, 21.16340256, -60.04092407, 100.14022827, -43.66623688, 3.38887763, -0.58711743, 0.71857351, -0.21755427, 0.30268049, -0.41849768, -0.53500581, 0.18042736, 100.00600433, 110.37925720, 32.46999741, 0.00000000
1, 2.5750, 365, -0.38674131, -0.18160351, -0.02040487, -15.53647137, -64.75450897, -114.45469666, -53.37620544, 20.95878410, -60.04092407, 100.26727295, -43.04621124, 3.08860397, -0.58849686, 0.72009903, -0.21583927, 0.29756075, -0.29780328, -0.53568327, 0.14866948, 100.00600433, 110.37925720, 32.46999741, 0.00000000
1, 2.5800, 366, -0.46573818, -0.21104465, 0.02276688, -15.92827225, -66.67363739, -123.22344971, -53.37620544, 20.95878410, -60.04092407, 100.38798523, -42.38085556, 2.79104400, -0.58996373, 0.72169602, -0.21389605, 0.29214075, -0.21055284, -0.51366794, 0.10819708, 100.00600433, 110.37925720, 32.46999741, 0.00000000
1, 2.5850, 367, -0.50728846, -0.25888929, 0.04953521, -18.59120750, -66.25968933, -132.78398132, -52.61619186, 20.43262100, -60.39169693, 100.47973633, -41.66846848, 2.51268744, -0.59161717, 0.72327882, -0.21166737, 0.28645059, -0.16001076, -0.47371092, 0.08400567, 100.00600433, 110.37925720, 32.46999741, 0.00000000
1, 2.5900, 368, -0.51509029, -0.30135068, 0.05254710, -23.51491356, -64.28762054, -142.76931763, -52.61619186, 20.43262100, -60.39169693, 100.52482605, -40.90858841, 2.26353240, -0.59354264, 0.72476900, -0.20912553, 0.28050601, -0.14243346, -0.43962044, 0.08321679, 100.00600433, 110.37925720, 32.46999741, 0.00000000
1, 2.5950, 369, -0.50231361, -0.32753411, 0.03783261, -28.73431969, -61.34759140, -152.55256653, -50.80385971, 19.73107338, -59.69014740, 100.51911926, -40.10325623, 2.04827023, -0.59575027, 0.72614032, -0.20625260, 0.27433875, -0.14466679, -0.42228204, 0.09966096, 100.00600433, 110.37925720, 32.46999741, 0.00000000
1, 2.6000, 370, -0.46907365, -0.34187382, 0.01751429, -32.96843338, -57.46553802, -162.04548645, -50.80385971, 19.73107338, -59.69014740, 100.46290588, -39.26056290, 1.87269747, -0.59820926, 0.72737682, -0.20304336, 0.26803377, -0.16667511, -0.41720325, 0.12116946, 100.00600433, 110.37925720, 32.46999741, 0.00000000
1, 2.6050, 371, -0.42181748, -0.34597126, -0.00295116, -35.98973846, -53.75926208, -171.03227234, -50.80385971, 19.73107338, -59.69014740, 100.37036896, -38.37152863, 1.72987950, -0.60086524, 0.72854894, -0.19945075, 0.26152813, -0.20200157, -0.42275089, 0.14236110, 100.00600433, 110.37925720, 32.46999741, 0.00000000
1, 2.6100, 372, -0.37007284, -0.34463334, -0.02253408, -37.82532883, -50.89464188, -179.35313416, -49.02075195, 16.36948204, -58.75474930, 100.25025940, -37.44430161, 1.61396039, -0.60366005, 0.72966397, -0.19552676, 0.25486138, -0.24109744, -0.43406916, 0.16230899, 100.00600433, 110.37925720, 32.46999741, 0.00000000
1, 2.6150, 373, -0.31424424, -0.33986506, -0.03161418, -37.79343033, -49.35463333, -186.95822144, -49.02075195, 16.36948204, -58.75474930, 100.11864471, -36.48121262, 1.51474559, -0.60650897, 0.73077530, -0.19130649, 0.24802484, -0.28363729, -0.44905150, 0.17154840, 100.00600433, 110.37925720, 32.46999741, 0.00000000
1, 2.6200, 374, -0.23798320, -0.33495003, -0.02557221, -36.71731186, -48.34864807, -192.24081421, -49.02075195, 16.36948204, -59.60245514, 99.98492432, -35.49313736, 1.42581415, -0.60934389, 0.73189253, -0.18686514, 0.24107029, -0.34605998, -0.46429956, 0.16563052, 100.00600433, 110.37925720, 32.46999741, 0.00000000
1, 2.6250, 375, -0.17529261, -0.34120181, 0.00343767, -32.52020645, -47.97111130, -203.64215088, -48.20227814, 17.07103157, -59.60245514, 99.86358643, -34.44933319, 1.34942675, -0.61211890, 0.73315042, -0.18199101, 0.23383802, -0.39416921, -0.46859300, 0.13679856, 100.00600433, 110.37925720, 32.46999741, 0.00000000
1, 2.6300, 376, -0.14121862, -0.36148542, 0.01981108, -30.39205170, -48.94649506, -210.17713928, -48.20227814, 17.07103157, -59.60245514, 99.75202179, -33.37261200, 1.27231824, -0.61483151, 0.73446226, -0.17689644, 0.22639585, -0.41285446, -0.45894003, 0.12064464, 100.00600433, 110.37925720, 32.46999741, 0.00000000
1, 2.6350, 377, -0.13261552, -0.39088932, 0.03274684, -28.51252174, -49.89512634, -216.46296692, -47.20841980, 16.57410049, -59.74861145, 99.64897156, -32.26419830, 1.19447136, -0.61748201, 0.73581386, -0.17159110, 0.21874766, -0.40539837, -0.44015208, 0.10794268, 100.00600433, 110.37925720, 32.46999741, 0.00000000
1, 2.6400, 378, -0.13181871, -0.42572185, 0.03818980, -27.59057045, -51.12493515, -222.98867798, -47.20841980, 16.57410049, -59.74861145, 99.55027771, -31.12269592, 1.11448681, -0.62009561, 0.73717833, -0.16608423, 0.21086909, -0.38943267, -0.41590065, 0.10273908, 100.00600433, 110.37925720, 32.46999741, 0.00000000
1, 2.6450, 379, -0.13609958, -0.46139634, 0.04600194, -27.15834045, -53.11664581, -229.87683105, -45.71762466, 15.05407715, -58.63782501, 99.45536804, -29.94570732, 1.02837563, -0.62268025, 0.73854530, -0.16038892, 0.20272082, -0.36766681, -0.39077735, 0.09517063, 100.00600433, 110.37925720, 32.46999741, 0.00000000
1, 2.6500, 380, -0.15146118, -0.50412703, 0.05419685, -27.00296402, -55.70679855, -236.60044861, -45.71762466, 15.05407715, -58.63782501, 99.36313629, -28.72964668, 0.93341857, -0.62524462, 0.73990530, -0.15450449, 0.19426195, -0.33403924, -0.35855317, 0.08718799, 100.00600433, 110.37925720, 32.46999741, 0.00000000
1, 2.6550, 381, -0.17588457, -0.55711353, 0.05784482, -27.31796265, -57.54445648, -242.91458130, -45.71762466, 15.05407715, -58.63782501, 99.27126312, -27.48501396, 0.83208978, -0.62777549, 0.74122673, -0.14847574, 0.18556911, -0.29061395, -0.31595111, 0.08367221, 100.00600433, 110.37925720, 32.46999741, 0.00000000
