SensorId, TimeStamp (s), FrameNumber, AccX (g), AccY (g), AccZ (g), GyroX (deg/s), GyroY (deg/s), GyroZ (deg/s), MagX (uT), MagY (uT), MagZ (uT), EulerX (deg), EulerY (deg), EulerZ (deg), QuatW, QuatX, QuatY, QuatZ, LinAccX (g), LinAccY (g), LinAccZ (g), Pressure (kPa), Altitude (m), Temperature (degC), HeaveMotion (m)
1, 0.0001, 0, -0.21171030, -0.90922832, 0.23189230, 5.30750084, -22.97592545, 16.85776138, -34.49283981, 9.90938282, -57.35165024, 101.89125824, -10.15465546, -0.83879071, -0.62807184, 0.77307236, -0.06142054, 0.06412899, 0.03507676, -0.05445350, -0.03128135, 100.35700226, 80.89166260, 28.82999992, 0.00000000
1, -0.0001, 0, -0.10522461, -0.99847412, 0.22772217, 7.95539379, 8.56734657, 4.54836178, -34.40514374, 5.58316278, -50.89155197, 110.26825714, -22.62457085, 83.84565735, 0.30954421, -0.67354375, -0.45411167, -0.49427101, -0.27932280, 0.13249093, 0.09195969, 100.27700806, 87.60468292, 28.79999924, 0.00000000
1, 0.0049, 1, -0.09277344, -0.99114990, 0.22521973, 7.95539284, 7.44734526, 4.05836153, -34.14206314, 6.28471184, -50.24846649, 110.29640198, -22.65650940, 83.87587738, 0.30907530, -0.67357093, -0.45426452, -0.49438703, -0.29230604, 0.12552725, 0.09479780, 100.27700806, 87.60468292, 28.79999924, 0.00000000
1, 0.0099, 2, -0.09149170, -0.99707031, 0.22668457, 8.30539322, 6.60734558, 3.63836098, -34.14206314, 6.28471184, -50.24846649, 110.32762146, -22.68503380, 83.90261078, 0.30862176, -0.67361242, -0.45442581, -0.49446562, -0.29406175, 0.13180514, 0.09372882, 100.27700806, 87.60468292, 28.79999924, 0.00000000
1, 0.0149, 3, -0.08111572, -0.98852539, 0.22277832, 8.20039272, 5.34734488, 3.14836097, -34.55130005, 6.02163124, -50.97924423, 110.36042023, -22.70909309, 83.92385101, 0.30820674, -0.67366976, -0.45458212, -0.49450251, -0.30484325, 0.12359721, 0.09805647, 100.27700806, 87.60468292, 28.79999924, 0.00000000
1, 0.0051, 1, -0.22187102, -0.93293858, 0.20563917, 4.70471382, -23.12137985, 16.89702034, -34.49283981, 9.90938282, -57.35165024, 101.93843842, -10.21360683, -0.97133678, -0.62780195, 0.77322114, -0.06261098, 0.06382641, 0.04428788, -0.03035170, -0.00432121, 100.35700226, 80.89166260, 28.82999992, 0.00000000
1, 0.0101, 2, -0.25342131, -0.95324910, 0.20722415, 3.71470499, -23.77410126, 16.15796852, -34.49283981, 9.90938282, -57.35165024, 101.98122406, -10.26818371, -1.10642135, -0.62756479, 0.77334529, -0.06379713, 0.06347886, 0.07487331, -0.00971780, -0.00531556, 100.35700226, 80.89166260, 28.82999992, 0.00000000
1, 0.0151, 3, -0.26722130, -0.95702100, 0.22845612, 2.95195413, -22.93010330, 14.08466625, -34.87284470, 10.17246437, -57.14703369, 102.01915741, -10.31340218, -1.23519504, -0.62736070, 0.77345061, -0.06489233, 0.06310067, 0.08779646, -0.00569552, -0.02596331, 100.35700226, 80.89166260, 28.82999992, 0.00000000
1, 0.0199, 4, -0.07482910, -0.98602295, 0.22601318, 8.20039272, 4.54234505, 2.69336104, -34.55130005, 6.02163124, -50.97924423, 110.39447021, -22.72962189, 83.94184113, 0.30781746, -0.67373544, -0.45474091, -0.49450952, -0.31147408, 0.12142195, 0.09528869, 100.27700806, 87.60468292, 28.79999924, 0.00000000
1, 0.0249, 5, -0.07147217, -0.97888184, 0.22485352, 8.30539322, 3.66734457, 2.30836105, -34.55130005, 6.02163124, -50.97924423, 110.43048859, -22.74683762, 83.95610809, 0.30745071, -0.67381370, -0.45490149, -0.49448353, -0.31512240, 0.11459282, 0.09693703, 100.27700806, 87.60468292, 28.79999924, 0.00000000
1, 0.0299, 6, -0.07354736, -0.97467041, 0.22497559, 8.44539356, 2.37234402, 1.81836069, -34.55130005, 6.37240553, -50.57000732, 110.46938324, -22.75949860, 83.96472168, 0.30711603, -0.67391181, -0.45506200, -0.49440998, -0.31327021, 0.11068314, 0.09735687, 100.27700806, 87.60468292, 28.79999924, 0.00000000
1, 0.0201, 4, -0.26194316, -0.94560146, 0.24330468, 3.00955772, -22.22389412, 12.24300003, -34.87284470, 10.17246437, -57.14703369, 102.05648041, -10.35025501, -1.35856426, -0.62716115, 0.77355981, -0.06590582, 0.06269585, 0.08182103, -0.01688886, -0.04018150, 100.35700226, 80.89166260, 28.82999992, 0.00000000
1, 0.0251, 5, -0.32443905, -0.94536126, 0.25590771, 3.29405332, -22.37872124, 11.53464508, -34.40514374, 10.43554497, -57.00087738, 102.09532166, -10.38340569, -1.48200297, -0.62695259, 0.77367818, -0.06689888, 0.06226708, 0.14370275, -0.01690696, -0.05231369, 100.35700226, 80.89166260, 28.82999992, 0.00000000
1, 0.0901, 6, -0.47065082, -0.95854473, 0.20273291, 9.20718288, -4.49399233, -10.37247467, -33.87898254, 10.58170128, -56.73779678, 102.62078857, -10.26437378, -2.26988363, -0.62385619, 0.77615440, -0.07130510, 0.05747704, 0.29170415, -0.00201021, 0.00931740, 100.35700226, 80.89166260, 28.82999992, 0.00000000
1, 0.0951, 7, -0.44156054, -0.95373237, 0.23444179, 9.56140232, -1.86711264, -12.31234550, -33.87898254, 10.58170128, -56.73779678, 102.66763306, -10.20213795, -2.26552296, -0.62355852, 0.77645659, -0.07091489, 0.05710705, 0.26357603, -0.00688134, -0.02148115, 100.35700226, 80.89166260, 28.82999992, 0.00000000
1, 0.0349, 7, -0.07061768, -0.97674561, 0.23431396, 8.51539230, 0.55234337, 1.57336068, -34.55130005, 6.37240553, -50.57000732, 110.51203156, -22.76783752, 83.96453857, 0.30682075, -0.67404521, -0.45520681, -0.49427819, -0.31635356, 0.11305262, 0.08862196, 100.27700806, 87.60468292, 28.79999924, 0.00000000
1, 0.0399, 8, -0.06860352, -0.97094727, 0.23907471, 8.30539322, -2.07265759, 1.11836040, -34.40514374, 5.37854433, -50.71616364, 110.55845642, -22.76943970, 83.95188141, 0.30659348, -0.67422324, -0.45532522, -0.49406716, -0.31843388, 0.10753722, 0.08453782, 100.27700806, 87.60468292, 28.79999924, 0.00000000
1, 0.2149, 9, -0.39007568, -0.97692871, 0.37457275, 16.49539757, 0.06234324, 16.44836617, -31.68664169, 7.27857351, -50.13153839, 114.38287354, -21.54682541, 79.76242065, 0.30772427, -0.69854206, -0.45169675, -0.46186015, 0.02313021, 0.12949976, 0.00911325, 100.27700806, 87.60468292, 28.79999924, 0.00000000
1, 0.2199, 10, -0.38031006, -0.96197510, 0.36621094, 16.63539696, 0.58734345, 17.70836830, -31.68664169, 7.27857351, -50.13153839, 114.47948456, -21.62865448, 79.72590637, 0.30684865, -0.69910228, -0.45149988, -0.46178773, 0.01206106, 0.11565909, 0.01868071, 100.27700806, 87.60468292, 28.79999924, 0.00000000
1, 0.2249, 11, -0.35034180, -0.95812988, 0.36907959, 15.23539448, 2.93234420, 19.66836548, -32.12511063, 7.74627304, -49.75153351, 114.56658936, -21.72421455, 79.69633484, 0.30592966, -0.69963425, -0.45124584, -0.46184006, -0.01940576, 0.11295976, 0.01689166, 100.27700806, 87.60468292, 28.79999924, 0.00000000
1, 0.2299, 12, -0.31488037, -0.96081543, 0.36755371, 14.85039330, 5.27734470, 20.47336578, -32.12511063, 7.74627304, -49.75153351, 114.64827728, -21.82827187, 79.67626190, 0.30495965, -0.70012879, -0.45099020, -0.46198174, -0.05651638, 0.11680363, 0.01936786, 100.27700806, 87.60468292, 28.79999924, 0.00000000
1, 0.2349, 13, -0.26574707, -0.96282959, 0.37530518, 14.36039543, 7.90234566, 21.03336906, -32.12511063, 7.74627304, -49.75153351, 114.72329712, -21.94032669, 79.66761017, 0.30394128, -0.70057404, -0.45074195, -0.46222010, -0.10743215, 0.11998375, 0.01244214, 100.27700806, 87.60468292, 28.79999924, 0.00000000
1, 0.1001, 8, -0.42280462, -0.95075119, 0.24974702, 9.74921989, -0.11954398, -13.95558643, -33.70359421, 10.78631973, -56.70856476, 102.71358490, -10.13379955, -2.25062752, -0.62326348, 0.77676427, -0.07042095, 0.05675197, 0.24593265, -0.00991459, -0.03591286, 100.35700226, 80.89166260, 28.82999992, 0.00000000
1, 0.1051, 9, -0.40913317, -0.95494211, 0.24075001, 10.01193619, 1.40979600, -15.18435860, -33.70359421, 10.78631973, -56.70856476, 102.75927734, -10.06113720, -2.22673583, -0.62296718, 0.77707863, -0.06984299, 0.05641583, 0.23351440, -0.00575080, -0.02607707, 100.35700226, 80.89166260, 28.82999992, 0.00000000
1, 0.1101, 10, -0.37619770, -0.96276820, 0.22481389, 10.58362579, 3.97457409, -15.90164948, -33.90821457, 8.68167210, -56.79625702, 102.80548096, -9.98780823, -2.18928123, -0.62266064, 0.77740383, -0.06916939, 0.05614871, 0.20188087, 0.00205864, -0.00925007, 100.35700226, 80.89166260, 28.82999992, 0.00000000
1, 0.1151, 11, -0.27775875, -0.96484184, 0.21576153, 11.64063740, 7.65099573, -16.31820679, -33.90821457, 8.68167210, -56.79625702, 102.85377502, -9.91651058, -2.13309932, -0.62232995, 0.77774936, -0.06837881, 0.05599783, 0.10469950, 0.00411635, 0.00088676, 100.35700226, 80.89166260, 28.82999992, 0.00000000
1, 0.1201, 12, -0.18033728, -0.97473192, 0.24458484, 13.11490822, 9.26633835, -16.33352470, -33.90821457, 8.68167210, -56.79625702, 102.90812683, -9.84696960, -2.06885624, -0.62195355, 0.77813035, -0.06754009, 0.05590557, 0.00841027, 0.01395679, -0.02677705, 100.35700226, 80.89166260, 28.82999992, 0.00000000
1, 0.1251, 13, -0.09257903, -0.98488975, 0.28254661, 13.46778107, 12.31320190, -16.89633179, -33.82051849, 10.61093235, -56.76702499, 102.96161652, -9.77812481, -1.98884332, -0.62157494, 0.77851421, -0.06659842, 0.05590227, -0.07825556, 0.02406098, -0.06358106, 100.35700226, 80.89166260, 28.82999992, 0.00000000
1, 0.2399, 14, -0.20629883, -0.97851563, 0.38000488, 14.08039570, 10.35234737, 21.31336594, -31.97895241, 7.65857935, -50.13153839, 114.79274750, -22.05877876, 79.67016602, 0.30287719, -0.70097065, -0.45051134, -0.46254194, -0.16877057, 0.13684744, 0.00847578, 100.27700806, 87.60468292, 28.79999924, 0.00000000
1, 0.2449, 15, -0.13287354, -0.99548340, 0.37475586, 13.31039524, 12.97734642, 21.31336594, -31.97895241, 7.65857935, -50.13153839, 114.85353851, -22.18274117, 79.68544769, 0.30178463, -0.70130312, -0.45029929, -0.46295860, -0.24418411, 0.15497202, 0.01430466, 100.27700806, 87.60468292, 28.79999924, 0.00000000
1, 0.2499, 16, -0.06878662, -1.00555420, 0.36547852, 12.89039516, 14.27234936, 21.06836700, -32.73896408, 8.33089733, -49.89768982, 114.90963745, -22.30832863, 79.70750427, 0.30068392, -0.70159793, -0.45010251, -0.46341908, -0.31029695, 0.16618194, 0.02407167, 100.27700806, 87.60468292, 28.79999924, 0.00000000
1, 0.1301, 14, 0.00657636, -0.98746276, 0.29152361, 12.90066051, 12.13575935, -16.96344566, -33.82051849, 10.61093235, -56.76702499, 103.01896667, -9.68947029, -1.91073072, -0.62117767, 0.77892971, -0.06556066, 0.05575506, -0.17608000, 0.02660254, -0.07135214, 100.35700226, 80.89166260, 28.82999992, 0.00000000
1, 0.1351, 15, 0.02601862, -0.98339701, 0.28048423, 11.69640923, 6.07407188, -15.90082455, -33.55743790, 10.26015759, -56.18240356, 103.06919098, -9.61865425, -1.86260474, -0.62083727, 0.77927625, -0.06482663, 0.05556189, -0.19411620, 0.02253493, -0.05930098, 100.35700226, 80.89166260, 28.82999992, 0.00000000
1, 0.2549, 17, -0.02697754, -1.00488281, 0.35754395, 11.31539345, 14.41234779, 20.47336960, -32.73896408, 8.33089733, -49.89768982, 114.95708466, -22.43153381, 79.73150635, 0.29964030, -0.70185655, -0.44989339, -0.46390638, -0.35410839, 0.16659510, 0.03238782, 100.27700806, 87.60468292, 28.79999924, 0.00000000
1, 0.2599, 18, 0.02124023, -1.00122070, 0.34338379, 11.10539436, 14.83234787, 19.80836868, -32.73896408, 8.33089733, -49.89768982, 115.00209045, -22.55263138, 79.75898743, 0.29860786, -0.70208991, -0.44970512, -0.46440125, -0.40428412, 0.16397431, 0.04686707, 100.27700806, 87.60468292, 28.79999924, 0.00000000
1, 0.3849, 19, -0.13018799, -0.96972656, 0.30975342, -1.31961024, 24.91235161, -4.48164129, -34.87284470, 8.33089733, -49.28383636, 113.29573059, -24.54901505, 84.64601135, 0.27762815, -0.68217301, -0.46314570, -0.49300981, -0.28516927, 0.13432148, 0.05021404, 100.27700806, 87.60468292, 28.79999924, 0.00000000
1, 0.3899, 20, -0.13476563, -0.95941162, 0.30010986, -1.14461017, 22.42735100, -3.85164094, -34.87284470, 8.33089733, -49.28383636, 113.23945618, -24.57562256, 84.76763153, 0.27729172, -0.68159860, -0.46350715, -0.49365360, -0.28102648, 0.12382603, 0.05893549, 100.27700806, 87.60468292, 28.79999924, 0.00000000
1, 0.2151, 16, 0.08725605, -0.98441315, 0.30115885, -1.33098960, 10.17383194, 11.98385048, -34.17129517, 10.87401295, -56.82548904, 103.43302917, -9.61985111, -0.97056383, -0.61790651, 0.78172237, -0.05857282, 0.06058752, -0.25481105, 0.02491610, -0.07344339, 100.35700226, 80.89166260, 28.82999992, 0.00000000
1, 0.2201, 17, 0.06031759, -0.97852123, 0.24553864, -1.74925101, 9.75627422, 13.27615356, -34.17129517, 10.87401295, -56.82548904, 103.41897583, -9.69570827, -0.93793929, -0.61795485, 0.78161621, -0.05876608, 0.06127428, -0.22901309, 0.01927072, -0.01816558, 100.35700226, 80.89166260, 28.82999992, 0.00000000
1, 0.2251, 18, 0.02677688, -0.98542035, 0.22747098, -1.29142320, 10.42570686, 14.58321190, -34.25898743, 10.99093819, -56.82548904, 103.40686798, -9.77868557, -0.90352440, -0.61798537, 0.78151673, -0.05898457, 0.06202019, -0.19682631, 0.02638190, -0.00045914, 100.35700226, 80.89166260, 28.82999992, 0.00000000
1, 0.2301, 19, 0.00063031, -0.98300397, 0.23896459, -1.53825903, 10.46975231, 15.56886387, -34.25898743, 10.99093819, -56.82548904, 103.39500427, -9.84139061, -0.87023294, -0.61802256, 0.78143060, -0.05910160, 0.06262171, -0.17198056, 0.02411214, -0.01226741, 100.35700226, 80.89166260, 28.82999992, 0.00000000
1, 0.2351, 20, -0.02537921, -0.97064900, 0.24433695, -1.37505817, 9.04530239, 16.93492508, -34.46360779, 7.71704149, -56.09470749, 103.38405609, -9.93421459, -0.84532845, -0.61804491, 0.78132588, -0.05943761, 0.06338396, -0.14734644, 0.01193515, -0.01792309, 100.35700226, 80.89166260, 28.82999992, 0.00000000
1, 0.3949, 21, -0.14428711, -0.95373535, 0.30218506, 0.08039031, 20.29235077, -3.11664104, -34.87284470, 8.33089733, -49.28383636, 113.19438934, -24.60129929, 84.87692261, 0.27694595, -0.68109924, -0.46384689, -0.49421754, -0.27191001, 0.11801994, 0.05608819, 100.27700806, 87.60468292, 28.79999924, 0.00000000
1, 0.3999, 22, -0.15081787, -0.94866943, 0.34179688, 0.53539050, 18.50734901, -2.27664065, -36.21747971, 8.30166626, -49.54691696, 113.15603638, -24.62725258, 84.97541809, 0.27660444, -0.68066031, -0.46414956, -0.49472898, -0.26579219, 0.11288226, 0.01582835, 100.27700806, 87.60468292, 28.79999924, 0.00000000
1, 0.4049, 23, -0.14807129, -0.93402100, 0.34136963, -0.47960991, 16.82734871, -1.05164027, -36.21747971, 8.30166626, -49.54691696, 113.11720276, -24.65547943, 85.06281281, 0.27630049, -0.68026984, -0.46437338, -0.49522564, -0.26897657, 0.09817825, 0.01561503, 100.27700806, 87.60468292, 28.79999924, 0.00000000
1, 0.2401, 21, -0.05085143, -0.97177351, 0.22726826, -1.41675603, 6.89047003, 18.18101883, -34.46360779, 7.71704149, -56.09470749, 103.37498474, -10.03061962, -0.83249694, -0.61805910, 0.78122246, -0.05987429, 0.06410638, -0.12347499, 0.01333035, -0.00114648, 100.35700226, 80.89166260, 28.82999992, 0.00000000
1, 0.2451, 22, -0.07987987, -0.96863973, 0.20361353, -1.45950282, 4.77545023, 19.21776962, -34.46360779, 7.71704149, -56.09470749, 103.36771393, -10.12964344, -0.83131653, -0.61806577, 0.78112042, -0.06040356, 0.06478467, -0.09607689, 0.01049504, 0.02223884, 100.35700226, 80.89166260, 28.82999992, 0.00000000
1, 0.2501, 23, -0.13732138, -0.96389616, 0.18621974, -0.70325571, 4.17200089, 19.96490860, -34.52206802, 11.45863724, -56.09470749, 103.36491394, -10.23159313, -0.83396846, -0.61804259, 0.78103805, -0.06097221, 0.06546451, -0.04033095, 0.00606812, 0.03936325, 100.35700226, 80.89166260, 28.82999992, 0.00000000
1, 0.4099, 24, -0.16162109, -0.91625977, 0.34039307, -0.82960993, 13.99234867, 0.94336045, -35.66208649, 8.56474686, -49.83922958, 113.08435059, -24.68727112, 85.13157654, 0.27602118, -0.67997652, -0.46449602, -0.49566904, -0.25591427, 0.08040498, 0.01599287, 100.27700806, 87.60468292, 28.79999924, 0.00000000
1, 0.4149, 25, -0.16839600, -0.92657471, 0.33795166, -0.51460993, 12.38234711, 1.95836079, -35.66208649, 8.56474686, -49.83922958, 113.05734253, -24.72053909, 85.19006348, 0.27574310, -0.67974210, -0.46457589, -0.49607038, -0.24966280, 0.09076475, 0.01792552, 100.27700806, 87.60468292, 28.79999924, 0.00000000
1, 0.4199, 26, -0.18774414, -0.91461182, 0.34741211, 0.01039031, 10.07234669, 3.11336112, -35.66208649, 8.56474686, -49.83922958, 113.03884888, -24.75457954, 85.23437500, 0.27547118, -0.67958719, -0.46460488, -0.49640629, -0.23085253, 0.07890129, 0.00806620, 100.27700806, 87.60468292, 28.79999924, 0.00000000
1, 0.2551, 24, -0.16369823, -0.96567166, 0.19015931, -0.46185160, 4.83224916, 20.11778069, -34.52206802, 11.45863724, -56.09470749, 103.36277771, -10.33504963, -0.83353627, -0.61801177, 0.78095913, -0.06152754, 0.06617153, -0.01573694, 0.00814070, 0.03524494, 100.35700226, 80.89166260, 28.82999992, 0.00000000
1, 0.2601, 25, -0.19414128, -0.95438099, 0.21453877, -0.47189930, 5.69913387, 20.27877998, -34.55130005, 11.16632557, -56.27009583, 103.35984802, -10.44028854, -0.82899743, -0.61798280, 0.78087646, -0.06206492, 0.06691235, 0.01284501, -0.00288098, 0.01068459, 100.35700226, 80.89166260, 28.82999992, 0.00000000
1, 0.3351, 26, -0.24337709, -0.92766464, 0.23873897, -1.90979838, 3.38504148, 17.47280502, -35.10669327, 10.37708282, -56.56240845, 103.31007385, -11.94657421, -0.83482170, -0.61760479, 0.77954030, -0.07024216, 0.07711961, 0.03615635, -0.02485685, -0.01556942, 100.35700226, 80.89166260, 28.82999992, 0.00000000
1, 0.3401, 27, -0.23024268, -0.91440880, 0.22942100, -1.41150200, 3.32319355, 17.32477760, -35.10669327, 10.37708282, -56.56240845, 103.30400085, -12.03472233, -0.83853626, -0.61760306, 0.77943879, -0.07074568, 0.07769620, 0.02154063, -0.03781651, -0.00639562, 100.35700226, 80.89166260, 28.82999992, 0.00000000
1, 0.4249, 27, -0.19470215, -0.93151855, 0.35040283, -0.02460969, 7.93734598, 3.95336127, -36.33440399, 8.06781673, -48.87459564, 113.02544403, -24.78829765, 85.26608276, 0.27522534, -0.67949510, -0.46458253, -0.49668965, -0.22443122, 0.09594535, 0.00476565, 100.27700806, 87.60468292, 28.79999924, 0.00000000
1, 0.4299, 28, -0.21539307, -0.93139648, 0.36364746, -0.02460969, 6.18734550, 4.61836100, -36.33440399, 8.06781673, -48.87459564, 113.01633453, -24.82164955, 85.28749847, 0.27500051, -0.67945427, -0.46451932, -0.49692899, -0.20426752, 0.09598581, -0.00871936, 100.27700806, 87.60468292, 28.79999924, 0.00000000
1, 0.3451, 28, -0.22914420, -0.92731380, 0.24295118, -1.15000093, 2.28114510, 17.29661179, -35.10669327, 10.37708282, -56.56240845, 103.30031586, -12.12153244, -0.84738785, -0.61758906, 0.77934748, -0.07127535, 0.07823738, 0.01891820, -0.02463859, -0.02007868, 100.35700226, 80.89166260, 28.82999992, 0.00000000
1, 0.3501, 29, -0.23494977, -0.92812669, 0.22418366, -1.67046130, 1.22879350, 17.41836166, -35.69131851, 10.69862556, -56.94241333, 103.29518890, -12.20774460, -0.86162019, -0.61758864, 0.77924496, -0.07183935, 0.07874449, 0.02329833, -0.02350594, -0.00148159, 100.35700226, 80.89166260, 28.82999992, 0.00000000
1, 0.3551, 30, -0.22873293, -0.92405140, 0.22673447, -1.56796014, 1.57783198, 17.42537689, -35.69131851, 10.69862556, -56.94241333, 103.29022217, -12.29439163, -0.87412184, -0.61758542, 0.77914351, -0.07239380, 0.07926393, 0.01559915, -0.02729358, -0.00416640, 100.35700226, 80.89166260, 28.82999992, 0.00000000
1, 0.4799, 29, -0.18908691, -0.94409180, 0.31384277, 0.36039042, 6.95734596, 12.14336491, -36.30517197, 8.33089733, -50.24846649, 112.93753052, -25.36137772, 85.39100647, 0.27200431, -0.67994082, -0.46234602, -0.49993044, -0.23895909, 0.11179562, 0.03837806, 100.27700806, 87.60468292, 28.79999924, 0.00000000
1, 0.4849, 30, -0.18383789, -0.95404053, 0.31530762, 0.53539050, 7.16734600, 12.66836452, -37.00672150, 8.21397209, -50.45308304, 112.93626404, -25.43367767, 85.40021515, 0.27156743, -0.68004626, -0.46206680, -0.50028253, -0.24533793, 0.12223174, 0.03668985, 100.27700806, 87.60468292, 28.79999924, 0.00000000
1, 0.4899, 31, -0.17364502, -0.96752930, 0.32055664, 0.29039040, 6.29234552, 13.19336510, -37.00672150, 8.21397209, -50.45308304, 112.93615723, -25.50668716, 85.40382385, 0.27114391, -0.68017823, -0.46175608, -0.50061959, -0.25667953, 0.13622399, 0.03122753, 100.27700806, 87.60468292, 28.79999924, 0.00000000
1, 0.4949, 32, -0.14825439, -0.93371582, 0.29711914, 0.04539032, 5.94234514, 13.12336445, -37.00672150, 8.21397209, -50.45308304, 112.93553162, -25.57870674, 85.40579987, 0.27073610, -0.68031329, -0.46143776, -0.50095022, -0.28321719, 0.10290699, 0.05443320, 100.27700806, 87.60468292, 28.79999924, 0.00000000
1, 0.4999, 33, -0.14190674, -0.93750000, 0.31457520, 1.65539086, 5.76734543, 13.29836369, -37.00672150, 8.65244102, -50.01461411, 112.94350433, -25.65117645, 85.40650177, 0.27028009, -0.68047440, -0.46114719, -0.50124502, -0.29069832, 0.10722685, 0.03684938, 100.27700806, 87.60468292, 28.79999924, 0.00000000
1, 0.3601, 31, -0.21414447, -0.92596209, 0.25617117, -1.25239587, 1.96274507, 17.46558762, -35.19438553, 10.96170712, -56.76702499, 103.28643799, -12.38166809, -0.88474852, -0.61757225, 0.77904862, -0.07293806, 0.07979842, -0.00054494, -0.02513282, -0.03371473, 100.35700226, 80.89166260, 28.82999992, 0.00000000
1, 0.3651, 32, -0.21537896, -0.93118322, 0.27259481, -0.74142754, 0.98168880, 17.89137650, -35.19438553, 10.96170712, -56.76702499, 103.28639984, -12.46988964, -0.90076482, -0.61753672, 0.77896923, -0.07352140, 0.08031264, -0.00085360, -0.01962006, -0.05023921, 100.35700226, 80.89166260, 28.82999992, 0.00000000
1, 0.3701, 33, -0.21338028, -0.90868235, 0.23859072, -1.70013130, -2.15496898, 17.61850548, -35.19438553, 10.96170712, -56.76702499, 103.28491211, -12.55321789, -0.93210298, -0.61752421, 0.77887523, -0.07418352, 0.08070999, -0.00420476, -0.04175962, -0.01628481, 100.35700226, 80.89166260, 28.82999992, 0.00000000
1, 0.3751, 34, -0.21394347, -0.95099902, 0.24376847, -0.54518318, -0.39095372, 18.55720520, -35.80824280, 11.04940033, -56.00701523, 103.28759766, -12.64310741, -0.95575160, -0.61747432, 0.77880287, -0.07482563, 0.08119613, -0.00515666, 0.00088199, -0.02157837, 100.35700226, 80.89166260, 28.82999992, 0.00000000
1, 0.3801, 35, -0.19913927, -0.93399906, 0.24843003, -1.91509736, 1.12943470, 18.57583237, -35.80824280, 11.04940033, -56.00701523, 103.28694153, -12.72971439, -0.97302449, -0.61744416, 0.77871859, -0.07540905, 0.08169208, -0.02148481, -0.01579973, -0.02627414, 100.35700226, 80.89166260, 28.82999992, 0.00000000
1, 0.5049, 34, -0.14715576, -0.94299316, 0.31127930, 2.00539088, 5.31234503, 13.54336452, -37.00672150, 8.65244102, -50.01461411, 112.95446777, -25.72389412, 85.40435028, 0.26981735, -0.68065423, -0.46085149, -0.50152200, -0.28659353, 0.11328979, 0.04008060, 100.28600311, 86.84960938, 28.76000023, 0.00000000
1, 0.5099, 35, -0.13500977, -0.94091797, 0.31121826, 2.25039101, 5.48734522, 13.68336487, -36.86056519, 8.36012840, -49.75153351, 112.96640778, -25.79759407, 85.40277863, 0.26934069, -0.68083566, -0.46055892, -0.50180078, -0.29989225, 0.11179817, 0.04009409, 100.28600311, 86.84960938, 28.76000023, 0.00000000
1, 0.5149, 36, -0.12377930, -0.93963623, 0.30944824, 2.70539117, 4.68234491, 13.85836506, -36.86056519, 8.36012840, -49.75153351, 112.98258972, -25.87053108, 85.39668274, 0.26886272, -0.68104321, -0.46026137, -0.50204825, -0.31227428, 0.11112142, 0.04186435, 100.28600311, 86.84960938, 28.76000023, 0.00000000
1, 0.5199, 37, -0.10961914, -0.94714355, 0.32702637, 2.56539106, 5.17234468, 14.13836479, -36.86056519, 8.36012840, -49.75153351, 112.99726105, -25.94570923, 85.39245605, 0.26837283, -0.68124378, -0.45995799, -0.50231624, -0.32760501, 0.11924566, 0.02428548, 100.28600311, 86.84960938, 28.76000023, 0.00000000
1, 0.4851, 36, -0.20435539, -0.91540182, 0.22907299, -4.52940989, -3.78444004, 29.42826462, -36.83133698, 11.54633141, -56.47471619, 103.18762970, -15.12400913, -2.03896809, -0.61756718, 0.77523357, -0.09556200, 0.09215102, -0.05653971, -0.02502673, -0.01077334, 100.35700226, 80.89166260, 28.82999992, 0.00000000
1, 0.4901, 37, -0.23031473, -0.92522323, 0.20217502, -5.22370148, -5.05890560, 30.03766823, -36.83133698, 11.54633141, -56.47471619, 103.17781830, -15.26463413, -2.09975672, -0.61759901, 0.77498883, -0.09673437, 0.09276999, -0.03287535, -0.01457391, 0.01574512, 100.35700226, 80.89166260, 28.82999992, 0.00000000
1, 0.4951, 38, -0.24653548, -0.92859304, 0.19383956, -5.15654850, -4.61743402, 30.53806496, -37.88365936, 11.69248772, -56.53317642, 103.16806030, -15.40820313, -2.15892935, -0.61762726, 0.77474076, -0.09791136, 0.09341747, -0.01903609, -0.01058812, 0.02372473, 100.35700226, 80.89166260, 28.82999992, 0.00000000
1, 0.5001, 39, -0.24517089, -0.93593919, 0.21373582, -4.72594738, -1.90573502, 30.91269112, -37.88365936, 11.69248772, -56.53317642, 103.15707397, -15.55666924, -2.20484209, -0.61764979, 0.77449012, -0.09902573, 0.09416829, -0.02292638, -0.00264896, 0.00349012, 100.35700226, 80.89166260, 28.82999992, 0.00000000
1, 0.5051, 40, -0.22337417, -0.94719625, 0.22850610, -4.71718168, 0.32234696, 30.96568680, -37.88365936, 11.69248772, -56.53317642, 103.14321899, -15.70791912, -2.23955131, -0.61768049, 0.77422899, -0.10008152, 0.09499557, -0.04729464, 0.00922299, -0.01161800, 100.35700226, 80.89166260, 28.82999992, 0.00000000
1, 0.5249, 38, -0.09594727, -0.94812012, 0.31719971, 2.63539124, 3.84234428, 14.06836510, -37.09441757, 8.27243519, -49.54691696, 113.01522827, -26.01796341, 85.38153839, 0.26790899, -0.68147266, -0.45964247, -0.50254214, -0.34242159, 0.12084174, 0.03414495, 100.28600311, 86.84960938, 28.76000023, 0.00000000
1, 0.6099, 39, -0.14312744, -0.93463135, 0.28485107, -0.47960985, -7.56765938, 20.36836624, -37.15287781, 8.47705364, -48.87459564, 113.50109863, -27.27630424, 84.53173065, 0.26168510, -0.68838239, -0.45093536, -0.50428951, -0.31484690, 0.11934426, 0.06950225, 100.28600311, 86.84960938, 28.76000023, 0.00000000
1, 0.6149, 40, -0.15527344, -0.93878174, 0.28826904, -0.05960973, -7.35765886, 20.85836601, -37.15287781, 8.47705364, -48.87459564, 113.53971863, -27.35725021, 84.44692230, 0.26137260, -0.68895376, -0.45022333, -0.50430763, -0.30394715, 0.12432189, 0.06637380, 100.28600311, 86.84960938, 28.76000023, 0.00000000
1, 0.6199, 41, -0.14678955, -0.94647217, 0.28833008, 0.01039028, -7.21765900, 21.20836830, -37.35749817, 8.41859055, -49.40076065, 113.57889557, -27.44003296, 84.36191559, 0.26104724, -0.68952900, -0.44950342, -0.50433207, -0.31370902, 0.13285977, 0.06660044, 100.28600311, 86.84960938, 28.76000023, 0.00000000
1, 0.6249, 42, -0.15039063, -0.94799805, 0.30676270, -0.61960989, -6.58765888, 21.69836807, -37.35749817, 8.41859055, -49.40076065, 113.61408997, -27.52626991, 84.27893829, 0.26071748, -0.69009215, -0.44876164, -0.50439286, -0.31142616, 0.13524114, 0.04841504, 100.28600311, 86.84960938, 28.76000023, 0.00000000
1, 0.6299, 43, -0.14898682, -0.94781494, 0.28680420, 0.08039029, -4.94265842, 22.08336830, -37.35749817, 8.41859055, -49.40076065, 113.64942932, -27.61752701, 84.20344543, 0.26032570, -0.69063395, -0.44804201, -0.50449342, -0.31421494, 0.13593414, 0.06857409, 100.28600311, 86.84960938, 28.76000023, 0.00000000
1, 0.6349, 44, -0.13745117, -0.95794678, 0.31231689, 1.23539066, -3.54265785, 22.99336815, -37.50365448, 8.18474102, -49.16690826, 113.68830872, -27.71570778, 84.13301849, 0.25985146, -0.69117516, -0.44733584, -0.50462341, -0.32724804, 0.14702594, 0.04329781, 100.28600311, 86.84960938, 28.76000023, 0.00000000
1, 0.5101, 41, -0.20590562, -0.95312631, 0.24230267, -5.13576889, -0.31301674, 31.16617966, -37.44519043, 11.75094986, -56.79625702, 103.12829590, -15.85943794, -2.27768636, -0.61772037, 0.77395684, -0.10116269, 0.09580489, -0.06734352, 0.01577231, -0.02578935, 100.35700226, 80.89166260, 28.82999992, 0.00000000
1, 0.5151, 42, -0.21936767, -0.95986819, 0.24124162, -5.22109795, -1.99479973, 31.54780769, -37.44519043, 11.75094986, -56.79625702, 103.11550903, -16.01093864, -2.32479763, -0.61775297, 0.77368617, -0.10230251, 0.09656721, -0.05641981, 0.02317115, -0.02515008, 100.35700226, 80.89166260, 28.82999992, 0.00000000
1, 0.5201, 43, -0.22636899, -0.95468092, 0.23984876, -5.63290691, -0.19739886, 31.98146439, -37.59134674, 8.65244102, -57.03010941, 103.09841156, -16.16658211, -2.36328959, -0.61780441, 0.77339351, -0.10340983, 0.09739985, -0.05200679, 0.01865166, -0.02419514, 100.35700226, 80.89166260, 28.82999992, 0.00000000
1, 0.6399, 45, -0.12890625, -0.96319580, 0.31158447, 1.55039096, -3.12265801, 23.41336823, -37.50365448, 8.18474102, -49.16690826, 113.72837830, -27.81661224, 84.06365967, 0.25935000, -0.69171816, -0.44662821, -0.50476414, -0.33734745, 0.15326539, 0.04425247, 100.28600311, 86.84960938, 28.76000023, 0.00000000
1, 0.6449, 46, -0.14105225, -0.97473145, 0.32708740, 1.90039110, -3.43765807, 23.30836868, -37.85442734, 8.53551579, -49.57614517, 113.77101135, -27.91636658, 83.99277496, 0.25884613, -0.69226921, -0.44592744, -0.50488687, -0.32674679, 0.16580981, 0.02901587, 100.28600311, 86.84960938, 28.76000023, 0.00000000
1, 0.5251, 44, -0.21194157, -0.94616175, 0.26530105, -5.34913158, -0.00019153, 32.57844162, -37.59134674, 8.65244102, -57.03010941, 103.08273315, -16.32537079, -2.40145350, -0.61784333, 0.77310330, -0.10453047, 0.09825639, -0.06914522, 0.01077725, -0.05004360, 100.35700226, 80.89166260, 28.82999992, 0.00000000
1, 0.5301, 45, -0.23223944, -0.94841301, 0.26896816, -5.99665737, -2.15039945, 33.41174316, -37.59134674, 8.65244102, -57.03010941, 103.07167816, -16.48063087, -2.45279074, -0.61786413, 0.77282757, -0.10571700, 0.09902185, -0.05149803, 0.01373115, -0.05414192, 100.35700226, 80.89166260, 28.82999992, 0.00000000
1, 0.5751, 46, -0.28812313, -0.96310198, 0.20240524, -4.06960678, 3.60556602, 35.20691299, -38.87752151, 11.28325081, -56.27009583, 102.93151093, -17.99287033, -2.77729297, -0.61810225, 0.77002507, -0.11611256, 0.10737292, -0.02055440, 0.03557818, 0.00825235, 100.35700226, 80.89166260, 28.82999992, 0.00000000
1, 0.5801, 47, -0.26864207, -0.96264338, 0.18977563, -4.70659494, 3.35453486, 35.27914047, -38.87752151, 11.28325081, -56.27009583, 102.91273499, -18.16308022, -2.80031180, -0.61813265, 0.76969558, -0.11719415, 0.10838024, -0.04287444, 0.03598849, 0.02044854, 100.35700226, 80.89166260, 28.82999992, 0.00000000
1, 0.7099, 47, -0.19366455, -0.97485352, 0.29449463, 0.64039052, 5.03234529, 29.11837006, -38.61444092, 8.27243519, -49.10844803, 114.25159454, -29.44631577, 83.17362976, 0.25097629, -0.69911677, -0.43597823, -0.50810409, -0.29740208, 0.18056995, 0.06322984, 100.28600311, 86.84960938, 28.76000023, 0.00000000
1, 0.7149, 48, -0.20410156, -0.97351074, 0.28228760, 0.92039061, 5.73234510, 29.43337250, -38.61444092, 8.27243519, -49.10844803, 114.27562714, -29.59226227, 83.13417053, 0.25018641, -0.69955897, -0.43516317, -0.50858337, -0.28916264, 0.18051106, 0.07526186, 100.28600311, 86.84960938, 28.76000023, 0.00000000
1, 0.5851, 48, -0.25793418, -0.94484830, 0.20230269, -4.20891809, 3.54947186, 36.04859543, -38.78982544, 11.69248772, -56.97164536, 102.89962006, -18.34281540, -2.82419109, -0.61811811, 0.76938218, -0.11832692, 0.10945258, -0.05652019, 0.01904823, 0.00751679, 100.35700226, 80.89166260, 28.82999992, 0.00000000
1, 0.5901, 49, -0.27013266, -0.95603025, 0.19944866, -3.95819020, 3.60045433, 36.92292404, -38.78982544, 11.69248772, -56.97164536, 102.88809967, -18.52687836, -2.84881020, -0.61808956, 0.76906884, -0.11948614, 0.11055133, -0.04734807, 0.03117277, 0.00989961, 100.35700226, 80.89166260, 28.82999992, 0.00000000
1, 0.5951, 50, -0.31069726, -0.97674978, 0.17438768, -4.23054361, 2.71435523, 37.46611023, -39.43291473, 11.86787510, -57.55627060, 102.87690735, -18.71261406, -2.87861228, -0.61806136, 0.76874733, -0.12068850, 0.11163330, -0.00979551, 0.05290032, 0.03442045, 100.35700226, 80.89166260, 28.82999992, 0.00000000
1, 0.7199, 49, -0.22155762, -0.97766113, 0.27526855, 1.27039075, 7.48234606, 29.57336998, -38.32212830, 8.56474686, -49.19614029, 114.29718781, -29.74242401, 83.10343170, 0.24934910, -0.69996768, -0.43437004, -0.50911009, -0.27397221, 0.18597257, 0.08205345, 100.28600311, 86.84960938, 28.76000023, 0.00000000
1, 0.7249, 50, -0.23205566, -0.99438477, 0.29016113, 1.58539093, 8.88234615, 29.74837303, -38.32212830, 8.56474686, -49.19614029, 114.31700134, -29.89626122, 83.07952881, 0.24847127, -0.70035070, -0.43359295, -0.50967449, -0.26578590, 0.20403281, 0.06690635, 100.28600311, 86.84960938, 28.76000023, 0.00000000
1, 0.7299, 51, -0.22448730, -0.98687744, 0.28747559, 1.02539063, 10.42234612, 29.92337036, -38.32212830, 8.56474686, -49.19614029, 114.33029938, -30.05405807, 83.06320190, 0.24757709, -0.70069551, -0.43281397, -0.51029754, -0.27573100, 0.19786251, 0.06922693, 100.28600311, 86.84960938, 28.76000023, 0.00000000
1, 0.6001, 51, -0.33491126, -0.97196651, 0.15737107, -4.28390265, 4.17767763, 37.43156433, -39.43291473, 11.86787510, -57.55627060, 102.86313629, -18.89981270, -2.90082812, -0.61804092, 0.76841563, -0.12185012, 0.11276287, 0.01137628, 0.04911819, 0.05094099, 100.35700226, 80.89166260, 28.82999992, 0.00000000
1, 0.6051, 52, -0.32483158, -0.95595121, 0.17278077, -3.90446615, 8.08340263, 37.37961578, -39.43291473, 11.86787510, -57.55627060, 102.84472656, -19.09105873, -2.90280938, -0.61802727, 0.76807302, -0.12290221, 0.11402340, -0.00187951, 0.03406486, 0.03506674, 100.35700226, 80.89166260, 28.82999992, 0.00000000
1, 0.6101, 53, -0.30582231, -0.96057808, 0.19352317, -3.67855144, 10.09452343, 37.84530640, -39.19906235, 11.80941200, -56.88395309, 102.82420349, -19.28680038, -2.89488435, -0.61801267, 0.76772177, -0.12391403, 0.11536469, -0.02414953, 0.03966984, 0.01379216, 100.35700226, 80.89166260, 28.82999992, 0.00000000
1, 0.7349, 52, -0.22351074, -0.99047852, 0.30749512, 0.36039042, 11.57734680, 29.99337196, -39.54983902, 8.94475269, -49.48845291, 114.33734131, -30.21454811, 83.05274963, 0.24667938, -0.70100731, -0.43202966, -0.51096821, -0.27912077, 0.20279434, 0.04875570, 100.28600311, 86.84960938, 28.76000023, 0.00000000
1, 0.7399, 53, -0.20312500, -0.98675537, 0.29119873, -0.33960986, 12.66234684, 29.71337128, -39.54983902, 8.94475269, -49.48845291, 114.33771515, -30.37600327, 83.04864502, 0.24578834, -0.70128071, -0.43124908, -0.51168120, -0.30193958, 0.20037389, 0.06448835, 100.28600311, 86.84960938, 28.76000023, 0.00000000
1, 0.7449, 54, -0.19885254, -0.97833252, 0.29180908, -0.09460974, 13.92234707, 29.64337349, -39.25752640, 8.24320412, -49.34229660, 114.33586121, -30.53973961, 83.05136871, 0.24486718, -0.70152599, -0.43048877, -0.51242638, -0.30865875, 0.19325434, 0.06327413, 100.28600311, 86.84960938, 28.76000023, 0.00000000
1, 0.6151, 54, -0.29648858, -0.97022879, 0.19943663, -3.82184029, 10.38485146, 38.76540756, -39.19906235, 11.80941200, -56.88395309, 102.80279541, -19.48734665, -2.88644075, -0.61799777, 0.76735812, -0.12494914, 0.11673956, -0.03678279, 0.05035760, 0.00729074, 100.35700226, 80.89166260, 28.82999992, 0.00000000
1, 0.7499, 55, -0.20190430, -0.98315430, 0.29516602, 0.36039042, 15.88234806, 29.60837173, -39.25752640, 8.24320412, -49.34229660, 114.33093262, -30.70734596, 83.06456757, 0.24389559, -0.70173013, -0.42975980, -0.51322162, -0.30811596, 0.19940126, 0.05924895, 100.28600311, 86.84960938, 28.76000023, 0.00000000
1, 0.7549, 56, -0.19549561, -0.99841309, 0.30303955, 0.36039042, 17.31734848, 29.67837143, -39.25752640, 8.24320412, -49.34229660, 114.32215118, -30.87823677, 83.08525848, 0.24289492, -0.70190185, -0.42904291, -0.51406032, -0.31707463, 0.21599424, 0.05064412, 100.28600311, 86.84960938, 28.76000023, 0.00000000
1, 0.6201, 55, -0.28824586, -0.97122049, 0.19392267, -4.35632467, 10.54580402, 39.12657166, -40.04676819, 11.86787510, -57.00087738, 102.77848816, -19.68983459, -2.87749600, -0.61799800, 0.76697463, -0.12599437, 0.11812621, -0.04833675, 0.05242305, 0.01218427, 100.35700226, 80.89166260, 28.82999992, 0.00000000
1, 0.6451, 56, -0.30903482, -0.98590422, 0.15694900, -5.49834824, 17.20936775, 41.19275284, -39.78368759, 11.19555664, -57.00087738, 102.61369324, -20.73866653, -2.76482129, -0.61814994, 0.76481968, -0.13101192, 0.12560865, -0.04455180, 0.07271338, 0.04514141, 100.35700226, 80.89166260, 28.82999992, 0.00000000
1, 0.6501, 57, -0.32465684, -0.99268329, 0.17120236, -4.70136356, 22.01058006, 41.71767426, -39.78368759, 11.19555664, -57.00087738, 102.56697083, -20.96618080, -2.69815683, -0.61819983, 0.76433468, -0.13183272, 0.12744345, -0.03265764, 0.08067657, 0.02981203, 100.35700226, 80.89166260, 28.82999992, 0.00000000
1, 0.6551, 58, -0.33036351, -1.00248456, 0.15954606, -5.91240931, 25.13125229, 41.87757492, -39.78368759, 11.19555664, -57.00087738, 102.50800323, -21.19779968, -2.61502099, -0.61830443, 0.76379526, -0.13258074, 0.12937906, -0.03068077, 0.09170944, 0.04023663, 100.35700226, 80.89166260, 28.82999992, 0.00000000
1, 0.7849, 57, -0.16510010, -0.99273682, 0.29473877, -1.91461051, 26.80235100, 27.89336967, -40.45600510, 9.12014008, -49.66384125, 114.12834930, -31.94440269, 83.38307190, 0.23672061, -0.70203549, -0.42495230, -0.52012038, -0.36331442, 0.21800315, 0.05248632, 100.28600311, 86.84960938, 28.76000023, 0.00000000
1, 0.7899, 58, -0.14459229, -0.98931885, 0.30102539, -1.63461030, 29.21735382, 27.99837112, -40.45600510, 9.12014008, -49.66384125, 114.07249451, -32.13185120, 83.47295380, 0.23559313, -0.70187354, -0.42435864, -0.52133405, -0.38657948, 0.21582755, 0.04475946, 100.28600311, 86.84960938, 28.76000023, 0.00000000
1, 0.6601, 59, -0.33556637, -1.00076389, 0.15655999, -6.31116199, 28.77633858, 42.24995041, -40.54370117, 12.04326248, -57.03010941, 102.43982697, -21.43506432, -2.51280355, -0.61843818, 0.76321882, -0.13324425, 0.13144313, -0.02930124, 0.09121682, 0.04184287, 100.35700226, 80.89166260, 28.82999992, 0.00000000
1, 0.6651, 60, -0.32033491, -1.00396383, 0.18924932, -6.90646553, 33.98540878, 42.69715881, -40.54370117, 12.04326248, -57.03010941, 102.35821533, -21.67993736, -2.38322806, -0.61861622, 0.76258975, -0.13378444, 0.13368841, -0.04856235, 0.09560984, 0.00761646, 100.35700226, 80.89166260, 28.82999992, 0.00000000
1, 0.6701, 61, -0.27109101, -1.00479829, 0.22691530, -8.00045872, 36.30059052, 43.08173752, -40.80678177, 11.51710033, -57.20549393, 102.26602936, -21.92897606, -2.24129963, -0.61883813, 0.76191092, -0.13428058, 0.13601390, -0.10192431, 0.09763803, -0.03170095, 100.35700226, 80.89166260, 28.82999992, 0.00000000
1, 0.6751, 62, -0.24404497, -1.01467133, 0.24941041, -8.68993187, 34.64156342, 43.75201416, -40.80678177, 11.51710033, -57.20549393, 102.17315674, -22.17935181, -2.10819387, -0.61906540, 0.76121485, -0.13484716, 0.13829772, -0.13307334, 0.10875212, -0.05596280, 100.35700226, 80.89166260, 28.82999992, 0.00000000
1, 0.7949, 59, -0.13208008, -0.99371338, 0.32116699, -1.42461026, 30.68735313, 28.31336975, -40.51446915, 9.09090900, -50.30692673, 114.01338959, -32.32364273, 83.57041168, 0.23442408, -0.70168388, -0.42377388, -0.52259040, -0.40190861, 0.22148760, 0.02310422, 100.28600311, 86.84960938, 28.76000023, 0.00000000
1, 0.7999, 60, -0.11395264, -1.00433350, 0.34002686, -1.42461026, 31.80735588, 28.80336761, -40.51446915, 9.09090900, -50.30692673, 113.95114899, -32.51986694, 83.67321014, 0.23322240, -0.70147538, -0.42318416, -0.52388436, -0.42291293, 0.23340809, 0.00268076, 100.28600311, 86.84960938, 28.76000023, 0.00000000
1, 0.8049, 61, -0.11322021, -1.01776123, 0.34301758, -2.01961040, 32.26235580, 29.04837036, -41.33294296, 9.06167793, -50.04384613, 113.88436890, -32.71804047, 83.77838135, 0.23202404, -0.70125246, -0.42257643, -0.52520376, -0.42655483, 0.24814236, -0.00194745, 100.28600311, 86.84960938, 28.76000023, 0.00000000
1, 0.6801, 63, -0.23173112, -1.02112710, 0.25276524, -9.41905117, 33.39241791, 44.74803543, -40.80678177, 11.51710033, -57.20549393, 102.08060455, -22.42387962, -1.98284924, -0.61929727, 0.76051819, -0.13543731, 0.14049874, -0.14940356, 0.11648972, -0.06110505, 100.35700226, 80.89166260, 28.82999992, 0.00000000
1, 0.8099, 62, -0.10321045, -1.02380371, 0.35272217, -2.92961097, 32.26235580, 29.04837036, -41.33294296, 9.06167793, -50.04384613, 113.81243896, -32.91610336, 83.88406372, 0.23085275, -0.70101780, -0.42194635, -0.52653813, -0.43947250, 0.25547746, -0.01335639, 100.28600311, 86.84960938, 28.76000023, 0.00000000
1, 0.8149, 63, -0.07586670, -1.01123047, 0.35357666, -4.04961109, 31.84235382, 28.94337082, -41.33294296, 9.06167793, -50.04384613, 113.73542023, -33.11272430, 83.98824310, 0.22972500, -0.70077705, -0.42128789, -0.52787727, -0.46970218, 0.24417159, -0.01597559, 100.28600311, 86.84960938, 28.76000023, 0.00000000
1, 0.8199, 64, -0.08050537, -1.00201416, 0.34954834, -4.81961155, 31.17735100, 28.87337112, -41.33294296, 8.79859638, -49.37152863, 113.65585327, -33.30757141, 84.08950806, 0.22863384, -0.70054018, -0.42060578, -0.52920771, -0.46791631, 0.23619622, -0.01375701, 100.28600311, 86.84960938, 28.76000023, 0.00000000
1, 0.7401, 64, -0.26981926, -1.07536542, 0.20042552, -10.61344051, 44.94313431, 62.42443848, -44.60683823, 12.94942951, -57.70242691, 100.74092865, -26.02622795, -0.28557956, -0.62187147, 0.75004464, -0.14549045, 0.17187621, -0.16808604, 0.19162437, -0.03474555, 100.35700226, 80.89166260, 28.82999992, 0.00000000
1, 0.7451, 65, -0.20182589, -1.16335773, 0.31970820, -11.12504292, 49.42329407, 64.25529480, -45.33761978, 12.07249355, -58.19935608, 100.59555817, -26.38753319, -0.08056834, -0.62205935, 0.74896330, -0.14632897, 0.17516848, -0.24198924, 0.28171289, -0.15669596, 100.35700226, 80.89166260, 28.82999992, 0.00000000
1, 0.7501, 66, 0.00309697, -1.22972429, 0.50317633, -13.29110718, 49.56695557, 66.21416473, -45.33761978, 12.07249355, -58.19935608, 100.43800354, -26.75813675, 0.12495458, -0.62229550, 0.74779999, -0.14724229, 0.17850274, -0.45312685, 0.35015482, -0.34267208, 100.35700226, 80.89166260, 28.82999992, 0.00000000
1, 0.7551, 67, 0.07647332, -1.21427095, 0.47511491, -15.82253933, 42.04166031, 69.74749756, -45.33761978, 12.07249355, -58.19935608, 100.28621674, -27.13896370, 0.28721619, -0.62252986, 0.74659389, -0.14849342, 0.18166961, -0.53232956, 0.33725291, -0.31729046, 100.35700226, 80.89166260, 28.82999992, 0.00000000
1, 0.7601, 68, -0.23035225, -1.10652363, 0.07150390, -19.28950119, 14.79577827, 73.17321777, -45.36685181, 10.52323914, -58.11166382, 100.18636322, -27.51237869, 0.29661784, -0.62266529, 0.74547815, -0.15062341, 0.18401894, -0.23031989, 0.23279959, 0.08346539, 100.35700226, 80.89166260, 28.82999992, 0.00000000
1, 0.8249, 65, -0.06048584, -1.00024414, 0.34368896, -5.37961149, 31.52735519, 28.73337173, -41.33294296, 8.79859638, -49.37152863, 113.57164764, -33.50235367, 84.19359589, 0.22755581, -0.70028466, -0.41991705, -0.53055590, -0.49077925, 0.23565152, -0.00976674, 100.28600311, 86.84960938, 28.76000023, 0.00000000
1, 0.8299, 66, -0.05596924, -1.00146484, 0.35241699, -5.41461182, 31.14235306, 28.55836868, -42.32680511, 9.14937115, -50.51154709, 113.48759460, -33.69543839, 84.29655457, 0.22648917, -0.70003200, -0.41922757, -0.53188938, -0.49810788, 0.23809668, -0.02035234, 100.28600311, 86.84960938, 28.76000023, 0.00000000
1, 0.8599, 67, -0.02966309, -0.95446777, 0.37084961, -8.91461277, 37.58235550, 25.05836678, -43.17451096, 8.97398376, -50.24846649, 112.84593201, -34.81986237, 84.99344635, 0.22069611, -0.69793665, -0.41503409, -0.54030037, -0.54065657, 0.19766706, -0.05149516, 100.28600311, 86.84960938, 28.76000023, 0.00000000
1, 0.8649, 68, 0.05114746, -0.94793701, 0.43432617, -6.07961178, 41.01236343, 24.88336754, -43.17451096, 8.97398376, -50.24846649, 112.71717834, -35.01397324, 85.16527557, 0.21955146, -0.69736028, -0.41452700, -0.54189789, -0.62422460, 0.19218519, -0.11743373, 100.28600311, 86.84960938, 28.76000023, 0.00000000
1, 0.7651, 69, -0.44460711, -1.02449703, -0.12492678, -16.01863480, 24.05498505, 74.61415100, -45.36685181, 10.52323914, -58.11166382, 100.07910156, -27.90088844, 0.35692224, -0.62273669, 0.74435866, -0.15251967, 0.18672739, -0.02150909, 0.15386625, 0.27737170, 100.35700226, 80.89166260, 28.82999992, 0.00000000
1, 0.7701, 70, -0.43837187, -1.04191244, 0.03380205, -9.19505692, 45.36701584, 75.84147644, -46.56533051, 12.80327415, -58.25782013, 99.94960785, -28.31360245, 0.53615832, -0.62270993, 0.74323320, -0.15381728, 0.19020277, -0.03440616, 0.17397182, 0.11617418, 100.35700226, 80.89166260, 28.82999992, 0.00000000
1, 0.7751, 71, -0.28236049, -1.15757632, 0.32415825, -6.37647963, 56.87165833, 77.90252686, -46.56533051, 12.80327415, -58.25782013, 99.80233002, -28.74584389, 0.77977133, -0.62264162, 0.74206322, -0.15484236, 0.19412261, -0.19770676, 0.29228216, -0.17676347, 100.35700226, 80.89166260, 28.82999992, 0.00000000
1, 0.8699, 69, 0.10766602, -1.01342773, 0.45147705, -3.20961094, 41.88735962, 25.89836884, -43.49605179, 8.79859638, -50.30692673, 112.60028839, -35.21415710, 85.34057617, 0.21827860, -0.69680583, -0.41406342, -0.54347742, -0.68358231, 0.25884980, -0.13694292, 100.28600311, 86.84960938, 28.76000023, 0.00000000
1, 0.8749, 70, 0.10681152, -1.16577148, 0.41424561, -2.75461078, 39.43735504, 27.68337059, -43.49605179, 8.79859638, -50.30692673, 112.49510193, -35.41761398, 85.49871826, 0.21699283, -0.69634300, -0.41353109, -0.54498869, -0.68561697, 0.41249511, -0.10190295, 100.28600311, 86.84960938, 28.76000023, 0.00000000
1, 0.8799, 71, 0.05645752, -1.30938721, 0.34075928, -5.06461191, 35.93735886, 28.31336975, -43.87606049, 8.74013424, -49.95615387, 112.38981628, -35.61705017, 85.63636780, 0.21582451, -0.69594991, -0.41288978, -0.54643893, -0.63812649, 0.55742633, -0.03057361, 100.28600311, 86.84960938, 28.76000023, 0.00000000
1, 0.7801, 72, -0.12679501, -1.27007139, 0.38307497, -11.24737740, 54.30064392, 80.25173950, -46.56533051, 12.80327415, -58.25782013, 99.63876343, -29.17714119, 1.00767946, -0.62268156, 0.74078238, -0.15600233, 0.19792022, -0.36006176, 0.40787441, -0.23850057, 100.35700226, 80.89166260, 28.82999992, 0.00000000
1, 0.7851, 73, 0.01356910, -1.29361773, 0.17651999, -16.94111824, 49.11720657, 82.30380249, -47.14995575, 11.48786926, -58.72551727, 99.45670319, -29.62360954, 1.20810843, -0.62284166, 0.73933583, -0.15746631, 0.20163153, -0.50661057, 0.43501377, -0.03493207, 100.35700226, 80.89166260, 28.82999992, 0.00000000
1, 0.8849, 72, -0.01452637, -1.34503174, 0.29357910, -9.54461288, 33.27735519, 26.21336937, -43.87606049, 8.74013424, -49.95615387, 112.26725006, -35.80151367, 85.76458740, 0.21488947, -0.69553769, -0.41217878, -0.54786736, -0.56981623, 0.59421325, 0.01434036, 100.28600311, 86.84960938, 28.76000023, 0.00000000
1, 0.8899, 73, -0.05786133, -1.23327637, 0.27746582, -12.97461414, 31.84235573, 23.72836876, -43.87606049, 8.74013424, -49.95615387, 112.12814331, -35.97151947, 85.89121246, 0.21414295, -0.69508040, -0.41144636, -0.54928869, -0.52892119, 0.48336038, 0.02800371, 100.28600311, 86.84960938, 28.76000023, 0.00000000
1, 0.8949, 74, 0.02880859, -1.06994629, 0.26788330, -17.83961678, 34.04735565, 17.88336563, -44.40222168, 9.03244686, -50.80385971, 111.94852448, -36.11828995, 86.04486847, 0.21364379, -0.69441754, -0.41079375, -0.55080771, -0.61774611, 0.32058674, 0.03479151, 100.28600311, 86.84960938, 28.76000023, 0.00000000
1, 0.8201, 74, -0.17563842, -1.39931166, -0.03756077, -6.20054722, 52.13663483, 108.56323242, -49.83922958, 12.51096153, -59.54399109, 98.52013397, -33.21664047, 2.32511306, -0.62087739, 0.72970515, -0.17176901, 0.22920977, -0.36996114, 0.57071531, 0.15952531, 100.35700226, 80.89166260, 28.82999992, 0.00000000
1, 0.8251, 75, -0.15667088, -1.41251814, -0.06558510, -5.04763079, 60.30672455, 111.09179688, -49.83922958, 12.51096153, -59.54399109, 98.35204315, -33.81003189, 2.58629203, -0.62036324, 0.72812772, -0.17370969, 0.23410368, -0.39744216, 0.58921009, 0.18440396, 100.35700226, 80.89166260, 28.82999992, 0.00000000
1, 0.8999, 75, 0.15936279, -1.01348877, 0.28497314, -16.40461540, 38.42235947, 16.76336479, -44.40222168, 9.03244686, -50.80385971, 111.75885773, -36.26758575, 86.22714996, 0.21304889, -0.69364029, -0.41024897, -0.55242115, -0.75039017, 0.26455539, 0.01466751, 100.28600311, 86.84960938, 28.76000023, 0.00000000
1, 0.9049, 76, 0.27478027, -1.05261230, 0.32562256, -13.77961445, 40.80235672, 17.49836731, -43.05758667, 9.09090900, -50.42385101, 111.57420349, -36.42422104, 86.42245483, 0.21231337, -0.69284046, -0.40976569, -0.55406433, -0.86798060, 0.30419821, -0.02899330, 100.28600311, 86.84960938, 28.76000023, 0.00000000
1, 0.9399, 77, 0.31250000, -1.33935547, 0.10382080, -36.87961960, 32.47235107, 2.13336086, -45.57146835, 7.86319780, -51.18386459, 109.97499084, -37.27976990, 87.60987854, 0.21115676, -0.68702585, -0.40484896, -0.56524837, -0.91799355, 0.59174836, 0.16905296, 100.28600311, 86.84960938, 28.76000023, 0.00000000
1, 0.9449, 78, 0.39428711, -1.35223389, 0.09356689, -41.04462051, 34.43235397, -2.97664070, -45.48377609, 7.19087982, -51.44694519, 109.64253235, -37.32410431, 87.81983185, 0.21185179, -0.68574405, -0.40424198, -0.56697655, -1.00047469, 0.60359329, 0.17489626, 100.28600311, 86.84960938, 28.76000023, 0.00000000
1, 0.8301, 76, -0.08406335, -1.43831027, -0.09008704, -2.55232668, 69.28442383, 113.83282471, -49.83922958, 12.51096153, -59.54399109, 98.15911865, -34.41418839, 2.90513062, -0.61982614, 0.72647947, -0.17540999, 0.23932125, -0.47872436, 0.62047690, 0.20553696, 100.35700226, 80.89166260, 28.82999992, 0.00000000
1, 0.8351, 77, 0.02659326, -1.47940326, -0.04977604, 0.86363894, 78.77417755, 117.34549713, -50.68693161, 15.46331501, -60.01169205, 97.95079803, -35.04979324, 3.28090906, -0.61915815, 0.72477520, -0.17697430, 0.24499863, -0.59846616, 0.66721869, 0.16163287, 100.35700226, 80.89166260, 28.82999992, 0.00000000
1, 0.8401, 78, 0.12629682, -1.51933956, 0.00049562, 2.80317140, 84.05321503, 121.61784363, -50.68693161, 15.46331501, -60.01169205, 97.72878265, -35.70893860, 3.69114566, -0.61839920, 0.72300529, -0.17850271, 0.25096357, -0.70761240, 0.71315825, 0.10754433, 100.35700226, 80.89166260, 28.82999992, 0.00000000
1, 0.9499, 79, 0.46008301, -1.36773682, 0.07501221, -46.22462463, 36.28735733, -8.12164211, -45.48377609, 7.19087982, -51.44694519, 109.27059937, -37.34624863, 88.05200958, 0.21279506, -0.68427348, -0.40367547, -0.56880069, -1.06665659, 0.61769319, 0.18861866, 100.28600311, 86.84960938, 28.76000023, 0.00000000
1, 0.9549, 80, 0.50878906, -1.37249756, 0.02099609, -52.27962494, 36.91735458, -13.37164402, -46.53609848, 7.33703566, -51.85618210, 108.85939789, -37.34335327, 88.29892731, 0.21403676, -0.68263352, -0.40311822, -0.57069737, -1.11541009, 0.62066090, 0.23736487, 100.28600311, 86.84960938, 28.76000023, 0.00000000
1, 0.9599, 81, 0.53936768, -1.35791016, -0.08160400, -57.80962753, 37.58235550, -18.55164528, -46.53609848, 7.33703566, -51.85618210, 108.41195679, -37.31551361, 88.56012726, 0.21555857, -0.68082815, -0.40258026, -0.57265759, -1.14568996, 0.60390019, 0.33426952, 100.28600311, 86.84960938, 28.76000023, 0.00000000
1, 0.9649, 82, 0.54870605, -1.34680176, -0.15905762, -64.07463074, 38.77236176, -25.27164841, -46.53609848, 7.33703566, -51.85618210, 107.92134094, -37.25589371, 88.84114838, 0.21741107, -0.67880875, -0.40209219, -0.57469374, -1.15429044, 0.59015936, 0.40554655, 100.28600311, 86.84960938, 28.76000023, 0.00000000
1, 0.9699, 83, 0.55657959, -1.32843018, -0.27886963, -68.97463226, 43.11236191, -33.77665329, -46.24378967, 7.60011673, -52.41157532, 107.38161469, -37.16031647, 89.16334534, 0.21954311, -0.67647582, -0.40176904, -0.57685620, -1.16098726, 0.56870651, 0.51867712, 100.28600311, 86.84960938, 28.76000023, 0.00000000
1, 0.9749, 84, 0.55816650, -1.30981445, -0.35968018, -70.89962769, 47.55736160, -41.61665726, -46.24378967, 7.60011673, -52.41157532, 106.80900574, -37.03132248, 89.52497101, 0.22184782, -0.67386425, -0.40166497, -0.57909906, -1.16089678, 0.54655147, 0.59236336, 100.28600311, 86.84960938, 28.76000023, 0.00000000
1, 0.9799, 85, 0.55810547, -1.25915527, -0.37176514, -72.47463226, 53.08736420, -49.31666183, -46.33148193, 6.69394922, -52.47003555, 106.20250702, -36.87030792, 89.93107605, 0.22429240, -0.67095029, -0.40179360, -0.58144689, -1.15870309, 0.49196422, 0.59692168, 100.28600311, 86.84960938, 28.76000023, 0.00000000
1, 0.9849, 86, 0.56072998, -1.23645020, -0.39385986, -72.64963531, 57.07736206, -58.83666229, -46.33148193, 6.69394922, -52.47003555, 105.57397461, -36.66547394, 90.37422943, 0.22690894, -0.66775221, -0.40222692, -0.58380902, -1.15863276, 0.46491170, 0.61119580, 100.28600311, 86.84960938, 28.76000023, 0.00000000
1, 1.0449, 87, 0.12683105, -1.12725830, 0.34887695, -51.47462463, 5.24234486, -117.95166779, -44.98684692, 3.85852075, -54.51622391, 99.39234924, -31.61235046, 94.67693329, 0.26901209, -0.62682825, -0.42020878, -0.59845096, -0.65314794, 0.28857347, -0.20891151, 100.28600311, 86.84960938, 28.76000023, 0.00000000
1, 1.0499, 88, 0.03753662, -1.12622070, 0.40765381, -47.83462524, 2.26734400, -118.68668365, -44.98684692, 3.85852075, -54.51622391, 99.08837891, -31.02845383, 94.80155945, 0.27337387, -0.62402177, -0.42222571, -0.59798759, -0.55518579, 0.28154728, -0.27142435, 100.28600311, 86.84960938, 28.76000023, 0.00000000
1, 1.0549, 89, -0.04772949, -1.18194580, 0.45050049, -44.64962387, -1.12765718, -117.98667145, -42.99912262, 2.92312193, -55.65623856, 98.81385803, -30.44482803, 94.90186310, 0.27768475, -0.62133551, -0.42425334, -0.59736305, -0.46116683, 0.33144385, -0.31759655, 100.28600311, 86.84960938, 28.76000023, 0.00000000
1, 1.0599, 90, -0.10809326, -1.25372314, 0.44781494, -43.03962326, -2.56265759, -115.60667419, -42.99912262, 2.92312193, -55.65623856, 98.55529785, -29.87149811, 94.98815918, 0.28190818, -0.61873174, -0.42622843, -0.59668088, -0.39211392, 0.39760020, -0.31804961, 100.28600311, 86.84960938, 28.76000023, 0.00000000
1, 1.0649, 91, -0.16333008, -1.29229736, 0.44464111, -41.35962296, -2.73765779, -112.10667419, -42.70681000, 1.66617942, -55.74393463, 98.30952454, -29.31501770, 95.06711578, 0.28599051, -0.61620098, -0.42813876, -0.59598905, -0.32838005, 0.43081757, -0.31788540, 100.28600311, 86.84960938, 28.76000023, 0.00000000
1, 1.0699, 92, -0.19824219, -1.31835938, 0.42584229, -39.46961975, -3.01765776, -109.37667847, -42.70681000, 1.66617942, -55.74393463, 98.07720184, -28.77156639, 95.13916016, 0.28994873, -0.61373580, -0.43000993, -0.59527260, -0.28514028, 0.45176053, -0.30198151, 100.28600311, 86.84960938, 28.76000023, 0.00000000
1, 1.0749, 93, -0.24145508, -1.39282227, 0.36553955, -35.93461990, -2.21265769, -106.47167206, -42.70681000, 1.66617942, -55.74393463, 97.86339569, -28.24280930, 95.21068573, 0.29371455, -0.61133361, -0.43189472, -0.59453332, -0.23376007, 0.52133882, -0.24437292, 100.28600311, 86.84960938, 28.76000023, 0.00000000
1, 1.0799, 94, -0.27758789, -1.45672607, 0.34008789, -32.95962143, 1.14734364, -104.23167419, -42.32680511, 1.84156680, -56.38702011, 97.65818024, -27.72719193, 95.29682159, 0.29727268, -0.60891032, -0.43382990, -0.59384251, -0.18965305, 0.58059120, -0.22147973, 100.28600311, 86.84960938, 28.76000023, 0.00000000
1, 1.0849, 95, -0.31640625, -1.47149658, 0.32379150, -31.45461655, 4.43734503, -102.55167389, -42.32680511, 1.84156680, -56.38702011, 97.45442200, -27.22180176, 95.39759827, 0.30067831, -0.60643947, -0.43579236, -0.59321904, -0.14297886, 0.59087121, -0.20777924, 100.28600311, 86.84960938, 28.76000023, 0.00000000
1, 1.0899, 96, -0.34490967, -1.47174072, 0.30114746, -28.02461815, 7.37734604, -100.73168182, -40.22215652, 0.46769950, -56.35778809, 97.26284790, -26.72701454, 95.51102448, 0.30388379, -0.60395908, -0.43782464, -0.59261930, -0.10674625, 0.58680189, -0.18763551, 100.28600311, 86.84960938, 28.76000023, 0.00000000
1, 1.1699, 97, -0.26519775, -1.12835693, 0.28454590, 4.59539223, -29.05766678, -112.91168213, -36.74364090, -1.14001751, -57.00087738, 95.82386780, -18.22079659, 96.42698669, 0.35339117, -0.56740886, -0.47564521, -0.57177222, -0.04986090, 0.18416287, -0.18847764, 100.28600311, 86.84960938, 28.76000023, 0.00000000
1, 1.1749, 98, -0.27850342, -1.11682129, 0.29229736, 5.78539228, -36.61766815, -110.77667999, -36.74364090, -1.14001751, -57.00087738, 95.89342499, -17.65111351, 96.29497528, 0.35676715, -0.56610513, -0.47796127, -0.56903023, -0.02707802, 0.16966017, -0.19483227, 100.28600311, 86.84960938, 28.76000023, 0.00000000
1, 0.8451, 79, 0.19090942, -1.54513752, 0.01210317, 3.56685400, 86.47550201, 125.48653412, -51.94387436, 16.10640144, -60.68400955, 97.49594116, -36.38750076, 4.11979103, -0.61756575, 0.72116864, -0.18007126, 0.25710455, -0.78178549, 0.74533677, 0.09191506, 100.35700226, 80.89166260, 28.82999992, 0.00000000
1, 0.8501, 80, 0.23849015, -1.53408742, -0.00138131, 4.28376579, 89.67911530, 128.70848083, -51.94387436, 16.10640144, -60.68400955, 97.24782562, -37.08261490, 4.57306910, -0.61667067, 0.71925724, -0.18163826, 0.26342711, -0.83901894, 0.74098998, 0.10121319, 100.35700226, 80.89166260, 28.82999992, 0.00000000
1, 0.8551, 81, 0.29633221, -1.51075256, -0.00827800, 6.26680326, 93.98238373, 131.55494690, -51.94387436, 16.10640144, -60.68400955, 96.98529816, -37.79281616, 5.05918026, -0.61568475, 0.71729290, -0.18314651, 0.26996422, -0.90665793, 0.72462362, 0.10378385, 100.35700226, 80.89166260, 28.82999992, 0.00000000
1, 1.1799, 99, -0.29187012, -1.09063721, 0.29785156, 6.41539240, -43.86267090, -108.64168549, -35.63285446, -1.02309263, -57.05933762, 95.97614288, -17.08814049, 96.12526703, 0.36021629, -0.56502080, -0.48011488, -0.56611437, -0.00431435, 0.14066321, -0.19876477, 100.28600311, 86.84960938, 28.76000023, 0.00000000
1, 1.1849, 100, -0.30157471, -1.07818604, 0.28552246, 7.29039288, -51.00267410, -105.28167725, -35.63285446, -1.02309263, -57.05933762, 96.07250214, -16.53787231, 95.91804504, 0.36370102, -0.56418222, -0.48208246, -0.56304216, 0.01465218, 0.12556589, -0.18460473, 100.28600311, 86.84960938, 28.76000023, 0.00000000
1, 1.1899, 101, -0.32177734, -1.04022217, 0.26947021, 8.72539425, -57.23267365, -102.34166718, -34.28821945, -1.11078632, -57.41011429, 96.18315887, -15.99854851, 95.67854309, 0.36719987, -0.56356645, -0.48390123, -0.55981851, 0.04392391, 0.08513522, -0.16651025, 100.28600311, 86.84960938, 28.76000023, 0.00000000
1, 0.8601, 82, 0.38429701, -1.51234567, 0.00051231, 8.13637829, 95.94634247, 134.59243774, -53.31774139, 14.73253441, -61.09324646, 96.71553040, -38.51744843, 5.56435537, -0.61458886, 0.71529472, -0.18466535, 0.27664554, -1.00456166, 0.73344326, 0.09061597, 100.35700226, 80.89166260, 28.82999992, 0.00000000
1, 0.8651, 83, 0.44363305, -1.50983715, 0.01549212, 10.46879864, 98.03614807, 138.36312866, -53.31774139, 14.73253441, -61.09324646, 96.43974304, -39.26004028, 6.08975267, -0.61335844, 0.71326560, -0.18620704, 0.28349718, -1.07398295, 0.73847485, 0.07113890, 100.35700226, 80.89166260, 28.82999992, 0.00000000
1, 1.1949, 102, -0.38787842, -0.98492432, 0.25799561, 12.50539398, -66.36768341, -99.89167023, -34.28821945, -1.11078632, -57.41011429, 96.32327271, -15.46592331, 95.39236450, 0.37072861, -0.56327099, -0.48559287, -0.55631435, 0.11897875, 0.02755117, -0.15252575, 100.28600311, 86.84960938, 28.76000023, 0.00000000
1, 1.1999, 103, -0.43243408, -0.99957275, 0.27740479, 16.18039513, -70.04267883, -98.35166931, -34.28821945, -1.11078632, -57.41011429, 96.48384094, -14.93818188, 95.08854675, 0.37419716, -0.56314117, -0.48726293, -0.55265135, 0.17244032, 0.04006387, -0.16905244, 100.28600311, 86.84960938, 28.76000023, 0.00000000
1, 1.2049, 104, -0.44757080, -0.99835205, 0.28082275, 18.59539604, -72.59767914, -96.91667175, -32.97281647, -0.26308095, -56.70856476, 96.65673065, -14.41524887, 94.77309418, 0.37761542, -0.56312680, -0.48890033, -0.54888189, 0.19642189, 0.03684634, -0.16935337, 100.28600311, 86.84960938, 28.76000023, 0.00000000
1, 0.9001, 84, -0.06197415, -1.46101522, 0.32361874, 17.05876923, 116.73822784, 159.86148071, -58.37474442, 19.46799088, -62.96404648, 94.21527100, -44.82542419, 10.24026871, -0.60177046, 0.69774818, -0.19802508, 0.33437386, -0.64116073, 0.75066352, -0.27248138, 100.35700226, 80.89166260, 28.82999992, 0.00000000
1, 0.9051, 85, -0.12220466, -1.48301888, 0.41571581, 16.28839111, 122.17581177, 162.34939575, -60.07015610, 19.46799088, -64.27944946, 93.73932648, -45.67649078, 11.02790737, -0.59993136, 0.69497186, -0.19949424, 0.34248897, -0.59163296, 0.78256989, -0.37121397, 100.35700226, 80.89166260, 28.82999992, 0.00000000
1, 1.2099, 105, -0.48260498, -0.98632813, 0.27545166, 20.87039566, -74.94268799, -95.72666931, -32.97281647, -0.26308095, -56.70856476, 96.84075165, -13.89590168, 94.44731903, 0.38098845, -0.56321537, -0.49051031, -0.54501009, 0.24024926, 0.02295679, -0.16067523, 100.28600311, 86.84960938, 28.76000023, 0.00000000
1, 1.2149, 106, -0.50842285, -0.97393799, 0.27490234, 23.07539749, -76.72768402, -95.44667053, -31.77433395, -1.11078632, -56.62086868, 97.03453064, -13.37582684, 94.11476135, 0.38432768, -0.56337249, -0.49212185, -0.54103589, 0.27487618, 0.00881323, -0.15664646, 100.28600311, 86.84960938, 28.76000023, 0.00000000
1, 0.9101, 86, -0.15804982, -1.47886646, 0.42411697, 15.23750687, 124.02210999, 163.42329407, -60.07015610, 20.40339088, -64.27944946, 93.22439575, -46.52865982, 11.85103893, -0.59807611, 0.69207561, -0.20094723, 0.35065168, -0.56616271, 0.78867620, -0.38650626, 100.35700226, 80.89166260, 28.82999992, 0.00000000
1, 0.9151, 87, -0.20855379, -1.44329751, 0.38477391, 15.17053890, 126.56951904, 163.20445251, -60.07015610, 20.40339088, -64.27944946, 92.66902924, -47.37498856, 12.71750069, -0.59620041, 0.68908429, -0.20231175, 0.35885647, -0.52570719, 0.76358813, -0.35430437, 100.35700226, 80.89166260, 28.82999992, 0.00000000
1, 0.9201, 88, -0.17568427, -1.36607480, 0.33134094, 15.48103523, 129.98498535, 161.77467346, -61.67787170, 22.01110840, -64.57176208, 92.06781006, -48.20883179, 13.63635635, -0.59431899, 0.68600380, -0.20352285, 0.36709973, -0.56830311, 0.69692791, -0.30809498, 100.35700226, 80.89166260, 28.82999992, 0.00000000
1, 1.2449, 107, -0.44311523, -0.93634033, 0.34942627, 24.33539772, -80.40267944, -93.13667297, -29.72814941, 0.49693072, -56.82548904, 98.21525574, -10.21665382, 92.08742523, 0.40413424, -0.56458157, -0.50155836, -0.51610309, 0.26353151, -0.03741527, -0.20962645, 100.28600311, 86.84960938, 28.76000023, 0.00000000
1, 1.2499, 108, -0.45715332, -0.92584229, 0.35552979, 22.48039627, -80.64768219, -91.52667236, -29.72814941, 0.49693072, -56.82548904, 98.38613892, -9.70559025, 91.74938965, 0.40740064, -0.56478280, -0.50288993, -0.51200294, 0.28637925, -0.04903469, -0.21254170, 100.28600311, 86.84960938, 28.76000023, 0.00000000
1, 1.2549, 109, -0.47485352, -0.90985107, 0.34210205, 20.76539803, -80.64768219, -89.91667175, -28.00350761, 0.70154923, -56.47471619, 98.54534912, -9.20153618, 91.41216278, 0.41066146, -0.56497246, -0.50412893, -0.50795418, 0.31278268, -0.06607134, -0.19614562, 100.28600311, 86.84960938, 28.76000023, 0.00000000
1, 1.2599, 110, -0.52355957, -0.87738037, 0.32836914, 19.15539742, -81.03268433, -88.44666290, -28.00350761, 0.70154923, -56.47471619, 98.69377899, -8.70355892, 91.07375336, 0.41392627, -0.56515801, -0.50527489, -0.50394338, 0.37010136, -0.09951233, -0.17962068, 100.28600311, 86.84960938, 28.76000023, 0.00000000
1, 1.2649, 111, -0.55212402, -0.85620117, 0.31616211, 17.37039566, -81.34768677, -87.39667511, -27.44811440, 0.55539316, -56.50394440, 98.83050537, -8.20970440, 90.73465729, 0.41720733, -0.56532568, -0.50633585, -0.49996895, 0.40720025, -0.12159997, -0.16484451, 100.28600311, 86.84960938, 28.76000023, 0.00000000
1, 1.2699, 112, -0.57330322, -0.83734131, 0.29479980, 16.67039680, -81.55767822, -86.41666412, -27.44811440, 0.55539316, -56.50394440, 98.96087646, -7.71975136, 90.39531708, 0.42047745, -0.56549132, -0.50733954, -0.49600887, 0.43686336, -0.14130081, -0.14105026, 100.28600311, 86.84960938, 28.76000023, 0.00000000
1, 1.2749, 113, -0.58483887, -0.82684326, 0.28179932, 16.35539627, -81.62768555, -85.15666962, -27.44811440, 0.55539316, -55.91932297, 99.08679199, -7.23521757, 90.05614471, 0.42371821, -0.56566525, -0.50829035, -0.49206376, 0.45680341, -0.15256250, -0.12570167, 100.28600311, 86.84960938, 28.76000023, 0.00000000
1, 0.9251, 89, -0.16273396, -1.32812178, 0.35798842, 17.23904991, 122.66941071, 160.98200989, -61.67787170, 22.01110840, -64.57176208, 91.48699188, -49.03118896, 14.52807903, -0.59228432, 0.68303835, -0.20485500, 0.37509003, -0.59087628, 0.66946173, -0.34192890, 100.35700226, 80.89166260, 28.82999992, 0.00000000
1, 0.9301, 90, -0.21255696, -1.24741077, 0.38356352, 18.87510300, 104.86663055, 160.25643921, -63.05173874, 23.26804924, -64.95176697, 90.99619293, -49.83324051, 15.30462742, -0.59001791, 0.68040347, -0.20653820, 0.38245517, -0.55033946, 0.59926271, -0.37353346, 100.35700226, 80.89166260, 28.82999992, 0.00000000
1, 0.9351, 91, -0.27724800, -1.17802942, 0.34232470, 18.69048309, 93.43002319, 159.21504211, -63.05173874, 23.26804924, -64.95176697, 90.54157257, -50.63452911, 16.02025032, -0.58762258, 0.67787623, -0.20852154, 0.38948992, -0.49450505, 0.54055852, -0.33768457, 100.35700226, 80.89166260, 28.82999992, 0.00000000
1, 1.2799, 114, -0.58288574, -0.80578613, 0.26159668, 15.48039532, -82.25768280, -84.28166962, -25.66501045, 1.05232382, -55.91932297, 99.20579529, -6.75378704, 89.71453094, 0.42696428, -0.56584066, -0.50917530, -0.48812532, 0.46319985, -0.17431773, -0.10327090, 100.28600311, 86.84960938, 28.76000023, 0.00000000
1, 0.9401, 92, -0.36320168, -1.09523129, 0.33191627, 18.31935501, 82.56461334, 157.52365112, -63.05173874, 23.26804924, -64.95176697, 90.12894440, -51.42365265, 16.67134666, -0.58513063, 0.67549652, -0.21072735, 0.39613217, -0.41725972, 0.46846199, -0.33209819, 100.35700226, 80.89166260, 28.82999992, 0.00000000
1, 0.9451, 93, -0.49041677, -1.03296769, 0.31321880, 17.50461006, 72.86829376, 154.84925842, -63.81174850, 24.14498711, -66.53025055, 89.75260925, -52.19670105, 17.26396942, -0.58258551, 0.67324817, -0.21310444, 0.40238988, -0.29842567, 0.41686416, -0.31778908, 100.35700226, 80.89166260, 28.82999992, 0.00000000
1, 1.3399, 115, -0.73339844, -0.59680176, 0.08618164, 11.03539371, -51.17767334, -54.77666092, -20.43262100, 2.07541656, -55.80239487, 100.23780060, -1.81930494, 86.14246368, 0.46001905, -0.56745374, -0.51654452, -0.44672203, 0.70029700, -0.38678500, 0.09118669, 100.28600311, 86.84960938, 28.76000023, 0.00000000
1, 1.3449, 116, -0.72039795, -0.56793213, 0.09313965, 13.13539410, -45.40267181, -51.59165955, -20.43262100, 2.07541656, -55.80239487, 100.30866241, -1.52499640, 85.96501923, 0.46172056, -0.56743693, -0.51716423, -0.44426414, 0.69252086, -0.41559967, 0.08542810, 100.28600311, 86.84960938, 28.76000023, 0.00000000
1, 0.9951, 94, -1.20991898, -0.19517936, 0.26833749, 2.54416084, 48.56061554, 90.77049255, -67.08564758, 27.88658333, -67.37796021, 87.19559479, -58.31408691, 20.58769608, -0.56221712, 0.65556878, -0.23954083, 0.44357833, 0.35928673, -0.33151755, -0.29647946, 100.35700226, 80.89166260, 28.82999992, 0.00000000
1, 1.0001, 95, -1.12648690, -0.19113195, 0.33708945, 10.70017338, 53.50932693, 77.53490448, -67.08564758, 27.88658333, -67.37796021, 86.77976990, -58.68655777, 21.13921547, -0.56096315, 0.65398288, -0.24022676, 0.44712180, 0.27211291, -0.32968748, -0.36852735, 100.35700226, 80.89166260, 28.82999992, 0.00000000
1, 1.0051, 96, -1.04315650, -0.24151576, 0.36776945, 11.95282936, 55.37647629, 62.49101639, -67.29026794, 29.20198822, -67.72873688, 86.35153961, -58.98123169, 21.71037674, -0.55997884, 0.65253848, -0.24041089, 0.45035538, 0.18585902, -0.27444786, -0.40262550, 100.35700226, 80.89166260, 28.82999992, 0.00000000
1, 1.0101, 97, -0.94507277, -0.27557904, 0.28561455, 8.42905426, 61.12906647, 47.84591675, -67.29026794, 29.20198822, -67.72873688, 85.85722351, -59.19852829, 22.33629608, -0.55943656, 0.65104002, -0.24010508, 0.45335114, 0.08585653, -0.23643959, -0.32430524, 100.35700226, 80.89166260, 28.82999992, 0.00000000
1, 1.0151, 98, -0.80682623, -0.27909362, 0.17009658, 5.87676716, 69.22415924, 34.64636993, -67.29026794, 29.20198822, -67.72873688, 85.28358459, -59.34383774, 23.03828049, -0.55930716, 0.64944971, -0.23927528, 0.45622158, -0.05355627, -0.22992960, -0.21321450, 100.35700226, 80.89166260, 28.82999992, 0.00000000
1, 1.0201, 99, -0.64074558, -0.26926890, 0.10960475, 6.05912113, 72.17938232, 23.25242233, -68.05027771, 30.04969215, -67.72873688, 84.68918610, -59.42744064, 23.76445770, -0.55942464, 0.64791632, -0.23804493, 0.45889354, -0.22036166, -0.23773399, -0.15743771, 100.35700226, 80.89166260, 28.82999992, 0.00000000
1, 1.0251, 100, -0.47705039, -0.28025150, 0.11522583, 7.67528057, 65.58287048, 12.69917202, -68.05027771, 30.04969215, -67.72873688, 84.16438293, -59.45813370, 24.41863060, -0.55963415, 0.64665735, -0.23664367, 0.46113306, -0.38445544, -0.22565153, -0.16744725, 100.35700226, 80.89166260, 28.82999992, 0.00000000
1, 1.0301, 101, -0.32967141, -0.26350415, 0.12558056, 8.15453911, 53.08122253, 2.51037169, -68.07950592, 30.89739799, -68.22566223, 83.77006531, -59.43954468, 24.92812157, -0.55988264, 0.64581043, -0.23524614, 0.46273065, -0.53180742, -0.24210906, -0.18122466, 100.35700226, 80.89166260, 28.82999992, 0.00000000
1, 1.3499, 117, -0.71569824, -0.55047607, 0.10089111, 15.23539448, -38.85766983, -48.02165604, -19.81876564, 2.60157847, -56.18240356, 100.38843536, -1.25389612, 85.81697845, 0.46314931, -0.56741136, -0.51786369, -0.44198909, 0.69265962, -0.43293539, 0.07902527, 100.28600311, 86.84960938, 28.76000023, 0.00000000
1, 1.3549, 118, -0.69256592, -0.52740479, 0.10858154, 17.58039665, -31.50766754, -44.66165924, -19.81876564, 2.60157847, -56.18240356, 100.47859955, -1.00574446, 85.70246124, 0.46428582, -0.56736326, -0.51867014, -0.43990779, 0.67395407, -0.45582035, 0.07285910, 100.28600311, 86.84960938, 28.76000023, 0.00000000
1, 1.3599, 119, -0.66607666, -0.50817871, 0.12371826, 19.96039772, -24.54266357, -41.16165924, -19.81876564, 2.60157847, -56.18240356, 100.57969666, -0.78097463, 85.61940765, 0.46513599, -0.56730574, -0.51957375, -0.43801343, 0.65149415, -0.47480011, 0.05941761, 100.28600311, 86.84960938, 28.76000023, 0.00000000
1, 1.0351, 102, -0.25375059, -0.21782415, 0.10278677, 9.19741535, 43.52329636, -9.68351555, -68.07950592, 30.89739799, -68.22566223, 83.45951080, -59.36675262, 25.34217834, -0.56026709, 0.64525515, -0.23372209, 0.46381101, -0.60711539, -0.28837419, -0.16109797, 100.35700226, 80.89166260, 28.82999992, 0.00000000
1, 1.0401, 103, -0.22821967, -0.16704492, 0.05371403, 14.09284496, 30.50647354, -20.04596710, -68.07950592, 30.89739799, -68.22566223, 83.29429626, -59.24918747, 25.61594009, -0.56058919, 0.64518601, -0.23212585, 0.46431923, -0.63159639, -0.34041831, -0.11387435, 100.35700226, 80.89166260, 28.82999992, 0.00000000
1, 1.3649, 120, -0.62994385, -0.48547363, 0.12524414, 22.13039780, -16.84266090, -37.41665268, -19.14644814, 0.81847411, -55.83162689, 100.69092560, -0.58156306, 85.57116699, 0.46568421, -0.56722742, -0.52058005, -0.43633452, 0.61894763, -0.49720070, 0.05976741, 100.28600311, 86.84960938, 28.76000023, 0.00000000
1, 1.3699, 121, -0.53350830, -0.49346924, 0.11303711, 25.17539978, -10.40266037, -32.37665176, -19.14644814, 0.81847411, -55.83162689, 100.81698608, -0.41281343, 85.55026245, 0.46591309, -0.56720066, -0.52164841, -0.43484658, 0.52562839, -0.48883799, 0.07407246, 100.28600311, 86.84960938, 28.76000023, 0.00000000
1, 1.3749, 122, -0.47271729, -0.49462891, 0.12268066, 27.69539833, -5.18765831, -27.05665016, -19.20491028, 2.63080978, -55.80239487, 100.95547485, -0.27508017, 85.55033112, 0.46585834, -0.56724560, -0.52273721, -0.43353707, 0.46738964, -0.48725402, 0.06673178, 100.28600311, 86.84960938, 28.76000023, 0.00000000
1, 1.2551, 104, -0.26599926, -0.69212592, -0.07106593, 57.42278671, -6.66309643, -314.06405640, -47.85150528, 12.24788094, -60.47939301, 98.54277802, -18.27115440, 15.05110741, -0.62289417, 0.75531906, -0.00471227, 0.20365164, -0.05381875, -0.24477778, 0.20910403, 100.35700226, 80.89166260, 28.82999992, 0.00000000
1, 1.2601, 105, -0.21667877, -0.76940393, -0.08083811, 59.98983383, -13.58578873, -316.43496704, -47.85150528, 12.24788094, -60.47939301, 98.78548431, -16.69577217, 15.22792244, -0.62369275, 0.75704277, 0.00586280, 0.19457485, -0.07702194, -0.17522806, 0.22394198, 100.35700226, 80.89166260, 28.82999992, 0.00000000
1, 1.3799, 123, -0.42834473, -0.48199463, 0.13464355, 31.12540054, 1.39234376, -21.21164894, -19.20491028, 2.63080978, -55.80239487, 101.11100006, -0.17231742, 85.57745361, 0.46545678, -0.56736743, -0.52387857, -0.43242982, 0.42491588, -0.49938893, 0.05738268, 100.28600311, 86.84960938, 28.76000023, 0.00000000
1, 1.3849, 124, -0.38281250, -0.49566650, 0.13470459, 34.17040253, 5.13734484, -17.08164597, -19.20491028, 2.63080978, -55.80239487, 101.28176880, -0.09353096, 85.61923218, 0.46481505, -0.56757331, -0.52504975, -0.43142837, 0.38086116, -0.48515671, 0.06018346, 100.28600311, 86.84960938, 28.76000023, 0.00000000
1, 1.2651, 106, -0.16395624, -0.92318738, -0.08745907, 63.61537170, -28.61622810, -318.76724243, -47.85150528, 12.24788094, -60.47939301, 99.07001495, -15.09810257, 15.33553028, -0.62426978, 0.75884074, 0.01613518, 0.18489905, -0.10303877, -0.02842641, 0.23623699, 100.35700226, 80.89166260, 28.82999992, 0.00000000
1, 1.2701, 107, -0.16093740, -1.06600332, -0.08209642, 64.27528381, -42.24018097, -319.80142212, -45.80532074, 11.63402462, -59.98246002, 99.37575531, -13.48506260, 15.38226891, -0.62471545, 0.76061070, 0.02607201, 0.17470630, -0.07890432, 0.10815528, 0.23679614, 100.35700226, 80.89166260, 28.82999992, 0.00000000
1, 1.2751, 108, -0.18605247, -1.18482745, -0.04390967, 62.80355835, -58.92183304, -320.46078491, -45.80532074, 11.63402462, -59.98246002, 99.69187164, -11.85537243, 15.35392189, -0.62510407, 0.76230878, 0.03555854, 0.16390832, -0.02625268, 0.22146425, 0.20467912, 100.35700226, 80.89166260, 28.82999992, 0.00000000
1, 1.4199, 125, -0.15502930, -0.68432617, 0.10723877, 48.94041061, 31.98235512, 3.25336099, -19.46799088, 3.74159598, -55.59777832, 102.78178406, -0.11815383, 86.38743591, 0.45437464, -0.57013041, -0.53438765, -0.42769739, 0.15319757, -0.29113409, 0.11292646, 100.28600311, 86.84960938, 28.76000023, 0.00000000
1, 1.4249, 126, -0.11810303, -0.75231934, 0.10162354, 55.06541443, 34.39735794, 4.75836134, -19.32183456, 2.80619693, -54.80853653, 103.05669403, -0.17979993, 86.54974365, 0.45211211, -0.57068890, -0.53597665, -0.42736170, 0.11524993, -0.22210062, 0.12309019, 100.28600311, 86.84960938, 28.76000023, 0.00000000
1, 1.2801, 109, -0.20081881, -1.26270473, 0.05112254, 58.47354889, -77.25450134, -320.10650635, -43.11604691, 11.16632557, -58.81321335, 100.00028229, -10.21161556, 15.24268913, -0.62553811, 0.76385283, 0.04449460, 0.15248381, 0.01633906, 0.29449219, 0.11569770, 100.35700226, 80.89166260, 28.82999992, 0.00000000
1, 1.2851, 110, -0.20455772, -1.29518664, 0.18316133, 51.69799042, -96.08409119, -318.78656006, -43.11604691, 11.16632557, -58.81321335, 100.28684998, -8.55766773, 15.04533768, -0.62608325, 0.76518261, 0.05281566, 0.14044932, 0.04815333, 0.32280901, -0.01058668, 100.35700226, 80.89166260, 28.82999992, 0.00000000
1, 1.2901, 111, -0.18959554, -1.30236709, 0.26607057, 43.61443329, -112.53241730, -317.00765991, -43.11604691, 11.16632557, -58.81321335, 100.53742218, -6.89695311, 14.77338982, -0.62678844, 0.76623023, 0.06056546, 0.12790377, 0.06165105, 0.32662600, -0.08831440, 100.35700226, 80.89166260, 28.82999992, 0.00000000
1, 1.4299, 127, -0.03332520, -0.83258057, 0.07800293, 60.91041183, 35.30735779, 7.48836231, -19.32183456, 2.80619693, -54.80853653, 103.36063385, -0.25658891, 86.71303558, 0.44962791, -0.57140458, -0.53761989, -0.42696202, 0.02919837, -0.14065796, 0.15175296, 100.28600311, 86.84960938, 28.76000023, 0.00000000
1, 1.4349, 128, 0.03582764, -0.90765381, 0.05999756, 65.74041748, 33.55735779, 10.56836414, -19.32183456, 2.80619693, -54.80853653, 103.68854523, -0.34719276, 86.86381531, 0.44700238, -0.57231396, -0.53923661, -0.42646149, -0.04148024, -0.06426901, 0.17522985, 100.28600311, 86.84960938, 28.76000023, 0.00000000
1, 1.4399, 129, 0.07586670, -0.95153809, 0.08312988, 69.73041534, 30.68735313, 11.79336357, -20.05261612, 4.76468849, -53.93159866, 104.03626251, -0.44119546, 86.99866486, 0.44431716, -0.57337719, -0.54083520, -0.42581478, -0.08315900, -0.01895079, 0.15790066, 100.28600311, 86.84960938, 28.76000023, 0.00000000
1, 1.2951, 112, -0.18612880, -1.31800354, 0.27309978, 37.29116058, -121.67756653, -315.56774902, -40.28062057, 10.31861973, -58.55013275, 100.75279236, -5.23395538, 14.46261597, -0.62758237, 0.76699227, 0.06796736, 0.11508131, 0.08700413, 0.33974314, -0.09094670, 100.35700226, 80.89166260, 28.82999992, 0.00000000
1, 1.3001, 113, -0.20011559, -1.35531890, 0.24725805, 34.19092560, -120.96268463, -314.52978516, -40.28062057, 10.31861973, -58.55013275, 100.94303131, -3.57569075, 14.16108513, -0.62833464, 0.76750106, 0.07532321, 0.10229525, 0.12991677, 0.37534821, -0.06140047, 100.35700226, 80.89166260, 28.82999992, 0.00000000
1, 1.4449, 130, 0.11791992, -0.85070801, 0.40350342, 82.15541840, 29.70735168, 10.95336342, -20.05261612, 4.76468849, -53.93159866, 104.44593048, -0.53079885, 87.12918854, 0.44135398, -0.57467204, -0.54265970, -0.42482847, -0.12680735, -0.11811918, -0.15593307, 100.28600311, 86.84960938, 28.76000023, 0.00000000
1, 1.4499, 131, 0.19067383, -0.90112305, 0.41522217, 96.50543213, 34.01235580, 6.36836195, -19.11721611, 5.67085648, -53.31774139, 104.92690277, -0.60475117, 87.28563690, 0.43800616, -0.57604516, -0.54493833, -0.42351487, -0.20092098, -0.06562921, -0.15972205, 100.28600311, 86.84960938, 28.76000023, 0.00000000
1, 1.4549, 132, 0.36273193, -0.89587402, 0.38623047, 108.86042786, 48.36235809, 0.24336010, -19.11721611, 5.67085648, -53.31774139, 105.46860504, -0.66932958, 87.51869965, 0.43410957, -0.57722992, -0.54786080, -0.42214113, -0.37414178, -0.06848659, -0.12189670, 100.28600311, 86.84960938, 28.76000023, 0.00000000
1, 1.4151, 114, 0.94303936, -1.23026454, 0.60169452, 30.80622864, 61.07437134, 49.45257568, -21.68956375, 7.86319780, -58.28704834, 101.43735504, 18.72658348, 11.32588291, -0.63407123, 0.74984199, 0.17786568, -0.06367566, -0.62216306, 0.30129623, -0.41448361, 100.35700226, 80.89166260, 28.82999992, 0.00000000
1, 1.4201, 115, 0.79715282, -1.16345465, 0.38633099, 15.27840805, 37.66542435, 68.75655365, -21.68956375, 7.86319780, -58.28704834, 101.55378723, 18.35254478, 11.44892597, -0.63345909, 0.75090301, 0.17662035, -0.06065994, -0.48163205, 0.23336941, -0.19663158, 100.35700226, 80.89166260, 28.82999992, 0.00000000
1, 1.4599, 133, 0.46411133, -0.94067383, 0.37127686, 121.18043518, 55.01236343, -4.30664158, -19.11721611, 5.67085648, -53.31774139, 106.07121277, -0.72336209, 87.78929138, 0.42981440, -0.57839918, -0.55123413, -0.42054126, -0.47651899, -0.02090451, -0.09703951, 100.28600311, 86.84960938, 28.76000023, 0.00000000
1, 1.4649, 134, 0.57177734, -1.00457764, 0.23071289, 127.48043060, 59.28236008, -9.10164261, -20.05261612, 5.29085064, -52.85004425, 106.70476532, -0.76335293, 88.08653259, 0.42533004, -0.57947230, -0.55490434, -0.41879272, -0.58494031, 0.04606551, 0.05402127, 100.28600311, 86.84960938, 28.76000023, 0.00000000
1, 1.4251, 116, 0.60548246, -1.06759596, 0.25224310, 8.03743458, 21.15526962, 92.43088531, -21.68956375, 7.86319780, -58.28704834, 101.59893036, 17.87868118, 11.46120930, -0.63326317, 0.75189328, 0.17415920, -0.05747177, -0.29714301, 0.13549533, -0.06144900, 100.35700226, 80.89166260, 28.82999992, 0.00000000
1, 1.4301, 117, 0.28187272, -0.94843018, 0.10708483, -1.85087132, -17.69665527, 115.74662018, -21.98187637, 8.30166626, -58.05319977, 101.52220917, 17.32617760, 11.24803638, -0.63376135, 0.75265586, 0.16985592, -0.05481572, 0.01805578, 0.01368360, 0.08299134, 100.35700226, 80.89166260, 28.82999992, 0.00000000
1, 1.4351, 118, 0.00028711, -0.87775075, -0.06741913, -6.71034145, -35.27796173, 134.07225037, -21.98187637, 8.30166626, -58.05319977, 101.39701080, 16.70364571, 10.92901707, -0.63453960, 0.75337625, 0.16449314, -0.05220935, 0.28997499, -0.06014993, 0.25564393, 100.35700226, 80.89166260, 28.82999992, 0.00000000
1, 1.5249, 135, 1.78472900, -1.42810059, -0.22991943, -54.90462494, -87.64768219, -10.36164284, -19.52645493, 8.18474102, -51.47617722, 109.45590210, -0.11936620, 87.04841614, 0.41812074, -0.59238619, -0.56179947, -0.39829031, -1.78762531, 0.48561391, 0.56414753, 100.28600311, 86.84960938, 28.76000023, 0.00000000
1, 1.5299, 136, 1.57312012, -1.20800781, -0.22381592, -55.74462891, -69.51768494, -8.12164211, -19.52645493, 8.18474102, -51.47617722, 109.17740631, 0.03395459, 86.73383331, 0.42140371, -0.59237355, -0.55976820, -0.39770865, -1.57315135, 0.26389664, 0.55344039, 100.28600311, 86.84960938, 28.76000023, 0.00000000
1, 1.4401, 119, -0.26796255, -0.82180214, -0.29182771, -9.30971050, -43.20639801, 150.11045837, -22.82958221, 8.33089733, -58.17012405, 101.24723816, 16.00941658, 10.55585480, -0.63546908, 0.75409150, 0.15838279, -0.04939754, 0.54745758, -0.11950439, 0.47774565, 100.35700226, 80.89166260, 28.82999992, 0.00000000
1, 1.4451, 120, -0.47248551, -0.77643919, -0.48603994, -7.20223856, -43.95332336, 163.21038818, -22.82958221, 8.33089733, -58.17012405, 101.10898590, 15.25073719, 10.16900349, -0.63632941, 0.75491655, 0.15180886, -0.04625851, 0.73998737, -0.16848312, 0.66984648, 100.35700226, 80.89166260, 28.82999992, 0.00000000
1, 1.4501, 121, -0.59018743, -0.80470371, -0.45298338, 3.43952274, -41.97405243, 174.61921692, -22.82958221, 8.33089733, -58.17012405, 101.02970123, 14.43357754, 9.78399086, -0.63681114, 0.75607383, 0.14488557, -0.04280533, 0.84407246, -0.14415959, 0.63552701, 100.35700226, 80.89166260, 28.82999992, 0.00000000
1, 1.5349, 137, 1.34429932, -1.04779053, -0.19598389, -50.77462769, -53.48767471, -5.07664156, -19.61414719, 8.21397209, -51.85618210, 108.92315674, 0.14524758, 86.48934174, 0.42410842, -0.59224099, -0.55803198, -0.39747086, -1.34220743, 0.10218718, 0.52129710, 100.28600311, 86.84960938, 28.76000023, 0.00000000
1, 1.5399, 138, 1.13995361, -0.98120117, -0.14935303, -44.50962448, -42.00766373, -1.22664034, -19.61414719, 8.21397209, -51.85618210, 108.69997406, 0.21878691, 86.29251099, 0.42630121, -0.59211379, -0.55651248, -0.39744499, -1.13641655, 0.03429911, 0.47085416, 100.28600311, 86.84960938, 28.76000023, 0.00000000
1, 1.5449, 139, 0.95812988, -0.97521973, -0.11151123, -40.44961929, -34.69266510, 2.76336098, -19.61414719, 8.21397209, -51.85618210, 108.49700928, 0.26102176, 86.12371063, 0.42813963, -0.59202844, -0.55509287, -0.39758125, -0.95372951, 0.02716563, 0.42958876, 100.28600311, 86.84960938, 28.76000023, 0.00000000
1, 1.4551, 122, -0.48055741, -1.05657923, -0.15551290, 26.53590012, -51.30837631, 177.08216858, -23.15112495, 8.62320995, -58.34551239, 101.05984497, 13.61330986, 9.35121250, -0.63655239, 0.75782341, 0.13757093, -0.03973591, 0.71972299, 0.10375579, 0.33863363, 100.35700226, 80.89166260, 28.82999992, 0.00000000
1, 1.5499, 140, 0.82757568, -0.97668457, -0.09936523, -39.43462372, -32.80266571, 6.29836273, -19.32183456, 7.89242887, -51.30078888, 108.29905701, 0.28289911, 85.95812988, 0.42984241, -0.59201187, -0.55363178, -0.39780566, -0.82271707, 0.02753642, 0.41415632, 100.28600311, 86.84960938, 28.76000023, 0.00000000
1, 1.5549, 141, 0.70507813, -0.98754883, -0.10418701, -40.02962112, -36.05766678, 8.78336334, -19.32183456, 7.89242887, -51.30078888, 108.09796143, 0.29748008, 85.77313232, 0.43159381, -0.59209752, -0.55203217, -0.39800483, -0.69994819, 0.03730887, 0.41566262, 100.28600311, 86.84960938, 28.76000023, 0.00000000
1, 1.5599, 142, 0.58349609, -0.99951172, -0.07482910, -40.72962189, -44.21266937, 8.53836250, -18.94182968, 7.04472351, -52.32388306, 107.89311218, 0.32515121, 85.54968262, 0.43356115, -0.59230208, -0.55026966, -0.39800313, -0.57800215, 0.04817379, 0.38292825, 100.28600311, 86.84960938, 28.76000023, 0.00000000
1, 1.4601, 123, -0.03549808, -1.26193035, 0.68034846, 49.29990005, -83.84134674, 163.36311340, -23.15112495, 8.62320995, -58.34551239, 101.17495728, 12.89231300, 8.76827049, -0.63567019, 0.76001495, 0.12975724, -0.03825821, 0.25984004, 0.30506200, -0.49425611, 100.35700226, 80.89166260, 28.82999992, 0.00000000
1, 1.5649, 143, 0.38500977, -1.00201416, -0.03680420, -43.00461960, -59.36767578, 5.98336220, -18.94182968, 7.04472351, -52.32388306, 107.67627716, 0.38732433, 85.25789642, 0.43599173, -0.59266013, -0.54824221, -0.39761248, -0.37855470, 0.04953910, 0.34135079, 100.28600311, 86.84960938, 28.76000023, 0.00000000
1, 1.5699, 144, 0.19097900, -0.96508789, -0.00292969, -44.54462051, -71.33768463, 1.99336088, -18.94182968, 7.04472351, -52.32388306, 107.45095062, 0.48545149, 84.91480255, 0.43881255, -0.59309417, -0.54605705, -0.39686847, -0.18297206, 0.01144184, 0.30375174, 100.28600311, 86.84960938, 28.76000023, 0.00000000
1, 1.4751, 124, 2.46479678, -1.73833144, 0.55684984, 50.41312408, -41.01979446, 43.40451431, -24.20344925, 8.91552162, -57.17626190, 101.65050507, 11.81894398, 7.21585417, -0.63210833, 0.76548213, 0.11343218, -0.04011640, -2.26070499, 0.77873158, -0.35684133, 100.35700226, 80.89166260, 28.82999992, 0.00000000
1, 1.4801, 125, 2.33119321, -2.12045622, -1.24994314, 21.34216118, -8.69726181, 38.83149338, -23.76498032, 9.41245270, -57.14703369, 101.73979950, 11.63869667, 7.13225079, -0.63150787, 0.76624286, 0.11186422, -0.03944777, -2.12550163, 1.16373062, 1.45154488, 100.35700226, 80.89166260, 28.82999992, 0.00000000
1, 1.4851, 126, 1.79330683, -1.99330342, -1.73617697, -7.29944515, -58.48245239, 62.51091385, -23.76498032, 9.41245270, -57.14703369, 101.63305664, 11.39124298, 6.77575207, -0.63213408, 0.76624656, 0.10817322, -0.03963965, -1.59022641, 1.03641021, 1.93584061, 100.35700226, 80.89166260, 28.82999992, 0.00000000
1, 1.6399, 145, -0.02563477, -1.33935547, 0.34729004, -17.24461555, -174.51771545, 61.24837494, -16.39871407, 6.48933077, -54.75007248, 106.65163422, 0.25581369, 79.75193024, 0.45950773, -0.61466026, -0.51523495, -0.38154745, 0.03024369, 0.38143745, -0.06028589, 100.28600311, 86.84960938, 28.76000023, 0.00000000
1, 1.6449, 146, -0.42480469, -1.21093750, 0.15832520, -28.82962036, -173.88772583, 52.81337738, -16.39871407, 6.48933077, -54.75007248, 106.50349426, 0.25083107, 78.84327698, 0.46329606, -0.61814457, -0.50983584, -0.37857816, 0.42916700, 0.25234035, 0.12640637, 100.28600311, 86.84960938, 28.76000023, 0.00000000
1, 1.6499, 147, -0.66821289, -0.99481201, 0.05957031, -32.85462189, -153.65771484, 44.13336945, -16.01870728, 5.78778124, -55.51008606, 106.33568573, 0.25636181, 78.04393768, 0.46685979, -0.62098461, -0.50498384, -0.37604713, 0.67267728, 0.03539653, 0.22238980, 100.28600311, 86.84960938, 28.76000023, 0.00000000
1, 1.6549, 148, -0.83502197, -0.75830078, 0.02850342, -27.11462021, -121.00269318, 41.68337631, -16.01870728, 5.78778124, -55.51008606, 106.19737244, 0.22574863, 77.40477753, 0.46956930, -0.62332582, -0.50093633, -0.37420925, 0.83915687, -0.20184389, 0.25096917, 100.28600311, 86.84960938, 28.76000023, 0.00000000
1, 1.6599, 149, -1.00665283, -0.65246582, 0.01464844, -18.08461571, -82.11768341, 42.10337067, -15.49254608, 5.20315695, -56.50394440, 106.10546875, 0.13775316, 76.95185089, 0.47116476, -0.62521082, -0.49780905, -0.37323084, 1.00949562, -0.30818653, 0.26309019, 100.28600311, 86.84960938, 28.76000023, 0.00000000
1, 1.4901, 127, 0.79932690, -1.44510329, -1.12897849, -38.91502380, -165.68714905, 110.62293243, -24.02806091, 9.17860222, -57.23472595, 101.25759888, 11.01149464, 5.83665085, -0.63437319, 0.76538938, 0.09995975, -0.04192789, -0.60380459, 0.48493811, 1.32193708, 100.35700226, 80.89166260, 28.82999992, 0.00000000
1, 1.4951, 128, 0.21510005, -0.86798680, 0.82649273, -25.12716675, -287.89355469, 138.13514709, -24.02806091, 9.17860222, -57.23472595, 100.83911896, 10.60619450, 4.26432848, -0.63664496, 0.76470935, 0.08740051, -0.04758106, -0.03138642, -0.09811200, -0.64095104, 100.35700226, 80.89166260, 28.82999992, 0.00000000
1, 1.5001, 129, -0.17982359, -0.88307106, 2.13135242, 4.90727377, -359.20233154, 140.50474548, -24.02806091, 9.17860222, -57.23472595, 100.51696014, 10.24548912, 2.33810163, -0.63804007, 0.76454091, 0.07269873, -0.05565213, 0.35388181, -0.08743100, -1.95234299, 100.35700226, 80.89166260, 28.82999992, 0.00000000
1, 1.6649, 150, -0.93853760, -0.68695068, 0.16430664, -4.95961142, -36.05766678, 37.34337234, -15.49254608, 5.20315695, -56.50394440, 106.08033752, 0.00831405, 76.72688293, 0.47147411, -0.62650543, -0.49596691, -0.37312207, 0.93928134, -0.27392015, 0.11268885, 100.28600311, 86.84960938, 28.76000023, 0.00000000
1, 1.6699, 151, -0.47784424, -0.89935303, 0.40850830, 23.00539589, 30.33735466, 25.09336853, -15.49254608, 5.20315695, -56.50394440, 106.19519043, -0.15437955, 76.83773041, 0.46977934, -0.62702644, -0.49627852, -0.37396926, 0.47587478, -0.06112815, -0.13017234, 100.28600311, 86.84960938, 28.76000023, 0.00000000
1, 1.6749, 152, -0.07379150, -1.14794922, 0.66564941, 37.63540649, 51.54735947, 22.46836662, -15.90178299, 5.43700647, -56.27009583, 106.38243866, -0.33450028, 77.05361938, 0.46726474, -0.62744045, -0.49733236, -0.37502351, 0.06876175, 0.18831393, -0.38444948, 100.28600311, 86.84960938, 28.76000023, 0.00000000
1, 1.5051, 130, -0.53359693, -1.01375926, 1.10775506, -8.93525791, -329.16558838, 127.72656250, -22.77112007, 8.97398376, -58.17012405, 100.16571045, 9.90992069, 0.57772791, -0.63960725, 0.76381761, 0.05927513, -0.06302159, 0.70437968, 0.04285180, -0.93540275, 100.35700226, 80.89166260, 28.82999992, 0.00000000
1, 1.5101, 131, -1.07261431, -0.98114645, -0.67503077, -14.59595966, -248.11349487, 119.95096588, -22.77112007, 8.97398376, -58.17012405, 99.86688995, 9.53265762, -0.76691097, -0.64101148, 0.76299149, 0.04837932, -0.06788171, 1.24160147, 0.01112688, 0.84080476, 100.35700226, 80.89166260, 28.82999992, 0.00000000
1, 1.5601, 132, 0.22596575, -1.45360005, 0.51598895, 12.40101242, -122.56753540, 168.72842407, -24.02806091, 8.79859638, -57.96550751, 100.81914520, 3.80005097, -4.21512413, -0.63557464, 0.77045196, -0.00720878, -0.04895711, -0.15786934, 0.47285047, -0.33080998, 100.35700226, 80.89166260, 28.82999992, 0.00000000
1, 1.5651, 133, -0.06853440, -1.04030490, 0.67536974, 66.14529419, -92.35162354, 159.68595886, -23.73575020, 6.16778708, -57.87781143, 101.11537933, 3.10364413, -4.81990433, -0.63362712, 0.77202189, -0.01527175, -0.04759936, 0.12398940, 0.05925368, -0.48636174, 100.35700226, 80.89166260, 28.82999992, 0.00000000
1, 1.6799, 153, 0.10833740, -1.42926025, 0.87615967, 43.76041031, 47.06736374, 26.66836929, -15.90178299, 5.43700647, -56.27009583, 106.59984589, -0.52913213, 77.24143219, 0.46460688, -0.62813830, -0.49827591, -0.37590432, -0.11671622, 0.47069916, -0.59139931, 100.28600311, 86.84960938, 28.76000023, 0.00000000
1, 1.6849, 154, 0.03588867, -1.72113037, 0.93218994, 38.79040527, 18.68235016, 33.17837143, -15.66793346, 5.43700647, -55.86085892, 106.79338074, -0.71482873, 77.28324127, 0.46259204, -0.62933785, -0.49838033, -0.37624413, -0.04758307, 0.76361668, -0.64404225, 100.28600311, 86.84960938, 28.76000023, 0.00000000
1, 1.5701, 134, -0.73244351, -1.03877580, 0.47603345, 99.48529816, -84.32678223, 147.78044128, -23.73575020, 6.16778708, -57.87781143, 101.58752441, 2.46243095, -5.37803268, -0.63049102, 0.77448082, -0.02277751, -0.04628024, 0.77693963, 0.05898566, -0.28095168, 100.35700226, 80.89166260, 28.82999992, 0.00000000
1, 1.5751, 135, -1.64860320, -1.10022008, 0.16365846, 81.31642151, -47.53349304, 130.55642700, -23.73575020, 6.16778708, -57.87781143, 101.98172760, 1.87225902, -5.74317265, -0.62793428, 0.77648139, -0.02865212, -0.04420876, 1.68339789, 0.12202258, 0.03637411, 100.35700226, 80.89166260, 28.82999992, 0.00000000
1, 1.5801, 136, -2.32713509, -1.10834181, 0.28668076, 53.21290588, 14.73717213, 117.88682556, -24.34960556, 7.83396673, -56.59164047, 102.24781799, 1.27802980, -5.79382801, -0.62635869, 0.77781552, -0.03235161, -0.04038966, 2.35134602, 0.13072237, -0.08320861, 100.35700226, 80.89166260, 28.82999992, 0.00000000
1, 1.5851, 137, -2.21716666, -1.20537353, 0.46013534, 20.95759201, 36.63992310, 112.36988831, -24.34960556, 7.83396673, -56.59164047, 102.35510254, 0.69040489, -5.73363781, -0.62587869, 0.77829200, -0.03519291, -0.03604208, 2.23057699, 0.22783256, -0.25391036, 100.35700226, 80.89166260, 28.82999992, 0.00000000
1, 1.5901, 138, -1.56855702, -0.77579737, -0.08574030, -25.99203682, -20.79259109, 105.39437103, -25.46039200, 9.20783424, -56.91318130, 102.22503662, 0.19697373, -5.94680548, -0.62687773, 0.77738702, -0.03929868, -0.03390124, 1.57420492, -0.20119499, 0.29312313, 100.35700226, 80.89166260, 28.82999992, 0.00000000
1, 1.5951, 139, -1.18966401, -0.41270402, -0.35236767, -42.97427750, -52.93244934, 100.28769684, -25.46039200, 9.20783424, -56.91318130, 102.01167297, -0.23885970, -6.31030750, -0.62837547, 0.77595794, -0.04408715, -0.03301577, 1.18816257, -0.56460208, 0.55786258, 100.35700226, 80.89166260, 28.82999992, 0.00000000
1, 1.7049, 155, -0.58392334, -0.59893799, 0.02435303, 7.92039251, -51.35267258, 39.23337173, -15.40485191, 4.47237635, -55.56854630, 106.87936401, -1.16202331, 76.17668915, 0.46377903, -0.63588434, -0.49071342, -0.37384543, 0.56421769, -0.35792878, 0.26550394, 100.28600311, 86.84960938, 28.76000023, 0.00000000
1, 1.7099, 156, -0.82635498, -0.54431152, 0.46221924, 32.87540054, -30.45766830, 43.15337372, -15.46331501, 4.56007004, -55.45162201, 107.04824829, -1.32399499, 75.96802521, 0.46281341, -0.63796812, -0.48943409, -0.37316859, 0.80399358, -0.41174024, -0.16987705, 100.28600311, 86.84960938, 28.76000023, 0.00000000
1, 1.7149, 157, -1.05932617, -0.61077881, 0.70336914, 35.04540253, -15.09266186, 45.35837555, -15.46331501, 4.56007004, -55.45162201, 107.22689819, -1.51848984, 75.82903290, 0.46142021, -0.63988811, -0.48843551, -0.37291485, 1.03370023, -0.34426531, -0.40801728, 100.28600311, 86.84960938, 28.76000023, 0.00000000
1, 1.7199, 158, -1.11236572, -0.65502930, 0.55108643, 26.22539902, -0.32265687, 43.32837296, -15.46331501, 4.56007004, -55.45162201, 107.35987854, -1.72486997, 75.76305389, 0.45998880, -0.64134324, -0.48764464, -0.37321845, 1.08317113, -0.29916951, -0.25334260, 100.28600311, 86.84960938, 28.76000023, 0.00000000
1, 1.7249, 159, -1.01837158, -0.66711426, 0.28900146, 19.15539551, 13.95734787, 39.23337173, -15.58023930, 5.34931278, -55.71470261, 107.45538330, -1.93294525, 75.77095032, 0.45851603, -0.64233392, -0.48713768, -0.37398827, 0.98555267, -0.28644103, 0.01042210, 100.28600311, 86.84960938, 28.76000023, 0.00000000
1, 1.6001, 140, -0.73391914, -0.01312668, -0.39255014, -20.45961380, 3.74167037, 90.80123901, -25.46039200, 9.20783424, -56.91318130, 101.91083527, -0.68721318, -6.38530636, -0.62919557, 0.77522612, -0.04702570, -0.03043169, 0.72493780, -0.96460450, 0.59729469, 100.35700226, 80.89166260, 28.82999992, 0.00000000
1, 1.6051, 141, -0.17301661, -0.07055949, -0.10784309, 18.06076813, 114.45907593, 86.32501984, -25.81116676, 8.94475269, -57.26395798, 101.99411774, -1.22696388, -5.91371727, -0.62891585, 0.77568680, -0.04681396, -0.02415354, 0.15432325, -0.90736830, 0.31453207, 100.35700226, 80.89166260, 28.82999992, 0.00000000
1, 1.7299, 160, -0.88299561, -0.67889404, 0.19757080, 21.22039795, 30.33735466, 36.18836975, -15.58023930, 5.34931278, -55.71470261, 107.55825043, -2.15114617, 75.86123657, 0.45668483, -0.64303094, -0.48707530, -0.37511069, 0.84643286, -0.27402425, 0.10344212, 100.28600311, 86.84960938, 28.76000023, 0.00000000
1, 1.7349, 161, -0.71630859, -0.78448486, 0.40441895, 28.36039925, 46.78736115, 35.76837158, -16.31101990, 5.61239386, -55.62701035, 107.69334412, -2.39243007, 76.03017426, 0.45430747, -0.64358771, -0.48746616, -0.37653193, 0.67564309, -0.16761014, -0.10133477, 100.28600311, 86.84960938, 28.76000023, 0.00000000
1, 1.7399, 162, -0.45440674, -1.00347900, 0.67395020, 29.37540054, 59.35237122, 37.37837219, -16.31101990, 5.61239386, -55.62701035, 107.83025360, -2.66094828, 76.25599670, 0.45160365, -0.64398646, -0.48807296, -0.37831283, 0.40917915, 0.05230865, -0.36861843, 100.28600311, 86.84960938, 28.76000023, 0.00000000
1, 1.6501, 142, -0.76170820, -0.91244304, 0.42055827, -0.25170922, -29.60548401, 62.09298706, -28.14966393, 8.97398376, -56.76702499, 102.71343231, -4.69979525, -6.90293598, -0.62474120, 0.77743500, -0.07254000, -0.00559695, 0.67989910, -0.06055970, -0.20466071, 100.35700226, 80.89166260, 28.82999992, 0.00000000
1, 1.6551, 143, -0.74992287, -0.92022276, 0.41331881, 6.58602905, -3.96796060, 61.60050583, -28.20812607, 9.73399544, -56.59164047, 102.75447083, -4.99591351, -6.98997831, -0.62451321, 0.77741992, -0.07473603, -0.00402780, 0.66310364, -0.05223005, -0.19692999, 100.35700226, 80.89166260, 28.82999992, 0.00000000
1, 1.7449, 163, -0.23376465, -1.10369873, 0.75891113, 23.91539764, 65.86236572, 39.26836777, -16.31101990, 5.61239386, -55.62701035, 107.93743134, -2.94896960, 76.50936890, 0.44887799, -0.64420307, -0.48865873, -0.38042569, 0.18362960, 0.15339264, -0.45166081, 100.28600311, 86.84960938, 28.76000023, 0.00000000
1, 1.7499, 164, -0.04473877, -1.14398193, 0.77410889, 14.85039520, 67.78736877, 41.85837173, -17.39257431, 5.70008755, -54.60391617, 107.99773407, -3.25261402, 76.76757813, 0.44631752, -0.64425725, -0.48905322, -0.38283184, -0.01067882, 0.19430485, -0.46582258, 100.28600311, 86.84960938, 28.76000023, 0.00000000
1, 1.8099, 165, -0.16308594, -1.02874756, 0.42700195, 20.62539482, 18.96235085, 57.74838257, -19.61414719, 4.06313944, -54.10698700, 108.98117828, -6.40968084, 77.03521729, 0.42540532, -0.65612912, -0.48073536, -0.39675999, 0.05278040, 0.08874563, -0.10415973, 100.28600311, 86.84960938, 28.76000023, 0.00000000
1, 1.8149, 166, -0.12701416, -1.03308105, 0.42932129, 20.97539711, 18.92734909, 60.47838211, -19.61414719, 4.06313944, -54.10698700, 109.08710480, -6.72640228, 77.02600098, 0.42335901, -0.65745658, -0.47971633, -0.39798278, 0.01128069, 0.09425911, -0.10494959, 100.28600311, 86.84960938, 28.76000023, 0.00000000
1, 1.6601, 144, -0.84062314, -1.01261723, 0.37710220, 8.60597420, -3.67288494, 60.17974091, -28.20812607, 9.73399544, -56.59164047, 102.80582428, -5.28532457, -7.07429409, -0.62421274, 0.77745897, -0.07687554, -0.00248107, 0.74880123, 0.04086011, -0.16032442, 100.35700226, 80.89166260, 28.82999992, 0.00000000
1, 1.6651, 145, -0.94384599, -1.07689083, 0.28723735, 2.64607930, -0.19158049, 55.18591690, -28.52966881, 9.64630222, -56.41625214, 102.82556915, -5.55423737, -7.13627100, -0.62412232, 0.77734727, -0.07875028, -0.00097233, 0.84748459, 0.10583138, -0.07041280, 100.35700226, 80.89166260, 28.82999992, 0.00000000
1, 1.6701, 146, -0.84347254, -1.02740598, 0.23661652, -3.27969694, 20.70825386, 48.64391708, -28.52966881, 9.64630222, -56.41625214, 102.80500031, -5.81432199, -7.08860540, -0.62430161, 0.77709275, -0.07983284, 0.00104582, 0.74270225, 0.05681837, -0.01976363, 100.35700226, 80.89166260, 28.82999992, 0.00000000
1, 1.8199, 167, -0.11529541, -1.04040527, 0.40679932, 19.92539597, 17.52734947, 62.43837357, -20.19877243, 4.79392004, -54.10698700, 109.18910980, -7.05006504, 77.00629425, 0.42133439, -0.65882438, -0.47859284, -0.39922002, -0.00603133, 0.10280515, -0.08094107, 100.28600311, 86.84960938, 28.76000023, 0.00000000
1, 1.8249, 168, -0.09582520, -1.03674316, 0.36120605, 18.70039558, 14.83234787, 64.36338043, -20.19877243, 4.79392004, -54.10698700, 109.28717041, -7.37834072, 76.96999359, 0.41936406, -0.66025096, -0.47733897, -0.40043738, -0.03117332, 0.10037006, -0.03398358, 100.28600311, 86.84960938, 28.76000023, 0.00000000
1, 1.8299, 169, -0.08496094, -1.04010010, 0.32928467, 18.59539604, 12.06734848, 65.23838043, -20.19877243, 4.79392004, -54.10698700, 109.38691711, -7.70611238, 76.91846466, 0.41743517, -0.66173613, -0.47600308, -0.40158960, -0.04771306, 0.10499600, -0.00068818, 100.28600311, 86.84960938, 28.76000023, 0.00000000
1, 1.6751, 147, -0.58701861, -0.95786345, 0.29230553, -2.79737282, 44.56995010, 44.36932755, -28.52966881, 9.64630222, -56.41625214, 102.77397156, -6.07975197, -6.91905165, -0.62454402, 0.77686012, -0.08011874, 0.00375697, 0.48153439, -0.01247207, -0.07531825, 100.35700226, 80.89166260, 28.82999992, 0.00000000
1, 1.6801, 148, -0.37798408, -0.95122147, 0.35431629, -0.29182285, 48.83881378, 43.00204468, -28.64659500, 9.23706532, -56.56240845, 102.76101685, -6.35663700, -6.72784090, -0.62465376, 0.77673161, -0.08032018, 0.00667681, 0.26762393, -0.01879731, -0.13725430, 100.35700226, 80.89166260, 28.82999992, 0.00000000
1, 1.6851, 149, -0.29000646, -1.00399721, 0.33135548, -0.98465973, 35.21367645, 41.52938461, -28.64659500, 9.23706532, -56.56240845, 102.74230957, -6.59782982, -6.60074520, -0.62479317, 0.77654994, -0.08076419, 0.00899985, 0.17529638, 0.03444605, -0.11450365, 100.35700226, 80.89166260, 28.82999992, 0.00000000
1, 1.8349, 170, -0.07800293, -1.04675293, 0.32354736, 19.43539619, 8.49734592, 65.79839325, -20.66647148, 3.77082729, -53.66851807, 109.49369812, -8.03049088, 76.84837341, 0.41554260, -0.66330487, -0.47459644, -0.40262792, -0.06029933, 0.11298092, 0.00651319, 100.28600311, 86.84960938, 28.76000023, 0.00000000
1, 1.8399, 171, -0.08789063, -1.06176758, 0.31781006, 19.12039757, 4.85734510, 66.11338806, -20.66647148, 3.77082729, -53.66851807, 109.60192871, -8.35012913, 76.75975800, 0.41372523, -0.66493231, -0.47310483, -0.40356940, -0.05595493, 0.12936144, 0.01373928, 100.28600311, 86.84960938, 28.76000023, 0.00000000
1, 1.8449, 172, -0.12640381, -1.06463623, 0.30535889, 18.35039520, 1.60234380, 65.97338104, -21.10494041, 5.23238802, -53.66851807, 109.70915985, -8.66346741, 76.65519714, 0.41199619, -0.66659433, -0.47154075, -0.40442622, -0.02288462, 0.13361444, 0.02767166, 100.28600311, 86.84960938, 28.76000023, 0.00000000
1, 1.6901, 150, -0.23494719, -1.02446496, 0.22415905, -4.81469870, 24.98977089, 39.44162750, -29.64045525, 6.75241137, -56.79625702, 102.70944977, -6.81764317, -6.52142334, -0.62502450, 0.77627087, -0.08141828, 0.01090653, 0.11661844, 0.05542367, -0.00778083, 100.35700226, 80.89166260, 28.82999992, 0.00000000
1, 1.6951, 151, -0.13122812, -0.99289727, 0.16460715, -5.18667698, 25.87205696, 37.36426163, -29.64045525, 6.75241137, -56.79625702, 102.67361450, -7.02823782, -6.43530750, -0.62527013, 0.77598560, -0.08197783, 0.01278497, 0.00936058, 0.02424313, 0.05134447, 100.35700226, 80.89166260, 28.82999992, 0.00000000
1, 1.8499, 173, -0.20043945, -1.05035400, 0.30010986, 18.28039551, 0.13234328, 65.23838043, -21.10494041, 5.23238802, -53.66851807, 109.81758118, -8.97067165, 76.54420471, 0.41030872, -0.66826004, -0.46996617, -0.40522495, 0.04582955, 0.12073103, 0.03439701, 100.28600311, 86.84960938, 28.76000023, 0.00000000
1, 1.8549, 174, -0.25390625, -1.05712891, 0.30554199, 18.17539597, 1.60234380, 64.18838501, -21.10494041, 5.23238802, -53.66851807, 109.92476654, -9.27522564, 76.44134521, 0.40860921, -0.66987050, -0.46844256, -0.40604636, 0.09404079, 0.12892260, 0.03042528, 100.28600311, 86.84960938, 28.76000023, 0.00000000
1, 1.9049, 175, -0.04071045, -1.04229736, 0.14782715, 12.61039448, 58.75736618, 56.24337769, -23.73575020, 5.02776957, -52.55773163, 110.56842041, -12.73547554, 77.17754364, 0.38554162, -0.67793310, -0.46016043, -0.42428386, -0.17817926, 0.12871692, 0.19489054, 100.28600311, 86.84960938, 28.76000023, 0.00000000
1, 1.9099, 176, -0.05218506, -1.02893066, 0.13580322, 11.63039398, 61.94236374, 55.33337784, -24.58345413, 4.67699480, -52.76234818, 110.58235168, -13.10334110, 77.37527466, 0.38292700, -0.67808849, -0.45977792, -0.42681068, -0.17295589, 0.11678091, 0.20667578, 100.28600311, 86.84960938, 28.76000023, 0.00000000
1, 1.7801, 152, -0.40199295, -1.02136922, 0.02734607, 6.69910622, 54.49614716, 22.99804688, -32.59280777, 9.41245270, -56.76702499, 102.29797363, -9.90865326, -4.92892408, -0.62726808, 0.77282292, -0.08748649, 0.04032159, 0.23070991, 0.05872609, 0.17996545, 100.35700226, 80.89166260, 28.82999992, 0.00000000
1, 1.7851, 153, -0.39396420, -0.99811864, 0.08354502, 8.04168510, 66.94870758, 22.75198746, -32.59280777, 9.41245270, -56.76702499, 102.28498077, -10.09047794, -4.62107563, -0.62720799, 0.77283639, -0.08640131, 0.04323028, 0.21934591, 0.03586731, 0.12341261, 100.35700226, 80.89166260, 28.82999992, 0.00000000
1, 1.9149, 177, -0.05297852, -1.00946045, 0.14758301, 11.17539406, 65.65236664, 54.84337616, -24.58345413, 4.67699480, -52.76234818, 110.58841705, -13.47546959, 77.59195709, 0.38025519, -0.67814797, -0.45945698, -0.42944223, -0.17846748, 0.09874149, 0.19450043, 100.28600311, 86.84960938, 28.76000023, 0.00000000
1, 1.9199, 178, -0.04095459, -0.99505615, 0.19366455, 11.24539471, 69.04737091, 54.07337570, -25.40192986, 4.73545742, -52.76234818, 110.58918762, -13.84997654, 77.82671356, 0.37752220, -0.67811978, -0.45920986, -0.43215391, -0.19683741, 0.08578453, 0.14791624, 100.28600311, 86.84960938, 28.76000023, 0.00000000
1, 1.9249, 179, 0.01977539, -0.98339844, 0.24395752, 11.42039394, 71.63736725, 52.98838043, -25.40192986, 4.73545742, -52.76234818, 110.58575439, -14.22395134, 78.07630920, 0.37474683, -0.67801356, -0.45903382, -0.43491423, -0.26390806, 0.07558638, 0.09703194, 100.28600311, 86.84960938, 28.76000023, 0.00000000
1, 1.7901, 154, -0.25129780, -1.01379490, 0.19368669, 6.10156775, 74.64311981, 23.66112709, -32.94358444, 9.61707115, -56.88395309, 102.25471497, -10.28477192, -4.27575588, -0.62723368, 0.77277094, -0.08513869, 0.04641540, 0.07310681, 0.05185057, 0.01306512, 100.35700226, 80.89166260, 28.82999992, 0.00000000
1, 1.7951, 155, -0.02693156, -0.98890579, 0.31335267, 0.87689948, 71.33004761, 23.40330124, -32.94358444, 9.61707115, -56.88395309, 102.20003510, -10.47414112, -3.94628620, -0.62741673, 0.77256137, -0.08396836, 0.04946233, -0.15483658, 0.02717063, -0.10695384, 100.35700226, 80.89166260, 28.82999992, 0.00000000
1, 1.8001, 156, 0.17734513, -0.98063397, 0.32219777, -4.05035925, 64.07662964, 23.43334579, -33.73282623, 9.76322746, -57.17626190, 102.12622833, -10.65576172, -3.65251827, -0.62773299, 0.77222490, -0.08300817, 0.05224769, -0.36229452, 0.01920699, -0.11656453, 100.35700226, 80.89166260, 28.82999992, 0.00000000
1, 1.9299, 180, 0.13604736, -0.97076416, 0.27539063, 10.65039349, 73.56237030, 50.11837387, -25.40192986, 4.73545742, -52.76234818, 110.57318115, -14.58784485, 78.34088135, 0.37200445, -0.67779040, -0.45895255, -0.43769339, -0.38638374, 0.06437436, 0.06488375, 100.28600311, 86.84960938, 28.76000023, 0.00000000
1, 1.9349, 181, 0.23797607, -0.94781494, 0.27349854, 9.49539280, 72.93237305, 48.12337494, -26.65887070, 4.76468849, -52.20695496, 110.55293274, -14.94121170, 78.60656738, 0.36934137, -0.67751032, -0.45889109, -0.44043806, -0.49432862, 0.04278702, 0.06592087, 100.28600311, 86.84960938, 28.76000023, 0.00000000
1, 1.9399, 182, 0.31439209, -0.93225098, 0.28057861, 8.34039307, 71.04236603, 46.65337372, -26.65887070, 4.76468849, -52.20695496, 110.52690887, -15.28428173, 78.86633301, 0.36677319, -0.67720890, -0.45881388, -0.44311997, -0.57656586, 0.02854488, 0.05791502, 100.28600311, 86.84960938, 28.76000023, 0.00000000
1, 1.8051, 157, 0.28357014, -0.92703342, 0.25268635, -6.19479275, 53.18850708, 23.51659012, -33.73282623, 9.76322746, -57.17626190, 102.05083466, -10.82612133, -3.41262841, -0.62807703, 0.77184802, -0.08235394, 0.05466092, -0.47130671, -0.03400944, -0.04810823, 100.35700226, 80.89166260, 28.82999992, 0.00000000
1, 1.8101, 158, 0.30785111, -0.90975642, 0.31162924, -2.59415507, 44.17964172, 25.74473000, -33.73282623, 9.76322746, -57.17626190, 102.00166321, -10.99776649, -3.21963024, -0.62825823, 0.77157909, -0.08201264, 0.05684476, -0.49865854, -0.05103549, -0.10802418, 100.35700226, 80.89166260, 28.82999992, 0.00000000
1, 1.8151, 159, 0.24967705, -0.94122171, 0.36939281, -2.14100862, 33.90093613, 28.96413040, -34.66822433, 9.85092068, -57.17626190, 101.96467590, -11.17442322, -3.08101392, -0.62837636, 0.77133334, -0.08206036, 0.05877277, -0.44362488, -0.01922905, -0.16674626, 100.35700226, 80.89166260, 28.82999992, 0.00000000
1, 1.9449, 183, 0.34906006, -0.89385986, 0.25714111, 8.13039398, 66.49236298, 45.53337097, -26.89272118, 4.61853266, -52.09003067, 110.50355530, -15.61402225, 79.10661316, 0.36431915, -0.67696077, -0.45868695, -0.44564795, -0.61684597, -0.00855020, 0.08041608, 100.28600311, 86.84960938, 28.76000023, 0.00000000
1, 1.8201, 160, 0.17336886, -0.92981064, 0.33974028, -2.92346072, 22.68881989, 31.44091225, -34.66822433, 9.85092068, -57.17626190, 101.93479919, -11.35161591, -3.00074959, -0.62847197, 0.77108353, -0.08250120, 0.06038909, -0.37029886, -0.03011865, -0.13795713, 100.35700226, 80.89166260, 28.82999992, 0.00000000
1, 1.8251, 161, 0.01160780, -0.90606034, 0.26602620, -2.67063808, 14.19295120, 34.31978607, -35.19438553, 9.79245853, -57.41011429, 101.91495514, -11.53415108, -2.96578646, -0.62851888, 0.77085066, -0.08327127, 0.06179978, -0.21143141, -0.05321268, -0.06507344, 100.35700226, 80.89166260, 28.82999992, 0.00000000
1, 1.9499, 184, 0.35540771, -0.87933350, 0.24719238, 7.81539297, 62.32736969, 45.00837326, -26.89272118, 4.61853266, -52.09003067, 110.48243713, -15.93392372, 79.32807922, 0.36196360, -0.67677003, -0.45849764, -0.44804546, -0.62860507, -0.02177844, 0.08949543, 100.28600311, 86.84960938, 28.76000023, 0.00000000
1, 1.8751, 162, 0.22972690, -0.87649488, -0.06146877, 6.93712234, 44.82889175, 54.55692673, -37.21134186, 8.30166626, -57.81935120, 101.76123047, -14.00340557, -1.65783417, -0.62753606, 0.76885390, -0.08804275, 0.08550359, -0.47019887, -0.07364390, 0.25845736, 100.35700226, 80.89166260, 28.82999992, 0.00000000
1, 1.8801, 163, 0.25943726, -0.90326107, -0.04782142, 6.57500315, 40.53376389, 59.26130676, -37.21134186, 8.30166626, -57.81935120, 101.74528503, -14.30524635, -1.51122642, -0.62735510, 0.76860511, -0.08871710, 0.08832459, -0.50524539, -0.04562907, 0.24442217, 100.35700226, 80.89166260, 28.82999992, 0.00000000
1, 2.0099, 185, 0.27331543, -0.86181641, 0.05816650, 0.08039033, 28.34235382, 28.34836769, -30.54662323, 5.58316278, -51.73925781, 110.36714935, -18.85153008, 80.93798828, 0.34122506, -0.67682576, -0.45452118, -0.46784928, -0.59568697, -0.02557635, 0.27139395, 100.28600311, 86.84960938, 28.76000023, 0.00000000
1, 2.0149, 186, 0.23065186, -0.88427734, 0.04949951, -0.37460983, 26.06735039, 28.31336975, -30.54662323, 5.58316278, -51.73925781, 110.34023285, -19.02958107, 81.01513672, 0.34014070, -0.67684859, -0.45406497, -0.46904746, -0.55597436, -0.00232601, 0.27928489, 100.28600311, 86.84960938, 28.76000023, 0.00000000
1, 2.0199, 187, 0.18005371, -0.93762207, 0.07482910, -0.47960991, 24.35235214, 28.55836868, -30.37123680, 5.08623219, -52.03157043, 110.31546021, -19.20578003, 81.08348083, 0.33908743, -0.67690796, -0.45357251, -0.47019935, -0.50828826, 0.05182047, 0.25322109, 100.28600311, 86.84960938, 28.76000023, 0.00000000
1, 1.8851, 164, 0.28271365, -0.93472803, -0.03363849, 4.60921192, 32.97727966, 61.38461304, -37.21134186, 8.30166626, -57.81935120, 101.74343109, -14.63908482, -1.40844667, -0.62708402, 0.76836705, -0.08984930, 0.09113043, -0.53395587, -0.01285913, 0.22981483, 100.35700226, 80.89166260, 28.82999992, 0.00000000
1, 1.8901, 165, 0.30738023, -0.94492638, -0.01375405, 1.78460109, 22.84287071, 63.21203995, -37.73750305, 10.84478188, -58.08243179, 101.74046326, -14.97167873, -1.35874462, -0.62685490, 0.76807821, -0.09133121, 0.09363542, -0.56428695, -0.00125819, 0.20962994, 100.35700226, 80.89166260, 28.82999992, 0.00000000
1, 1.8951, 166, 0.23731054, -0.95561230, 0.05150681, -0.15180978, 15.65064049, 64.67765045, -37.73750305, 10.84478188, -58.08243179, 101.73743439, -15.30420685, -1.34697294, -0.62665057, 0.76775318, -0.09306659, 0.09593146, -0.49998844, 0.01078660, 0.14381719, 100.35700226, 80.89166260, 28.82999992, 0.00000000
1, 1.9001, 167, 0.15922008, -0.96255422, 0.11431690, -1.06737912, 9.08603477, 65.02357483, -37.70827103, 8.71090317, -58.17012405, 101.73876190, -15.63181496, -1.36889338, -0.62644345, 0.76742280, -0.09499647, 0.09801291, -0.42758924, 0.01911641, 0.08049079, 100.35700226, 80.89166260, 28.82999992, 0.00000000
1, 1.9051, 168, 0.04720625, -0.95489109, 0.20607881, -2.00363493, 1.55291569, 66.53844452, -37.70827103, 8.71090317, -58.17012405, 101.74642944, -15.95924664, -1.43080485, -0.62622464, 0.76708645, -0.09718661, 0.09987934, -0.32129729, 0.01283697, -0.01175113, 100.35700226, 80.89166260, 28.82999992, 0.00000000
1, 1.9101, 169, -0.06406801, -0.96530068, 0.19336140, -2.60495090, -6.97702217, 69.07685089, -37.70827103, 8.71090317, -58.17012405, 101.76435852, -16.29048157, -1.53904831, -0.62597281, 0.76675349, -0.09969692, 0.10152678, -0.21553344, 0.02487822, 0.00059096, 100.35700226, 80.89166260, 28.82999992, 0.00000000
1, 2.0249, 188, 0.12103271, -1.00244141, 0.11114502, -2.47461057, 23.86235046, 28.90836906, -30.37123680, 5.08623219, -52.03157043, 110.28147125, -19.38273811, 81.14890289, 0.33809468, -0.67695302, -0.45302033, -0.47138014, -0.45217878, 0.11741833, 0.21607926, 100.28600311, 86.84960938, 28.76000023, 0.00000000
1, 2.0299, 189, 0.07849121, -1.01403809, 0.07452393, -4.99461174, 22.95235062, 28.73336983, -30.92663002, 5.23238802, -51.85618210, 110.23602295, -19.55725098, 81.21033478, 0.33719710, -0.67697436, -0.45240697, -0.47258008, -0.41253045, 0.12972109, 0.25166708, 100.28600311, 86.84960938, 28.76000023, 0.00000000
1, 2.0349, 190, 0.03521729, -1.03173828, 0.09790039, -5.65961170, 22.60235023, 28.55836868, -30.92663002, 5.23238802, -51.85618210, 110.18747711, -19.73029327, 81.27056122, 0.33632880, -0.67698789, -0.45177868, -0.47377902, -0.37209702, 0.14810337, 0.22721623, 100.28600311, 86.84960938, 28.76000023, 0.00000000
1, 1.9151, 170, -0.20779669, -0.98446238, 0.12493419, -2.85619140, -15.14486122, 71.16374969, -38.58520889, 10.99093819, -57.67319489, 101.79415894, -16.62362480, -1.69152415, -0.62567842, 0.76643336, -0.10250066, 0.10295641, -0.07720639, 0.04584958, 0.06875090, 100.35700226, 80.89166260, 28.82999992, 0.00000000
1, 1.9201, 171, -0.32917550, -0.96490121, 0.09291886, -2.51681352, -10.76297188, 71.57933807, -38.58520889, 10.99093819, -57.67319489, 101.82028198, -16.96316528, -1.82246196, -0.62538445, 0.76609325, -0.10519579, 0.10454419, 0.03861280, 0.02809252, 0.10060324, 100.35700226, 80.89166260, 28.82999992, 0.00000000
1, 2.0399, 191, -0.00988770, -1.02331543, 0.10241699, -6.18461227, 22.18235016, 28.69837189, -30.92663002, 5.23238802, -51.85618210, 110.13686371, -19.90321922, 81.32865143, 0.33548051, -0.67700338, -0.45112801, -0.47497666, -0.32983500, 0.14035314, 0.22156669, 100.28600311, 86.84960938, 28.76000023, 0.00000000
1, 2.0449, 192, -0.02380371, -1.00970459, 0.15002441, -5.93961191, 21.09734917, 28.76836967, -31.27740479, 5.37854433, -52.58696365, 110.08913422, -20.07456779, 81.38142395, 0.33464399, -0.67704469, -0.45046341, -0.47613731, -0.31873605, 0.12742658, 0.17285548, 100.28600311, 86.84960938, 28.76000023, 0.00000000
1, 2.0001, 172, -0.20297630, -0.89722002, 0.33251473, -0.14091484, -17.54864693, 91.15679932, -41.97602844, 11.80941200, -57.76088715, 102.15216064, -23.36134720, -2.85198641, -0.61900622, 0.75846827, -0.14612156, 0.14214723, -0.19266644, -0.00156678, -0.14139843, 100.35700226, 80.89166260, 28.82999992, 0.00000000
1, 2.0051, 173, -0.32565415, -0.98717988, 0.29718071, -2.62448311, -23.66071320, 92.40975952, -41.97602844, 11.80941200, -57.76088715, 102.23292542, -23.78836441, -3.08387113, -0.61835676, 0.75795335, -0.14982985, 0.14384975, -0.07674617, 0.09162922, -0.10587515, 100.35700226, 80.89166260, 28.82999992, 0.00000000
1, 2.1299, 193, 0.02655029, -0.95953369, 0.28356934, 1.65539098, 11.50734806, 35.76837158, -32.47588348, 4.73545742, -52.11926270, 109.88705444, -22.88422966, 81.65773773, 0.31980854, -0.68158352, -0.43833816, -0.49094409, -0.41465628, 0.09286600, 0.02989550, 100.28600311, 86.84960938, 28.76000023, 0.00000000
1, 2.1349, 194, -0.01483154, -1.01037598, 0.26593018, 1.37539077, 12.55734825, 37.13337326, -32.47588348, 4.73545742, -52.11926270, 109.89568329, -23.08017921, 81.65324402, 0.31873155, -0.68204296, -0.43743789, -0.49180868, -0.37639242, 0.14499770, 0.04722085, 100.28600311, 86.84960938, 28.76000023, 0.00000000
1, 2.0101, 174, -0.46904722, -0.99229026, 0.21372265, -3.66023135, -20.42402077, 92.14956665, -41.97602844, 11.80941200, -57.76088715, 102.30345154, -24.21726227, -3.29950953, -0.61775410, 0.75737870, -0.15344606, 0.14564303, 0.06002913, 0.10008053, -0.02227585, 100.35700226, 80.89166260, 28.82999992, 0.00000000
1, 2.0151, 175, -0.52662414, -0.97998345, 0.22223546, -0.99963075, -8.16608810, 91.77693939, -42.88219833, 12.36480522, -57.87781143, 102.36191559, -24.65706635, -3.45018530, -0.61713767, 0.75678807, -0.15669920, 0.14784600, 0.11063725, 0.09103541, -0.03063437, 100.35700226, 80.89166260, 28.82999992, 0.00000000
1, 2.0201, 176, -0.49351010, -1.00125170, 0.30255824, 0.16658786, -4.54020596, 92.05883026, -42.88219833, 12.36480522, -57.87781143, 102.41965485, -25.10197067, -3.58270359, -0.61649561, 0.75619143, -0.15985376, 0.15018168, 0.07027994, 0.11554228, -0.11071312, 100.35700226, 80.89166260, 28.82999992, 0.00000000
1, 2.1399, 195, -0.05017090, -1.02697754, 0.26251221, 1.23539066, 13.64234829, 38.70837021, -32.47588348, 4.73545742, -52.11926270, 109.90260315, -23.28537941, 81.65135956, 0.31760326, -0.68250513, -0.43650150, -0.49272865, -0.34430665, 0.16294761, 0.05028029, 100.28600311, 86.84960938, 28.76000023, 0.00000000
1, 2.1449, 196, -0.06506348, -1.01275635, 0.25036621, 1.72539091, 15.18234825, 40.00337219, -33.46974564, 5.61239386, -51.88541412, 109.90981293, -23.49929428, 81.65492249, 0.31640208, -0.68296331, -0.43555689, -0.49370137, -0.33280855, 0.15014207, 0.06203335, 100.28600311, 86.84960938, 28.76000023, 0.00000000
1, 2.1499, 197, -0.07458496, -1.00128174, 0.26367188, 1.44539070, 18.22735023, 41.54337311, -33.46974564, 5.61239386, -51.88541412, 109.91050720, -23.72563171, 81.67124176, 0.31511709, -0.68337882, -0.43460080, -0.49478966, -0.32684857, 0.14014772, 0.04825455, 100.28600311, 86.84960938, 28.76000023, 0.00000000
1, 2.0251, 177, -0.46630073, -1.00147653, 0.23734418, -3.37919307, -8.36969090, 92.15290833, -43.40835953, 12.56942368, -57.67319489, 102.46990204, -25.54315186, -3.73699236, -0.61593312, 0.75551152, -0.16313556, 0.15236664, 0.03625147, 0.11926384, -0.04532348, 100.35700226, 80.89166260, 28.82999992, 0.00000000
1, 2.0301, 178, -0.45398489, -0.94795918, 0.08175967, -5.03653622, -6.51375580, 92.60379791, -43.40835953, 12.56942368, -57.67319489, 102.49919128, -25.98847580, -3.87825656, -0.61548537, 0.75471175, -0.16637504, 0.15462026, 0.01734522, 0.06939743, 0.11021464, 100.35700226, 80.89166260, 28.82999992, 0.00000000
1, 2.0351, 179, -0.39416167, -0.90910876, 0.10699469, -2.24826980, 1.36034143, 93.52715302, -43.40835953, 12.56942368, -57.67319489, 102.53534698, -26.44664955, -3.98298430, -0.61492682, 0.75396198, -0.16942656, 0.15716603, -0.04966880, 0.03402330, 0.08492050, 100.35700226, 80.89166260, 28.82999992, 0.00000000
1, 2.1549, 198, -0.05761719, -0.98266602, 0.25317383, -0.33960983, 21.41234970, 42.73337173, -33.90821457, 5.72931862, -52.09003067, 109.89646149, -23.96298790, 81.70177460, 0.31379792, -0.68372077, -0.43361270, -0.49602106, -0.34757477, 0.12302978, 0.05802395, 100.28600311, 86.84960938, 28.76000023, 0.00000000
1, 2.1599, 199, -0.03308105, -0.94793701, 0.23101807, -1.80961037, 24.21234894, 43.18837357, -33.90821457, 5.72931862, -52.09003067, 109.86936188, -24.20722580, 81.74601746, 0.31245837, -0.68398750, -0.43261552, -0.49736774, -0.37598020, 0.08979185, 0.07923099, 100.28600311, 86.84960938, 28.76000023, 0.00000000
1, 2.1649, 200, 0.00421143, -0.91229248, 0.23065186, -2.99961090, 25.96235085, 43.22336960, -33.90821457, 5.72931862, -52.09003067, 109.83233643, -24.45458603, 81.79946899, 0.31111905, -0.68419749, -0.43161333, -0.49878728, -0.41719949, 0.05562556, 0.07847833, 100.28600311, 86.84960938, 28.76000023, 0.00000000
1, 2.0401, 180, -0.31375706, -0.90348554, 0.19182484, -0.21398045, 4.09107351, 95.14368439, -44.10990906, 12.89096737, -58.05319977, 102.57701874, -26.91558266, -4.07552624, -0.61429971, 0.75322360, -0.17244081, 0.15985720, -0.13757524, 0.03195587, 0.00011994, 100.35700226, 80.89166260, 28.82999992, 0.00000000
1, 2.0451, 181, -0.25117439, -0.91210651, 0.16423346, -2.28969908, -3.06283140, 97.87387085, -44.10990906, 12.89096737, -58.05319977, 102.62882996, -27.39003181, -4.21145821, -0.61365664, 0.75244570, -0.17574823, 0.16236854, -0.20743731, 0.04444817, 0.02778055, 100.35700226, 80.89166260, 28.82999992, 0.00000000
