SensorId, TimeStamp (s), FrameNumber, AccX (g), AccY (g), AccZ (g), GyroX (deg/s), GyroY (deg/s), GyroZ (deg/s), MagX (uT), MagY (uT), MagZ (uT), EulerX (deg), EulerY (deg), EulerZ (deg), QuatW, QuatX, QuatY, QuatZ, LinAccX (g), LinAccY (g), LinAccZ (g), Pressure (kPa), Altitude (m), Temperature (degC), HeaveMotion (m)
1, 42.9799, 4488, -0.12152100, -0.97015381, 0.33660889, -0.40140676, -3.17515755, 2.65125060, -24.61268616, 2.68927217, -58.14089203, 115.25504303, 5.21759558, -71.60296631, -0.41131490, 0.69854593, -0.47378641, -0.34406415, 0.21248086, 0.06949143, 0.08828358, 100.33000183, 83.15702057, 31.27999878, 0.00000000
1, 42.9850, 4489, -0.12493896, -0.96966553, 0.32849121, -0.47140676, -3.35015774, 2.96625066, -24.61268616, 2.68927217, -58.14089203, 115.25072479, 5.21133184, -71.62452698, -0.41130453, 0.69842589, -0.47392985, -0.34412277, 0.21579683, 0.06896479, 0.09634174, 100.33000183, 83.15702057, 31.27999878, 0.00000000
1, 42.9900, 4490, -0.12872314, -0.96820068, 0.32122803, -0.19140667, -3.59515786, 3.07125068, -24.61268616, 2.68927217, -58.14089203, 115.24768066, 5.20510626, -71.64743805, -0.41128215, 0.69830489, -0.47408512, -0.34418118, 0.21947162, 0.06746538, 0.10355501, 100.33000183, 83.15702057, 31.27999878, 0.00000000
1, 42.9949, 4491, -0.13220215, -0.97033691, 0.31634521, -0.12140663, -3.77015805, 3.07125068, -24.70038033, 3.09850907, -58.57936096, 115.24491882, 5.19925737, -71.67114258, -0.41125399, 0.69818252, -0.47424453, -0.34424347, 0.22284894, 0.06957282, 0.10839841, 100.33000183, 83.15702057, 31.27999878, 0.00000000
1, 43.0000, 4492, -0.13262939, -0.97131348, 0.31347656, -0.26140672, -3.84015775, 3.21125078, -24.70038033, 3.09850907, -58.57936096, 115.24142456, 5.19292355, -71.69546509, -0.41123068, 0.69805366, -0.47440735, -0.34430826, 0.22316626, 0.07051517, 0.11121811, 100.33000183, 83.15702057, 31.27999878, 0.00000000
1, 42.9950, 4669, -0.02441982, -0.98738444, -0.00007581, -0.73793161, -0.32311979, 3.31138492, -24.49576187, 3.30312777, -71.17801666, 89.70040131, -1.77815497, 70.78408813, 0.57153714, -0.58123213, -0.39944431, -0.41947457, -0.00654154, -0.01212386, -0.00681474, 100.41500854, 76.02655792, 32.09000015, 0.00000000
1, 43.0050, 4493, -0.13287354, -0.97650146, 0.31011963, -0.15640664, -3.94515800, 3.28125095, -24.40806770, 3.39082146, -58.02396774, 115.23838043, 5.18648958, -71.72040558, -0.41120309, 0.69792354, -0.47457573, -0.34437278, 0.22329862, 0.07567087, 0.11453034, 100.33000183, 83.15702057, 31.27999878, 0.00000000
1, 43.0000, 4670, -0.01904381, -0.98912334, 0.00126919, -0.66565508, -0.42607883, 3.27295876, -24.49576187, 3.30312777, -71.17801666, 89.69716644, -1.79454207, 70.78206635, 0.57150120, -0.58128047, -0.39933863, -0.41955698, -0.01220837, -0.01037787, -0.00820717, 100.41500854, 76.02655792, 32.09000015, 0.00000000
1, 43.0100, 4494, -0.13262939, -0.98071289, 0.30718994, -0.36640674, -3.73515821, 3.42125106, -24.40806770, 3.39082146, -58.02396774, 115.23434448, 5.17898273, -71.74469757, -0.41118830, 0.69779003, -0.47474143, -0.34443274, 0.22292928, 0.07984403, 0.11740528, 100.33000183, 83.15702057, 31.27999878, 0.00000000
1, 43.0050, 4671, -0.01591218, -0.99072492, 0.00347476, -0.37822315, -0.69867957, 3.12259388, -24.46652985, 3.30312777, -71.00263214, 89.69540405, -1.81017876, 70.77868652, 0.57146555, -0.58133829, -0.39923534, -0.41962385, -0.01562154, -0.00877098, -0.01044600, 100.41500854, 76.02655792, 32.09000015, 0.00000000
1, 43.0149, 4495, -0.12933350, -0.98437500, 0.30487061, -0.54140681, -3.66515803, 3.31625104, -24.40806770, 3.39082146, -58.02396774, 115.22949982, 5.17179537, -71.76842499, -0.41117871, 0.69765657, -0.47490001, -0.34449604, 0.21950833, 0.08346161, 0.11965686, 100.33000183, 83.15702057, 31.27999878, 0.00000000
1, 43.0100, 4672, -0.01560311, -0.99409699, 0.00723398, -0.48480785, -0.73193628, 3.01800108, -24.46652985, 3.91698337, -71.00263214, 89.69313812, -1.82530141, 70.77513123, 0.57143497, -0.58139235, -0.39913183, -0.41968897, -0.01620677, -0.00539649, -0.01424501, 100.41500854, 76.02655792, 32.09000015, 0.00000000
1, 43.0200, 4496, -0.12530518, -0.98406982, 0.30328369, -0.68140686, -3.14015746, 3.14125109, -24.52499199, 3.65390229, -58.46243668, 115.22419739, 5.16428089, -71.78941345, -0.41118157, 0.69753206, -0.47504172, -0.34454939, 0.21535051, 0.08310730, 0.12116726, 100.33000183, 83.15702057, 31.27999878, 0.00000000
1, 43.0150, 4673, -0.01394131, -0.99549150, 0.00780834, -0.62193221, -1.21468818, 2.76287484, -24.46652985, 3.91698337, -71.00263214, 89.69024658, -1.83915865, 70.76914215, 0.57142109, -0.58144730, -0.39902022, -0.41973794, -0.01811659, -0.00399474, -0.01486517, 100.41500854, 76.02655792, 32.09000015, 0.00000000
1, 43.0250, 4497, -0.11950684, -0.98504639, 0.30322266, -0.75140685, -2.51015759, 2.89625072, -24.52499199, 3.65390229, -58.46243668, 115.21885681, 5.15652657, -71.80701447, -0.41119593, 0.69742072, -0.47516355, -0.34458938, 0.20942037, 0.08403423, 0.12115064, 100.33000183, 83.15702057, 31.27999878, 0.00000000
1, 43.0200, 4674, -0.01329979, -0.99734926, 0.00947033, -0.62088758, -1.34891915, 2.54934907, -24.05729294, 1.63694823, -71.52879333, 89.68739319, -1.85196674, 70.76248932, 0.57141328, -0.58150107, -0.39891067, -0.41977823, -0.01899018, -0.00213231, -0.01657997, 100.41500854, 76.02655792, 32.09000015, 0.00000000
1, 43.1250, 4498, -0.08514404, -0.97430420, 0.31219482, -1.31140697, 2.94984436, -1.40875065, -24.49576187, 2.83542824, -58.60859299, 115.11279297, 5.07804537, -71.71511078, -0.41246933, 0.69722635, -0.47459790, -0.34424025, 0.17365511, 0.07239286, 0.11056009, 100.33000183, 83.15702057, 31.27999878, 0.00000000
1, 43.0250, 4675, -0.01456397, -0.99792600, 0.01013128, -0.51325822, -1.44989312, 2.44041538, -24.05729294, 1.63694823, -71.52879333, 89.70639801, -1.84216392, 70.75599670, 0.57137632, -0.58158410, -0.39899731, -0.41963106, -0.01775065, -0.00155658, -0.01710108, 100.41500854, 76.02655792, 32.09000015, 0.00000000
1, 43.1300, 4499, -0.08251953, -0.97637939, 0.31542969, -1.20640707, 2.73984432, -1.44375062, -24.55422401, 3.18620276, -58.81321335, 115.10815430, 5.07876396, -71.69958496, -0.41254109, 0.69727564, -0.47448656, -0.34420785, 0.17103787, 0.07443330, 0.10724947, 100.33000183, 83.15702057, 31.27999878, 0.00000000
1, 43.0300, 4676, -0.01663104, -0.99765205, 0.01044726, -0.44632110, -1.13264418, 2.30691648, -24.49576187, 3.59543991, -71.14878845, 89.70436859, -1.85374188, 70.75041962, 0.57136482, -0.58163393, -0.39890251, -0.41966772, -0.01569538, -0.00183157, -0.01727265, 100.41500854, 76.02655792, 32.09000015, 0.00000000
1, 43.0350, 4677, -0.02138786, -0.99982548, 0.01272826, -0.51587683, -1.27167881, 2.26943564, -24.49576187, 3.59543991, -71.14878845, 89.70202637, -1.86513710, 70.74414063, 0.57135826, -0.58168399, -0.39880389, -0.41970110, -0.01114602, 0.00034491, -0.01960683, 100.41500854, 76.02655792, 32.09000015, 0.00000000
1, 43.1350, 4500, -0.08288574, -0.97430420, 0.31811523, -1.17140710, 2.38984394, -1.33875060, -24.55422401, 3.18620276, -58.81321335, 115.10350800, 5.07975483, -71.68588257, -0.41260612, 0.69731814, -0.47438523, -0.34418350, 0.17142284, 0.07232556, 0.10449073, 100.33000183, 83.15702057, 31.27999878, 0.00000000
1, 43.0400, 4678, -0.02564124, -0.99991965, 0.01225445, -0.59171194, -0.85710829, 2.38543916, -24.49576187, 3.59543991, -71.14878845, 89.69922638, -1.87709773, 70.73992920, 0.57134432, -0.58172655, -0.39871126, -0.41974920, -0.00709694, 0.00044684, -0.01919044, 100.41500854, 76.02655792, 32.09000015, 0.00000000
1, 43.1399, 4501, -0.08337402, -0.97631836, 0.32214355, -1.13640702, 2.07484412, -1.09375060, -24.26191139, 2.83542824, -58.57936096, 115.09884644, 5.08030128, -71.67412567, -0.41266724, 0.69735146, -0.47429761, -0.34416363, 0.17192347, 0.07430661, 0.10038921, 100.33000183, 83.15702057, 31.27999878, 0.00000000
1, 43.1450, 4502, -0.08203125, -0.97753906, 0.31726074, -1.34640706, 1.05984378, -0.95375055, -24.26191139, 2.83542824, -58.57936096, 115.09272766, 5.08237362, -71.66727448, -0.41271585, 0.69736290, -0.47422928, -0.34417641, 0.17060919, 0.07548667, 0.10517918, 100.33000183, 83.15702057, 31.27999878, 0.00000000
1, 43.1500, 4679, -0.01984973, -0.99929571, 0.00671981, 0.30550364, -1.95284235, 0.45508277, -24.64191818, 3.94621444, -71.20724487, 89.72750854, -2.02593231, 70.69477844, 0.57082319, -0.58254445, -0.39782578, -0.42016381, -0.01551294, -0.00008048, -0.01316791, 100.41500854, 76.02655792, 32.09000015, 0.00000000
1, 43.1500, 4503, -0.08227539, -0.97546387, 0.31701660, -1.27640700, 0.63984364, -0.81375039, -24.26191139, 2.83542824, -58.57936096, 115.08676147, 5.08470535, -71.66262817, -0.41275567, 0.69736630, -0.47417372, -0.34419799, 0.17089202, 0.07337099, 0.10532862, 100.33000183, 83.15702057, 31.27999878, 0.00000000
1, 43.1550, 4680, -0.02039245, -1.00040925, 0.00481641, 0.24275093, -2.68112516, 0.29831386, -24.52499199, 4.03390837, -71.41186523, 89.72921753, -2.02750778, 70.68136597, 0.57085794, -0.58260500, -0.39775577, -0.42009884, -0.01499930, 0.00103718, -0.01123718, 100.41500854, 76.02655792, 32.09000015, 0.00000000
1, 43.1550, 4504, -0.08154297, -0.97460938, 0.31481934, -1.17140710, 0.18484342, -0.63875043, -24.32037354, 3.30312777, -58.43320465, 115.08109283, 5.08720875, -71.66042328, -0.41278553, 0.69736123, -0.47413337, -0.34422812, 0.17020138, 0.07247722, 0.10743330, 100.33000183, 83.15702057, 31.27999878, 0.00000000
1, 43.1600, 4681, -0.02432591, -0.99853563, 0.00110022, 0.38782665, -2.95415831, 0.11469829, -24.52499199, 4.03390837, -71.41186523, 89.73167419, -2.02816558, 70.66658020, 0.57089722, -0.58267081, -0.39768624, -0.42001992, -0.01106980, -0.00083004, -0.00748954, 100.41500854, 76.02655792, 32.09000015, 0.00000000
1, 43.1600, 4505, -0.08050537, -0.97277832, 0.31250000, -1.10140705, -0.02515665, -0.49875039, -24.32037354, 3.30312777, -58.43320465, 115.07568359, 5.08952093, -71.65947723, -0.41281104, 0.69735134, -0.47410211, -0.34426066, 0.16920885, 0.07060931, 0.10966457, 100.33000183, 83.15702057, 31.27999878, 0.00000000
1, 43.1650, 4682, -0.02359423, -0.99541652, -0.00181699, 0.35111135, -2.88235545, 0.01172055, -24.52499199, 4.03390837, -71.41186523, 89.73393250, -2.02831244, 70.65216827, 0.57093805, -0.58273262, -0.39762050, -0.41994104, -0.01179828, -0.00394436, -0.00452439, 100.41500854, 76.02655792, 32.09000015, 0.00000000
1, 43.2750, 4506, -0.06176758, -0.99316406, 0.31665039, -0.22640668, -5.20515823, 1.25125027, -24.46652985, 3.21543407, -58.69628525, 114.96669769, 5.14061880, -72.03230286, -0.41212082, 0.69554061, -0.47583601, -0.34635234, 0.15134288, 0.09026204, 0.10375898, 100.33000183, 83.15702057, 31.27999878, 0.00000000
1, 43.1700, 4683, -0.02067856, -0.99521530, -0.00133664, 0.52976125, -2.98186183, -0.13313407, -24.67114830, 3.68313360, -71.82110596, 89.73710632, -2.02774167, 70.63724518, 0.57097870, -0.58279824, -0.39755917, -0.41985285, -0.01470977, -0.00414709, -0.00494652, 100.41500854, 76.02655792, 32.09000015, 0.00000000
1, 43.2800, 4507, -0.06420898, -0.98883057, 0.31585693, -0.22640668, -5.20515823, 1.21625030, -24.05729294, 2.19234133, -59.33937454, 114.96320343, 5.14608479, -72.05857086, -0.41203803, 0.69543254, -0.47596309, -0.34649312, 0.15387799, 0.08591047, 0.10449386, 100.33000183, 83.15702057, 31.27999878, 0.00000000
1, 43.1750, 4684, -0.02200072, -0.99285316, -0.00401909, 0.59900194, -2.84032536, -0.20074624, -24.67114830, 3.68313360, -71.82110596, 89.74319458, -2.00844312, 70.62228394, 0.57107288, -0.58281320, -0.39760393, -0.41966140, -0.01320447, -0.00651130, -0.00217970, 100.41500854, 76.02655792, 32.09000015, 0.00000000
1, 43.2850, 4508, -0.06524658, -0.98736572, 0.31176758, -0.12140663, -5.27515841, 1.21625030, -24.05729294, 2.19234133, -59.33937454, 114.96021271, 5.15170336, -72.08515167, -0.41195056, 0.69532531, -0.47609296, -0.34663385, 0.15501523, 0.08442980, 0.10852793, 100.33000183, 83.15702057, 31.27999878, 0.00000000
1, 43.1800, 4685, -0.02258021, -0.99145973, -0.00654092, 0.66614902, -2.52474403, -0.26418331, -24.84653664, 4.06313944, -70.82723999, 89.74698639, -2.00720048, 70.60964203, 0.57110447, -0.58287168, -0.39755988, -0.41957909, -0.01243815, -0.00790738, 0.00042718, 100.41500854, 76.02655792, 32.09000015, 0.00000000
1, 43.2900, 4509, -0.06359863, -0.98608398, 0.30841064, -0.01640660, -5.41515875, 1.07625020, -24.26191139, 3.47851491, -59.01782990, 114.95771027, 5.15825605, -72.11207581, -0.41185474, 0.69522077, -0.47622263, -0.34677911, 0.15347444, 0.08313809, 0.11184037, 100.33000183, 83.15702057, 31.27999878, 0.00000000
1, 43.1850, 4686, -0.01900407, -0.99348116, -0.00191529, 0.77011496, -2.31327295, -0.33057076, -24.84653664, 4.06313944, -70.82723999, 89.75122833, -2.00559664, 70.59805298, 0.57113111, -0.58292735, -0.39752463, -0.41949865, -0.01599952, -0.00589460, -0.00412003, 100.41500854, 76.02655792, 32.09000015, 0.00000000
1, 43.1900, 4687, -0.00896251, -0.99681222, 0.00436399, 0.87701201, -2.34546351, -0.40280312, -24.84653664, 4.06313944, -70.82723999, 89.75602722, -2.00364494, 70.58631134, 0.57115686, -0.58298522, -0.39749247, -0.41941386, -0.02602417, -0.00257546, -0.01029616, 100.41500854, 76.02655792, 32.09000015, 0.00000000
1, 43.2950, 4510, -0.06237793, -0.98602295, 0.30108643, 0.08859342, -5.69515848, 0.93625021, -24.26191139, 3.47851491, -59.01782990, 114.95565033, 5.16602755, -72.13997650, -0.41174790, 0.69511676, -0.47635469, -0.34693319, 0.15238559, 0.08307225, 0.11912593, 100.33000183, 83.15702057, 31.27999878, 0.00000000
1, 43.2999, 4511, -0.06225586, -0.98474121, 0.30187988, 0.12359343, -5.80015850, 0.79625005, -24.26191139, 3.47851491, -59.01782990, 114.95373535, 5.17465687, -72.16806030, -0.41163561, 0.69501466, -0.47648489, -0.34709221, 0.15241075, 0.08178777, 0.11829531, 100.33000183, 83.15702057, 31.27999878, 0.00000000
1, 43.1950, 4688, -0.00451711, -0.99733090, 0.00512876, 0.87952429, -2.55431628, -0.40781319, -24.90499878, 3.71236467, -71.38263702, 89.76086426, -2.00167370, 70.57352448, 0.57118618, -0.58304685, -0.39745516, -0.41932347, -0.03043721, -0.00205957, -0.01096832, 100.41500854, 76.02655792, 32.09000015, 0.00000000
1, 43.3050, 4512, -0.05987549, -0.98504639, 0.29687500, 0.01859341, -6.08015871, 0.79625005, -24.37883568, 3.42005253, -58.78398132, 114.95117950, 5.18387461, -72.19741821, -0.41152069, 0.69490635, -0.47661850, -0.34726191, 0.15018606, 0.08208920, 0.12325864, 100.33000183, 83.15702057, 31.27999878, 0.00000000
1, 43.3000, 4689, -0.00017251, -0.99412334, 0.00754705, 0.89920247, -4.22180367, -0.58801782, -24.46652985, 4.03390837, -71.96726227, 89.87085724, -1.83018935, 70.21920776, 0.57254124, -0.58422744, -0.39692777, -0.41632110, -0.03180024, -0.00537734, -0.01145217, 100.41500854, 76.02655792, 32.09000015, 0.00000000
1, 43.3100, 4513, -0.05908203, -0.98614502, 0.29852295, -0.19140667, -6.18515825, 0.72625005, -24.37883568, 3.42005253, -58.78398132, 114.94753265, 5.19362593, -72.22711945, -0.41140887, 0.69479406, -0.47674868, -0.34744039, 0.14956081, 0.08317573, 0.12154847, 100.33000183, 83.15702057, 31.27999878, 0.00000000
1, 43.3050, 4690, -0.00344745, -0.99526894, 0.00577352, 1.00610089, -4.22252226, -0.51929116, -24.64191818, 4.06313944, -71.79187012, 89.87653351, -1.82764912, 70.19807434, 0.57259828, -0.58432019, -0.39685360, -0.41618317, -0.02847526, -0.00423034, -0.00959243, 100.41500854, 76.02655792, 32.09000015, 0.00000000
1, 43.3100, 4691, -0.00982592, -0.99833882, 0.00919629, 0.72274971, -4.32864857, -0.55326605, -24.64191818, 4.06313944, -71.79187012, 89.88083649, -1.82495487, 70.17640686, 0.57266480, -0.58440733, -0.39677250, -0.41604659, -0.02205973, -0.00116779, -0.01295351, 100.41500854, 76.02655792, 32.09000015, 0.00000000
1, 43.3150, 4514, -0.05841064, -0.98919678, 0.29760742, -0.22640671, -6.50015879, 0.65625006, -24.70038033, 3.74159598, -58.60859299, 114.94359589, 5.20435810, -72.25810242, -0.41129044, 0.69467777, -0.47688180, -0.34763035, 0.14907266, 0.08621450, 0.12239654, 100.33000183, 83.15702057, 31.27999878, 0.00000000
1, 43.3150, 4692, -0.01506159, -0.99811292, 0.00763864, 0.75443763, -4.04569101, -0.72218591, -24.64191818, 4.06313944, -71.79187012, 89.88523102, -1.82140803, 70.15615845, 0.57272869, -0.58448714, -0.39670330, -0.41591245, -0.01676122, -0.00139325, -0.01133280, 100.41500854, 76.02655792, 32.09000015, 0.00000000
1, 43.3200, 4515, -0.05847168, -0.98925781, 0.29840088, -0.22640671, -6.46515894, 0.51625001, -24.70038033, 3.74159598, -58.60859299, 114.93968964, 5.21565008, -72.28861237, -0.41117054, 0.69456482, -0.47700995, -0.34782171, 0.14932917, 0.08626292, 0.12153390, 100.33000183, 83.15702057, 31.27999878, 0.00000000
1, 43.4500, 4516, -0.07031250, -0.98913574, 0.29626465, -1.13640702, -0.65515685, -1.30375063, -23.41420555, 2.63080978, -58.57936096, 114.79457855, 5.49874878, -72.81021881, -0.40917569, 0.69257808, -0.47859544, -0.35193378, 0.16610485, 0.08550283, 0.12119357, 100.33000183, 83.15702057, 31.27999878, 0.00000000
1, 43.3200, 4693, -0.01713364, -0.99822044, 0.00618543, 0.78727949, -3.80338025, -0.64672410, -24.52499199, 4.23852682, -71.76264191, 89.88976288, -1.81823051, 70.13711548, 0.57278621, -0.58456469, -0.39663887, -0.41578573, -0.01463021, -0.00128509, -0.00980730, 100.41500854, 76.02655792, 32.09000015, 0.00000000
1, 43.3250, 4694, -0.01929564, -0.99728942, 0.00201951, 0.74836558, -3.55669832, -0.78055757, -24.52499199, 4.23852682, -71.76264191, 89.89746094, -1.80243123, 70.11893463, 0.57287008, -0.58461130, -0.39665481, -0.41558939, -0.01228772, -0.00221504, -0.00553883, 100.41500854, 76.02655792, 32.09000015, 0.00000000
1, 43.4550, 4517, -0.06866455, -0.98901367, 0.29418945, -1.31140697, -0.37515679, -1.30375063, -23.41420555, 2.63080978, -58.57936096, 114.78811646, 5.50545168, -72.80918121, -0.40918750, 0.69257611, -0.47854257, -0.35199577, 0.16457592, 0.08534645, 0.12316713, 100.33000183, 83.15702057, 31.27999878, 0.00000000
1, 43.4599, 4518, -0.06719971, -0.98944092, 0.29486084, -1.38140714, -0.20015670, -1.30375063, -23.41420555, 2.63080978, -58.57936096, 114.78139496, 5.51178837, -72.80735016, -0.40920505, 0.69257557, -0.47848552, -0.35205394, 0.16322368, 0.08573489, 0.12238587, 100.33000183, 83.15702057, 31.27999878, 0.00000000
1, 43.3300, 4695, -0.02311285, -0.99470353, -0.00095401, 0.74449074, -3.27405739, -0.94903237, -24.52499199, 3.94621444, -71.41186523, 89.90167999, -1.79772818, 70.10254669, 0.57292503, -0.58467281, -0.39661050, -0.41546935, -0.00828129, -0.00480193, -0.00246704, 100.41500854, 76.02655792, 32.09000015, 0.00000000
1, 43.4650, 4519, -0.06561279, -0.99218750, 0.29449463, -1.20640707, 0.04484342, -1.26875055, -23.76498032, 3.12774038, -58.52090073, 114.77563477, 5.51745033, -72.80447388, -0.40922299, 0.69258118, -0.47842786, -0.35210040, 0.16173905, 0.08844639, 0.12265250, 100.33000183, 83.15702057, 31.27999878, 0.00000000
1, 43.3350, 4696, -0.02402438, -0.99517059, -0.00211443, 0.84395730, -2.64905095, -0.83024472, -24.52499199, 3.94621444, -71.41186523, 89.90629578, -1.79360569, 70.08927155, 0.57296449, -0.58472753, -0.39658058, -0.41536644, -0.00729174, -0.00433525, -0.00123145, 100.41500854, 76.02655792, 32.09000015, 0.00000000
1, 43.4700, 4520, -0.06359863, -0.99041748, 0.29553223, -1.10140705, 0.11484341, -1.33875060, -23.76498032, 3.12774038, -58.52090073, 114.77043915, 5.52328539, -72.80112457, -0.40923813, 0.69259125, -0.47836843, -0.35214382, 0.15982348, 0.08664659, 0.12152761, 100.33000183, 83.15702057, 31.27999878, 0.00000000
1, 43.4250, 4697, 0.00449147, -0.99771988, 0.00752119, 0.84863466, -0.19960473, -1.29770350, -24.40806770, 4.58930111, -71.79187012, 90.03112793, -1.60671425, 69.96945190, 0.57343608, -0.58511925, -0.39737487, -0.41340032, -0.03322717, -0.00188106, -0.00878495, 100.41500854, 76.02655792, 32.09000015, 0.00000000
1, 43.4300, 4698, 0.00229534, -0.99747348, 0.00643989, 0.74382979, -0.37293079, -1.37060475, -24.32037354, 3.47851491, -71.64571381, 90.03488922, -1.59985757, 69.96756744, 0.57344842, -0.58512080, -0.39741379, -0.41334349, -0.03026390, -0.00214778, -0.00747742, 100.41500854, 76.02655792, 32.09000015, 0.00000000
1, 43.4750, 4521, -0.06042480, -0.98992920, 0.29559326, -1.06640697, 0.60484356, -1.26875055, -23.91113663, 2.77696586, -58.75474930, 114.76563263, 5.52777863, -72.79570007, -0.40926346, 0.69260800, -0.47830290, -0.35217044, 0.15673494, 0.08613048, 0.12138662, 100.33000183, 83.15702057, 31.27999878, 0.00000000
1, 43.4799, 4522, -0.05859375, -0.98950195, 0.29577637, -0.99640691, 0.49984357, -1.40875065, -23.91113663, 2.77696586, -58.75474930, 114.76116180, 5.53312922, -72.79045105, -0.40928236, 0.69262731, -0.47823608, -0.35220128, 0.15499218, 0.08567728, 0.12112686, 100.33000183, 83.15702057, 31.27999878, 0.00000000
1, 43.4350, 4699, 0.00037926, -0.99881315, 0.00818131, 0.92467964, -0.61584324, -1.34364474, -24.32037354, 3.47851491, -71.64571381, 90.03958130, -1.59313703, 69.96449280, 0.57345986, -0.58513170, -0.39744934, -0.41327822, -0.02823493, -0.00081396, -0.00914713, 100.41500854, 76.02655792, 32.09000015, 0.00000000
1, 43.4850, 4523, -0.05688477, -0.98809814, 0.29376221, -0.99640691, 0.53484356, -1.37375057, -23.91113663, 2.77696586, -58.75474930, 114.75668335, 5.53824663, -72.78512573, -0.40930253, 0.69264638, -0.47816968, -0.35223046, 0.15337339, 0.08424872, 0.12306659, 100.33000183, 83.15702057, 31.27999878, 0.00000000
1, 43.4400, 4700, -0.00278139, -0.99912369, 0.00709215, 0.88775575, -0.51089936, -1.37572539, -24.75884247, 4.03390837, -71.06109619, 90.04406738, -1.58624780, 69.96192169, 0.57347107, -0.58513921, -0.39748758, -0.41321531, -0.02495289, -0.00050488, -0.00798783, 100.41500854, 76.02655792, 32.09000015, 0.00000000
1, 43.4900, 4524, -0.05578613, -0.98736572, 0.29486084, -1.06640708, 0.42984354, -1.40875065, -23.99883080, 3.06927800, -58.11166382, 114.75182343, 5.54374170, -72.78019714, -0.40932211, 0.69266331, -0.47810304, -0.35226488, 0.15236893, 0.08349003, 0.12188907, 100.33000183, 83.15702057, 31.27999878, 0.00000000
1, 43.4450, 4701, -0.00379049, -0.99702680, 0.00543611, 0.85355419, -0.61647660, -1.34275448, -24.75884247, 4.03390837, -71.06109619, 90.04840851, -1.57952261, 69.95883942, 0.57348430, -0.58514833, -0.39752176, -0.41315112, -0.02382093, -0.00260229, -0.00625543, 100.41500854, 76.02655792, 32.09000015, 0.00000000
1, 43.4949, 4525, -0.05487061, -0.98883057, 0.29260254, -1.10140705, 0.28984347, -1.37375069, -23.99883080, 3.06927800, -58.11166382, 114.74674225, 5.54937315, -72.77598572, -0.40934029, 0.69267672, -0.47803938, -0.35230359, 0.15155068, 0.08492709, 0.12406477, 100.33000183, 83.15702057, 31.27999878, 0.00000000
1, 43.4500, 4702, -0.00463856, -0.99704504, 0.00580302, 0.92331845, -0.51058269, -1.37617052, -24.75884247, 4.03390837, -71.06109619, 90.05305481, -1.57262337, 69.95627594, 0.57349467, -0.58515656, -0.39756063, -0.41308758, -0.02285348, -0.00258799, -0.00654601, 100.41500854, 76.02655792, 32.09000015, 0.00000000
1, 43.5950, 4526, -0.05706787, -0.98724365, 0.29290771, -0.99640691, 0.74484360, -1.05875051, -24.05729294, 3.24466538, -58.84244156, 114.67772675, 5.65262890, -72.73466492, -0.40941602, 0.69286060, -0.47716436, -0.35303962, 0.15555133, 0.08299814, 0.12259319, 100.32800293, 83.32475281, 31.25000000, 0.00000000
1, 43.4550, 4703, -0.00296230, -0.99497354, 0.00632449, 1.09883177, -0.27034190, -1.16236544, -24.32037354, 4.20929527, -70.71031952, 90.05857849, -1.56680369, 69.95491791, 0.57349235, -0.58516872, -0.39760327, -0.41303247, -0.02442473, -0.00466313, -0.00696511, 100.41500854, 76.02655792, 32.09000015, 0.00000000
1, 43.4600, 4704, -0.00316345, -0.99461043, 0.00384175, 0.98816615, 0.07512824, -1.08261800, -24.32037354, 4.20929527, -70.71031952, 90.06349945, -1.56137693, 69.95529175, 0.57348543, -0.58517319, -0.39765060, -0.41299006, -0.02412247, -0.00502474, -0.00439313, 100.41500854, 76.02655792, 32.09000015, 0.00000000
1, 43.6000, 4527, -0.05627441, -0.98614502, 0.29461670, -1.10140705, 0.95484370, -1.26875055, -24.26191139, 2.80619693, -58.63782501, 114.67292023, 5.65640116, -72.72763824, -0.40944964, 0.69288200, -0.47709197, -0.35305634, 0.15482113, 0.08187062, 0.12080646, 100.32800293, 83.32475281, 31.25000000, 0.00000000
1, 43.6049, 4528, -0.05413818, -0.98730469, 0.29461670, -0.96140689, 1.16484368, -1.37375069, -24.26191139, 2.80619693, -58.63782501, 114.66893005, 5.66020966, -72.71943665, -0.40948179, 0.69291139, -0.47701484, -0.35306567, 0.15275291, 0.08300669, 0.12073873, 100.32800293, 83.32475281, 31.25000000, 0.00000000
1, 43.4650, 4705, 0.00133364, -0.99606812, 0.00082149, 0.95249844, 0.07564563, -1.11720383, -24.46652985, 4.18006420, -71.26570892, 90.06822968, -1.55577731, 69.95565796, 0.57348019, -0.58517623, -0.39769810, -0.41294745, -0.02851449, -0.00356462, -0.00128163, 100.41500854, 76.02655792, 32.09000015, 0.00000000
1, 43.6100, 4529, -0.05413818, -0.98706055, 0.29571533, -1.03140700, 1.51484382, -1.40875065, -24.26191139, 2.80619693, -58.46243668, 114.66473389, 5.66345263, -72.70956421, -0.40952280, 0.69294566, -0.47692928, -0.35306650, 0.15280841, 0.08273698, 0.11957134, 100.32800293, 83.32475281, 31.25000000, 0.00000000
1, 43.4700, 4706, 0.00674661, -0.99864841, 0.00670567, 0.88074547, 0.14296173, -1.04458165, -24.46652985, 4.18006420, -71.26570892, 90.07261658, -1.55054855, 69.95638275, 0.57347405, -0.58517754, -0.39774430, -0.41290969, -0.03384915, -0.00099642, -0.00708002, 100.41500854, 76.02655792, 32.09000015, 0.00000000
1, 43.5700, 4707, 0.01053442, -0.99611437, 0.01646275, 0.52040678, 0.52352607, -1.06597579, -23.88190651, 4.47237635, -70.88570404, 90.20314026, -1.30917799, 69.92063904, 0.57380587, -0.58511794, -0.39926058, -0.41106552, -0.03344940, -0.00364620, -0.01453622, 100.41500854, 76.02655792, 32.09000015, 0.00000000
1, 43.6150, 4530, -0.05261230, -0.98846436, 0.29785156, -0.78640682, 1.61984396, -1.40875065, -23.91113663, 2.77696586, -58.46243668, 114.66182709, 5.66647100, -72.69921112, -0.40955859, 0.69298589, -0.47684562, -0.35305905, 0.15133499, 0.08412124, 0.11738013, 100.32800293, 83.32475281, 31.25000000, 0.00000000
1, 43.6199, 4531, -0.05212402, -0.98681641, 0.29815674, -0.85640687, 1.72484398, -1.54875064, -23.91113663, 2.77696586, -58.46243668, 114.65866089, 5.66991138, -72.68808746, -0.40959653, 0.69302940, -0.47675475, -0.35305238, 0.15090495, 0.08245592, 0.11702338, 100.32800293, 83.32475281, 31.25000000, 0.00000000
1, 43.5750, 4708, 0.01249033, -0.99620223, 0.01839844, 0.59257984, 0.45287362, -0.99847442, -23.88190651, 4.47237635, -70.88570404, 90.24762726, -1.21489358, 69.92209625, 0.57391274, -0.58500814, -0.39990705, -0.41044369, -0.03454246, -0.00357905, -0.01605532, 100.41500854, 76.02655792, 32.09000015, 0.00000000
1, 43.5800, 4709, 0.01277177, -0.99212277, 0.01331487, 0.55743569, 0.41774812, -0.99886429, -24.02806091, 4.23852682, -70.71031952, 90.25036621, -1.20989776, 69.92419434, 0.57390922, -0.58499724, -0.39995301, -0.41041952, -0.03394514, -0.00766765, -0.01055528, 100.41500854, 76.02655792, 32.09000015, 0.00000000
1, 43.6250, 4532, -0.05181885, -0.98651123, 0.29748535, -0.75140685, 1.79484415, -1.58375061, -23.23881912, 2.16311026, -58.49166870, 114.65603638, 5.67336512, -72.67657471, -0.40963215, 0.69307649, -0.47666314, -0.35304201, 0.15066227, 0.08213788, 0.11765166, 100.32800293, 83.32475281, 31.25000000, 0.00000000
1, 43.6300, 4533, -0.05206299, -0.98773193, 0.29632568, -0.82140690, 1.93484402, -1.65375090, -23.23881912, 2.16311026, -58.49166870, 114.65313721, 5.67684317, -72.66426849, -0.40967178, 0.69312602, -0.47656593, -0.35303015, 0.15096544, 0.08334357, 0.11876455, 100.32800293, 83.32475281, 31.25000000, 0.00000000
1, 43.5850, 4710, 0.01183935, -0.99181449, 0.01028674, 0.59205753, 0.51998907, -0.89171124, -24.02806091, 4.23852682, -70.71031952, 90.25325775, -1.20543468, 69.92680359, 0.57390118, -0.58498710, -0.39999938, -0.41040006, -0.03292579, -0.00797228, -0.00747686, 100.41500854, 76.02655792, 32.09000015, 0.00000000
1, 43.6350, 4534, -0.05010986, -0.98895264, 0.29425049, -0.75140685, 1.79484415, -1.75875080, -24.23267937, 2.39696002, -58.28704834, 114.65055847, 5.68109131, -72.65238953, -0.40970474, 0.69317681, -0.47646910, -0.35302293, 0.14907938, 0.08455119, 0.12079513, 100.32800293, 83.32475281, 31.25000000, 0.00000000
1, 43.5900, 4711, 0.01026053, -0.99292409, 0.00777938, 0.48358929, 0.65910834, -0.92206681, -23.96959877, 4.15083313, -71.55802155, 90.25559998, -1.20083737, 69.93009949, 0.57389390, -0.58497131, -0.40004796, -0.41038525, -0.03126021, -0.00686008, -0.00493281, 100.41500854, 76.02655792, 32.09000015, 0.00000000
1, 43.6399, 4535, -0.05096436, -0.99035645, 0.29241943, -0.78640693, 1.68984377, -1.86375070, -24.23267937, 2.39696002, -58.28704834, 114.64777374, 5.68603945, -72.64076233, -0.40973490, 0.69322753, -0.47637036, -0.35302147, 0.15001917, 0.08594192, 0.12257753, 100.32800293, 83.32475281, 31.25000000, 0.00000000
1, 43.5950, 4712, 0.01234750, -0.99373960, 0.00970022, 0.73357624, 0.59003937, -0.85679096, -23.96959877, 4.15083313, -71.55802155, 90.25918579, -1.19655037, 69.93308258, 0.57388037, -0.58496398, -0.40009773, -0.41036603, -0.03327580, -0.00604899, -0.00679186, 100.41500854, 76.02655792, 32.09000015, 0.00000000
1, 43.6749, 4536, -0.05316162, -0.99066162, 0.29876709, -0.68140686, 1.65484393, -1.44375062, -23.79421234, 2.51388478, -58.37474442, 114.63210297, 5.71756363, -72.57107544, -0.40990162, 0.69353962, -0.47577405, -0.35301939, 0.15277365, 0.08618431, 0.11595970, 100.32800293, 83.32475281, 31.25000000, 0.00000000
1, 43.6000, 4713, 0.01230923, -0.99521160, 0.01021792, 0.58923161, 0.76281685, -0.85083526, -23.96959877, 4.15083313, -71.55802155, 90.26205444, -1.19229770, 69.93690491, 0.57386732, -0.58495021, -0.40014920, -0.41035381, -0.03316456, -0.00457916, -0.00725886, 100.41500854, 76.02655792, 32.09000015, 0.00000000
1, 43.6800, 4537, -0.05340576, -0.98895264, 0.29913330, -0.61140686, 1.65484393, -1.40875065, -23.79421234, 2.51388478, -58.37474442, 114.63009644, 5.72052145, -72.56056213, -0.40993273, 0.69358337, -0.47569233, -0.35300717, 0.15307036, 0.08446417, 0.11555651, 100.32800293, 83.32475281, 31.25000000, 0.00000000
1, 43.6050, 4714, 0.01383024, -0.99744749, 0.00543043, 0.58849919, 0.83160043, -0.81413436, -23.96959877, 4.18006420, -71.52879333, 90.26490021, -1.18824100, 69.94107819, 0.57385248, -0.58493584, -0.40020132, -0.41034436, -0.03460275, -0.00233677, -0.00242145, 100.41500854, 76.02655792, 32.09000015, 0.00000000
1, 43.6850, 4538, -0.05413818, -0.98547363, 0.29760742, -0.61140686, 1.75984406, -1.44375074, -24.17421722, 2.95235300, -58.40397644, 114.62814331, 5.72341633, -72.54949188, -0.40996552, 0.69362950, -0.47560772, -0.35299242, 0.15385294, 0.08097675, 0.11705191, 100.32800293, 83.32475281, 31.25000000, 0.00000000
1, 43.6100, 4715, 0.01507064, -0.99891925, 0.00649062, 0.55251765, 0.86609262, -0.81285417, -23.96959877, 4.18006420, -71.52879333, 90.26755524, -1.18418169, 69.94541931, 0.57383794, -0.58491987, -0.40025359, -0.41033638, -0.03577340, -0.00086796, -0.00343302, 100.41500854, 76.02655792, 32.09000015, 0.00000000
1, 43.6900, 4539, -0.05474854, -0.98468018, 0.29522705, -0.50640678, 1.86484396, -1.40875065, -24.17421722, 2.95235300, -58.40397644, 114.62674713, 5.72592974, -72.53802490, -0.40999791, 0.69367844, -0.47552398, -0.35297170, 0.15450761, 0.08017535, 0.11940424, 100.32800293, 83.32475281, 31.25000000, 0.00000000
1, 43.6150, 4716, 0.01055056, -0.99857378, 0.00286760, 0.41518745, 0.47942638, -0.71516573, -23.99883080, 1.60771704, -71.29494476, 90.26956940, -1.18059170, 69.94781494, 0.57383198, -0.58490902, -0.40029123, -0.41032326, -0.03118049, -0.00120868, 0.00021895, 100.41500854, 76.02655792, 32.09000015, 0.00000000
1, 43.6950, 4540, -0.05328369, -0.98437500, 0.29113770, -0.36640671, 1.65484393, -1.61875069, -24.17421722, 2.95235300, -58.40397644, 114.62602234, 5.72984409, -72.52706909, -0.41001838, 0.69373101, -0.47543967, -0.35295814, 0.15310276, 0.07986865, 0.12347589, 100.32800293, 83.32475281, 31.25000000, 0.00000000
1, 43.6550, 4717, 0.00829950, -0.98948240, 0.01277444, 0.91307193, 0.60975015, -0.15756233, -23.70651817, 3.24466538, -70.82723999, 90.29061127, -1.07992744, 69.95642853, 0.57405573, -0.58463418, -0.40092170, -0.40978613, -0.02718514, -0.01034945, -0.00932386, 100.41500854, 76.02655792, 32.09000015, 0.00000000
1, 43.7000, 4541, -0.05169678, -0.98254395, 0.29394531, -0.22640668, 1.54984391, -1.86375093, -23.85267448, 0.73078048, -58.87167358, 114.62598419, 5.73509455, -72.51608276, -0.41002864, 0.69378954, -0.47535196, -0.35294926, 0.15160491, 0.07804538, 0.12066385, 100.32800293, 83.32475281, 31.25000000, 0.00000000
1, 43.6600, 4718, 0.00892256, -0.98988533, 0.01458680, 0.87813801, 0.57295650, -0.08789034, -23.70651817, 3.24466538, -70.82723999, 90.29493713, -1.07948339, 69.95928192, 0.57402503, -0.58464432, -0.40095401, -0.40978310, -0.02780347, -0.00994928, -0.01105968, 100.41500854, 76.02655792, 32.09000015, 0.00000000
1, 43.7050, 4542, -0.05059814, -0.98382568, 0.29351807, -0.26140672, 1.58484375, -1.93375099, -23.85267448, 0.73078048, -58.87167358, 114.62580109, 5.74058437, -72.50479126, -0.41003960, 0.69384938, -0.47526103, -0.35294130, 0.15059882, 0.07933423, 0.12108427, 100.32800293, 83.32475281, 31.25000000, 0.00000000
1, 43.6650, 4719, 0.00710896, -0.99263990, 0.00967853, 0.94748509, 0.74513185, 0.02048734, -24.29114342, 3.65390229, -71.26570892, 90.29961395, -1.07959104, 69.96302032, 0.57398748, -0.58465505, -0.40098923, -0.40978599, -0.02597793, -0.00718627, -0.00608045, 100.41500854, 76.02655792, 32.09000015, 0.00000000
1, 43.7099, 4543, -0.05023193, -0.98583984, 0.29547119, -0.22640671, 1.61984396, -1.96875107, -23.99883080, 2.71850324, -59.01782990, 114.62583160, 5.74615955, -72.49327087, -0.41004971, 0.69391114, -0.47516897, -0.35293218, 0.15032873, 0.08135666, 0.11912596, 100.32800293, 83.32475281, 31.25000000, 0.00000000
1, 43.6700, 4720, 0.00839451, -0.99352992, 0.00935294, 0.94476420, 0.98712546, 0.09639429, -24.29114342, 3.65390229, -71.26570892, 90.30425262, -1.08008456, 69.96794891, 0.57394439, -0.58466274, -0.40102851, -0.40979695, -0.02726950, -0.00629509, -0.00567369, 100.41500854, 76.02655792, 32.09000015, 0.00000000
1, 43.7150, 4544, -0.04840088, -0.98883057, 0.30017090, -0.22640671, 1.61984396, -1.96875107, -23.99883080, 2.71850324, -59.01782990, 114.62586212, 5.75173378, -72.48174286, -0.41005981, 0.69397283, -0.47507691, -0.35292307, 0.14859584, 0.08435658, 0.11442253, 100.32800293, 83.32475281, 31.25000000, 0.00000000
1, 43.6750, 4721, 0.01359741, -0.99588251, 0.01086859, 0.87279975, 1.02463710, -0.04200423, -23.88190651, 3.65390229, -71.41186523, 90.32809448, -0.98923337, 69.96817780, 0.57414836, -0.58446503, -0.40157577, -0.40925688, -0.03168482, -0.00395786, -0.00693017, 100.41500854, 76.02655792, 32.09000015, 0.00000000
1, 43.6800, 4722, 0.01641641, -0.99727821, 0.01198583, 0.83859676, 0.88758749, -0.14999190, -23.88190651, 3.65390229, -71.41186523, 90.33220673, -0.98848850, 69.97261047, 0.57411426, -0.58446753, -0.40161693, -0.40926102, -0.03370595, -0.00257709, -0.00780163, 100.41500854, 76.02655792, 32.09000015, 0.00000000
1, 43.7200, 4545, -0.04785156, -0.99096680, 0.30047607, -0.22640671, 1.65484393, -2.00375104, -23.99883080, 2.71850324, -59.01782990, 114.62590027, 5.75739193, -72.47000122, -0.41007009, 0.69403577, -0.47498316, -0.35291350, 0.14814277, 0.08650205, 0.11411409, 100.32800293, 83.32475281, 31.25000000, 0.00000000
1, 43.7400, 4546, -0.05041504, -0.98968506, 0.30230713, -0.29640672, 1.75984383, -1.65375090, -24.11575508, 2.77696586, -59.33937454, 114.62315369, 5.77464581, -72.42256165, -0.41015473, 0.69426537, -0.47461808, -0.35285479, 0.15101406, 0.08522858, 0.11222687, 100.32800293, 83.32475281, 31.25000000, 0.00000000
1, 43.6850, 4723, 0.01741834, -0.99854112, 0.01432662, 0.94371527, 1.02693856, -0.11295641, -23.88190651, 3.65390229, -71.41186523, 90.33683014, -0.98793876, 69.97775269, 0.57407427, -0.58447075, -0.40166241, -0.40926772, -0.03470081, -0.00131775, -0.01006259, 100.41500854, 76.02655792, 32.09000015, 0.00000000
1, 43.6900, 4724, 0.01655584, -0.99712098, 0.01551177, 0.94675130, 0.78244287, -0.08377057, -23.32651329, 2.86465931, -71.26570892, 90.34149933, -0.98752564, 69.98167419, 0.57403791, -0.58447891, -0.40170118, -0.40926892, -0.03383584, -0.00273961, -0.01116647, 100.41500854, 76.02655792, 32.09000015, 0.00000000
1, 43.7449, 4547, -0.05096436, -0.98693848, 0.30218506, -0.26140672, 1.44484389, -1.54875064, -24.11575508, 2.77696586, -59.33937454, 114.62284088, 5.77867937, -72.41270447, -0.41016868, 0.69431502, -0.47454122, -0.35284412, 0.15163296, 0.08248715, 0.11234319, 100.32800293, 83.32475281, 31.25000000, 0.00000000
1, 43.7500, 4548, -0.05169678, -0.98632813, 0.30267334, -0.26140672, 1.37484384, -1.51375067, -24.26191139, 2.74773455, -58.55013275, 114.62248230, 5.78269863, -72.40325928, -0.41018176, 0.69436288, -0.47446671, -0.35283497, 0.15243530, 0.08188018, 0.11184525, 100.32800293, 83.32475281, 31.25000000, 0.00000000
1, 43.6950, 4725, 0.00926393, -0.99867630, 0.01137427, 0.66633111, 0.43265507, -0.12359039, -23.32651329, 2.86465931, -71.26570892, 90.34479523, -0.98690045, 69.98382568, 0.57401568, -0.58448571, -0.40172705, -0.40926498, -0.02652293, -0.00117731, -0.00698618, 100.41500854, 76.02655792, 32.09000015, 0.00000000
1, 43.7550, 4549, -0.05029297, -0.98602295, 0.30432129, -0.15640667, 1.09484375, -1.37375069, -24.26191139, 2.74773455, -58.55013275, 114.62249756, 5.78665829, -72.39538574, -0.41018802, 0.69440532, -0.47440311, -0.35282964, 0.15110114, 0.08158053, 0.11019224, 100.32800293, 83.32475281, 31.25000000, 0.00000000
1, 43.7000, 4726, 0.00577996, -0.99804747, 0.00902911, 0.84728760, 0.22038111, 0.07935946, -23.64805603, 4.32622051, -71.58725739, 90.34900665, -0.98728806, 69.98492432, 0.57398891, -0.58450431, -0.40174577, -0.40925771, -0.02303541, -0.00180185, -0.00457821, 100.41500854, 76.02655792, 32.09000015, 0.00000000
1, 43.7600, 4550, -0.05163574, -0.98718262, 0.30242920, -0.12140663, 0.91984367, -1.37375057, -23.64805603, 2.60157847, -59.01782990, 114.62260437, 5.79098368, -72.38830566, -0.41018960, 0.69444579, -0.47434318, -0.35282886, 0.15251702, 0.08274836, 0.11208443, 100.32800293, 83.32475281, 31.25000000, 0.00000000
1, 43.7250, 4727, 0.00712603, -0.99876356, 0.00907124, 0.63443315, 0.15136555, -0.02473249, -23.67728615, 1.69541073, -71.44110107, 90.39554596, -0.83059561, 69.98009491, 0.57433128, -0.58420813, -0.40268111, -0.40827987, -0.02302723, -0.00110358, -0.00405131, 100.41500854, 76.02655792, 32.09000015, 0.00000000
1, 43.7649, 4551, -0.05444336, -0.98736572, 0.30322266, -0.12140665, 0.70984364, -1.19875062, -23.64805603, 2.60157847, -59.01782990, 114.62258148, 5.79495716, -72.38256073, -0.41018948, 0.69447935, -0.47429231, -0.35283133, 0.15539651, 0.08293875, 0.11128940, 100.32800293, 83.32475281, 31.25000000, 0.00000000
1, 43.7300, 4728, 0.00760035, -0.99641263, 0.01251802, 0.81716663, -0.26392293, -0.07200944, -23.67728615, 1.69541073, -71.44110107, 90.39965057, -0.83021832, 69.97876740, 0.57431644, -0.58423197, -0.40269083, -0.40825689, -0.02212688, -0.00348005, -0.00717783, 100.41500854, 76.02655792, 32.09000015, 0.00000000
1, 43.7700, 4552, -0.05346680, -0.98767090, 0.30249023, -0.15640664, 0.67484367, -1.23375058, -23.64805603, 2.60157847, -59.01782990, 114.62237549, 5.79916239, -72.37689209, -0.41018918, 0.69451249, -0.47424045, -0.35283622, 0.15449029, 0.08324833, 0.11201434, 100.32800293, 83.32475281, 31.25000000, 0.00000000
1, 43.7350, 4729, 0.00719382, -0.99678087, 0.01494192, 0.88996845, -0.37105235, 0.06471913, -23.67728615, 1.69541073, -71.44110107, 90.40413666, -0.83052731, 69.97691345, 0.57429910, -0.58426207, -0.40269586, -0.40823346, -0.02172716, -0.00311536, -0.00952663, 100.41500854, 76.02655792, 32.09000015, 0.00000000
1, 43.7750, 4553, -0.05517578, -0.98773193, 0.29858398, -0.29640672, 0.63984364, -1.23375046, -24.05729294, 2.45542240, -58.40397644, 114.62144470, 5.80343342, -72.37139130, -0.41019240, 0.69454247, -0.47418705, -0.35284504, 0.15627480, 0.08331090, 0.11590554, 100.32800293, 83.32475281, 31.25000000, 0.00000000
1, 43.7400, 4730, 0.00753043, -0.99511135, 0.01394118, 0.74426395, -0.06154187, 0.17910774, -23.09266281, 3.30312777, -70.91493988, 90.40785980, -0.83141023, 69.97660065, 0.57427806, -0.58428496, -0.40270305, -0.40822321, -0.02207477, -0.00478247, -0.00845095, 100.41500854, 76.02655792, 32.09000015, 0.00000000
1, 43.7800, 4554, -0.05529785, -0.98681641, 0.29724121, -0.19140667, 0.56984353, -1.23375058, -24.05729294, 2.45542240, -58.40397644, 114.62100983, 5.80785418, -72.36620331, -0.41019100, 0.69457334, -0.47413653, -0.35285383, 0.15647101, 0.08239792, 0.11723579, 100.32800293, 83.32475281, 31.25000000, 0.00000000
1, 43.7450, 4731, 0.00525599, -0.99473572, 0.01006836, 0.67366076, -0.12929064, 0.07323509, -23.09266281, 3.30312777, -70.91493988, 90.41123199, -0.83175689, 69.97595978, 0.57426190, -0.58430529, -0.40271002, -0.40820992, -0.01980009, -0.00515097, -0.00452599, 100.41500854, 76.02655792, 32.09000015, 0.00000000
1, 43.7850, 4555, -0.05572510, -0.98583984, 0.29754639, -0.26140672, 0.56984353, -1.30375063, -23.94036865, 1.49079216, -58.49166870, 114.62024689, 5.81259298, -72.36087036, -0.41019064, 0.69460434, -0.47408280, -0.35286531, 0.15697777, 0.08142427, 0.11691777, 100.32800293, 83.32475281, 31.25000000, 0.00000000
1, 43.7500, 4732, 0.00481250, -0.99305606, 0.01077130, 1.03222108, -0.33831307, 0.20389737, -23.76498032, 4.47237635, -70.97339630, 90.41641998, -0.83275098, 69.97425842, 0.57423788, -0.58434069, -0.40271473, -0.40818810, -0.01937135, -0.00683126, -0.00514624, 100.41500854, 76.02655792, 32.09000015, 0.00000000
1, 43.7950, 4556, -0.05432129, -0.98461914, 0.29473877, -0.36640674, 0.67484361, -1.37375057, -23.94036865, 1.49079216, -58.49166870, 114.61729431, 5.82227945, -72.34857178, -0.41020259, 0.69466871, -0.47396019, -0.35288945, 0.15574278, 0.08019850, 0.11967289, 100.32800293, 83.32475281, 31.25000000, 0.00000000
1, 43.7550, 4733, 0.00627278, -0.99287915, 0.01162043, 1.06401670, 0.00675567, 0.35192621, -23.76498032, 4.47237635, -70.97339630, 90.42173767, -0.83450466, 69.97428131, 0.57420444, -0.58437341, -0.40272498, -0.40817845, -0.02086064, -0.00700842, -0.00589358, 100.41500854, 76.02655792, 32.09000015, 0.00000000
1, 43.7999, 4557, -0.05340576, -0.98443604, 0.29553223, -0.50640678, 0.67484361, -1.37375057, -24.34960556, 2.25080395, -57.96550751, 114.61536407, 5.82711077, -72.34261322, -0.41021082, 0.69469839, -0.47389874, -0.35290408, 0.15491056, 0.08000983, 0.11884692, 100.32800293, 83.32475281, 31.25000000, 0.00000000
1, 43.7600, 4734, 0.00732796, -0.99365091, 0.01378853, 0.84697670, 0.31730092, 0.39714327, -23.76498032, 4.47237635, -70.97339630, 90.42595673, -0.83648568, 69.97586060, 0.57417017, -0.58439595, -0.40273803, -0.40818152, -0.02195738, -0.00623901, -0.00798360, 100.41500854, 76.02655792, 32.09000015, 0.00000000
1, 43.8050, 4558, -0.05273438, -0.98553467, 0.29632568, -0.68140686, 0.70984364, -1.65375078, -24.34960556, 2.25080395, -57.96550751, 114.61263275, 5.83314800, -72.33591461, -0.41022068, 0.69473130, -0.47382542, -0.35292625, 0.15433690, 0.08109942, 0.11800969, 100.32800293, 83.32475281, 31.25000000, 0.00000000
1, 43.7650, 4735, 0.01075794, -0.99135745, 0.01345816, 1.13420117, 0.10931329, 0.45863384, -23.12189484, 2.77696586, -71.14878845, 90.43163300, -0.83876371, 69.97639465, 0.57413119, -0.58443046, -0.40274945, -0.40817577, -0.02542350, -0.00853077, -0.00754987, 100.41500854, 76.02655792, 32.09000015, 0.00000000
1, 43.7700, 4736, 0.01477385, -0.99278212, 0.01135133, 1.09727883, 0.24572974, 0.56751192, -23.12189484, 2.77696586, -71.14878845, 90.43710327, -0.84160024, 69.97761536, 0.57408875, -0.58446348, -0.40276080, -0.40817699, -0.02948195, -0.00710115, -0.00533669, 100.41500854, 76.02655792, 32.09000015, 0.00000000
1, 43.8100, 4559, -0.05181885, -0.98522949, 0.29656982, -0.61140686, 0.60484356, -1.75875080, -23.99883080, 2.86465931, -58.43320465, 114.61022949, 5.83988142, -72.32947540, -0.41022468, 0.69476599, -0.47375187, -0.35295206, 0.15353844, 0.08078715, 0.11772156, 100.32800293, 83.32475281, 31.25000000, 0.00000000
1, 43.7950, 4737, 0.00769520, -0.99942517, 0.01148611, 0.82366163, -0.69330591, 0.40840399, -23.94036865, 4.15083313, -70.79801178, 90.47224426, -0.74501908, 69.95756531, 0.57432723, -0.58437306, -0.40327227, -0.40746504, -0.02072353, -0.00047667, -0.00488388, 100.41500854, 76.02655792, 32.09000015, 0.00000000
1, 43.8150, 4560, -0.05139160, -0.98748779, 0.29711914, -0.57640684, 0.53484356, -1.75875080, -23.99883080, 2.86465931, -58.43320465, 114.60796356, 5.84676075, -72.32334900, -0.41022614, 0.69480020, -0.47368011, -0.35297924, 0.15322861, 0.08304012, 0.11713158, 100.32800293, 83.32475281, 31.25000000, 0.00000000
1, 43.8200, 4561, -0.05242920, -0.98803711, 0.29870605, -0.57640678, 0.63984364, -1.79375088, -23.99883080, 2.86465931, -58.43320465, 114.60575104, 5.85358047, -72.31667328, -0.41022927, 0.69483680, -0.47360545, -0.35300392, 0.15438780, 0.08358575, 0.11550681, 100.32800293, 83.32475281, 31.25000000, 0.00000000
1, 43.8000, 4738, 0.00261017, -1.00081158, 0.01129318, 0.90002179, -1.11204684, 0.46755540, -23.88190651, 4.18006420, -71.29494476, 90.47682953, -0.74732089, 69.95200348, 0.57431543, -0.58442372, -0.40324861, -0.40743268, -0.01567374, 0.00091110, -0.00462778, 100.41500854, 76.02655792, 32.09000015, 0.00000000
1, 43.8050, 4739, -0.00127838, -1.00096118, 0.01075633, 1.11067772, -0.86815286, 0.54079145, -23.88190651, 4.18006420, -71.29494476, 90.48245239, -0.74998140, 69.94763947, 0.57429278, -0.58447653, -0.40323290, -0.40740451, -0.01183011, 0.00106284, -0.00400564, 100.41500854, 76.02655792, 32.09000015, 0.00000000
1, 43.8250, 4562, -0.05340576, -0.99029541, 0.29937744, -0.57640684, 0.74484372, -1.82875097, -23.96959877, 2.51388478, -58.08243179, 114.60360718, 5.86034203, -72.30944824, -0.41023394, 0.69487566, -0.47352779, -0.35302597, 0.15547907, 0.08583809, 0.11479396, 100.32800293, 83.32475281, 31.25000000, 0.00000000
1, 43.8100, 4740, -0.00273403, -1.00167418, 0.00947134, 0.93108368, -0.72966695, 0.51132637, -23.88190651, 4.18006420, -71.29494476, 90.48715973, -0.75250542, 69.94397736, 0.57427269, -0.58452177, -0.40321815, -0.40738231, -0.01041660, 0.00177934, -0.00263552, 100.41500854, 76.02655792, 32.09000015, 0.00000000
1, 43.8300, 4563, -0.05468750, -0.99230957, 0.30029297, -0.54140681, 0.60484362, -1.79375088, -23.96959877, 2.51388478, -58.08243179, 114.60155487, 5.86723518, -72.30294037, -0.41023526, 0.69491231, -0.47345424, -0.35305095, 0.15687984, 0.08784795, 0.11383982, 100.32800293, 83.32475281, 31.25000000, 0.00000000
1, 43.8349, 4564, -0.05535889, -0.99206543, 0.29974365, -0.50640678, 0.67484361, -1.82875097, -23.58959389, 2.30926633, -57.73165512, 114.59973907, 5.87414455, -72.29602814, -0.41023639, 0.69495142, -0.47337890, -0.35307369, 0.15767381, 0.08760202, 0.11435482, 100.32800293, 83.32475281, 31.25000000, 0.00000000
1, 43.8150, 4741, -0.00367191, -0.99984956, 0.00902459, 0.82083565, -0.45047823, 0.44928002, -23.64805603, 3.80005836, -71.67494965, 90.49128723, -0.75472724, 69.94171143, 0.57425171, -0.58455825, -0.40321004, -0.40736762, -0.00951626, -0.00004333, -0.00212041, 100.41500854, 76.02655792, 32.09000015, 0.00000000
1, 43.8400, 4565, -0.05566406, -0.99316406, 0.29895020, -0.43640670, 0.70984364, -1.75875080, -23.58959389, 2.30926633, -57.73165512, 114.59826660, 5.88066006, -72.28910065, -0.41023722, 0.69499087, -0.47330618, -0.35309267, 0.15809415, 0.08870012, 0.11511859, 100.32800293, 83.32475281, 31.25000000, 0.00000000
1, 43.8200, 4742, -0.00108319, -1.00089765, 0.01318679, 0.89060140, -0.31311178, 0.55682266, -23.64805603, 3.80005836, -71.67494965, 90.49577332, -0.75747830, 69.94011688, 0.57422465, -0.58459592, -0.40320396, -0.40735778, -0.01216335, 0.00099911, -0.00619649, 100.41500854, 76.02655792, 32.09000015, 0.00000000
1, 43.8699, 4566, -0.05657959, -0.98620605, 0.30133057, -0.40140676, 0.53484356, -1.65375090, -23.56036186, 2.25080395, -58.49166870, 114.59052277, 5.91775990, -72.24869537, -0.41024098, 0.69522172, -0.47288790, -0.35319439, 0.15965140, 0.08174557, 0.11258666, 100.32800293, 83.32475281, 31.25000000, 0.00000000
1, 43.8250, 4743, 0.00118845, -0.99825346, 0.01292793, 0.67450237, -0.10449072, 0.49444181, -23.82344246, 3.62467122, -71.14878845, 90.52232361, -0.70347619, 69.94115448, 0.57427907, -0.58453691, -0.40357661, -0.40699643, -0.01398435, -0.00164793, -0.00566158, 100.41500854, 76.02655792, 32.09000015, 0.00000000
1, 43.8750, 4567, -0.05572510, -0.98620605, 0.30334473, -0.43640679, 0.60484362, -1.61875069, -23.53113174, 0.55539316, -58.49166870, 114.58897400, 5.92385864, -72.24254608, -0.41024172, 0.69525653, -0.47282124, -0.35321400, 0.15890463, 0.08174685, 0.11054848, 100.32800293, 83.32475281, 31.25000000, 0.00000000
1, 43.8300, 4744, 0.00108801, -0.99943292, 0.01387684, 0.67544347, -0.20641503, 0.38684383, -23.82344246, 3.62467122, -71.14878845, 90.52573395, -0.70539731, 69.94009399, 0.57425857, -0.58456439, -0.40357360, -0.40698886, -0.01343023, -0.00047369, -0.00635277, 100.41500854, 76.02655792, 32.09000015, 0.00000000
1, 43.8800, 4568, -0.05480957, -0.98431396, 0.30255127, -0.47140676, 0.56984353, -1.68875074, -23.53113174, 0.55539316, -58.49166870, 114.58724976, 5.93034649, -72.23641968, -0.41024178, 0.69529170, -0.47275260, -0.35323671, 0.15810174, 0.07985175, 0.11130702, 100.32800293, 83.32475281, 31.25000000, 0.00000000
1, 43.8350, 4745, 0.00074656, -0.99669516, 0.01362845, 0.78192317, -0.17232426, 0.45640528, -23.82344246, 3.62467122, -71.14878845, 90.52965546, -0.70766330, 69.93921661, 0.57423359, -0.58459508, -0.40357161, -0.40698212, -0.01312469, -0.00320982, -0.00603364, 100.41500854, 76.02655792, 32.09000015, 0.00000000
1, 43.8850, 4569, -0.05352783, -0.98333740, 0.30157471, -0.43640670, 0.53484356, -1.65375090, -23.64805603, 2.48465347, -58.28704834, 114.58567810, 5.93675041, -72.23052216, -0.41024059, 0.69532621, -0.47268620, -0.35325912, 0.15692994, 0.07887427, 0.11225426, 100.32800293, 83.32475281, 31.25000000, 0.00000000
1, 43.8400, 4746, 0.00172436, -0.99630749, 0.01557678, 0.67293257, 0.03391050, 0.53281277, -23.76498032, 3.65390229, -71.29494476, 90.53301239, -0.71031356, 69.93936920, 0.57420641, -0.58462065, -0.40357098, -0.40698448, -0.01415195, -0.00359949, -0.00791850, 100.41500854, 76.02655792, 32.09000015, 0.00000000
1, 43.8899, 4570, -0.05346680, -0.98400879, 0.30181885, -0.43640670, 0.49984357, -1.65375090, -23.64805603, 2.48465347, -58.28704834, 114.58408356, 5.94322681, -72.22478485, -0.41023862, 0.69536012, -0.47262037, -0.35328254, 0.15698129, 0.07954484, 0.11198014, 100.32800293, 83.32475281, 31.25000000, 0.00000000
1, 43.8600, 4747, 0.00596325, -0.99563658, 0.01484714, 0.74301201, 0.13730223, 0.60448951, -23.76498032, 3.80005836, -71.32417297, 90.54702759, -0.72074932, 69.93962097, 0.57409656, -0.58472633, -0.40356925, -0.40698916, -0.01856945, -0.00426460, -0.00693429, 100.41500854, 76.02655792, 32.09000015, 0.00000000
1, 43.8950, 4571, -0.05352783, -0.98486328, 0.30407715, -0.40140674, 0.39484346, -1.79375088, -23.29728127, 2.25080395, -58.60859299, 114.58264923, 5.95055819, -72.21923828, -0.41023135, 0.69539601, -0.47255272, -0.35331097, 0.15716749, 0.08040003, 0.10969214, 100.32800293, 83.32475281, 31.25000000, 0.00000000
1, 43.8650, 4748, 0.00802478, -0.99583054, 0.01374307, 0.67136133, 0.14083925, 0.43022490, -22.85881233, 3.27389646, -70.94416809, 90.55037689, -0.72289914, 69.94031525, 0.57406938, -0.58474821, -0.40357381, -0.40699172, -0.02067030, -0.00406787, -0.00576544, 100.41500854, 76.02655792, 32.09000015, 0.00000000
1, 43.9000, 4572, -0.05175781, -0.98626709, 0.30200195, -0.43640670, 0.39484355, -1.65375078, -23.29728127, 2.25080395, -58.60859299, 114.58100891, 5.95725632, -72.21397400, -0.41022721, 0.69542831, -0.47248873, -0.35333759, 0.15551183, 0.08180365, 0.11173826, 100.32800293, 83.32475281, 31.25000000, 0.00000000
1, 43.8700, 4749, 0.01039050, -0.99585104, 0.01312740, 0.77888852, 0.10364415, 0.56817824, -22.85881233, 3.27389646, -70.94416809, 90.55427551, -0.72573239, 69.94081879, 0.57403743, -0.58477581, -0.40357590, -0.40699479, -0.02308089, -0.00404509, -0.00507596, 100.41500854, 76.02655792, 32.09000015, 0.00000000
1, 43.8750, 4750, 0.00930605, -0.99618590, 0.01391404, 0.67429370, -0.07135004, 0.56533861, -23.67728615, 4.26775789, -71.49955750, 90.57993317, -0.65370619, 69.93920135, 0.57417047, -0.58465880, -0.40402266, -0.40653184, -0.02139458, -0.00371631, -0.00561250, 100.41500854, 76.02655792, 32.09000015, 0.00000000
1, 43.9050, 4573, -0.05236816, -0.98718262, 0.30200195, -0.43640676, 0.18484348, -1.86375093, -23.29728127, 2.25080395, -58.60859299, 114.57931519, 5.96534157, -72.20922852, -0.41021562, 0.69546181, -0.47242218, -0.35337436, 0.15626130, 0.08271970, 0.11170438, 100.32800293, 83.32475281, 31.25000000, 0.00000000
1, 43.9550, 4574, -0.05517578, -0.98986816, 0.29620361, -0.47140679, 0.21984345, -1.82875097, -23.50189972, 3.12774038, -58.55013275, 114.55631256, 6.04585838, -72.16355133, -0.41013232, 0.69576603, -0.47174916, -0.35377091, 0.16046506, 0.08537269, 0.11707841, 100.32800293, 83.32475281, 31.25000000, 0.00000000
1, 43.8800, 4751, 0.00838499, -0.99626923, 0.01197156, 0.74510562, -0.03674190, 0.60031444, -23.67728615, 4.26775789, -71.49955750, 90.58365631, -0.65669453, 69.93898773, 0.57414150, -0.58468866, -0.40401971, -0.40653276, -0.01986627, -0.00363462, -0.00341610, 100.41500854, 76.02655792, 32.09000015, 0.00000000
1, 43.8850, 4752, 0.00785982, -0.99808693, 0.01151207, 0.67429370, -0.07135004, 0.56533867, -23.67728615, 4.26775789, -71.49955750, 90.58704376, -0.65950882, 69.93860626, 0.57411546, -0.58471674, -0.40401554, -0.40653315, -0.01939213, -0.00181494, -0.00289879, 100.41500854, 76.02655792, 32.09000015, 0.00000000
1, 43.9599, 4575, -0.05505371, -0.98907471, 0.29589844, -0.47140679, 0.14984344, -1.82875097, -23.91113663, 3.15697169, -58.55013275, 114.55443573, 6.05386686, -72.15904236, -0.41012147, 0.69579756, -0.47168368, -0.35380879, 0.16048464, 0.08458105, 0.11735167, 100.32800293, 83.32475281, 31.25000000, 0.00000000
1, 43.8900, 4753, 0.00730746, -0.99812639, 0.01041967, 0.70912415, -0.00224980, 0.60159457, -23.82344246, 4.56007004, -71.85033417, 90.59058380, -0.66250902, 69.93857574, 0.57408679, -0.58474511, -0.40401286, -0.40653574, -0.01888630, -0.00177237, -0.00174746, 100.41500854, 76.02655792, 32.09000015, 0.00000000
1, 43.9650, 4576, -0.05584717, -0.98986816, 0.29626465, -0.26140672, 0.18484348, -1.79375088, -23.91113663, 3.15697169, -58.55013275, 114.55361938, 6.06164646, -72.15444183, -0.41010550, 0.69583273, -0.47162187, -0.35384068, 0.16141185, 0.08537848, 0.11696003, 100.32800293, 83.32475281, 31.25000000, 0.00000000
1, 43.9700, 4577, -0.05725098, -0.98889160, 0.29681396, -0.40140674, -0.02515665, -1.72375083, -23.99883080, 3.15697169, -58.60859299, 114.55197906, 6.06953812, -72.15095520, -0.41009054, 0.69586068, -0.47156379, -0.35388052, 0.16295150, 0.08440487, 0.11638218, 100.32800293, 83.32475281, 31.25000000, 0.00000000
1, 43.8950, 4754, 0.00766209, -0.99664581, 0.01214872, 0.67251527, 0.10019185, 0.67460662, -23.82344246, 4.56007004, -71.85033417, 90.59394836, -0.66586816, 69.93903351, 0.57405597, -0.58477199, -0.40401012, -0.40654320, -0.01930384, -0.00325449, -0.00341292, 100.41500854, 76.02655792, 32.09000015, 0.00000000
1, 43.9750, 4578, -0.05670166, -0.98779297, 0.29656982, -0.43640670, -0.09515664, -1.75875080, -23.99883080, 3.15697169, -58.60859299, 114.55014801, 6.07774115, -72.14771271, -0.41007462, 0.69588763, -0.47150534, -0.35392389, 0.16254452, 0.08330740, 0.11659253, 100.32800293, 83.32475281, 31.25000000, 0.00000000
1, 43.9000, 4755, 0.00711934, -0.99712718, 0.01171575, 0.67241019, 0.10102592, 0.63957572, -23.35574341, 4.00467682, -71.52879333, 90.59732056, -0.66907001, 69.93952942, 0.57402551, -0.58479840, -0.40400842, -0.40654993, -0.01881579, -0.00277112, -0.00292178, 100.41500854, 76.02655792, 32.09000015, 0.00000000
1, 43.9799, 4579, -0.05627441, -0.98498535, 0.29492188, -0.43640670, -0.13015670, -1.68875074, -23.99883080, 3.15697169, -58.60859299, 114.54827118, 6.08569288, -72.14478302, -0.41005909, 0.69591248, -0.47144964, -0.35396704, 0.16225541, 0.08049975, 0.11820509, 100.32800293, 83.32475281, 31.25000000, 0.00000000
1, 43.9050, 4756, 0.00581401, -0.99858963, 0.01375647, 0.53288001, -0.14223447, 0.56544924, -23.35574341, 4.00467682, -71.52879333, 90.59999847, -0.67188096, 69.93878174, 0.57400435, -0.58482414, -0.40399989, -0.40655097, -0.01756642, -0.00131107, -0.00492156, 100.41500854, 76.02655792, 32.09000015, 0.00000000
1, 43.9500, 4757, 0.00281382, -0.99522603, 0.00672566, 0.56425571, 0.20617053, 0.57335418, -23.47266769, 3.62467122, -71.67494965, 90.62931824, -0.66238791, 69.92051697, 0.57395357, -0.58500236, -0.40405864, -0.40630808, -0.01438285, -0.00465948, 0.00261936, 100.41500854, 76.02655792, 32.09000015, 0.00000000
1, 43.9850, 4580, -0.05523682, -0.98748779, 0.29577637, -0.33140674, 0.00984338, -1.65375078, -23.76498032, 2.71850324, -58.34551239, 114.54698944, 6.09319115, -72.14128113, -0.41004384, 0.69594073, -0.47139412, -0.35400313, 0.16134784, 0.08300416, 0.11732146, 100.32800293, 83.32475281, 31.25000000, 0.00000000
1, 43.9550, 4758, 0.00696461, -0.99572778, 0.00913189, 0.63684607, 0.06923675, 0.49906203, -23.47266769, 3.62467122, -71.67494965, 90.63251495, -0.66488457, 69.92083740, 0.57392716, -0.58502591, -0.40405896, -0.40631104, -0.01858481, -0.00416060, 0.00027664, 100.41500854, 76.02655792, 32.09000015, 0.00000000
1, 43.9900, 4581, -0.05590820, -0.98950195, 0.29711914, -0.36640674, -0.09515664, -1.58375072, -23.76498032, 2.71850324, -58.34551239, 114.54546356, 6.10059261, -72.13840485, -0.41002855, 0.69596529, -0.47134206, -0.35404187, 0.16215178, 0.08502090, 0.11595026, 100.32800293, 83.32475281, 31.25000000, 0.00000000
1, 43.9949, 4582, -0.05426025, -0.98986816, 0.29925537, -0.43640670, 0.07984336, -1.61875069, -23.70651817, 2.04618526, -58.66705704, 114.54368591, 6.10778809, -72.13465881, -0.41001841, 0.69599205, -0.47128475, -0.35407737, 0.16062863, 0.08538695, 0.11378145, 100.32800293, 83.32475281, 31.25000000, 0.00000000
1, 43.9600, 4759, 0.00858088, -0.99798977, 0.01035743, 0.67743337, -0.34815261, 0.48859671, -23.47266769, 3.62467122, -71.67494965, 90.63593292, -0.66730243, 69.91908264, 0.57390732, -0.58505774, -0.40404993, -0.40630245, -0.02024665, -0.00189945, -0.00089079, 100.41500854, 76.02655792, 32.09000015, 0.00000000
1, 44.0000, 4583, -0.05395508, -0.98876953, 0.29919434, -0.50640678, 0.07984336, -1.58375061, -23.70651817, 2.04618526, -58.66705704, 114.54154968, 6.11482573, -72.13098907, -0.41001093, 0.69601679, -0.47122744, -0.35411367, 0.16044620, 0.08428480, 0.11380318, 100.32800293, 83.32475281, 31.25000000, 0.00000000
1, 43.9650, 4760, 0.00949551, -0.99799514, 0.01096178, 0.71121633, -0.20776647, 0.45646060, -23.53113174, 4.29698896, -71.47032928, 90.63951111, -0.66956872, 69.91801453, 0.57388467, -0.58508724, -0.40404570, -0.40629596, -0.02120204, -0.00189399, -0.00142877, 100.41500854, 76.02655792, 32.09000015, 0.00000000
1, 44.0400, 4584, -0.05114746, -0.98724365, 0.29943848, -0.54140681, 0.04484339, -1.68875074, -23.58959389, 2.33849740, -58.40397644, 114.52337646, 6.16954803, -72.10020447, -0.40996918, 0.69621265, -0.47076312, -0.35439435, 0.15858550, 0.08272129, 0.11323142, 100.32800293, 83.32475281, 31.25000000, 0.00000000
1, 43.9700, 4761, 0.00801684, -0.99556804, 0.01295859, 0.46217185, -0.20914926, 0.42454571, -23.53113174, 4.29698896, -71.47032928, 90.64182281, -0.67166394, 69.91694641, 0.57386911, -0.58510995, -0.40403786, -0.40629303, -0.01976660, -0.00432327, -0.00337851, 100.41500854, 76.02655792, 32.09000015, 0.00000000
1, 44.0450, 4585, -0.05108643, -0.98791504, 0.29742432, -0.61140686, -0.06015667, -1.75875080, -23.56036186, 2.86465931, -58.17012405, 114.52069092, 6.17767620, -72.09680176, -0.40995932, 0.69623697, -0.47070128, -0.35444018, 0.15866151, 0.08338759, 0.11519854, 100.32800293, 83.32475281, 31.25000000, 0.00000000
1, 43.9750, 4762, 0.00665344, -0.99432099, 0.01110465, 0.53748447, -0.55660415, 0.41530526, -24.02806091, 4.03390837, -70.94416809, 90.64891052, -0.62081337, 69.90869141, 0.57404447, -0.58499724, -0.40427756, -0.40596911, -0.01797285, -0.00557113, -0.00144369, 100.41500854, 76.02655792, 32.09000015, 0.00000000
1, 44.0499, 4586, -0.05023193, -0.98889160, 0.29833984, -0.61140686, 0.00984338, -1.61875069, -23.56036186, 2.86465931, -58.17012405, 114.51800537, 6.18502140, -72.09336853, -0.40995300, 0.69625944, -0.47064239, -0.35448134, 0.15793785, 0.08435763, 0.11423475, 100.32800293, 83.32475281, 31.25000000, 0.00000000
1, 43.9800, 4763, 0.00593806, -0.99461389, 0.01280211, 0.64490664, -0.59296513, 0.51822770, -24.02806091, 4.03390837, -70.94416809, 90.65217590, -0.62336117, 69.90570068, 0.57402927, -0.58503300, -0.40426096, -0.40595552, -0.01684308, -0.00528480, -0.00305137, 100.41500854, 76.02655792, 32.09000015, 0.00000000
1, 44.0550, 4587, -0.05114746, -0.98992920, 0.29742432, -0.54140681, -0.16515666, -1.58375061, -23.56036186, 2.86465931, -58.17012405, 114.51557922, 6.19257498, -72.09081268, -0.40994155, 0.69627982, -0.47058883, -0.35452580, 0.15898517, 0.08539087, 0.11510623, 100.32800293, 83.32475281, 31.25000000, 0.00000000
1, 43.9850, 4764, 0.00355102, -0.99375880, 0.01161199, 0.53570598, -0.38506222, 0.52457321, -24.02806091, 4.03390837, -71.64571381, 90.65487671, -0.62595510, 69.90373993, 0.57401305, -0.58506250, -0.40424746, -0.40594929, -0.01449835, -0.00613690, -0.00181558, 100.41500854, 76.02655792, 32.09000015, 0.00000000
1, 44.0600, 4588, -0.05053711, -0.98956299, 0.29589844, -0.54140681, -0.20015670, -1.61875069, -23.18035698, 2.60157847, -58.25782013, 114.51313019, 6.20035696, -72.08834839, -0.40992886, 0.69630033, -0.47053486, -0.35457197, 0.15850925, 0.08502047, 0.11658770, 100.32800293, 83.32475281, 31.25000000, 0.00000000
1, 44.0250, 4765, 0.00324663, -0.99837625, 0.01140006, 0.31761706, -0.03470365, 0.36043951, -23.44343758, 3.74159598, -71.52879333, 90.68508148, -0.56762892, 69.88786316, 0.57412398, -0.58506644, -0.40456772, -0.40546754, -0.01384120, -0.00151734, -0.00115611, 100.41500854, 76.02655792, 32.09000015, 0.00000000
1, 44.0650, 4589, -0.04956055, -0.98907471, 0.29400635, -0.40140676, -0.27015674, -1.58375061, -23.18035698, 2.60157847, -58.25782013, 114.51135254, 6.20812368, -72.08628082, -0.40991101, 0.69632149, -0.47048536, -0.35461676, 0.15766685, 0.08453013, 0.11844020, 100.32800293, 83.32475281, 31.25000000, 0.00000000
1, 44.0300, 4766, 0.00381187, -0.99658787, 0.00815331, 0.56802273, -0.13858144, 0.42488027, -23.44343758, 3.74159598, -71.52879333, 90.68791962, -0.56973952, 69.88714600, 0.57410449, -0.58509058, -0.40456349, -0.40546465, -0.01377073, -0.00330556, 0.00221615, 100.41500854, 76.02655792, 32.09000015, 0.00000000
1, 44.0700, 4590, -0.04882813, -0.98834229, 0.29357910, -0.33140674, -0.23515671, -1.51375067, -23.79421234, 3.18620276, -58.37474442, 114.50992584, 6.21550369, -72.08419800, -0.40989277, 0.69634300, -0.47043839, -0.35465777, 0.15706646, 0.08380101, 0.11884013, 100.32800293, 83.32475281, 31.25000000, 0.00000000
1, 44.0350, 4767, 0.00405943, -0.99740887, 0.00704281, 0.42409673, -0.00061291, 0.43000093, -23.99883080, 4.26775789, -71.11955261, 90.69004822, -0.57188946, 69.88712311, 0.57408595, -0.58510876, -0.40456000, -0.40546787, -0.01405270, -0.00248196, 0.00336781, 100.41500854, 76.02655792, 32.09000015, 0.00000000
1, 44.0400, 4768, 0.00353177, -0.99806714, 0.00885390, 0.52931744, 0.07495929, 0.22014967, -23.99883080, 4.26775789, -71.11955261, 90.69270325, -0.57298905, 69.88748932, 0.57406723, -0.58512467, -0.40456575, -0.40546596, -0.01355352, -0.00182591, 0.00159433, 100.41500854, 76.02655792, 32.09000015, 0.00000000
1, 44.0750, 4591, -0.04931641, -0.98699951, 0.29339600, -0.26140672, -0.20015670, -1.44375074, -23.79421234, 3.18620276, -58.37474442, 114.50885773, 6.22248793, -72.08209991, -0.40987423, 0.69636494, -0.47039407, -0.35469502, 0.15767536, 0.08246137, 0.11899827, 100.32800293, 83.32475281, 31.25000000, 0.00000000
1, 44.0450, 4769, 0.00682511, -0.99803102, 0.01127360, 0.63810080, -0.06666227, 0.35559812, -23.99883080, 4.26775789, -71.11955261, 90.69590759, -0.57476002, 69.88713074, 0.57404578, -0.58514810, -0.40456629, -0.40546182, -0.01688080, -0.00186489, -0.00076289, 100.41500854, 76.02655792, 32.09000015, 0.00000000
1, 44.0800, 4592, -0.05078125, -0.98956299, 0.29486084, -0.29640672, -0.23515671, -1.37375069, -23.79421234, 3.18620276, -58.37474442, 114.50756836, 6.22923136, -72.08029938, -0.40985706, 0.69638419, -0.47035190, -0.35473278, 0.15926053, 0.08502811, 0.11750907, 100.32800293, 83.32475281, 31.25000000, 0.00000000
1, 44.0500, 4770, 0.00615608, -0.99843645, 0.01017435, 0.63914829, -0.13794807, 0.42398995, -23.61882401, 4.29698896, -71.14878845, 90.69911957, -0.57687235, 69.88642120, 0.57402432, -0.58517408, -0.40456343, -0.40545768, -0.01624425, -0.00145661, 0.00039158, 100.41500854, 76.02655792, 32.09000015, 0.00000000
1, 44.0849, 4593, -0.05108643, -0.98913574, 0.29492188, -0.22640668, -0.27015674, -1.30375063, -24.14498711, 2.60157847, -58.75474930, 114.50660706, 6.23572493, -72.07882690, -0.40983820, 0.69640267, -0.47031361, -0.35476896, 0.15967774, 0.08460504, 0.11742778, 100.32800293, 83.32475281, 31.25000000, 0.00000000
1, 44.1399, 4594, -0.05102539, -0.98645020, 0.29559326, -0.57640684, -0.20015670, -1.26875055, -23.70651817, 2.92312193, -59.13475418, 114.48412323, 6.30753994, -72.06640625, -0.40968868, 0.69654912, -0.46987778, -0.35523143, 0.16086400, 0.08188513, 0.11635032, 100.32800293, 83.32475281, 31.25000000, 0.00000000
1, 44.0550, 4771, 0.00724562, -0.99840975, 0.00956382, 0.35433093, -0.13797940, 0.32245833, -23.61882401, 4.29698896, -71.14878845, 90.70088959, -0.57846379, 69.88571930, 0.57401204, -0.58519101, -0.40455806, -0.40545592, -0.01736328, -0.00148157, 0.00104058, 100.41500854, 76.02655792, 32.09000015, 0.00000000
1, 44.1450, 4595, -0.05120850, -0.98785400, 0.29718018, -0.47140679, -0.16515669, -1.16375065, -23.23881912, 2.89389062, -59.10552216, 114.48194885, 6.31317711, -72.06473541, -0.40968159, 0.69656199, -0.46983805, -0.35526693, 0.16114894, 0.08328170, 0.11472006, 100.32800293, 83.32475281, 31.25000000, 0.00000000
1, 44.0600, 4772, 0.00569371, -0.99765599, 0.00545313, 0.57189476, -0.48416758, 0.31143725, -23.96959877, 3.80005836, -71.00263214, 90.70378113, -0.57999033, 69.88328552, 0.57400048, -0.58521944, -0.40454817, -0.40544128, -0.01582647, -0.00222777, 0.00519434, 100.41500854, 76.02655792, 32.09000015, 0.00000000
1, 44.0650, 4773, 0.00516581, -0.99409831, 0.00637576, 0.67638594, -0.27686676, 0.42020473, -23.96959877, 3.80005836, -71.00263214, 90.70719147, -0.58206344, 69.88187408, 0.57398063, -0.58524871, -0.40454257, -0.40543270, -0.01533532, -0.00578600, 0.00433417, 100.41500854, 76.02655792, 32.09000015, 0.00000000
1, 44.1500, 4596, -0.04937744, -0.98773193, 0.29779053, 0.05742289, -0.33304796, 0.43531206, -23.23881912, 2.89389062, -59.10552216, 114.48196411, 6.31188822, -72.06716919, -0.40967977, 0.69654894, -0.46985814, -0.35526809, 0.15932292, 0.08315760, 0.11410414, 100.32800293, 83.32475281, 31.25000000, 0.00000000
1, 44.0700, 4774, 0.00414265, -0.99489462, 0.00618113, 0.52900517, 0.14040656, 0.39697459, -23.96959877, 3.80005836, -71.00263214, 90.70983887, -0.58404440, 69.88256073, 0.57395756, -0.58526647, -0.40454540, -0.40543678, -0.01434762, -0.00498848, 0.00457596, 100.41500854, 76.02655792, 32.09000015, 0.00000000
1, 44.1550, 4597, -0.04992676, -0.98883057, 0.29736328, 0.09242290, -0.29804796, 0.47031206, -23.91113663, 2.42619109, -58.52090073, 114.48217010, 6.31036377, -72.06951904, -0.40967813, 0.69653630, -0.46987921, -0.35526687, 0.15984844, 0.08425391, 0.11453271, 100.32800293, 83.32475281, 31.25000000, 0.00000000
1, 44.1250, 4775, 0.00027291, -0.99991095, 0.00828142, -0.01691491, -0.36116612, -0.06097127, -23.88190651, 4.64776373, -71.49955750, 90.69433594, -0.46936062, 69.83395386, 0.57461882, -0.58496034, -0.40482089, -0.40466607, -0.00908091, 0.00000990, 0.00233855, 100.41500854, 76.02655792, 32.09000015, 0.00000000
1, 44.1600, 4598, -0.05029297, -0.98895264, 0.29913330, 0.16242294, -0.47304803, 0.47031206, -23.91113663, 2.42619109, -58.52090073, 114.48262787, 6.30919838, -72.07266998, -0.40967083, 0.69652218, -0.46990457, -0.35526955, 0.16019258, 0.08437602, 0.11276866, 100.32800293, 83.32475281, 31.25000000, 0.00000000
1, 44.1300, 4776, -0.00018009, -1.00097036, 0.01160297, -0.12486081, -0.28916222, -0.19808963, -23.88190651, 4.64776373, -71.49955750, 90.69371796, -0.46835658, 69.83252716, 0.57463062, -0.58495879, -0.40481651, -0.40465602, -0.00803313, 0.00105675, -0.00113508, 100.41500854, 76.02655792, 32.09000015, 0.00000000
1, 44.1650, 4599, -0.05096436, -0.98895264, 0.29943848, 0.12742288, -0.33304799, 0.54031205, -23.91113663, 2.42619109, -58.52090073, 114.48297882, 6.30743027, -72.07532501, -0.40966848, 0.69650823, -0.46992892, -0.35526738, 0.16083452, 0.08437736, 0.11247416, 100.32800293, 83.32475281, 31.25000000, 0.00000000
1, 44.1700, 4600, -0.05041504, -0.98791504, 0.29901123, 0.09242288, -0.40304801, 0.54031205, -23.29728127, 2.77696586, -57.99473953, 114.48311615, 6.30580616, -72.07829285, -0.40966576, 0.69649255, -0.46995398, -0.35526806, 0.16025577, 0.08333782, 0.11290528, 100.32800293, 83.32475281, 31.25000000, 0.00000000
1, 44.1350, 4777, 0.00051607, -0.99858773, 0.01140488, -0.01785878, -0.32218692, -0.23529111, -23.64805603, 4.32622051, -71.47032928, 90.69363403, -0.46716636, 69.83092499, 0.57464093, -0.58495992, -0.40481403, -0.40464219, -0.00870807, -0.00132590, -0.00093581, 100.41500854, 76.02655792, 32.09000015, 0.00000000
1, 44.1749, 4601, -0.05047607, -0.98937988, 0.29888916, 0.19742289, -0.29804796, 0.61031210, -23.29728127, 2.77696586, -57.99473953, 114.48381805, 6.30364799, -72.08092499, -0.40966311, 0.69647896, -0.46998090, -0.35526216, 0.16028339, 0.08480308, 0.11303695, 100.32800293, 83.32475281, 31.25000000, 0.00000000
1, 44.1400, 4778, 0.00336960, -0.99872577, 0.01084601, -0.05415396, -0.25372002, -0.19814493, -23.64805603, 4.32622051, -71.47032928, 90.69337463, -0.46616226, 69.82965851, 0.57465029, -0.58495957, -0.40481174, -0.40463167, -0.01154101, -0.00118686, -0.00037462, 100.41500854, 76.02655792, 32.09000015, 0.00000000
1, 44.1450, 4779, 0.00378926, -0.99869883, 0.00993397, 0.01571406, -0.18013267, -0.33748907, -23.64805603, 4.32622051, -71.47032928, 90.69345856, -0.46446151, 69.82877350, 0.57465905, -0.58495718, -0.40481609, -0.40461829, -0.01193182, -0.00121266, 0.00054009, 100.41500854, 76.02655792, 32.09000015, 0.00000000
1, 44.1800, 4602, -0.05126953, -0.98901367, 0.29724121, 0.23242293, -0.43804801, 0.64531213, -23.12189484, 1.81233561, -58.95936966, 114.48461151, 6.30161953, -72.08428192, -0.40965703, 0.69646305, -0.47001195, -0.35525918, 0.16104317, 0.08443875, 0.11469801, 100.32800293, 83.32475281, 31.25000000, 0.00000000
1, 44.1850, 4603, -0.05059814, -0.99011230, 0.29669189, 0.33742300, -0.43804801, 0.68031210, -23.12189484, 1.81233561, -58.95936966, 114.48593140, 6.29943275, -72.08771515, -0.40964833, 0.69644833, -0.47004572, -0.35525343, 0.16033107, 0.08554268, 0.11526981, 100.32800293, 83.32475281, 31.25000000, 0.00000000
1, 44.1500, 4780, 0.00309989, -0.99758410, 0.00880414, 0.12219377, -0.14604191, -0.26792765, -23.23881912, 4.44314528, -71.49955750, 90.69407654, -0.46312103, 69.82806396, 0.57466328, -0.58495814, -0.40482143, -0.40460581, -0.01121456, -0.00232563, 0.00167939, 100.41500854, 76.02655792, 32.09000015, 0.00000000
1, 44.2050, 4604, -0.05102539, -0.99041748, 0.29431152, 0.26742294, -0.33304796, 0.78531224, -23.88190651, 1.19848001, -58.75474930, 114.48926544, 6.28928614, -72.10128021, -0.40963185, 0.69637984, -0.47017962, -0.35522965, 0.16058692, 0.08585513, 0.11771189, 100.32800293, 83.32475281, 31.25000000, 0.00000000
1, 44.1550, 4781, 0.00454483, -0.99642491, 0.00924755, 0.15702415, -0.07694164, -0.23167180, -23.23881912, 4.44314528, -71.49955750, 90.69486237, -0.46194789, 69.82768250, 0.57466477, -0.58495933, -0.40482816, -0.40459514, -0.01264022, -0.00348559, 0.00125361, 100.41500854, 76.02655792, 32.09000015, 0.00000000
1, 44.2099, 4605, -0.04809570, -0.98962402, 0.29400635, 0.16242290, -0.22804792, 0.71531212, -23.88190651, 1.19848001, -58.75474930, 114.48980713, 6.28650379, -72.10381317, -0.40963331, 0.69636452, -0.47020796, -0.35522044, 0.15760890, 0.08506121, 0.11802882, 100.32800293, 83.32475281, 31.25000000, 0.00000000
1, 44.1600, 4782, 0.00527899, -0.99695635, 0.00893088, 0.08495612, -0.00712329, -0.26414242, -23.82344246, 3.88775206, -71.82110596, 90.69529724, -0.46064156, 69.82765961, 0.57466733, -0.58495706, -0.40483618, -0.40458685, -0.01335059, -0.00295365, 0.00158020, 100.41500854, 76.02655792, 32.09000015, 0.00000000
1, 44.2150, 4606, -0.04614258, -0.98968506, 0.29437256, 0.09242290, -0.08804789, 0.75031215, -23.88190651, 1.19848001, -58.75474930, 114.49004364, 6.28327179, -72.10578918, -0.40964034, 0.69634938, -0.47023377, -0.35520783, 0.15560167, 0.08511851, 0.11766879, 100.32800293, 83.32475281, 31.25000000, 0.00000000
1, 44.1650, 4783, 0.00611279, -0.99624753, 0.00766650, 0.12072897, -0.00847472, -0.19452560, -23.82344246, 3.88775206, -71.82110596, 90.69588470, -0.45966303, 69.82762909, 0.57466793, -0.58495671, -0.40484303, -0.40457967, -0.01416259, -0.00366053, 0.00285831, 100.41500854, 76.02655792, 32.09000015, 0.00000000
1, 44.2200, 4607, -0.04541016, -0.98931885, 0.29266357, 0.02242286, 0.01695216, 0.82031220, -23.73575020, 2.95235300, -58.60859299, 114.48998260, 6.27950430, -72.10741425, -0.40965271, 0.69633323, -0.47025874, -0.35519218, 0.15480578, 0.08474724, 0.11938336, 100.32800293, 83.32475281, 31.25000000, 0.00000000
1, 44.1700, 4784, 0.00785424, -0.99517059, 0.00664940, 0.18819113, 0.30460408, -0.15286979, -23.82344246, 3.88775206, -71.82110596, 90.69682312, -0.45890835, 69.82913971, 0.57466048, -0.58495337, -0.40485784, -0.40458012, -0.01588665, -0.00473565, 0.00389629, 100.41500854, 76.02655792, 32.09000015, 0.00000000
1, 44.2250, 4608, -0.04333496, -0.98895264, 0.29510498, -0.08257720, 0.12195221, 0.82031220, -23.73575020, 2.95235300, -58.60859299, 114.48944855, 6.27551889, -72.10856628, -0.40967041, 0.69631684, -0.47028020, -0.35517550, 0.15266345, 0.08437101, 0.11693785, 100.32800293, 83.32475281, 31.25000000, 0.00000000
1, 44.1800, 4785, 0.01280757, -0.99623454, 0.01001378, 0.18871348, 0.23748860, -0.25963280, -23.53113174, 4.26775789, -71.23648071, 90.68589783, -0.35645625, 69.81397247, 0.57513559, -0.58459449, -0.40525854, -0.40402240, -0.01906353, -0.00369223, 0.00035053, 100.41500854, 76.02655792, 32.09000015, 0.00000000
1, 44.2299, 4609, -0.04504395, -0.98999023, 0.29577637, 0.05742286, 0.26195225, 0.82031220, -23.06343079, 2.77696586, -58.84244156, 114.48969269, 6.27124643, -72.10907745, -0.40968668, 0.69630510, -0.47030130, -0.35515165, 0.15429971, 0.08540051, 0.11626817, 100.32800293, 83.32475281, 31.25000000, 0.00000000
1, 44.1850, 4786, 0.01463443, -0.99514329, 0.01337040, 0.29906660, -0.04253421, -0.16255540, -23.32651329, 4.38468266, -71.38263702, 90.68739319, -0.35563159, 69.81375885, 0.57513160, -0.58459979, -0.40526682, -0.40401179, -0.02088309, -0.00478869, -0.00297540, 100.41500854, 76.02655792, 32.09000015, 0.00000000
1, 44.2350, 4610, -0.04510498, -0.98956299, 0.29522705, -0.04757716, 0.33195227, 0.89031214, -23.06343079, 2.77696586, -58.84244156, 114.48941040, 6.26650810, -72.10941315, -0.40970874, 0.69629115, -0.47032169, -0.35512662, 0.15427777, 0.08496422, 0.11681946, 100.32800293, 83.32475281, 31.25000000, 0.00000000
1, 44.1900, 4787, 0.01499528, -0.99581444, 0.01116906, 0.15807164, -0.14822745, -0.16327982, -23.32651329, 4.38468266, -71.38263702, 90.68817902, -0.35480675, 69.81303406, 0.57513314, -0.58460349, -0.40527010, -0.40400121, -0.02122399, -0.00411397, -0.00075583, 100.41500854, 76.02655792, 32.09000015, 0.00000000
1, 44.2400, 4611, -0.04467773, -0.98895264, 0.29595947, 0.02242286, 0.36695230, 0.82031220, -23.06343079, 2.77696586, -58.84244156, 114.48952484, 6.26202011, -72.10943604, -0.40972826, 0.69628048, -0.47034040, -0.35510036, 0.15377331, 0.08434753, 0.11609362, 100.32800293, 83.32475281, 31.25000000, 0.00000000
1, 44.1950, 4788, 0.01457455, -0.99554968, 0.01257285, 0.14840858, -0.27938336, -0.21283723, -23.32651329, 4.38468266, -71.38263702, 90.68892670, -0.35372755, 69.81163025, 0.57513809, -0.58460838, -0.40527099, -0.40398604, -0.02078992, -0.00438086, -0.00214790, 100.41500854, 76.02655792, 32.09000015, 0.00000000
1, 44.2449, 4612, -0.04541016, -0.98937988, 0.29473877, 0.26742294, 0.29695228, 0.75031215, -23.79421234, 2.63080978, -59.04706192, 114.49083710, 6.25799036, -72.10964203, -0.40973786, 0.69627446, -0.47036204, -0.35507244, 0.15443319, 0.08477460, 0.11733310, 100.32800293, 83.32475281, 31.25000000, 0.00000000
1, 44.2000, 4789, 0.01119881, -0.99758613, 0.01236142, 0.12059270, -0.90792716, -0.15736039, -23.35574341, 4.50160789, -71.61648560, 90.68955994, -0.35288915, 69.80710602, 0.57515383, -0.58462465, -0.40525436, -0.40395683, -0.01739639, -0.00234414, -0.00193741, 100.41500854, 76.02655792, 32.09000015, 0.00000000
1, 44.2050, 4790, 0.00580649, -0.99867368, 0.01223618, 0.18826354, -0.62798911, -0.18660159, -23.35574341, 4.50160789, -71.61648560, 90.69051361, -0.35192606, 69.80397797, 0.57516342, -0.58463711, -0.40524662, -0.40393287, -0.01198665, -0.00125633, -0.00181042, 100.41500854, 76.02655792, 32.09000015, 0.00000000
1, 44.2500, 4613, -0.04608154, -0.98864746, 0.29565430, 0.17336038, 0.31363195, 0.75578123, -23.79421234, 2.63080978, -59.04706192, 114.49169159, 6.25389862, -72.10978699, -0.40975076, 0.69626689, -0.47038209, -0.35504586, 0.15503123, 0.08404185, 0.11643611, 100.32800293, 83.32475281, 31.25000000, 0.00000000
1, 44.2999, 4614, -0.04492188, -0.98919678, 0.29223633, 0.42929798, -0.15968858, 0.83125037, -23.38497543, 2.60157847, -59.39783478, 114.50856781, 6.22255993, -72.12949371, -0.40972883, 0.69616944, -0.47068089, -0.35486606, 0.15332890, 0.08465591, 0.12013946, 100.32800293, 83.32475281, 31.25000000, 0.00000000
1, 44.2100, 4791, 0.00130641, -0.99835265, 0.01207513, -0.06371199, -0.38571003, -0.21267140, -23.67728615, 4.32622051, -71.90879822, 90.69021606, -0.35084698, 69.80207062, 0.57517546, -0.58463860, -0.40524125, -0.40391880, -0.00746860, -0.00157706, -0.00166067, 100.41500854, 76.02655792, 32.09000015, 0.00000000
1, 44.2150, 4792, 0.00137074, -0.99802208, 0.01347863, -0.13379148, -0.48910177, -0.28434798, -23.67728615, 4.32622051, -71.90879822, 90.68955994, -0.34939212, 69.79962921, 0.57519263, -0.58463883, -0.40523377, -0.40390146, -0.00751287, -0.00191031, -0.00307499, 100.41500854, 76.02655792, 32.09000015, 0.00000000
1, 44.3050, 4615, -0.04425049, -0.98828125, 0.29174805, 0.28929794, -0.08968854, 0.86625034, -23.44343758, 3.18620276, -58.49166870, 114.50978088, 6.21880674, -72.13171387, -0.40973160, 0.69615543, -0.47071326, -0.35484737, 0.15259176, 0.08374387, 0.12065263, 100.32800293, 83.32475281, 31.25000000, 0.00000000
1, 44.3100, 4616, -0.04553223, -0.98937988, 0.29150391, 0.25429791, 0.05031149, 0.76125038, -23.44343758, 3.18620276, -58.49166870, 114.51091003, 6.21524096, -72.13306427, -0.40973669, 0.69614518, -0.47073942, -0.35482699, 0.15381154, 0.08484433, 0.12091711, 100.32800293, 83.32475281, 31.25000000, 0.00000000
1, 44.2200, 4793, -0.00014881, -0.99791825, 0.01354644, 0.11357818, -0.34848368, -0.24909310, -23.67728615, 4.32622051, -71.90879822, 90.69013214, -0.34813693, 69.79790497, 0.57520032, -0.58464342, -0.40523338, -0.40388450, -0.00596966, -0.00201430, -0.00314086, 100.41500854, 76.02655792, 32.09000015, 0.00000000
1, 44.3150, 4617, -0.04553223, -0.98895264, 0.29187012, 0.25429794, 0.01531149, 0.79625040, -23.44343758, 3.18620276, -58.49166870, 114.51200867, 6.21158648, -72.13466644, -0.40974161, 0.69613361, -0.47076729, -0.35480708, 0.15375003, 0.08441941, 0.12057200, 100.32800293, 83.32475281, 31.25000000, 0.00000000
1, 44.2250, 4794, 0.00184179, -0.99778366, 0.01141643, 0.10740250, 0.17281480, -0.20153695, -23.44343758, 1.60771704, -71.82110596, 90.68908691, -0.28821310, 69.79118347, 0.57544291, -0.58445251, -0.40549743, -0.40354988, -0.00742312, -0.00214850, -0.00100845, 100.41500854, 76.02655792, 32.09000015, 0.00000000
1, 44.3200, 4618, -0.04473877, -0.98968506, 0.29357910, 0.28929794, 0.08531153, 0.79625034, -23.53113174, 3.30312777, -58.52090073, 114.51332092, 6.20778894, -72.13592529, -0.40974692, 0.69612378, -0.47079441, -0.35478431, 0.15289204, 0.08515491, 0.11888665, 100.32800293, 83.32475281, 31.25000000, 0.00000000
1, 44.2600, 4795, 0.01253475, -0.99462032, 0.00852799, 0.00113568, 0.20000093, 0.08088135, -23.58959389, 4.64776373, -71.35340118, 90.68675995, -0.28313136, 69.79877472, 0.57544619, -0.58439624, -0.40555358, -0.40357044, -0.01749966, -0.00531087, 0.00186044, 100.41500854, 76.02655792, 32.09000015, 0.00000000
1, 44.3250, 4619, -0.04675293, -0.99133301, 0.29589844, 0.28929794, 0.08531150, 0.83125037, -23.53113174, 3.30312777, -58.52090073, 114.51462555, 6.20383739, -72.13726807, -0.40975267, 0.69611323, -0.47082254, -0.35476089, 0.15483500, 0.08680529, 0.11659139, 100.32800293, 83.32475281, 31.25000000, 0.00000000
1, 44.2650, 4796, 0.01430177, -0.99428058, 0.01029053, -0.17510982, 0.02854368, -0.09622280, -23.58959389, 4.64776373, -71.35340118, 90.68588257, -0.28265151, 69.79891968, 0.57545185, -0.58438963, -0.40555370, -0.40357187, -0.01926750, -0.00565380, 0.00009058, 100.41500854, 76.02655792, 32.09000015, 0.00000000
1, 44.2700, 4797, 0.01487536, -0.99679887, 0.00914534, -0.06412931, -0.31942865, -0.07087746, -23.58959389, 4.64776373, -71.35340118, 90.68556976, -0.28227758, 69.79732513, 0.57546037, -0.58439243, -0.40554631, -0.40356299, -0.01982896, -0.00313374, 0.00122133, 100.41500854, 76.02655792, 32.09000015, 0.00000000
1, 44.3300, 4620, -0.04687500, -0.99200439, 0.29577637, 0.25429794, 0.12031154, 0.79625040, -23.96959877, 3.04004669, -59.13475418, 114.51577759, 6.19996834, -72.13837433, -0.40975973, 0.69610333, -0.47084853, -0.35473779, 0.15489122, 0.08747832, 0.11673443, 100.32800293, 83.32475281, 31.25000000, 0.00000000
1, 44.3349, 4621, -0.04742432, -0.98931885, 0.29486084, 0.21929789, 0.19031157, 0.76125038, -23.96959877, 3.04004669, -59.13475418, 114.51679993, 6.19611406, -72.13909149, -0.40976873, 0.69609457, -0.47087160, -0.35471389, 0.15537363, 0.08479354, 0.11766902, 100.32800293, 83.32475281, 31.25000000, 0.00000000
1, 44.2750, 4798, 0.01454400, -0.99490714, 0.00869792, 0.11326732, -0.25156379, 0.06869070, -23.61882401, 2.10464764, -71.35340118, 90.67697906, -0.14831263, 69.77590179, 0.57605654, -0.58395630, -0.40608177, -0.40280467, -0.01832889, -0.00503003, 0.00159957, 100.41500854, 76.02655792, 32.09000015, 0.00000000
1, 44.2800, 4799, 0.01487281, -0.99678850, 0.00872033, -0.10126191, -0.18134409, -0.03206125, -23.61882401, 2.10464764, -71.35340118, 90.67646027, -0.14814697, 69.77500916, 0.57606292, -0.58395636, -0.40607625, -0.40280116, -0.01748584, -0.00315418, 0.00149249, 100.41500854, 76.02655792, 32.09000015, 0.00000000
1, 44.3400, 4622, -0.04705811, -0.98883057, 0.29510498, 0.21929789, 0.22531153, 0.79625040, -23.96959877, 3.04004669, -59.13475418, 114.51782990, 6.19202900, -72.13971710, -0.40977895, 0.69608563, -0.47089511, -0.35468826, 0.15493588, 0.08430574, 0.11744457, 100.32800293, 83.32475281, 31.25000000, 0.00000000
1, 44.2850, 4800, 0.01300327, -0.99628818, 0.01225968, -0.23922227, -0.56300575, -0.14455870, -24.08652496, 4.53083897, -71.09032440, 90.67527008, -0.14740080, 69.77220154, 0.57608145, -0.58395767, -0.40606153, -0.40278748, -0.01561386, -0.00366057, -0.00207005, 100.41500854, 76.02655792, 32.09000015, 0.00000000
1, 44.3450, 4623, -0.04644775, -0.98925781, 0.29602051, 0.21929789, 0.33031163, 0.79625034, -23.67728615, 3.15697169, -58.93013763, 114.51891327, 6.18772316, -72.13986206, -0.40979141, 0.69607836, -0.47091678, -0.35465950, 0.15425073, 0.08473313, 0.11654919, 100.32800293, 83.32475281, 31.25000000, 0.00000000
1, 44.3650, 4624, -0.04772949, -0.98645020, 0.30004883, 0.27015564, -0.11539099, 0.57421821, -23.61882401, 2.95235300, -58.90090561, 114.52484131, 6.17507076, -72.14245605, -0.40980461, 0.69605786, -0.47100204, -0.35457137, 0.15530655, 0.08194610, 0.11262479, 100.32800293, 83.32475281, 31.25000000, 0.00000000
1, 44.2900, 4801, 0.01013890, -0.99679494, 0.00940402, 0.08419248, -0.83862621, -0.15524521, -24.08652496, 4.53083897, -71.09032440, 90.67572021, -0.14658119, 69.76800537, 0.57609683, -0.58397186, -0.40604579, -0.40276060, -0.01272832, -0.00314913, 0.00077738, 100.41500854, 76.02655792, 32.09000015, 0.00000000
1, 44.2950, 4802, 0.00758788, -0.99630404, 0.01057634, 0.04769747, -0.48993623, 0.13586491, -24.08652496, 4.53083897, -71.09032440, 90.67596436, -0.14723518, 69.76556396, 0.57610190, -0.58398408, -0.40603089, -0.40275076, -0.01018351, -0.00364188, -0.00039467, 100.41500854, 76.02655792, 32.09000015, 0.00000000
1, 44.3699, 4625, -0.04827881, -0.98822021, 0.30084229, 0.34015566, -0.29039103, 0.67921823, -23.32651329, 1.22771120, -58.46243668, 114.52626038, 6.17258835, -72.14519501, -0.40979874, 0.69604552, -0.47103307, -0.35456100, 0.15581238, 0.08372110, 0.11185372, 100.32800293, 83.32475281, 31.25000000, 0.00000000
1, 44.3750, 4626, -0.04870605, -0.99096680, 0.30139160, 0.58515573, -0.39539108, 0.81921828, -23.32651329, 1.22771120, -58.46243668, 114.52880859, 6.16968536, -72.14871216, -0.40978551, 0.69603306, -0.47107401, -0.35454631, 0.15619127, 0.08647946, 0.11134256, 100.32800293, 83.32475281, 31.25000000, 0.00000000
1, 44.3000, 4803, 0.00576202, -0.99670970, 0.00899492, -0.23868228, -0.13595635, 0.11481243, -23.56036186, 4.64776373, -70.59339142, 90.67476654, -0.14781059, 69.76486969, 0.57610840, -0.58398253, -0.40602028, -0.40275449, -0.00836497, -0.00323373, 0.00116698, 100.41500854, 76.02655792, 32.09000015, 0.00000000
1, 44.3050, 4804, 0.00370653, -0.99671292, 0.01070253, -0.09496637, -0.27225676, 0.03962984, -23.56036186, 4.64776373, -70.59339142, 90.67428589, -0.14798479, 69.76350403, 0.57611501, -0.58398557, -0.40601075, -0.40275019, -0.00631862, -0.00323334, -0.00055869, 100.41500854, 76.02655792, 32.09000015, 0.00000000
1, 44.3800, 4627, -0.04992676, -0.98919678, 0.29663086, 0.55015570, -0.36039105, 0.78421825, -24.02806091, 3.15697169, -59.31014252, 114.53121185, 6.16686487, -72.15199280, -0.40977353, 0.69602126, -0.47111282, -0.35453191, 0.15736443, 0.08472208, 0.11614347, 100.32800293, 83.32475281, 31.25000000, 0.00000000
1, 44.3550, 4805, 0.00393463, -0.99584484, 0.01011150, -0.28063360, 0.32374850, -0.18916592, -22.42034531, 4.06313944, -71.52879333, 90.69358826, -0.08161398, 69.76502228, 0.57624722, -0.58384478, -0.40642053, -0.40235168, -0.00539241, -0.00409857, 0.00037763, 100.41500854, 76.02655792, 32.09000015, 0.00000000
1, 44.3850, 4628, -0.04992676, -0.98956299, 0.29840088, 0.62015575, -0.32539102, 0.81921828, -24.02806091, 3.15697169, -59.31014252, 114.53396606, 6.16381454, -72.15518951, -0.40976068, 0.69601053, -0.47115311, -0.35451439, 0.15731204, 0.08510275, 0.11441891, 100.32800293, 83.32475281, 31.25000000, 0.00000000
1, 44.3600, 4806, 0.00650303, -0.99600506, 0.01277269, -0.17541009, 0.46226570, -0.11709940, -23.09266281, 1.25694239, -71.03186035, 90.69271851, -0.08106074, 69.76734924, 0.57624549, -0.58383018, -0.40643203, -0.40236360, -0.00795764, -0.00394304, -0.00229585, 100.41500854, 76.02655792, 32.09000015, 0.00000000
1, 44.3899, 4629, -0.04943848, -0.98767090, 0.29724121, 0.62015575, -0.18539101, 0.74921823, -24.02806091, 3.15697169, -58.93013763, 114.53681183, 6.16079617, -72.15760803, -0.40974957, 0.69600332, -0.47118872, -0.35449386, 0.15677197, 0.08322603, 0.11562566, 100.32800293, 83.32475281, 31.25000000, 0.00000000
1, 44.3950, 4630, -0.05084229, -0.98693848, 0.29522705, 0.55015570, -0.18539098, 0.71421826, -23.70651817, 0.90616781, -58.93013763, 114.53932190, 6.15793276, -72.15994263, -0.40974006, 0.69599563, -0.47122228, -0.35447541, 0.15812534, 0.08250786, 0.11768417, 100.32800293, 83.32475281, 31.25000000, 0.00000000
1, 44.3650, 4807, 0.00988931, -0.99458659, 0.01339708, -0.13817245, 0.32334709, -0.12088468, -23.09266281, 1.25694239, -71.03186035, 90.69201660, -0.08047163, 69.76897430, 0.57624549, -0.58381885, -0.40644085, -0.40237129, -0.01133384, -0.00536268, -0.00292160, 100.41500854, 76.02655792, 32.09000015, 0.00000000
1, 44.4000, 4631, -0.05187988, -0.98791504, 0.29479980, 0.34015566, 0.09460912, 0.71421832, -23.70651817, 0.90616781, -58.93013763, 114.54090118, 6.15448856, -72.16101074, -0.40974271, 0.69598848, -0.47124752, -0.35445279, 0.15910433, 0.08349121, 0.11814119, 100.32800293, 83.32475281, 31.25000000, 0.00000000
1, 44.3700, 4808, 0.01047993, -0.99456882, 0.01047966, -0.20961168, 0.35668838, -0.08412836, -23.23881912, 4.35545158, -71.03186035, 90.69097900, -0.08007890, 69.77074432, 0.57624590, -0.58380592, -0.40644819, -0.40238187, -0.01190860, -0.00537583, -0.00001946, 100.41500854, 76.02655792, 32.09000015, 0.00000000
1, 44.3750, 4809, 0.01038081, -0.99314773, 0.00704560, -0.20898291, 0.32021147, -0.01490139, -23.23881912, 4.35545158, -71.03186035, 90.66695404, -0.02030616, 69.75051880, 0.57665163, -0.58354735, -0.40656173, -0.40206110, -0.01127742, -0.00679446, 0.00319636, 100.41500854, 76.02655792, 32.09000015, 0.00000000
1, 44.4050, 4632, -0.05303955, -0.98815918, 0.29449463, 0.27015564, 0.19960918, 0.64421833, -23.35574341, 2.57234716, -58.46243668, 114.54221344, 6.15114832, -72.16143036, -0.40974855, 0.69598323, -0.47126770, -0.35442963, 0.16020665, 0.08373968, 0.11847091, 100.32800293, 83.32475281, 31.25000000, 0.00000000
1, 44.3800, 4810, 0.01189417, -0.99293876, 0.00661952, -0.06882536, 0.49552238, -0.01250694, -23.23881912, 4.35545158, -71.03186035, 90.66660309, -0.02027542, 69.75300598, 0.57664478, -0.58353668, -0.40657336, -0.40207469, -0.01226790, -0.00700564, 0.00341702, 100.41500854, 76.02655792, 32.09000015, 0.00000000
1, 44.4100, 4633, -0.05157471, -0.98901367, 0.29180908, 0.13015558, 0.26960918, 0.50421816, -23.35574341, 2.57234716, -58.46243668, 114.54288483, 6.14829350, -72.16125488, -0.40975794, 0.69597936, -0.47128022, -0.35440975, 0.15868813, 0.08459435, 0.12117063, 100.32800293, 83.32475281, 31.25000000, 0.00000000
1, 44.4400, 4634, -0.04882813, -0.98992920, 0.29217529, -0.11484448, 1.28460944, 0.36421818, -23.38497543, 2.25080395, -59.10552216, 114.54456329, 6.12654400, -72.14275360, -0.40990320, 0.69600797, -0.47126088, -0.35421100, 0.15557355, 0.08548764, 0.12085097, 100.32800293, 83.32475281, 31.25000000, 0.00000000
1, 44.3850, 4811, 0.01318797, -0.99374795, 0.00793565, 0.03995797, 0.35390076, 0.12294138, -23.56036186, 3.36159015, -71.03186035, 90.66680908, -0.02090893, 69.75476074, 0.57663524, -0.58353364, -0.40657976, -0.40208596, -0.01357474, -0.00619883, 0.00210475, 100.41500854, 76.02655792, 32.09000015, 0.00000000
1, 44.3900, 4812, 0.01327530, -0.99563766, 0.00820167, 0.11181593, 0.28575063, 0.08535012, -23.56036186, 3.36159015, -71.03186035, 90.66737366, -0.02134776, 69.75618744, 0.57662594, -0.58353299, -0.40658683, -0.40209347, -0.01366883, -0.00430926, 0.00184397, 100.41500854, 76.02655792, 32.09000015, 0.00000000
1, 44.4450, 4635, -0.04888916, -0.98962402, 0.29077148, -0.11484451, 1.42460954, 0.36421812, -23.38497543, 2.25080395, -59.10552216, 114.54461670, 6.12193251, -72.13699341, -0.40994158, 0.69602048, -0.47124466, -0.35416359, 0.15555254, 0.08517402, 0.12225784, 100.32800293, 83.32475281, 31.25000000, 0.00000000
1, 44.4500, 4636, -0.04858398, -0.98773193, 0.29370117, 0.09515557, 1.28460944, 0.36421812, -23.38497543, 2.25080395, -59.10552216, 114.54563904, 6.11761045, -72.13188171, -0.40997070, 0.69603455, -0.47123423, -0.35411611, 0.15517300, 0.08328078, 0.11934470, 100.32800293, 83.32475281, 31.25000000, 0.00000000
1, 44.3950, 4813, 0.01310773, -0.99633181, 0.00916042, 0.11307348, 0.21279666, 0.22380389, -23.76498032, 4.26775789, -71.06109619, 90.66793060, -0.02246621, 69.75724030, 0.57661533, -0.58353597, -0.40658849, -0.40210238, -0.01352193, -0.00361666, 0.00089339, 100.41500854, 76.02655792, 32.09000015, 0.00000000
1, 44.4000, 4814, 0.01160750, -0.99780142, 0.00895402, 0.03793217, 0.27608746, 0.25858277, -23.76498032, 4.26775789, -71.06109619, 90.66811371, -0.02376736, 69.75861359, 0.57660496, -0.58353657, -0.40658957, -0.40211529, -0.01204311, -0.00214652, 0.00109861, 100.41500854, 76.02655792, 32.09000015, 0.00000000
1, 44.4550, 4637, -0.04779053, -0.99090576, 0.29510498, 0.06945225, 1.09757781, 0.30706990, -23.32651329, 2.36772871, -58.69628525, 114.54644775, 6.11393023, -72.12750244, -0.40999594, 0.69604641, -0.47122499, -0.35407585, 0.15430871, 0.08645493, 0.11795983, 100.32800293, 83.32475281, 31.25000000, 0.00000000
1, 44.4599, 4638, -0.04718018, -0.99182129, 0.29748535, 0.07874890, 0.91054648, 0.10992161, -23.32651329, 2.36772871, -58.69628525, 114.54726410, 6.11154127, -72.12356567, -0.41001394, 0.69605964, -0.47121325, -0.35404462, 0.15365422, 0.08737148, 0.11559303, 100.32800293, 83.32475281, 31.25000000, 0.00000000
1, 44.4650, 4639, -0.04846191, -0.99261475, 0.29821777, 0.00874889, 0.94554645, 0.07492157, -23.18035698, 2.66004086, -58.84244156, 114.54774475, 6.10923576, -72.11940002, -0.41003436, 0.69607288, -0.47119877, -0.35401443, 0.15489927, 0.08816529, 0.11487101, 100.32800293, 83.32475281, 31.25000000, 0.00000000
1, 44.4700, 4640, -0.04809570, -0.99200439, 0.29772949, 0.14874892, 1.01554656, 0.24992165, -23.18035698, 2.66004086, -58.84244156, 114.54891968, 6.10598850, -72.11527252, -0.41005462, 0.69608611, -0.47119048, -0.35397607, 0.15447873, 0.08755748, 0.11537884, 100.32800293, 83.32475281, 31.25000000, 0.00000000
1, 44.4750, 4641, -0.04931641, -0.98840332, 0.29882813, 0.07874890, 0.87554646, 0.17992157, -23.18035698, 2.66004086, -58.84244156, 114.54970551, 6.10335827, -72.11164093, -0.41007298, 0.69609731, -0.47118139, -0.35394463, 0.15564983, 0.08395737, 0.11429513, 100.32800293, 83.32475281, 31.25000000, 0.00000000
1, 44.4799, 4642, -0.04864502, -0.98498535, 0.29870605, 0.21874894, 0.91054648, 0.24992165, -22.53726959, 1.92926037, -58.75474930, 114.55117798, 6.10032845, -72.10799408, -0.41008896, 0.69611019, -0.47117609, -0.35390803, 0.15492794, 0.08054391, 0.11443995, 100.32800293, 83.32475281, 31.25000000, 0.00000000
1, 44.4850, 4643, -0.05004883, -0.98669434, 0.29980469, 0.11374892, 0.73554641, 0.28492168, -22.53726959, 1.92926037, -58.75474930, 114.55204010, 6.09750557, -72.10522461, -0.41010502, 0.69611770, -0.47117329, -0.35387823, 0.15628287, 0.08225641, 0.11336151, 100.32800293, 83.32475281, 31.25000000, 0.00000000
1, 44.4350, 4815, 0.00313418, -0.99893165, 0.01169316, 0.18196177, 0.10581227, 0.14753421, -23.26804924, 4.58930111, -71.14878845, 90.67772675, 0.00363537, 69.76055145, 0.57664651, -0.58348191, -0.40677106, -0.40195143, -0.00310157, -0.00101897, -0.00149888, 100.41500854, 76.02655792, 32.09000015, 0.00000000
1, 44.4400, 4816, -0.00005590, -0.99711013, 0.01040334, 0.00467021, 0.03711338, 0.04299709, -23.26804924, 4.58930111, -71.14878845, 90.67774200, 0.00341339, 69.76073456, 0.57664496, -0.58348215, -0.40677097, -0.40195340, 0.00008660, -0.00283827, -0.00020899, 100.41500854, 76.02655792, 32.09000015, 0.00000000
1, 44.5000, 4644, -0.04602051, -0.98730469, 0.30212402, 0.14874892, 0.63054639, 0.38992169, -23.53113174, 2.30926633, -58.37474442, 114.55559540, 6.08884668, -72.09777069, -0.41014555, 0.69613981, -0.47117397, -0.35378692, 0.15210301, 0.08287597, 0.11110114, 100.32800293, 83.32475281, 31.25000000, 0.00000000
1, 44.5050, 4645, -0.04949951, -0.98620605, 0.30096436, 0.04374887, 0.56054634, 0.38992169, -22.68342590, 1.75387311, -58.37474442, 114.55599976, 6.08590841, -72.09601593, -0.41016176, 0.69614124, -0.47117645, -0.35376200, 0.15552989, 0.08177604, 0.11227152, 100.32800293, 83.32475281, 31.25000000, 0.00000000
1, 44.5100, 4646, -0.04791260, -0.98742676, 0.29882813, 0.04374890, 0.59554636, 0.45992166, -22.68342590, 1.75387311, -58.37474442, 114.55641937, 6.08258390, -72.09425354, -0.41017976, 0.69614184, -0.47118041, -0.35373476, 0.15388915, 0.08299486, 0.11441757, 100.32800293, 83.32475281, 31.25000000, 0.00000000
1, 44.5149, 4647, -0.04797363, -0.98773193, 0.29864502, 0.07874890, 0.59554636, 0.45992166, -23.38497543, 0.32154340, -58.55013275, 114.55700684, 6.07926369, -72.09248352, -0.41019663, 0.69614303, -0.47118485, -0.35370678, 0.15389188, 0.08329868, 0.11461261, 100.32800293, 83.32475281, 31.25000000, 0.00000000
1, 44.5200, 4648, -0.04693604, -0.98754883, 0.29675293, -0.02625115, 0.66554642, 0.42492169, -23.38497543, 0.32154340, -58.55013275, 114.55709839, 6.07595205, -72.09032440, -0.41021767, 0.69614416, -0.47118542, -0.35367951, 0.15279612, 0.08311118, 0.11651009, 100.32800293, 83.32475281, 31.25000000, 0.00000000
1, 44.5250, 4649, -0.04669189, -0.98785400, 0.29681396, 0.07874890, 0.73554641, 0.45992166, -23.38497543, 0.32154340, -58.55013275, 114.55774689, 6.07233810, -72.08791351, -0.41023746, 0.69614750, -0.47118735, -0.35364729, 0.15249187, 0.08341455, 0.11646035, 100.32800293, 83.32475281, 31.25000000, 0.00000000
1, 44.4450, 4817, 0.00082949, -0.99544382, 0.00976520, 0.35789078, 0.24829924, 0.07858655, -23.41420555, 4.58930111, -71.38263702, 90.67953491, 0.00301382, 69.76197052, 0.57663012, -0.58348817, -0.40678152, -0.40195531, -0.00080433, -0.00450326, 0.00045605, 100.41500854, 76.02655792, 32.09000015, 0.00000000
1, 44.4500, 4818, 0.00205922, -0.99930561, 0.01405840, 0.24910885, 0.42139328, 0.08409709, -23.41420555, 4.58930111, -71.38263702, 90.68078613, 0.00257157, 69.76406860, 0.57661480, -0.58348858, -0.40679437, -0.40196365, -0.00205218, -0.00064844, -0.00381393, 100.41500854, 76.02655792, 32.09000015, 0.00000000
1, 44.4550, 4819, 0.00355755, -0.99777079, 0.01408386, -0.03602218, 0.45533678, 0.01843142, -23.41420555, 4.58930111, -71.38263702, 90.68059540, 0.00246228, 69.76634216, 0.57660741, -0.58347994, -0.40680477, -0.40197638, -0.00355417, -0.00218327, -0.00383322, 100.41500854, 76.02655792, 32.09000015, 0.00000000
1, 44.5300, 4650, -0.04443359, -0.98870850, 0.29644775, 0.07874888, 0.63054639, 0.38992169, -23.53113174, 2.63080978, -58.78398132, 114.55836487, 6.06925011, -72.08583832, -0.41025406, 0.69615066, -0.47118914, -0.35361952, 0.15017727, 0.08426923, 0.11684141, 100.32800293, 83.32475281, 31.25000000, 0.00000000
1, 44.5350, 4651, -0.04473877, -0.99066162, 0.29577637, 0.00874886, 0.66554642, 0.28492168, -23.53113174, 2.63080978, -58.78398132, 114.55867004, 6.06657743, -72.08338165, -0.41027182, 0.69615525, -0.47118595, -0.35359398, 0.15043335, 0.08621871, 0.11751722, 100.32800293, 83.32475281, 31.25000000, 0.00000000
1, 44.4600, 4820, 0.00688881, -0.99718082, 0.01378082, 0.10853118, 0.24941872, -0.05842127, -23.73575020, 4.12160206, -71.49955750, 90.68114471, 0.00273720, 69.76759338, 0.57660121, -0.58347732, -0.40681446, -0.40197933, -0.00687987, -0.00277255, -0.00351304, 100.41500854, 76.02655792, 32.09000015, 0.00000000
1, 44.4650, 4821, 0.01031585, -0.99886012, 0.01434373, 0.25161973, 0.18106776, -0.06187192, -23.73575020, 4.12160206, -71.49955750, 90.68241882, 0.00303944, 69.76852417, 0.57659256, -0.58347934, -0.40682513, -0.40197793, -0.01030467, -0.00109375, -0.00405114, 100.41500854, 76.02655792, 32.09000015, 0.00000000
1, 44.4700, 4822, 0.00884908, -0.99757397, 0.01577120, -0.07158496, 0.45502010, 0.01887657, -23.82344246, 4.58930111, -71.61648560, 90.68206024, 0.00291820, 69.77079010, 0.57658601, -0.58346993, -0.40683484, -0.40199125, -0.00884157, -0.00238242, -0.00547852, 100.41500854, 76.02655792, 32.09000015, 0.00000000
1, 44.5900, 4652, -0.04058838, -0.98858643, 0.29516602, 0.07874888, 0.70054638, -0.10007843, -22.82958221, 2.42619109, -57.93627548, 114.56229401, 6.04591560, -72.04193878, -0.41047096, 0.69628787, -0.47102875, -0.35331124, 0.14591828, 0.08413316, 0.11819801, 100.32800293, 83.32475281, 31.25000000, 0.00000000
1, 44.5950, 4653, -0.04193115, -0.98895264, 0.29553223, 0.07874890, 0.63054639, -0.13507847, -22.82958221, 2.42619109, -57.93627548, 114.56301880, 6.04522038, -72.03877258, -0.41047943, 0.69630176, -0.47101456, -0.35329288, 0.14724684, 0.08450494, 0.11784777, 100.32800293, 83.32475281, 31.25000000, 0.00000000
1, 44.4750, 4823, 0.00911788, -0.99604833, 0.01318843, -0.28328818, 0.28241205, -0.12275147, -23.82344246, 4.58930111, -71.61648560, 90.68522644, 0.05584195, 69.77012634, 0.57675999, -0.58330244, -0.40710875, -0.40170711, -0.00864023, -0.00390328, -0.00287441, 100.41500854, 76.02655792, 32.09000015, 0.00000000
1, 44.4800, 4824, 0.00898820, -0.99555612, 0.01289488, -0.17356385, 0.03886623, -0.09490111, -23.82344246, 4.58930111, -71.61648560, 90.68435669, 0.05631152, 69.77031708, 0.57676542, -0.58329576, -0.40710908, -0.40170878, -0.00804350, -0.00439450, -0.00255709, 100.41500854, 76.02655792, 32.09000015, 0.00000000
1, 44.5150, 4825, 0.01882376, -0.99561071, 0.01195017, 0.06856005, 0.43665767, 0.17767595, -23.67728615, 4.35545158, -71.09032440, 90.68283844, 0.05110862, 69.78913879, 0.57668871, -0.58323956, -0.40717342, -0.40183541, -0.01796162, -0.00433889, -0.00162037, 100.41500854, 76.02655792, 32.09000015, 0.00000000
1, 44.5200, 4826, 0.01986396, -0.99660850, 0.01095505, 0.20997515, 0.53901464, 0.31852415, -23.76498032, 4.29698896, -71.70417786, 90.68389893, 0.04948133, 69.79181671, 0.57666808, -0.58324105, -0.40718257, -0.40185338, -0.01902298, -0.00333930, -0.00060901, 100.41500854, 76.02655792, 32.09000015, 0.00000000
1, 44.5250, 4827, 0.01768781, -0.99788034, 0.00984360, 0.10307675, 0.53973275, 0.24979769, -23.76498032, 4.29698896, -71.70417786, 90.68636322, 0.11108630, 69.78956604, 0.57688200, -0.58304507, -0.40748951, -0.40151948, -0.01632076, -0.00206445, 0.00052561, 100.41500854, 76.02655792, 32.09000015, 0.00000000
1, 44.6000, 4654, -0.04296875, -0.98876953, 0.29815674, 0.39374900, 0.35054624, -0.03007848, -22.82958221, 2.42619109, -57.93627548, 114.56515503, 6.04462814, -72.03711700, -0.41047418, 0.69631475, -0.47101346, -0.35327467, 0.14827572, 0.08433177, 0.11524718, 100.32800293, 83.32475281, 31.25000000, 0.00000000
1, 44.6049, 4655, -0.04357910, -0.98626709, 0.29968262, 0.21874894, 0.35054624, 0.00492156, -23.20958710, 3.06927800, -58.40397644, 114.56641388, 6.04387188, -72.03553009, -0.41047487, 0.69632393, -0.47101074, -0.35325947, 0.14887157, 0.08184079, 0.11374992, 100.32800293, 83.32475281, 31.25000000, 0.00000000
1, 44.6100, 4656, -0.04364014, -0.98858643, 0.30053711, 0.14874892, 0.17554621, -0.06507846, -23.20958710, 3.06927800, -58.40397644, 114.56726074, 6.04380560, -72.03459167, -0.41047293, 0.69633061, -0.47100791, -0.35325226, 0.14892951, 0.08416535, 0.11290780, 100.32800293, 83.32475281, 31.25000000, 0.00000000
1, 44.5300, 4828, 0.01829418, -0.99798489, 0.00941431, 0.03530089, 0.26062870, 0.24400789, -23.76498032, 4.29698896, -71.70417786, 90.68654633, 0.10984662, 69.79086304, 0.57687217, -0.58304572, -0.40749049, -0.40153170, -0.01639917, -0.00195833, 0.00097473, 100.41500854, 76.02655792, 32.09000015, 0.00000000
1, 44.5350, 4829, 0.01763057, -0.99806774, 0.01002232, 0.17901821, 0.15580083, 0.30978423, -23.56036186, 4.41391420, -70.76878357, 90.68744659, 0.10829616, 69.79161072, 0.57685947, -0.58305305, -0.40748972, -0.40154019, -0.01576278, -0.00187634, 0.00037913, 100.41500854, 76.02655792, 32.09000015, 0.00000000
1, 44.5400, 4830, 0.01702896, -0.99769557, 0.01191481, 0.17692748, 0.39278999, 0.59587705, -23.56036186, 4.41391420, -70.76878357, 90.68834686, 0.10528745, 69.79355621, 0.57683742, -0.58306128, -0.40748760, -0.40156206, -0.01521186, -0.00225149, -0.00149697, 100.41500854, 76.02655792, 32.09000015, 0.00000000
1, 44.6150, 4657, -0.04406738, -0.98974609, 0.30065918, 0.11374892, 0.24554624, -0.03007848, -22.85881233, 2.19234133, -59.22245026, 114.56794739, 6.04342604, -72.03340912, -0.41047412, 0.69633704, -0.47100440, -0.35324302, 0.14935227, 0.08533026, 0.11279818, 100.32800293, 83.32475281, 31.25000000, 0.00000000
1, 44.6199, 4658, -0.04541016, -0.98907471, 0.30157471, 0.04374890, 0.28054628, -0.06507846, -22.85881233, 2.19234133, -59.22245026, 114.56830597, 6.04313660, -72.03199005, -0.41047758, 0.69634342, -0.47099805, -0.35323477, 0.15068926, 0.08466206, 0.11189122, 100.32800293, 83.32475281, 31.25000000, 0.00000000
1, 44.6250, 4659, -0.04602051, -0.98876953, 0.30078125, -0.06125118, 0.14054625, 0.03992154, -22.85881233, 2.19234133, -59.22245026, 114.56806946, 6.04266167, -72.03143311, -0.41048294, 0.69634372, -0.47099584, -0.35323104, 0.15129150, 0.08435512, 0.11268288, 100.32800293, 83.32475281, 31.25000000, 0.00000000
1, 44.6300, 4660, -0.04699707, -0.98510742, 0.29779053, 0.07874890, 0.21054621, 0.10992161, -23.47266769, 2.83542824, -58.69628525, 114.56854248, 6.04172182, -72.03070068, -0.41048658, 0.69634610, -0.47099662, -0.35322103, 0.15225376, 0.08069373, 0.11567886, 100.32800293, 83.32475281, 31.25000000, 0.00000000
1, 44.6350, 4661, -0.04895020, -0.98614502, 0.29663086, -0.02625115, 0.03554614, 0.07492157, -23.47266769, 2.83542824, -58.69628525, 114.56840515, 6.04130793, -72.03069305, -0.41048923, 0.69634461, -0.47099784, -0.35321915, 0.15419777, 0.08173038, 0.11683863, 100.32800293, 83.32475281, 31.25000000, 0.00000000
1, 44.5450, 4831, 0.01757794, -0.99695253, 0.01405383, 0.07139024, 0.28824753, 0.55967653, -23.76498032, 3.50774622, -71.67494965, 90.68872070, 0.10247512, 69.79496002, 0.57682061, -0.58306801, -0.40748191, -0.40158212, -0.01581694, -0.00299811, -0.00362540, 100.41500854, 76.02655792, 32.09000015, 0.00000000
1, 44.5500, 4832, 0.01547954, -0.99909818, 0.01389677, 0.07714720, -0.19824205, 0.51295537, -23.76498032, 3.50774622, -71.67494965, 90.68910980, 0.09992062, 69.79395294, 0.57681310, -0.58308256, -0.40746531, -0.40158868, -0.01376311, -0.00085193, -0.00347194, 100.41500854, 76.02655792, 32.09000015, 0.00000000
1, 44.5550, 4833, 0.01378671, -1.00006735, 0.01303271, 0.00560292, -0.16406660, 0.51468068, -23.76498032, 3.50774622, -71.67494965, 90.68914032, 0.09735759, 69.79310608, 0.57680684, -0.58309472, -0.40744820, -0.40159738, -0.01211271, 0.00011843, -0.00260839, 100.41500854, 76.02655792, 32.09000015, 0.00000000
1, 44.6600, 4662, -0.04907227, -0.99340820, 0.30072021, 0.00874886, -0.03445385, 0.31992167, -23.32651329, 3.15697169, -58.19935608, 114.56854248, 6.03750038, -72.03319550, -0.41049793, 0.69632548, -0.47102886, -0.35320559, 0.15425994, 0.08898935, 0.11275539, 100.32800293, 83.32475281, 31.25000000, 0.00000000
1, 44.6650, 4663, -0.04901123, -0.99377441, 0.30053711, -0.06125116, -0.17445388, 0.52992171, -23.53113174, 1.54925454, -58.34551239, 114.56803131, 6.03545523, -72.03510284, -0.41050440, 0.69631082, -0.47104713, -0.35320267, 0.15416567, 0.08934958, 0.11293395, 100.32800293, 83.32475281, 31.25000000, 0.00000000
1, 44.5600, 4834, 0.01193212, -0.99891853, 0.01002426, -0.20913492, -0.06070617, 0.48482564, -23.73575020, 3.94621444, -71.20724487, 90.68810272, 0.09493969, 69.79277039, 0.57680476, -0.58309919, -0.40743071, -0.40161172, -0.01029595, -0.00102575, 0.00038228, 100.41500854, 76.02655792, 32.09000015, 0.00000000
1, 44.6700, 4664, -0.05053711, -0.99224854, 0.29901123, 0.07874890, -0.17445388, 0.56492174, -23.53113174, 1.54925454, -58.34551239, 114.56822205, 6.03325224, -72.03707123, -0.41050708, 0.69629794, -0.47106856, -0.35319620, 0.15565264, 0.08781955, 0.11446044, 100.32800293, 83.32475281, 31.25000000, 0.00000000
1, 44.6749, 4665, -0.04968262, -0.99139404, 0.29852295, 0.00874886, 0.00054616, 0.63492179, -23.58959389, 2.51388478, -58.40397644, 114.56812286, 6.03036690, -72.03839874, -0.41051659, 0.69628507, -0.47108796, -0.35318464, 0.15474933, 0.08695951, 0.11494909, 100.32800293, 83.32475281, 31.25000000, 0.00000000
1, 44.6800, 4666, -0.05090332, -0.98864746, 0.29876709, 0.18374893, 0.00054610, 0.63492179, -23.58959389, 2.51388478, -58.40397644, 114.56890869, 6.02747869, -72.03972626, -0.41052079, 0.69627529, -0.47111008, -0.35316947, 0.15592054, 0.08421252, 0.11471657, 100.32800293, 83.32475281, 31.25000000, 0.00000000
1, 44.6350, 4835, 0.00084746, -0.99990499, 0.01320008, -0.09326252, -0.70533836, 0.17113814, -23.88190651, 4.06313944, -71.26570892, 90.70339203, 0.13805197, 69.79528046, 0.57687104, -0.58301574, -0.40771377, -0.40135029, 0.00153095, -0.00003980, -0.00255914, 100.41500854, 76.02655792, 32.09000015, 0.00000000
1, 44.6400, 4836, -0.00339343, -0.99982059, 0.01534185, -0.02412549, -0.53149492, 0.20945384, -23.88190651, 4.06313944, -71.26570892, 90.70326996, 0.13703427, 69.79261017, 0.57687736, -0.58302820, -0.40769464, -0.40134245, 0.00574735, -0.00012775, -0.00471502, 100.41500854, 76.02655792, 32.09000015, 0.00000000
1, 44.6850, 4667, -0.05023193, -0.98718262, 0.29669189, 0.18374893, 0.10554621, 0.70492178, -23.58959389, 2.51388478, -58.40397644, 114.56970978, 6.02405167, -72.04071808, -0.41052827, 0.69626570, -0.47113249, -0.35314989, 0.15519309, 0.08274809, 0.11680704, 100.32800293, 83.32475281, 31.25000000, 0.00000000
1, 44.6900, 4668, -0.05023193, -0.98693848, 0.29675293, 0.21874894, 0.07054617, 0.73992181, -23.32651329, 2.66004086, -58.43320465, 114.57067871, 6.02053499, -72.04195404, -0.41053447, 0.69625545, -0.47115710, -0.35312998, 0.15513206, 0.08250505, 0.11676392, 100.32800293, 83.32475281, 31.25000000, 0.00000000
1, 44.6950, 4669, -0.04907227, -0.98535156, 0.29711914, 0.25374895, -0.13945387, 0.66992176, -23.32651329, 2.66004086, -58.43320465, 114.57173157, 6.01777315, -72.04399109, -0.41053429, 0.69624406, -0.47118393, -0.35311702, 0.15392122, 0.08092041, 0.11641553, 100.32800293, 83.32475281, 31.25000000, 0.00000000
1, 44.7000, 4670, -0.04785156, -0.98529053, 0.29632568, 0.18374893, -0.17445388, 0.66992176, -23.41420555, 3.01081562, -58.69628525, 114.57241821, 6.01508808, -72.04618835, -0.41053545, 0.69623089, -0.47121024, -0.35310653, 0.15265185, 0.08086029, 0.11722340, 100.32800293, 83.32475281, 31.25000000, 0.00000000
1, 44.7050, 4671, -0.04699707, -0.98840332, 0.29779053, 0.21874894, -0.13945387, 0.66992176, -23.41420555, 3.01081562, -58.69628525, 114.57329559, 6.01232862, -72.04823303, -0.41053629, 0.69621885, -0.47123647, -0.35309428, 0.15175085, 0.08397502, 0.11577447, 100.32800293, 83.32475281, 31.25000000, 0.00000000
1, 44.6450, 4837, -0.00392749, -0.99778914, 0.01161758, -0.13489597, -0.18519075, 0.25417042, -23.70651817, 3.97544575, -71.03186035, 90.70259094, 0.13577580, 69.79167175, 0.57687962, -0.58303255, -0.40768117, -0.40134653, 0.00626895, -0.00215325, -0.00099731, 100.41500854, 76.02655792, 32.09000015, 0.00000000
1, 44.6500, 4838, -0.00146131, -0.99634290, 0.01072689, -0.13835070, 0.09411395, 0.22581956, -23.70651817, 3.97544575, -71.03186035, 90.70190430, 0.13464367, 69.79212189, 0.57687759, -0.58303148, -0.40767536, -0.40135705, 0.00378543, -0.00359809, -0.00011161, 100.41500854, 76.02655792, 32.09000015, 0.00000000
1, 44.6550, 4839, 0.00143911, -0.99492955, 0.01135278, 0.00128313, 0.30506778, 0.19401807, -23.76498032, 3.91698337, -71.03186035, 90.70191193, 0.13366182, 69.79363251, 0.57686877, -0.58302957, -0.40767819, -0.40136969, 0.00086475, -0.00501252, -0.00073244, 100.41500854, 76.02655792, 32.09000015, 0.00000000
1, 44.7250, 4672, -0.04724121, -0.98822021, 0.29632568, -0.02625115, -0.13945387, 0.31992167, -23.38497543, 2.48465347, -59.25167847, 114.57408905, 6.00563860, -72.05573273, -0.41053855, 0.69617432, -0.47131145, -0.35307920, 0.15187119, 0.08378738, 0.11726083, 100.32800293, 83.32475281, 31.25000000, 0.00000000
1, 44.7299, 4673, -0.04736328, -0.98937988, 0.29522705, -0.09625119, -0.03445388, 0.38992169, -23.38497543, 2.48465347, -59.25167847, 114.57350159, 6.00393677, -72.05670166, -0.41054678, 0.69616407, -0.47132242, -0.35307524, 0.15196636, 0.08494076, 0.11835261, 100.32800293, 83.32475281, 31.25000000, 0.00000000
1, 44.7350, 4674, -0.04626465, -0.98620605, 0.29675293, 0.07874890, 0.07054617, 0.31992170, -23.38497543, 2.48465347, -59.25167847, 114.57385254, 6.00233793, -72.05705261, -0.41055077, 0.69616002, -0.47133207, -0.35306576, 0.15084061, 0.08176566, 0.11683066, 100.32800293, 83.32475281, 31.25000000, 0.00000000
1, 44.7400, 4675, -0.04718018, -0.98754883, 0.29486084, -0.20125122, 0.42054632, 0.21492161, -22.97573853, 2.57234716, -58.31628036, 114.57299805, 6.00048399, -72.05557251, -0.41056889, 0.69615847, -0.47132796, -0.35305327, 0.15172566, 0.08310129, 0.11871514, 100.32800293, 83.32475281, 31.25000000, 0.00000000
1, 44.7449, 4676, -0.04754639, -0.98846436, 0.29602051, -0.27125123, 0.38554627, 0.10992161, -22.97573853, 2.57234716, -58.31628036, 114.57180786, 5.99917984, -72.05403900, -0.41058674, 0.69615728, -0.47132024, -0.35304517, 0.15206596, 0.08400728, 0.11754078, 100.32800293, 83.32475281, 31.25000000, 0.00000000
1, 44.6600, 4840, 0.00499623, -0.99652827, 0.01361775, 0.00002698, 0.40949431, 0.19652312, -23.76498032, 3.91698337, -71.03186035, 90.70191956, 0.13265097, 69.79566956, 0.57685798, -0.58302587, -0.40768346, -0.40138504, -0.00271542, -0.00341764, -0.00298796, 100.41500854, 76.02655792, 32.09000015, 0.00000000
1, 44.6650, 4841, 0.00948516, -0.99663091, 0.01232524, -0.17663583, 0.30431846, 0.16121292, -23.76498032, 3.91698337, -71.03186035, 90.70101929, 0.13183135, 69.79718781, 0.57685435, -0.58301890, -0.40768394, -0.40140003, -0.00721559, -0.00331317, -0.00169843, 100.41500854, 76.02655792, 32.09000015, 0.00000000
1, 44.6700, 4842, 0.01487235, -0.99580979, 0.01092657, -0.10257926, 0.06128999, 0.15447751, -23.44343758, 3.94621444, -71.32417297, 90.70051575, 0.13105783, 69.79747772, 0.57685310, -0.58301800, -0.40767971, -0.40140718, -0.01261304, -0.00413216, -0.00029552, 100.41500854, 76.02655792, 32.09000015, 0.00000000
1, 44.7500, 4677, -0.04699707, -0.98840332, 0.29577637, -0.20125122, 0.45554629, 0.00492156, -23.32651329, 3.15697169, -58.81321335, 114.57102203, 5.99820995, -72.05197144, -0.41060230, 0.69616055, -0.47130913, -0.35303536, 0.15149763, 0.08393729, 0.11777024, 100.32800293, 83.32475281, 31.25000000, 0.00000000
1, 44.7550, 4678, -0.04754639, -0.99139404, 0.29675293, -0.30625123, 0.49054629, 0.10992161, -23.32651329, 3.15697169, -58.81321335, 114.56969452, 5.99668884, -72.04997253, -0.41062340, 0.69616038, -0.47129905, -0.35302484, 0.15202397, 0.08691687, 0.11677521, 100.32800293, 83.32475281, 31.25000000, 0.00000000
1, 44.7600, 4679, -0.04901123, -0.99127197, 0.29620361, -0.23625121, 0.52554631, 0.03992154, -23.32651329, 3.15697169, -58.81321335, 114.56874847, 5.99541759, -72.04765320, -0.41064197, 0.69616336, -0.47128722, -0.35301304, 0.15346599, 0.08678509, 0.11730912, 100.32800293, 83.32475281, 31.25000000, 0.00000000
1, 44.7649, 4680, -0.04962158, -0.99218750, 0.29644775, -0.20125119, 0.52554631, 0.14492159, -22.30341911, 2.92312193, -58.78398132, 114.56796265, 5.99366713, -72.04556274, -0.41066107, 0.69616479, -0.47127911, -0.35299864, 0.15404665, 0.08769283, 0.11705537, 100.32800293, 83.32475281, 31.25000000, 0.00000000
1, 44.7700, 4681, -0.04760742, -0.99096680, 0.29815674, -0.20125119, 0.49054629, 0.07492157, -22.30341911, 2.92312193, -58.78398132, 114.56717682, 5.99230289, -72.04347992, -0.41067845, 0.69616717, -0.47126958, -0.35298657, 0.15200749, 0.08646275, 0.11533219, 100.32800293, 83.32475281, 31.25000000, 0.00000000
1, 44.6750, 4843, 0.01844062, -0.99542272, 0.00910009, -0.03333719, 0.23429935, 0.22782415, -23.44343758, 3.94621444, -71.32417297, 90.69683075, 0.20170960, 69.78828430, 0.57715452, -0.58278376, -0.40797508, -0.40101394, -0.01556846, -0.00451483, 0.00150827, 100.41500854, 76.02655792, 32.09000015, 0.00000000
1, 44.6800, 4844, 0.01979845, -0.99475062, 0.01445458, -0.13793199, 0.05930515, 0.22498460, -23.64805603, 3.94621444, -71.67494965, 90.69614410, 0.20057411, 69.78857422, 0.57715297, -0.58278322, -0.40796840, -0.40102363, -0.01633445, -0.00519446, -0.00388308, 100.41500854, 76.02655792, 32.09000015, 0.00000000
1, 44.8250, 4682, -0.05133057, -0.99047852, 0.29943848, 0.14984295, 0.08257868, 0.11703197, -23.20958710, 1.05232382, -58.60859299, 114.57976532, 5.98171902, -72.03259277, -0.41068324, 0.69623107, -0.47128487, -0.35283452, 0.15554500, 0.08604578, 0.11425298, 100.32800293, 83.32475281, 31.25000000, 0.00000000
1, 44.8300, 4683, -0.05059814, -0.98852539, 0.29943848, -0.13015719, 0.32757878, 0.11703197, -23.20958710, 1.05232382, -58.60859299, 114.57924652, 5.98050833, -72.03133392, -0.41069570, 0.69623137, -0.47128052, -0.35282513, 0.15479277, 0.08408876, 0.11424956, 100.32800293, 83.32475281, 31.25000000, 0.00000000
1, 44.7350, 4845, 0.01073234, -0.99922240, 0.01196608, -0.16901220, -0.38391945, 0.10801621, -23.70651817, 4.44314528, -71.61648560, 90.67135620, 0.23205981, 69.75404358, 0.57751131, -0.58267051, -0.40786427, -0.40077734, -0.00671463, -0.00072163, -0.00185545, 100.41500854, 76.02655792, 32.09000015, 0.00000000
1, 44.7400, 4846, 0.00830239, -0.99930322, 0.01172951, -0.13323936, -0.38527092, 0.17763303, -23.70651817, 4.44314528, -71.61648560, 90.67067719, 0.23118384, 69.75210571, 0.57751840, -0.58267707, -0.40784770, -0.40077448, -0.00429613, -0.00064071, -0.00163990, 100.41500854, 76.02655792, 32.09000015, 0.00000000
1, 44.7450, 4847, 0.00697505, -1.00027287, 0.01104647, -0.10091985, -0.07584511, 0.35985780, -23.67728615, 4.44314528, -71.09032440, 90.67017365, 0.22939599, 69.75170898, 0.57751608, -0.58268225, -0.40783495, -0.40078342, -0.00299520, 0.00032989, -0.00097058, 100.41500854, 76.02655792, 32.09000015, 0.00000000
1, 44.8349, 4684, -0.05047607, -0.98779297, 0.29821777, -0.20015721, 0.36257881, 0.11703197, -23.20958710, 1.05232382, -58.60859299, 114.57839203, 5.97922277, -72.02992249, -0.41071108, 0.69623101, -0.47127452, -0.35281616, 0.15464918, 0.08334945, 0.11546072, 100.32800293, 83.32475281, 31.25000000, 0.00000000
1, 44.8400, 4685, -0.04980469, -0.98651123, 0.29785156, -0.34015721, 0.64257890, 0.22203197, -23.50189972, 2.92312193, -58.66705704, 114.57695770, 5.97687864, -72.02744293, -0.41073802, 0.69623029, -0.47126451, -0.35279965, 0.15394242, 0.08205441, 0.11580670, 100.32800293, 83.32475281, 31.25000000, 0.00000000
1, 44.8450, 4686, -0.04815674, -0.98638916, 0.29724121, -0.34015721, 0.50257885, 0.18703195, -23.50189972, 2.92312193, -58.66705704, 114.57545471, 5.97498465, -72.02554321, -0.41076151, 0.69622803, -0.47125590, -0.35278800, 0.15225942, 0.08191869, 0.11639601, 100.32800293, 83.32475281, 31.25000000, 0.00000000
1, 44.7500, 4848, 0.00550731, -0.99938476, 0.01137263, -0.24181123, -0.21384497, 0.25320551, -23.67728615, 4.44314528, -71.09032440, 90.66894531, 0.22813924, 69.75062561, 0.57752162, -0.58268440, -0.40781888, -0.40078872, -0.00155331, -0.00055905, -0.00131549, 100.41500854, 76.02655792, 32.09000015, 0.00000000
1, 44.7550, 4849, 0.00377522, -1.00009799, 0.01488750, -0.23971766, -0.38788912, 0.24903044, -23.38497543, 2.68927217, -70.91493988, 90.66776276, 0.22690293, 69.74866486, 0.57753015, -0.58268970, -0.40779853, -0.40078938, 0.00014841, 0.00014814, -0.00485842, 100.41500854, 76.02655792, 32.09000015, 0.00000000
1, 44.7600, 4850, 0.00444512, -0.99981105, 0.01586291, -0.16660497, -0.59193838, 0.06797513, -23.38497543, 2.68927217, -70.91493988, 90.66690826, 0.22659558, 69.74571228, 0.57754374, -0.58269697, -0.40777898, -0.40077913, -0.00053255, -0.00014066, -0.00584801, 100.41500854, 76.02655792, 32.09000015, 0.00000000
1, 44.8500, 4687, -0.04809570, -0.98614502, 0.29711914, -0.37515724, 0.46757880, 0.22203197, -22.94650650, 2.51388478, -58.95936966, 114.57375336, 5.97300673, -72.02386475, -0.41078591, 0.69622397, -0.47124848, -0.35277754, 0.15216428, 0.08165932, 0.11649339, 100.32800293, 83.32475281, 31.25000000, 0.00000000
1, 44.8549, 4688, -0.04675293, -0.98834229, 0.29583740, -0.51515728, 0.25757882, 0.36203206, -22.94650650, 2.51388478, -58.95936966, 114.57122040, 5.97083044, -72.02343750, -0.41081244, 0.69621134, -0.47124693, -0.35277385, 0.15078451, 0.08383621, 0.11773980, 100.32800293, 83.32475281, 31.25000000, 0.00000000
