time,ax,ay,az,aT
22.494000,4.0198,0.6099,6.0104,7.256
22.495000,3.7652,0.6422,5.9885,7.103
22.495000,3.4619,0.4831,5.9295,6.883
22.496000,3.2175,0.2472,5.8477,6.679
22.496000,3.0384,-0.0847,5.8175,6.564
22.497000,2.9792,-0.5624,5.8603,6.598
22.497000,3.0471,-1.1118,5.8710,6.707
22.497000,3.0750,-1.6755,5.7490,6.732
22.498000,3.1015,-2.1879,5.3988,6.599
22.498000,3.1921,-2.5923,4.8132,6.331
22.498000,3.4143,-2.7159,3.9565,5.890
22.499000,3.5013,-2.6736,3.0798,5.375
22.499000,3.6535,-2.5292,2.3092,5.008
22.499000,4.0064,-2.3861,1.6920,4.961
22.500000,4.3782,-2.1733,1.3902,5.082
22.500000,4.6425,-1.8957,1.4034,5.207
22.507000,4.8048,-1.5676,1.5900,5.298
22.510000,4.9247,-1.2401,1.9186,5.429
22.516000,4.9277,-0.9508,2.2912,5.517
22.520000,4.8483,-0.7107,2.7776,5.633
22.525000,4.6861,-0.5074,3.3565,5.786
22.532000,4.5503,-0.3024,3.8940,5.997
22.536000,4.3751,-0.1164,4.1969,6.064
22.540000,4.1887,0.0873,4.3471,6.037
22.612000,4.0577,0.2383,4.3999,5.990
22.613000,3.8336,0.2647,4.2885,5.758
22.613000,3.5836,0.1805,4.1590,5.493
22.614000,3.3933,0.1344,3.9232,5.189
22.614000,3.2203,0.0685,3.5761,4.813
22.614000,2.9935,-0.0547,3.0797,4.295
22.615000,2.7882,-0.1438,2.4984,3.747
22.615000,2.7179,-0.2671,1.8702,3.310
22.615000,2.6300,-0.3634,1.2620,2.940
22.616000,2.5586,-0.4348,0.6282,2.670
22.616000,2.4844,-0.5828,0.0165,2.552
22.616000,2.3431,-0.8551,-0.5492,2.554
22.616000,2.0896,-1.1529,-1.0547,2.609
22.617000,1.8391,-1.3963,-1.4981,2.752
22.617000,1.6545,-1.5974,-1.8865,2.975
22.621000,1.6003,-1.6764,-2.2657,3.241
22.625000,1.5855,-1.7220,-2.6333,3.523
22.631000,1.5621,-1.7768,-3.0013,3.822
22.634000,1.4556,-1.8641,-3.2812,4.045
22.640000,1.2523,-2.0131,-3.5737,4.289
22.647000,1.1437,-2.1198,-3.7568,4.463
22.649000,1.0660,-2.1844,-3.9195,4.612
22.655000,0.9733,-2.2065,-4.0975,4.755
22.725000,0.9752,-2.1548,-4.1114,4.743
22.726000,1.0011,-2.1010,-4.0166,4.642
22.726000,1.0182,-2.0358,-3.8922,4.509
22.726000,1.0431,-1.9235,-3.4271,4.066
22.727000,1.0485,-1.7653,-2.8491,3.512
22.727000,0.9669,-1.6027,-2.3084,2.972
22.727000,0.8011,-1.4466,-1.9507,2.557
22.728000,0.4965,-1.4536,-1.6746,2.272
22.728000,0.0535,-1.5146,-1.3646,2.039
22.728000,-0.4316,-1.6307,-1.1809,2.059
22.729000,-0.9457,-1.8073,-1.1397,2.337
22.729000,-1.5335,-2.0137,-1.1762,2.791
22.729000,-2.1383,-2.2166,-1.3404,3.359
22.730000,-2.6438,-2.3961,-1.6321,3.924
22.730000,-3.0402,-2.5326,-2.0368,4.450
22.735000,-3.3225,-2.6416,-2.4611,4.907
22.740000,-3.5408,-2.6866,-2.8168,5.262
22.743000,-3.7207,-2.7243,-3.0466,5.527
22.749000,-3.7891,-2.7826,-3.2010,5.687
22.755000,-3.7978,-2.7606,-3.2971,5.737
22.760000,-3.7166,-2.7515,-3.2991,5.680
22.764000,-3.4622,-2.6260,-3.3388,5.480
22.769000,-3.0197,-2.5400,-3.3063,5.148
22.773000,-2.4949,-2.4316,-3.1537,4.699
22.842000,-1.8751,-2.3847,-3.0392,4.294
22.843000,-1.2628,-2.2752,-2.9554,3.938
22.843000,-0.6960,-2.1510,-2.9479,3.715
22.844000,-0.1014,-2.0001,-3.0954,3.687
22.844000,0.4675,-1.8507,-3.1444,3.678
22.844000,0.9305,-1.7456,-3.0926,3.671
22.845000,1.3318,-1.5911,-2.9928,3.642
22.845000,1.5575,-1.4061,-2.9790,3.644
22.845000,1.6782,-1.2960,-2.9193,3.608
22.846000,1.6333,-1.2827,-2.9285,3.590
22.846000,1.4553,-1.4089,-3.0065,3.625
22.846000,1.1869,-1.5645,-3.1722,3.731
22.847000,0.9711,-1.6343,-3.3729,3.872
22.847000,0.7853,-1.6999,-3.5418,4.006
22.848000,0.6443,-1.7320,-3.7362,4.168
22.855000,0.4033,-1.7783,-3.8965,4.302
22.859000,-0.0037,-1.8384,-4.0848,4.479
22.865000,-0.3294,-1.9311,-4.3324,4.755
22.868000,-0.5566,-1.9149,-4.4717,4.896
22.873000,-0.6640,-1.9027,-4.5006,4.931
22.879000,-0.6021,-1.8587,-4.4765,4.884
22.883000,-0.3103,-1.7397,-4.3492,4.695
22.887000,0.0304,-1.6347,-4.1787,4.487
22.892000,0.3703,-1.5891,-3.9912,4.312
22.956000,0.7065,-1.4979,-3.8347,4.177
22.957000,0.9379,-1.4097,-3.5632,3.945
22.957000,1.0445,-1.3124,-3.2461,3.654
22.958000,1.1329,-1.1615,-3.1680,3.559
22.958000,1.2156,-1.0644,-3.0584,3.459
22.958000,1.3586,-1.0193,-2.9054,3.365
22.959000,1.5352,-0.9807,-2.7620,3.309
22.959000,1.6504,-0.8933,-2.6064,3.212
22.959000,1.7341,-0.8341,-2.5921,3.228
22.960000,1.7592,-0.7855,-2.5487,3.195
22.960000,1.7755,-0.7788,-2.5170,3.177
22.960000,1.7026,-0.7603,-2.5018,3.120
22.960000,1.6121,-0.7496,-2.4813,3.052
22.963000,1.5059,-0.7753,-2.3483,2.895
22.968000,1.4402,-0.7913,-2.1622,2.716
22.973000,1.4248,-0.7642,-1.9159,2.507
22.978000,1.4310,-0.7186,-1.6857,2.325
22.982000,1.2804,-0.7039,-1.5431,2.125
22.987000,1.0504,-0.8191,-1.3234,1.878
23.001000,0.8916,-1.0349,-1.1392,1.779
23.001000,0.7547,-1.2345,-0.8834,1.695
23.002000,0.5912,-1.4067,-0.6135,1.645
23.007000,0.6053,-1.3952,-0.3270,1.556
23.083000,0.7747,-1.3013,0.1338,1.520
23.084000,1.0431,-1.1958,0.6758,1.725
23.084000,1.2526,-1.0745,1.1317,2.001
23.085000,1.4001,-0.9446,1.5299,2.279
23.085000,1.4755,-0.7313,2.0042,2.594
23.085000,1.4397,-0.4983,2.5492,2.970
23.086000,1.2435,-0.3654,3.0767,3.339
23.086000,0.8747,-0.3418,3.4071,3.534
23.086000,0.2974,-0.3462,3.6384,3.667
23.086000,-0.2523,-0.3995,3.8610,3.890
23.087000,-0.7126,-0.4887,3.9835,4.076
23.087000,-1.0259,-0.5206,4.0492,4.209
23.087000,-1.5106,-0.4940,3.9597,4.267
23.088000,-1.9992,-0.4245,3.8272,4.339
23.088000,-2.3715,-0.3430,3.7596,4.458
23.088000,-2.6679,-0.3873,3.6849,4.566
23.092000,-2.8370,-0.5548,3.6107,4.625
23.098000,-2.9218,-0.8649,3.5753,4.698
23.102000,-2.8385,-1.1932,3.5022,4.663
23.106000,-2.5581,-1.4338,3.4538,4.531
23.117000,-2.0834,-1.6504,3.3130,4.247
23.119000,-1.3722,-1.7675,3.0463,3.780
23.121000,-0.6334,-1.8834,2.6898,3.344
23.125000,0.1421,-1.9813,2.3536,3.080
23.195000,0.8341,-2.0397,2.1670,3.091
23.196000,1.3899,-2.0425,2.1082,3.248
23.196000,1.8077,-1.9811,2.1036,3.408
23.196000,2.0717,-1.8831,2.1127,3.507
23.197000,2.1060,-1.7742,2.1456,3.491
23.197000,2.0527,-1.6494,2.3174,3.508
23.197000,1.8771,-1.5280,2.5470,3.514
23.197000,1.5372,-1.3774,2.8037,3.482
23.198000,1.0646,-1.2777,3.0468,3.471
23.198000,0.5273,-1.2018,3.2477,3.503
23.198000,-0.0266,-1.1296,3.4472,3.628
23.198000,-0.5007,-1.0723,3.5616,3.753
23.198000,-0.9684,-1.0339,3.6079,3.876
23.199000,-1.3873,-1.0221,3.4375,3.845
23.202000,-1.6387,-0.9184,3.1960,3.707
23.206000,-1.8525,-0.8551,2.9786,3.610
23.211000,-2.0694,-0.8349,2.7233,3.521
23.215000,-2.2748,-0.8581,2.3797,3.402
23.220000,-2.5047,-0.9392,1.9981,3.339
23.226000,-2.5325,-1.0588,1.5736,3.164
23.231000,-2.3619,-1.1379,1.1010,2.843
23.235000,-2.1346,-1.1711,0.7189,2.539
23.239000,-1.8176,-1.1459,0.3722,2.181
23.307000,-1.4826,-1.1194,0.0730,1.859
23.308000,-1.1104,-1.1123,-0.2457,1.591
23.308000,-0.7178,-1.0541,-0.5835,1.402
23.308000,-0.4240,-1.0445,-0.8756,1.427
23.308000,-0.1686,-1.0228,-1.1744,1.566
23.309000,0.0798,-1.0120,-1.4197,1.745
23.309000,0.2761,-0.9373,-1.6426,1.911
23.309000,0.4923,-0.8937,-1.8572,2.119
23.310000,0.6188,-0.8689,-2.0323,2.295
23.310000,0.6127,-0.9057,-2.1056,2.373
23.310000,0.5845,-0.9513,-2.1968,2.464
23.310000,0.5436,-0.9987,-2.2175,2.492
23.311000,0.5283,-1.0220,-2.1103,2.404
23.311000,0.5176,-1.0045,-1.9758,2.276
23.315000,0.4758,-1.0499,-1.9453,2.261
23.321000,0.3298,-1.1207,-2.0268,2.339
23.325000,-0.1119,-1.2549,-2.3123,2.633
23.330000,-0.6627,-1.4310,-2.1992,2.706
23.334000,-0.7480,-1.4285,-1.9305,2.515
23.339000,-0.6691,-1.3626,-2.2643,2.726
23.345000,-0.7166,-1.3329,-2.4123,2.848
23.349000,-0.8249,-1.2992,-2.2918,2.761
23.353000,-0.7448,-1.3225,-2.3968,2.837
23.359000,-0.3973,-1.2456,-2.6586,2.963
23.402000,-0.0090,-1.1724,-2.7154,2.958
23.403000,0.0560,-1.0932,-2.5365,2.763
23.403000,-0.0271,-0.9081,-2.1748,2.357
23.404000,0.2698,-0.8195,-1.8509,2.042
23.404000,0.5629,-0.9961,-1.6107,1.976
23.404000,0.3137,-1.2279,-1.5143,1.975
23.404000,0.0015,-1.6010,-1.5420,2.223
23.405000,-0.0701,-1.9378,-1.8301,2.666
23.405000,0.1205,-2.0247,-2.2726,3.046
23.410000,0.5167,-1.7935,-2.6728,3.260
23.416000,0.9981,-1.4815,-3.0256,3.514
23.420000,1.3323,-1.3290,-3.0850,3.614
23.424000,1.5740,-1.3445,-2.9495,3.603
23.430000,1.5795,-1.4683,-2.7486,3.494
23.438000,1.3680,-1.6917,-2.5257,3.334
23.439000,1.1513,-1.8866,-2.3533,3.228
23.499000,1.0433,-1.9607,-2.3178,3.210
23.500000,1.0058,-2.0173,-2.2806,3.207
23.500000,0.8995,-1.9560,-2.3063,3.155
23.501000,0.9116,-1.8625,-2.2249,3.041
23.501000,1.0520,-1.7053,-2.1269,2.922
23.501000,1.1537,-1.5198,-1.9929,2.759
23.502000,1.1675,-1.3750,-1.7628,2.522
23.502000,1.1325,-1.1706,-1.4697,2.194
23.502000,1.0929,-1.0335,-1.1848,1.915
23.502000,1.0389,-0.9593,-0.9513,1.704
23.503000,0.9580,-0.9038,-0.6811,1.483
23.503000,0.8358,-0.9032,-0.4461,1.309
23.503000,0.7212,-0.8890,-0.3354,1.193
23.509000,0.5614,-0.8189,-0.1603,1.006
23.517000,0.3078,-0.7703,-0.0648,0.832
23.519000,0.0703,-0.7799,-0.0110,0.783
23.524000,-0.0792,-0.7956,0.0277,0.800
23.533000,-0.1770,-0.7677,0.1226,0.797
23.533000,-0.1539,-0.7635,0.1996,0.804
23.537000,-0.0621,-0.7280,0.2301,0.766
23.609000,0.0882,-0.7262,0.1589,0.749
23.610000,0.2875,-0.7837,0.0413,0.836
23.610000,0.4396,-0.8575,-0.0918,0.968
23.611000,0.6043,-0.9016,-0.2380,1.111
23.611000,0.8441,-0.9971,-0.4712,1.389
23.611000,1.1685,-1.0404,-0.7384,1.730
23.611000,1.5133,-1.1094,-1.0201,2.136
23.612000,1.8520,-1.1814,-1.3521,2.580
23.612000,2.1460,-1.2478,-1.6483,2.980
23.612000,2.4384,-1.2914,-1.9135,3.358
23.612000,2.6532,-1.2845,-2.0038,3.564
23.613000,2.8413,-1.2430,-2.1031,3.747
23.613000,2.9149,-1.1591,-2.2087,3.836
23.613000,2.8906,-1.0705,-2.2392,3.810
23.613000,2.7116,-1.0107,-2.1134,3.583
23.619000,2.4235,-0.9869,-1.9390,3.257
23.623000,2.0461,-0.9877,-1.8353,2.921
23.627000,1.7348,-0.9730,-1.7355,2.640
23.632000,1.4489,-0.9337,-1.7233,2.437
23.638000,1.2244,-0.9371,-1.6597,2.265
23.643000,1.0203,-0.8614,-1.5882,2.075
23.653000,0.9134,-0.6896,-1.5609,1.936
23.654000,0.8558,-0.5655,-1.5252,1.838
23.657000,0.7081,-0.4198,-1.4075,1.631
23.750000,0.5467,-0.3269,-1.2533,1.406
23.751000,0.3738,-0.2708,-1.0151,1.115
23.753000,0.1848,-0.2447,-0.7671,0.826
23.754000,0.0008,-0.2304,-0.5431,0.590
23.755000,-0.1118,-0.2692,-0.2933,0.414
23.757000,-0.1289,-0.3090,-0.0248,0.336
23.758000,-0.1084,-0.3119,0.2189,0.396
23.759000,-0.0846,-0.3495,0.3920,0.532
23.759000,-0.1200,-0.3838,0.5398,0.673
23.763000,-0.1480,-0.3837,0.8603,0.954
23.764000,-0.1374,-0.4139,1.2220,1.297
23.765000,-0.0524,-0.5344,1.5768,1.666
23.766000,0.0141,-0.6978,1.9034,2.027
23.767000,0.0646,-0.7601,2.1065,2.240
23.768000,0.2404,-0.6588,2.2268,2.335
23.769000,0.4197,-0.4693,2.2099,2.298
23.769000,0.5307,-0.3126,2.1350,2.222
23.770000,0.5161,-0.2026,2.2198,2.288
23.771000,0.4285,-0.0789,2.3375,2.378
23.772000,0.2661,0.0631,2.4140,2.429
23.772000,0.0145,0.2902,2.4087,2.426
23.773000,-0.3742,0.5561,2.3263,2.421
23.774000,-0.8522,0.8188,2.3100,2.595
23.778000,-1.3522,0.9412,2.4266,2.933
23.781000,-1.8546,0.8379,2.3103,3.079
23.787000,-2.1492,0.6280,2.4823,3.343
23.791000,-2.3571,0.4042,2.6894,3.599
23.796000,-2.3956,0.2402,2.4456,3.432
23.800000,-2.1590,0.0810,2.4961,3.301
23.806000,-1.8221,0.0609,2.5492,3.134
23.888000,-1.4277,0.1303,2.3637,2.764
23.890000,-0.9909,0.1943,2.2027,2.423
23.890000,-0.6284,0.2565,2.0354,2.146
23.890000,-0.3300,0.3466,1.8794,1.939
23.891000,-0.0355,0.4037,1.7134,1.761
23.891000,0.2243,0.4811,1.5401,1.629
23.892000,0.3639,0.6012,1.4103,1.576
23.892000,0.4889,0.7096,1.3336,1.588
23.893000,0.5424,0.7515,1.3940,1.674
23.893000,0.5056,0.7724,1.4648,1.731
23.894000,0.3500,0.7314,1.5483,1.748
23.896000,0.0827,0.6538,1.6130,1.742
23.896000,-0.1508,0.6417,1.6421,1.769
23.896000,-0.3604,0.6343,1.6350,1.790
23.897000,-0.4769,0.5978,1.6037,1.777
23.897000,-0.5913,0.6246,1.5698,1.790
23.897000,-0.6583,0.6115,1.5018,1.750
23.898000,-0.6899,0.5151,1.4526,1.689
23.901000,-0.7007,0.4832,1.4050,1.643
23.905000,-0.7436,0.3816,1.2611,1.513
23.910000,-0.7562,0.2343,1.0472,1.313
23.915000,-0.6860,0.1005,0.8257,1.078
23.920000,-0.5038,-0.0118,0.5181,0.723
23.926000,-0.2865,-0.1070,0.2033,0.367
24.000000,-0.0820,-0.1725,-0.2048,0.280
24.001000,0.0737,-0.2912,-0.5050,0.588
24.002000,0.1612,-0.4435,-0.7790,0.911
24.002000,0.2524,-0.5332,-1.0316,1.188
24.002000,0.3235,-0.5622,-1.3247,1.475
24.002000,0.3215,-0.6025,-1.5893,1.730
24.003000,0.2924,-0.5940,-1.8395,1.955
24.003000,0.2817,-0.6183,-1.9843,2.097
24.003000,0.2899,-0.6326,-2.0811,2.194
24.003000,0.2915,-0.6559,-2.2536,2.365
24.004000,0.3730,-0.7051,-2.4849,2.610
24.004000,0.5037,-0.6666,-2.7077,2.834
24.004000,0.6220,-0.6498,-2.8690,3.007
24.004000,0.7498,-0.5876,-3.1144,3.257
24.005000,0.8593,-0.5773,-3.2067,3.370
24.005000,0.9608,-0.5226,-3.1959,3.378
24.055000,1.1094,-0.4570,-3.1825,3.401
24.056000,1.2813,-0.4400,-3.1282,3.409
24.056000,1.3678,-0.4501,-3.0863,3.406
24.057000,1.3872,-0.4705,-3.0716,3.403
24.057000,1.2411,-0.5207,-2.9840,3.273
24.057000,0.9479,-0.5558,-2.9269,3.126
24.057000,0.7126,-0.5456,-2.8146,2.954
24.058000,0.4557,-0.5745,-2.7600,2.856
24.058000,0.1649,-0.5784,-2.7321,2.798
24.058000,-0.0548,-0.6033,-2.7191,2.786
24.059000,-0.2636,-0.5179,-2.7188,2.780
24.067000,-0.3947,-0.4921,-2.7312,2.803
24.070000,-0.4891,-0.4115,-2.6394,2.716
24.075000,-0.4579,-0.3168,-2.4935,2.555
24.082000,-0.4064,-0.2441,-2.2957,2.344
24.085000,-0.3220,-0.1577,-2.0818,2.112
24.089000,-0.2117,-0.1438,-1.8683,1.886
24.165000,-0.1758,-0.1255,-1.7509,1.764
24.166000,-0.1925,-0.1387,-1.6909,1.707
24.166000,-0.2185,-0.1593,-1.6309,1.653
24.166000,-0.2511,-0.1517,-1.5969,1.624
24.167000,-0.3090,-0.1515,-1.5505,1.588
24.167000,-0.3849,-0.1490,-1.5513,1.605
24.167000,-0.4645,-0.1034,-1.5803,1.650
24.168000,-0.5360,-0.0815,-1.5704,1.661
24.168000,-0.6017,-0.0838,-1.5768,1.690
24.168000,-0.6211,-0.0384,-1.5110,1.634
24.169000,-0.6230,-0.0220,-1.4472,1.576
24.169000,-0.5382,0.0247,-1.3712,1.473
24.169000,-0.4266,0.0777,-1.2926,1.363
24.169000,-0.3123,0.1607,-1.2738,1.321
24.170000,-0.1886,0.2116,-1.2119,1.245
24.170000,-0.0051,0.2853,-1.2219,1.255
24.174000,0.1803,0.3362,-1.1676,1.228
24.178000,0.3174,0.3787,-1.0968,1.203
24.183000,0.4302,0.3792,-1.0885,1.230
24.189000,0.4875,0.4169,-1.1164,1.288
24.197000,0.4897,0.3914,-1.1013,1.267
24.198000,0.4205,0.3315,-1.1817,1.297
24.202000,0.4022,0.2879,-1.3622,1.449
24.207000,0.4132,0.3397,-1.4799,1.574
24.256000,0.3749,0.3895,-1.5922,1.681
24.257000,0.4117,0.4112,-1.6248,1.726
24.258000,0.4036,0.4027,-1.5781,1.678
24.258000,0.4079,0.3925,-1.4712,1.576
24.258000,0.4798,0.3371,-1.3115,1.437
24.259000,0.4997,0.3657,-1.2520,1.397
24.259000,0.4867,0.4036,-1.1827,1.341
24.259000,0.5194,0.4554,-1.1539,1.345
24.259000,0.6101,0.4544,-1.1511,1.380
24.260000,0.7206,0.4893,-1.0857,1.392
24.262000,0.8125,0.6008,-1.0438,1.453
24.268000,0.8457,0.7151,-1.0131,1.501
24.272000,0.8799,0.7629,-0.9507,1.503
24.280000,0.8578,0.7802,-0.8445,1.435
24.283000,0.8512,0.6998,-0.6995,1.305
24.287000,0.8409,0.6315,-0.5755,1.199
24.292000,0.8002,0.5943,-0.5133,1.121
24.363000,0.7792,0.5787,-0.3983,1.049
24.365000,0.7488,0.5655,-0.3502,1.002
24.367000,0.7378,0.5166,-0.2947,0.948
24.368000,0.7147,0.4057,-0.1628,0.838
24.369000,0.6555,0.2782,0.0166,0.712
24.370000,0.6127,0.1343,0.1669,0.649
24.371000,0.5426,-0.0022,0.2542,0.599
24.372000,0.4304,-0.1984,0.3285,0.577
24.373000,0.2927,-0.3896,0.3635,0.608
24.374000,0.2514,-0.5206,0.4714,0.746
24.376000,0.1776,-0.6653,0.7720,1.034
24.377000,0.1007,-0.7446,0.8327,1.122
24.378000,0.0366,-0.8276,1.0119,1.308
24.379000,0.0140,-0.8449,1.2951,1.546
24.380000,-0.1604,-0.8399,1.6013,1.815
24.380000,-0.3648,-0.9972,1.9683,2.236
24.380000,-0.5364,-1.0689,2.2505,2.549
24.384000,-0.5960,-1.0173,2.4744,2.741
24.386000,-0.6506,-0.9840,2.5235,2.786
24.391000,-0.7192,-0.9690,2.5462,2.818
24.397000,-0.6576,-0.9481,2.4331,2.693
24.402000,-0.5545,-0.9210,2.3302,2.566
24.406000,-0.3167,-0.8486,2.2495,2.425
24.489000,0.0029,-0.7471,2.2509,2.372
24.491000,0.2870,-0.6088,2.1141,2.219
24.491000,0.4541,-0.3928,1.9470,2.037
24.492000,0.4012,-0.1159,1.7732,1.822
24.493000,0.1761,0.0374,1.7048,1.714
24.495000,-0.1186,0.0377,1.6291,1.634
24.496000,-0.4590,-0.1035,1.5434,1.614
24.497000,-0.6447,-0.3604,1.5478,1.715
24.500000,-0.6554,-0.5880,1.6965,1.911
24.500000,-0.4704,-0.8153,1.9815,2.194
24.502000,-0.1482,-1.0068,2.2659,2.484
24.503000,0.1942,-1.1648,2.3752,2.653
24.503000,0.5946,-1.2334,2.3982,2.762
24.504000,1.0656,-1.2037,2.3283,2.829
24.505000,1.5499,-1.1390,2.3477,3.035
24.505000,1.8781,-1.0760,2.5333,3.332
24.506000,2.0636,-0.9635,2.7711,3.587
24.507000,2.0713,-0.8393,3.0254,3.761
24.507000,1.8470,-0.7036,3.2993,3.846
24.508000,1.4119,-0.6241,3.5226,3.846
24.510000,0.8355,-0.5952,3.6763,3.817
24.516000,0.2655,-0.5848,3.6879,3.743
24.521000,-0.2337,-0.6591,4.1290,4.188
24.526000,-0.8829,-0.7410,3.9763,4.140
24.531000,-1.4486,-0.8531,3.6841,4.050
24.535000,-1.8140,-0.8601,3.5010,4.036
24.540000,-2.0486,-0.8773,3.3063,3.987
24.612000,-2.2259,-0.7825,2.3928,3.360
24.613000,-2.2428,-0.7234,1.7668,2.945
24.613000,-2.0953,-0.7829,1.4709,2.677
24.614000,-1.7894,-0.8499,1.0584,2.246
24.614000,-1.3868,-0.7942,0.6544,1.727
24.614000,-1.0146,-0.7397,0.1941,1.270
24.614000,-0.6996,-0.7762,-0.1815,1.061
24.615000,-0.4423,-0.8937,-0.4248,1.084
24.615000,-0.0244,-0.9193,-0.6433,1.122
24.615000,0.4441,-0.8476,-0.8512,1.281
24.616000,0.7815,-0.8166,-1.0508,1.543
24.616000,1.0237,-0.7488,-1.1918,1.740
24.616000,1.0844,-0.7036,-1.3462,1.866
24.617000,1.0476,-0.7359,-1.4471,1.932
24.617000,0.8988,-0.7643,-1.4634,1.880
24.619000,0.6309,-0.8440,-1.5246,1.853
24.625000,0.3877,-0.8583,-1.5588,1.821
24.629000,0.1074,-0.8291,-1.5946,1.800
24.634000,-0.1076,-0.7736,-1.5508,1.736
24.639000,-0.3311,-0.7068,-1.4586,1.654
24.647000,-0.4799,-0.6364,-1.3661,1.582
24.649000,-0.6586,-0.6587,-1.2421,1.553
24.653000,-0.8049,-0.6333,-1.1104,1.511
24.659000,-0.8736,-0.5870,-0.9401,1.411
24.720000,-0.8882,-0.5418,-0.7072,1.258
24.721000,-0.8487,-0.4980,-0.4787,1.094
24.721000,-0.8773,-0.4608,-0.3529,1.052
24.721000,-0.9551,-0.4952,-0.2963,1.116
24.722000,-1.0676,-0.5222,-0.2586,1.216
24.722000,-1.1764,-0.6120,-0.2733,1.354
24.722000,-1.1931,-0.6401,-0.4097,1.415
24.723000,-1.1127,-0.6401,-0.6484,1.438
24.723000,-0.9502,-0.5781,-0.8819,1.419
24.723000,-0.7463,-0.4635,-1.0790,1.391
24.724000,-0.4391,-0.4487,-1.2638,1.411
24.724000,-0.1705,-0.4665,-1.4005,1.486
24.724000,0.1198,-0.5212,-1.4582,1.553
24.731000,0.4153,-0.5551,-1.4986,1.651
24.734000,0.6275,-0.5583,-1.5602,1.772
24.739000,0.8065,-0.5258,-1.6979,1.952
24.745000,0.9690,-0.5555,-1.8208,2.136
24.748000,0.9378,-0.7427,-1.9722,2.307
24.753000,0.9686,-0.8074,-2.1138,2.461
24.758000,1.2846,-0.7041,-2.1902,2.635
24.818000,1.5751,-0.5996,-2.3446,2.888
24.819000,1.7175,-0.5772,-2.4697,3.063
24.820000,1.7812,-0.5647,-2.4721,3.099
24.821000,1.7804,-0.5213,-2.4863,3.102
24.821000,1.7033,-0.5143,-2.4761,3.049
24.822000,1.5738,-0.5750,-2.3652,2.899
24.823000,1.4349,-0.6323,-2.2375,2.732
24.824000,1.3539,-0.6314,-2.2175,2.674
24.825000,1.3206,-0.6179,-2.2213,2.657
24.826000,1.1941,-0.6229,-2.2299,2.605
24.827000,1.0550,-0.6729,-2.1789,2.513
24.828000,1.0637,-0.6578,-2.1021,2.446
24.829000,1.0579,-0.5826,-1.9823,2.321
24.830000,1.0876,-0.5504,-1.8342,2.202
24.833000,1.0594,-0.5444,-1.6960,2.073
24.839000,0.9732,-0.5746,-1.5513,1.919
24.842000,0.8793,-0.6223,-1.3641,1.738
24.848000,0.7803,-0.6875,-1.3114,1.674
24.852000,0.6167,-0.6893,-1.3236,1.615
24.858000,0.4604,-0.6948,-1.3694,1.603
24.931000,0.3305,-0.7159,-1.4632,1.662
24.932000,0.1819,-0.6950,-1.5927,1.747
24.932000,0.1391,-0.6226,-1.6120,1.734
24.933000,0.1878,-0.5536,-1.6311,1.733
24.933000,0.2301,-0.5066,-1.5851,1.680
24.934000,0.1843,-0.5104,-1.7232,1.807
24.934000,-0.1032,-0.6464,-1.6293,1.756
24.934000,-0.2584,-0.6973,-1.7386,1.891
24.935000,-0.1667,-0.7489,-1.7736,1.932
24.935000,-0.0382,-0.7770,-1.8988,2.052
24.935000,0.0817,-0.7213,-2.1572,2.276
24.935000,0.1808,-0.7126,-2.2376,2.355
24.936000,0.2332,-0.7169,-2.2811,2.402
24.936000,0.4111,-0.7001,-2.3403,2.477
24.936000,0.5641,-0.6952,-2.2571,2.428
24.937000,0.7265,-0.6039,-2.2369,2.428
24.942000,0.9031,-0.4330,-2.1836,2.402
24.947000,1.0340,-0.2371,-1.9971,2.261
24.952000,1.0688,-0.1191,-1.6941,2.007
24.957000,1.0700,0.0139,-1.5069,1.848
24.963000,0.9797,0.0971,-1.2775,1.613
24.966000,0.7039,0.0677,-1.0667,1.280
24.972000,0.4096,0.0425,-0.8602,0.954
24.977000,0.1415,-0.0131,-0.5941,0.611
25.033000,-0.1613,-0.1094,-0.3244,0.378
25.034000,-0.4322,-0.2063,-0.0657,0.483
25.034000,-0.6340,-0.3361,0.2050,0.746
25.034000,-0.7984,-0.4319,0.4514,1.014
25.038000,-0.8955,-0.4752,0.6370,1.197
25.039000,-0.9209,-0.5115,0.8475,1.352
25.040000,-0.9582,-0.5213,1.1141,1.559
25.041000,-0.9376,-0.5957,1.4012,1.788
25.042000,-0.7818,-0.6742,1.6471,1.944
25.044000,-0.5736,-0.7081,1.8816,2.091
25.045000,-0.2734,-0.6172,2.0267,2.136
25.047000,0.0327,-0.4750,2.3075,2.356
25.048000,0.3863,-0.3138,2.6625,2.709
25.049000,0.7112,-0.0469,2.6831,2.776
25.053000,0.8610,0.1281,3.1515,3.270
25.056000,0.6708,0.3716,3.3201,3.408
25.066000,0.2602,0.7097,2.9906,3.085
25.067000,-0.3441,0.9409,3.1640,3.319
25.072000,-0.9526,1.0780,3.5885,3.866
25.077000,-1.6837,1.0692,3.9966,4.467
25.107000,-2.4170,0.8405,4.4048,5.094
25.107000,-2.8908,0.4645,4.6448,5.491
25.108000,-3.1951,0.0858,4.9115,5.860
25.108000,-3.3089,-0.1889,5.0803,6.066
25.108000,-3.1567,-0.3021,5.0027,5.923
25.109000,-2.8492,-0.1984,4.7934,5.580
25.115000,-2.4088,0.0057,4.5100,5.113
25.116000,-1.9048,0.2661,4.3321,4.740
25.121000,-1.3341,0.5236,4.2317,4.468
25.126000,-0.8731,0.6333,4.1662,4.304
25.130000,-0.5374,0.6988,4.1649,4.257
25.136000,-0.2767,0.7156,4.0414,4.114
25.141000,-0.0881,0.7078,3.8320,3.898
25.146000,-0.0357,0.6690,3.6015,3.663
25.150000,-0.0857,0.6254,3.3239,3.383
25.155000,-0.1614,0.6135,2.9993,3.066
25.223000,-0.2553,0.5809,2.7068,2.780
25.224000,-0.3390,0.5780,2.4273,2.518
25.224000,-0.3573,0.6171,2.0891,2.207
25.224000,-0.3612,0.6861,1.8639,2.019
25.225000,-0.3578,0.7393,1.7254,1.911
25.225000,-0.3782,0.7740,1.5825,1.802
25.225000,-0.3910,0.7896,1.5262,1.762
25.225000,-0.2884,0.8432,1.3985,1.658
25.226000,-0.1521,0.9224,1.3069,1.607
25.226000,-0.0232,0.9744,1.1748,1.527
25.226000,0.0264,0.9631,1.0186,1.402
25.227000,-0.0587,0.8739,0.8381,1.212
25.227000,-0.1186,0.7666,0.6260,0.997
25.227000,0.0045,0.6838,0.5207,0.860
25.230000,0.1412,0.6783,0.2883,0.750
25.235000,0.2030,0.6908,-0.0637,0.723
25.240000,0.1872,0.6183,-0.3251,0.723
25.244000,0.1781,0.6001,-0.5219,0.815
25.249000,0.1401,0.5359,-0.7377,0.923
25.254000,0.1213,0.5450,-0.9174,1.074
25.262000,0.1072,0.4789,-1.0108,1.124
25.264000,0.1050,0.3953,-1.2309,1.297
25.269000,0.0281,0.2720,-1.4081,1.434
25.274000,-0.1047,0.1539,-1.6550,1.665
25.334000,-0.2043,0.0505,-1.9403,1.952
25.335000,-0.3137,-0.0764,-2.2924,2.315
25.335000,-0.3682,-0.2010,-2.6252,2.658
25.335000,-0.3249,-0.3348,-2.9195,2.957
25.336000,-0.1885,-0.4388,-3.1536,3.190
25.336000,-0.0283,-0.5824,-3.4161,3.465
25.336000,0.1966,-0.7067,-3.6180,3.692
25.336000,0.4500,-0.7996,-3.7476,3.858
25.337000,0.7182,-0.8765,-3.8142,3.979
25.337000,0.9176,-0.9062,-3.8942,4.102
25.337000,0.9864,-0.9597,-3.9659,4.198
25.338000,1.0521,-1.0315,-3.9980,4.261
25.340000,1.0717,-1.1167,-3.9810,4.271
25.344000,1.0886,-1.2171,-3.9482,4.273
25.349000,1.0932,-1.2823,-3.8950,4.244
25.353000,1.1121,-1.3215,-3.8427,4.213
25.359000,1.0541,-1.3226,-3.7484,4.112
25.363000,0.9958,-1.2709,-3.6386,3.981
25.369000,0.8961,-1.2144,-3.4728,3.787
25.374000,0.7574,-1.1369,-3.2441,3.520
25.379000,0.6129,-1.0795,-2.8880,3.144
25.383000,0.4535,-0.9997,-2.5074,2.737
25.389000,0.2936,-0.8695,-2.2506,2.431
25.462000,0.1067,-0.7376,-2.0075,2.141
25.463000,-0.0213,-0.6167,-1.7975,1.900
25.463000,-0.1627,-0.5215,-1.5920,1.683
25.464000,-0.3563,-0.4794,-1.3818,1.505
25.464000,-0.5039,-0.4931,-1.2173,1.407
25.464000,-0.5965,-0.4628,-1.0889,1.325
25.464000,-0.5863,-0.4248,-1.0231,1.253
25.465000,-0.5669,-0.4055,-0.9864,1.208
25.465000,-0.4357,-0.3283,-0.9836,1.125
25.465000,-0.2501,-0.2166,-0.9763,1.031
25.466000,-0.0439,-0.0752,-1.0293,1.033
25.466000,0.1353,0.0581,-1.0299,1.040
25.466000,0.2567,0.1861,-0.9899,1.039
25.466000,0.4042,0.2848,-0.9501,1.071
25.467000,0.5371,0.3685,-0.9582,1.159
25.469000,0.6246,0.4709,-0.9877,1.260
25.474000,0.6498,0.5178,-1.0507,1.340
25.480000,0.6490,0.6024,-1.0945,1.408
25.482000,0.6534,0.7031,-1.1427,1.492
25.487000,0.6753,0.7914,-1.3029,1.667
25.495000,0.7097,0.8051,-1.3909,1.757
25.497000,0.7566,0.7803,-1.5239,1.872
25.502000,0.7945,0.7291,-1.6278,1.953
25.508000,0.8517,0.6852,-1.7386,2.054
25.571000,0.9187,0.6559,-1.7844,2.112
25.572000,1.0098,0.6462,-1.7942,2.158
25.573000,1.0863,0.6227,-1.7944,2.188
25.573000,1.0812,0.6237,-1.7875,2.180
25.574000,1.0517,0.5895,-1.6994,2.084
25.576000,0.9957,0.5627,-1.5781,1.949
25.578000,0.9925,0.5816,-1.4066,1.817
25.578000,0.9849,0.6678,-1.3045,1.766
25.579000,0.9877,0.7542,-1.2402,1.756
25.580000,1.0411,0.8195,-1.1303,1.742
25.582000,1.0493,0.8710,-0.9462,1.660
25.583000,1.0031,0.8106,-0.7524,1.493
25.584000,0.9886,0.7551,-0.5345,1.354
25.585000,0.9629,0.6137,-0.3954,1.208
25.585000,0.9090,0.4892,-0.2155,1.055
25.587000,0.8075,0.3312,-0.1171,0.881
25.592000,0.7302,0.1902,-0.0307,0.755
25.603000,0.5955,0.0925,-0.0304,0.603
25.603000,0.4083,-0.0072,-0.0421,0.411
25.606000,0.1403,-0.0392,-0.0440,0.152
25.673000,-0.1393,-0.1234,-0.0218,0.187
25.674000,-0.3414,-0.2548,0.0414,0.428
25.674000,-0.4971,-0.3621,0.0810,0.620
25.675000,-0.5965,-0.4474,0.0806,0.750
25.675000,-0.6879,-0.4678,0.1238,0.841
25.675000,-0.7095,-0.5355,0.2006,0.911
25.676000,-0.7186,-0.6507,0.3687,1.037
25.676000,-0.6822,-0.7584,0.4960,1.134
25.677000,-0.6027,-0.9038,0.6472,1.264
25.677000,-0.5499,-0.9841,0.7479,1.353
25.678000,-0.4333,-0.9801,0.8889,1.392
25.678000,-0.3148,-0.8984,1.1014,1.456
25.678000,-0.1658,-0.7393,1.3711,1.566
25.679000,-0.1488,-0.6290,1.5352,1.666
25.682000,-0.2187,-0.6084,1.7563,1.872
25.687000,-0.3896,-0.6517,2.0559,2.192
25.691000,-0.5294,-0.7089,2.3527,2.514
25.696000,-0.6434,-0.7613,2.6129,2.797
25.701000,-0.7458,-0.7401,2.6740,2.873
25.705000,-0.9038,-0.7364,2.6724,2.916
25.712000,-1.0744,-0.6545,2.6559,2.939
25.715000,-1.1953,-0.5499,2.6341,2.944
25.720000,-1.2976,-0.4345,2.5902,2.929
25.725000,-1.4938,-0.2729,2.5482,2.966
25.780000,-1.6668,-0.1563,2.5604,3.059
25.781000,-1.8384,-0.1068,2.6050,3.190
25.781000,-2.0107,-0.1129,2.6222,3.306
25.781000,-2.1555,-0.2353,2.6571,3.430
25.781000,-2.2372,-0.4695,2.6974,3.536
25.782000,-2.1850,-0.7439,2.7355,3.579
25.782000,-1.9803,-1.0419,2.8141,3.595
25.782000,-1.6476,-1.3800,2.7536,3.493
25.782000,-1.2206,-1.6685,2.6979,3.399
25.782000,-0.7469,-1.8795,2.5878,3.284
25.783000,-0.1663,-2.0711,2.4835,3.238
25.785000,0.4404,-2.0855,2.5700,3.339
25.790000,1.0976,-2.0357,2.8644,3.682
25.795000,1.6982,-1.9232,3.2377,4.131
25.801000,2.0612,-1.7731,3.6927,4.586
25.805000,2.0411,-1.6258,4.0741,4.838
25.811000,1.7349,-1.4865,4.3776,4.938
25.818000,1.1888,-1.3132,4.4789,4.816
25.820000,0.5002,-1.1358,4.5811,4.746
25.825000,-0.2896,-0.9759,4.6432,4.753
25.860000,-1.1296,-0.8134,4.5628,4.770
25.861000,-2.0499,-0.7413,4.4262,4.934
25.861000,-2.7419,-0.6920,4.1543,5.025
25.861000,-3.2754,-0.6138,3.7758,5.036
25.862000,-3.6220,-0.5248,3.1971,4.860
25.862000,-3.7492,-0.4536,2.6644,4.622
25.862000,-3.6529,-0.3787,2.1321,4.246
25.865000,-3.3454,-0.3144,1.6455,3.741
25.870000,-2.8467,-0.2316,1.1492,3.079
25.875000,-2.2862,-0.1918,0.7104,2.402
25.881000,-1.6761,-0.1536,0.2645,1.704
25.884000,-1.1366,-0.1852,-0.2268,1.174
25.890000,-0.5265,-0.1708,-0.7012,0.893
25.896000,0.0776,-0.1433,-1.1611,1.172
25.900000,0.5535,-0.1706,-1.6182,1.719
25.905000,0.9612,-0.2903,-2.0749,2.305
25.911000,1.3150,-0.3553,-2.4880,2.836
25.914000,1.5336,-0.4719,-2.8624,3.281
25.919000,1.6891,-0.5059,-3.1883,3.643
25.924000,1.7864,-0.5399,-3.5135,3.978
25.982000,1.8730,-0.6071,-3.6947,4.187
25.982000,1.8081,-0.5897,-3.7773,4.229
25.983000,1.7116,-0.6122,-3.7830,4.197
25.983000,1.4663,-0.6869,-3.6832,4.023
25.983000,1.1521,-0.7783,-3.5135,3.779
25.984000,0.8888,-0.8155,-3.2549,3.471
25.984000,0.6268,-0.7877,-2.9670,3.133
25.984000,0.4147,-0.7146,-2.6734,2.798
25.984000,0.2528,-0.5897,-2.4242,2.508
25.985000,0.0844,-0.5477,-2.1354,2.206
25.985000,-0.1383,-0.5199,-1.9840,2.056
25.985000,-0.4513,-0.5210,-1.8934,2.015
25.989000,-0.8071,-0.5472,-1.9095,2.144
25.994000,-1.1528,-0.6229,-1.9579,2.356
25.998000,-1.4027,-0.6985,-2.0269,2.562
26.003000,-1.4711,-0.7841,-2.1406,2.713
26.010000,-1.4322,-0.8293,-2.2463,2.790
26.013000,-1.2676,-0.8607,-2.3898,2.839
26.019000,-0.9923,-0.8802,-2.5090,2.838
26.024000,-0.6666,-0.8277,-2.6041,2.813
26.029000,-0.3172,-0.8439,-2.7159,2.862
26.033000,-0.0039,-0.8420,-2.8204,2.943
26.038000,0.3208,-0.8408,-2.8485,2.987
26.097000,0.6159,-0.8401,-2.9318,3.111
26.098000,0.8887,-0.8490,-2.9673,3.212
26.098000,1.0649,-0.8217,-3.0247,3.310
26.098000,1.2405,-0.7439,-3.0725,3.396
26.098000,1.4276,-0.7469,-3.1274,3.518
26.098000,1.5592,-0.6986,-3.1679,3.599
26.098000,1.6739,-0.6515,-3.1698,3.643
26.099000,1.6975,-0.6316,-3.1142,3.603
26.099000,1.7096,-0.5673,-3.0078,3.506
26.099000,1.6383,-0.5277,-2.8771,3.353
26.099000,1.5178,-0.4722,-2.7076,3.140
26.099000,1.4054,-0.4319,-2.5614,2.953
26.103000,1.2671,-0.3860,-2.4030,2.744
26.108000,1.1127,-0.3921,-2.2156,2.510
26.114000,0.9038,-0.4292,-2.0427,2.275
26.118000,0.6544,-0.4527,-1.8652,2.028
26.123000,0.4460,-0.5037,-1.7192,1.846
26.127000,0.2899,-0.5275,-1.6910,1.795
26.132000,0.2270,-0.5507,-1.6203,1.726
26.138000,0.1970,-0.6117,-1.5217,1.652
26.143000,0.2357,-0.6796,-1.4216,1.593
26.194000,0.3598,-0.7061,-1.3485,1.564
26.195000,0.4856,-0.7438,-1.3312,1.600
26.195000,0.6437,-0.7346,-1.3409,1.659
26.195000,0.7749,-0.6780,-1.3294,1.681
26.195000,0.9624,-0.6764,-1.2945,1.749
26.196000,1.1613,-0.6313,-1.1785,1.771
26.196000,1.3244,-0.6021,-1.0144,1.774
26.196000,1.5479,-0.4925,-0.7492,1.789
26.197000,1.6983,-0.3360,-0.5670,1.822
26.197000,1.7156,-0.2352,-0.4078,1.779
26.197000,1.5475,-0.1588,-0.3052,1.585
26.203000,1.2827,-0.1647,-0.1514,1.302
26.208000,1.0287,-0.1862,-0.0496,1.047
26.213000,0.7214,-0.2114,0.0055,0.752
26.218000,0.3964,-0.1953,-0.0152,0.442
26.223000,0.0849,-0.1093,-0.0875,0.164
26.229000,-0.1829,0.0441,-0.1760,0.258
26.232000,-0.4758,0.1452,-0.1681,0.525
26.237000,-0.7703,0.1964,-0.1238,0.805
26.241000,-1.0401,0.1113,-0.0145,1.046
26.305000,-1.2398,-0.0859,0.2577,1.269
26.306000,-1.3033,-0.3576,0.6943,1.519
26.306000,-1.2236,-0.6177,1.1564,1.793
26.307000,-1.0996,-0.8113,1.4881,2.020
26.307000,-1.0590,-0.8689,1.7463,2.219
26.307000,-1.0091,-0.8883,2.0359,2.440
26.307000,-0.9574,-0.8575,2.4068,2.728
26.308000,-0.8538,-0.8338,2.8613,3.100
26.308000,-0.8104,-0.8527,3.3158,3.518
26.308000,-0.8128,-0.8856,3.8159,4.001
26.308000,-0.8630,-0.8728,4.2754,4.448
26.309000,-0.9490,-0.8384,4.6013,4.772
26.309000,-0.9800,-0.6990,4.9392,5.084
26.315000,-0.9846,-0.5335,5.2368,5.355
26.316000,-1.0295,-0.3300,5.4275,5.534
26.321000,-1.1527,-0.1127,5.5089,5.629
26.327000,-1.2892,0.1831,5.5318,5.683
26.331000,-1.4817,0.5761,5.5131,5.738
26.336000,-1.7155,0.9319,5.5056,5.842
26.341000,-1.9302,1.2115,5.4904,5.945
26.346000,-2.1805,1.3999,5.4460,6.031
26.351000,-2.4273,1.5035,5.3298,6.046
26.356000,-2.6919,1.5334,5.2134,6.064
26.421000,-2.8278,1.4220,5.0231,5.937
26.422000,-2.9135,1.1761,4.7784,5.719
26.423000,-2.8250,0.9034,4.3380,5.255
26.423000,-2.5803,0.5593,3.8762,4.690
26.424000,-2.0973,0.2021,3.4833,4.071
26.424000,-1.5662,-0.0381,3.0414,3.421
26.424000,-1.0526,-0.1363,2.5671,2.778
26.425000,-0.6452,-0.1346,2.0509,2.154
26.425000,-0.2382,-0.0558,1.5627,1.582
26.426000,0.2356,0.0057,1.1988,1.222
26.426000,0.5134,0.0556,0.9782,1.106
26.427000,0.7354,0.0400,0.8159,1.099
26.427000,0.9143,-0.0262,0.6716,1.135
26.428000,0.9746,-0.0875,0.6225,1.160
26.431000,1.0436,-0.0835,0.6162,1.215
26.435000,1.0952,-0.0047,0.6624,1.280
26.445000,1.1058,0.0918,0.7492,1.339
26.446000,1.1471,0.2463,0.8812,1.467
26.451000,1.1299,0.4037,1.1082,1.633
26.456000,1.0325,0.5463,1.3030,1.750
26.462000,0.9149,0.7305,1.5636,1.953
26.465000,0.7053,0.9240,1.7869,2.132
26.470000,0.4873,1.1394,1.9676,2.325
26.475000,0.2126,1.2823,2.0431,2.422
26.545000,0.0031,1.4300,2.0586,2.507
26.545000,-0.1889,1.5957,2.0092,2.573
26.546000,-0.3252,1.6494,1.8206,2.478
26.546000,-0.4040,1.6719,1.5548,2.319
26.546000,-0.3801,1.6296,1.1662,2.040
26.547000,-0.2683,1.5677,0.8029,1.782
26.547000,-0.1454,1.4553,0.4148,1.520
26.547000,0.0506,1.3025,0.0949,1.307
26.548000,0.2549,1.1217,-0.1734,1.163
26.548000,0.4601,0.9825,-0.4741,1.184
26.548000,0.6451,0.8473,-0.8185,1.343
26.549000,0.7880,0.6575,-1.2449,1.613
26.549000,0.8918,0.4925,-1.6237,1.917
26.549000,0.9998,0.3150,-1.9784,2.239
26.550000,1.0886,0.1668,-2.3013,2.551
26.555000,1.1680,0.0290,-2.5278,2.785
26.560000,1.2691,-0.1216,-2.7367,3.019
26.564000,1.3588,-0.2603,-2.8848,3.199
26.570000,1.4635,-0.3555,-2.9456,3.308
26.575000,1.5352,-0.3901,-2.9838,3.378
26.579000,1.5427,-0.4210,-2.9517,3.357
26.587000,1.5461,-0.4147,-2.8469,3.266
26.590000,1.4685,-0.3761,-2.7007,3.097
26.666000,1.4229,-0.3342,-2.5633,2.951
26.668000,1.1362,-0.3252,-2.4229,2.696
26.670000,0.7623,-0.3284,-2.3200,2.464
26.671000,0.4020,-0.3421,-2.3143,2.374
26.672000,0.0626,-0.3669,-2.3459,2.375
26.673000,-0.2224,-0.3505,-2.3765,2.412
26.674000,-0.4556,-0.3457,-2.3631,2.431
26.675000,-0.6583,-0.3001,-2.4063,2.513
26.676000,-0.7400,-0.2497,-2.4557,2.577
26.679000,-0.7892,-0.2061,-2.4540,2.586
26.680000,-0.7700,-0.1146,-2.3054,2.433
26.681000,-0.7037,-0.0228,-2.1823,2.293
26.681000,-0.6551,0.0547,-2.0343,2.138
26.681000,-0.5311,0.1344,-1.9311,2.007
26.681000,-0.4274,0.1638,-1.7983,1.856
26.682000,-0.3610,0.1475,-1.6411,1.687
26.682000,-0.2867,0.1237,-1.5291,1.561
26.683000,-0.2575,0.0663,-1.4384,1.463
26.684000,-0.1781,0.0110,-1.3573,1.369
26.688000,-0.1516,-0.0323,-1.3457,1.355
26.696000,-0.1357,-0.0684,-1.3659,1.374
26.698000,-0.0681,-0.0708,-1.3363,1.340
26.703000,0.0580,-0.0655,-1.2859,1.289
26.709000,0.1753,-0.0549,-1.1622,1.177
26.765000,0.2746,0.0665,-1.0130,1.052
26.765000,0.3565,0.1625,-0.8187,0.908
26.766000,0.3657,0.2116,-0.6225,0.752
26.766000,0.3168,0.2187,-0.5177,0.645
26.766000,0.2242,0.1764,-0.3822,0.477
26.766000,0.0687,0.1780,-0.2808,0.339
26.766000,-0.0825,0.1797,-0.1678,0.259
26.767000,-0.2747,0.1456,-0.0674,0.318
26.767000,-0.4627,0.1516,-0.0251,0.488
26.767000,-0.6393,0.1999,-0.0266,0.670
26.768000,-0.7950,0.2234,0.0909,0.831
26.768000,-0.8074,0.2553,0.2315,0.878
26.774000,-0.7412,0.3288,0.4744,0.939
26.777000,-0.6175,0.4129,0.6260,0.971
26.783000,-0.5677,0.4955,0.7008,1.029
26.788000,-0.5585,0.5242,0.6845,1.027
26.797000,-0.5635,0.5325,0.6609,1.019
26.799000,-0.5181,0.5466,0.6156,0.973
26.803000,-0.3984,0.4855,0.6230,0.885
26.808000,-0.2048,0.4548,0.6612,0.828
26.882000,0.0073,0.4404,0.7444,0.865
26.882000,0.2036,0.4594,0.7717,0.921
26.883000,0.3623,0.4716,0.9271,1.101
26.883000,0.4875,0.4794,1.1909,1.373
26.883000,0.5195,0.4587,1.4218,1.582
26.883000,0.4423,0.4117,1.6991,1.803
26.883000,0.3351,0.4030,1.8245,1.898
26.884000,0.2004,0.4111,1.8604,1.916
26.884000,0.0335,0.4024,1.9455,1.987
26.884000,-0.1774,0.3626,1.9795,2.020
26.884000,-0.3434,0.2842,2.0393,2.087
26.885000,-0.4951,0.1934,2.1129,2.179
26.885000,-0.6465,0.1405,2.1315,2.232
26.885000,-0.7234,0.1204,2.1381,2.260
26.885000,-0.7061,0.1284,2.2074,2.321
26.888000,-0.7402,0.1097,2.2821,2.402
26.892000,-0.7085,0.0928,2.3430,2.450
26.897000,-0.6399,-0.0135,2.3326,2.419
26.901000,-0.5491,-0.1016,2.3250,2.391
26.906000,-0.3789,-0.1235,2.3177,2.352
26.912000,-0.1462,-0.1417,2.2626,2.272
26.916000,0.1366,-0.1199,2.1837,2.191
26.921000,0.3808,-0.0432,2.1145,2.149
26.985000,0.5955,-0.0309,2.0355,2.121
26.986000,0.7734,-0.0418,1.8941,2.046
26.986000,0.8908,-0.0543,1.8150,2.023
26.986000,0.9314,-0.0635,1.7647,1.996
26.987000,0.9792,-0.0575,1.6884,1.953
26.987000,0.9959,-0.0335,1.5648,1.855
26.987000,0.9580,0.0013,1.4442,1.733
26.988000,0.9159,-0.0129,1.3339,1.618
26.988000,0.8387,-0.0139,1.2412,1.498
26.988000,0.7817,-0.0089,1.1327,1.376
26.988000,0.7162,0.0089,1.0540,1.274
26.988000,0.6714,0.0036,0.9836,1.191
26.989000,0.6544,0.0467,0.9167,1.127
26.992000,0.6460,0.0423,0.8534,1.071
27.000000,0.6750,0.0549,0.7936,1.043
27.001000,0.6984,0.0532,0.7157,1.001
27.007000,0.7015,0.0226,0.5981,0.922
27.013000,0.6815,0.0133,0.4740,0.830
27.016000,0.6651,0.0011,0.4009,0.777
27.021000,0.7213,-0.0189,0.2471,0.763
27.090000,0.7904,-0.0489,0.0701,0.795
27.091000,0.8263,-0.0747,-0.0587,0.832
27.091000,0.8839,-0.1486,-0.1872,0.916
27.091000,1.0035,-0.2658,-0.2320,1.064
27.092000,1.0840,-0.3329,-0.2964,1.172
27.092000,1.1446,-0.4790,-0.2989,1.276
27.092000,1.2113,-0.5654,-0.2759,1.365
27.093000,1.2981,-0.6039,-0.2371,1.451
27.093000,1.3857,-0.6328,-0.1921,1.535
27.093000,1.4455,-0.6521,-0.1673,1.595
27.093000,1.4869,-0.6737,-0.0312,1.633
27.094000,1.4363,-0.6044,0.0395,1.559
27.094000,1.3969,-0.6094,0.1956,1.537
27.094000,1.3166,-0.6120,0.3610,1.496
27.096000,1.2005,-0.5721,0.4566,1.406
27.101000,1.0128,-0.5829,0.4897,1.267
27.106000,0.8301,-0.5948,0.5466,1.158
27.111000,0.6001,-0.6868,0.5530,1.067
27.115000,0.4230,-0.8115,0.5114,1.048
27.120000,0.2965,-0.9021,0.4407,1.047
27.126000,0.2082,-0.9922,0.3170,1.062
27.130000,0.1772,-1.1030,0.1475,1.127
27.138000,0.2533,-1.1718,-0.0582,1.200
27.140000,0.3956,-1.2032,-0.1782,1.279
27.208000,0.5924,-1.1607,-0.2458,1.326
27.209000,0.8149,-1.1034,-0.2918,1.402
27.209000,1.0994,-1.0358,-0.3352,1.547
27.211000,1.3144,-0.9764,-0.3398,1.672
27.212000,1.5008,-0.8672,-0.2815,1.756
27.213000,1.6615,-0.7656,-0.2080,1.841
27.215000,1.7031,-0.6450,-0.1408,1.827
27.217000,1.6930,-0.5461,-0.0702,1.780
27.217000,1.6356,-0.4955,-0.0324,1.709
27.218000,1.4906,-0.4527,-0.0416,1.558
27.219000,1.3008,-0.3822,-0.0239,1.356
27.220000,1.1306,-0.3348,0.0229,1.179
27.221000,1.0260,-0.2436,0.1014,1.059
27.222000,0.9700,-0.1139,0.1612,0.990
27.222000,0.9673,0.0160,0.2549,1.000
27.223000,0.9723,0.1603,0.3154,1.035
27.225000,0.7722,0.3904,0.4695,0.984
27.230000,0.6790,0.6506,0.6027,1.117
27.235000,0.8725,0.6458,0.6340,1.257
27.239000,0.9143,0.4213,0.7256,1.241
27.248000,0.9498,0.2134,0.8292,1.279
27.249000,1.1026,0.0701,0.8150,1.373
27.254000,1.3648,0.0688,0.5922,1.489
27.324000,1.5587,0.1314,0.2757,1.588
27.324000,1.6310,0.1368,0.0755,1.639
27.325000,1.6486,0.1000,-0.0012,1.652
27.325000,1.5971,0.0908,0.0405,1.600
27.325000,1.5507,0.0206,0.1096,1.555
27.325000,1.5769,0.0280,0.2327,1.594
27.325000,1.5657,0.0076,0.2712,1.589
27.326000,1.4407,0.0697,0.3518,1.485
27.326000,1.2882,0.1447,0.4556,1.374
27.326000,1.2045,0.2257,0.5471,1.342
27.326000,1.2021,0.3101,0.6554,1.404
27.326000,1.1787,0.3689,0.7378,1.439
27.327000,1.0889,0.4260,0.7775,1.404
27.329000,0.8707,0.4884,0.7795,1.267
27.329000,0.5572,0.5655,0.7458,1.089
27.334000,0.1869,0.6020,0.8342,1.046
27.338000,-0.2591,0.5082,1.2789,1.400
27.344000,-0.7016,0.2426,1.7922,1.940
27.349000,-0.9682,-0.1579,2.1109,2.328
27.354000,-1.2583,-0.5821,2.2298,2.626
27.358000,-1.5585,-0.9229,2.1386,2.803
27.368000,-1.5797,-1.0175,2.0074,2.750
27.369000,-1.5756,-0.9977,1.8386,2.619
27.374000,-1.7412,-1.0928,1.3615,2.466
27.422000,-1.5424,-1.0370,1.2518,2.241
27.423000,-0.9254,-0.8588,1.3099,1.819
27.424000,-0.2608,-0.6616,1.1598,1.361
27.425000,0.0803,-0.5663,0.9120,1.077
27.427000,0.2486,-0.5616,0.7651,0.981
27.428000,0.2345,-0.6614,0.5897,0.917
27.428000,0.2363,-0.6966,0.5886,0.942
27.429000,0.3168,-0.7075,0.6164,0.990
27.430000,0.3617,-0.6635,0.4867,0.899
27.430000,0.4050,-0.6168,0.2481,0.778
27.431000,0.4081,-0.5932,0.0749,0.724
27.435000,0.3781,-0.5117,-0.0401,0.638
27.438000,0.2962,-0.4604,-0.1590,0.570
27.448000,0.2199,-0.5304,-0.2604,0.630
27.449000,0.0946,-0.5997,-0.4324,0.745
27.453000,-0.0581,-0.6297,-0.5816,0.859
27.457000,-0.1833,-0.6832,-0.7154,1.006
27.516000,-0.2476,-0.7385,-0.7957,1.114
27.517000,-0.2536,-0.7841,-0.8418,1.178
27.518000,-0.2369,-0.8196,-0.9108,1.248
27.519000,-0.1573,-0.7514,-0.9073,1.188
27.519000,0.0233,-0.6661,-0.8841,1.107
27.522000,0.2540,-0.5609,-0.8247,1.029
27.523000,0.4652,-0.4383,-0.7080,0.954
27.523000,0.6661,-0.2888,-0.5150,0.890
27.524000,0.8467,-0.2175,-0.3083,0.927
27.524000,0.9520,-0.1177,-0.1383,0.969
27.525000,0.9264,0.0032,-0.0172,0.927
27.526000,0.8390,0.0925,0.0665,0.847
27.527000,0.7491,0.1230,0.1484,0.774
27.528000,0.6424,0.1327,0.1783,0.680
27.532000,0.4613,0.0972,0.1729,0.502
27.540000,0.2776,0.0640,0.0175,0.285
27.543000,0.1414,0.0334,-0.1372,0.200
27.548000,0.0668,0.0096,-0.2984,0.306
27.552000,0.0567,-0.0230,-0.4918,0.496
27.557000,0.0823,-0.0408,-0.5860,0.593
27.608000,0.1994,-0.0287,-0.6497,0.680
27.609000,0.3610,-0.0122,-0.7421,0.825
27.611000,0.5839,-0.0127,-0.7770,0.972
27.611000,0.7807,0.0497,-0.7801,1.105
27.613000,0.9540,0.0794,-0.7442,1.213
27.614000,1.1093,0.1321,-0.8123,1.381
27.614000,1.3309,0.1677,-0.7425,1.533
27.616000,1.4392,0.1884,-0.6380,1.586
27.617000,1.3891,0.1946,-0.6446,1.544
27.617000,1.2830,0.1860,-0.6741,1.461
27.618000,1.1564,0.1505,-0.6311,1.326
27.619000,1.0114,0.0904,-0.5756,1.167
27.622000,0.8021,0.0239,-0.5703,0.984
27.626000,0.6189,-0.0346,-0.5913,0.857
27.632000,0.4636,-0.1242,-0.6869,0.838
27.636000,0.3599,-0.1587,-0.7804,0.874
27.641000,0.3101,-0.1835,-0.8456,0.919
27.647000,0.2879,-0.1915,-0.9207,0.983
27.651000,0.3340,-0.2445,-0.9913,1.074
27.657000,0.4745,-0.2418,-1.0025,1.135
27.725000,0.5831,-0.1711,-1.0473,1.211
27.726000,0.7564,-0.1184,-1.0846,1.328
27.726000,0.8576,-0.1119,-1.0069,1.327
27.727000,0.9423,-0.1155,-0.8956,1.305
27.728000,0.9654,-0.0384,-0.8198,1.267
27.728000,0.9464,0.0094,-0.8273,1.257
27.728000,0.9077,0.0808,-0.8026,1.214
27.728000,0.8612,0.0966,-0.7963,1.177
27.729000,0.8591,0.0760,-0.8801,1.232
27.729000,0.7954,0.1339,-0.9349,1.235
27.729000,0.7128,0.1624,-0.8149,1.095
27.729000,0.6935,0.0986,-0.4985,0.860
27.730000,0.6785,0.1194,-0.3393,0.768
27.730000,0.6463,0.2077,-0.4114,0.794
27.730000,0.5411,0.2129,-0.5402,0.794
27.736000,0.3192,0.1782,-0.6161,0.716
27.741000,0.0910,0.1012,-0.7179,0.731
27.746000,-0.0576,0.0417,-0.7907,0.794
27.751000,-0.1432,0.0189,-0.7699,0.783
27.756000,-0.1988,0.0231,-0.6696,0.699
27.762000,-0.3318,-0.0005,-0.7242,0.797
27.769000,-0.3277,-0.0017,-0.6852,0.760
27.770000,-0.2709,0.0267,-0.6080,0.666
27.775000,-0.1348,0.0055,-0.5642,0.580
27.833000,-0.0127,-0.0102,-0.4723,0.473
27.833000,0.0740,0.0439,-0.2368,0.252
27.833000,0.1908,0.1006,-0.0847,0.232
27.835000,0.3375,0.1741,0.0129,0.380
27.836000,0.4488,0.1902,0.0509,0.490
27.837000,0.5340,0.2377,0.0819,0.590
27.837000,0.5234,0.2062,0.0626,0.566
27.838000,0.4147,0.1269,0.0648,0.438
27.840000,0.1985,0.0138,0.0765,0.213
27.840000,-0.0630,-0.0828,-0.0576,0.119
27.841000,-0.2908,-0.1391,-0.2730,0.422
27.842000,-0.3894,-0.2338,-0.4618,0.648
27.844000,-0.3832,-0.2374,-0.5502,0.711
27.846000,-0.3246,-0.2477,-0.5693,0.701
27.850000,-0.1612,-0.2358,-0.5095,0.584
27.855000,-0.0024,-0.2255,-0.4163,0.473
27.862000,0.1066,-0.2168,-0.3540,0.429
27.864000,0.1801,-0.2379,-0.3848,0.487
27.870000,0.2660,-0.2101,-0.3435,0.483
27.874000,0.3192,-0.1645,-0.1275,0.381
27.939000,0.3642,-0.1516,0.0172,0.395
27.940000,0.3460,-0.1499,0.1719,0.414
27.940000,0.3102,-0.1072,0.2649,0.422
27.940000,0.2185,-0.0813,0.2962,0.377
27.941000,0.1041,-0.1057,0.3017,0.336
27.941000,0.0363,-0.0828,0.3077,0.321
27.941000,0.0078,-0.1347,0.3189,0.346
27.942000,0.0065,-0.1707,0.2636,0.314
27.942000,0.0250,-0.2051,0.1249,0.241
27.944000,0.0632,-0.2088,0.0202,0.219
27.944000,0.1137,-0.2105,-0.0818,0.253
27.945000,0.1953,-0.2435,-0.1549,0.348
27.945000,0.1789,-0.2332,-0.1489,0.329
27.946000,0.1361,-0.2587,-0.1526,0.330
27.949000,0.0719,-0.2743,-0.1658,0.328
27.953000,0.0577,-0.2824,-0.1886,0.344
27.960000,-0.0264,-0.2738,-0.1256,0.302
27.964000,-0.1206,-0.4067,0.3580,0.555
27.970000,-0.2170,-0.5124,0.8505,1.016
27.974000,-0.2848,-0.4439,1.0243,1.152
27.980000,-0.2143,-0.3142,0.8415,0.923
27.984000,-0.1423,-0.1011,0.4935,0.523
27.989000,-0.1105,0.0093,1.1471,1.152
28.062000,-0.5792,-0.3361,3.3277,3.394
28.062000,-1.6864,-0.2469,3.1875,3.615
28.063000,-1.9214,0.6795,0.5765,2.118
28.063000,-1.4365,0.8937,-0.8286,1.884
28.064000,-0.5670,0.4189,-0.6501,0.959
28.064000,0.3863,0.0609,-0.2285,0.453
28.064000,0.7775,-0.1064,-0.0114,0.785
28.064000,0.7291,-0.0843,0.2656,0.780
28.064000,0.6527,-0.2469,0.4312,0.820
28.064000,0.8938,-0.5400,0.2756,1.080
28.065000,0.8451,-0.6975,-0.1012,1.100
28.065000,0.8144,-0.5129,-2.6782,2.846
28.065000,-0.0976,-0.7570,-3.7878,3.864
28.066000,0.1077,-0.6557,0.7063,0.970
28.066000,0.2148,-0.6601,1.4603,1.617
28.068000,-0.7741,-0.6682,1.1574,1.544
28.074000,-0.5255,-0.4296,1.5188,1.664
28.079000,-0.1997,-0.1361,1.3544,1.376
28.084000,-0.2032,0.2020,0.6386,0.700
28.088000,0.0451,0.3284,0.1072,0.348
28.096000,0.4084,0.2955,-0.3278,0.601
