SensorId, TimeStamp (s), FrameNumber, AccX (g), AccY (g), AccZ (g), GyroX (deg/s), GyroY (deg/s), GyroZ (deg/s), MagX (uT), MagY (uT), MagZ (uT), EulerX (deg), EulerY (deg), EulerZ (deg), QuatW, QuatX, QuatY, QuatZ, LinAccX (g), LinAccY (g), LinAccZ (g), Pressure (kPa), Altitude (m), Temperature (degC), HeaveMotion (m)
1, 0.0001, 0, -0.01799973, -0.99078190, 0.12770648, -0.13436975, 0.00438458, -0.14113215, -32.44665146, 8.79859638, -69.45337677, 97.47107697, -1.23440337, 106.69309235, 0.38720685, -0.45440286, -0.59876162, -0.53392261, -0.00387590, -0.00070860, 0.00062432, 100.31000519, 84.83507538, 33.43999863, 0.00000000
1, 0.0101, 1, -0.02011424, -0.99049544, 0.12504628, -0.02574399, -0.13598585, -0.05823027, -32.15433884, 7.83396673, -68.69336700, 97.47084808, -1.23365164, 106.69182587, 0.38721770, -0.45440531, -0.59875822, -0.53391671, -0.00173712, -0.00099116, 0.00327874, 100.31000519, 84.83507538, 33.43999863, 0.00000000
1, 0.0201, 2, -0.02030739, -0.98924577, 0.12604362, 0.04737082, -0.29282629, -0.02784717, -32.76819611, 8.71090317, -69.10260010, 97.47138214, -1.23299754, 106.68894958, 0.38723242, -0.45441914, -0.59875154, -0.53390163, -0.00152972, -0.00224367, 0.00227718, 100.31000519, 84.83507538, 33.43999863, 0.00000000
1, 0.0301, 3, -0.02205586, -0.98992038, 0.12676497, -0.02658142, -0.06636820, -0.05656023, -32.50511551, 8.79859638, -68.60566711, 97.47182465, -1.23337173, 106.68949127, 0.38722616, -0.45441952, -0.59875447, -0.53390259, 0.00021779, -0.00156842, 0.00156396, 100.31000519, 84.83507538, 33.43999863, 0.00000000
1, 0.0401, 4, -0.02122682, -0.99012160, 0.12788205, 0.13481158, -0.18593992, -0.09651696, -32.50511551, 8.79859638, -68.60566711, 97.47319794, -1.23216581, 106.68776703, 0.38723513, -0.45442763, -0.59875822, -0.53388494, -0.00060436, -0.00136657, 0.00046932, 100.31000519, 84.83507538, 33.43999863, 0.00000000
1, 0.0501, 5, -0.01836652, -0.99000025, 0.12912032, -0.02286551, -0.37923068, -0.08159085, -33.08974075, 8.65244102, -68.22566223, 97.47304535, -1.23087811, 106.68410492, 0.38725960, -0.45444033, -0.59874749, -0.53386837, -0.00344771, -0.00149053, -0.00076347, 100.31000519, 84.83507538, 33.43999863, 0.00000000
1, 0.0601, 6, -0.02041742, -0.99079812, 0.12977950, 0.10218120, -0.39844593, 0.03904201, -32.62203979, 8.85705948, -68.31335449, 97.47415924, -1.23075676, 106.68011475, 0.38727444, -0.45446447, -0.59873730, -0.53384858, -0.00138737, -0.00069058, -0.00140267, 100.31000519, 84.83507538, 33.43999863, 0.00000000
1, 0.0701, 7, -0.02312504, -0.98841155, 0.12919785, -0.00147252, -0.67536438, -0.07139555, -33.06050873, 8.62320995, -68.22566223, 97.47429657, -1.22918022, 106.67351532, 0.38731301, -0.45449218, -0.59871727, -0.53381950, 0.00134129, -0.00307747, -0.00083065, 100.31000519, 84.83507538, 33.43999863, 0.00000000
1, 0.0801, 8, -0.02439329, -0.98951757, 0.12790446, -0.05655508, -0.18345439, -0.00159880, -32.53434753, 9.03244686, -68.83952332, 97.47312164, -1.23890030, 106.67137909, 0.38727611, -0.45454383, -0.59866935, -0.53385597, 0.00257604, -0.00196822, 0.00046108, 100.31000519, 84.83507538, 33.43999863, 0.00000000
1, 0.0901, 9, -0.02251702, -0.99068785, 0.12933300, 0.11895572, -0.39224982, -0.10068478, -32.53434753, 9.03244686, -68.83952332, 97.47438812, -1.23738027, 106.66761017, 0.38729665, -0.45456076, -0.59866560, -0.53383076, 0.00058708, -0.00079921, -0.00097492, 100.31000519, 84.83507538, 33.43999863, 0.00000000
1, 0.1001, 10, -0.02008145, -0.98903978, 0.12887165, -0.22140373, -0.20214167, -0.16192512, -32.53434753, 6.46009922, -68.78105927, 97.47219849, -1.23552012, 106.66580963, 0.38732362, -0.45455435, -0.59865481, -0.53382891, -0.00181926, -0.00244870, -0.00051696, 100.31000519, 84.83507538, 33.43999863, 0.00000000
1, 0.1101, 11, -0.02106041, -0.98922157, 0.12720075, -0.13181475, -0.22250769, -0.00581620, -31.97895241, 8.44782257, -68.69336700, 97.47094727, -1.23517859, 106.66361237, 0.38734066, -0.45456004, -0.59864140, -0.53382671, -0.00081554, -0.00226774, 0.00112739, 100.31000519, 84.83507538, 33.43999863, 0.00000000
1, 0.1201, 12, -0.02345739, -0.98965740, 0.12659256, -0.12946002, -0.43010956, -0.06337273, -32.68050385, 8.71090317, -68.02104950, 97.46972656, -1.23399138, 106.65943146, 0.38737127, -0.45457235, -0.59862334, -0.53381437, 0.00159716, -0.00183479, 0.00170125, 100.31000519, 84.83507538, 33.43999863, 0.00000000
1, 0.1301, 13, -0.02324872, -0.99004138, 0.12500487, -0.13144857, -0.25689948, -0.02416670, -33.03127670, 8.91552162, -67.90412140, 97.44676971, -1.23280096, 106.62621307, 0.38762337, -0.45466274, -0.59838879, -0.53381735, 0.00140632, -0.00146247, 0.00318216, 100.31000519, 84.83507538, 33.43999863, 0.00000000
1, 0.1401, 14, -0.02135422, -0.99047196, 0.12602279, -0.17088550, 0.04116113, -0.12171683, -31.97895241, 7.71704149, -68.02104950, 97.44505310, -1.23165679, 106.62679291, 0.38763356, -0.45464867, -0.59838706, -0.53382385, -0.00046491, -0.00107553, 0.00185230, 100.31000519, 84.83507538, 33.43999863, 0.00000000
1, 0.1501, 15, -0.02250850, -0.98987949, 0.12737474, -0.13689326, 0.16414283, -0.15427037, -31.97895241, 7.71704149, -68.02104950, 97.44363403, -1.23033500, 106.62860107, 0.38763773, -0.45462841, -0.59839225, -0.53383219, 0.00070601, -0.00167338, 0.00047783, 100.31000519, 84.83507538, 33.43999863, 0.00000000
1, 0.1601, 16, -0.02566227, -0.98816824, 0.12687232, -0.00729390, -0.25328889, -0.13081764, -33.08974075, 4.82315111, -68.22566223, 97.44362640, -1.22870910, 106.62625885, 0.38765728, -0.45463312, -0.59838855, -0.53381807, 0.00389062, -0.00338571, 0.00096511, 100.31000519, 84.83507538, 33.43999863, 0.00000000
1, 0.1701, 17, -0.02496181, -0.99050653, 0.12709706, -0.04578769, -0.00994370, -0.12452739, -33.08974075, 8.88629055, -68.13796997, 97.44316101, -1.22747242, 106.62629700, 0.38766551, -0.45462570, -0.59839088, -0.53381586, 0.00321085, -0.00104907, 0.00073250, 100.31000519, 84.83507538, 33.43999863, 0.00000000
1, 0.1801, 18, -0.02499147, -0.99264574, 0.12757114, 0.02036822, 0.10695506, -0.20993970, -32.91435242, 8.97398376, -68.51797485, 97.44194031, -1.23773897, 106.62622833, 0.38761628, -0.45466885, -0.59834903, -0.53386170, 0.00321776, 0.00108919, 0.00024906, 100.31000519, 84.83507538, 33.43999863, 0.00000000
1, 0.1901, 19, -0.02566591, -0.99202347, 0.12791978, -0.16398519, 0.36003822, -0.25386497, -33.11896896, 8.88629055, -68.75182343, 97.44020844, -1.23567200, 106.63014221, 0.38761592, -0.45463321, -0.59836376, -0.53387600, 0.00376596, 0.00046414, -0.00013692, 100.31000519, 84.83507538, 33.43999863, 0.00000000
1, 0.2001, 20, -0.02234082, -0.99023032, 0.12934148, -0.02288587, 0.44916114, -0.28858906, -33.11896896, 8.88629055, -68.75182343, 97.43986511, -1.23338366, 106.63497162, 0.38760686, -0.45459634, -0.59838933, -0.53388524, 0.00047577, -0.00133387, -0.00156063, 100.31000519, 84.83507538, 33.43999863, 0.00000000
1, 0.2101, 21, -0.02020231, -0.98743463, 0.13273084, -0.05855368, 0.44967857, -0.32317483, -32.76819611, 5.90470600, -68.48874664, 97.43916321, -1.23073983, 106.63985443, 0.38760090, -0.45455632, -0.59841460, -0.53389519, -0.00162904, -0.00413766, -0.00495313, 100.31000519, 84.83507538, 33.43999863, 0.00000000
1, 0.2201, 22, -0.01932503, -0.98887682, 0.12875089, -0.07596816, 0.43086466, -0.27082333, -33.08974075, 8.82782841, -68.43028259, 97.43830872, -1.22861338, 106.64446259, 0.38759410, -0.45451966, -0.59843630, -0.53390700, -0.00245353, -0.00269124, -0.00098349, 100.31000519, 84.83507538, 33.43999863, 0.00000000
1, 0.2301, 23, -0.02151758, -0.98919082, 0.12699024, -0.12889361, 0.39558083, -0.27099058, -32.73896408, 7.95089149, -68.81028748, 97.43576813, -1.22759533, 106.64725494, 0.38759655, -0.45449185, -0.59843916, -0.53392577, -0.00022784, -0.00237874, 0.00074157, 100.31000519, 84.83507538, 33.43999863, 0.00000000
1, 0.2401, 24, -0.02264664, -0.98869181, 0.12721647, -0.09568559, 0.60349929, -0.21387920, -33.26512527, 8.27243519, -68.43028259, 97.43466187, -1.22623932, 106.65350342, 0.38757896, -0.45444924, -0.59846354, -0.53394747, 0.00091611, -0.00288204, 0.00048685, 100.31000519, 84.83507538, 33.43999863, 0.00000000
1, 0.2501, 25, -0.02496346, -0.98954141, 0.12371437, -0.04050971, 0.44775167, -0.23582000, -33.26512527, 8.27243519, -68.43028259, 97.43415070, -1.22446990, 106.65824127, 0.38756830, -0.45441467, -0.59848613, -0.53395933, 0.00326934, -0.00203060, 0.00395565, 100.31000519, 84.83507538, 33.43999863, 0.00000000
1, 0.2601, 26, -0.01960242, -0.99150610, 0.12189616, -0.15060030, 0.72568923, -0.24531990, -33.08974075, 8.53551579, -68.86875153, 97.43247986, -1.22297192, 106.66574860, 0.38754791, -0.45436296, -0.59851336, -0.53398770, -0.00206135, -0.00006443, 0.00577679, 100.31000519, 84.83507538, 33.43999863, 0.00000000
1, 0.2701, 27, -0.01897196, -0.98730373, 0.13042101, 0.03956639, -0.28385153, -0.20169911, -32.79742813, 8.68167210, -68.89797974, 97.43292236, -1.22060299, 106.66318512, 0.38757065, -0.45436698, -0.59851348, -0.53396755, -0.00266962, -0.00428395, -0.00275597, 100.31000519, 84.83507538, 33.43999863, 0.00000000
1, 0.3001, 28, -0.01929300, -0.99090457, 0.12965219, -0.19295228, 0.39577398, -0.11955466, -32.41742325, 7.27857351, -68.48874664, 97.43318176, -1.23648691, 106.67301941, 0.38743964, -0.45438921, -0.59849817, -0.53406078, -0.00261764, -0.00067329, -0.00197330, 100.31000519, 84.83507538, 33.43999863, 0.00000000
1, 0.3101, 29, -0.01745048, -0.98845983, 0.13358228, -0.12323900, 0.53355742, -0.02952749, -33.35282135, 7.89242887, -68.72259521, 97.43184662, -1.23689175, 106.67833710, 0.38741797, -0.45435876, -0.59851164, -0.53408730, -0.00446933, -0.00312734, -0.00591659, 100.31000519, 84.83507538, 33.43999863, 0.00000000
1, 0.3201, 30, -0.02244866, -0.99129307, 0.12926006, -0.12507069, 0.68978024, -0.00825446, -33.26512527, 8.47705364, -68.83952332, 97.43044281, -1.23769104, 106.68518829, 0.38738742, -0.45432186, -0.59852946, -0.53412098, 0.00053512, -0.00029108, -0.00164430, 100.31000519, 84.83507538, 33.43999863, 0.00000000
1, 0.3301, 31, -0.02002746, -0.99177980, 0.12663035, -0.37673110, 0.92955714, 0.07076866, -33.32358932, 8.12627888, -68.63490295, 97.42562103, -1.23174715, 106.69294739, 0.38740188, -0.45423788, -0.59855855, -0.53414941, -0.00188097, 0.00019310, 0.00093892, 100.31000519, 84.83507538, 33.43999863, 0.00000000
1, 0.3401, 32, -0.01630744, -0.99027038, 0.12740730, -0.16340621, 0.94761044, 0.12106166, -32.91435242, 8.94475269, -69.07337189, 97.42378235, -1.23417258, 106.70219421, 0.38735318, -0.45419449, -0.59857816, -0.53419960, -0.00553541, -0.00132580, 0.00012254, 100.31000519, 84.83507538, 33.43999863, 0.00000000
1, 0.3501, 33, -0.02141912, -0.99052310, 0.13051721, -0.32333583, 0.89814258, -0.05334246, -32.91435242, 8.94475269, -69.07337189, 97.42034912, -1.23479068, 106.71116638, 0.38732171, -0.45413882, -0.59859556, -0.53425032, -0.00045395, -0.00108535, -0.00306064, 100.31000519, 84.83507538, 33.43999863, 0.00000000
1, 0.3601, 34, -0.02321992, -0.99009216, 0.12460891, -0.23898010, 1.32862306, 0.18368357, -32.97281647, 8.74013424, -68.83952332, 97.41769409, -1.23832464, 106.72411346, 0.38725311, -0.45407838, -0.59862214, -0.53432155, 0.00131863, -0.00151088, 0.00280505, 100.31000519, 84.83507538, 33.43999863, 0.00000000
1, 0.3701, 35, -0.01816932, -0.99004984, 0.12629399, -0.12643118, 0.81077707, 0.02969908, -33.11896896, 7.71704149, -68.66413116, 97.41625977, -1.23965013, 106.73210144, 0.38721448, -0.45403785, -0.59864247, -0.53436112, -0.00377206, -0.00156136, 0.00108418, 100.31000519, 84.83507538, 33.43999863, 0.00000000
1, 0.5201, 36, -0.01942912, -0.99124789, 0.12627442, -0.15586303, 0.46267790, 0.74034643, -33.11896896, 8.21397209, -68.51797485, 97.38449860, -1.31386328, 106.82884979, 0.38649547, -0.45376503, -0.59861815, -0.53513998, -0.00376812, -0.00040393, 0.00056816, 100.31000519, 84.83507538, 33.43999863, 0.00000000
1, 0.5301, 37, -0.02392289, -0.99039698, 0.12311690, -0.16636944, -0.14621797, 0.70844078, -33.76205826, 8.94475269, -68.72259521, 97.37115479, -1.32948804, 106.81369781, 0.38653624, -0.45387077, -0.59844124, -0.53521878, 0.00057155, -0.00125855, 0.00361864, 100.31000519, 84.83507538, 33.43999863, 0.00000000
1, 0.5401, 38, -0.02913888, -0.99022293, 0.12489920, -0.24351385, 0.35745960, 0.73895425, -33.38205338, 8.33089733, -69.48260498, 97.36867523, -1.33727825, 106.81630707, 0.38649255, -0.45388445, -0.59841281, -0.53527057, 0.00553499, -0.00145292, 0.00164447, 100.31000519, 84.83507538, 33.43999863, 0.00000000
1, 0.5501, 39, -0.02626749, -0.99011850, 0.12805061, 0.14600119, 0.48444238, 0.66691810, -33.73282623, 8.36012840, -69.45337677, 97.37006378, -1.34451997, 106.82027435, 0.38643017, -0.45390165, -0.59840971, -0.53530461, 0.00252936, -0.00155997, -0.00150225, 100.31000519, 84.83507538, 33.43999863, 0.00000000
1, 0.5601, 40, -0.02245796, -0.98954964, 0.12634842, 0.00635626, -0.14154878, 0.27805862, -33.73282623, 8.36012840, -69.45337677, 97.37017059, -1.34709573, 106.81851959, 0.38642424, -0.45392293, -0.59839427, -0.53530806, -0.00135584, -0.00212364, 0.00021393, 100.31000519, 84.83507538, 33.43999863, 0.00000000
1, 0.5701, 41, -0.02165650, -0.98946524, 0.12327976, 0.28030032, -0.73175788, 0.29555565, -33.76205826, 8.38935947, -69.16106415, 97.37316132, -1.34908557, 106.81089020, 0.38643748, -0.45398197, -0.59837103, -0.53527433, -0.00218538, -0.00219706, 0.00332471, 100.31000519, 84.83507538, 33.43999863, 0.00000000
1, 0.5801, 42, -0.02860404, -0.98950803, 0.12448636, 0.15954576, -1.06146514, 0.20160368, -32.76819611, 7.42472935, -68.45951080, 97.37410736, -1.35964656, 106.79944611, 0.38643122, -0.45409325, -0.59829313, -0.53527153, 0.00469564, -0.00215105, 0.00212826, 100.31000519, 84.83507538, 33.43999863, 0.00000000
1, 0.5901, 43, -0.03189244, -0.98867369, 0.12496933, 0.30069831, -0.95702279, 0.25487456, -33.38205338, 8.36012840, -68.54721069, 97.37734985, -1.36094975, 106.78961945, 0.38645732, -0.45416147, -0.59826481, -0.53522646, 0.00783722, -0.00297715, 0.00168280, 100.31000519, 84.83507538, 33.43999863, 0.00000000
1, 0.7401, 44, -0.02720726, -0.98883200, 0.12601380, -0.21878794, -0.75807220, -0.24202715, -33.08974075, 7.86319780, -68.25489807, 97.35393524, -1.38296270, 106.70281219, 0.38683894, -0.45463625, -0.59773421, -0.53514063, 0.00273399, -0.00286001, 0.00026575, 100.31000519, 84.83507538, 33.43999863, 0.00000000
1, 0.7501, 45, -0.02785422, -0.99053478, 0.12576962, -0.25895649, -0.37549168, -0.23239687, -33.49897766, 8.68167210, -68.81028748, 97.35143280, -1.38018715, 106.69937134, 0.38687962, -0.45463300, -0.59771860, -0.53513139, 0.00342685, -0.00116139, 0.00047917, 100.31000519, 84.83507538, 33.43999863, 0.00000000
1, 0.7601, 46, -0.02624100, -0.98790860, 0.12718309, -0.03819985, -0.98316324, -0.23216504, -33.29435730, 8.50628471, -68.69336700, 97.35128021, -1.37665343, 106.68990326, 0.38694316, -0.45466566, -0.59769267, -0.53508657, 0.00187836, -0.00379551, -0.00095670, 100.31000519, 84.83507538, 33.43999863, 0.00000000
1, 0.7701, 47, -0.02060657, -0.98999572, 0.13043384, -0.23609877, -0.80919260, -0.29560351, -33.29435730, 8.50628471, -68.69336700, 97.34909058, -1.37271273, 106.68226624, 0.38700843, -0.45468014, -0.59766597, -0.53505701, -0.00370829, -0.00171715, -0.00421350, 100.31000519, 84.83507538, 33.43999863, 0.00000000
1, 0.7801, 48, -0.02872952, -0.99134171, 0.12484533, -0.00242700, -0.98451453, -0.16254826, -33.67436218, 8.47705364, -68.37181854, 97.34107971, -1.38440430, 106.66519928, 0.38705790, -0.45479557, -0.59751993, -0.53508621, 0.00442896, -0.00036791, 0.00130680, 100.31000519, 84.83507538, 33.43999863, 0.00000000
1, 0.7901, 49, -0.02971010, -0.99073100, 0.11939349, -0.39398453, -0.96934265, -0.20978048, -33.14820099, 8.03858471, -68.75182343, 97.33735657, -1.38110602, 106.65586090, 0.38713378, -0.45481658, -0.59747702, -0.53506136, 0.00528442, -0.00098586, 0.00660608, 100.31000519, 84.83507538, 33.43999863, 0.00000000
1, 0.8001, 50, -0.02278416, -0.98937416, 0.12279930, -0.09368940, -0.79344070, -0.17435828, -32.94358444, 8.44782257, -68.81028748, 97.33660889, -1.37837493, 106.64819336, 0.38718703, -0.45484155, -0.59745264, -0.53502882, -0.00159921, -0.00235325, 0.00319087, 100.31000519, 84.83507538, 33.43999863, 0.00000000
1, 0.8101, 51, -0.02406265, -0.98770857, 0.12617756, -0.30554950, -0.94906127, -0.29805326, -33.03127670, 8.56474686, -68.81028748, 97.33375549, -1.37422144, 106.63915253, 0.38726252, -0.45486000, -0.59741795, -0.53499711, -0.00026639, -0.00403131, -0.00023063, 100.31000519, 84.83507538, 33.43999863, 0.00000000
1, 0.8201, 52, -0.02768625, -0.98987103, 0.12481026, -0.02401847, -0.64892477, -0.06993120, -33.03127670, 8.56474686, -68.81028748, 97.33366394, -1.37271285, 106.63280487, 0.38730052, -0.45488587, -0.59739763, -0.53497034, 0.00340710, -0.00186887, 0.00111549, 100.31000519, 84.83507538, 33.43999863, 0.00000000
1, 1.0601, 53, 0.00003086, -0.99119103, 0.10898984, 0.15832978, 0.95318055, -4.38053703, -31.89126015, 7.54165459, -68.60566711, 97.51173401, -1.04374838, 105.84706116, 0.39198005, -0.45808232, -0.59625012, -0.53009266, -0.01880053, -0.00023893, 0.02008173, 100.31000519, 84.83507538, 33.43999863, 0.00000000
1, 1.0701, 54, -0.03012428, -0.99127901, 0.12539788, -0.06194105, 0.06182880, -4.32887363, -33.26512527, 8.76936531, -68.63490295, 97.51091003, -1.00090623, 105.85327148, 0.39218020, -0.45785201, -0.59642166, -0.52995044, 0.01205963, -0.00019080, 0.00360391, 100.31000519, 84.83507538, 33.43999863, 0.00000000
1, 1.0801, 55, -0.05461822, -0.97946107, 0.12364729, 0.02831243, 1.42115736, -4.33267498, -33.26512527, 8.76936531, -68.63490295, 97.50780487, -0.97549403, 105.87061310, 0.39224622, -0.45763531, -0.59656584, -0.52992648, 0.03722034, -0.01202018, 0.00529311, 100.31000519, 84.83507538, 33.43999863, 0.00000000
1, 1.0901, 56, -0.04160767, -0.97234666, 0.11560529, -0.02647615, 4.42248249, -4.59343576, -32.76819611, 8.65244102, -68.98567963, 97.50660706, -0.93566674, 105.92040253, 0.39223048, -0.45719039, -0.59689885, -0.52994722, 0.02472832, -0.01913640, 0.01332853, 100.31000519, 84.83507538, 33.43999863, 0.00000000
1, 1.1001, 57, -0.00525599, -0.98041177, 0.12307086, -0.14127620, 5.11562347, -4.48782206, -32.73896408, 8.33089733, -68.51797485, 97.50418091, -0.89776796, 105.97692108, 0.39217833, -0.45671475, -0.59724593, -0.53000498, -0.01096587, -0.01109849, 0.00591134, 100.31000519, 84.83507538, 33.43999863, 0.00000000
1, 1.1101, 58, 0.02521518, -0.99299908, 0.13268350, -0.42684492, 2.35161567, -4.07686377, -32.85588837, 8.15550995, -68.25489807, 97.49937439, -0.86038375, 106.00550842, 0.39226210, -0.45637858, -0.59746850, -0.52998155, -0.04080831, 0.00145374, -0.00371384, 100.31000519, 84.83507538, 33.43999863, 0.00000000
1, 1.1201, 59, 0.01383731, -0.99135971, 0.14383966, -0.51947224, -1.63287115, -3.53971696, -33.17743301, 7.98012257, -68.63490295, 97.49425507, -0.82318926, 105.99386597, 0.39253217, -0.45625198, -0.59752876, -0.52982277, -0.02880800, -0.00022537, -0.01498546, 100.31000519, 84.83507538, 33.43999863, 0.00000000
1, 1.1301, 60, -0.02268878, -0.99300385, 0.14180143, -0.51071340, -3.74855566, -3.18715668, -33.17743301, 7.98012257, -68.63490295, 97.49401855, -0.79521167, 105.96437836, 0.39281666, -0.45627713, -0.59750819, -0.52961338, 0.00832730, 0.00140563, -0.01309945, 100.31000519, 84.83507538, 33.43999863, 0.00000000
1, 1.4401, 61, 0.23597871, -1.02727461, 0.22170009, -27.97400093, -17.83352089, 43.69149399, -33.29435730, 5.40777540, -69.92107391, 94.25360107, -3.04766083, 104.25627136, 0.40215099, -0.46402520, -0.56719798, -0.54885495, -0.28680620, 0.03106269, -0.14693592, 100.31000519, 84.83507538, 33.43999863, 0.00000000
1, 1.4501, 62, 0.24355079, -1.03612983, 0.24014886, -30.74544716, -17.73568535, 51.73852921, -33.52820587, 6.72318029, -70.94416809, 93.95968628, -3.55210471, 104.04276276, 0.40177539, -0.46635494, -0.56300426, -0.55146700, -0.30270842, 0.03997490, -0.17035344, 100.31000519, 84.83507538, 33.43999863, 0.00000000
1, 1.4601, 63, 0.25543514, -1.04542816, 0.25748116, -33.61400223, -14.11096001, 59.38013077, -33.87898254, 6.31394339, -70.59339142, 93.63703156, -4.13637161, 103.86312866, 0.40095586, -0.46876979, -0.55847096, -0.55461657, -0.32428622, 0.04948680, -0.19312866, 100.31000519, 84.83507538, 33.43999863, 0.00000000
1, 1.4701, 64, 0.26099086, -1.05123770, 0.28094766, -36.45724487, -9.53868294, 67.46463013, -34.22975540, 6.63548660, -71.41186523, 93.28461456, -4.80512428, 103.72783661, 0.39962071, -0.47123829, -0.55360770, -0.55835140, -0.34097567, 0.05570538, -0.22256257, 100.31000519, 84.83507538, 33.43999863, 0.00000000
1, 1.4801, 65, 0.29106104, -1.07005847, 0.28560889, -40.02469254, -0.79338831, 76.30627441, -34.87284470, 6.48933077, -71.58725739, 92.89528656, -5.55915833, 103.68282318, 0.39756691, -0.47352272, -0.54855502, -0.56285375, -0.38365629, 0.07523124, -0.23378640, 100.31000519, 84.83507538, 33.43999863, 0.00000000
1, 1.4901, 66, 0.35935208, -1.11279011, 0.30640611, -43.31579208, 4.63564301, 87.01075745, -34.87284470, 6.48933077, -71.58725739, 92.46348572, -6.43151140, 103.68991852, 0.39482623, -0.47594503, -0.54298449, -0.56811655, -0.46626699, 0.11899425, -0.26173210, 100.31000519, 84.83507538, 33.43999863, 0.00000000
1, 1.5001, 67, 0.41040972, -1.15921533, 0.33766574, -47.45687485, 12.76747513, 98.00077820, -35.19438553, 6.54779291, -71.82110596, 91.98008728, -7.41667271, 103.78173065, 0.39129442, -0.47830281, -0.53698945, -0.57424510, -0.53378004, 0.16692060, -0.30100048, 100.31000519, 84.83507538, 33.43999863, 0.00000000
1, 1.5101, 68, 0.38878268, -1.17065275, 0.29441118, -50.89320755, 22.64145660, 107.76149750, -36.48056030, 5.81701231, -72.43495941, 91.44639587, -8.50149155, 103.97953033, 0.38691175, -0.48045731, -0.53070021, -0.58122063, -0.53018814, 0.18053949, -0.26688582, 100.31000519, 84.83507538, 33.43999863, 0.00000000
1, 1.5201, 69, 0.24877144, -1.19469249, 0.31295475, -49.66126251, 22.84889984, 117.03958130, -36.07132339, 6.13855600, -73.22420502, 90.91977692, -9.67725468, 104.18843079, 0.38194853, -0.48301524, -0.52403051, -0.58839071, -0.40996328, 0.20733427, -0.29509473, 100.31000519, 84.83507538, 33.43999863, 0.00000000
1, 1.5301, 70, 0.03388680, -1.34407747, 0.38466358, -46.17944717, 16.84737587, 121.65435791, -38.32212830, 6.54779291, -72.87342834, 90.43569946, -10.89521122, 104.34859467, 0.37681317, -0.48614329, -0.51710546, -0.59521300, -0.21600771, 0.36006868, -0.37624958, 100.31000519, 84.83507538, 33.43999863, 0.00000000
1, 1.5401, 71, -0.20974275, -1.59633362, 0.44887185, -46.07431793, 15.52292919, 121.72660828, -38.32212830, 6.54779291, -72.87342834, 89.94666290, -12.11381817, 104.50482941, 0.37169477, -0.48928624, -0.51004279, -0.60191226, 0.00655498, 0.61624730, -0.44971642, 100.31000519, 84.83507538, 33.43999863, 0.00000000
1, 1.5501, 72, -0.31597051, -1.88870263, 0.43067577, -53.01937103, 32.44640732, 121.62251282, -39.16983414, 7.16164875, -73.22420502, 89.34367371, -13.32862854, 104.84699249, 0.36607754, -0.49124262, -0.50309777, -0.60955781, 0.09211121, 0.91317356, -0.44159895, 100.31000519, 84.83507538, 33.43999863, 0.00000000
1, 1.5601, 73, -0.25226352, -1.69837236, 0.46691614, -64.24554443, 63.68328857, 121.54603577, -40.63139343, 6.37240553, -73.92575073, 88.53989410, -14.53249264, 105.52814484, 0.35951614, -0.49109596, -0.49647927, -0.61893553, 0.00776735, 0.72788239, -0.48983359, 100.31000519, 84.83507538, 33.43999863, 0.00000000
1, 1.5701, 74, -0.12557039, -1.63746464, 0.53707665, -63.77957535, 71.55892944, 118.64323425, -41.94680023, 6.22624969, -74.13037109, 87.70063019, -15.69509411, 106.31120300, 0.35268772, -0.49032679, -0.49017036, -0.62842989, -0.13901873, 0.67245334, -0.57336974, 100.31000519, 84.83507538, 33.43999863, 0.00000000
1, 1.5801, 75, -0.07954739, -1.57054901, 0.44403270, -68.33357239, 87.46125031, 116.94205475, -43.14527893, 6.13855600, -75.18269348, 86.75054169, -16.81922722, 107.28294373, 0.34539592, -0.48837593, -0.48410690, -0.63861668, -0.20390154, 0.61174691, -0.49509519, 100.31000519, 84.83507538, 33.43999863, 0.00000000
1, 1.5901, 76, -0.10253279, -1.41693485, 0.37076211, -67.52627563, 97.23252869, 117.19973755, -43.14527893, 6.13855600, -75.18269348, 85.74995422, -17.92501831, 108.38193512, 0.33757776, -0.48581910, -0.47825056, -0.64907444, -0.19929013, 0.46487480, -0.43778193, 100.31000519, 84.83507538, 33.43999863, 0.00000000
1, 1.6001, 77, -0.13141547, -1.29669702, 0.33086795, -61.06616592, 89.59761047, 117.61904144, -44.69453430, 6.16778708, -76.11809540, 84.81108856, -19.02342987, 109.42758179, 0.32970986, -0.48380467, -0.47242203, -0.65881860, -0.18854865, 0.35185555, -0.41336498, 100.31000519, 84.83507538, 33.43999863, 0.00000000
1, 1.6101, 78, -0.24379958, -1.20514739, 0.22194667, -48.88605118, 73.84283447, 118.80602264, -46.09763336, 6.69394922, -76.99503326, 84.02201843, -20.13375282, 110.33252716, 0.32185027, -0.48300651, -0.46670491, -0.66731083, -0.09412784, 0.26807171, -0.31787109, 100.31000519, 84.83507538, 33.43999863, 0.00000000
1, 1.6201, 79, -0.28646725, -1.11880672, 0.15694596, -36.79913712, 62.60688019, 118.89260101, -47.06226349, 7.01549244, -77.87196350, 83.37212372, -21.24640083, 111.13948059, 0.31388283, -0.48312968, -0.46130010, -0.67473370, -0.06951487, 0.18974473, -0.26363117, 100.31000519, 84.83507538, 33.43999863, 0.00000000
1, 1.6301, 80, -0.14823550, -0.95282018, 0.18343775, -23.11786461, 37.15741348, 112.32823181, -48.37766647, 7.33703566, -77.63811493, 82.95011139, -22.31095314, 111.68436432, 0.30670205, -0.48478681, -0.45629913, -0.68022555, -0.22554734, 0.03157725, -0.29703036, 100.31000519, 84.83507538, 33.43999863, 0.00000000
1, 1.6401, 81, 0.06103839, -0.80150735, 0.16038251, -9.36913586, 18.91421127, 97.18924713, -49.51768494, 7.33703566, -77.87196350, 82.72849274, -23.25137901, 112.02114868, 0.30054769, -0.48726097, -0.45214027, -0.68397152, -0.45074195, -0.11258911, -0.27701372, 100.31000519, 84.83507538, 33.43999863, 0.00000000
1, 1.8901, 82, -0.19291130, -1.47063184, 0.22496529, 109.81605530, -78.07874298, -225.01879883, -30.25431061, 11.48786926, -62.73019409, 109.12261963, 6.52708721, 108.76540375, 0.37483323, -0.44687355, -0.68046868, -0.44358376, 0.29052231, 0.52782357, 0.09153591, 100.31000519, 84.83507538, 33.43999863, 0.00000000
1, 1.9001, 83, -0.24704172, -1.46625435, 0.24958973, 99.06441498, -76.22409058, -220.49125671, -30.25431061, 11.48786926, -62.73019409, 110.11083221, 8.86210728, 108.78507996, 0.38398367, -0.43985158, -0.69021493, -0.42742330, 0.38545656, 0.53386581, 0.08195956, 100.31000519, 84.83507538, 33.43999863, 0.00000000
1, 1.9101, 84, -0.23632172, -1.49944639, 0.22001226, 87.97664642, -60.86664963, -214.11280823, -28.44197655, 13.53405380, -61.61940765, 111.01740265, 11.08270359, 108.96731567, 0.39221722, -0.43206757, -0.69949895, -0.41253430, 0.41388965, 0.57855594, 0.12445862, 100.31000519, 84.83507538, 33.43999863, 0.00000000
1, 1.9201, 85, -0.18188794, -1.56216407, 0.17667592, 75.62627411, -43.04830933, -203.29565430, -26.57117844, 14.44022179, -61.03478622, 111.84194183, 13.13448429, 109.31454468, 0.39927900, -0.42370513, -0.70825911, -0.39927360, 0.39584377, 0.65339243, 0.17889737, 100.31000519, 84.83507538, 33.43999863, 0.00000000
1, 1.9301, 86, -0.12379263, -1.53962433, 0.15904094, 61.20976257, -26.22731400, -184.99232483, -25.31423569, 15.46331501, -60.83016586, 112.56043243, 14.94538116, 109.78018951, 0.40506226, -0.41526195, -0.71616828, -0.38805312, 0.37018275, 0.64281273, 0.20583373, 100.31000519, 84.83507538, 33.43999863, 0.00000000
1, 1.9401, 87, -0.08982222, -1.39862835, 0.14361863, 49.23054123, -17.49942207, -156.53747559, -24.37883568, 15.46331501, -61.09324646, 113.17391205, 16.45762444, 110.24242401, 0.40966472, -0.40775782, -0.72279572, -0.37878084, 0.36366910, 0.51287425, 0.22884586, 100.31000519, 84.83507538, 33.43999863, 0.00000000
1, 1.9501, 88, -0.17090248, -1.22972107, 0.11761703, 37.55451584, -38.31670761, -115.24303436, -23.35574341, 15.46331501, -61.26863480, 113.57787323, 17.66868401, 110.35108948, 0.41455561, -0.40306419, -0.72670645, -0.37091884, 0.46688378, 0.35326278, 0.25986922, 100.31000519, 84.83507538, 33.43999863, 0.00000000
1, 1.9601, 89, -0.32073191, -1.12950420, 0.01327349, 32.30994797, -59.00225067, -75.69230652, -23.35574341, 16.45717621, -61.26863480, 113.82091522, 18.59941483, 110.10136414, 0.41961145, -0.40132344, -0.72823894, -0.36405203, 0.63425881, 0.26027140, 0.36634916, 100.31000519, 84.83507538, 33.43999863, 0.00000000
1, 1.9701, 90, -0.46336135, -1.11609900, -0.06893964, 29.38217354, -64.36373138, -38.13678741, -22.24495697, 17.10026360, -60.50862122, 113.96457672, 19.20880127, 109.64173889, 0.42388213, -0.40201050, -0.72812533, -0.35853168, 0.78919232, 0.25191501, 0.44926929, 100.31000519, 84.83507538, 33.43999863, 0.00000000
1, 2.1201, 91, -0.38631982, -1.57854056, -0.17776237, -51.38041687, 15.24772453, 72.17124176, -24.93422890, 14.17714119, -63.43174362, 107.77477264, 8.97035694, 99.70030975, 0.42714736, -0.48407489, -0.64532351, -0.40838006, 0.54739934, 0.64018863, 0.47937787, 100.31000519, 84.83507538, 33.43999863, 0.00000000
1, 2.1301, 92, 0.17480031, -1.02056038, -0.47019842, -95.56987762, 40.00957489, 59.30309296, -25.40192986, 11.07863140, -63.81174850, 106.83687592, 8.28759384, 99.89765930, 0.42690188, -0.48239836, -0.64078319, -0.41766438, -0.02519176, 0.07668249, 0.76148760, 100.31000519, 84.83507538, 33.43999863, 0.00000000
1, 2.1401, 93, 0.39136961, -0.87661135, -0.14583382, -59.27695465, -38.79228210, 86.75717926, -25.57731628, 13.56328583, -64.42560577, 106.16129303, 7.56212234, 99.27489471, 0.42834523, -0.48645228, -0.63350189, -0.42256352, -0.25454545, -0.07361078, 0.42462078, 100.31000519, 84.83507538, 33.43999863, 0.00000000
1, 2.1501, 94, 0.19291487, -1.11913264, 0.24811818, -7.48960209, -107.92552948, 119.69507599, -25.89885902, 13.35866737, -64.68869019, 105.91842651, 6.70693398, 97.89797211, 0.43013793, -0.49673647, -0.62405801, -0.42283094, -0.07098801, 0.16465962, 0.02388348, 100.31000519, 84.83507538, 33.43999863, 0.00000000
1, 2.1601, 95, -0.25317767, -0.85276568, 0.31372696, 5.63757467, -78.03563690, 122.81675720, -25.89885902, 13.35866737, -64.68869019, 105.85855103, 5.73761749, 96.80641174, 0.42955250, -0.50648230, -0.61597288, -0.42371902, 0.35875571, -0.10414636, -0.04377875, 100.31000519, 84.83507538, 33.43999863, 0.00000000
1, 2.1701, 96, -0.52980661, -0.79796743, 0.27961069, -2.40101886, -16.59058762, 108.18955231, -26.48348427, 13.12481689, -64.54253387, 105.79475403, 4.74126387, 96.35128784, 0.42651293, -0.51280051, -0.61046356, -0.42714953, 0.61836219, -0.16074994, -0.01066287, 100.31000519, 84.83507538, 33.43999863, 0.00000000
1, 2.1801, 97, -0.73689955, -1.03537691, 0.27164376, -13.43842602, -6.34051228, 97.23498535, -26.89272118, 13.12481689, -64.51329803, 105.64012146, 3.80905223, 96.02694702, 0.42372239, -0.51776201, -0.60532761, -0.43123114, 0.80855972, 0.07478176, -0.00524323, 100.31000519, 84.83507538, 33.46999741, 0.00000000
1, 2.1901, 98, -0.84597200, -1.11280572, 0.56478542, -11.27000523, -21.64373398, 87.55378723, -27.44811440, 10.46477604, -64.51329803, 105.50292969, 3.02279377, 95.58384705, 0.42204845, -0.52277333, -0.60013801, -0.43407094, 0.90240133, 0.15011403, -0.30103704, 100.31000519, 84.83507538, 33.46999741, 0.00000000
1, 2.3501, 99, -0.20349206, -0.99075544, 0.21038677, -20.50693893, 8.24121284, 28.00630569, -34.84361267, 11.07863140, -67.26103210, 102.17997742, -5.54915810, 99.36967468, 0.37717789, -0.52603877, -0.57295746, -0.50273246, 0.10813855, 0.01761297, -0.00115699, 100.31000519, 84.83507538, 33.46999741, 0.00000000
1, 2.3601, 100, -0.25503525, -1.00054610, 0.26706940, -22.07814598, 16.98184204, 25.34283638, -35.19438553, 11.07863140, -66.70564270, 101.94846344, -5.83278942, 99.48369598, 0.37622279, -0.52583253, -0.57138419, -0.50544715, 0.15458955, 0.02698064, -0.06181750, 100.31000519, 84.83507538, 33.46999741, 0.00000000
1, 2.3701, 101, -0.23509525, -0.96620142, 0.30744213, -23.06451797, 27.47444534, 23.18688774, -35.19438553, 11.07863140, -66.70564270, 101.69516754, -6.11620760, 99.70664215, 0.37488109, -0.52501673, -0.57020402, -0.50861496, 0.12962541, -0.00782336, -0.10639989, 100.31000519, 84.83507538, 33.46999741, 0.00000000
1, 2.3801, 102, -0.17634195, -0.95299137, 0.28761563, -22.93826294, 31.58482742, 22.49458122, -35.51593018, 10.55247021, -66.55948639, 101.44229126, -6.40215588, 99.97489166, 0.37331146, -0.52399498, -0.56921077, -0.51192486, 0.06599293, -0.02137486, -0.09084545, 100.31000519, 84.83507538, 33.46999741, 0.00000000
1, 2.3901, 103, -0.08974302, -0.96424496, 0.26864037, -23.29788208, 33.37614059, 22.47175026, -35.95439911, 10.64016342, -67.49488068, 101.17733002, -6.68807936, 100.26031494, 0.37170738, -0.52285719, -0.56822848, -0.51533526, -0.02553229, -0.01042521, -0.07617146, 100.31000519, 84.83507538, 33.46999741, 0.00000000
1, 2.4001, 104, -0.02357316, -0.95987153, 0.21854505, -23.19196510, 27.79609299, 23.52917671, -35.89593506, 10.64016342, -67.93334961, 100.91870880, -6.97249508, 100.49002075, 0.37032104, -0.52201891, -0.56701291, -0.51851231, -0.09652537, -0.01502598, -0.03049271, 100.31000519, 84.83507538, 33.46999741, 0.00000000
1, 2.4101, 105, -0.05198990, -0.95563400, 0.15545551, -21.99046516, 14.20667458, 25.62609482, -36.50979233, 10.81555080, -68.07950592, 100.68804932, -7.25127792, 100.58261871, 0.36945140, -0.52193284, -0.56530970, -0.52107280, -0.07282346, -0.01936741, 0.02828856, 100.31000519, 84.83507538, 33.46999741, 0.00000000
1, 2.4201, 106, -0.08257396, -0.96471214, 0.13952184, -20.63238716, 0.85077584, 27.48122597, -36.50979233, 10.81555080, -68.07950592, 100.48783112, -7.52355576, 100.54049683, 0.36909014, -0.52258497, -0.56314707, -0.52301335, -0.04694770, -0.01033721, 0.04046009, 100.31000519, 84.83507538, 33.46999741, 0.00000000
1, 2.6401, 107, 0.21683662, -1.30558085, 0.21172643, -41.14144897, 8.89625645, 94.63837433, -43.40835953, 11.02016926, -71.17801666, 94.99487305, -18.99135208, 100.48661041, 0.33265850, -0.55071706, -0.48772347, -0.59006351, -0.53679836, 0.36146128, -0.12826511, 100.31000519, 84.83507538, 33.46999741, 0.00000000
1, 2.6501, 108, 0.25962678, -1.32485831, 0.15556006, -44.87407303, 7.45098400, 102.04745483, -44.19760132, 11.22478771, -71.20724487, 94.55191803, -20.01563263, 100.47698975, 0.32920268, -0.55335093, -0.48071510, -0.59526587, -0.59589368, 0.38590455, -0.07958751, 100.31000519, 84.83507538, 33.46999741, 0.00000000
1, 2.6601, 109, 0.25513059, -1.35089231, 0.12125409, -48.03725433, 2.98542953, 109.23707581, -45.13300323, 10.55247021, -71.26570892, 94.09339905, -21.10843277, 100.42263031, 0.32567796, -0.55637193, -0.47301847, -0.60053116, -0.60880327, 0.41781849, -0.05321849, 100.31000519, 84.83507538, 33.46999741, 0.00000000
1, 2.6701, 110, 0.20827021, -1.36338258, 0.10849569, -51.45234299, 1.50007880, 115.51949310, -46.09763336, 11.02016926, -71.96726227, 93.60587311, -22.26337814, 100.35722351, 0.32201236, -0.55956870, -0.46474159, -0.60597533, -0.58030570, 0.43692654, -0.04882049, 100.31000519, 84.83507538, 33.46999741, 0.00000000
1, 2.6801, 111, 0.17501132, -1.39133561, 0.14431730, -54.02318573, 6.80067635, 122.37352753, -46.09763336, 11.02016926, -71.96726227, 93.07029724, -23.48202515, 100.35604095, 0.31789109, -0.56258947, -0.45613116, -0.61186826, -0.56648076, 0.47227719, -0.09358124, 100.31000519, 84.83507538, 33.46999741, 0.00000000
1, 2.6901, 112, 0.21592578, -1.46708918, 0.24619378, -56.45901489, 16.58254051, 126.86148071, -47.44226837, 11.02016926, -72.78573608, 92.46102905, -24.75830269, 100.47263336, 0.31317705, -0.56514704, -0.44733098, -0.61840439, -0.62767088, 0.55614084, -0.20517832, 100.31000519, 84.83507538, 33.46999741, 0.00000000
1, 2.7001, 113, 0.30973813, -1.57164419, 0.41830736, -60.48515320, 24.13004112, 131.71951294, -48.40689850, 11.89710617, -72.78573608, 91.76689148, -26.08465767, 100.68813324, 0.30805391, -0.56728888, -0.43821168, -0.62550521, -0.74258888, 0.66958612, -0.38811782, 100.31000519, 84.83507538, 33.46999741, 0.00000000
1, 2.7101, 114, 0.41331518, -1.62270546, 0.50962299, -61.60934067, 24.46657562, 138.38424683, -49.19614029, 12.21864891, -73.34112549, 91.04666138, -27.47524071, 100.92668915, 0.30255517, -0.56953847, -0.42863613, -0.63273805, -0.86777222, 0.73071897, -0.49075031, 100.31000519, 84.83507538, 33.46999741, 0.00000000
1, 2.7201, 115, 0.34441358, -1.65696049, 0.54902130, -59.00026703, 36.63126373, 144.82768250, -50.57000732, 12.30634308, -73.60420990, 90.27104950, -28.92833710, 101.32618713, 0.29606196, -0.57131684, -0.41912645, -0.64052898, -0.82107311, 0.77630806, -0.54209876, 100.31000519, 84.83507538, 33.46999741, 0.00000000
1, 2.9501, 116, -0.11864252, -0.08860250, -0.07873555, 119.70689392, -23.84893799, -126.28435516, -63.98713684, 18.91259766, -82.31510925, 74.73913574, -41.17150116, 121.51320648, 0.17724374, -0.52139956, -0.35927162, -0.75342625, -0.54523474, -0.63017613, -0.12690307, 100.31000519, 84.83507538, 33.46999741, 0.00000000
1, 2.9601, 117, -0.14214665, -0.11946525, 0.01008844, 135.78898621, -63.09866714, -148.50851440, -63.46097565, 17.80181122, -81.67202759, 76.92939758, -39.88397980, 120.22646332, 0.18281963, -0.52290463, -0.37390170, -0.74387181, -0.50573820, -0.61991477, -0.19370103, 100.31000519, 84.83507538, 33.46999741, 0.00000000
1, 2.9701, 118, -0.12926599, -0.17877224, 0.04322350, 143.81098938, -76.67848206, -169.19445801, -62.64250183, 16.83718109, -80.73662567, 79.26041412, -38.38475800, 118.80544281, 0.18974632, -0.52454793, -0.38963449, -0.73282391, -0.49966568, -0.58284080, -0.20036583, 100.31000519, 84.83507538, 33.46999741, 0.00000000
1, 2.9801, 119, -0.12511338, -0.24083704, 0.04650635, 149.32633972, -78.44937134, -189.35671997, -60.65477753, 16.16486359, -79.12890625, 81.59008026, -36.64486313, 117.42846680, 0.19768623, -0.52547377, -0.40645233, -0.72082871, -0.48121101, -0.54405105, -0.17538160, 100.31000519, 84.83507538, 33.46999741, 0.00000000
1, 2.9901, 120, -0.11634219, -0.30413541, 0.02056100, 150.96099854, -75.48299408, -209.46183777, -60.65477753, 16.16486359, -79.12890625, 83.82515717, -34.66094971, 116.17583466, 0.20661058, -0.52525389, -0.42411229, -0.70820141, -0.46328795, -0.50463474, -0.12065493, 100.31000519, 84.83507538, 33.46999741, 0.00000000
1, 3.0001, 121, -0.11420800, -0.35010633, 0.00017447, 151.84713745, -74.63412476, -226.48825073, -58.93013763, 15.63870239, -78.31043243, 85.96777344, -32.46924591, 115.03766632, 0.21639934, -0.52406400, -0.44237319, -0.69486284, -0.43487445, -0.48258823, -0.07131552, 100.31000519, 84.83507538, 33.46999741, 0.00000000
1, 3.0101, 122, -0.16876447, -0.39849737, -0.01305687, 155.09149170, -76.35475159, -244.46469116, -57.46857452, 14.49868488, -76.61502075, 88.05580139, -30.06534576, 113.99188232, 0.22706144, -0.52200896, -0.46133029, -0.68053228, -0.34593406, -0.45774075, -0.02874572, 100.31000519, 84.83507538, 33.46999741, 0.00000000
1, 3.0201, 123, -0.26256225, -0.48394579, -0.00092365, 161.34126282, -81.82879639, -259.51934814, -55.04238510, 9.96784592, -75.00730896, 90.13701630, -27.48071861, 113.00711060, 0.23839346, -0.51941937, -0.48089924, -0.66491210, -0.21399266, -0.39500648, -0.01033269, 100.31000519, 84.83507538, 33.46999741, 0.00000000
1, 3.0301, 124, -0.35230991, -0.58711088, 0.02518149, 166.41950989, -90.27288055, -273.87622070, -53.28851318, 12.16018677, -73.10727692, 92.21163940, -24.72239685, 112.06006622, 0.25048479, -0.51641101, -0.50084567, -0.64786631, -0.08248828, -0.31305850, -0.00439056, 100.31000519, 84.83507538, 33.46999741, 0.00000000
1, 3.2601, 125, 1.40540981, -1.34301758, 1.30629838, -31.96164703, -178.15447998, 173.25944519, -24.87576675, 15.02484608, -60.04092407, 114.30923462, 17.36975670, 113.28007507, 0.40078846, -0.38828787, -0.73869932, -0.37805372, -1.10654283, 0.47475031, -0.90685487, 100.31000519, 84.83507538, 33.46999741, 0.00000000
1, 3.2701, 126, 3.38056922, -2.02715230, 2.74138212, 47.63253403, -205.26687622, 56.40098953, -24.26191139, 15.93101406, -60.33323669, 114.12567902, 17.69159889, 111.07440948, 0.41042379, -0.40033188, -0.73105299, -0.36993021, -3.08644152, 1.15207934, -2.34702730, 100.31000519, 84.83507538, 33.46999741, 0.00000000
1, 3.2801, 127, 2.26761484, -2.72583318, -2.31299520, -160.27116394, -176.54234314, 23.48824883, -22.85881233, 15.93101406, -61.56094742, 111.96541595, 18.17020798, 109.27316284, 0.42645389, -0.40166020, -0.71858627, -0.37475327, -1.95146227, 1.85518634, 2.68676329, 100.31000519, 84.83507538, 33.46999741, 0.00000000
1, 3.2901, 128, -1.29534721, -1.19173181, -2.68889189, -192.18550110, 157.07769775, 150.23526001, -24.11575508, 14.08944702, -62.14557266, 110.33162689, 16.20981789, 110.25209808, 0.41827685, -0.39855930, -0.71272051, -0.39777440, 1.59644437, 0.30243579, 3.02200937, 100.31000519, 84.83507538, 33.46999741, 0.00000000
1, 3.3001, 129, -0.68930119, -0.45559469, 1.63760805, 17.18600655, -325.68716431, 220.97702026, -24.11575508, 14.08944702, -62.14557266, 109.45175934, 15.22124767, 106.29528809, 0.42982018, -0.42412579, -0.69338471, -0.39317882, 0.95214868, -0.45442396, -1.31529629, 100.31000519, 84.83507538, 33.46999741, 0.00000000
1, 3.3101, 130, -1.62679088, -1.40361142, 0.58939284, 54.90964890, -292.02883911, 208.59265137, -24.52499199, 13.50482273, -61.85326004, 109.09535980, 14.20981407, 102.73512268, 0.43804848, -0.44862473, -0.67624068, -0.38671416, 1.87797713, 0.48877677, -0.27796227, 100.31000519, 84.83507538, 33.46999741, 0.00000000
1, 3.3201, 131, -1.98417068, -2.04056835, -0.70645946, 34.83103943, 5.77863884, 152.76502991, -23.58959389, 13.68021011, -62.23326492, 109.33424377, 12.74746895, 102.27466583, 0.43115014, -0.45872733, -0.67158616, -0.39070559, 2.21614099, 1.12316096, 1.01940095, 100.31000519, 84.83507538, 33.46999741, 0.00000000
1, 3.3301, 132, -0.88743889, -1.41788006, -0.40078738, -81.36499023, 145.51119995, 101.92942810, -25.02192307, 11.72171879, -62.37942123, 108.73693085, 11.29829407, 103.33615112, 0.42232525, -0.45666718, -0.67004031, -0.40514517, 1.09333825, 0.49319804, 0.71516454, 100.31000519, 84.83507538, 33.46999741, 0.00000000
1, 3.4901, 133, -0.80365461, -0.95341671, 0.34018621, -23.96397400, -4.16300678, 42.26625824, -32.91435242, 10.93247604, -64.68869019, 104.04228210, -1.21488333, 100.49412537, 0.38706982, -0.50904852, -0.60179812, -0.47841990, 0.78419477, -0.01671297, -0.09965256, 100.31000519, 84.83507538, 33.46999741, 0.00000000
1, 3.5001, 134, -0.83734024, -0.95462596, 0.50234419, -25.94856644, 36.49481201, 29.50263405, -33.49897766, 10.90324497, -64.80561066, 103.77634430, -1.58901024, 100.77796173, 0.38506591, -0.50819170, -0.60063416, -0.48239413, 0.81076944, -0.01668407, -0.26617074, 100.31000519, 84.83507538, 33.46999741, 0.00000000
1, 3.5101, 135, -0.60454410, -0.91945863, 0.38709816, -28.20310211, 71.82490540, 18.03507233, -33.49897766, 10.90324497, -64.80561066, 103.47443390, -1.93299162, 101.43419647, 0.38178334, -0.50515050, -0.60105085, -0.48764980, 0.57202983, -0.05269965, -0.15527886, 100.31000519, 84.83507538, 33.46999741, 0.00000000
1, 3.5201, 136, -0.14105950, -0.93149984, 0.29885918, -26.74084473, 90.54888916, 11.18942642, -33.82051849, 10.93247604, -64.98100281, 103.17601776, -2.24980783, 102.29045105, 0.37772495, -0.50097150, -0.60242105, -0.49339673, 0.10309239, -0.04154437, -0.07105981, 100.31000519, 84.83507538, 33.46999741, 0.00000000
1, 3.5301, 137, 0.19867700, -0.97295535, 0.21384756, -25.72155571, 75.54485321, 11.92296696, -34.22975540, 10.58170128, -64.80561066, 102.88706207, -2.51843119, 102.99981689, 0.37446287, -0.49740586, -0.60331953, -0.49836797, -0.24156220, -0.00091101, 0.00971296, 100.31000519, 84.83507538, 33.46999741, 0.00000000
1, 3.5401, 138, 0.26349151, -1.01499438, 0.15357383, -24.69442177, 42.91436768, 15.63633537, -35.28208160, 10.26015759, -65.33177185, 102.62283325, -2.76575637, 103.38451385, 0.37258801, -0.49555105, -0.60296577, -0.50203550, -0.31055543, 0.04034941, 0.06536900, 100.31000519, 84.83507538, 33.46999741, 0.00000000
1, 3.5501, 139, 0.10771154, -1.03885627, 0.12867868, -24.61144066, 20.37763214, 17.86722755, -35.10669327, 7.27857351, -65.47792816, 102.36915588, -2.98466969, 103.54522705, 0.37179029, -0.49479768, -0.60177606, -0.50478989, -0.15870926, 0.06346726, 0.08543318, 100.31000519, 84.83507538, 33.46999741, 0.00000000
1, 3.5601, 140, -0.12693821, -1.03819335, 0.15103047, -24.45852661, 10.77226830, 18.30232430, -35.10669327, 7.27857351, -65.47792816, 102.12141418, -3.18685007, 103.61198425, 0.37146759, -0.49449107, -0.60025656, -0.50713158, 0.07228316, 0.06202146, 0.05820261, 100.31000519, 84.83507538, 33.46999741, 0.00000000
1, 3.7001, 141, 0.05390812, -1.02226937, 0.22868682, -19.32883263, -30.43670273, 60.43909454, -38.05904770, 8.91552162, -67.81642914, 99.46127319, -8.45122623, 102.60778809, 0.35913336, -0.51290417, -0.56411618, -0.53826165, -0.19786640, 0.04583272, -0.06670775, 100.31000519, 84.83507538, 33.46999741, 0.00000000
1, 3.7101, 142, 0.11864033, -1.03083563, 0.24279168, -21.73270798, -26.32315636, 64.54615784, -38.05904770, 8.91552162, -67.81642914, 99.30149078, -9.04623508, 102.23944855, 0.35834652, -0.51663107, -0.55937612, -0.54016531, -0.27254879, 0.05543134, -0.08339040, 100.31000519, 84.83507538, 33.46999741, 0.00000000
1, 3.7201, 143, 0.17625219, -1.07887948, 0.21577244, -23.46014786, -27.96978760, 69.43621063, -38.35136032, 9.76322746, -67.34872437, 99.13243866, -9.68808174, 101.84788513, 0.35746914, -0.52059877, -0.55425930, -0.54220784, -0.34087667, 0.10475899, -0.05947437, 100.31000519, 84.83507538, 33.46999741, 0.00000000
1, 3.7301, 144, 0.20427908, -1.12290788, 0.21887814, -26.65196037, -31.87708473, 75.11473846, -38.76059723, 9.38322163, -67.37796021, 98.94677734, -10.36717319, 101.41019440, 0.35669816, -0.52484828, -0.54865575, -0.54431397, -0.38041830, 0.15026201, -0.06588420, 100.31000519, 84.83507538, 33.46999741, 0.00000000
1, 3.7401, 145, 0.14345065, -1.15530145, 0.30442345, -29.77659607, -32.41573334, 81.24075317, -39.28675842, 9.03244686, -67.96258545, 98.73536682, -11.12158489, 100.95823669, 0.35572135, -0.52934009, -0.54250181, -0.54676622, -0.33214977, 0.18422841, -0.15545011, 100.31000519, 84.83507538, 33.46999741, 0.00000000
1, 3.7501, 146, 0.03046104, -1.24445176, 0.33510461, -32.69614029, -30.85628510, 87.09870148, -39.60830307, 9.50014591, -67.34872437, 98.49898529, -11.93794060, 100.51489258, 0.35450211, -0.53390682, -0.53594869, -0.54957336, -0.23283309, 0.27542269, -0.19072363, 100.31000519, 84.83507538, 33.46999741, 0.00000000
1, 3.7601, 147, -0.01822395, -1.28392124, 0.37651992, -35.98181534, -21.48888969, 91.13191223, -39.60830307, 9.50014591, -67.34872437, 98.21674347, -12.80974293, 100.16294861, 0.35277665, -0.53807116, -0.52930123, -0.55305368, -0.19878936, 0.31722468, -0.23729487, 100.31000519, 84.83507538, 33.46999741, 0.00000000
1, 3.7701, 148, 0.02027059, -1.28532505, 0.34905976, -39.24818420, -7.77392006, 95.44375610, -40.01753998, 9.82168961, -68.69336700, 97.87577820, -13.74511242, 99.94802094, 0.35033578, -0.54162854, -0.52267504, -0.55741757, -0.25270683, 0.32143176, -0.21557803, 100.31000519, 84.83507538, 33.46999741, 0.00000000
1, 3.8701, 149, 0.08713599, -1.62920475, 0.62370962, -55.81242752, 53.08294296, 154.29280090, -46.50687027, 8.47705364, -70.97339630, 92.54473114, -26.65580177, 99.62770844, 0.30675766, -0.57546926, -0.43436754, -0.62133706, -0.52803779, 0.73101467, -0.58146071, 100.31000519, 84.83507538, 33.46999741, 0.00000000
1, 3.8801, 150, 0.15366881, -1.70993161, 0.75948179, -57.80545425, 83.21665955, 157.06947327, -48.37766647, 10.58170128, -71.93802643, 91.56924438, -28.25115967, 100.50391388, 0.29793140, -0.57527703, -0.42557913, -0.63180351, -0.61969030, 0.82347262, -0.73179221, 100.31000519, 84.83507538, 33.46999741, 0.00000000
1, 3.8901, 151, 0.18101151, -1.88470483, 0.76981115, -58.16274643, 112.32719421, 155.13894653, -49.78076553, 10.66939449, -72.43495941, 90.38025665, -29.82082367, 101.76110077, 0.28806084, -0.57323700, -0.41746625, -0.64353883, -0.67132485, 1.01096177, -0.75949514, 100.31000519, 84.83507538, 33.46999741, 0.00000000
1, 3.9001, 152, 0.49206257, -2.03022909, 0.93085992, -60.10243225, 165.95866394, 151.21919250, -51.47617722, 11.57556248, -73.54574585, 88.79330444, -31.31943321, 103.70394135, 0.27645946, -0.56778389, -0.41064090, -0.65769726, -1.00590515, 1.16953230, -0.94158876, 100.31000519, 84.83507538, 33.46999741, 0.00000000
1, 3.9101, 153, 0.80214822, -1.95654190, 0.88871360, -59.68549728, 212.83099365, 146.75781250, -53.17158508, 12.33557415, -75.03653717, 86.83262634, -32.70247650, 106.28076172, 0.26328710, -0.55922002, -0.40500054, -0.67374140, -1.33714271, 1.10963571, -0.92529172, 100.31000519, 84.83507538, 33.46999741, 0.00000000
1, 3.9201, 154, 0.85030657, -1.86215770, 0.66903430, -66.14240265, 232.37036133, 148.14698792, -53.17158508, 12.33557415, -75.03653717, 84.57516479, -34.00412369, 109.19017792, 0.24949566, -0.54909426, -0.39913496, -0.69060761, -1.40415490, 1.03004742, -0.73623568, 100.31000519, 84.83507538, 33.46999741, 0.00000000
1, 3.9301, 155, 0.22974958, -1.96363044, 0.54141307, -85.53820038, 201.22676086, 162.47863770, -54.69160843, 13.03712368, -76.93656921, 82.21292877, -35.38360596, 111.85062408, 0.23669823, -0.54060429, -0.39053035, -0.70654589, -0.80262554, 1.14817882, -0.64262271, 100.31000519, 84.83507538, 33.46999741, 0.00000000
1, 3.9401, 156, -0.13896535, -2.00754642, 0.60800302, -108.72460938, 175.52001953, 167.27867126, -56.59164047, 11.98479939, -78.33966827, 79.67304230, -36.75926971, 114.32345581, 0.22544311, -0.53308761, -0.37948346, -0.72179317, -0.45393705, 1.21093488, -0.74247873, 100.31000519, 84.83507538, 33.46999741, 0.00000000
1, 4.0501, 157, 0.20096363, -0.02093582, 0.19900875, 44.81490707, 6.67212152, -37.48132324, -63.08097076, 19.20491028, -82.02279663, 70.82233429, -45.64983749, 121.04111481, 0.17399852, -0.53804570, -0.30933732, -0.76455331, -0.91848350, -0.63693637, -0.42984360, 100.31000519, 84.83507538, 33.46999741, 0.00000000
1, 4.0601, 158, 0.26696199, -0.01481711, 0.05864932, 50.49441910, 8.55255699, -59.52157211, -62.61326981, 18.91259766, -81.73048401, 71.44006348, -45.05791473, 120.88050842, 0.17538263, -0.53662241, -0.31561887, -0.76266783, -0.97783917, -0.65121287, -0.28467876, 100.31000519, 84.83507538, 33.46999741, 0.00000000
1, 4.0701, 159, 0.18355648, 0.00236128, -0.02535491, 58.44105911, 10.90191936, -76.30414581, -62.61326981, 18.91259766, -81.73048401, 72.15750122, -44.29784393, 120.68860626, 0.17744102, -0.53467137, -0.32323024, -0.76037073, -0.88556349, -0.67909330, -0.19566584, 100.31000519, 84.83507538, 33.46999741, 0.00000000
1, 4.0801, 160, 0.03113664, -0.01981231, -0.04825345, 71.66891479, -8.09131336, -90.12239838, -62.40865326, 18.67874908, -81.17509460, 73.19750977, -43.45929337, 120.20993805, 0.18034603, -0.53372210, -0.33200407, -0.75656426, -0.72285372, -0.66978425, -0.16542603, 100.31000519, 84.83507538, 33.46999741, 0.00000000
1, 4.0901, 161, -0.11975545, -0.03041145, -0.03715295, 81.51564026, -41.33667755, -102.73006439, -62.05787659, 18.18181801, -80.82431793, 74.64784241, -42.58545685, 119.27466583, 0.18454635, -0.53472072, -0.34148154, -0.75060427, -0.56108844, -0.67372555, -0.16415451, 100.31000519, 84.83507538, 33.46999741, 0.00000000
1, 4.1001, 162, -0.23554745, -0.01614031, -0.00158984, 92.36148071, -74.08065796, -118.47567749, -61.15171051, 17.83104324, -80.06430817, 76.48550415, -41.62192154, 117.90675354, 0.19021390, -0.53747642, -0.35181192, -0.74240571, -0.43348435, -0.70424485, -0.18168147, 100.31000519, 84.83507538, 33.46999741, 0.00000000
1, 4.1101, 163, -0.31143501, -0.02725388, 0.04898115, 103.34194183, -95.11631012, -137.29139709, -59.95322800, 17.65565681, -78.69043732, 78.58461761, -40.48599625, 116.27912140, 0.19718315, -0.54106480, -0.36329472, -0.73238289, -0.34379083, -0.71120274, -0.20963444, 100.31000519, 84.83507538, 33.46999741, 0.00000000
1, 4.1201, 164, -0.33980009, -0.06575219, 0.10899776, 112.11161804, -105.86339569, -158.18225098, -58.84244156, 17.24641991, -77.69657898, 80.80793762, -39.11838913, 114.55181122, 0.20535026, -0.54465014, -0.37601560, -0.72097152, -0.29856718, -0.69255030, -0.24398911, 100.31000519, 84.83507538, 33.46999741, 0.00000000
1, 4.2801, 165, -0.25652033, -2.12082314, 0.16367225, 164.04510498, -19.05250168, -353.15405273, -35.57439423, 13.38789845, -63.78252029, 108.82439423, 7.61526251, 111.71151733, 0.37060994, -0.42345387, -0.69325173, -0.45026341, 0.36650920, 1.17643070, 0.14221276, 100.31000519, 84.83507538, 33.46999741, 0.00000000
1, 4.2901, 166, -0.31515834, -2.31245923, 0.11852030, 157.98422241, -35.05375671, -337.98272705, -33.14820099, 14.00175381, -62.49634552, 110.52686310, 10.92092514, 112.52599335, 0.38005346, -0.40924016, -0.71040154, -0.42826581, 0.48317850, 1.38549614, 0.21223870, 100.31000519, 84.83507538, 33.46999741, 0.00000000
1, 4.3001, 167, -0.15961380, -2.34367990, 0.12300817, 141.99948120, -41.08708191, -317.87322998, -31.13124847, 15.25869656, -61.88248825, 112.10958862, 14.03588200, 113.31384277, 0.38929906, -0.39556402, -0.72532749, -0.40727815, 0.38227540, 1.43676710, 0.23035368, 100.31000519, 84.83507538, 33.46999741, 0.00000000
1, 4.3101, 168, 0.08547639, -2.35522246, 0.07932758, 125.87773895, -33.07733536, -292.20443726, -28.38351250, 16.28178787, -60.59631729, 113.58994293, 16.86117172, 114.17123413, 0.39734340, -0.38234466, -0.73844737, -0.38810626, 0.18703476, 1.46986270, 0.29354388, 100.31000519, 84.83507538, 33.46999741, 0.00000000
1, 4.3201, 169, 0.15498084, -2.22338963, 0.04784302, 107.78865814, -39.23721695, -255.12342834, -27.12657166, 17.36334419, -59.13475418, 114.88533783, 19.35245705, 114.89366913, 0.40485606, -0.37083152, -0.74899769, -0.37091532, 0.16123864, 1.35959673, 0.34100738, 100.31000519, 84.83507538, 33.46999741, 0.00000000
1, 4.3301, 170, -0.14247750, -1.86293280, -0.16421266, 93.84035492, -66.49409485, -208.25756836, -27.12657166, 17.36334419, -59.13475418, 115.91935730, 21.51732826, 115.19944763, 0.41287434, -0.36261070, -0.75619745, -0.35526597, 0.49687064, 1.01948524, 0.56417388, 100.31000519, 84.83507538, 33.46999741, 0.00000000
1, 4.3401, 171, -1.19995189, -1.51778257, -0.73480654, 88.37981415, -94.91917419, -151.69544983, -25.19731140, 18.29874229, -58.69628525, 116.72391510, 23.30002785, 115.00418091, 0.42101991, -0.35865873, -0.76017928, -0.34093049, 1.58716524, 0.69277871, 1.14014804, 100.31000519, 84.83507538, 33.46999741, 0.00000000
1, 4.3501, 172, -2.08871436, -1.07507849, -0.67654717, 84.24467468, -86.86353302, -86.35890961, -23.61882401, 18.85413551, -58.08243179, 117.39431000, 24.46566772, 114.58598328, 0.42670378, -0.35857221, -0.76211864, -0.32943156, 2.49838662, 0.26380739, 1.08617198, 100.31000519, 84.83507538, 33.46999741, 0.00000000
1, 4.5201, 173, 0.16339576, -0.94938552, 0.99763125, -4.81844902, -152.23645020, 133.25672913, -27.94504547, 14.00175381, -60.91785812, 107.91399384, 8.09056282, 102.79418945, 0.41077167, -0.47079098, -0.65621585, -0.42308763, -0.01990483, 0.00709730, -0.69243014, 100.31000519, 84.83507538, 33.46999741, 0.00000000
1, 4.5301, 174, -0.20029284, -0.77707613, 0.23012829, -15.13633251, -60.59872818, 127.59791565, -28.41274452, 14.64484024, -61.21017075, 107.62252045, 7.04189348, 101.81449890, 0.41008914, -0.47982031, -0.64807612, -0.42614177, 0.32959205, -0.16771924, 0.07005946, 100.31000519, 84.83507538, 33.46999741, 0.00000000
1, 4.5401, 175, -0.31943652, -0.85768497, -0.11283317, -27.61163902, -4.12514353, 113.89015198, -28.41274452, 14.64484024, -61.21017075, 107.30596161, 5.96662855, 101.43228149, 0.40719742, -0.48540980, -0.64211249, -0.43157756, 0.43043894, -0.09033619, 0.40832007, 100.31000519, 84.83507538, 33.46999741, 0.00000000
1, 4.5501, 176, -0.71445650, -0.91448152, 0.58586508, -19.45405197, -17.14666939, 99.78805542, -29.05583191, 14.52791595, -61.26863480, 107.06983948, 5.06266642, 100.97296143, 0.40518361, -0.49094301, -0.63653022, -0.43546602, 0.80696380, -0.03779937, -0.29563856, 100.31000519, 84.83507538, 33.46999741, 0.00000000
1, 4.5601, 177, -1.17175269, -1.11896884, 0.46647835, -21.15766716, 6.51276350, 88.59614563, -29.02659988, 14.46945286, -61.26863480, 106.84405518, 4.19559193, 100.77737427, 0.40233374, -0.49485534, -0.63214999, -0.44003674, 1.24947393, 0.16455390, -0.18085930, 100.31000519, 84.83507538, 33.46999741, 0.00000000
1, 4.5701, 178, -0.91461873, -1.28487790, -0.21272734, -24.02571487, 62.36890411, 80.14939880, -29.72814941, 14.82022762, -61.41479111, 106.62910461, 3.24866652, 101.14605713, 0.39682540, -0.49601400, -0.62994242, -0.44684705, 0.97808909, 0.32933906, 0.49522144, 100.31000519, 84.83507538, 33.46999741, 0.00000000
1, 4.5801, 179, -0.18280748, -1.16035521, -0.16933222, -26.26570511, 88.65939331, 66.52078247, -31.07278633, 14.14791012, -61.38555908, 106.38891602, 2.35994792, 101.80468750, 0.39053580, -0.49525833, -0.62902880, -0.45444900, 0.23000473, 0.20281571, 0.45049116, 100.31000519, 84.83507538, 33.46999741, 0.00000000
1, 4.5901, 180, 0.21079926, -0.90422416, 0.28958270, -28.88595200, 87.52159119, 52.66389465, -31.07278633, 14.14791012, -61.38555908, 106.12545013, 1.60974979, 102.49888611, 0.38486680, -0.49367017, -0.62857407, -0.46158639, -0.17866936, -0.05590197, -0.01129484, 100.31000519, 84.83507538, 33.46999741, 0.00000000
1, 4.6001, 181, 0.22809534, -0.92340696, 0.31690681, -28.57024574, 44.37275314, 55.34692764, -30.80970383, 13.41712952, -61.88248825, 105.84780884, 0.95499367, 102.77391815, 0.38141140, -0.49395216, -0.62652498, -0.46690810, -0.20806731, -0.03838527, -0.04305746, 100.31000519, 84.83507538, 33.46999741, 0.00000000
1, 4.6801, 182, 0.03038562, -0.98919833, 0.18027560, -21.58617210, 71.69278717, 17.93016624, -34.63899231, 12.27711201, -61.91172028, 104.00479126, -2.38304234, 102.68580627, 0.37167805, -0.50214380, -0.60724646, -0.49087563, -0.07032043, 0.01978014, 0.06157343, 100.31000519, 84.83507538, 33.46999741, 0.00000000
1, 4.6901, 183, 0.14567928, -1.01058066, 0.15799820, -21.52600098, 49.44770432, 19.60746765, -34.63899231, 12.27711201, -61.91172028, 103.77088165, -2.69195056, 103.11956787, 0.36915314, -0.50035948, -0.60706574, -0.49481079, -0.19107144, 0.04041476, 0.07998849, 100.31000519, 84.83507538, 33.46999741, 0.00000000
1, 4.7001, 184, 0.04618466, -1.01617968, 0.14506388, -22.17387009, 29.89346886, 21.39297104, -34.58053207, 12.97866154, -62.49634552, 103.53784180, -2.97058177, 103.36016083, 0.36760652, -0.49948508, -0.60613608, -0.49797520, -0.09658258, 0.04530071, 0.08865573, 100.31000519, 84.83507538, 33.46999741, 0.00000000
1, 4.7101, 185, -0.13210648, -1.01227999, 0.21063632, -22.36102676, 23.45051003, 22.01292992, -35.04823303, 12.97866154, -63.13943100, 103.30516815, -3.23936391, 103.53774261, 0.36637703, -0.49891108, -0.60495645, -0.50088257, 0.07682942, 0.04058968, 0.01865820, 100.31000519, 84.83507538, 33.46999741, 0.00000000
1, 4.7201, 186, -0.22455512, -0.98704600, 0.25900513, -22.87698555, 32.18315887, 21.52660179, -34.93130493, 12.94942951, -62.73019409, 103.06124115, -3.52243686, 103.80280304, 0.36472631, -0.49790555, -0.60404688, -0.50417489, 0.16435219, 0.01458671, -0.03402150, 100.31000519, 84.83507538, 33.46999741, 0.00000000
1, 4.7301, 187, -0.20022608, -0.95810425, 0.29485229, -22.93681526, 47.28026581, 20.88822174, -35.31131363, 12.27711201, -63.66559601, 102.81221008, -3.83973551, 104.21975708, 0.36222467, -0.49623427, -0.60363936, -0.50809872, 0.13468198, -0.01507554, -0.07407392, 100.31000519, 84.83507538, 33.46999741, 0.00000000
1, 4.7401, 188, -0.07437068, -0.95613098, 0.27771044, -22.58915520, 55.38926315, 21.30491638, -35.16515732, 11.66325665, -62.96404648, 102.55226898, -4.16891050, 104.71498871, 0.35933241, -0.49417722, -0.60346186, -0.51235044, 0.00315819, -0.01762049, -0.06101255, 100.31000519, 84.83507538, 33.46999741, 0.00000000
1, 4.7501, 189, 0.04136048, -0.96243382, 0.25539607, -22.63027000, 53.37146759, 23.37800407, -35.16515732, 11.66325665, -62.96404648, 102.29081726, -4.51183462, 105.18772888, 0.35644358, -0.49230379, -0.60311174, -0.51656681, -0.11841214, -0.01184354, -0.04295826, 100.31000519, 84.83507538, 33.46999741, 0.00000000
1, 4.8301, 190, -0.06807137, -1.06560278, 0.12581286, -24.29819870, 7.20012093, 48.39507294, -38.67290115, 10.78631973, -64.74714661, 100.32543945, -7.90082645, 106.38203430, 0.34055468, -0.49430874, -0.58687943, -0.54337281, -0.06661792, 0.09080961, 0.05149376, 100.31000519, 84.83507538, 33.46999741, 0.00000000
1, 4.8401, 191, -0.06961786, -1.07398200, 0.13339716, -24.71734810, 0.90340656, 49.37199402, -39.19906235, 12.10172462, -64.60099030, 100.09068298, -8.38906574, 106.30332947, 0.33921707, -0.49605715, -0.58360356, -0.54613745, -0.07345489, 0.09957991, 0.03956658, 100.31000519, 84.83507538, 33.46999741, 0.00000000
1, 4.8501, 192, -0.05436622, -1.06200552, 0.17300831, -24.54708862, -5.47187853, 50.93542480, -39.19906235, 12.10172462, -64.60099030, 99.86802673, -8.88210106, 106.16026306, 0.33811301, -0.49818283, -0.58006525, -0.54865086, -0.09726429, 0.08808678, -0.00409135, 100.31000519, 84.83507538, 33.46999741, 0.00000000
1, 4.8601, 193, 0.05181577, -1.05927825, 0.21766436, -24.84479141, -9.44547653, 54.59508896, -39.54983902, 12.42326832, -64.80561066, 99.65065002, -9.40502930, 105.97301483, 0.33703873, -0.50066197, -0.57622105, -0.55110049, -0.21235034, 0.08601686, -0.05237203, 100.31000519, 84.83507538, 33.46999741, 0.00000000
1, 4.8701, 194, 0.14473356, -1.05379140, 0.22739862, -26.37320137, -10.03176308, 58.91198349, -39.28675842, 11.69248772, -65.36100769, 99.42180634, -9.97036552, 105.77447510, 0.33584142, -0.50332677, -0.57208073, -0.55371135, -0.31472638, 0.08141953, -0.06595513, 100.31000519, 84.83507538, 33.46999741, 0.00000000
1, 4.8801, 195, 0.18948266, -1.03790486, 0.23464260, -29.51970863, -10.39641476, 64.30634308, -39.81291962, 12.33557415, -65.27330780, 99.16934204, -10.56342697, 105.56587982, 0.33465230, -0.50607210, -0.56764156, -0.55649078, -0.36967400, 0.06661725, -0.07749787, 100.31000519, 84.83507538, 33.46999741, 0.00000000
1, 4.8901, 196, 0.19826986, -1.03043675, 0.26452711, -32.60241699, -14.36915588, 70.57780457, -40.33908081, 12.01403046, -65.36100769, 98.89356232, -11.23911476, 105.30952454, 0.33334985, -0.50930661, -0.56251556, -0.55951846, -0.38940647, 0.06040200, -0.11215557, 100.31000519, 84.83507538, 33.46999741, 0.00000000
1, 4.9001, 197, 0.15542611, -1.04565227, 0.29486164, -36.67934799, -15.60877800, 76.54150391, -40.33908081, 12.01403046, -65.36100769, 98.58406830, -11.97329807, 105.03440857, 0.33197889, -0.51274997, -0.55686069, -0.56283551, -0.35883990, 0.07719934, -0.14805213, 100.31000519, 84.83507538, 33.46999741, 0.00000000
1, 5.0701, 198, 0.75736195, -1.85766733, 0.74736708, -68.33014679, 180.27694702, 145.23312378, -52.58696365, 12.89096737, -72.49342346, 85.94998932, -33.19420624, 110.13750458, 0.24184978, -0.54540002, -0.41591772, -0.68633819, -1.29933810, 1.01631856, -0.79719067, 100.31000519, 84.83507538, 33.46999741, 0.00000000
1, 5.0801, 199, 0.20276116, -1.92219925, 0.69898695, -81.72947693, 172.06880188, 151.57003784, -54.37006760, 13.85559750, -74.01344299, 83.89941406, -34.54806900, 112.36450195, 0.23034111, -0.53874367, -0.40741709, -0.70050669, -0.76419598, 1.09600043, -0.77860874, 100.31000519, 84.83507538, 33.46999741, 0.00000000
1, 5.0901, 200, -0.04927131, -1.89005947, 0.65401399, -107.81882477, 152.68367004, 156.80308533, -55.39315796, 14.41099072, -75.15346527, 81.61353302, -35.91122437, 114.46326447, 0.22032040, -0.53269118, -0.39645469, -0.71450877, -0.53178889, 1.08099198, -0.76344740, 100.31000519, 84.83507538, 33.46999741, 0.00000000
1, 5.1001, 201, -0.06504481, -1.68871367, 0.36325195, -124.53558350, 167.62998962, 151.36067200, -57.17626190, 12.27711201, -77.37503815, 78.95745850, -37.12059784, 116.83972931, 0.21078883, -0.52494210, -0.38480216, -0.72933620, -0.53314841, 0.89843380, -0.50586069, 100.31000519, 84.83507538, 33.46999741, 0.00000000
1, 5.1101, 202, 0.11199253, -1.51253223, 0.01647160, -118.92137909, 147.76110840, 152.53317261, -57.17626190, 12.27711201, -77.37503815, 76.40263367, -38.29583359, 119.07959747, 0.20148331, -0.51834702, -0.37290940, -0.74273783, -0.72563350, 0.74216419, -0.19174093, 100.31000519, 84.83507538, 33.46999741, 0.00000000
1, 5.1201, 203, 0.22081600, -1.19645858, -0.15336688, -100.07156372, 85.27754974, 155.44833374, -58.55013275, 15.43408298, -78.39812469, 74.42139435, -39.58665466, 120.64828491, 0.19308028, -0.51603431, -0.36086553, -0.75246584, -0.85098243, 0.44668987, -0.04753486, 100.31000519, 84.83507538, 33.46999741, 0.00000000
1, 5.1301, 204, -0.11825590, -0.91309297, -0.12944622, -81.58132172, -6.01131248, 146.49981689, -59.77784348, 16.39871407, -79.62583923, 73.31866455, -41.00537491, 121.10707092, 0.18728435, -0.51960039, -0.34886247, -0.75712293, -0.53041583, 0.18326120, -0.08632670, 100.31000519, 84.83507538, 33.46999741, 0.00000000
1, 5.1401, 205, -0.67998201, -0.66432583, -0.17105202, -69.17250824, -59.25014877, 130.42106628, -60.42092896, 16.77871895, -79.83045959, 72.79417419, -42.42770004, 120.86092377, 0.18354842, -0.52630436, -0.33739045, -0.75860494, 0.01251621, -0.04700818, -0.04963538, 100.31000519, 84.83507538, 33.46999741, 0.00000000
1, 5.2301, 206, -0.03132460, -0.11706141, -0.08617800, 67.47217560, -1.37462461, -99.42554474, -59.39783478, 17.94796753, -79.77199554, 75.28330994, -41.58733368, 119.23600769, 0.18736647, -0.53126532, -0.35036141, -0.74826324, -0.63696921, -0.60087913, -0.10754160, 100.31000519, 84.83507538, 33.46999741, 0.00000000
1, 5.2401, 207, -0.25642967, -0.15185538, -0.06501542, 80.72563934, -28.25196838, -112.73100281, -59.13475418, 17.91873741, -78.71967316, 76.56703186, -40.56116104, 118.50581360, 0.19186808, -0.53094375, -0.36035413, -0.74258351, -0.39882007, -0.58101201, -0.11790860, 100.31000519, 84.83507538, 33.46999741, 0.00000000
1, 5.2501, 208, -0.40430227, -0.15574333, 0.04953728, 94.62915802, -65.22847748, -134.66290283, -58.37474442, 17.15872574, -78.36889648, 78.29113007, -39.38766479, 117.28942871, 0.19827268, -0.53245962, -0.37156948, -0.73424172, -0.23651923, -0.59420919, -0.21548867, 100.31000519, 84.83507538, 33.46999741, 0.00000000
1, 5.2601, 209, -0.45274618, -0.17240593, 0.10646848, 108.67188263, -83.95436859, -161.59466553, -58.37474442, 17.15872574, -78.36889648, 80.27723694, -37.95532608, 115.84463501, 0.20629698, -0.53439456, -0.38450199, -0.72389388, -0.17023443, -0.59713429, -0.24998589, 100.31000519, 84.83507538, 33.46999741, 0.00000000
1, 5.2701, 210, -0.42931280, -0.20559932, 0.13890132, 116.82029724, -66.48090363, -187.36073303, -56.70856476, 15.90178299, -76.93656921, 82.15679169, -36.20426559, 114.65887451, 0.21490872, -0.53430867, -0.39932078, -0.71335226, -0.17124124, -0.58554751, -0.25892410, 100.31000519, 84.83507538, 33.46999741, 0.00000000
1, 5.2801, 211, -0.38856086, -0.24608779, 0.13951418, 121.12554169, -38.08432007, -210.99479675, -55.71470261, 15.66793346, -75.97193909, 83.82093811, -34.16073608, 113.87540436, 0.22366339, -0.53152323, -0.41587287, -0.70321226, -0.18456638, -0.56802595, -0.23768832, 100.31000519, 84.83507538, 33.46999741, 0.00000000
1, 5.2901, 212, -0.29737309, -0.28108218, 0.11905136, 123.71482849, -9.36400414, -229.83221436, -54.77930450, 14.90792179, -76.05963135, 85.25851440, -31.87966919, 113.49890900, 0.23236109, -0.52603734, -0.43380725, -0.69361687, -0.24386474, -0.55653298, -0.19740152, 100.31000519, 84.83507538, 33.46999741, 0.00000000
1, 5.3001, 213, -0.21515627, -0.31075504, 0.09829826, 126.64947510, 7.71644068, -245.37614441, -52.93773651, 13.82636642, -74.71499634, 86.57968903, -29.42390442, 113.38070679, 0.24109881, -0.51869696, -0.45273721, -0.68399847, -0.29048246, -0.55018663, -0.15815918, 100.31000519, 84.83507538, 33.46999741, 0.00000000
1, 5.4501, 214, -0.29763490, -2.25811982, 0.30411586, 121.41027832, -80.53487396, -301.91909790, -26.60040855, 14.87869072, -61.99941635, 110.66611481, 17.14620972, 115.28742981, 0.40458387, -0.36362734, -0.73238856, -0.40950465, 0.57256871, 1.35557902, 0.02318807, 100.31000519, 84.83507538, 33.46999741, 0.00000000
1, 5.4601, 215, -0.06775290, -2.23360395, 0.30858150, 95.77840424, -35.36418152, -279.46734619, -24.84653664, 17.68488693, -61.70710373, 111.84594727, 19.88185883, 116.00479126, 0.41370511, -0.35027403, -0.74315166, -0.39227793, 0.39062762, 1.35231352, 0.03294827, 100.31000519, 84.83507538, 33.46999741, 0.00000000
1, 5.4701, 216, -0.07040338, -2.04343653, 0.16325456, 80.82008362, -29.48203659, -247.41447449, -24.84653664, 17.68488693, -61.70710373, 112.90447998, 22.28502083, 116.71854401, 0.42155987, -0.33804491, -0.75218922, -0.37712646, 0.43486851, 1.18314874, 0.18970013, 100.31000519, 84.83507538, 33.46999741, 0.00000000
1, 5.4801, 217, -0.70658451, -1.67748094, -0.36114714, 76.62142181, -71.61489105, -186.69094849, -23.67728615, 18.29874229, -61.56094742, 113.69206238, 24.27825737, 116.79965210, 0.43010545, -0.33092481, -0.75738388, -0.36313608, 1.10713518, 0.83693093, 0.72085351, 100.31000519, 84.83507538, 33.46999741, 0.00000000
1, 5.4901, 218, -1.70326173, -1.34187150, -0.72516817, 81.26984406, -98.81108093, -134.92526245, -21.89418221, 19.55568504, -61.29786682, 114.33390045, 25.91435051, 116.40655518, 0.43854034, -0.32813624, -0.76002431, -0.34981745, 2.13295293, 0.51804000, 1.08775663, 100.31000519, 84.83507538, 33.46999741, 0.00000000
1, 5.5001, 219, -2.02413011, -1.07682955, -0.30906779, 89.38600159, -87.95497131, -84.01425171, -21.16340256, 20.05261612, -60.74247360, 115.00102997, 27.04610634, 115.90341949, 0.44436258, -0.32863587, -0.76171261, -0.33813381, 2.47365236, 0.26575643, 0.67632318, 100.31000519, 84.83507538, 33.46999741, 0.00000000
1, 5.5101, 220, -1.38025165, -1.33018243, 0.33635786, 73.94593811, -27.30874252, -31.26608849, -20.31569672, 17.62642479, -60.71324158, 115.68141174, 27.44643593, 115.77564240, 0.44497696, -0.33021891, -0.76370758, -0.33121273, 1.83915639, 0.52764070, 0.03938931, 100.31000519, 84.83507538, 33.46999741, 0.00000000
1, 5.5201, 221, -0.48643717, -1.54864454, 0.23161715, 21.03082275, 75.37061310, 30.26937485, -20.31569672, 17.62642479, -60.71324158, 116.17272186, 26.84548378, 116.38922119, 0.43846017, -0.33086291, -0.76635551, -0.33313924, 0.94205594, 0.74853051, 0.15488158, 100.31000519, 84.83507538, 33.46999741, 0.00000000
1, 5.5501, 222, -0.85631949, -1.07154369, -0.68968332, -70.77839661, -20.18642044, 178.09716797, -22.88804436, 20.11107826, -61.18093872, 114.33885956, 22.61005020, 115.73826599, 0.42224604, -0.34823292, -0.75429577, -0.36260170, 1.25186431, 0.23810090, 1.07089090, 100.31000519, 84.83507538, 33.46999741, 0.00000000
1, 5.5601, 223, -0.77238476, -1.10410368, -0.24910158, -59.23526382, -51.66217041, 202.19218445, -23.38497543, 19.14644814, -61.12247849, 113.23789215, 20.96424866, 114.35377502, 0.42092234, -0.36095506, -0.74426281, -0.37230188, 1.14082277, 0.25264034, 0.61810762, 100.31000519, 84.83507538, 33.46999741, 0.00000000
1, 5.5701, 224, 0.89316553, -1.32135010, 0.92805427, -19.85837936, -102.73841095, 172.34411621, -23.38497543, 19.14644814, -61.12247849, 112.44779968, 19.77031708, 112.63268280, 0.42249686, -0.37473625, -0.73432946, -0.37660268, -0.55110818, 0.45386621, -0.56539023, 100.31000519, 84.83507538, 33.46999741, 0.00000000
1, 5.5801, 225, 3.29698634, -1.99730933, 2.14790797, 40.41135788, -155.32995605, 62.36264801, -23.29728127, 18.21105003, -62.05787659, 112.25522614, 19.78053665, 110.85521698, 0.42899078, -0.38531333, -0.72782314, -0.37117931, -2.96564269, 1.12220144, -1.78662920, 100.31000519, 84.83507538, 33.46999741, 0.00000000
1, 5.5901, 226, 2.56079984, -2.28654385, -1.88338053, -134.22978210, -126.43149567, 19.54901314, -22.65419388, 18.26951218, -62.02864456, 110.45982361, 20.06120491, 109.52954102, 0.44085038, -0.38554657, -0.71800047, -0.37613857, -2.21345854, 1.41522312, 2.22930193, 100.31000519, 84.83507538, 33.46999741, 0.00000000
1, 5.6001, 227, -0.80320877, -1.14930499, -3.06976342, -161.05818176, 178.01785278, 114.46220398, -22.80035019, 15.25869656, -62.90558243, 109.30020142, 18.38480949, 110.89802551, 0.43123111, -0.38051322, -0.71556515, -0.39650473, 1.13891184, 0.26446170, 3.38270187, 100.31000519, 84.83507538, 33.46999741, 0.00000000
1, 5.6101, 228, -0.43893784, -0.46544430, 1.08804929, -32.46899033, -176.14686584, 191.87390137, -23.67728615, 16.54487038, -63.25635529, 108.27040863, 17.11795616, 108.50404358, 0.43635499, -0.39741480, -0.70133328, -0.39973441, 0.73593336, -0.44030148, -0.78496766, 100.31000519, 84.83507538, 33.46999741, 0.00000000
1, 5.6201, 229, -1.43403089, -1.23608935, 1.24172473, 67.65138245, -358.71292114, 202.86256409, -23.67728615, 16.54487038, -63.25635529, 107.73694611, 16.29226494, 104.28906250, 0.44855633, -0.42467183, -0.68253964, -0.39062858, 1.71701467, 0.32233226, -0.95251930, 100.31000519, 84.83507538, 33.46999741, 0.00000000
1, 5.6301, 230, -1.64836514, -1.87236583, 0.01660868, 60.18973160, -154.37435913, 159.47357178, -21.86495209, 15.34638977, -63.54866791, 107.78483582, 15.23762131, 102.25672913, 0.44996336, -0.44172245, -0.67248315, -0.38753164, 1.91803098, 0.95514131, 0.26944265, 100.31000519, 84.83507538, 33.46999741, 0.00000000
1, 5.6401, 231, -1.20898998, -1.73132205, -0.60056484, -39.19351196, 67.46193695, 97.00850677, -22.56650162, 16.77871895, -63.37328339, 107.48439026, 14.10847950, 102.61701965, 0.44420803, -0.44357347, -0.67002535, -0.39621708, 1.46140814, 0.80999959, 0.88857323, 100.31000519, 84.83507538, 33.46999741, 0.00000000
1, 5.6501, 232, -0.63194835, -0.89231503, -0.20336470, -80.00644684, 96.72382355, 96.77084351, -23.41420555, 14.90792179, -63.95790482, 106.84223175, 12.89699936, 103.27612305, 0.43822777, -0.44275421, -0.66722006, -0.40834138, 0.86330986, -0.03751643, 0.48573476, 100.31000519, 84.83507538, 33.46999741, 0.00000000
1, 5.6601, 233, -0.20346043, -0.89243674, 0.55782753, -21.75977707, -27.00173950, 130.27070618, -24.70038033, 15.55100822, -64.33791351, 106.49274445, 11.72414017, 102.63142395, 0.43592396, -0.45045814, -0.66035807, -0.41350347, 0.41268748, -0.04522098, -0.28029513, 100.31000519, 84.83507538, 33.46999741, 0.00000000
1, 5.6701, 234, 0.24442793, -0.92295325, 1.53017592, 4.50022078, -141.72789001, 147.30430603, -24.64191818, 12.01403046, -63.92867661, 106.19097900, 10.70646000, 100.82421875, 0.43848822, -0.46418178, -0.64925182, -0.41320151, -0.05615397, -0.02144936, -1.25554490, 100.31000519, 84.83507538, 33.46999741, 0.00000000
1, 5.6801, 235, -0.03482610, -0.70158350, 0.62656564, -5.41533327, -51.81259537, 131.48677063, -24.64191818, 12.01403046, -63.92867661, 105.97626495, 9.56836796, 99.94688416, 0.43680787, -0.47332147, -0.64161634, -0.41652644, 0.20742643, -0.24580857, -0.35571709, 100.31000519, 84.83507538, 33.46999741, 0.00000000
1, 5.6901, 236, -0.45026287, -0.63875055, -0.17139418, -24.01938820, 92.80561829, 113.31558228, -25.08038521, 15.31715870, -64.33791351, 105.82928467, 8.22472000, 100.53779602, 0.42843521, -0.47533360, -0.63956308, -0.42598164, 0.60240704, -0.31160226, 0.43984455, 100.31000519, 84.83507538, 33.46999741, 0.00000000
1, 5.7001, 237, -1.09172177, -0.65057206, 0.64153963, -17.90862465, 38.46785736, 97.95681000, -26.42502213, 15.25869656, -64.27944946, 105.66892242, 7.17696285, 100.64489746, 0.42334247, -0.47869030, -0.63626760, -0.43220416, 1.22114396, -0.30473238, -0.37659317, 100.31000519, 84.83507538, 33.46999741, 0.00000000
1, 5.7101, 238, -1.13050199, -1.02386451, 0.37440318, -16.26985741, -8.42608356, 86.53040314, -26.83425903, 15.08330917, -64.36714172, 105.47074890, 6.36526871, 100.33042908, 0.42119807, -0.48320064, -0.63171822, -0.43593746, 1.24574065, 0.06636287, -0.11270453, 100.31000519, 84.83507538, 33.46999741, 0.00000000
1, 5.7201, 239, -0.47089198, -1.33515584, -0.00831504, -20.99914169, 61.45309067, 77.28486633, -28.00350761, 14.73253441, -64.27944946, 105.30219269, 5.45736933, 100.72131348, 0.41573018, -0.48432881, -0.62990654, -0.44250643, 0.57206106, 0.37585309, 0.26851290, 100.31000519, 84.83507538, 33.46999741, 0.00000000
1, 5.7301, 240, 0.02096857, -1.27492595, -0.09181466, -24.95882797, 91.32348633, 68.47800446, -28.00350761, 14.73253441, -64.27944946, 105.10385132, 4.55945063, 101.42250824, 0.40916732, -0.48360586, -0.62928343, -0.45023331, 0.06441902, 0.31352577, 0.35083377, 100.31000519, 84.83507538, 33.46999741, 0.00000000
1, 5.7401, 241, 0.28329146, -1.14421463, 0.09199545, -26.82468224, 68.19272614, 57.66260529, -28.52966881, 14.20637226, -64.42560577, 104.87475586, 3.82613969, 101.93447113, 0.40426427, -0.48311985, -0.62822157, -0.45662165, -0.21220714, 0.18042926, 0.16434447, 100.31000519, 84.83507538, 33.46999741, 0.00000000
1, 5.7501, 242, 0.24827571, -1.10519218, 0.06588198, -27.90768623, 28.80789185, 59.75211716, -29.37737465, 13.94329166, -64.68869019, 104.60520172, 3.17441773, 102.06211090, 0.40145871, -0.48425782, -0.62560320, -0.46146083, -0.18884943, 0.13958079, 0.18638620, 100.31000519, 84.83507538, 33.46999741, 0.00000000
1, 5.7601, 243, 0.11458192, -0.98406363, 0.26313967, -25.90751648, -4.52993345, 64.99607849, -29.49429893, 11.34171295, -64.77638245, 104.33763123, 2.55537796, 101.85643768, 0.40015930, -0.48707789, -0.62165052, -0.46494979, -0.06667218, 0.01635270, -0.01546231, 100.31000519, 84.83507538, 33.46999741, 0.00000000
1, 5.7701, 244, -0.07229569, -0.99053204, 0.30065262, -21.23827171, -29.31320953, 63.03145218, -30.31277466, 13.85559750, -65.06869507, 104.10950470, 2.01509809, 101.41782379, 0.40006921, -0.49094296, -0.61707968, -0.46704644, 0.11012112, 0.02128139, -0.05747506, 100.31000519, 84.83507538, 33.46999741, 0.00000000
1, 5.7801, 245, -0.42431509, -0.99669218, 0.24009480, -20.55969238, -26.32436180, 57.71354294, -30.31277466, 13.85559750, -65.06869507, 103.88966370, 1.47802246, 101.02170563, 0.39980674, -0.49456680, -0.61269075, -0.46922106, 0.45326924, 0.02632495, -0.00138657, 100.31000519, 84.83507538, 33.46999741, 0.00000000
1, 5.7901, 246, -0.52824098, -0.97898805, 0.26605850, -22.05999756, -9.60202980, 51.20842361, -30.54662323, 10.64016342, -65.79947662, 103.66558075, 1.00270283, 100.80706787, 0.39915842, -0.49692649, -0.60923958, -0.47176662, 0.54812527, 0.00741254, -0.03135701, 100.31000519, 84.83507538, 33.46999741, 0.00000000
1, 5.8001, 247, -0.63551903, -0.95883167, 0.41870722, -22.52657509, 12.02048492, 41.16150665, -30.25431061, 13.65097904, -65.27330780, 103.44145966, 0.57395744, 100.82801056, 0.39778981, -0.49783283, -0.60694498, -0.47491422, 0.64723819, -0.01403858, -0.18799219, 100.31000519, 84.83507538, 33.46999741, 0.00000000
1, 5.8101, 248, -0.59672308, -0.95481515, 0.33935469, -23.04617691, 39.46332169, 30.95605850, -31.39432907, 13.27097321, -65.33177185, 103.21363831, 0.18183367, 101.14116669, 0.39540899, -0.49703020, -0.60601276, -0.47891676, 0.60159683, -0.01890431, -0.11236182, 100.31000519, 84.83507538, 33.46999741, 0.00000000
1, 5.8201, 249, -0.30042946, -0.95655167, 0.28613192, -23.38615799, 67.55448151, 24.30404282, -31.13124847, 11.45863724, -65.24407959, 102.98017120, -0.20749997, 101.74456787, 0.39182448, -0.49467164, -0.60630506, -0.48390877, 0.29862007, -0.01801960, -0.06234548, 100.31000519, 84.83507538, 33.46999741, 0.00000000
1, 5.8301, 250, 0.00098324, -0.96195614, 0.24332874, -22.15417290, 65.16418457, 22.00557327, -31.13124847, 11.45863724, -65.24407959, 102.75527191, -0.55895585, 102.33136749, 0.38843483, -0.49228156, -0.60666871, -0.48860043, -0.00915324, -0.01341409, -0.02270393, 100.31000519, 84.83507538, 33.46999741, 0.00000000
1, 5.8401, 251, 0.12249475, -0.96996057, 0.17066380, -20.90196609, 47.11070251, 22.89130402, -32.15433884, 13.38789845, -65.91639709, 102.54170227, -0.88535440, 102.74137115, 0.38585407, -0.49076959, -0.60638851, -0.49249858, -0.13626918, -0.00606798, 0.04653515, 100.31000519, 84.83507538, 33.46999741, 0.00000000
1, 5.8501, 252, 0.06629638, -0.99286664, 0.12040140, -20.72331810, 32.61052322, 24.10323524, -32.38819122, 12.94942951, -66.17948151, 102.33027649, -1.19105422, 103.00834656, 0.38397211, -0.48994246, -0.60556293, -0.49579787, -0.08541420, 0.01620708, 0.09300152, 100.31000519, 84.83507538, 33.46999741, 0.00000000
1, 5.8601, 253, -0.05514818, -1.01708901, 0.16166000, -21.16729355, 23.80429077, 24.40724182, -32.82666016, 13.06635475, -66.00408936, 102.11499786, -1.48021078, 103.18972778, 0.38255543, -0.48949113, -0.60440087, -0.49874789, 0.03078654, 0.03967381, 0.04773132, 100.31000519, 84.83507538, 33.46999741, 0.00000000
1, 5.8701, 254, -0.15029575, -1.00379658, 0.21493429, -22.00991058, 27.18821526, 23.88521194, -33.55743790, 12.51096153, -66.61795044, 101.88930511, -1.77052891, 103.40643311, 0.38101473, -0.48883009, -0.60332954, -0.50186306, 0.12077865, 0.02561731, -0.00955404, 100.31000519, 84.83507538, 33.46999741, 0.00000000
1, 5.8801, 255, -0.15872987, -0.97582507, 0.23908554, -21.89217758, 36.46568680, 23.42132950, -33.55743790, 12.51096153, -66.61795044, 101.66476440, -2.08578324, 103.71718597, 0.37891096, -0.48779157, -0.60256505, -0.50537235, 0.12389288, -0.00304704, -0.03760110, 100.31000519, 84.83507538, 33.46999741, 0.00000000
1, 5.8901, 256, -0.10541124, -0.96305180, 0.23457631, -21.53034019, 43.37586212, 23.72163582, -33.41128159, 10.96170712, -66.47179413, 101.43520355, -2.40493155, 104.09538269, 0.37649265, -0.48640770, -0.60203803, -0.50912786, 0.06497072, -0.01640620, -0.03685227, 100.31000519, 84.83507538, 33.46999741, 0.00000000
1, 5.9001, 257, -0.02288290, -0.95861363, 0.21467993, -21.59683609, 47.63508224, 24.75288773, -34.05437088, 12.92019844, -66.61795044, 101.20101166, -2.74096942, 104.51475525, 0.37379861, -0.48487490, -0.60159028, -0.51308894, -0.02325791, -0.02136728, -0.02074217, 100.31000519, 84.83507538, 33.46999741, 0.00000000
1, 5.9101, 258, 0.07468437, -0.94506204, 0.20630433, -22.55150223, 46.13468552, 26.70972443, -34.25898743, 12.10172462, -67.02718353, 100.95571136, -3.09163570, 104.91717529, 0.37112576, -0.48346886, -0.60095286, -0.51708728, -0.12681887, -0.03543299, -0.01628744, 100.31000519, 84.83507538, 33.46999741, 0.00000000
1, 5.9201, 259, 0.11887950, -0.90882897, 0.16356407, -22.24588013, 40.82283783, 30.47001648, -34.84361267, 12.33557415, -66.73487091, 100.71432495, -3.46763754, 105.26194763, 0.36853850, -0.48249823, -0.59998435, -0.52095467, -0.17726898, -0.07205962, 0.02237744, 100.31000519, 84.83507538, 33.46999741, 0.00000000
1, 5.9301, 260, 0.14572643, -0.91381288, 0.15174395, -21.09405899, 30.55622101, 35.62620926, -34.84361267, 12.33557415, -66.73487091, 100.48858643, -3.84893680, 105.49744415, 0.36633819, -0.48218289, -0.59859335, -0.52438742, -0.21086520, -0.06739278, 0.03022654, 100.31000519, 84.83507538, 33.46999741, 0.00000000
1, 5.9401, 261, 0.18462731, -0.93358815, 0.15824026, -22.45578957, 23.41844177, 39.39925766, -34.93130493, 11.86787510, -67.52411652, 100.25367737, -4.27896929, 105.65787506, 0.36424452, -0.48244801, -0.59665644, -0.52779818, -0.25680655, -0.04788456, 0.01975438, 100.31000519, 84.83507538, 33.46999741, 0.00000000
1, 5.9501, 262, 0.12447283, -0.94809878, 0.08877911, -21.90445900, 10.87903976, 42.51094437, -35.57439423, 12.86173630, -67.17333984, 100.03324127, -4.71713924, 105.69084167, 0.36262819, -0.48346239, -0.59420419, -0.53074139, -0.20407644, -0.03340396, 0.08500190, 100.31000519, 84.83507538, 33.46999741, 0.00000000
1, 5.9601, 263, 0.04612091, -0.98611295, 0.09180798, -19.06064796, -10.19115067, 46.31900024, -35.63285446, 12.33557415, -67.55334473, 99.85936737, -5.15655184, 105.51042938, 0.36179978, -0.48573196, -0.59104395, -0.53275937, -0.13335289, 0.00465897, 0.07836441, 100.31000519, 84.83507538, 33.46999741, 0.00000000
1, 5.9701, 264, 0.00176041, -1.00598526, 0.10088529, -19.99819756, -8.86894798, 47.50164413, -36.15901566, 12.10172462, -67.84565735, 99.67630768, -5.61038065, 105.34236145, 0.36088085, -0.48796105, -0.58781970, -0.53490841, -0.09679816, 0.02468991, 0.06598482, 100.31000519, 84.83507538, 33.46999741, 0.00000000
1, 5.9801, 265, -0.06929673, -1.01124787, 0.11726498, -20.58830833, -14.07280540, 49.33051682, -36.21747971, 12.42326832, -67.14411163, 99.48851013, -6.07461166, 105.12004089, 0.36018631, -0.49048686, -0.58428115, -0.53693950, -0.03381353, 0.03017104, 0.04610671, 100.31000519, 84.83507538, 33.46999741, 0.00000000
1, 5.9901, 266, -0.17698632, -1.03366661, 0.10873243, -21.07362747, -19.29217148, 50.38653564, -36.21747971, 12.42326832, -67.14411163, 99.30903625, -6.54114628, 104.84645844, 0.35969323, -0.49329531, -0.58052796, -0.53876513, 0.06584748, 0.05293575, 0.05106786, 100.31000519, 84.83507538, 33.46999741, 0.00000000
1, 6.0001, 267, -0.19445544, -1.03838277, 0.15550157, -22.25452232, -8.40051079, 50.41580963, -36.12978745, 12.07249355, -67.55334473, 99.10703278, -7.02613354, 104.68242645, 0.35868993, -0.49554300, -0.57704610, -0.54110670, 0.07492241, 0.05798106, 0.00078645, 100.31000519, 84.83507538, 33.46999741, 0.00000000
1, 6.0101, 268, -0.07711514, -1.03159642, 0.17969938, -22.17211533, -0.38424960, 50.97388077, -36.45132828, 11.98479939, -68.13796997, 98.89708710, -7.52965021, 104.59898376, 0.35724482, -0.49743050, -0.57378215, -0.54379517, -0.05108000, 0.05164224, -0.02684219, 100.31000519, 84.83507538, 33.46999741, 0.00000000
1, 6.0201, 269, 0.06423099, -1.04056871, 0.18537322, -22.75532150, -0.18178935, 53.22946548, -37.12364578, 12.56942368, -67.96258545, 98.68218231, -8.05613136, 104.51585388, 0.35569796, -0.49939173, -0.57038540, -0.54657793, -0.20139286, 0.06121688, -0.03600793, 100.31000519, 84.83507538, 33.46999741, 0.00000000
1, 6.0301, 270, 0.16369118, -1.04427373, 0.19724260, -24.99411583, -9.64213181, 57.67689133, -37.56211472, 11.83864307, -68.72259521, 98.46399689, -8.58501244, 104.33379364, 0.35463029, -0.50183600, -0.56650656, -0.54906130, -0.31016165, 0.06564794, -0.05154277, 100.31000519, 84.83507538, 33.46999741, 0.00000000
1, 6.0401, 271, 0.17329976, -1.04563498, 0.22813414, -28.47406006, -16.11990356, 63.68339539, -37.56211472, 11.83864307, -68.72259521, 98.22010040, -9.19282818, 104.07975006, 0.35359916, -0.50487041, -0.56185013, -0.55172282, -0.32960197, 0.06784859, -0.08657074, 100.31000519, 84.83507538, 33.46999741, 0.00000000
1, 6.0501, 272, 0.15268064, -1.07534230, 0.27150297, -31.87889290, -18.59969521, 69.31103516, -37.53288651, 11.57556248, -68.57643890, 97.95014191, -9.85414505, 103.79516602, 0.35255158, -0.50817406, -0.55668151, -0.55459195, -0.32016763, 0.09863421, -0.13476950, 100.31000519, 84.83507538, 33.46999741, 0.00000000
1, 6.0601, 273, 0.09410226, -1.12716293, 0.29074657, -34.67963791, -21.07035065, 74.77346039, -37.97135162, 11.40017509, -68.81028748, 97.66088867, -10.56767178, 103.48094940, 0.35146481, -0.51175076, -0.55103105, -0.55762762, -0.27355045, 0.15182972, -0.15931001, 100.31000519, 84.83507538, 33.46999741, 0.00000000
1, 6.1601, 274, 0.19924323, -1.58700657, 0.33341399, -62.48582077, 18.58238602, 136.50253296, -43.02835464, 11.69248772, -71.82110596, 92.85622406, -21.36068726, 102.41893768, 0.31966868, -0.54559118, -0.47490361, -0.61205298, -0.55582750, 0.65328074, -0.28484637, 100.31000519, 84.83507538, 33.46999741, 0.00000000
1, 6.1701, 275, 0.32841700, -1.66263103, 0.39302635, -63.44306946, 18.10995865, 142.09429932, -44.16837311, 11.75094986, -71.99649048, 92.17618561, -22.78953552, 102.54942322, 0.31428641, -0.54869360, -0.46523026, -0.61945158, -0.70805418, 0.73731101, -0.35567743, 100.31000519, 84.83507538, 33.46999741, 0.00000000
1, 6.1801, 276, 0.20934077, -1.69986224, 0.41448960, -60.81307602, 32.40588379, 146.08203125, -45.13300323, 12.10172462, -72.52265167, 91.45310974, -24.25321007, 102.85426331, 0.30795240, -0.55113286, -0.45586476, -0.62737966, -0.61235714, 0.78398538, -0.38904729, 100.31000519, 84.83507538, 33.46999741, 0.00000000
1, 6.1901, 277, 0.27556810, -1.74172127, 0.53915650, -63.49774933, 54.19323349, 151.70056152, -45.13300323, 12.10172462, -72.52265167, 90.58005524, -25.78017235, 103.42524719, 0.30048066, -0.55242896, -0.44651997, -0.63651681, -0.70274639, 0.83618832, -0.52683675, 100.31000519, 84.83507538, 33.46999741, 0.00000000
1, 6.2001, 278, 0.40327221, -1.83462262, 0.60979116, -63.26802444, 71.17298126, 154.74879456, -46.27301788, 12.07249355, -73.60420990, 89.59500885, -27.32899857, 104.22108459, 0.29209614, -0.55277300, -0.43738097, -0.64638984, -0.85485387, 0.94066489, -0.61218959, 100.31000519, 84.83507538, 33.46999741, 0.00000000
1, 6.2101, 279, 0.55236495, -1.95601737, 0.75417471, -64.38787079, 114.04750061, 155.97775269, -47.50072861, 12.45249939, -74.39344788, 88.32901764, -28.86737061, 105.54857635, 0.28198254, -0.55055684, -0.42909056, -0.65822065, -1.02820182, 1.07446516, -0.77408695, 100.31000519, 84.83507538, 33.46999741, 0.00000000
1, 6.2201, 280, 0.77818263, -1.93612742, 0.79154736, -66.39804840, 140.58753967, 156.07511902, -49.13768005, 12.83250523, -74.89038086, 86.83078003, -30.36646843, 107.24290466, 0.27087194, -0.54658049, -0.42118800, -0.67117733, -1.27725053, 1.06806958, -0.83193469, 100.31000519, 84.83507538, 33.46999741, 0.00000000
1, 6.2301, 281, 0.78548223, -1.85359979, 0.67609960, -70.65717316, 171.67628479, 153.76821899, -50.54077530, 13.59251690, -75.79654694, 85.03203583, -31.77042389, 109.37080383, 0.25887847, -0.54036170, -0.41376016, -0.68541509, -1.30600083, 1.00004148, -0.74074745, 100.31000519, 84.83507538, 33.46999741, 0.00000000
1, 6.3201, 282, -1.34605885, -0.38126236, 0.02321019, -41.13121033, -5.69589901, 98.91732025, -58.05319977, 17.62642479, -82.31510925, 71.43700409, -43.72021103, 119.81169891, 0.18975769, -0.53323621, -0.31720731, -0.76094067, 0.65896064, -0.30855960, -0.25556040, 100.31000519, 84.83507538, 33.46999741, 0.00000000
1, 6.3301, 283, -1.09457207, -0.22336899, 0.33573839, -16.20548820, -8.48291683, 64.09482574, -58.11166382, 18.00643158, -82.05203247, 71.24633026, -44.44131470, 119.94706726, 0.18584298, -0.53596288, -0.31300670, -0.76173025, 0.39701539, -0.45645228, -0.56939459, 100.31000519, 84.83507538, 33.46999741, 0.00000000
1, 6.3401, 284, -0.59476948, -0.16530102, 0.49041629, 4.75267553, 3.17672968, 27.47641182, -58.14089203, 17.77258110, -82.54895782, 71.17720795, -44.69088364, 120.11412048, 0.18370385, -0.53657472, -0.31209353, -0.76219296, -0.10896881, -0.50920516, -0.72149837, 100.31000519, 84.83507538, 33.46999741, 0.00000000
1, 6.3501, 285, -0.15089202, -0.07239512, 0.52119583, 21.80578041, 28.99073410, -2.30530977, -58.14089203, 17.77258110, -82.54895782, 71.13185883, -44.57443619, 120.48881531, 0.18205309, -0.53492713, -0.31411892, -0.76291490, -0.55308294, -0.60177594, -0.75165850, 100.31000519, 84.83507538, 33.46999741, 0.00000000
1, 6.3601, 286, 0.12228241, -0.04693866, 0.46078193, 38.31516647, 43.73919678, -26.17468071, -58.11166382, 17.77258110, -82.02279663, 71.19274902, -44.18399429, 120.94852448, 0.18082099, -0.53189462, -0.31858397, -0.76347637, -0.82246470, -0.63060111, -0.69143319, 100.31000519, 84.83507538, 33.46999741, 0.00000000
1, 6.3701, 287, 0.29275239, -0.06136598, 0.26092961, 45.69810104, 53.13912582, -48.88110352, -57.64396286, 17.83104324, -83.27973938, 71.31699371, -43.54869080, 121.42678833, 0.18049546, -0.52769870, -0.32472652, -0.76387709, -0.98559892, -0.62253100, -0.49207771, 100.31000519, 84.83507538, 33.46999741, 0.00000000
1, 6.3801, 288, 0.26384732, -0.04267774, 0.09753215, 52.87580109, 57.46791458, -64.95825958, -57.08856964, 18.26951218, -82.75357819, 71.53642273, -42.73366547, 121.88206482, 0.18086074, -0.52279437, -0.33222669, -0.76393771, -0.94673383, -0.65020907, -0.32955855, 100.31000519, 84.83507538, 33.46999741, 0.00000000
1, 6.3901, 289, 0.13777010, -0.03976718, 0.00685588, 62.66825867, 41.14838028, -74.55040741, -56.70856476, 17.30488205, -82.78281403, 72.01914978, -41.89489746, 122.09268951, 0.18180117, -0.51885438, -0.34043592, -0.76278561, -0.80963045, -0.66391456, -0.23778112, 100.31000519, 84.83507538, 33.46999741, 0.00000000
1, 6.4001, 290, -0.01945188, -0.05903064, -0.04728386, 72.48088837, 9.74823093, -84.94042206, -56.70856476, 17.30488205, -82.78281403, 72.88740540, -41.05381393, 121.87228394, 0.18390626, -0.51680541, -0.34923625, -0.75968736, -0.64133698, -0.65672910, -0.17814398, 100.31000519, 84.83507538, 33.46999741, 0.00000000
1, 6.4701, 291, -0.16950911, -0.20302291, 0.05046925, 125.08425140, -57.38692474, -214.44967651, -49.07921600, 14.52791595, -78.36889648, 84.94420624, -31.04449844, 114.32584381, 0.23355342, -0.51864344, -0.43961024, -0.69512922, -0.35810131, -0.64233142, -0.13560899, 100.31000519, 84.83507538, 33.46999741, 0.00000000
1, 6.4801, 292, -0.10618482, -0.22517680, 0.03092967, 130.64047241, -51.17291260, -229.83029175, -47.35457230, 14.26483440, -78.01811981, 86.64080048, -28.78652191, 113.53727722, 0.24353455, -0.51545507, -0.45675892, -0.68291163, -0.38852489, -0.64176714, -0.09206508, 100.31000519, 84.83507538, 33.46999741, 0.00000000
1, 6.4901, 293, -0.08170045, -0.26819214, 0.02228234, 138.96231079, -54.61050034, -245.54629517, -45.68839645, 13.50482273, -76.96579742, 88.36731720, -26.35477829, 112.79653168, 0.25407606, -0.51171440, -0.47474515, -0.66948557, -0.37662664, -0.61984146, -0.05829769, 100.31000519, 84.83507538, 33.46999741, 0.00000000
1, 6.5001, 294, -0.10379463, -0.35173994, 0.01171030, 146.95091248, -61.99051285, -257.46124268, -45.68839645, 13.50482273, -76.96579742, 90.13816833, -23.78585625, 112.07050323, 0.26509684, -0.50774843, -0.49324903, -0.65469122, -0.31501579, -0.55620766, -0.02088518, 100.31000519, 84.83507538, 33.46999741, 0.00000000
1, 6.5101, 295, -0.16263206, -0.45549884, -0.00229962, 153.98233032, -71.02444458, -269.01782227, -43.26220322, 12.97866154, -76.38117218, 91.94620514, -21.08045578, 111.35052490, 0.27666250, -0.50359148, -0.51209331, -0.63844651, -0.21364896, -0.47064385, 0.02165415, 100.31000519, 84.83507538, 33.46999741, 0.00000000
1, 6.5201, 296, -0.25859845, -0.57357848, -0.04180185, 162.34574890, -78.52256012, -280.95785522, -40.48523712, 13.24174213, -76.05963135, 93.79443359, -18.23217964, 110.66242218, 0.28863883, -0.49911398, -0.53133076, -0.62069362, -0.07197449, -0.36857557, 0.09125338, 100.31000519, 84.83507538, 33.46999741, 0.00000000
1, 6.5301, 297, -0.37961063, -0.70884860, -0.08757579, 172.98228455, -84.35630798, -293.22012329, -38.46828461, 13.59251690, -75.56269836, 95.69515991, -15.24128914, 110.03337860, 0.30082095, -0.49421436, -0.55102140, -0.60136056, 0.09796768, -0.24668898, 0.16875991, 100.31000519, 84.83507538, 33.46999741, 0.00000000
1, 6.5401, 298, -0.50790769, -0.88763034, -0.04713805, 185.07452393, -90.11110687, -306.07745361, -36.01286316, 13.73867321, -74.45191193, 97.67076111, -12.09287071, 109.47404480, 0.31315160, -0.48882052, -0.57123858, -0.58023894, 0.27816695, -0.07825627, 0.16170464, 100.31000519, 84.83507538, 33.46999741, 0.00000000
1, 6.6301, 299, 0.03110696, -2.45198417, 0.13572483, 133.19995117, 17.61630058, -303.97103882, -21.89418221, 18.67874908, -70.91493988, 113.71018982, 18.14683342, 115.69039917, 0.39913595, -0.36703923, -0.74588013, -0.38682774, 0.26333788, 1.57270706, 0.23467147, 100.31000519, 84.83507538, 33.46999741, 0.00000000
1, 6.6401, 300, 0.17459179, -2.35049272, 0.05416070, 115.98217010, 12.32957268, -269.59680176, -20.87108994, 20.28646660, -70.15492249, 115.29402924, 20.55380440, 116.99145508, 0.40365112, -0.35296297, -0.75858396, -0.37018022, 0.16194907, 1.49513197, 0.33608836, 100.31000519, 84.83507538, 33.46999741, 0.00000000
1, 6.6501, 301, -0.11014555, -1.92341208, -0.33451283, 100.97788239, -26.37074471, -217.22421265, -20.28646660, 21.36802101, -70.71031952, 116.57752991, 22.62708855, 117.75559998, 0.40927422, -0.34288082, -0.76740980, -0.35497823, 0.48346519, 1.09081614, 0.73973072, 100.31000519, 84.83507538, 33.46999741, 0.00000000
1, 6.6601, 302, -1.35859430, -1.46293461, -0.99419332, 91.67992401, -84.38185120, -153.44924927, -20.28646660, 21.36802101, -70.71031952, 117.46491241, 24.37982941, 117.69361115, 0.41691291, -0.33842736, -0.77169061, -0.34079957, 1.76398528, 0.65020978, 1.40602028, 100.31000519, 84.83507538, 33.46999741, 0.00000000
1, 6.6701, 303, -2.12124920, -0.97332168, -0.74489039, 91.69065094, -67.57667542, -87.62391663, -19.05875397, 21.68956375, -70.12569427, 118.29129791, 25.47217941, 117.48480988, 0.42135489, -0.33783802, -0.77447200, -0.32942179, 2.54754686, 0.17492869, 1.16277671, 100.31000519, 84.83507538, 33.46999741, 0.00000000
1, 6.6801, 304, -1.61257541, -1.22847819, 0.23966612, 81.36354828, -15.17708969, -22.43098640, -18.67874908, 22.77112007, -70.12569427, 119.08886719, 25.72713280, 117.45506287, 0.42054620, -0.33980367, -0.77686524, -0.32273021, 2.04596782, 0.43864852, 0.18839300, 100.31000519, 84.83507538, 33.46999741, 0.00000000
1, 6.6901, 305, -0.41990703, -1.63561070, 0.22405659, 8.64692020, 92.13388824, 43.69072723, -19.23414230, 22.42034531, -70.44723511, 119.45604706, 24.89601135, 118.10833740, 0.41279292, -0.34047452, -0.77917016, -0.32645518, 0.84643888, 0.84720534, 0.21557456, 100.31000519, 84.83507538, 33.46999741, 0.00000000
1, 6.7001, 306, 0.22180426, -1.64591348, -0.41436720, -44.39382935, 128.95535278, 99.64457703, -20.25723457, 22.18649483, -69.92107391, 119.30079651, 23.39463997, 118.80559540, 0.40244132, -0.34194630, -0.77952147, -0.33683842, 0.18572550, 0.85063970, 0.86072385, 100.31000519, 84.83507538, 33.46999741, 0.00000000
1, 6.8501, 307, -0.18212615, -0.66133511, 0.54939467, -15.97386742, -144.46296692, 113.63932037, -25.57731628, 14.87869072, -74.45191193, 108.81504822, 9.53702068, 98.91494751, 0.42837900, -0.48997825, -0.64726311, -0.39681661, 0.35089445, -0.27147570, -0.23064223, 100.31000519, 84.83507538, 33.46999741, 0.00000000
1, 6.8601, 308, -0.41006443, -0.80191088, -0.31413990, -29.88530922, 1.51689398, 100.68117523, -25.57731628, 14.87869072, -74.45191193, 108.46870422, 8.57739258, 98.60472107, 0.42605227, -0.49447763, -0.64196062, -0.40231586, 0.56642878, -0.13375601, 0.62697417, 100.31000519, 84.83507538, 33.46999741, 0.00000000
1, 6.8701, 309, -0.47927743, -0.89805317, 0.06582240, -27.84795189, -7.78560448, 95.66641235, -26.57117844, 15.46331501, -74.86115265, 108.14014435, 7.69189787, 98.22815704, 0.42428607, -0.49906698, -0.63655502, -0.40707648, 0.61838949, -0.04254111, 0.24146414, 100.31000519, 84.83507538, 33.46999741, 0.00000000
1, 6.8801, 310, -0.85441720, -1.04065394, 0.55117697, -8.04359341, -13.35286331, 87.95570374, -26.60040855, 15.43408298, -74.59806824, 108.01284790, 6.87339783, 97.82704926, 0.42209315, -0.50421762, -0.63187677, -0.41028500, 0.97820890, 0.09647395, -0.24751674, 100.31000519, 84.83507538, 33.46999741, 0.00000000
1, 6.8901, 311, -0.94772840, -1.27144408, 0.08500045, -19.90565300, 64.42993164, 74.08204651, -27.27272606, 15.63870239, -74.89038086, 107.85812378, 5.97054338, 98.21564484, 0.41674042, -0.50523823, -0.63026410, -0.41692802, 1.05761993, 0.32557675, 0.21626690, 100.31000519, 84.83507538, 33.46999741, 0.00000000
1, 6.9001, 312, -0.45171803, -1.38253653, -0.18672577, -23.72851181, 111.34245300, 67.13432312, -28.03273773, 15.78485775, -74.94884491, 107.70461273, 4.99199152, 99.07610321, 0.40918410, -0.50397903, -0.63046259, -0.42554748, 0.54549527, 0.43471286, 0.48718059, 100.31000519, 84.83507538, 33.46999741, 0.00000000
1, 6.9101, 313, 0.15100147, -1.14219916, -0.16415067, -27.01689911, 78.74050903, 60.05464554, -28.06196976, 14.87869072, -75.62116241, 107.48191071, 4.18172169, 99.64806366, 0.40378255, -0.50337386, -0.62961656, -0.43261716, -0.07268281, 0.19200443, 0.46354347, 100.31000519, 84.83507538, 33.46999741, 0.00000000
1, 6.9201, 314, 0.43017918, -0.83054984, 0.34046423, -23.64247322, 74.11223602, 50.85791016, -28.06196976, 14.87869072, -75.62116241, 107.28376007, 3.47540355, 100.20565033, 0.39880937, -0.50251710, -0.62909079, -0.43894482, -0.36577380, -0.12244190, -0.04309486, 100.31000519, 84.83507538, 33.46999741, 0.00000000
1, 7.0001, 315, -0.09991559, -0.96257818, 0.23007235, -24.50284004, 76.55030060, 26.44302368, -31.51125336, 13.56328583, -76.26425171, 105.47060394, -0.66173375, 100.00975037, 0.38564026, -0.51417881, -0.60743976, -0.46681780, 0.09074911, -0.00109621, 0.03639505, 100.31000519, 84.83507538, 33.46999741, 0.00000000
1, 7.0101, 316, 0.14094464, -0.95116794, 0.19041391, -22.68260002, 55.56647110, 26.98878098, -32.47588348, 14.38175964, -76.49810028, 105.23757172, -1.06898344, 100.47468567, 0.38260174, -0.51257342, -0.60717076, -0.47141087, -0.15749511, -0.01346918, 0.07260615, 100.31000519, 84.83507538, 33.46999741, 0.00000000
1, 7.0201, 317, 0.15438403, -0.96414864, 0.15211579, -21.07215691, 24.52694702, 29.92644691, -32.47588348, 14.38175964, -76.49810028, 105.02424622, -1.42222238, 100.63381195, 0.38100338, -0.51244462, -0.60578400, -0.47461852, -0.17734364, -0.00131104, 0.10718381, 100.31000519, 84.83507538, 33.46999741, 0.00000000
1, 7.0301, 318, 0.02341856, -0.97778893, 0.16202730, -20.18236542, -8.78919888, 32.39839554, -32.50511551, 14.17714119, -76.17655945, 104.82025909, -1.71489537, 100.46417236, 0.38104969, -0.51384020, -0.60316205, -0.47640836, -0.05192251, 0.01151582, 0.09341065, 100.31000519, 84.83507538, 33.46999741, 0.00000000
1, 7.0401, 319, -0.15898181, -0.97691286, 0.25100145, -18.40351105, -27.82263756, 32.93859863, -32.79742813, 14.06021595, -76.52732849, 104.64837646, -1.96370077, 100.11141205, 0.38195655, -0.51611978, -0.59999084, -0.47722176, 0.12569973, 0.00980485, 0.00083788, 100.31000519, 84.83507538, 33.46999741, 0.00000000
1, 7.0501, 320, -0.21318901, -0.95968342, 0.28678453, -19.33724403, -8.30572891, 31.41769791, -33.03127670, 14.03098488, -76.32270813, 104.46154022, -2.24761033, 99.95232391, 0.38194364, -0.51746649, -0.59749246, -0.47890544, 0.17516355, -0.00811761, -0.03813025, 100.31000519, 84.83507538, 33.46999741, 0.00000000
1, 7.0601, 321, -0.14916635, -0.94682086, 0.29554522, -19.34346581, 6.69534731, 30.44335365, -33.46974564, 14.29406548, -76.38117218, 104.26925659, -2.55959392, 99.94206238, 0.38118646, -0.51812863, -0.59553260, -0.48122835, 0.10583896, -0.02162343, -0.05000104, 100.31000519, 84.83507538, 33.46999741, 0.00000000
1, 7.0701, 322, -0.06399138, -0.95878232, 0.27018228, -18.48748398, 11.04284859, 31.02681160, -33.46974564, 14.29406548, -76.38117218, 104.08365631, -2.88784194, 99.97359467, 0.38013619, -0.51866144, -0.59372115, -0.48371708, 0.01510021, -0.01017553, -0.02767215, 100.31000519, 84.83507538, 33.46999741, 0.00000000
1, 7.1501, 323, -0.05614931, -0.96601939, 0.17421639, -19.96788406, -2.81479216, 46.33110428, -35.25284958, 13.09558582, -77.25811005, 102.49062347, -5.99089575, 100.14153290, 0.36998594, -0.52492988, -0.57619238, -0.50553089, -0.04574049, -0.00529697, 0.04040297, 100.31000519, 84.83507538, 33.46999741, 0.00000000
1, 7.1601, 324, -0.14944118, -0.99262607, 0.11880922, -20.09943008, -4.88422918, 47.61543655, -35.89593506, 13.97252274, -77.31657410, 102.30706787, -6.44618464, 99.99135590, 0.36903599, -0.52688843, -0.57296592, -0.50784945, 0.03985170, 0.02152233, 0.09223800, 100.31000519, 84.83507538, 33.46999741, 0.00000000
1, 7.1701, 325, -0.21271697, -1.02863085, 0.10727945, -20.72029305, -2.11589670, 47.42643356, -35.89593506, 13.97252274, -77.40426636, 102.11511993, -6.90593815, 99.87019348, 0.36797717, -0.52868390, -0.56979829, -0.51030988, 0.09519212, 0.05773547, 0.10015394, 100.31000519, 84.83507538, 33.46999741, 0.00000000
1, 7.1801, 326, -0.17087990, -1.08976912, 0.04752333, -22.02992821, 6.02288389, 46.72573853, -36.12978745, 13.44636059, -77.40426636, 101.88286591, -7.37576246, 99.83050537, 0.36669043, -0.52997905, -0.56676793, -0.51325881, 0.04545527, 0.11918452, 0.15620895, 100.31000519, 84.83507538, 33.46999741, 0.00000000
1, 7.1901, 327, -0.05613324, -1.10114348, 0.10201651, -23.93833923, 10.86808681, 46.62015533, -36.83133698, 13.70944118, -77.78427124, 101.64305878, -7.85491323, 99.84262085, 0.36515671, -0.53102881, -0.56388682, -0.51643068, -0.07767552, 0.13064186, 0.09756229, 100.31000519, 84.83507538, 33.46999741, 0.00000000
1, 7.2001, 328, 0.04278035, -1.08862996, 0.14108905, -24.70183945, 8.33448410, 48.88293076, -37.44519043, 14.20637226, -77.63811493, 101.39946747, -8.35118198, 99.82717896, 0.36367211, -0.53226811, -0.56077319, -0.51958323, -0.18512835, 0.11837724, 0.05444380, 100.31000519, 84.83507538, 33.46999741, 0.00000000
1, 7.2101, 329, 0.10845231, -1.06763101, 0.18651389, -26.32962418, 2.63696456, 52.78131866, -37.35749817, 13.50482273, -77.78427124, 101.14913940, -8.87475872, 99.74970245, 0.36235449, -0.53389233, -0.55720997, -0.52266169, -0.25975293, 0.09774136, 0.00475247, 100.31000519, 84.83507538, 33.46999741, 0.00000000
1, 7.2201, 330, 0.12054601, -1.04777622, 0.22325413, -28.28329849, -3.56779146, 58.84500504, -36.83133698, 13.15404797, -77.69657898, 100.89145660, -9.44648266, 99.60112000, 0.36114061, -0.53601742, -0.55306280, -0.52572280, -0.28147489, 0.07845417, -0.03652525, 100.31000519, 84.83507538, 33.46999741, 0.00000000
1, 7.3701, 331, 0.12963873, -1.78429043, 0.68622577, -59.55401230, 64.78750610, 158.01948547, -46.97456741, 14.61560917, -80.76585388, 93.50012970, -26.31125832, 98.79001617, 0.30838209, -0.58000839, -0.43698174, -0.61444104, -0.56498837, 0.88413024, -0.62865245, 100.31000519, 84.83507538, 33.46999741, 0.00000000
1, 7.3801, 332, 0.17182848, -1.97632563, 0.74099505, -58.10598373, 101.61429596, 161.08712769, -46.97456741, 14.61560917, -80.76585388, 92.44655609, -27.96714020, 99.83853912, 0.29875934, -0.57903749, -0.42844656, -0.62601274, -0.63302791, 1.08801341, -0.69939649, 100.31000519, 84.83507538, 33.46999741, 0.00000000
1, 7.3901, 333, 0.39065683, -2.08072710, 0.84019887, -56.55239105, 148.17724609, 161.24830627, -48.75767136, 16.60333252, -81.67202759, 91.09587860, -29.62348366, 101.47479248, 0.28719166, -0.57537305, -0.42102078, -0.63969398, -0.87762320, 1.20516932, -0.81786287, 100.31000519, 84.83507538, 33.46999741, 0.00000000
1, 7.4001, 334, 0.59162742, -2.03051829, 0.81945151, -54.73309708, 186.70806885, 157.98985291, -49.86845779, 16.66179466, -82.46126556, 89.45815277, -31.21060181, 103.63390350, 0.27417940, -0.56923211, -0.41464508, -0.65488166, -1.10304523, 1.16869164, -0.81983870, 100.31000519, 84.83507538, 33.46999741, 0.00000000
1, 7.4101, 335, 0.55757153, -1.89062905, 0.72744840, -56.08548355, 211.11434937, 155.04855347, -51.44694519, 17.50950050, -83.13358307, 87.55725861, -32.70376587, 106.17159271, 0.26037753, -0.56126827, -0.40871191, -0.67092180, -1.09151936, 1.04321742, -0.75435460, 100.31000519, 84.83507538, 33.46999741, 0.00000000
1, 7.4201, 336, 0.29655075, -1.83259714, 0.58284742, -69.73219299, 213.49906921, 156.75129700, -52.90850449, 18.18181801, -84.68283844, 85.39277649, -34.13609695, 108.84272003, 0.24690418, -0.55260813, -0.40172315, -0.68722719, -0.85139036, 1.00060141, -0.64001012, 100.31000519, 84.83507538, 33.46999741, 0.00000000
1, 7.4301, 337, -0.18785477, -1.89800966, 0.54983014, -86.34913635, 190.05235291, 161.17105103, -52.90850449, 18.18181801, -84.68283844, 83.10823059, -35.54403305, 111.34381866, 0.23466589, -0.54484785, -0.39283937, -0.70267344, -0.38741833, 1.08277345, -0.63926691, 100.31000519, 84.83507538, 33.46999741, 0.00000000
1, 7.4401, 338, -0.21582043, -1.78835797, 0.47020787, -103.94651031, 204.15213013, 155.12380981, -54.07775497, 18.64951706, -85.70593262, 80.43062592, -36.78642273, 114.12380219, 0.22301388, -0.53535295, -0.38318121, -0.71891189, -0.37793857, 0.99105465, -0.59297431, 100.31000519, 84.83507538, 33.46999741, 0.00000000
1, 7.4501, 339, -0.09705327, -1.49873531, 0.15523688, -110.19445801, 206.17971802, 148.90721130, -55.39315796, 16.10640144, -86.49517822, 77.57087708, -37.85402679, 117.02897644, 0.21183778, -0.52508754, -0.37324515, -0.73491228, -0.51156354, 0.72035533, -0.31426123, 100.31000519, 84.83507538, 33.46999741, 0.00000000
1, 7.4601, 340, -0.00061609, -1.19752216, -0.09118263, -97.86496735, 158.98657227, 143.66450500, -56.85472107, 19.70184135, -88.51213074, 75.10334015, -38.87455368, 119.43539429, 0.20185150, -0.51764566, -0.36328083, -0.74788105, -0.62153363, 0.43834960, -0.10046240, 100.31000519, 84.83507538, 33.46999741, 0.00000000
1, 7.5301, 341, -0.06467977, -0.02363390, 0.30704829, 26.24559021, 50.08531570, -2.31470704, -61.09324646, 22.27418900, -88.62905121, 70.76286316, -43.72539520, 123.11550140, 0.17079411, -0.52289999, -0.32790968, -0.76803660, -0.62831092, -0.65831703, -0.54483765, 100.31000519, 84.83507538, 33.46999741, 0.00000000
1, 7.5401, 342, 0.14067946, -0.05532181, 0.24739690, 42.79483414, 39.41395187, -19.92024803, -61.09324646, 22.27418900, -88.62905121, 70.89911652, -43.40613556, 123.53784180, 0.16906227, -0.52031410, -0.33227357, -0.76830041, -0.83008969, -0.62981337, -0.48526192, 100.31000519, 84.83507538, 33.46999741, 0.00000000
1, 7.5501, 343, 0.21014792, -0.07565618, 0.08940215, 49.30221558, 29.38742447, -38.97746277, -61.06401443, 21.80648994, -87.81057739, 71.24989319, -42.94063187, 123.74414825, 0.16860013, -0.51792848, -0.33777636, -0.76761407, -0.89395630, -0.61503613, -0.32532793, 100.31000519, 84.83507538, 33.46999741, 0.00000000
1, 7.5601, 344, 0.18628401, -0.03891833, -0.05330452, 52.38706589, 19.83917236, -52.30125809, -61.03478622, 21.77725792, -87.66442108, 71.75312042, -42.38031769, 123.77252197, 0.16916777, -0.51581538, -0.34393093, -0.76617783, -0.86295968, -0.65930855, -0.17927036, 100.31000519, 84.83507538, 33.46999741, 0.00000000
1, 7.5701, 345, 0.09471142, -0.00260056, -0.11351553, 59.42571259, -1.04011548, -61.56394196, -59.69014740, 20.81262779, -87.28441620, 72.52642059, -41.79624557, 123.50278473, 0.17065778, -0.51489908, -0.35064465, -0.76341552, -0.76375169, -0.70464694, -0.11325173, 100.31000519, 84.83507538, 33.46999741, 0.00000000
1, 7.5801, 346, -0.03844688, 0.01920690, -0.12345741, 69.01399994, -32.76406479, -70.87220001, -60.85939789, 20.37415886, -86.58287048, 73.65529633, -41.21960831, 122.81789398, 0.17327575, -0.51589090, -0.35779539, -0.75882453, -0.62300444, -0.73674518, -0.09316811, 100.31000519, 84.83507538, 33.46999741, 0.00000000
1, 7.5901, 347, -0.15637363, 0.03935713, -0.10778670, 79.68894196, -63.84910583, -83.21107483, -60.85939789, 20.37415886, -86.58287048, 75.17781067, -40.58885574, 121.70628357, 0.17720249, -0.51869363, -0.36581719, -0.75215304, -0.49719241, -0.76855308, -0.09371991, 100.31000519, 84.83507538, 33.46999741, 0.00000000
1, 7.6001, 348, -0.25801915, 0.02687977, -0.07702179, 90.90293121, -87.37229156, -99.14467621, -59.07629395, 18.03566170, -85.20899963, 77.00438690, -39.83594513, 120.28144836, 0.18238901, -0.52262133, -0.37487000, -0.74368930, -0.38632998, -0.76955211, -0.10456300, 100.31000519, 84.83507538, 33.46999741, 0.00000000
1, 7.7501, 349, -0.55581003, -1.27994680, 0.16326909, 176.65940857, -33.42975235, -336.53433228, -40.54370117, 11.16632557, -68.51797485, 103.95202637, -5.13040686, 108.64935303, 0.33024082, -0.48134613, -0.62319922, -0.52045137, 0.44400787, 0.31278867, 0.06211974, 100.31000519, 84.83507538, 33.46999741, 0.00000000
1, 7.7601, 350, -0.45014125, -1.39578485, 0.26832974, 169.23661804, 2.05715656, -351.33239746, -38.26366425, 12.13095570, -68.16719818, 105.58348083, -1.73407269, 109.56214905, 0.33885449, -0.46673346, -0.64530551, -0.50091761, 0.39703089, 0.43080485, -0.01370568, 100.31000519, 84.83507538, 33.46999741, 0.00000000
1, 7.7701, 351, -0.25294051, -1.62133956, 0.30849916, 165.72424316, 27.18807220, -354.03616333, -36.45132828, 12.36480522, -66.67640686, 107.23088074, 1.59136236, 110.81815338, 0.34593990, -0.45021433, -0.66735381, -0.48194566, 0.25834793, 0.66271329, -0.02604988, 100.31000519, 84.83507538, 33.46999741, 0.00000000
1, 7.7801, 352, -0.11163343, -1.99942434, 0.18828720, 169.00430298, 9.87126827, -336.56149292, -34.25898743, 13.70944118, -65.82870483, 108.97231293, 4.76514435, 111.95429230, 0.35279208, -0.43502969, -0.68756288, -0.46210858, 0.17371061, 1.05176532, 0.12170223, 100.31000519, 84.83507538, 33.46999741, 0.00000000
1, 7.7901, 353, -0.08957641, -2.22578192, 0.01379451, 172.20368958, -18.93767548, -314.83795166, -34.25898743, 13.70944118, -65.82870483, 110.78338623, 7.79655695, 112.84806824, 0.36000067, -0.42195988, -0.70549804, -0.44115987, 0.20566864, 1.29315722, 0.32362211, 100.31000519, 84.83507538, 33.46999741, 0.00000000
1, 7.8001, 354, -0.17751773, -2.29857397, -0.06301635, 170.04757690, -47.81563950, -294.34484863, -32.15433884, 14.61560917, -64.83484650, 112.58005524, 10.71391582, 113.49641418, 0.36792928, -0.41080114, -0.72102863, -0.41950944, 0.34491250, 1.38410878, 0.42667016, 100.31000519, 84.83507538, 33.46999741, 0.00000000
1, 7.8101, 355, -0.27320004, -2.32231879, -0.03000362, 155.13182068, -61.28487015, -273.88287354, -30.42969894, 15.58023930, -63.34405136, 114.23673248, 13.47513199, 114.03129578, 0.37616783, -0.40060663, -0.73424625, -0.39861593, 0.48892760, 1.42787480, 0.41684592, 100.31000519, 84.83507538, 33.46999741, 0.00000000
1, 7.8201, 356, -0.33564362, -2.26544476, -0.06836909, 131.36979675, -47.09336853, -250.93139648, -27.94504547, 16.25255775, -62.08710861, 115.71073914, 15.95207787, 114.68267059, 0.38325244, -0.39033589, -0.74578726, -0.38020635, 0.59549451, 1.39164209, 0.47449201, 100.31000519, 84.83507538, 33.46999741, 0.00000000
1, 7.9801, 357, -1.34485471, -1.38907492, 0.50610584, 45.08898163, -130.11210632, 135.69003296, -25.02192307, 16.63256264, -62.49634552, 112.66812134, 14.79385471, 105.11389923, 0.41929775, -0.44513142, -0.69868904, -0.37132344, 1.60432279, 0.49752009, -0.13941582, 100.31000519, 84.83507538, 33.46999741, 0.00000000
1, 7.9901, 358, -1.37913275, -1.81390977, -0.49484745, -0.26982221, 75.21997833, 103.42795563, -25.34346581, 16.69102669, -62.55480957, 112.73889160, 13.54964256, 105.41901398, 0.41134572, -0.44895101, -0.69737345, -0.37803182, 1.62314034, 0.91986138, 0.86293334, 100.31000519, 84.83507538, 33.46999741, 0.00000000
1, 8.0001, 359, -0.51659226, -1.73984396, -0.24640627, -63.86038971, 165.75039673, 89.18465424, -25.34346581, 16.69102669, -62.55480957, 112.37387085, 12.08918190, 106.63845825, 0.40073776, -0.44656333, -0.69762778, -0.39154324, 0.73603153, 0.83925295, 0.61678874, 100.31000519, 84.83507538, 33.46999741, 0.00000000
1, 8.0101, 360, 0.52553356, -1.32478130, 0.06635980, -57.69703674, 75.42713165, 116.37960815, -27.03887749, 17.24641991, -62.81789017, 111.85468292, 10.72554207, 106.90695190, 0.39434588, -0.44902432, -0.69372344, -0.40201539, -0.33095598, 0.41543627, 0.30063015, 100.31000519, 84.83507538, 33.46999741, 0.00000000
1, 8.0201, 361, 1.20680249, -0.67092979, 0.83192372, -2.55985069, -53.42845917, 134.54907227, -28.00350761, 16.36948204, -63.02250671, 111.65667725, 9.67180347, 105.89826202, 0.39288375, -0.45893839, -0.68649441, -0.40465215, -1.03481328, -0.24521127, -0.46551460, 100.31000519, 84.83507538, 33.46999741, 0.00000000
1, 8.0301, 362, 0.67837322, -0.26171127, 1.11339653, -22.21861458, -137.51855469, 117.42460632, -28.44197655, 15.81408882, -63.08097076, 111.18051147, 9.09788895, 104.17495728, 0.39776409, -0.46998149, -0.67638612, -0.40423140, -0.51978248, -0.65911627, -0.75243163, 100.31000519, 84.83507538, 33.46999741, 0.00000000
1, 8.0401, 363, -0.14826259, -0.18670335, 0.07556754, -21.36868477, -111.79779053, 106.16168976, -27.62350082, 15.40485191, -62.75942612, 110.74867249, 8.50336933, 102.73521423, 0.40142757, -0.47942156, -0.66733962, -0.40455994, 0.29999620, -0.73683906, 0.27618641, 100.31000519, 84.83507538, 33.46999741, 0.00000000
1, 8.0501, 364, -1.39978004, -0.82064652, 0.25414786, -16.68810272, -142.30508423, 115.64524841, -27.62350082, 15.40485191, -62.75942612, 110.33518219, 7.91656828, 100.97954559, 0.40624112, -0.49055761, -0.65685064, -0.40356988, 1.54036570, -0.10700844, 0.08783534, 100.31000519, 84.83507538, 33.46999741, 0.00000000
1, 8.2001, 365, -0.16916123, -0.97383392, 0.16641580, -14.91338062, 25.30123711, 15.74047470, -32.53434753, 14.46945286, -64.10406494, 107.52194214, 0.86806172, 102.03238678, 0.37663513, -0.50391066, -0.62975550, -0.45566225, 0.18534116, 0.02037508, 0.13349800, 100.31000519, 84.83507538, 33.46999741, 0.00000000
1, 8.2101, 366, -0.25434017, -0.97366059, 0.22234362, -14.56541348, 29.75626564, 13.09063625, -32.53434753, 14.46945286, -64.10406494, 107.37982941, 0.65403408, 102.27726746, 0.37511617, -0.50296491, -0.62957817, -0.45819807, 0.26659775, 0.01930671, 0.07499697, 100.31000519, 84.83507538, 33.46999741, 0.00000000
1, 8.2201, 367, -0.21862464, -0.96458817, 0.28615859, -14.71681786, 41.45842743, 9.44564438, -32.38819122, 14.41099072, -64.60099030, 107.23637390, 0.44078898, 102.64523315, 0.37310347, -0.50133878, -0.62993020, -0.46113044, 0.22700062, 0.00934512, 0.00891303, 100.31000519, 84.83507538, 33.46999741, 0.00000000
1, 8.2301, 368, -0.13006851, -0.96102381, 0.30416104, -13.76630783, 50.62507248, 7.35611725, -32.62203979, 14.55714703, -64.60099030, 107.10430145, 0.20510598, 103.10826874, 0.37051818, -0.49932092, -0.63066107, -0.46439373, 0.13454200, 0.00501634, -0.01114141, 100.31000519, 84.83507538, 33.46999741, 0.00000000
1, 8.2401, 369, -0.03237586, -0.94473898, 0.30820099, -14.16180420, 52.46578217, 7.44007874, -32.97281647, 14.46945286, -64.60099030, 106.96363831, -0.01927821, 103.58838654, 0.36794257, -0.49713784, -0.63145554, -0.46769243, 0.03274512, -0.01198508, -0.01717699, 100.31000519, 84.83507538, 33.46999741, 0.00000000
1, 8.2501, 370, 0.05480327, -0.92218590, 0.29390252, -14.05711746, 49.93306732, 8.51757336, -33.44051361, 13.91405964, -64.98100281, 106.82225037, -0.24546929, 104.04170227, 0.36544946, -0.49511015, -0.63211238, -0.47089976, -0.05834481, -0.03523233, -0.00499162, 100.31000519, 84.83507538, 33.46999741, 0.00000000
1, 8.2601, 371, 0.08421125, -0.91800630, 0.26779786, -13.71600628, 44.11839294, 10.00456238, -33.44051361, 13.91405964, -64.98100281, 106.68290710, -0.46813288, 104.43560028, 0.36319360, -0.49340558, -0.63252133, -0.47387564, -0.09158871, -0.04005891, 0.01884514, 100.31000519, 84.83507538, 33.46999741, 0.00000000
1, 8.2701, 372, 0.08569454, -0.92677987, 0.22506653, -14.47451496, 39.82959747, 12.83885098, -33.90821457, 13.91405964, -65.09792328, 106.53497314, -0.70481485, 104.78087616, 0.36108321, -0.49200347, -0.63263088, -0.47679114, -0.09697092, -0.03189749, 0.05916429, 100.31000519, 84.83507538, 33.46999741, 0.00000000
1, 8.2801, 373, 0.09623782, -0.92825425, 0.22776650, -15.77877808, 38.08923721, 15.96866798, -34.40514374, 13.30020428, -64.98100281, 106.36643219, -0.94544387, 105.09970856, 0.35913578, -0.49070328, -0.63251913, -0.47974089, -0.11182877, -0.03116062, 0.05381979, 100.31000519, 84.83507538, 33.46999741, 0.00000000
1, 8.3501, 374, -0.03638180, -1.01038849, 0.20352417, -21.34727859, 18.02848625, 30.65136147, -35.31131363, 12.51096153, -66.41333008, 104.96427917, -3.13691807, 106.20039368, 0.34816161, -0.48938122, -0.62403584, -0.49986884, -0.01661125, 0.04566666, 0.05395894, 100.31000519, 84.83507538, 33.46999741, 0.00000000
1, 8.3601, 375, -0.03478459, -1.01062560, 0.17939799, -21.39503670, 14.78869247, 31.38094902, -35.31131363, 12.51096153, -66.41333008, 104.74748993, -3.47857547, 106.26340485, 0.34689137, -0.48979372, -0.62221152, -0.50261456, -0.02410853, 0.04529237, 0.07436436, 100.31000519, 84.83507538, 33.46999741, 0.00000000
1, 8.3701, 376, -0.04176987, -1.00631702, 0.16808605, -22.19993973, 13.93796253, 32.44000626, -35.89593506, 13.50482273, -66.03332520, 104.52290344, -3.82811141, 106.31684875, 0.34565046, -0.49027038, -0.62027287, -0.50539321, -0.02311833, 0.04037845, 0.08183070, 100.31000519, 84.83507538, 33.46999741, 0.00000000
1, 8.3801, 377, -0.03927943, -1.00646615, 0.18377778, -23.15937424, 12.63287544, 33.50773239, -36.15901566, 13.59251690, -66.20870972, 104.27900696, -4.17902803, 106.35504150, 0.34455076, -0.49078014, -0.61816555, -0.50822341, -0.03179805, 0.03989206, 0.06212109, 100.31000519, 84.83507538, 33.46999741, 0.00000000
1, 8.3901, 378, -0.04996376, -1.00116909, 0.19725169, -24.10694504, 11.84715843, 34.71036530, -36.53902435, 13.38789845, -66.61795044, 104.03646851, -4.54509449, 106.38554382, 0.34339371, -0.49140105, -0.61596525, -0.51107025, -0.02736447, 0.03396442, 0.04436617, 100.31000519, 84.83507538, 33.46999741, 0.00000000
1, 8.4001, 379, -0.06162244, -0.98658001, 0.21060909, -25.34389305, 12.98637009, 36.15535736, -37.26980209, 13.21251106, -66.38409424, 103.78062439, -4.92779827, 106.42531586, 0.34215838, -0.49200392, -0.61367261, -0.51406777, -0.02228299, 0.01880460, 0.02662906, 100.31000519, 84.83507538, 33.46999741, 0.00000000
