SensorId, TimeStamp (s), FrameNumber, AccX (g), AccY (g), AccZ (g), GyroX (deg/s), GyroY (deg/s), GyroZ (deg/s), MagX (uT), MagY (uT), MagZ (uT), EulerX (deg), EulerY (deg), EulerZ (deg), QuatW, QuatX, QuatY, QuatZ, LinAccX (g), LinAccY (g), LinAccZ (g), Pressure (kPa), Altitude (m), Temperature (degC), HeaveMotion (m)
1, 42.5501, 2820, -0.01626895, -0.98503709, 0.15174852, 0.10729881, -0.92213511, 0.20558931, -30.80970383, 8.53551579, -67.43642426, 98.64017487, -0.69703639, 102.09837341, -0.40618187, 0.47982186, 0.58726442, 0.50981170, 0.00373212, -0.00379210, -0.00319187, 100.31200409, 84.66732025, 33.46999741, 0.00000000
1, 42.5601, 2821, -0.01801620, -0.98597527, 0.15206982, -0.20705971, -1.36384916, 0.35679740, -30.42969894, 7.89242887, -67.34872437, 98.63828278, -0.69855112, 102.08435059, -0.40624434, 0.47989368, 0.58719182, 0.50977790, 0.00545483, -0.00285629, -0.00353260, 100.31200409, 84.66732025, 33.46999741, 0.00000000
1, 42.5701, 2822, -0.02236835, -0.98618269, 0.14998433, -0.09586772, -1.68201709, 0.59316349, -30.51739311, 8.76936531, -67.11487579, 98.63755798, -0.70191860, 102.06683350, -0.40630788, 0.47999567, 0.58710307, 0.50973344, 0.00976383, -0.00264738, -0.00147503, 100.31200409, 84.66732025, 33.46999741, 0.00000000
1, 42.5801, 2823, -0.03043577, -0.98532307, 0.14863078, -0.27059305, -1.92851341, 0.64209062, -30.51739311, 8.76936531, -67.11487579, 98.63495636, -0.73103118, 102.04862213, -0.40624937, 0.48020774, 0.58691013, 0.50980258, 0.01766519, -0.00350851, -0.00017872, 100.31200409, 84.66732025, 33.46999741, 0.00000000
1, 42.5901, 2824, -0.03090406, -0.98695195, 0.14793186, -0.31604603, -1.06319666, 0.85608149, -30.16661835, 8.65244102, -67.49488068, 98.63195801, -0.73792523, 102.03684235, -0.40627867, 0.48028773, 0.58682251, 0.50980461, 0.01770001, -0.00187863, 0.00047985, 100.31200409, 84.66732025, 33.46999741, 0.00000000
1, 42.6001, 2825, -0.03038294, -0.98508894, 0.14778480, -0.31573305, -1.11290777, 0.74973601, -30.83893585, 8.18474102, -67.87489319, 98.62898254, -0.74370575, 102.02471924, -0.40631518, 0.48036462, 0.58673757, 0.50980079, 0.01707000, -0.00375073, 0.00055999, 100.31200409, 84.66732025, 33.46999741, 0.00000000
1, 42.6101, 2826, -0.03143401, -0.98641264, 0.14679010, -0.31369126, -1.27079868, 0.79852492, -30.66354752, 7.45396090, -68.05027771, 98.62604523, -0.74971843, 102.01097107, -0.40635765, 0.48045108, 0.58664519, 0.50979197, 0.01801801, -0.00242933, 0.00151480, 100.31200409, 84.66732025, 33.46999741, 0.00000000
1, 42.6201, 2827, -0.03230000, -0.98771763, 0.14634189, -0.32885537, -1.48064411, 0.82876843, -30.83893585, 8.36012840, -67.49488068, 98.62299347, -0.75572103, 101.99510193, -0.40641004, 0.48054785, 0.58654332, 0.50977612, 0.01878519, -0.00113202, 0.00189507, 100.31200409, 84.66732025, 33.46999741, 0.00000000
1, 42.6301, 2828, -0.03427623, -0.98692417, 0.14782204, -0.36823907, -1.16726410, 0.81921321, -30.02046204, 7.92166042, -68.19643402, 98.61792755, -0.79055667, 101.98516846, -0.40629548, 0.48073369, 0.58635312, 0.50991082, 0.02051710, -0.00193390, 0.00034901, 100.31200409, 84.66732025, 33.46999741, 0.00000000
1, 42.6401, 2829, -0.04160875, -0.98751855, 0.14412893, -0.23984480, -1.51215899, 0.72172761, -30.02046204, 7.92166042, -68.19643402, 98.61575317, -0.79546124, 101.96914673, -0.40635058, 0.48082957, 0.58625847, 0.50988537, 0.02739552, -0.00133710, 0.00395735, 100.31200409, 84.66732025, 33.46999741, 0.00000000
1, 42.6501, 2830, -0.04199212, -0.98762691, 0.14588968, -0.42556459, -0.91573656, 0.47541645, -30.98509216, 8.94475269, -67.11487579, 98.61167145, -0.79882008, 101.95937347, -0.40639389, 0.48087981, 0.58618718, 0.50988555, 0.02770373, -0.00123884, 0.00214158, 100.31200409, 84.66732025, 33.46999741, 0.00000000
1, 42.6601, 2831, -0.03816309, -0.98667860, 0.14850792, -0.38806579, -1.08821309, 0.41824973, -30.22508049, 7.13241720, -67.67027283, 98.60794067, -0.80135107, 101.94798279, -0.40644711, 0.48093593, 0.58611363, 0.50987470, 0.02381925, -0.00220208, -0.00054008, 100.31200409, 84.66732025, 33.46999741, 0.00000000
1, 42.6701, 2832, -0.03610138, -0.98762012, 0.14568815, -0.33435535, -1.12212992, 0.39923149, -30.98509216, 8.27243519, -67.61180878, 98.60476685, -0.80364257, 101.93629456, -0.40650064, 0.48099458, 0.58604223, 0.50985897, 0.02172260, -0.00126408, 0.00222469, 100.31200409, 84.66732025, 33.46999741, 0.00000000
1, 42.6801, 2833, -0.03624833, -0.98836017, 0.14482354, -0.22866201, -1.05031085, 0.34701958, -30.45892906, 8.53551579, -67.29026794, 98.60128021, -0.85379016, 101.92937469, -0.40628701, 0.48123771, 0.58581603, 0.51005954, 0.02162730, -0.00052651, 0.00303939, 100.31200409, 84.66732025, 33.46999741, 0.00000000
1, 42.6901, 2834, -0.03660290, -0.98577976, 0.14724492, -0.24717721, -1.01315820, 0.24298425, -30.45892906, 8.53551579, -67.29026794, 98.59897614, -0.85470039, 101.91899872, -0.40633819, 0.48128659, 0.58575886, 0.51003826, 0.02132114, -0.00310959, 0.00056565, 100.31200409, 84.66732025, 33.46999741, 0.00000000
1, 42.7001, 2835, -0.03435568, -0.98445332, 0.14495543, -0.17354007, -1.23711407, 0.16660446, -29.93276787, 8.41859055, -67.78719330, 98.59744263, -0.85452431, 101.90650940, -0.40640116, 0.48134422, 0.58570027, 0.51000118, 0.01907815, -0.00443731, 0.00283060, 100.31200409, 84.66732025, 33.46999741, 0.00000000
1, 42.7101, 2836, -0.03441406, -0.98429120, 0.14574851, -0.22808716, -1.11784351, 0.25777215, -30.54662323, 7.07395506, -67.67027283, 98.59532928, -0.85541576, 101.89507294, -0.40645632, 0.48139912, 0.58563960, 0.50997508, 0.01912439, -0.00460515, 0.00200687, 100.31200409, 84.66732025, 33.46999741, 0.00000000
1, 42.7201, 2837, -0.03533665, -0.98420596, 0.14927654, -0.15785155, -1.04717541, 0.24103639, -30.60508537, 8.24320412, -67.61180878, 98.59391785, -0.85625589, 101.88434601, -0.40650564, 0.48145258, 0.58558524, 0.50994778, 0.02002261, -0.00470099, -0.00155620, 100.31200409, 84.66732025, 33.46999741, 0.00000000
1, 42.7301, 2838, -0.03617318, -0.98475981, 0.15042250, -0.24869524, -0.89091033, 0.22839136, -30.63431740, 5.99239969, -67.72873688, 98.59802246, -0.89963621, 101.87397003, -0.40631056, 0.48171046, 0.58540255, 0.51006931, 0.02065723, -0.00414615, -0.00270725, 100.31200409, 84.66732025, 33.46999741, 0.00000000
1, 42.7401, 2839, -0.03238105, -0.98576725, 0.14732236, -0.26778454, -0.77048886, 0.28408292, -30.63431740, 5.99239969, -67.72873688, 98.59545898, -0.90131325, 101.86591339, -0.40634850, 0.48174989, 0.58535129, 0.51006079, 0.01629233, -0.00311947, 0.00043435, 100.31200409, 84.66732025, 33.46999741, 0.00000000
1, 42.7501, 2840, -0.03486644, -0.98633015, 0.14689419, -0.21339363, -0.85703588, 0.28132769, -30.98509216, 8.33089733, -67.93334961, 98.59348297, -0.90282637, 101.85701752, -0.40638858, 0.48179492, 0.58529955, 0.51004559, 0.01874975, -0.00256129, 0.00081714, 100.31200409, 84.66732025, 33.46999741, 0.00000000
1, 42.7601, 2841, -0.03418262, -0.98811162, 0.14548986, -0.10874703, -0.69819498, 0.23120329, -29.69891739, 6.63548660, -67.37796021, 98.59251404, -0.90407819, 101.84976959, -0.40641844, 0.48183402, 0.58526021, 0.51002997, 0.01804654, -0.00078053, 0.00219768, 100.31200409, 84.66732025, 33.46999741, 0.00000000
1, 42.7701, 2842, -0.03596034, -0.98910713, 0.14565824, -0.15952781, -0.93941247, 0.10341755, -30.63431740, 8.65244102, -67.31949615, 98.59108734, -0.90372622, 101.84031677, -0.40646839, 0.48187572, 0.58521539, 0.51000232, 0.01981582, 0.00021186, 0.00200414, 100.31200409, 84.66732025, 33.46999741, 0.00000000
1, 42.7801, 2843, -0.03555090, -0.98903811, 0.14304617, 0.14249468, -0.90316290, 0.15301521, -30.57585526, 6.40163708, -67.43642426, 98.56668091, -0.97669965, 101.85240173, -0.40614036, 0.48204738, 0.58489263, 0.51047140, 0.01910020, 0.00013654, 0.00451178, 100.31200409, 84.66732025, 33.46999741, 0.00000000
1, 42.7901, 2844, -0.03544735, -0.98772788, 0.14295028, -0.08468704, -1.26737797, 0.00701719, -30.57585526, 6.40163708, -67.43642426, 98.56604004, -0.97490150, 101.83985138, -0.40620822, 0.48210129, 0.58484352, 0.51042271, 0.01805796, -0.00120946, 0.00426947, 100.31200409, 84.66732025, 33.46999741, 0.00000000
1, 42.8001, 2845, -0.03879708, -0.98594344, 0.14554802, 0.07361881, -1.11056411, 0.06131801, -30.57585526, 8.82782841, -67.34872437, 98.56695557, -0.97385812, 101.82878113, -0.40625900, 0.48215640, 0.58480483, 0.51037449, 0.02142891, -0.00299663, 0.00167938, 100.31200409, 84.66732025, 33.46999741, 0.00000000
1, 42.8101, 2846, -0.04124571, -0.98592889, 0.14759137, 0.11043634, -1.24614644, -0.08259106, -30.89739799, 8.12627888, -67.08564758, 98.56826019, -0.97119904, 101.81658936, -0.40632159, 0.48221165, 0.58476895, 0.51031357, 0.02390927, -0.00301373, -0.00036034, 100.31200409, 84.66732025, 33.46999741, 0.00000000
1, 42.8201, 2847, -0.04100481, -0.98560190, 0.14799190, 0.10389378, -0.70619255, -0.08716383, -30.86816597, 8.24320412, -67.31949615, 98.56941223, -0.96929979, 101.80973816, -0.40635711, 0.48224241, 0.58475220, 0.51027560, 0.02369834, -0.00333612, -0.00072157, 100.31200409, 84.66732025, 33.46999741, 0.00000000
1, 42.8301, 2848, -0.03872901, -0.98539829, 0.14810991, 0.21230809, -0.87636733, -0.21528274, -30.95586014, 8.79859638, -67.31949615, 98.57444000, -1.02115393, 101.80235291, -0.40610102, 0.48252505, 0.58455503, 0.51043808, 0.02123903, -0.00353282, -0.00080803, 100.31200409, 84.66732025, 33.46999741, 0.00000000
1, 42.8401, 2849, -0.03742250, -0.98587596, 0.14709385, 0.08312745, -0.49374458, -0.23957050, -30.95586014, 8.79859638, -67.31949615, 98.57535553, -1.01805449, 101.79781342, -0.40613335, 0.48253781, 0.58455122, 0.51040453, 0.01926278, -0.00303047, 0.00028531, 100.31200409, 84.66732025, 33.46999741, 0.00000000
1, 42.8501, 2850, -0.04156494, -0.98566711, 0.14547150, 0.26847824, -1.11872017, -0.25682652, -30.80970383, 8.68167210, -67.72873688, 98.57820892, -1.01384437, 101.78713226, -0.40619069, 0.48258406, 0.58453435, 0.51033473, 0.02347799, -0.00323454, 0.00192012, 100.31200409, 84.66732025, 33.46999741, 0.00000000
1, 42.8601, 2851, -0.04530629, -0.98619831, 0.14322570, 0.20848505, -0.60987967, -0.43672141, -30.95586014, 5.81701231, -67.31949615, 98.58036804, -1.00862026, 101.78173828, -0.40623260, 0.48259637, 0.58454025, 0.51028299, 0.02730394, -0.00269323, 0.00420751, 100.31200409, 84.66732025, 33.46999741, 0.00000000
1, 42.8701, 2852, -0.04155115, -0.98456430, 0.14512880, 0.34722823, -0.34462738, -0.55484784, -31.42355919, 8.76936531, -67.67027283, 98.58388519, -1.00261390, 101.77915192, -0.40626031, 0.48259568, 0.58456677, 0.51023102, 0.02364969, -0.00432417, 0.00236947, 100.31200409, 84.66732025, 33.46999741, 0.00000000
1, 42.8801, 2853, -0.03897725, -0.98381758, 0.14552996, 0.22071528, -0.21931744, -0.74303752, -30.48816109, 7.71704149, -67.20256805, 98.58372498, -1.05635071, 101.78287506, -0.40596685, 0.48281142, 0.58438635, 0.51046711, 0.02092605, -0.00506416, 0.00200658, 100.31200409, 84.66732025, 33.46999741, 0.00000000
1, 42.8901, 2854, -0.03885964, -0.98668361, 0.14349857, 0.44731933, 0.14948489, -0.78970987, -30.48816109, 7.71704149, -67.20256805, 98.58811951, -1.04873884, 101.78550720, -0.40597591, 0.48278022, 0.58444470, 0.51042259, 0.02014656, -0.00217724, 0.00407023, 100.31200409, 84.66732025, 33.46999741, 0.00000000
1, 42.9001, 2855, -0.04182025, -0.98518789, 0.14441876, 0.24100688, -0.47522092, -0.95970863, -31.24817276, 8.27243519, -67.49488068, 98.59056091, -1.03853619, 101.78222656, -0.40603292, 0.48276094, 0.58447891, 0.51035637, 0.02325960, -0.00367062, 0.00319000, 100.31200409, 84.66732025, 33.46999741, 0.00000000
1, 42.9101, 2856, -0.04605271, -0.98793519, 0.14677779, 0.48973495, -0.50280845, -1.17384541, -31.42355919, 7.10318613, -67.40718842, 98.59548950, -1.02617323, 101.77898407, -0.40609050, 0.48274082, 0.58453214, 0.51026869, 0.02769180, -0.00091924, 0.00089338, 100.31200409, 84.66732025, 33.46999741, 0.00000000
1, 42.9201, 2857, -0.04659373, -0.98648846, 0.14580591, 0.52492940, -0.51530874, -1.36737847, -30.92663002, 8.47705364, -67.49488068, 98.60075378, -1.01187360, 101.77590179, -0.40615588, 0.48271260, 0.58459461, 0.51017177, 0.02847349, -0.00235602, 0.00194950, 100.31200409, 84.66732025, 33.46999741, 0.00000000
1, 42.9301, 2858, -0.04606773, -0.98536384, 0.14479376, 0.50201690, -0.12839954, -1.53312540, -31.07278633, 7.92166042, -67.46565247, 98.60051727, -1.03913903, 101.78268433, -0.40598589, 0.48279658, 0.58452296, 0.51030970, 0.02802071, -0.00347012, 0.00303195, 100.31200409, 84.66732025, 33.46999741, 0.00000000
1, 42.9401, 2859, -0.04369795, -0.98574567, 0.14404942, 0.48198310, 0.01526485, -1.72223306, -30.57585526, 8.44782257, -67.31949615, 98.60524750, -1.02212751, 101.78537750, -0.40604180, 0.48272508, 0.58461720, 0.51022476, 0.02538542, -0.00307943, 0.00380036, 100.31200409, 84.66732025, 33.46999741, 0.00000000
1, 42.9501, 2860, -0.04035717, -0.98582697, 0.14385457, 0.44579077, 0.03568888, -1.86149418, -30.57585526, 8.44782257, -67.31949615, 98.60961151, -1.00376141, 101.78848267, -0.40610451, 0.48264432, 0.58471650, 0.51013762, 0.02235654, -0.00299258, 0.00407470, 100.31200409, 84.66732025, 33.46999741, 0.00000000
1, 42.9601, 2861, -0.03827864, -0.98672271, 0.14410333, 0.62538385, -0.11853334, -1.90250874, -31.24817276, 7.39549828, -67.84565735, 98.61578369, -0.98474348, 101.79013062, -0.40616935, 0.48257449, 0.58481997, 0.51003325, 0.02060415, -0.00208770, 0.00393074, 100.31200409, 84.66732025, 33.46999741, 0.00000000
1, 42.9701, 2862, -0.03796967, -0.98585069, 0.14706577, 0.60739172, -0.13275979, -2.04282737, -31.04355431, 8.18474102, -67.17333984, 98.62178040, -0.96433359, 101.79183960, -0.40624192, 0.48249763, 0.58492804, 0.50992435, 0.02063757, -0.00295490, 0.00107499, 100.31200409, 84.66732025, 33.46999741, 0.00000000
1, 42.9801, 2863, -0.03696299, -0.98649085, 0.14635119, 0.60807228, -0.18539010, -2.02656460, -30.45892906, 7.62934828, -67.31949615, 98.62995911, -0.96975398, 101.79263306, -0.40617603, 0.48254636, 0.58494806, 0.50990784, 0.01987339, -0.00229986, 0.00190828, 100.31200409, 84.66732025, 33.46999741, 0.00000000
1, 42.9901, 2864, -0.03628566, -0.98699164, 0.15214030, 0.67647690, 0.05723697, -1.95154774, -30.60508537, 8.62320995, -67.14411163, 98.63661194, -0.95052457, 101.79609680, -0.40623188, 0.48246801, 0.58506203, 0.50980657, 0.01919314, -0.00178839, -0.00374545, 100.31200409, 84.66732025, 33.46999741, 0.00000000
1, 43.0001, 2865, -0.03561479, -0.98570323, 0.15562615, 0.52030241, 1.18975961, -2.02772212, -30.60508537, 8.62320995, -67.14411163, 98.64153290, -0.93222892, 101.81087494, -0.40623993, 0.48232985, 0.58521259, 0.50975817, 0.01883378, -0.00307304, -0.00712978, 100.31200409, 84.66732025, 33.46999741, 0.00000000
1, 43.0101, 2866, -0.03446009, -0.98760045, 0.15664782, 0.74518061, 1.72968662, -1.94761086, -30.51739311, 8.09704781, -67.20256805, 98.64861298, -0.91551685, 101.83087158, -0.40620747, 0.48217958, 0.58538884, 0.50972372, 0.01798388, -0.00116601, -0.00804327, 100.31200409, 84.66732025, 33.46999741, 0.00000000
1, 43.0201, 2867, -0.02322347, -0.98857665, 0.15425272, 0.75594813, 2.30502510, -1.96908665, -30.92663002, 8.68167210, -67.43642426, 98.65570831, -0.89944148, 101.85661316, -0.40614620, 0.48200282, 0.58558702, 0.50971222, 0.00703347, -0.00017183, -0.00550034, 100.31200409, 84.66732025, 33.46999741, 0.00000000
1, 43.0301, 2868, -0.01302462, -0.98845029, 0.15352300, 0.54445839, 2.20943022, -1.68825555, -30.86816597, 7.89242887, -67.34872437, 98.66608429, -0.88097066, 101.87689972, -0.40610772, 0.48185489, 0.58578539, 0.50965464, -0.00288538, -0.00028235, -0.00461990, 100.31200409, 84.66732025, 33.46999741, 0.00000000
1, 43.0401, 2869, -0.00855554, -0.98839545, 0.15445092, 0.41168520, 1.51896513, -1.26487064, -30.57585526, 8.24320412, -67.93334961, 98.66992188, -0.87071711, 101.89381409, -0.40606943, 0.48173711, 0.58591074, 0.50965261, -0.00709002, -0.00032102, -0.00539290, 100.31200409, 84.66732025, 33.46999741, 0.00000000
1, 43.0501, 2870, -0.01055148, -0.98876679, 0.15508798, 0.34852010, 0.96711785, -0.78648961, -30.57585526, 8.24320412, -67.93334961, 98.67323303, -0.86437470, 101.90455627, -0.40604046, 0.48166603, 0.58599353, 0.50964749, -0.00495910, 0.00005675, -0.00597240, 100.31200409, 84.66732025, 33.46999741, 0.00000000
1, 43.0601, 2871, -0.01388518, -0.98974884, 0.15404683, 0.24502811, 0.78336579, -0.42150411, -30.66354752, 7.68781042, -67.20256805, 98.67554474, -0.86137742, 101.91294098, -0.40600896, 0.48161829, 0.58604997, 0.50965297, -0.00154632, 0.00104620, -0.00489653, 100.31200409, 84.66732025, 33.46999741, 0.00000000
1, 43.0701, 2872, -0.01402504, -0.98864031, 0.15340103, -0.04114549, 0.99874890, -0.06220559, -30.83893585, 8.56474686, -67.34872437, 98.67499542, -0.86226225, 101.92290497, -0.40596235, 0.48156923, 0.58608615, 0.50969470, -0.00140034, -0.00005918, -0.00423491, 100.31200409, 84.66732025, 33.46999741, 0.00000000
1, 43.0801, 2873, -0.01405932, -0.98640215, 0.15259503, -0.03868221, 0.86899418, 0.26766604, -30.89739799, 7.39549828, -67.75796509, 98.68522644, -0.86616617, 101.92350006, -0.40589648, 0.48161954, 0.58612007, 0.50966060, -0.00140691, -0.00229088, -0.00339601, 100.31200409, 84.66732025, 33.46999741, 0.00000000
1, 43.0901, 2874, -0.01428904, -0.98651648, 0.15465890, -0.07062989, 0.65106672, 0.63092625, -30.42969894, 8.91552162, -68.34259033, 98.68445587, -0.87337434, 101.92900085, -0.40583804, 0.48162028, 0.58611369, 0.50971395, -0.00129123, -0.00215848, -0.00533049, 100.31200409, 84.66732025, 33.46999741, 0.00000000
1, 43.1001, 2875, -0.01586069, -0.98619020, 0.15676630, -0.21172498, 0.65636140, 1.08852684, -30.42969894, 8.91552162, -68.34259033, 98.68229675, -0.88511854, 101.93386841, -0.40576482, 0.48163927, 0.58608198, 0.50979078, 0.00010040, -0.00248949, -0.00746740, 100.31200409, 84.66732025, 33.46999741, 0.00000000
1, 43.1101, 2876, -0.01520345, -0.98870575, 0.15431482, -0.45736447, 0.43903598, 1.34936512, -31.18971062, 8.33089733, -68.43028259, 98.67770386, -0.89911532, 101.93620300, -0.40570134, 0.48167244, 0.58602071, 0.50988036, -0.00078505, 0.00002301, -0.00508991, 100.31200409, 84.66732025, 33.46999741, 0.00000000
1, 43.1201, 2877, -0.02697845, -0.99124563, 0.14996001, -0.34491625, 0.01644155, 1.58322632, -30.86816597, 8.74013424, -68.19643402, 98.67432404, -0.91480297, 101.93399811, -0.40564424, 0.48174047, 0.58593953, 0.50995469, 0.01074075, 0.00256520, -0.00082621, 100.31200409, 84.66732025, 33.46999741, 0.00000000
1, 43.1301, 2878, -0.03218624, -0.99060667, 0.14892678, -0.54312837, 0.24012306, 1.62613320, -30.54662323, 7.77550411, -67.87489319, 98.66974640, -0.95109487, 101.93440247, -0.40547401, 0.48188126, 0.58578938, 0.51012951, 0.01558496, 0.00192152, 0.00011340, 100.31200409, 84.66732025, 33.46999741, 0.00000000
1, 43.1401, 2879, -0.03339848, -0.98959517, 0.15174513, -0.54160821, 0.16508393, 1.85216451, -30.86816597, 8.79859638, -68.48874664, 98.66439056, -0.96966201, 101.93328857, -0.40540549, 0.48194939, 0.58569354, 0.51022965, 0.01621637, 0.00090231, -0.00278935, 100.31200409, 84.66732025, 33.46999741, 0.00000000
1, 43.1501, 2880, -0.03141334, -0.99486995, 0.15205935, -0.59856319, 0.47663721, 1.91289377, -30.86816597, 8.79859638, -68.48874664, 98.65840912, -0.98930669, 101.93514252, -0.40532076, 0.48200482, 0.58560354, 0.51034796, 0.01389662, 0.00616655, -0.00320967, 100.31200409, 84.66732025, 33.46999741, 0.00000000
1, 43.1601, 2881, -0.03179697, -0.99843514, 0.15104845, -0.61498266, 0.38695458, 2.01612163, -30.51739311, 7.07395506, -68.28412628, 98.65229797, -1.00983620, 101.93597412, -0.40523660, 0.48206896, 0.58550537, 0.51046687, 0.01392607, 0.00972357, -0.00231167, 100.31200409, 84.66732025, 33.46999741, 0.00000000
1, 43.2001, 2882, -0.00913622, -0.98953557, 0.15114996, -0.60230142, -0.32768291, 3.50617051, -31.04355431, 8.50628471, -67.58258057, 98.62411499, -1.12249935, 101.94805145, -0.40471840, 0.48240104, 0.58502162, 0.51111835, -0.01060288, 0.00078365, -0.00283665, 100.31200409, 84.66732025, 33.46999741, 0.00000000
1, 43.2101, 2883, -0.01287038, -0.98368776, 0.14903046, -0.76389897, -0.08055288, 4.03990030, -30.54662323, 8.41859055, -67.84565735, 98.61670685, -1.16234779, 101.94126892, -0.40457359, 0.48258400, 0.58481520, 0.51129645, -0.00752054, -0.00506487, -0.00083076, 100.31200409, 84.66732025, 33.46999741, 0.00000000
1, 43.2201, 2884, -0.01264443, -0.98038745, 0.14839649, -0.78015739, -0.09280535, 4.54807234, -31.24817276, 8.62320995, -67.84565735, 98.60917664, -1.20721436, 101.93360901, -0.40440732, 0.48279291, 0.58458620, 0.51149279, -0.00849393, -0.00836915, -0.00032572, 100.31200409, 84.66732025, 33.46999741, 0.00000000
1, 43.2301, 2885, -0.00669383, -0.98146820, 0.14550041, -0.63795096, 0.08197735, 5.30404949, -30.83893585, 8.56474686, -67.49488068, 98.59977722, -1.24766552, 101.92824554, -0.40426141, 0.48296404, 0.58437443, 0.51168841, -0.01525211, -0.00728626, 0.00245117, 100.31200409, 84.66732025, 33.46999741, 0.00000000
1, 43.2401, 2886, 0.00240085, -0.98358834, 0.14296821, -0.59442496, -0.40597492, 6.06301403, -31.59894753, 8.59397793, -67.72873688, 98.59426880, -1.30704486, 101.91526031, -0.40403515, 0.48327047, 0.58407885, 0.51191521, -0.02517594, -0.00516432, 0.00486388, 100.31200409, 84.66732025, 33.46999741, 0.00000000
1, 43.2501, 2887, -0.01038077, -0.99439776, 0.15060218, -0.33114123, -1.52514732, 6.34845591, -31.27740479, 8.59397793, -67.69950104, 98.59168243, -1.36758029, 101.89079285, -0.40384185, 0.48365068, 0.58374339, 0.51209122, -0.01346344, 0.00564544, -0.00289566, 100.31200409, 84.66732025, 33.46999741, 0.00000000
1, 43.2601, 2888, -0.03572502, -1.00054002, 0.14968330, -0.29629061, -2.79395437, 6.98376083, -31.27740479, 8.59397793, -67.69950104, 98.58983612, -1.43253577, 101.85282898, -0.40368289, 0.48412120, 0.58333784, 0.51223421, 0.01078107, 0.01181125, -0.00208178, 100.31200409, 84.66732025, 33.46999741, 0.00000000
1, 43.2701, 2889, -0.05478112, -0.99163258, 0.14138770, -0.42572957, -2.31482887, 7.29477215, -31.13124847, 8.65244102, -67.81642914, 98.58663940, -1.50127184, 101.81912994, -0.40349093, 0.48458132, 0.58292997, 0.51241457, 0.02868085, 0.00293878, 0.00612473, 100.31200409, 84.66732025, 33.46999741, 0.00000000
1, 43.2801, 2890, -0.04384461, -0.98085392, 0.14035015, -0.34285682, -0.36166495, 7.21758986, -31.48202324, 9.26629639, -67.78719330, 98.58215332, -1.57766259, 101.80623627, -0.40317172, 0.48496428, 0.58257598, 0.51270604, 0.01649377, -0.00781375, 0.00714634, 100.31200409, 84.66732025, 33.46999741, 0.00000000
1, 43.2901, 2891, -0.03323592, -0.97898543, 0.15168133, -0.22341166, 0.05714951, 7.22605133, -31.27740479, 9.17860222, -67.99181366, 98.58037567, -1.64921510, 101.79613495, -0.40285355, 0.48532119, 0.58226329, 0.51297361, 0.00454854, -0.00967502, -0.00422658, 100.31200409, 84.66732025, 33.46999741, 0.00000000
1, 43.3001, 2892, -0.03110998, -0.98174083, 0.13989575, -0.24808295, -0.73804295, 7.69814253, -31.65740967, 7.48319197, -68.43028259, 98.57863617, -1.72427750, 101.77746582, -0.40255529, 0.48573682, 0.58190125, 0.51322508, 0.00116174, -0.00686579, 0.00753887, 100.31200409, 84.66732025, 33.46999741, 0.00000000
1, 43.3101, 2893, -0.03831428, -0.97653770, 0.14023514, -0.08661859, -2.22741199, 8.13379288, -31.65740967, 7.48319197, -68.43028259, 98.57901764, -1.80144191, 101.74342346, -0.40230596, 0.48624673, 0.58147544, 0.51342040, 0.00703448, -0.01203316, 0.00716064, 100.31200409, 84.66732025, 33.46999741, 0.00000000
1, 43.3201, 2894, -0.04834009, -0.98324418, 0.14535956, 0.06202041, -2.70190239, 8.36595440, -31.65740967, 9.17860222, -67.58258057, 98.58110809, -1.88019383, 101.70432281, -0.40206376, 0.48679471, 0.58102942, 0.51359576, 0.01568274, -0.00528720, 0.00202860, 100.31200409, 84.66732025, 33.46999741, 0.00000000
1, 43.3301, 2895, -0.05805652, -0.98437536, 0.13777594, 0.16216688, -2.14526200, 8.43052673, -31.86202812, 7.80473518, -67.75796509, 98.57985687, -1.96972179, 101.67390442, -0.40174085, 0.48733330, 0.58056504, 0.51386261, 0.02398946, -0.00409352, 0.00960117, 100.31200409, 84.66732025, 33.46999741, 0.00000000
1, 43.3401, 2896, -0.06593159, -0.98296070, 0.12880911, 0.45701945, -1.50110936, 8.54728317, -31.80356598, 8.97398376, -68.51797485, 98.58560181, -2.05202818, 101.64640808, -0.40141249, 0.48784977, 0.58017063, 0.51407468, 0.03034074, -0.00543700, 0.01856753, 100.31200409, 84.66732025, 33.46999741, 0.00000000
1, 43.3501, 2897, -0.07361007, -0.98502374, 0.13028187, 0.65924627, -0.60783058, 8.40826511, -31.89126015, 8.21397209, -68.48874664, 98.59309387, -2.13427925, 101.62797546, -0.40103620, 0.48832583, 0.57982230, 0.51430929, 0.03657803, -0.00330721, 0.01718374, 100.31200409, 84.66732025, 33.46999741, 0.00000000
1, 43.3601, 2898, -0.07296042, -0.98205781, 0.12860718, 0.86639327, -0.11568755, 8.29467583, -31.89126015, 8.21397209, -68.48874664, 98.60247803, -2.21611285, 101.61455536, -0.40063134, 0.48878092, 0.57950503, 0.51455009, 0.03450850, -0.00619485, 0.01900759, 100.31200409, 84.66732025, 33.46999741, 0.00000000
1, 43.3701, 2899, -0.07224834, -0.97841883, 0.13414405, 1.00011206, 0.56727076, 8.18657017, -31.62817764, 8.36012840, -67.87489319, 98.61293793, -2.29788971, 101.60803223, -0.40019089, 0.48920426, 0.57922190, 0.51480913, 0.03234692, -0.00976129, 0.01364486, 100.31200409, 84.66732025, 33.46999741, 0.00000000
1, 43.3801, 2900, -0.07124879, -0.97569704, 0.14002629, 1.47305369, -0.30008426, 8.21245480, -31.83279800, 8.30166626, -68.02104950, 98.62609100, -2.39023232, 101.59501648, -0.39971307, 0.48971513, 0.57888371, 0.51507503, 0.02987294, -0.01240067, 0.00798424, 100.31200409, 84.66732025, 33.46999741, 0.00000000
1, 43.3901, 2901, -0.07369778, -0.97479033, 0.14409195, 1.37770915, 0.23824392, 8.24402523, -31.94972229, 8.18474102, -68.48874664, 98.64049530, -2.47208381, 101.58511353, -0.39927006, 0.49016881, 0.57860297, 0.51530236, 0.03073596, -0.01321467, 0.00412966, 100.31200409, 84.66732025, 33.46999741, 0.00000000
1, 43.4001, 2902, -0.06891441, -0.97039866, 0.15166529, 1.75247943, 0.13630858, 8.27187729, -31.97895241, 5.55393171, -67.87489319, 98.65870667, -2.55404615, 101.57415009, -0.39881480, 0.49064124, 0.57833415, 0.51550722, 0.02451361, -0.01751395, -0.00314490, 100.31200409, 84.66732025, 33.46999741, 0.00000000
1, 43.4101, 2903, -0.06443115, -0.97261417, 0.14978425, 1.90455854, 0.84631026, 8.49717712, -31.97895241, 5.55393171, -67.87489319, 98.67817688, -2.63928437, 101.56985474, -0.39830673, 0.49109796, 0.57808703, 0.51574212, 0.01856618, -0.01518030, -0.00093856, 100.31200409, 84.66732025, 33.46999741, 0.00000000
1, 43.4201, 2904, -0.05673625, -0.97257233, 0.14647941, 1.95665097, 1.04562926, 8.92189217, -32.32972717, 8.82782841, -68.66413116, 98.69809723, -2.72899795, 101.56686401, -0.39776719, 0.49156857, 0.57783073, 0.51599741, 0.00935103, -0.01509405, 0.00272049, 100.31200409, 84.66732025, 33.46999741, 0.00000000
1, 43.4301, 2905, -0.04834736, -0.97571409, 0.14563021, 2.24388027, 0.94779563, 9.47673893, -32.38819122, 8.71090317, -68.02104950, 98.72086334, -2.82225776, 101.56204987, -0.39720476, 0.49207288, 0.57756597, 0.51624632, -0.00065095, -0.01181862, 0.00393857, 100.31200409, 84.66732025, 33.46999741, 0.00000000
1, 43.4401, 2906, -0.03982793, -0.97840333, 0.14743198, 2.37798643, 0.28992724, 10.09029007, -32.44665146, 8.82782841, -67.40718842, 98.74549103, -2.92238927, 101.54975128, -0.39663178, 0.49265039, 0.57725155, 0.51648778, -0.01086291, -0.00898508, 0.00256165, 100.31200409, 84.66732025, 33.46999741, 0.00000000
1, 43.4501, 2907, -0.02359295, -0.98201597, 0.14196125, 2.72798657, -0.48047641, 11.11903667, -32.32972717, 8.41859055, -67.99181366, 98.77417755, -3.03151226, 101.52824402, -0.39603543, 0.49332613, 0.57688183, 0.51671344, -0.02891617, -0.00519960, 0.00851341, 100.31200409, 84.66732025, 33.46999741, 0.00000000
1, 43.4601, 2908, -0.01589996, -0.98323190, 0.15141858, 2.23781085, -0.90814871, 12.07901955, -32.32972717, 8.41859055, -67.99181366, 98.79833984, -3.14948797, 101.50095367, -0.39543787, 0.49405226, 0.57643312, 0.51697791, -0.03864776, -0.00382393, -0.00049541, 100.31200409, 84.66732025, 33.46999741, 0.00000000
1, 43.4701, 2909, -0.02512355, -0.98306501, 0.14808089, 2.54451442, -2.54591155, 12.94743347, -32.50511551, 9.06167793, -67.72873688, 98.82661438, -3.27354145, 101.45611572, -0.39486945, 0.49490583, 0.57590377, 0.51718587, -0.03152680, -0.00379856, 0.00326371, 100.31200409, 84.66732025, 33.46999741, 0.00000000
1, 43.4801, 2910, -0.04274940, -0.98322678, 0.14582746, 2.38607693, -3.91349101, 14.00347233, -32.47588348, 9.35398960, -68.10874176, 98.85385132, -3.40364695, 101.39627075, -0.39434108, 0.49585575, 0.57528108, 0.51737207, -0.01614365, -0.00343094, 0.00593153, 100.31200409, 84.66732025, 33.46999741, 0.00000000
1, 43.5301, 2911, -0.02870808, -0.98403919, 0.17240228, 0.93982494, -3.87868285, 18.59702110, -32.91435242, 7.89242887, -68.10874176, 98.96109772, -4.17176628, 101.03205109, -0.39149541, 0.50130445, 0.57128733, 0.51870620, -0.04341508, -0.00151871, -0.01885971, 100.31200409, 84.66732025, 33.46999741, 0.00000000
1, 43.5401, 2912, -0.01315783, -0.98686373, 0.17654729, 0.14452384, -2.63389492, 19.42548943, -33.38205338, 8.74013424, -67.72873688, 98.96722412, -4.35963154, 100.97591400, -0.39073661, 0.50239676, 0.57035631, 0.51924562, -0.06206822, 0.00155681, -0.02279471, 100.31200409, 84.66732025, 33.46999741, 0.00000000
1, 43.5501, 2913, -0.02094838, -0.98560345, 0.17140414, -0.28522849, -5.14769506, 20.24734688, -33.32358932, 6.40163708, -67.87489319, 98.97127533, -4.55173635, 100.89353943, -0.39008307, 0.50362802, 0.56928229, 0.51972288, -0.05757314, 0.00056735, -0.01763420, 100.31200409, 84.66732025, 33.46999741, 0.00000000
1, 43.5601, 2914, -0.03535194, -0.98460448, 0.16169128, -0.72095424, -5.52070475, 21.85640144, -33.52820587, 9.09090900, -67.78719330, 98.97178650, -4.75918674, 100.80496979, -0.38939232, 0.50493944, 0.56810308, 0.52025831, -0.04664560, -0.00013212, -0.00795653, 100.31200409, 84.66732025, 33.46999741, 0.00000000
1, 43.5701, 2915, -0.03593179, -0.98373520, 0.14719206, -0.69408578, -7.33974457, 23.65294266, -33.52820587, 9.09090900, -67.78719330, 98.97473145, -4.98154926, 100.69554901, -0.38870689, 0.50642139, 0.56678206, 0.52077097, -0.04980222, -0.00066413, 0.00650116, 100.31200409, 84.66732025, 33.46999741, 0.00000000
1, 43.5801, 2916, -0.02051245, -0.98278725, 0.15848915, -0.44699886, -8.26701450, 25.38030624, -33.55743790, 8.62320995, -67.87489319, 98.98262787, -5.21067572, 100.57305908, -0.38802323, 0.50800872, 0.56539524, 0.52124214, -0.06925030, -0.00126551, -0.00469379, 100.31200409, 84.66732025, 33.46999741, 0.00000000
1, 43.5901, 2917, -0.02440613, -0.97469032, 0.18700044, -1.24523115, -10.98070526, 27.14849854, -33.49897766, 8.82782841, -67.96258545, 98.98490143, -5.46194887, 100.42196655, -0.38737792, 0.50980508, 0.56376517, 0.52173376, -0.06958807, -0.00901848, -0.03317816, 100.31200409, 84.66732025, 33.46999741, 0.00000000
1, 43.6001, 2918, -0.04691814, -0.97258544, 0.15859601, -1.22423708, -10.80141449, 29.13295174, -32.91435242, 7.22011089, -67.14411163, 98.98825073, -5.73311424, 100.26951599, -0.38662931, 0.51168799, 0.56205010, 0.52229571, -0.05157674, -0.01063710, -0.00486383, 100.31200409, 84.66732025, 33.46999741, 0.00000000
1, 43.6101, 2919, -0.06406572, -0.97600806, 0.17410542, -0.95227516, -9.28252792, 31.26882744, -34.11283112, 9.06167793, -67.29026794, 98.99390411, -6.02770472, 100.12868500, -0.38569379, 0.51361167, 0.56029940, 0.52298003, -0.03943462, -0.00672589, -0.02038652, 100.31200409, 84.66732025, 33.46999741, 0.00000000
1, 43.6201, 2920, -0.05656702, -0.97125614, 0.17933823, -1.97380602, -4.06569433, 31.96701050, -34.11283112, 9.06167793, -67.29026794, 98.98463440, -6.33728600, 100.03857422, -0.38451403, 0.51529247, 0.55864227, 0.52396721, -0.05223434, -0.01094264, -0.02575408, 100.31200409, 84.66732025, 33.46999741, 0.00000000
1, 43.6301, 2921, -0.05612480, -0.97078133, 0.14068124, -1.13414085, -4.05805779, 33.41116714, -33.76205826, 7.42472935, -67.87489319, 98.98322296, -6.65505838, 99.94683838, -0.38326222, 0.51703501, 0.55697495, 0.52494174, -0.05806310, -0.01076335, 0.01271687, 100.31200409, 84.66732025, 33.46999741, 0.00000000
1, 43.6401, 2922, -0.03028751, -0.97045147, 0.16669305, -1.39786601, -2.24273634, 36.06917953, -34.17129517, 9.03244686, -68.19643402, 98.97945404, -7.00799084, 99.86839294, -0.38177288, 0.51884216, 0.55521137, 0.52611089, -0.08981125, -0.01046105, -0.01336573, 100.31200409, 84.66732025, 33.46999741, 0.00000000
1, 43.6501, 2923, 0.00213562, -0.96114528, 0.17542675, -0.12095008, -6.02911520, 37.55755234, -34.05437088, 9.20783424, -68.25489807, 98.99404907, -7.36972952, 99.74984741, -0.38033617, 0.52093261, 0.55330753, 0.52709061, -0.12850022, -0.01900350, -0.02202981, 100.31200409, 84.66732025, 33.46999741, 0.00000000
1, 43.6601, 2924, -0.08072168, -0.95437777, 0.16359363, 1.07216418, -8.99133587, 38.05011368, -34.60976410, 9.23706532, -67.93334961, 99.02530670, -7.73168373, 99.60076904, -0.37896118, 0.52321678, 0.55133122, 0.52788860, -0.05186361, -0.02487788, -0.01007524, 100.31200409, 84.66732025, 33.46999741, 0.00000000
1, 43.6701, 2925, -0.16848288, -0.95953774, 0.15883003, 2.26446247, -13.19037342, 39.28436279, -34.60976410, 9.23706532, -67.93334961, 99.07559967, -8.09915257, 99.40747070, -0.37767175, 0.52578729, 0.54920816, 0.52847165, 0.02957182, -0.01874210, -0.00496329, 100.31200409, 84.66732025, 33.46999741, 0.00000000
1, 43.6801, 2926, -0.22151311, -0.94008899, 0.17175189, 4.33785772, -17.11353111, 38.76135635, -34.31745148, 7.13241720, -67.93334961, 99.15431213, -8.46023083, 99.17494965, -0.37646395, 0.52859998, 0.54704952, 0.52876627, 0.07632849, -0.03714462, -0.01696662, 100.31200409, 84.66732025, 33.46999741, 0.00000000
1, 43.6901, 2927, -0.20645286, -0.95226955, 0.16936527, 4.05967951, -11.84678841, 38.36465454, -35.57439423, 9.52937698, -67.84565735, 99.22282410, -8.82023430, 98.99530029, -0.37506199, 0.53110886, 0.54508036, 0.52928191, 0.05502883, -0.02382983, -0.01341777, 100.31200409, 84.66732025, 33.46999741, 0.00000000
1, 43.7001, 2928, -0.17225847, -0.97531736, 0.20047523, 2.67264891, -8.93112755, 38.29407120, -36.18824768, 7.51242304, -68.25489807, 99.27410889, -9.18401814, 98.84432220, -0.37358436, 0.53342789, 0.54313940, 0.52998966, 0.01450335, 0.00029118, -0.04364319, 100.31200409, 84.66732025, 33.46999741, 0.00000000
1, 43.7101, 2929, -0.18028007, -1.01334035, 0.25001621, -0.07470797, -6.86921453, 37.74725342, -35.95439911, 9.64630222, -68.60566711, 99.29541779, -9.54566860, 98.71449280, -0.37215778, 0.53553003, 0.54115760, 0.53089988, 0.01614042, 0.03932926, -0.09286661, 100.31200409, 84.66732025, 33.46999741, 0.00000000
1, 43.7201, 2930, -0.24507535, -1.03275871, 0.26636830, -2.21476364, -6.53918219, 37.01121521, -35.95439911, 9.64630222, -68.60566711, 99.29539490, -9.90060997, 98.58892059, -0.37084562, 0.53750706, 0.53911543, 0.53189701, 0.07476237, 0.05976365, -0.10945261, 100.31200409, 84.66732025, 33.46999741, 0.00000000
1, 43.7301, 2931, -0.26033524, -1.01829123, 0.22290711, -3.61846232, -5.19065237, 36.92101288, -36.62671661, 9.44168377, -68.31335449, 99.28321838, -10.26167774, 98.47476959, -0.36950386, 0.53940612, 0.53703636, 0.53301036, 0.08397350, 0.04639912, -0.06638675, 100.31200409, 84.66732025, 33.46999741, 0.00000000
1, 43.7401, 2932, -0.22604789, -1.00273752, 0.21086170, -2.19934130, -16.62437820, 37.06857681, -36.71440887, 9.93861389, -67.87489319, 99.30329132, -10.60106659, 98.24765015, -0.36865115, 0.54184395, 0.53465456, 0.53352225, 0.04372299, 0.03196685, -0.05424143, 100.31200409, 84.66732025, 33.46999741, 0.00000000
1, 43.7501, 2933, -0.21210416, -1.01482224, 0.18324062, -3.17951226, -12.16165161, 36.53895569, -35.77901077, 8.82782841, -67.55334473, 99.30637360, -10.94234085, 98.06591034, -0.36765727, 0.54401094, 0.53238946, 0.53426749, 0.02402447, 0.04520620, -0.02660291, 100.31200409, 84.66732025, 33.46999741, 0.00000000
1, 43.7601, 2934, -0.16811955, -1.02280354, 0.19797222, -3.94606566, -14.79695511, 37.22199631, -36.15901566, 9.85092068, -67.64103699, 99.30823517, -11.28615952, 97.85630798, -0.36678562, 0.54630184, 0.52996498, 0.53493899, -0.02587173, 0.05429594, -0.04138014, 100.31200409, 84.66732025, 33.46999741, 0.00000000
1, 43.7701, 2935, -0.18410791, -1.01275456, 0.18170097, -5.52475834, -12.05593967, 37.83321381, -36.15901566, 9.85092068, -67.64103699, 99.29032135, -11.64045715, 97.67308044, -0.36582953, 0.54843587, 0.52751905, 0.53582710, -0.01584444, 0.04543453, -0.02548553, 100.31200409, 84.66732025, 33.46999741, 0.00000000
1, 43.7801, 2936, -0.24074036, -1.02068841, 0.16484317, -5.02025461, -11.30159664, 37.05609131, -36.50979233, 8.27243519, -67.52411652, 99.27636719, -11.99030685, 97.49907684, -0.36483565, 0.55051225, 0.52514368, 0.53670782, 0.03483025, 0.05457172, -0.00927913, 100.31200409, 84.66732025, 33.46999741, 0.00000000
1, 43.8001, 2937, -0.28491271, -1.05934751, 0.16316022, -5.57872629, -9.50190353, 35.87927246, -36.42210007, 8.76936531, -67.46565247, 99.26070404, -12.66939449, 97.10766602, -0.36310461, 0.55479234, 0.52029759, 0.53819227, 0.06734286, 0.09569469, -0.00834482, 100.31200409, 84.66732025, 33.46999741, 0.00000000
1, 43.8101, 2938, -0.24160832, -1.08069658, 0.17128135, -8.04300022, -7.42619801, 34.85597229, -37.82519531, 10.02630806, -67.81642914, 99.21049500, -13.00192165, 96.97562408, -0.36218399, 0.55646765, 0.51799870, 0.53929937, 0.01829666, 0.11818978, -0.01730175, 100.31200409, 84.66732025, 33.46999741, 0.00000000
1, 43.8201, 2939, -0.26582208, -1.08563507, 0.13694182, -9.38617611, -8.30625725, 34.02837372, -37.82519531, 10.02630806, -67.81642914, 99.14924622, -13.32505226, 96.83615112, -0.36140364, 0.55809921, 0.51564336, 0.54039311, 0.03705176, 0.12430188, 0.01583600, 100.31200409, 84.66732025, 33.46999741, 0.00000000
1, 43.8301, 2940, -0.31087917, -1.06609416, 0.14218518, -10.61656094, -8.33686638, 32.67626572, -37.97135162, 6.46009922, -66.96871948, 99.07417297, -13.64019299, 96.70055389, -0.36071694, 0.55963278, 0.51326728, 0.54152673, 0.07671338, 0.10582229, 0.00911285, 100.31200409, 84.66732025, 33.46999741, 0.00000000
1, 43.8401, 2941, -0.37565368, -1.06051624, 0.12969178, -11.79919720, -3.61667824, 30.77080154, -38.05904770, 9.88015175, -67.29026794, 98.97740936, -13.93882751, 96.61451721, -0.35999218, 0.56080961, 0.51109427, 0.54284519, 0.13631785, 0.10128526, 0.01981760, 100.31200409, 84.66732025, 33.46999741, 0.00000000
1, 43.8501, 2942, -0.36778021, -1.06398785, 0.17634127, -12.67681217, 3.64976025, 28.09842300, -38.05904770, 8.71090317, -67.52411652, 98.85308075, -14.22237206, 96.60723877, -0.35911098, 0.56149060, 0.50923491, 0.54447001, 0.12342997, 0.10557922, -0.02894188, 100.31200409, 84.66732025, 33.46999741, 0.00000000
1, 43.8601, 2943, -0.38955748, -1.06594872, 0.21431024, -12.35305882, 8.69096088, 25.69069862, -38.20520401, 9.73399544, -67.23180389, 98.71814728, -14.48977184, 96.65579224, -0.35810241, 0.56183100, 0.50766325, 0.54624784, 0.14047927, 0.10829748, -0.06935833, 100.31200409, 84.66732025, 33.46999741, 0.00000000
1, 43.8701, 2944, -0.40794232, -1.06366372, 0.18039826, -12.74287224, 13.75991249, 22.59168243, -38.58520889, 8.85705948, -67.72873688, 98.56454468, -14.73394012, 96.76166534, -0.35703474, 0.56177622, 0.50637978, 0.54819089, 0.15467867, 0.10678887, -0.03808784, 100.31200409, 84.66732025, 33.46999741, 0.00000000
1, 43.8801, 2945, -0.40591684, -1.03370512, 0.14714921, -13.00438881, 18.67363930, 20.20590210, -38.58520889, 8.85705948, -67.72873688, 98.39318848, -14.96897602, 96.92335510, -0.35583222, 0.56138951, 0.50531936, 0.55034316, 0.14876169, 0.07750930, -0.00767757, 100.31200409, 84.66732025, 33.46999741, 0.00000000
1, 43.8901, 2946, -0.37232828, -1.01536024, 0.13622442, -13.46776581, 22.64395905, 17.87030602, -39.28675842, 10.05553913, -67.81642914, 98.20546722, -15.17848492, 97.12899780, -0.35463068, 0.56066942, 0.50450152, 0.55259848, 0.11145200, 0.05972715, 0.00016725, 100.31200409, 84.66732025, 33.46999741, 0.00000000
1, 43.9001, 2947, -0.38819793, -0.99183929, 0.11350710, -13.32731915, 22.26599884, 15.51101494, -38.76059723, 10.52323914, -67.55334473, 98.01830292, -15.36347389, 97.33507538, -0.35355040, 0.55986404, 0.50378996, 0.55475223, 0.12410672, 0.03667096, 0.01961296, 100.31200409, 84.66732025, 33.46999741, 0.00000000
1, 43.9101, 2948, -0.39175484, -0.96229017, 0.11774875, -12.92846680, 22.64911842, 13.46451950, -40.04676819, 10.23092651, -68.10874176, 97.83245087, -15.52804279, 97.54877472, -0.35253090, 0.55895865, 0.50320601, 0.55684018, 0.12476066, 0.00746736, 0.01220021, 100.31200409, 84.66732025, 33.46999741, 0.00000000
1, 43.9201, 2949, -0.36328465, -0.93540096, 0.15603223, -12.37123203, 20.21383095, 11.34882450, -39.57907104, 9.03244686, -68.31335449, 97.65732574, -15.66773510, 97.74102783, -0.35169226, 0.55809259, 0.50267386, 0.55871665, 0.09367625, -0.01920246, -0.02906580, 100.31200409, 84.66732025, 33.46999741, 0.00000000
1, 43.9301, 2950, -0.38797036, -0.92094290, 0.18015170, -11.97033405, 14.60002422, 9.54493618, -39.57907104, 9.03244686, -68.31335449, 97.50958252, -15.79843807, 97.87260437, -0.35106090, 0.55754650, 0.50201517, 0.56024897, 0.11616711, -0.03346607, -0.05598557, 100.31200409, 84.66732025, 33.46999741, 0.00000000
1, 43.9401, 2951, -0.39679855, -0.90506709, 0.20291054, -11.27826977, 12.94908810, 8.18231869, -39.63753128, 9.47091484, -68.43028259, 97.36353302, -15.89641857, 97.99518585, -0.35063994, 0.55692595, 0.50146276, 0.56162298, 0.12299475, -0.04914538, -0.08118264, 100.31200409, 84.66732025, 33.46999741, 0.00000000
1, 43.9501, 2952, -0.36690030, -0.90030217, 0.22705291, -11.31176853, 13.92380047, 6.73378563, -39.31599045, 9.90938282, -68.60566711, 97.21355438, -15.98094749, 98.13003540, -0.35024831, 0.55619150, 0.50100726, 0.56299984, 0.09152524, -0.05384284, -0.10778064, 100.31200409, 84.66732025, 33.46999741, 0.00000000
1, 43.9601, 2953, -0.35538104, -0.90013409, 0.21292515, -11.16769695, 13.51706409, 5.58306122, -40.45600510, 9.79245853, -67.99181366, 97.06548309, -16.05320740, 98.26244354, -0.34992331, 0.55542970, 0.50060087, 0.56431413, 0.07875966, -0.05393185, -0.09611358, 100.31200409, 84.66732025, 33.46999741, 0.00000000
1, 43.9701, 2954, -0.34906223, -0.88883042, 0.20219383, -11.17950058, 15.68840885, 4.35556173, -40.48523712, 9.14937115, -68.54721069, 96.91040802, -16.11556053, 98.41905975, -0.34956381, 0.55450529, 0.50031817, 0.56569499, 0.07136131, -0.06521896, -0.08795273, 100.31200409, 84.66732025, 33.46999741, 0.00000000
1, 43.9801, 2955, -0.29190370, -0.89092815, 0.18131010, -12.04222012, 16.43086624, 4.31413603, -40.48523712, 9.14937115, -68.54721069, 96.75445557, -16.17727280, 98.57558441, -0.34920928, 0.55357778, 0.50003028, 0.56707531, 0.01322998, -0.06310947, -0.06958573, 100.31200409, 84.66732025, 33.46999741, 0.00000000
1, 43.9901, 2956, -0.24213962, -0.88185322, 0.16261590, -12.83190918, 15.66367435, 4.79663229, -40.51446915, 8.97398376, -68.81028748, 96.58261871, -16.24317551, 98.73188019, -0.34890655, 0.55262017, 0.49964055, 0.56853729, -0.03756319, -0.07216638, -0.05352571, 100.31200409, 84.66732025, 33.46999741, 0.00000000
1, 44.0001, 2957, -0.24165702, -0.86860359, 0.13951977, -13.27992535, 14.75889206, 6.06017494, -40.66062546, 8.82782841, -68.98567963, 96.40912628, -16.32016945, 98.87760925, -0.34860060, 0.55174714, 0.49913871, 0.57001162, -0.03919293, -0.08535707, -0.03329836, 100.31200409, 84.66732025, 33.46999741, 0.00000000
1, 44.0101, 2958, -0.20040566, -0.85382330, 0.14329083, -13.36907291, 15.23227406, 8.08809280, -40.95293808, 8.91552162, -69.27798462, 96.23374939, -16.41743851, 99.02623749, -0.34817585, 0.55093443, 0.49854776, 0.57157242, -0.08194868, -0.10003657, -0.03992562, 100.31200409, 84.66732025, 33.46999741, 0.00000000
1, 44.0201, 2959, -0.16874370, -0.85836661, 0.13538168, -14.01874065, 15.11373138, 10.63482189, -40.51446915, 7.36626720, -69.10260010, 96.05271149, -16.53946114, 99.17124176, -0.34765860, 0.55021662, 0.49779677, 0.57323080, -0.11547315, -0.09524976, -0.03496093, 100.31200409, 84.66732025, 33.46999741, 0.00000000
1, 44.0301, 2960, -0.15596305, -0.85885608, 0.12257314, -14.67472553, 14.13262177, 13.56416893, -40.51446915, 7.36626720, -69.10260010, 95.87257385, -16.67892647, 99.29956055, -0.34712246, 0.54964304, 0.49688840, 0.57489163, -0.13049796, -0.09438661, -0.02522624, 100.31200409, 84.66732025, 33.46999741, 0.00000000
1, 44.0401, 2961, -0.15263377, -0.85757697, 0.11283774, -15.34043884, 14.09457779, 17.11200523, -40.92370605, 8.94475269, -69.74568939, 95.68244171, -16.86353683, 99.42831421, -0.34638369, 0.54921222, 0.49572599, 0.57674968, -0.13654865, -0.09514493, -0.01864378, 100.31200409, 84.66732025, 33.46999741, 0.00000000
1, 44.0501, 2962, -0.16854516, -0.85917568, 0.10429333, -15.87513065, 11.92799854, 20.13423729, -41.24525070, 8.88629055, -69.04413605, 95.49388123, -17.07578278, 99.53224945, -0.34560910, 0.54900217, 0.49432361, 0.57861489, -0.12399001, -0.09282380, -0.01338462, 100.31200409, 84.66732025, 33.46999741, 0.00000000
1, 44.0601, 2963, -0.16556950, -0.86291671, 0.10077728, -16.56489754, 10.80650234, 23.09572411, -41.47909927, 9.14937115, -69.39491272, 95.30213928, -17.31615829, 99.62249756, -0.34476346, 0.54895222, 0.49270779, 0.58054167, -0.13079055, -0.08820574, -0.01314906, 100.31200409, 84.66732025, 33.46999741, 0.00000000
1, 44.0701, 2964, -0.20363443, -0.85744381, 0.10644796, -16.54458618, 6.78907490, 25.78635406, -40.83601379, 8.59397793, -69.59953308, 95.12335205, -17.57946587, 99.66922760, -0.34394985, 0.54921836, 0.49083999, 0.58235204, -0.09699488, -0.09264871, -0.02210938, 100.31200409, 84.66732025, 33.46999741, 0.00000000
1, 44.0801, 2965, -0.28004628, -0.86742294, 0.10480142, -16.35451126, 1.86148047, 27.99745560, -40.83601379, 8.59397793, -69.59953308, 94.96529388, -17.86011505, 99.66092682, -0.34322187, 0.54984921, 0.48872912, 0.58395928, -0.02514179, -0.08146995, -0.02355316, 100.31200409, 84.66732025, 33.46999741, 0.00000000
1, 44.0901, 2966, -0.26002780, -0.88868630, 0.10929553, -16.55646133, 1.35952318, 29.98603821, -42.47296143, 8.94475269, -70.15492249, 94.80419922, -18.16047287, 99.64881897, -0.34242111, 0.55056173, 0.48648846, 0.58562666, -0.05004628, -0.05886941, -0.03076037, 100.31200409, 84.66732025, 33.46999741, 0.00000000
1, 44.1501, 2967, -0.34789288, -1.04947436, 0.09698559, -15.25837421, -0.06175174, 23.59118843, -42.44372940, 8.71090317, -70.35954285, 93.97811127, -19.81519508, 99.35929871, -0.33887696, 0.55557591, 0.47325367, 0.59374142, 0.01010583, 0.11033553, -0.03335869, 100.31200409, 84.66732025, 33.46999741, 0.00000000
1, 44.1601, 2968, -0.31110185, -1.04366052, 0.15538687, -15.94947338, -1.59770012, 24.21184349, -43.29143524, 8.76936531, -70.91493988, 93.83084869, -20.05611229, 99.32521057, -0.33845377, 0.55618662, 0.47120696, 0.59503746, -0.03073425, 0.10566383, -0.09418023, 100.31200409, 84.66732025, 33.46999741, 0.00000000
1, 44.1701, 2969, -0.24257201, -1.03098881, 0.20327981, -15.47406864, -0.76907814, 26.15341187, -43.46682358, 8.65244102, -70.44723511, 93.68573761, -20.31700325, 99.29920959, -0.33787018, 0.55684429, 0.46911246, 0.59640741, -0.10350612, 0.09425901, -0.14437830, 100.31200409, 84.66732025, 33.46999741, 0.00000000
1, 44.1801, 2970, -0.16379598, -1.04876852, 0.24081658, -15.21750259, -0.57555169, 29.81771278, -43.64220810, 8.62320995, -70.97339630, 93.55983734, -20.59511375, 99.25862885, -0.33717594, 0.55768126, 0.46696112, 0.59770507, -0.18693632, 0.11352235, -0.18409519, 100.31200409, 84.66732025, 33.46999741, 0.00000000
1, 44.1901, 2971, -0.11860220, -1.10467875, 0.27090541, -16.84467506, 1.07196629, 33.90869522, -43.64220810, 8.62320995, -70.97339630, 93.39575958, -20.93464470, 99.24863434, -0.33617327, 0.55850959, 0.46446532, 0.59943855, -0.23723990, 0.17113668, -0.21656474, 100.31200409, 84.66732025, 33.46999741, 0.00000000
1, 44.2001, 2972, -0.05466186, -1.14396489, 0.29306087, -21.13202286, 6.82625341, 39.37578583, -43.70067215, 8.76936531, -70.88570404, 93.16753387, -21.33211136, 99.29819489, -0.33485472, 0.55912536, 0.46164235, 0.60177869, -0.30734017, 0.21252993, -0.24209616, 100.31200409, 84.66732025, 33.46999741, 0.00000000
1, 44.2101, 2973, -0.00836293, -1.17602456, 0.25263646, -22.22157097, 11.57732487, 45.70713425, -44.31452560, 8.97398376, -70.82723999, 92.91002655, -21.79506302, 99.39724731, -0.33305842, 0.55970424, 0.45858514, 0.60456842, -0.36066264, 0.24722379, -0.20578566, 100.31200409, 84.66732025, 33.46999741, 0.00000000
1, 44.2201, 2974, 0.04549908, -1.21614826, 0.25764775, -24.63094139, 18.07968712, 51.88671494, -44.48991394, 8.97398376, -71.93802643, 92.60156250, -22.32236862, 99.56609344, -0.33078471, 0.56010354, 0.45527813, 0.60793698, -0.42269081, 0.29037622, -0.21554226, 100.31200409, 84.66732025, 33.46999741, 0.00000000
1, 44.2501, 2975, 0.20480628, -1.31836951, 0.20264389, -34.98292542, 18.23438835, 71.61635590, -45.33761978, 8.76936531, -71.79187012, 91.44485474, -24.27412415, 100.13031769, -0.32270274, 0.56186706, 0.44249052, 0.61997616, -0.61200774, 0.40483689, -0.17874515, 100.31200409, 84.66732025, 33.46999741, 0.00000000
1, 44.2601, 2976, 0.18870261, -1.38382459, 0.22493996, -38.12573242, 14.77132416, 77.67288971, -46.27301788, 9.38322163, -72.08418274, 91.00483704, -25.05459785, 100.27590942, -0.31977126, 0.56297874, 0.43703318, 0.62434226, -0.60804009, 0.47556350, -0.20817293, 100.31200409, 84.66732025, 33.46999741, 0.00000000
1, 44.2701, 2977, 0.16093145, -1.44021273, 0.28356764, -41.05290222, 13.74731350, 82.31262970, -47.35457230, 6.40163708, -72.40573120, 90.53548431, -25.88028908, 100.41739655, -0.31674936, 0.56420618, 0.43113279, 0.62886077, -0.59320986, 0.53774756, -0.27426887, 100.31200409, 84.66732025, 33.46999741, 0.00000000
1, 44.2801, 2978, 0.15297253, -1.45022285, 0.31868923, -41.97513580, 14.63301754, 87.20021057, -47.79304123, 9.76322746, -72.55188751, 90.05131531, -26.74470711, 100.57293701, -0.31350136, 0.56549835, 0.42498398, 0.63349611, -0.59871536, 0.55416083, -0.31703195, 100.31200409, 84.66732025, 33.46999741, 0.00000000
1, 44.2901, 2979, 0.19016127, -1.40898240, 0.36412281, -42.12071991, 23.06281281, 90.78553009, -47.79304123, 9.76322746, -72.55188751, 89.51117706, -27.65227509, 100.83783722, -0.30967358, 0.56641495, 0.41880226, 0.63865566, -0.64987099, 0.51986885, -0.37032968, 100.31200409, 84.66732025, 33.46999741, 0.00000000
1, 44.3001, 2980, 0.27339128, -1.40656614, 0.38816431, -42.55984879, 36.59838486, 94.14576721, -48.58228683, 9.64630222, -72.84420013, 88.88430786, -28.58888054, 101.26944733, -0.30516005, 0.56663871, 0.41276112, 0.64453572, -0.74744695, 0.52502978, -0.40319321, 100.31200409, 84.66732025, 33.46999741, 0.00000000
1, 44.3101, 2981, 0.47070837, -1.44457018, 0.45382488, -45.31671143, 43.50493240, 98.58679199, -49.60537720, 9.47091484, -72.84420013, 88.17679596, -29.56365776, 101.79787445, -0.30025238, 0.56650549, 0.40649062, 0.65091127, -0.95961416, 0.57119393, -0.47870851, 100.31200409, 84.66732025, 33.46999741, 0.00000000
1, 44.3201, 2982, 0.48661980, -1.44961560, 0.42014059, -45.54632568, 41.69661713, 104.22506714, -50.77462769, 10.31861973, -74.01344299, 87.45860291, -30.58963394, 102.32725525, -0.29506651, 0.56660748, 0.39983809, 0.65728319, -0.99070919, 0.58536041, -0.45553973, 100.31200409, 84.66732025, 33.46999741, 0.00000000
1, 44.3501, 2983, 0.23638645, -1.79228818, 0.35637993, -52.87055588, 94.18537140, 122.92021942, -53.02542877, 10.55247021, -74.71499634, 84.53564453, -33.88854599, 105.11418915, -0.27473912, 0.56240016, 0.37971169, 0.68120736, -0.78855431, 0.96056396, -0.43117183, 100.31200409, 84.66732025, 33.46999741, 0.00000000
1, 44.3601, 2984, 0.36422735, -1.93929124, 0.37819624, -61.66102600, 113.73792267, 136.06437683, -54.66238022, 11.13709450, -75.79654694, 83.04251099, -35.11772156, 106.66744232, -0.26584896, 0.55858821, 0.37207177, 0.69200158, -0.93369651, 1.12113714, -0.47184843, 100.31200409, 84.66732025, 33.46999741, 0.00000000
1, 44.3701, 2985, 0.49913734, -1.96976900, 0.49979436, -67.12013245, 101.77797699, 155.07493591, -56.44548416, 11.98479939, -75.94270325, 81.49584961, -36.51758957, 108.17172241, -0.25637698, 0.55583429, 0.36280024, 0.70263445, -1.08785653, 1.16751027, -0.61355448, 100.31200409, 84.66732025, 33.46999741, 0.00000000
1, 44.3801, 2986, 0.15850787, -1.91270888, 0.60841411, -73.61927032, 67.76490021, 164.38938904, -57.23472595, 13.00789261, -76.93656921, 80.05641174, -38.02892303, 109.34288788, -0.24767403, 0.55516350, 0.35182935, 0.71180564, -0.76823723, 1.12864566, -0.74079299, 100.31200409, 84.66732025, 33.46999741, 0.00000000
1, 44.3901, 2987, -0.16296196, -1.69059563, 0.57785016, -84.63599396, 57.13885880, 159.77217102, -57.23472595, 13.00789261, -76.93656921, 78.52262115, -39.49341583, 110.44686890, -0.24002860, 0.55461210, 0.34004208, 0.72052974, -0.46716017, 0.92603397, -0.72790802, 100.31200409, 84.66732025, 33.46999741, 0.00000000
1, 44.4001, 2988, -0.30027083, -1.47165310, 0.34053460, -92.40415955, 66.49400330, 150.27941895, -58.60859299, 13.38789845, -77.49195862, 76.78053284, -40.81983185, 111.72040558, -0.23301673, 0.55287600, 0.32832664, 0.72954303, -0.34779602, 0.72703779, -0.50925803, 100.31200409, 84.66732025, 33.46999741, 0.00000000
1, 44.4101, 2989, -0.28908926, -1.29554856, 0.18607536, -92.26766205, 70.08194733, 144.47444153, -60.21630859, 13.91405964, -78.77813721, 74.94786835, -42.05033875, 113.10101318, -0.22619933, 0.55060124, 0.31688780, 0.73841333, -0.37520212, 0.57080376, -0.37452084, 100.31200409, 84.66732025, 33.46999741, 0.00000000
1, 44.4201, 2990, -0.24062181, -1.08750379, 0.11519606, -82.70429993, 49.05422592, 140.88955688, -61.56094742, 14.61560917, -79.74276733, 73.33243561, -43.27226257, 114.26998138, -0.21967858, 0.54963863, 0.30574557, 0.74576026, -0.43926424, 0.38245350, -0.32069203, 100.31200409, 84.66732025, 33.46999741, 0.00000000
1, 44.4301, 2991, -0.50518334, -0.84930515, 0.03009136, -67.77817535, 28.10050011, 141.25169373, -61.91172028, 14.79099655, -80.21046448, 71.99969482, -44.53616333, 115.22262573, -0.21295512, 0.55024868, 0.29510936, 0.75152320, -0.19033277, 0.16397490, -0.24884176, 100.31200409, 84.66732025, 33.46999741, 0.00000000
1, 44.4401, 2992, -0.84779733, -0.62978327, -0.01290722, -56.65451431, 33.67300034, 136.52838135, -61.91172028, 14.79099655, -80.21046448, 70.67462921, -45.72192764, 116.29766083, -0.20580801, 0.55044788, 0.28546134, 0.75707465, 0.13719553, -0.03602836, -0.21743682, 100.31200409, 84.66732025, 33.46999741, 0.00000000
1, 44.4501, 2993, -0.99893701, -0.52321863, 0.05184478, -38.70974350, 14.43107128, 116.58013916, -63.43174362, 15.98947620, -80.50277710, 69.73423004, -46.77005768, 117.06804657, -0.19956824, 0.55166572, 0.27756757, 0.76078504, 0.27473980, -0.12520152, -0.29047382, 100.31200409, 84.66732025, 33.46999741, 0.00000000
1, 44.4601, 2994, -1.05578852, -0.63680983, 0.08109750, -25.44169235, 0.42119041, 87.33451080, -64.36714172, 16.48640823, -81.52587128, 69.14511108, -47.58638000, 117.52733612, -0.19496027, 0.55328864, 0.27168667, 0.76292104, 0.32066625, 0.00208917, -0.32389134, 100.31200409, 84.66732025, 33.46999741, 0.00000000
1, 44.4701, 2995, -0.85491443, -0.65641439, 0.08879434, -24.09734344, 11.93002701, 63.84386826, -64.92253876, 17.68488693, -81.05816650, 68.52664948, -48.13866806, 118.03826141, -0.19157550, 0.55358469, 0.26720706, 0.76514268, 0.11211585, 0.03196340, -0.33452109, 100.31200409, 84.66732025, 33.46999741, 0.00000000
1, 44.4801, 2996, -0.46772438, -0.43979865, 0.17062531, -17.37231255, 17.21637154, 42.50242996, -65.18561554, 18.32797432, -80.94124603, 68.02365112, -48.47109604, 118.48851013, -0.18921559, 0.55324358, 0.26432294, 0.76697612, -0.28004149, -0.17731200, -0.41949141, 100.31200409, 84.66732025, 33.46999741, 0.00000000
1, 44.4901, 2997, -0.20652573, -0.30092940, 0.20234036, -4.33211613, 12.05503654, 21.16457558, -65.44869995, 18.47413063, -81.23355865, 67.76388550, -48.62157822, 118.77796936, -0.18772715, 0.55285031, 0.26321411, 0.76800621, -0.54384601, -0.31215587, -0.45280945, 100.31200409, 84.66732025, 33.46999741, 0.00000000
1, 44.5001, 2998, -0.05896553, -0.25479028, 0.14751880, 7.42454290, 15.40736103, 3.86667371, -65.44869995, 18.47413063, -81.23355865, 67.65989685, -48.59846878, 119.01562500, -0.18675824, 0.55202597, 0.26378003, 0.76864100, -0.69174099, -0.35700631, -0.39906740, 100.31200409, 84.66732025, 33.46999741, 0.00000000
1, 44.5101, 2999, 0.00240045, -0.25786600, 0.08444397, 18.49469376, 14.14970875, -11.70965767, -65.62408447, 18.67874908, -82.19818878, 67.74718475, -48.43584442, 119.14556122, -0.18633330, 0.55110621, 0.26581559, 0.76870275, -0.75163257, -0.35524747, -0.33631307, 100.31200409, 84.66732025, 33.46999741, 0.00000000
1, 44.5201, 3000, -0.04462150, -0.26836929, 0.03184558, 29.30245209, 5.45823097, -26.04022598, -65.18561554, 18.47413063, -82.22741699, 68.09340668, -48.17336655, 119.07337952, -0.18655331, 0.55060881, 0.26911962, 0.76785582, -0.70185053, -0.34847611, -0.28232223, 100.31200409, 84.66732025, 33.46999741, 0.00000000
1, 44.5301, 3001, -0.15988122, -0.29206434, -0.01310463, 40.26565552, -6.02829838, -41.42085266, -64.86407471, 18.76644325, -81.55509949, 68.73319244, -47.80691910, 118.75477600, -0.18757220, 0.55069852, 0.27372783, 0.76591194, -0.58271271, -0.33087981, -0.23356542, 100.31200409, 84.66732025, 33.46999741, 0.00000000
1, 44.5401, 3002, -0.28509119, -0.31244156, -0.02691502, 51.47590256, -23.43105125, -57.66421127, -64.16252136, 18.91259766, -81.84741211, 69.71131897, -47.35026169, 118.12495422, -0.18952435, 0.55171716, 0.27954200, 0.76259094, -0.45245329, -0.31916940, -0.21290123, 100.31200409, 84.66732025, 33.46999741, 0.00000000
1, 44.5501, 3003, -0.34115341, -0.30674201, -0.01847730, 62.90323257, -44.02473450, -73.67091370, -64.16252136, 18.91259766, -81.84741211, 71.05184937, -46.80361938, 117.15071106, -0.19248272, 0.55386871, 0.28652462, 0.75768310, -0.39034942, -0.33598861, -0.21018489, 100.31200409, 84.66732025, 33.46999741, 0.00000000
1, 44.5601, 3004, -0.34611470, -0.27232322, 0.01189515, 73.06829834, -60.57081985, -91.15996552, -63.72405624, 19.29260445, -81.11663055, 72.68641663, -46.12536240, 115.90082550, -0.19650051, 0.55678844, 0.29471236, 0.75134474, -0.37799773, -0.38383234, -0.22568756, 100.31200409, 84.66732025, 33.46999741, 0.00000000
1, 44.5701, 3005, -0.30607203, -0.23206426, 0.04417873, 82.81400299, -69.48377991, -111.19578552, -63.40251160, 18.44489861, -80.21046448, 74.51837921, -45.25440598, 114.49445343, -0.20155928, 0.55985832, 0.30431029, 0.74386013, -0.40848234, -0.43995488, -0.24025749, 100.31200409, 84.66732025, 33.46999741, 0.00000000
1, 44.5801, 3006, -0.27783605, -0.22412130, 0.07182169, 92.57987213, -70.02679443, -132.38188171, -62.11634064, 18.24028015, -79.24583435, 76.44763947, -44.14945984, 113.06573486, -0.20749106, 0.56248480, 0.31550029, 0.73553920, -0.42426991, -0.46619785, -0.24851236, 100.31200409, 84.66732025, 33.46999741, 0.00000000
1, 44.5901, 3007, -0.27236450, -0.23914418, 0.06965339, 99.92225647, -62.99544525, -154.37310791, -61.21017075, 17.91873741, -78.60274506, 78.34783936, -42.77957153, 111.75112152, -0.21423130, 0.56401163, 0.32828450, 0.72679102, -0.41378993, -0.47166932, -0.22643545, 100.31200409, 84.66732025, 33.46999741, 0.00000000
1, 44.6001, 3008, -0.25170526, -0.27070910, 0.05596051, 106.77977753, -49.76091766, -176.66596985, -61.21017075, 17.91873741, -78.60274506, 80.15022278, -41.13556671, 110.64653778, -0.22160777, 0.56401092, 0.34274194, 0.71785074, -0.41454130, -0.46263924, -0.19315350, 100.31200409, 84.66732025, 33.46999741, 0.00000000
1, 44.6101, 3009, -0.23494844, -0.30481884, 0.03904094, 112.26545715, -45.53522873, -194.14363098, -60.18708038, 16.98333740, -78.01811981, 81.90738678, -39.28740692, 109.65679932, -0.22960582, 0.56311971, 0.35835475, 0.70834976, -0.40785339, -0.45237210, -0.15659808, 100.31200409, 84.66732025, 33.46999741, 0.00000000
1, 44.6201, 3010, -0.21164539, -0.32806882, 0.03434257, 118.37209320, -43.96854019, -210.90393066, -58.66705704, 15.72639561, -76.49810028, 83.64240265, -37.24872971, 108.75881958, -0.23819615, 0.56148863, 0.37504345, 0.69809431, -0.40445700, -0.45375472, -0.13143124, 100.31200409, 84.66732025, 33.46999741, 0.00000000
1, 44.6301, 3011, -0.18737482, -0.34276673, 0.03816297, 124.76887512, -41.45265579, -227.92570496, -56.59164047, 15.75562668, -76.61502075, 85.35021973, -35.01675797, 107.97093201, -0.24732102, 0.55900818, 0.39282840, 0.68704295, -0.39862418, -0.46413100, -0.11382226, 100.31200409, 84.66732025, 33.46999741, 0.00000000
1, 44.6401, 3012, -0.19426091, -0.38329974, 0.00907529, 132.47402954, -41.10062408, -244.29710388, -55.62701035, 14.61560917, -75.15346527, 87.05493927, -32.60408783, 107.27765656, -0.25689816, 0.55579138, 0.41164893, 0.67501450, -0.35798183, -0.44867292, -0.06227583, 100.31200409, 84.66732025, 33.46999741, 0.00000000
1, 44.6501, 3013, -0.22766416, -0.45505351, -0.03469706, 140.53790283, -42.51706696, -260.87298584, -55.62701035, 14.61560917, -75.15346527, 88.77308655, -30.01007462, 106.66406250, -0.26694992, 0.55188769, 0.43144989, 0.66182232, -0.28718027, -0.40154254, 0.00542299, 100.31200409, 84.66732025, 33.46999741, 0.00000000
1, 44.6601, 3014, -0.24375190, -0.53044415, -0.07021555, 148.70033264, -39.64953613, -274.47378540, -53.78544235, 12.62788677, -74.51037598, 90.48249817, -27.26517868, 106.18689728, -0.27709705, 0.54709977, 0.45213315, 0.64766878, -0.23019932, -0.34976351, 0.06638152, 100.31200409, 84.66732025, 33.46999741, 0.00000000
1, 44.6901, 3015, -0.19538815, -0.80230296, -0.02928771, 165.19523621, -37.59747314, -307.84677124, -46.94533539, 11.75094986, -70.97339630, 95.58862305, -18.29713249, 105.44346619, -0.30800831, 0.52793854, 0.51721513, 0.59908295, -0.13780740, -0.13680023, 0.10897586, 100.31200409, 84.66732025, 33.46999741, 0.00000000
1, 44.7001, 3016, -0.23643972, -0.94615960, 0.00535782, 167.39620972, -35.20213699, -318.40347290, -46.94533539, 11.75094986, -70.97339630, 97.25472260, -15.08984470, 105.44519043, -0.31845281, 0.51963574, 0.53939003, 0.58105499, -0.04418970, -0.00708594, 0.10337402, 100.31200409, 84.66732025, 33.46999741, 0.00000000
1, 44.7101, 3017, -0.28975824, -1.12474084, 0.03425349, 168.09748840, -30.66324234, -334.67361450, -45.68839645, 11.75094986, -70.41800690, 98.88947296, -11.72912216, 105.61135864, -0.32914987, 0.50981843, 0.56190389, 0.56214726, 0.06477460, 0.16062385, 0.10347344, 100.31200409, 84.66732025, 33.46999741, 0.00000000
1, 44.7201, 3018, -0.30730700, -1.27697933, 0.02716589, 169.03643799, -28.67630768, -346.81881714, -43.11604691, 11.69248772, -68.57643890, 100.51929474, -8.25781345, 105.91305542, -0.33994308, 0.49876967, 0.58443594, 0.54231185, 0.14103714, 0.30572411, 0.13962725, 100.31200409, 84.66732025, 33.46999741, 0.00000000
1, 44.7301, 3019, -0.27439553, -1.42837346, 0.08866294, 169.74661255, -34.10744476, -358.36676025, -40.80678177, 11.13709450, -67.67027283, 102.16555023, -4.67299175, 106.28149414, -0.35113245, 0.48682025, 0.60664982, 0.52123708, 0.16919890, 0.45406422, 0.10735577, 100.31200409, 84.66732025, 33.46999741, 0.00000000
1, 44.7401, 3020, -0.17634755, -1.59279299, 0.15551890, 167.42874146, -47.56656265, -368.12216187, -37.85442734, 11.51710033, -66.00408936, 103.81266785, -0.97429705, 106.64115143, -0.36314711, 0.47429618, 0.62801248, 0.49876609, 0.13461892, 0.61996955, 0.06949750, 100.31200409, 84.66732025, 33.46999741, 0.00000000
1, 44.7501, 3021, -0.14393745, -1.72201312, 0.14847940, 160.05317688, -64.92689514, -371.66687012, -37.85442734, 11.51710033, -66.00408936, 105.40853119, 2.79037142, 106.94573975, -0.37610930, 0.46149975, 0.64785033, 0.47523662, 0.16759133, 0.75548506, 0.10392404, 100.31200409, 84.66732025, 33.46999741, 0.00000000
1, 44.7601, 3022, -0.28316540, -1.90714860, 0.15851502, 149.35252380, -75.32895660, -363.64651489, -35.07746124, 11.37094402, -65.39023590, 106.91625214, 6.49672651, 107.23058319, -0.38928273, 0.44866627, 0.66577089, 0.45156038, 0.37194923, 0.95136726, 0.11810580, 100.31200409, 84.66732025, 33.46999741, 0.00000000
1, 44.7701, 3023, -0.46192235, -2.14455271, 0.17724380, 137.69572449, -66.53889465, -347.18209839, -32.85588837, 12.21864891, -64.25022125, 108.34552765, 10.01052380, 107.64766693, -0.40129405, 0.43553388, 0.68211979, 0.42893586, 0.61288905, 1.20334029, 0.12043031, 100.31200409, 84.66732025, 33.46999741, 0.00000000
1, 44.8001, 3024, -0.26910809, -2.17658758, 0.10043573, 98.35713196, -27.52231407, -284.84823608, -25.43115997, 14.49868488, -61.82402802, 112.20379639, 19.12019539, 109.76667786, -0.42912936, 0.39507139, 0.72280407, 0.37056851, 0.57971984, 1.29373038, 0.24747944, 100.31200409, 84.66732025, 33.46999741, 0.00000000
1, 44.8101, 3025, -0.31307536, -1.92032492, -0.04769836, 85.35603333, -40.67610168, -245.50994873, -25.43115997, 14.49868488, -61.82402802, 113.26161194, 21.54501534, 110.37491608, -0.43663508, 0.38396931, 0.73228097, 0.35451671, 0.66600549, 1.05841410, 0.40755743, 100.31200409, 84.66732025, 33.46999741, 0.00000000
1, 44.8201, 3026, -0.84497386, -1.56967819, -0.44414741, 80.15065765, -67.98377991, -188.24095154, -24.32037354, 15.58023930, -61.32709503, 114.11105347, 23.54465866, 110.51616669, -0.44409025, 0.37701041, 0.73831695, 0.33990458, 1.23431277, 0.72733760, 0.81150210, 100.31200409, 84.66732025, 33.46999741, 0.00000000
1, 44.8301, 3027, -1.65080774, -1.27382898, -0.69395477, 81.98979187, -68.10411835, -126.99600220, -22.91727448, 16.92487526, -61.06401443, 114.88229370, 24.98006630, 110.41144562, -0.44951674, 0.37398899, 0.74217910, 0.32747084, 2.06704378, 0.44749942, 1.06646466, 100.31200409, 84.66732025, 33.46999741, 0.00000000
1, 44.8401, 3028, -1.76871312, -1.17680883, -0.09408441, 77.42969513, -47.88543320, -72.31793213, -21.45571518, 17.30488205, -60.88862991, 115.59481812, 25.84006691, 110.27217865, -0.45215482, 0.37368143, 0.74482679, 0.31804305, 2.20040512, 0.36165935, 0.47388452, 100.31200409, 84.66732025, 33.46999741, 0.00000000
1, 44.8501, 3029, -1.17371607, -1.40011609, 0.39446107, 42.29833221, -7.18658590, -11.82018948, -21.39725113, 17.88950539, -59.89476776, 116.01102448, 25.97848892, 110.25722504, -0.45157284, 0.37477547, 0.74609625, 0.31458837, 1.61106944, 0.59082907, -0.00729932, 100.31200409, 84.66732025, 33.46999741, 0.00000000
1, 44.8601, 3030, -0.54884607, -1.49511802, 0.06324918, -10.04848766, 61.39831924, 54.76662827, -21.39725113, 17.88950539, -59.89476776, 116.06159210, 25.21702957, 110.60327911, -0.44638050, 0.37625104, 0.74643761, 0.31939086, 0.98017597, 0.68469203, 0.32938966, 100.31200409, 84.66732025, 33.46999741, 0.00000000
1, 44.8701, 3031, -0.38542008, -1.40736055, -0.29851037, -43.89165878, 66.13013458, 115.10925293, -21.66033363, 15.66793346, -59.71937943, 115.66948700, 23.89162254, 110.70698547, -0.44024748, 0.38018012, 0.74397147, 0.32886428, 0.79959613, 0.58847451, 0.69228774, 100.31200409, 84.66732025, 33.46999741, 0.00000000
1, 44.8801, 3032, -0.64797938, -1.29680312, -0.29187125, -66.23222351, 1.55733383, 173.26797485, -23.06343079, 17.39257431, -60.15784836, 114.69789124, 22.30400658, 109.92260742, -0.43724042, 0.38883510, 0.73626989, 0.33990398, 1.03813028, 0.46317905, 0.67869049, 100.31200409, 84.66732025, 33.46999741, 0.00000000
1, 44.8901, 3033, 0.00888851, -1.23790371, 0.49846971, -64.39104462, -50.34527206, 194.49339294, -22.85881233, 16.42794418, -60.30400467, 113.56700897, 20.73033905, 108.57627106, -0.43675971, 0.40033782, 0.72573906, 0.34967616, 0.35298768, 0.38586664, -0.12167683, 100.31200409, 84.66732025, 33.46999741, 0.00000000
1, 44.9001, 3034, 1.68352759, -1.12934434, 1.96752429, -11.52880669, -169.19120789, 152.85095215, -24.05729294, 15.60947037, -61.21017075, 112.66067505, 19.98201180, 106.27848053, -0.44305390, 0.41471398, 0.71347862, 0.35023406, -1.34365773, 0.26174417, -1.59915698, 100.31200409, 84.66732025, 33.46999741, 0.00000000
1, 44.9101, 3035, 3.61708999, -2.44828081, 2.14657831, 63.92354584, -145.79838562, 32.37677765, -24.05729294, 15.60947037, -61.21017075, 112.76451874, 20.24504280, 104.71419525, -0.44876346, 0.42362571, 0.70856261, 0.34218675, -3.27888298, 1.57854724, -1.77875412, 100.31200409, 84.66732025, 33.46999741, 0.00000000
1, 44.9201, 3036, 1.11913109, -2.49889755, -3.24837589, -211.92033386, -68.35594940, 57.29318619, -22.91727448, 15.63870239, -60.71324158, 110.33467102, 19.96947479, 103.81970215, -0.45903665, 0.42075282, 0.69733173, 0.35493794, -0.76440656, 1.63042712, 3.58785057, 100.31200409, 84.66732025, 33.46999741, 0.00000000
1, 44.9301, 3037, -0.54463774, -1.19685948, -1.00120628, -149.22337341, 165.72262573, 179.81472778, -24.20344925, 14.20637226, -61.76556396, 109.18944550, 17.71130943, 104.83145905, -0.44858855, 0.42053151, 0.69261062, 0.37711015, 0.86460924, 0.30516338, 1.31570017, 100.31200409, 84.66732025, 33.46999741, 0.00000000
1, 44.9401, 3038, -1.17173958, -0.83612370, 0.95297658, 45.21602249, -303.20339966, 222.80682373, -24.55422401, 13.32943535, -61.88248825, 108.53977203, 16.57377052, 101.07856750, -0.45759732, 0.44555497, 0.67368889, 0.37179130, 1.46185684, -0.07117525, -0.65057069, 100.31200409, 84.66732025, 33.46999741, 0.00000000
1, 44.9501, 3039, -1.67043424, -1.58009088, -0.39476594, 44.90926361, -84.65823364, 192.44189453, -25.08038521, 13.68021011, -62.52557755, 108.58800507, 15.01604843, 99.61075592, -0.45448256, 0.46132356, 0.66416746, 0.37350741, 1.94078803, 0.66754526, 0.69372314, 100.31200409, 84.66732025, 33.46999741, 0.00000000
1, 44.9601, 3040, -1.22378051, -1.93293345, -0.65978754, -17.74659538, 122.16889191, 136.51252747, -25.08038521, 13.68021011, -62.52557755, 108.59344482, 13.33240509, 100.35580444, -0.44360685, 0.46449485, 0.66285223, 0.38481757, 1.46655107, 1.01461387, 0.96420181, 100.31200409, 84.66732025, 33.46999741, 0.00000000
1, 44.9701, 3041, -0.39246219, -1.06183004, -0.22852945, -87.37007904, 125.71408081, 113.15708160, -26.22040367, 13.94329166, -61.97018433, 107.91147614, 11.86259079, 101.21749878, -0.43598628, 0.46338600, 0.66012317, 0.39928278, 0.60766721, 0.13428241, 0.53049397, 100.31200409, 84.66732025, 33.46999741, 0.00000000
1, 44.9801, 3042, -0.10184351, -0.58102095, 0.23660187, -52.70121384, 30.19863319, 122.97026825, -27.76965714, 13.68021011, -62.73019409, 107.38635254, 10.59670448, 101.13085938, -0.43197310, 0.46746171, 0.65447539, 0.40809417, 0.29299355, -0.35506874, 0.05826271, 100.31200409, 84.66732025, 33.46999741, 0.00000000
1, 44.9901, 3043, 0.21455620, -0.43552196, 1.07792175, -11.56740093, -121.43269348, 148.31134033, -28.52966881, 12.80327415, -62.84711838, 106.99429321, 9.53443623, 99.50984955, -0.43397772, 0.47978771, 0.64336848, 0.40932155, -0.04504757, -0.50760752, -0.78799373, 100.31200409, 84.66732025, 33.46999741, 0.00000000
1, 45.0001, 3044, -0.30341369, -0.45442852, 1.21687591, 12.88318253, -191.07133484, 158.24041748, -28.38351250, 12.97866154, -62.64250183, 106.76228333, 8.57149124, 97.19480896, -0.43837291, 0.49589038, 0.62982744, 0.40649638, 0.45563930, -0.49303976, -0.93209314, 100.31200409, 84.66732025, 33.46999741, 0.00000000
1, 45.0101, 3045, -0.81761843, -0.61379075, 0.58933502, -3.39642739, -116.14658356, 135.53926086, -28.38351250, 12.97866154, -62.64250183, 106.51746368, 7.60321569, 95.68018341, -0.44001594, 0.50728053, 0.61933041, 0.40679514, 0.95473123, -0.33619153, -0.30927926, 100.31200409, 84.66732025, 33.46999741, 0.00000000
1, 45.0201, 3046, -1.01467001, -0.96977508, 0.29171818, -9.19543362, -69.68931580, 119.21184540, -27.76965714, 11.19555664, -62.23326492, 106.30266571, 6.65463257, 94.66861725, -0.43989781, 0.51581788, 0.61101693, 0.40875447, 1.13600540, 0.01705653, -0.01597556, 100.31200409, 84.66732025, 33.46999741, 0.00000000
1, 45.0301, 3047, -1.23175955, -1.22551930, 0.51811403, -12.62395096, -14.37830067, 111.51287079, -28.93890572, 12.92019844, -62.49634552, 106.13018036, 5.61561251, 94.21867371, -0.43717501, 0.52179807, 0.60495472, 0.41307944, 1.33530319, 0.26966447, -0.24578592, 100.31200409, 84.66732025, 33.46999741, 0.00000000
1, 45.0401, 3048, -1.11081946, -1.32359648, 0.07035162, -32.48061371, 91.19696808, 86.87126923, -29.11429405, 12.77404213, -62.78865814, 105.86264038, 4.52979231, 94.85971832, -0.43067488, 0.52181751, 0.60327888, 0.42223257, 1.19670403, 0.36565933, 0.19884086, 100.31200409, 84.66732025, 33.46999741, 0.00000000
1, 45.0501, 3049, -0.55900419, -1.21666956, -0.20304251, -37.14579010, 143.11149597, 67.04911804, -31.42355919, 12.48173046, -62.55480957, 105.57681274, 3.49769163, 96.06002045, -0.42231077, 0.51862043, 0.60419160, 0.43317318, 0.62704015, 0.25643739, 0.46934351, 100.31200409, 84.66732025, 33.46999741, 0.00000000
1, 45.0601, 3050, -0.06232177, -0.99339461, -0.16894424, -35.99335098, 110.38040924, 57.49123383, -31.42355919, 12.48173046, -62.55480957, 105.26738739, 2.65043449, 96.97356415, -0.41591102, 0.51611781, 0.60427088, 0.44215056, 0.11426659, 0.03079676, 0.43211520, 100.31200409, 84.66732025, 33.46999741, 0.00000000
1, 45.0701, 3051, 0.39110881, -0.82061136, 0.16890854, -32.03075790, 100.11205292, 49.85260773, -31.94972229, 9.73399544, -62.70096207, 104.98156738, 1.90864897, 97.81163788, -0.41012365, 0.51369071, 0.60440379, 0.45012939, -0.35341471, -0.14449844, 0.09078063, 100.31200409, 84.66732025, 33.46999741, 0.00000000
1, 45.0801, 3052, 0.55381697, -0.90016603, 0.26295784, -25.98817635, 58.97154999, 55.10448074, -33.20666504, 11.83864307, -63.54866791, 104.73368835, 1.24760592, 98.24028778, -0.40612030, 0.51324564, 0.60308516, 0.45599720, -0.52869046, -0.06665161, -0.00727600, 100.31200409, 84.66732025, 33.46999741, 0.00000000
1, 45.0901, 3053, 0.17606364, -0.96626782, 0.26918173, -20.10671234, -32.77663803, 63.79656219, -34.14206314, 12.39403629, -63.75328827, 104.52654266, 0.71166110, 97.76269531, -0.40617868, 0.51719356, 0.59826016, 0.45783687, -0.16097620, -0.00175930, -0.01828675, 100.31200409, 84.66732025, 33.46999741, 0.00000000
1, 45.1001, 3054, -0.16136111, -1.01097131, 0.29258382, -18.80047798, -50.14276505, 61.43812943, -33.58666992, 11.54633141, -63.78252029, 104.33480835, 0.24015191, 97.12457275, -0.40716293, 0.52173334, 0.59294760, 0.45872203, 0.16781841, 0.04197090, -0.04581913, 100.31200409, 84.66732025, 33.46999741, 0.00000000
1, 45.1101, 3055, -0.44031197, -1.00035620, 0.24375014, -19.48755074, -55.06338882, 55.00267029, -33.58666992, 10.40631390, -64.10406494, 104.14085388, -0.15910608, 96.45610809, -0.40867117, 0.52608687, 0.58769476, 0.45916823, 0.43946069, 0.03056633, -0.00096246, 100.31200409, 84.66732025, 33.46999741, 0.00000000
1, 45.1201, 3056, -0.62275928, -0.99970162, 0.25444856, -20.59985352, -29.42003250, 47.74131393, -33.58666992, 10.40631390, -64.10406494, 103.93828583, -0.55189830, 96.05536652, -0.40919566, 0.52897722, 0.58362275, 0.46057191, 0.61509126, 0.02908524, -0.01543188, 100.31200409, 84.66732025, 33.46999741, 0.00000000
1, 45.1301, 3057, -0.73872453, -0.98384285, 0.40755719, -22.31893921, 12.06846237, 38.21891022, -34.11283112, 11.42940617, -64.42560577, 103.72277069, -0.97509092, 96.08110046, -0.40791607, 0.52975881, 0.58133489, 0.46369159, 0.72360492, 0.01214731, -0.17245889, 100.31200409, 84.66732025, 33.46999741, 0.00000000
1, 45.1401, 3058, -0.70272058, -0.95835531, 0.49098322, -25.15125275, 48.61230087, 28.96087074, -34.37591171, 11.48786926, -64.25022125, 103.46348572, -1.37068892, 96.48610687, -0.40543127, 0.52835673, 0.58070511, 0.46823740, 0.68014228, -0.01433721, -0.25983024, 100.31200409, 84.66732025, 33.46999741, 0.00000000
1, 45.1501, 3059, -0.34319553, -0.93130255, 0.37117976, -24.75899506, 73.04878998, 20.26703072, -34.63899231, 11.40017509, -64.30867767, 103.19826508, -1.73576057, 97.15087891, -0.40203243, 0.52550691, 0.58133519, 0.47356302, 0.31430492, -0.04211616, -0.14365399, 100.31200409, 84.66732025, 33.46999741, 0.00000000
1, 45.1601, 3060, 0.05362589, -0.94229257, 0.26957425, -23.71230888, 75.43798828, 16.85801315, -35.31131363, 11.37094402, -64.57176208, 102.93846893, -2.07003736, 97.84838104, -0.39858502, 0.52239716, 0.58222002, 0.47880182, -0.08827636, -0.03181800, -0.04556652, 100.31200409, 84.66732025, 33.46999741, 0.00000000
1, 45.1701, 3061, 0.21779311, -0.96014082, 0.19791017, -22.80550575, 46.86543274, 20.52942657, -35.31131363, 11.37094402, -64.57176208, 102.69506073, -2.37414360, 98.26052094, -0.39637670, 0.52068251, 0.58195883, 0.48280340, -0.25776115, -0.01463282, 0.02216781, 100.31200409, 84.66732025, 33.46999741, 0.00000000
1, 45.1801, 3062, 0.11026005, -0.99105966, 0.14361876, -21.76487350, 18.92778969, 23.91632462, -35.80824280, 11.45863724, -65.18561554, 102.46343231, -2.64206910, 98.39674377, -0.39545214, 0.52027112, 0.58061272, 0.48561749, -0.15505217, 0.01569249, 0.07215729, 100.31200409, 84.66732025, 33.46999741, 0.00000000
1, 45.1901, 3063, -0.13774474, -1.02890801, 0.14696737, -22.28021622, 7.03804970, 23.49927902, -36.30517197, 11.04940033, -65.21485138, 102.24032593, -2.88719583, 98.41553497, -0.39510307, 0.52039522, 0.57884395, 0.48787516, 0.08856961, 0.05287652, 0.06419699, 100.31200409, 84.66732025, 33.46999741, 0.00000000
1, 45.2001, 3064, -0.33125943, -1.02943730, 0.18480204, -22.79890633, 9.71730709, 21.23877335, -36.24671173, 11.16632557, -64.68869019, 102.01016235, -3.11568356, 98.46625519, -0.39473629, 0.52026820, 0.57724309, 0.49019882, 0.27793196, 0.05270740, 0.02196305, 100.31200409, 84.66732025, 33.46999741, 0.00000000
1, 45.2101, 3065, -0.39321131, -0.98572505, 0.24500833, -22.88304520, 30.54763985, 17.53008270, -36.48056030, 10.49400711, -65.27330780, 101.76679230, -3.35017395, 98.72976685, -0.39348111, 0.51905245, 0.57651925, 0.49333850, 0.33574840, 0.00825212, -0.04241839, 100.31200409, 84.66732025, 33.46999741, 0.00000000
1, 45.2201, 3066, -0.25592625, -0.96428716, 0.29114726, -22.67053032, 52.24398804, 15.59086895, -36.48056030, 10.49400711, -65.27330780, 101.51123047, -3.60799956, 99.21121979, -0.39120162, 0.51680070, 0.57662725, 0.49737245, 0.19396934, -0.01390248, -0.09254239, 100.31200409, 84.66732025, 33.46999741, 0.00000000
1, 45.2301, 3067, -0.05661484, -0.95963299, 0.27825069, -21.82391739, 57.32706451, 15.99919128, -37.00672150, 10.49400711, -65.97486115, 101.26350403, -3.87265325, 99.74063873, -0.38861489, 0.51437116, 0.57694000, 0.50153863, -0.00991261, -0.01912394, -0.08351246, 100.31200409, 84.66732025, 33.46999741, 0.00000000
1, 45.2401, 3068, 0.09311614, -0.96468508, 0.23470940, -21.13778114, 51.12779999, 18.40150452, -37.79596710, 10.11400127, -66.50102234, 101.01992798, -4.15178871, 100.20822144, -0.38617647, 0.51233542, 0.57691985, 0.50551325, -0.16425090, -0.01451001, -0.04382724, 100.31200409, 84.66732025, 33.46999741, 0.00000000
1, 45.2501, 3069, 0.17390366, -0.94500268, 0.20594797, -22.43166542, 42.83638000, 22.37402725, -38.00058365, 10.46477604, -66.73487091, 100.76773071, -4.45240068, 100.58803558, -0.38402754, 0.51081049, 0.57637185, 0.50930452, -0.25006676, -0.03460579, -0.01916808, 100.31200409, 84.66732025, 33.46999741, 0.00000000
1, 45.2601, 3070, 0.20736189, -0.90862072, 0.16610113, -21.46108627, 29.93562698, 27.64500427, -38.38058853, 10.78631973, -66.88102722, 100.53424835, -4.77959538, 100.83238220, -0.38224038, 0.51014817, 0.57518899, 0.51263916, -0.28890347, -0.07128639, 0.01659054, 100.31200409, 84.66732025, 33.46999741, 0.00000000
1, 45.2701, 3071, 0.16388172, -0.88442862, 0.18178862, -17.33097839, 0.26723543, 34.61427689, -38.38058853, 10.78631973, -66.88102722, 100.36714935, -5.12110043, 100.77250671, -0.38143778, 0.51129597, 0.57288271, 0.51467186, -0.25137794, -0.09563703, -0.00261281, 100.31200409, 84.66732025, 33.46999741, 0.00000000
1, 45.2801, 3072, 0.12767388, -0.90087318, 0.19585772, -16.80583572, -6.80708408, 39.32875443, -38.17597198, 10.72785759, -66.93949127, 100.21670532, -5.47416353, 100.63197327, -0.38086495, 0.51294547, 0.57023513, 0.51639217, -0.22132248, -0.07913093, -0.01941746, 100.31200409, 84.66732025, 33.46999741, 0.00000000
1, 45.2901, 3073, 0.11262481, -0.91103840, 0.19613127, -17.23976517, -5.24265289, 43.68297958, -38.67290115, 10.66939449, -66.44255829, 100.05820465, -5.89563131, 100.50346375, -0.37991434, 0.51478153, 0.56732893, 0.51846212, -0.21305357, -0.06881346, -0.02261448, 100.31200409, 84.66732025, 33.46999741, 0.00000000
1, 45.3001, 3074, 0.02891582, -0.95310724, 0.17157950, -15.15772629, -20.55034637, 48.04118347, -38.81905746, 9.99707699, -67.37796021, 99.93843842, -6.33393240, 100.21670532, -0.37942186, 0.51758564, 0.56380236, 0.51987612, -0.13680324, -0.02633530, -0.00075058, 100.31200409, 84.66732025, 33.46999741, 0.00000000
1, 45.3101, 3075, -0.09379318, -1.00641274, 0.12014472, -13.60188198, -25.02949524, 50.92910385, -39.14060211, 10.75708866, -67.11487579, 99.84201050, -6.79353428, 99.88117218, -0.37893918, 0.52077371, 0.56005400, 0.52109456, -0.02177178, 0.02760623, 0.04837052, 100.31200409, 84.66732025, 33.46999741, 0.00000000
1, 45.3201, 3076, -0.15197851, -1.08382285, 0.09535563, -14.31996536, -15.42817020, 51.92071915, -39.14060211, 10.75708866, -67.11487579, 99.72956085, -7.27966404, 99.63980103, -0.37796634, 0.52353585, 0.55653191, 0.52280390, 0.02821891, 0.10573199, 0.07096781, 100.31200409, 84.66732025, 33.46999741, 0.00000000
1, 45.3301, 3077, -0.06121840, -1.10991800, 0.13265783, -17.22080803, -1.86763000, 52.61386490, -39.49137497, 9.55860806, -66.55948639, 99.57021332, -7.78568935, 99.53347015, -0.37648994, 0.52555412, 0.55331212, 0.52525604, -0.07132952, 0.13246110, 0.03125918, 100.31200409, 84.66732025, 33.46999741, 0.00000000
1, 45.3401, 3078, 0.10904388, -1.09067953, 0.14058699, -19.73070717, 1.92481863, 55.54038239, -39.31599045, 10.58170128, -67.02718353, 99.38446808, -8.33729458, 99.46111298, -0.37473804, 0.52749527, 0.54992378, 0.52811372, -0.25077194, 0.11394180, 0.02050519, 100.31200409, 84.66732025, 33.46999741, 0.00000000
1, 45.3501, 3079, 0.29760897, -1.05739141, 0.16337381, -21.16557121, -6.09462690, 61.20368576, -39.95907593, 10.40631390, -67.40718842, 99.19842529, -8.93227673, 99.30123901, -0.37316281, 0.53001636, 0.54593050, 0.53084099, -0.44936711, 0.08154971, -0.00517310, 100.31200409, 84.66732025, 33.46999741, 0.00000000
1, 45.3601, 3080, 0.34894282, -1.02741992, 0.17041939, -22.98410606, -15.78261566, 68.77750397, -40.60216141, 10.64016342, -67.90412140, 99.01331329, -9.58741093, 99.03404999, -0.37176663, 0.53326899, 0.54116708, 0.53343415, -0.51159662, 0.05276950, -0.01543153, 100.31200409, 84.66732025, 33.46999741, 0.00000000
1, 45.3701, 3081, 0.30865505, -1.02844703, 0.24008630, -27.25104141, -20.05872726, 76.38879395, -40.60216141, 10.64016342, -67.90412140, 98.79808807, -10.31223297, 98.71388245, -0.37039652, 0.53691733, 0.53568703, 0.53625154, -0.48350313, 0.05516140, -0.08899222, 100.31200409, 84.66732025, 33.46999741, 0.00000000
1, 45.3801, 3082, 0.16831008, -1.07700992, 0.31366739, -31.40720749, -23.04424667, 84.69544220, -40.71908569, 9.82168961, -67.40718842, 98.55928040, -11.10493374, 98.34906769, -0.36899817, 0.54092354, 0.52955115, 0.53927517, -0.35652310, 0.10539959, -0.16726844, 100.31200409, 84.66732025, 33.46999741, 0.00000000
1, 45.3901, 3083, 0.06475494, -1.16571271, 0.42366081, -36.29376602, -17.36935425, 91.81571198, -41.33294296, 10.08477020, -67.46565247, 98.26079559, -11.98917580, 98.03798676, -0.36715636, 0.54479975, 0.52293926, 0.54306906, -0.26778811, 0.19608143, -0.28275776, 100.31200409, 84.66732025, 33.46999741, 0.00000000
1, 45.4001, 3084, 0.00177858, -1.23508608, 0.47242805, -38.23627090, -11.46566200, 96.97609711, -41.71294785, 10.72785759, -67.72873688, 97.93572235, -12.93442249, 97.78329468, -0.36486265, 0.54852557, 0.51613855, 0.54735368, -0.22068554, 0.26795304, -0.33760750, 100.31200409, 84.66732025, 33.46999741, 0.00000000
1, 45.4101, 3085, -0.06604001, -1.26622403, 0.43176034, -39.04281616, -5.47262573, 101.72103882, -42.06372452, 10.61093235, -67.61180878, 97.59306335, -13.93612003, 97.58784485, -0.36207914, 0.55210453, 0.50921887, 0.55206484, -0.16942157, 0.30220366, -0.30334777, 100.31200409, 84.66732025, 33.46999741, 0.00000000
1, 45.4201, 3086, 0.02000789, -1.28451967, 0.35815814, -40.29058838, 4.69231749, 106.64115906, -43.05758667, 10.55247021, -68.31335449, 97.21575928, -15.00079441, 97.49564362, -0.35863179, 0.55532050, 0.50227660, 0.55742323, -0.27291816, 0.32419556, -0.23625261, 100.31200409, 84.66732025, 33.46999741, 0.00000000
1, 45.4301, 3087, 0.15742588, -1.32426322, 0.23135562, -42.70859146, 5.92801571, 112.37984467, -43.05758667, 10.55247021, -68.31335449, 96.81385040, -16.11369324, 97.41451263, -0.35499027, 0.55856407, 0.49497211, 0.56301939, -0.42852700, 0.36829352, -0.11636493, 100.31200409, 84.66732025, 33.46999741, 0.00000000
1, 45.4701, 3088, 0.17032389, -1.57129776, 0.27814654, -55.85868073, -3.42846465, 133.37307739, -46.97456741, 10.66939449, -69.24875641, 95.01894379, -21.15044403, 96.65469360, -0.34038788, 0.57454062, 0.45901930, 0.58595264, -0.52366626, 0.63897389, -0.19532767, 100.31200409, 84.66732025, 33.46999741, 0.00000000
1, 45.4801, 3089, 0.21748510, -1.62640154, 0.37843707, -56.88973236, -3.92746544, 137.86096191, -46.97456741, 10.66939449, -69.24875641, 94.51631927, -22.51581764, 96.48946381, -0.33632240, 0.57851952, 0.44909394, 0.59204489, -0.59307003, 0.70175409, -0.30457276, 100.31200409, 84.66732025, 33.46999741, 0.00000000
1, 45.4901, 3090, 0.13939928, -1.61571574, 0.41908979, -54.59609222, 7.50486088, 142.76622009, -47.76381302, 11.54633141, -70.03800201, 93.98542023, -23.94621468, 96.45827484, -0.33135036, 0.58207226, 0.43926278, 0.59870446, -0.53762650, 0.69977802, -0.35420996, 100.31200409, 84.66732025, 33.46999741, 0.00000000
1, 45.5001, 3091, 0.22123899, -1.67678189, 0.61679733, -55.56440353, 35.65436172, 147.32275391, -48.61151505, 11.10786343, -69.65799713, 93.31151581, -25.43997192, 96.74929810, -0.32504645, 0.58419204, 0.42988518, 0.60684705, -0.64343458, 0.77034682, -0.56245738, 100.31200409, 84.66732025, 33.46999741, 0.00000000
1, 45.5101, 3092, 0.30335829, -1.76884305, 0.65233576, -55.98423004, 51.68029785, 149.23486328, -50.30692673, 11.98479939, -70.76878357, 92.53726196, -26.95725250, 97.24237061, -0.31799594, 0.58540100, 0.42075536, 0.61575103, -0.74941730, 0.87309384, -0.61014098, 100.31200409, 84.66732025, 33.46999741, 0.00000000
1, 45.5201, 3093, 0.21598677, -1.86493134, 0.73367006, -54.46908188, 77.96320343, 149.70182800, -51.50540543, 11.92633724, -71.55802155, 91.61334991, -28.48143387, 98.06404877, -0.30981037, 0.58512110, 0.41231853, 0.62581486, -0.68587488, 0.98059475, -0.70571017, 100.31200409, 84.66732025, 33.46999741, 0.00000000
1, 45.5301, 3094, 0.40445557, -1.98769486, 0.94168013, -55.15911865, 121.77713776, 149.66831970, -51.50540543, 11.92633724, -71.55802155, 90.39854431, -29.99519920, 99.42990112, -0.30002478, 0.58226877, 0.40493840, 0.63794458, -0.89817572, 1.11535025, -0.93051440, 100.31200409, 84.66732025, 33.46999741, 0.00000000
1, 45.5401, 3095, 0.70116293, -1.97296989, 0.96766096, -55.26076889, 163.09674072, 145.62449646, -52.67465591, 12.33557415, -72.75650024, 88.87263489, -31.43959999, 101.34044647, -0.28889090, 0.57676452, 0.39868438, 0.65187079, -1.21719646, 1.11345530, -0.97711354, 100.31200409, 84.66732025, 33.46999741, 0.00000000
1, 45.5501, 3096, 0.77113777, -1.92430174, 0.84611183, -58.99548721, 200.22691345, 140.66828918, -54.66238022, 13.15404797, -74.10114288, 86.99620056, -32.77136993, 103.76483154, -0.27681559, 0.56863004, 0.39322865, 0.66738611, -1.30733848, 1.07820439, -0.88064212, 100.31200409, 84.66732025, 33.46999741, 0.00000000
1, 45.5601, 3097, 0.51030058, -1.92124176, 0.63751894, -74.83621979, 227.37231445, 138.87049866, -56.03624725, 13.91405964, -75.85501099, 84.68917847, -33.99048996, 106.60329437, -0.26454267, 0.55817395, 0.38738877, 0.68438953, -1.06437135, 1.08921862, -0.70357728, 100.31200409, 84.66732025, 33.46999741, 0.00000000
1, 45.5701, 3098, 0.10817120, -1.91440749, 0.57562202, -96.85480499, 213.69854736, 142.69815063, -58.02396774, 14.32329750, -77.63811493, 82.14674377, -35.16284180, 109.38249969, -0.25341567, 0.54783624, 0.37950468, 0.70116484, -0.67929173, 1.09758961, -0.67685860, 100.31200409, 84.66732025, 33.46999741, 0.00000000
1, 45.5801, 3099, -0.02856788, -1.80499768, 0.45541075, -120.39884949, 220.70901489, 141.85050964, -58.02396774, 14.32329750, -77.63811493, 79.21894836, -36.20051956, 112.34565735, -0.24311021, 0.53618860, 0.37017369, 0.71858937, -0.55788755, 1.00501907, -0.59435600, 100.31200409, 84.66732025, 33.46999741, 0.00000000
1, 45.5901, 3100, 0.15143834, -1.63466513, 0.19521998, -126.77507782, 216.91122437, 141.05249023, -59.13475418, 14.26483440, -79.42121887, 76.15174866, -37.11532593, 115.36529541, -0.23309000, 0.52427679, 0.36014107, 0.73559588, -0.75064564, 0.85309380, -0.37366655, 100.31200409, 84.66732025, 33.46999741, 0.00000000
1, 45.6001, 3101, 0.27590531, -1.44774139, -0.08872723, -112.76480103, 174.67956543, 141.62013245, -60.80093384, 14.46945286, -81.64279175, 73.44441223, -38.02425385, 117.96403503, -0.22357528, 0.51509172, 0.34992492, 0.74983144, -0.88683343, 0.68557364, -0.12570404, 100.31200409, 84.66732025, 33.46999741, 0.00000000
1, 45.6101, 3102, 0.07996602, -1.10597157, -0.20207658, -92.88406372, 57.18630981, 141.65113831, -61.97018433, 15.75562668, -82.22741699, 71.74433899, -39.20667267, 119.20896912, -0.21665621, 0.51380271, 0.33858457, 0.75790989, -0.70522928, 0.36324680, -0.03664954, 100.31200409, 84.66732025, 33.46999741, 0.00000000
1, 45.6201, 3103, -0.40992248, -0.87734723, -0.08045532, -75.73360443, -44.27940369, 137.57719421, -62.84711838, 16.60333252, -82.72434998, 70.97183228, -40.65417480, 119.23981476, -0.21218860, 0.51931435, 0.32655635, 0.76069015, -0.23398532, 0.15334263, -0.16837931, 100.31200409, 84.66732025, 33.46999741, 0.00000000
1, 45.6301, 3104, -0.93389398, -0.72843361, -0.19964011, -60.40070343, -45.09866333, 128.52934265, -62.84711838, 16.60333252, -82.72434998, 70.36778259, -42.02385712, 119.24311066, -0.20759821, 0.52483529, 0.31583735, 0.76269108, 0.27138209, 0.02259952, -0.05230586, 100.31200409, 84.66732025, 33.46999741, 0.00000000
1, 45.6401, 3105, -1.13740027, -0.48968998, -0.19090024, -51.03518295, -4.63630581, 109.79791260, -63.43174362, 17.33411217, -82.54895782, 69.55259705, -43.07178116, 119.69757843, -0.20271946, 0.52721202, 0.30732465, 0.76583546, 0.45969975, -0.19993190, -0.06579892, 100.31200409, 84.66732025, 33.46999741, 0.00000000
1, 45.6501, 3106, -1.04348993, -0.27090847, 0.06934994, -29.41940117, -17.72478676, 80.71334839, -64.10406494, 17.71411896, -83.30897522, 69.14638519, -43.89014053, 119.86380768, -0.19912526, 0.53002268, 0.30133569, 0.76721710, 0.35368598, -0.40638399, -0.32895473, 100.31200409, 84.66732025, 33.46999741, 0.00000000
1, 45.6601, 3107, -0.64353073, -0.25998074, 0.26117736, -1.95664632, -24.86665726, 37.34223175, -64.07482910, 17.86027527, -82.66588593, 69.22373962, -44.32781219, 119.72602844, -0.19735807, 0.53263009, 0.29904860, 0.76676273, -0.05421324, -0.41060334, -0.51805598, 100.31200409, 84.66732025, 33.46999741, 0.00000000
1, 45.6701, 3108, -0.10117754, -0.17145926, 0.33209342, 13.80081177, -19.96830177, 7.04341555, -64.25022125, 17.97719955, -82.51972961, 69.52051544, -44.46403503, 119.49944305, -0.19676419, 0.53438580, 0.29930192, 0.76559407, -0.59967226, -0.49748939, -0.58402437, 100.31200409, 84.66732025, 33.46999741, 0.00000000
1, 45.7001, 3109, 0.33150280, -0.04996858, 0.07854598, 54.97570038, -16.05617523, -52.34525299, -63.60713196, 16.92487526, -81.73048401, 71.84399414, -43.71443558, 118.13693237, -0.19897817, 0.53849828, 0.31209987, 0.75698155, -1.02507126, -0.63359010, -0.30614927, 100.31200409, 84.66732025, 33.46999741, 0.00000000
1, 45.7101, 3110, 0.16522841, -0.03684216, -0.07132672, 61.39449692, -3.75304127, -70.06290436, -62.99327469, 17.27565002, -81.52587128, 72.69313049, -43.05752945, 117.79214478, -0.20083670, 0.53788674, 0.31936619, 0.75388855, -0.85110861, -0.65641761, -0.14862636, 100.31200409, 84.66732025, 33.46999741, 0.00000000
1, 45.7201, 3111, -0.08355121, -0.08073173, -0.11155909, 79.34425354, -5.26569748, -87.80096436, -62.32095718, 17.42180634, -80.94124603, 73.76577759, -42.23052597, 117.37655640, -0.20305313, 0.53714746, 0.32858947, 0.74984729, -0.59238607, -0.62485367, -0.09995279, 100.31200409, 84.66732025, 33.46999741, 0.00000000
1, 45.7301, 3112, -0.27398244, -0.11838208, -0.11483552, 89.50449371, -29.87870407, -103.69456482, -61.73633194, 16.83718109, -80.15200043, 75.16092682, -41.31576538, 116.61894989, -0.20648012, 0.53768313, 0.33870149, 0.74400556, -0.39049053, -0.60168362, -0.08424404, 100.31200409, 84.66732025, 33.46999741, 0.00000000
1, 45.7401, 3113, -0.37151489, -0.09656754, -0.09257776, 95.84406281, -58.43203354, -122.98094177, -61.73633194, 16.83718109, -80.15200043, 76.86373138, -40.26244354, 115.47457886, -0.21170469, 0.53951305, 0.34958881, 0.73613483, -0.27995920, -0.63983941, -0.08932566, 100.31200409, 84.66732025, 33.46999741, 0.00000000
1, 45.7501, 3114, -0.40082642, -0.05699165, -0.06490833, 104.01946259, -73.26390076, -145.15333557, -60.88862991, 16.22332573, -78.86582947, 78.74958038, -38.99750900, 114.14354706, -0.21836835, 0.54164028, 0.36168134, 0.72672403, -0.23495892, -0.69782233, -0.09611320, 100.31200409, 84.66732025, 33.46999741, 0.00000000
1, 45.7601, 3115, -0.36392304, -0.05049673, -0.01186998, 111.90401459, -71.50671387, -167.80294800, -58.98859787, 15.14177132, -77.60888672, 80.65779114, -37.47330475, 112.86250305, -0.22597459, 0.54292119, 0.37526065, 0.71648550, -0.25259608, -0.72464281, -0.12654598, 100.31200409, 84.66732025, 33.46999741, 0.00000000
1, 45.7701, 3116, -0.27132800, -0.08138992, 0.05922752, 119.36375427, -64.19723511, -191.19113159, -57.84858322, 14.55714703, -76.49810028, 82.52831268, -35.67458725, 111.71992493, -0.23436701, 0.54291868, 0.39041287, 0.70561272, -0.32190040, -0.71560651, -0.17437461, 100.31200409, 84.66732025, 33.46999741, 0.00000000
1, 45.8001, 3117, -0.09153453, -0.22842990, 0.03604111, 130.69677734, -28.35975838, -246.07394409, -54.45775986, 11.86787510, -74.89038086, 87.50509644, -28.87631226, 109.59275055, -0.26237154, 0.53323740, 0.44339436, 0.67098469, -0.40554625, -0.63803494, -0.08307371, 100.31200409, 84.66732025, 33.46999741, 0.00000000
1, 45.8101, 3118, -0.06121388, -0.28945181, 0.00226389, 135.09440613, -22.55830574, -257.71661377, -52.64542389, 11.75094986, -74.07190704, 89.01100159, -26.30448532, 109.24516296, -0.27202466, 0.52750617, 0.46260184, 0.65858901, -0.39706603, -0.59892547, -0.02692094, 100.31200409, 84.66732025, 33.46999741, 0.00000000
1, 45.8201, 3119, -0.09877667, -0.37239325, -0.04068360, 141.57456970, -24.02637100, -268.31472778, -51.15463257, 11.78018093, -72.78573608, 90.53903961, -23.61923027, 108.96352386, -0.28186908, 0.52122784, 0.48231852, 0.64516681, -0.31793934, -0.53641081, 0.03922714, 100.31200409, 84.66732025, 33.46999741, 0.00000000
1, 45.8301, 3120, -0.16296418, -0.46079028, -0.07845753, 149.84388733, -30.93322372, -279.52087402, -48.08535385, 11.37094402, -71.20724487, 92.12960815, -20.81421280, 108.69658661, -0.29205596, 0.51467025, 0.50247562, 0.63034606, -0.20943975, -0.46661344, 0.10207778, 100.31200409, 84.66732025, 33.46999741, 0.00000000
1, 45.8401, 3121, -0.22803040, -0.55331457, -0.10947636, 158.20732117, -39.92660522, -291.56665039, -48.08535385, 11.37094402, -71.20724487, 93.79322052, -17.87828064, 108.42865753, -0.30268818, 0.50788885, 0.52300030, 0.61392152, -0.09705045, -0.39051700, 0.16020562, 100.31200409, 84.66732025, 33.46999741, 0.00000000
1, 45.8501, 3122, -0.28436124, -0.65218008, -0.13594171, 168.38081360, -51.21999741, -302.18307495, -46.33148193, 9.03244686, -70.56416321, 95.54842377, -14.82098484, 108.14809418, -0.31368726, 0.50104386, 0.54377377, 0.59570593, 0.00947681, -0.30533558, 0.21601847, 100.31200409, 84.66732025, 33.46999741, 0.00000000
1, 45.8601, 3123, -0.34519449, -0.77995574, -0.11363884, 177.57650757, -62.41320419, -312.24136353, -43.70067215, 10.55247021, -69.36568451, 97.38087463, -11.64425945, 107.86733246, -0.32503349, 0.49406853, 0.56462938, 0.57571101, 0.12318618, -0.18803661, 0.22508891, 100.31200409, 84.66732025, 33.46999741, 0.00000000
1, 45.8701, 3124, -0.40826380, -0.93608451, -0.02725610, 181.99313354, -65.62387085, -324.27429199, -40.83601379, 10.02630806, -67.84565735, 99.22612762, -8.33688641, 107.67894745, -0.33660865, 0.48626953, 0.58554268, 0.55441540, 0.24179371, -0.03881056, 0.17106354, 100.31200409, 84.66732025, 33.46999741, 0.00000000
1, 45.8801, 3125, -0.42363855, -1.17940962, 0.11419220, 179.81394958, -56.65753174, -340.27951050, -38.29289627, 11.07863140, -66.26717377, 101.01236725, -4.88622236, 107.71552277, -0.34819925, 0.47661823, 0.60662842, 0.53253567, 0.31551510, 0.20141476, 0.06144541, 100.31200409, 84.66732025, 33.46999741, 0.00000000
1, 45.8901, 3126, -0.40013298, -1.39028215, 0.21478680, 167.88035583, -41.68493652, -358.97933960, -38.29289627, 11.07863140, -66.26717377, 102.66576385, -1.28319275, 108.04032898, -0.35996938, 0.46434689, 0.62768292, 0.51070368, 0.35345078, 0.41320634, -0.00946978, 100.31200409, 84.66732025, 33.46999741, 0.00000000
1, 45.9001, 3127, -0.42486969, -1.53488851, 0.24866508, 155.25781250, -36.43321609, -373.43292236, -35.31131363, 9.09090900, -65.33177185, 104.21492767, 2.43773890, 108.54949951, -0.37216771, 0.45008177, 0.64814740, 0.48869491, 0.44230488, 0.56303161, -0.01649054, 100.31200409, 84.66732025, 33.46999741, 0.00000000
1, 45.9101, 3128, -0.43508545, -1.64983308, 0.20277645, 144.84934998, -29.04717445, -381.64202881, -33.26512527, 12.04326248, -64.60099030, 105.70806122, 6.20386887, 109.25119781, -0.38423595, 0.43413520, 0.66790837, 0.46667761, 0.51811039, 0.68781298, 0.05380909, 100.31200409, 84.66732025, 33.46999741, 0.00000000
1, 45.9201, 3129, -0.39263275, -1.91525078, 0.20193645, 138.03929138, -16.91211700, -379.54855347, -30.42969894, 13.24174213, -64.27944946, 107.20831299, 9.89628315, 110.16815948, -0.39528984, 0.41704077, 0.68687630, 0.44499883, 0.54027379, 0.96756089, 0.07713078, 100.31200409, 84.66732025, 33.46999741, 0.00000000
1, 45.9301, 3130, -0.33544809, -2.28474069, 0.20430228, 133.13796997, -17.17877579, -365.01599121, -27.74042702, 14.55714703, -63.02250671, 108.72747040, 13.42475796, 111.14604950, -0.40549725, 0.40015954, 0.70428628, 0.42358622, 0.54481876, 1.35552406, 0.09572753, 100.31200409, 84.66732025, 33.46999741, 0.00000000
1, 45.9401, 3131, -0.17354926, -2.48307204, 0.11904850, 125.19688416, -19.60331345, -339.96295166, -27.74042702, 14.55714703, -63.02250671, 110.22540283, 16.69970322, 112.12381744, -0.41476667, 0.38419554, 0.71969461, 0.40299162, 0.44030681, 1.57554269, 0.20068228, 100.31200409, 84.66732025, 33.46999741, 0.00000000
1, 45.9501, 3132, 0.06693291, -2.49502134, 0.08123705, 118.04138184, -29.22325897, -313.05838013, -26.22040367, 13.76790428, -62.64250183, 111.67456055, 19.73231125, 113.01062012, -0.42354730, 0.36964032, 0.73293203, 0.38312471, 0.25197694, 1.61105919, 0.25653234, 100.31200409, 84.66732025, 33.46999741, 0.00000000
1, 45.9701, 3133, -0.24591489, -1.95246375, -0.03543508, 92.81279755, -94.04446411, -225.79304504, -22.18649483, 16.86641312, -61.41479111, 113.84334564, 24.96861649, 113.58005524, -0.44341436, 0.34937456, 0.74910992, 0.34663454, 0.65396547, 1.11541498, 0.39585143, 100.31200409, 84.66732025, 33.46999741, 0.00000000
1, 45.9801, 3134, -1.40536976, -1.62017798, -0.72066659, 90.71730804, -122.26965332, -166.90296936, -21.28032684, 18.82490540, -61.47325134, 114.53102112, 26.99079132, 113.09637451, -0.45363575, 0.34559953, 0.75202560, 0.33050427, 1.84977531, 0.80407286, 1.08333659, 100.31200409, 84.66732025, 33.46999741, 0.00000000
1, 45.9901, 3135, -2.48924255, -1.13667178, -0.77142280, 89.80442810, -101.43627930, -102.35443878, -21.28032684, 18.82490540, -61.47325134, 115.16791534, 28.34694862, 112.54022217, -0.46051171, 0.34532037, 0.75358629, 0.31747517, 2.95901823, 0.33647150, 1.13580644, 100.31200409, 84.66732025, 33.46999741, 0.00000000
1, 46.0001, 3136, -1.82738030, -1.33737230, 0.59103191, 72.55329132, -10.30900002, -30.64709473, -19.90645981, 19.00029182, -61.79479599, 115.91400909, 28.66877174, 112.58403015, -0.45984992, 0.34649584, 0.75608432, 0.31115147, 2.30515122, 0.54518300, -0.21792075, 100.31200409, 84.66732025, 33.46999741, 0.00000000
1, 46.0101, 3137, -0.64705426, -1.63324916, 0.45365286, -2.84237409, 98.69380951, 45.36367035, -19.90645981, 20.34492874, -61.23940277, 116.25674438, 27.82777405, 113.36451721, -0.45216572, 0.34668139, 0.75857002, 0.31611660, 1.11882806, 0.84173721, -0.06932223, 100.31200409, 84.66732025, 33.46999741, 0.00000000
1, 46.0201, 3138, 0.00796697, -1.58560181, -0.26728436, -51.64511490, 117.46918488, 114.66150665, -21.28032684, 20.66647148, -61.53171539, 116.02599335, 26.28002167, 113.98315430, -0.44271290, 0.34896666, 0.75824511, 0.32755464, 0.44496566, 0.78554666, 0.65789402, 100.31200409, 84.66732025, 33.46999741, 0.00000000
1, 46.0301, 3139, 0.02706456, -1.49128067, -0.55584633, -77.31583405, 59.59551239, 168.22015381, -22.47880745, 20.25723457, -61.47325134, 115.15830231, 24.49761009, 113.77383423, -0.43622297, 0.35537463, 0.75308299, 0.34100500, 0.39973196, 0.67564619, 0.94356775, 100.31200409, 84.66732025, 33.46999741, 0.00000000
1, 46.0401, 3140, 0.55271441, -1.26867282, 0.31480047, -85.13081360, -29.78036118, 199.57653809, -23.23881912, 17.59719276, -61.79479599, 113.83488464, 22.79971504, 112.57649994, -0.43473950, 0.36611772, 0.74311602, 0.35318267, -0.15636265, 0.43210715, 0.06291655, 100.31200409, 84.66732025, 33.46999741, 0.00000000
1, 46.0901, 3141, -0.71523231, -0.55030465, 1.39605284, 43.96326828, -343.89770508, 215.47332764, -21.48494530, 16.80795097, -64.01636505, 108.08654785, 19.26147842, 104.41901398, -0.46175271, 0.41139832, 0.69086081, 0.37449598, 1.04685497, -0.34608728, -1.10164499, 100.31200409, 84.66732025, 33.46999741, 0.00000000
1, 46.1001, 3142, -1.51123941, -1.57765853, 0.01005585, 54.02585602, -226.71694946, 192.60276794, -21.48494530, 16.80795097, -64.01636505, 107.69725037, 18.11969948, 101.51907349, -0.46699023, 0.43246365, 0.67633647, 0.37076172, 1.82965422, 0.67493725, 0.27287915, 100.31200409, 84.66732025, 33.46999741, 0.00000000
1, 46.1101, 3143, -1.56124389, -2.13864255, -0.78399765, 0.84163445, 37.26192856, 139.70269775, -22.24495697, 16.60333252, -63.66559601, 107.68077087, 16.67522812, 101.44548798, -0.46021521, 0.43949634, 0.67254245, 0.37779859, 1.85970831, 1.23028624, 1.06742132, 100.31200409, 84.66732025, 33.46999741, 0.00000000
1, 46.1201, 3144, -0.77397460, -1.39680076, -0.19684952, -88.81047821, 128.56683350, 119.36002350, -24.14498711, 15.96024513, -64.19175720, 107.04480743, 15.15127754, 102.35275269, -0.45204729, 0.43864200, 0.67011797, 0.39266834, 1.04531634, 0.47805330, 0.47878823, 100.31200409, 84.66732025, 33.46999741, 0.00000000
1, 46.1301, 3145, -0.41678026, -0.97219372, 0.26038870, -50.11811829, 66.44527435, 128.86637878, -25.60654831, 15.63870239, -64.77638245, 106.62306213, 13.70957756, 102.62764740, -0.44548684, 0.44198304, 0.66604251, 0.40321210, 0.66228884, 0.04372120, 0.01642157, 100.31200409, 84.66732025, 33.46999741, 0.00000000
1, 46.1401, 3146, 0.22831409, -0.74875462, 1.07868969, -24.01555443, -48.96404648, 143.81762695, -25.89885902, 14.96638393, -64.68869019, 106.18595886, 12.46564198, 101.73043823, -0.44411254, 0.45111758, 0.65771180, 0.40825504, -0.00760863, -0.18823767, -0.80472612, 100.31200409, 84.66732025, 33.46999741, 0.00000000
1, 46.1501, 3147, 0.36539435, -0.37276235, 1.33416557, -15.95264626, -133.84887695, 148.12380981, -25.89885902, 14.96638393, -64.68869019, 105.67245483, 11.40525913, 100.00118256, -0.44703895, 0.46372074, 0.64603746, 0.40957898, -0.16415347, -0.57101417, -1.06640363, 100.31200409, 84.66732025, 33.46999741, 0.00000000
1, 46.1601, 3148, -0.09559823, -0.37546462, 0.38328385, -16.53925896, -65.15722656, 139.77867126, -26.19117165, 14.76176548, -64.68869019, 105.31777954, 10.23063564, 98.98351288, -0.44632161, 0.47324789, 0.63719875, 0.41329318, 0.27992645, -0.57236350, -0.12251044, 100.31200409, 84.66732025, 33.46999741, 0.00000000
1, 46.1701, 3149, -0.67659622, -0.63918066, 0.23770986, -20.53299141, -14.44588280, 126.10600281, -26.33732796, 14.03098488, -64.74714661, 105.03619385, 9.05008698, 98.50906372, -0.44336897, 0.47996074, 0.63066411, 0.41871759, 0.84086406, -0.31327528, 0.01716046, 100.31200409, 84.66732025, 33.46999741, 0.00000000
1, 46.1801, 3150, -1.25892687, -0.89366496, 0.68632966, -25.40562057, -9.10292339, 117.19934845, -27.53580856, 14.11867905, -64.54253387, 104.72975159, 7.92616081, 98.11794281, -0.44052261, 0.48580772, 0.62442476, 0.42429307, 1.40229535, -0.06382427, -0.43736750, 100.31200409, 84.66732025, 33.46999741, 0.00000000
1, 46.1901, 3151, -1.24952388, -1.09549284, 0.07386814, -27.52684212, 5.16214371, 93.73087311, -27.94504547, 13.06635475, -65.33177185, 104.43222809, 7.00519609, 97.93172455, -0.43790337, 0.48965251, 0.61961865, 0.42959738, 1.37706757, 0.13531414, 0.17013788, 100.31200409, 84.66732025, 33.46999741, 0.00000000
1, 46.2001, 3152, -0.74664903, -1.33606374, -0.22753750, -25.40235138, 45.92271805, 81.79370117, -27.94504547, 13.06635475, -65.33177185, 104.20776367, 6.09900236, 98.17723083, -0.43341118, 0.49136534, 0.61691540, 0.43603942, 0.85942328, 0.37352368, 0.46882376, 100.31200409, 84.66732025, 33.46999741, 0.00000000
1, 46.2101, 3153, -0.03129743, -1.16998196, -0.12425023, -30.46097755, 62.83422470, 75.56622314, -29.26045036, 13.56328583, -64.51329803, 103.94715881, 5.21321535, 98.60623169, -0.42842904, 0.49187088, 0.61488032, 0.44320869, 0.12811445, 0.20460856, 0.36376891, 100.31200409, 84.66732025, 33.46999741, 0.00000000
1, 46.2201, 3154, 0.32828429, -1.03772700, 0.07576233, -25.97982788, 64.25654602, 62.08304596, -29.64045525, 13.44636059, -64.74714661, 103.72937012, 4.45679760, 99.08442688, -0.42366952, 0.49172992, 0.61360461, 0.44966125, -0.24600452, 0.06983200, 0.16127396, 100.31200409, 84.66732025, 33.46999741, 0.00000000
1, 46.2301, 3155, 0.30020660, -1.00836921, -0.00262488, -23.34153175, -3.40122747, 64.32759857, -30.80970383, 13.70944118, -64.95176697, 103.47560883, 3.84948325, 98.90177917, -0.42239314, 0.49435651, 0.60980666, 0.45313525, -0.22932519, 0.03876089, 0.23585549, 100.31200409, 84.66732025, 33.46999741, 0.00000000
1, 46.2401, 3156, 0.12731932, -0.86301017, 0.26464438, -19.80231667, -43.35100555, 69.86756134, -30.13738632, 12.62788677, -65.36100769, 103.24314880, 3.26839590, 98.31829834, -0.42276123, 0.49905398, 0.60440105, 0.45488200, -0.06714827, -0.10868596, -0.03565020, 100.31200409, 84.66732025, 33.46999741, 0.00000000
1, 46.2501, 3157, 0.06750229, -0.85187066, 0.40535554, -16.55967140, -64.33706665, 70.29000092, -30.13738632, 12.62788677, -65.36100769, 103.03855896, 2.72833014, 97.53171539, -0.42404833, 0.50469804, 0.59829348, 0.45553017, -0.01753281, -0.12145370, -0.18002501, 100.31200409, 84.66732025, 33.46999741, 0.00000000
1, 46.2601, 3158, -0.19907275, -0.91516924, 0.42706233, -11.62791157, -89.24197388, 66.21602631, -30.86816597, 13.53405380, -64.65945435, 102.87947083, 2.28119302, 96.51323700, -0.42654723, 0.51125962, 0.59158731, 0.45463794, 0.24067855, -0.05925509, -0.20536491, 100.31200409, 84.66732025, 33.46999741, 0.00000000
1, 46.2701, 3159, -0.56963962, -0.98820329, 0.25471371, -14.42383194, -69.74909210, 59.91610336, -30.40046692, 10.52323914, -64.98100281, 102.70731354, 1.84973907, 95.70046234, -0.42838365, 0.51657504, 0.58572865, 0.45448840, 0.60406721, 0.01313241, -0.03679920, 100.31200409, 84.66732025, 33.46999741, 0.00000000
1, 46.2801, 3160, -0.72497338, -1.01206386, 0.35647294, -17.25696945, -30.47597504, 49.40867233, -30.78047371, 12.89096737, -64.89330292, 102.53034210, 1.40051973, 95.29689789, -0.42854583, 0.51981175, 0.58158529, 0.45596379, 0.75164187, 0.03591700, -0.14195341, 100.31200409, 84.66732025, 33.46999741, 0.00000000
1, 46.2901, 3161, -0.76533663, -0.99365509, 0.35666683, -20.70104408, 12.14748573, 38.41051483, -30.40046692, 11.75094986, -64.86407471, 102.32479858, 0.99895573, 95.33339691, -0.42732972, 0.52050096, 0.57947302, 0.45899808, 0.78449547, 0.01660962, -0.14544053, 100.31200409, 84.66732025, 33.46999741, 0.00000000
1, 46.3001, 3162, -0.55899227, -0.96715617, 0.30159658, -22.45086479, 51.81877136, 29.12560463, -31.83279800, 13.44636059, -65.30254364, 102.10710144, 0.60491174, 95.77879333, -0.42455244, 0.51905137, 0.57917994, 0.46356395, 0.57135147, -0.01071162, -0.09346126, 100.31200409, 84.66732025, 33.46999741, 0.00000000
1, 46.3101, 3163, -0.16467258, -0.98288560, 0.19762753, -20.64783859, 57.56978226, 24.50768852, -31.83279800, 13.44636059, -65.30254364, 101.90505219, 0.24576809, 96.29141235, -0.42157638, 0.51718616, 0.57936388, 0.46811268, 0.17075856, 0.00436204, 0.00791189, 100.31200409, 84.66732025, 33.46999741, 0.00000000
1, 46.3201, 3164, 0.20075212, -0.99595654, 0.12979849, -19.90885925, 46.49596024, 24.65495872, -31.94972229, 13.18327999, -65.68254852, 101.70721436, -0.09055472, 96.69653320, -0.41910762, 0.51579440, 0.57914674, 0.47211650, -0.20048057, 0.01680841, 0.07323557, 100.31200409, 84.66732025, 33.46999741, 0.00000000
1, 46.3301, 3165, 0.26147884, -0.98312593, 0.10895561, -17.79514313, 10.93251419, 29.05573463, -32.50511551, 13.56328583, -65.09792328, 101.51853180, -0.36848113, 96.74659729, -0.41834345, 0.51599520, 0.57757163, 0.47449839, -0.26660764, 0.00335274, 0.09100869, 100.31200409, 84.66732025, 33.46999741, 0.00000000
1, 46.3401, 3166, 0.06951500, -1.00632799, 0.11556826, -15.87348175, -19.41996765, 31.77797318, -32.70973206, 13.24174213, -65.12715149, 101.36286926, -0.64225793, 96.49356842, -0.41870916, 0.51782310, 0.57477289, 0.47558194, -0.07925244, 0.02598253, 0.08095860, 100.31200409, 84.66732025, 33.46999741, 0.00000000
1, 46.3501, 3167, -0.13942772, -1.01053119, 0.16628963, -15.62310696, -26.85773277, 31.91297150, -32.85588837, 12.71557999, -65.65332031, 101.21182251, -0.90355033, 96.16802979, -0.41942513, 0.51996857, 0.57169813, 0.47631574, 0.12493941, 0.02963146, 0.02708749, 100.31200409, 84.66732025, 33.46999741, 0.00000000
1, 46.3701, 3168, -0.27077350, -0.97285974, 0.25047839, -15.75772476, 7.12252808, 28.88640785, -32.47588348, 11.66325665, -65.79947662, 100.90759277, -1.46874762, 95.96672821, -0.41879553, 0.52216107, 0.56738806, 0.47961333, 0.24650687, -0.00901116, -0.06254360, 100.31200409, 84.66732025, 33.46999741, 0.00000000
1, 46.3801, 3169, -0.09668861, -0.96202290, 0.24340649, -16.33289528, 22.25974464, 28.57100868, -32.91435242, 12.65711784, -65.91639709, 100.74594116, -1.78857791, 96.13021088, -0.41722998, 0.52206445, 0.56624222, 0.48242891, 0.06697178, -0.02023227, -0.05784376, 100.31200409, 84.66732025, 33.46999741, 0.00000000
1, 46.3901, 3170, 0.06041228, -0.97349381, 0.22048894, -16.29734421, 25.58106613, 30.26212502, -33.76205826, 9.99707699, -66.44255829, 100.57703400, -2.13338208, 96.32623291, -0.41542554, 0.52188647, 0.56511003, 0.48549658, -0.09589213, -0.00907213, -0.03739801, 100.31200409, 84.66732025, 33.46999741, 0.00000000
1, 46.4001, 3171, 0.14177245, -0.97518659, 0.18380018, -16.52528572, 21.65041542, 33.60645294, -33.93744659, 10.96170712, -66.09178162, 100.40649414, -2.50341415, 96.47856903, -0.41367674, 0.52202487, 0.56366563, 0.48851085, -0.18345957, -0.00762733, -0.00347491, 100.31200409, 84.66732025, 33.46999741, 0.00000000
1, 46.4101, 3172, 0.16018936, -0.96010339, 0.14096908, -16.55625343, 16.21539497, 37.29798889, -33.93744659, 10.96170712, -66.09178162, 100.23747253, -2.89966297, 96.57196045, -0.41203231, 0.52256817, 0.56184757, 0.49140549, -0.20850319, -0.02287732, 0.03646417, 100.31200409, 84.66732025, 33.46999741, 0.00000000
1, 46.4201, 3173, 0.15446958, -0.95272243, 0.11902248, -16.52954292, 11.95825291, 41.27976227, -34.14206314, 11.78018093, -66.26717377, 100.07075500, -3.32742190, 96.61758423, -0.41041714, 0.52348280, 0.55968755, 0.49424022, -0.20997199, -0.03037119, 0.05547180, 100.31200409, 84.66732025, 33.46999741, 0.00000000
1, 46.4301, 3174, 0.13752206, -0.94644320, 0.11221690, -15.98836327, 6.28297043, 45.02838516, -34.60976410, 11.92633724, -66.35486603, 99.90654755, -3.76044822, 96.60250092, -0.40902311, 0.52472275, 0.55722654, 0.49685493, -0.20067027, -0.03669292, 0.05934730, 100.31200409, 84.66732025, 33.46999741, 0.00000000
1, 46.4401, 3175, 0.03855519, -0.98138893, 0.12363598, -14.80634403, 1.88251162, 48.13325119, -34.87284470, 9.20783424, -66.03332520, 99.76412964, -4.23839998, 96.53941345, -0.40750748, 0.52645069, 0.55444902, 0.49937326, -0.10961850, -0.00170319, 0.04490805, 100.31200409, 84.66732025, 33.46999741, 0.00000000
1, 46.4501, 3176, -0.08453872, -1.02052069, 0.13912174, -13.73413944, -3.75310111, 51.13997650, -34.90207672, 12.24788094, -66.44255829, 99.63764191, -4.73668623, 96.41664124, -0.40607554, 0.52859724, 0.55136836, 0.50167781, 0.00487391, 0.03765064, 0.02668738, 100.31200409, 84.66732025, 33.46999741, 0.00000000
1, 46.4601, 3177, -0.18134616, -1.04051602, 0.16996484, -13.70772934, -2.86151719, 51.73925018, -34.90207672, 12.24788094, -66.44255829, 99.51173401, -5.24261808, 96.30271149, -0.40456444, 0.53072304, 0.54828101, 0.50403249, 0.09284830, 0.05795798, -0.00669044, 100.31200409, 84.66732025, 33.46999741, 0.00000000
1, 46.4701, 3178, -0.23583643, -1.03331518, 0.18595962, -14.56547356, 1.74447286, 51.08880615, -35.34054184, 11.45863724, -66.20870972, 99.37363434, -5.74990702, 96.23654938, -0.40289307, 0.53257304, 0.54533660, 0.50660759, 0.13849555, 0.05115508, -0.02523028, 100.31200409, 84.66732025, 33.46999741, 0.00000000
1, 46.4801, 3179, -0.18105811, -1.02446592, 0.21538575, -15.80624485, 11.60166168, 50.65603256, -36.10055542, 12.24788094, -66.79333496, 99.21852112, -6.27101469, 96.26835632, -0.40079379, 0.53394628, 0.54269880, 0.50965059, 0.07470427, 0.04273547, -0.05720957, 100.31200409, 84.66732025, 33.46999741, 0.00000000
1, 46.4901, 3180, -0.07858415, -1.02237451, 0.23133887, -16.72478676, 15.69998264, 51.55409241, -36.01286316, 11.13709450, -67.02718353, 99.04404449, -6.80521631, 96.34283447, -0.39852139, 0.53509951, 0.54010314, 0.51296967, -0.03698912, 0.04116277, -0.07592247, 100.31200409, 84.66732025, 33.46999741, 0.00000000
1, 46.5001, 3181, 0.03550687, -1.04532480, 0.22892877, -18.28507614, 15.88664436, 54.11967850, -36.83133698, 11.98479939, -67.64103699, 98.85344696, -7.36488199, 96.41697693, -0.39618689, 0.53629804, 0.53731102, 0.51644683, -0.16059440, 0.06475092, -0.07660092, 100.31200409, 84.66732025, 33.46999741, 0.00000000
1, 46.5101, 3182, 0.12061124, -1.07985902, 0.16515271, -21.18911743, 12.86863327, 58.39613724, -36.83133698, 11.98479939, -67.64103699, 98.63771820, -7.96206427, 96.45662689, -0.39392465, 0.53771758, 0.53406817, 0.52005237, -0.25561422, 0.10014724, -0.01637536, 100.31200409, 84.66732025, 33.46999741, 0.00000000
1, 46.5201, 3183, 0.17825113, -1.05546916, 0.17325151, -24.73299217, 12.94311619, 63.49053574, -36.42210007, 10.61093235, -67.02718353, 98.38687134, -8.60968399, 96.49198151, -0.39157939, 0.53923178, 0.53041047, 0.52398437, -0.32412067, 0.07664615, -0.02858810, 100.31200409, 84.66732025, 33.46999741, 0.00000000
1, 46.5301, 3184, 0.24094683, -1.06001127, 0.23388323, -28.24047852, 10.20995331, 69.48149872, -38.17597198, 12.16018677, -67.34872437, 98.11165619, -9.28824615, 96.49003601, -0.38935408, 0.54095244, 0.52630460, 0.52799380, -0.39862627, 0.08218190, -0.09391455, 100.31200409, 84.66732025, 33.46999741, 0.00000000
1, 46.5401, 3185, 0.21250062, -1.11883843, 0.28025487, -32.14007187, 4.80499935, 76.36015320, -38.23443222, 10.23092651, -67.78719330, 97.80190277, -10.05205250, 96.43221283, -0.38710380, 0.54313624, 0.52137816, 0.53227687, -0.38273659, 0.14226249, -0.14576295, 100.31200409, 84.66732025, 33.46999741, 0.00000000
1, 46.5501, 3186, 0.14446968, -1.18077648, 0.33340791, -35.08280182, 4.14098740, 83.42727661, -38.52674484, 11.78018093, -67.87489319, 97.46576691, -10.88538265, 96.36254883, -0.38467139, 0.54554158, 0.51592845, 0.53687084, -0.32868847, 0.20581925, -0.20507193, 100.31200409, 84.66732025, 33.46999741, 0.00000000
1, 46.5601, 3187, 0.14234711, -1.20785522, 0.35095066, -38.33978271, 8.96788025, 90.90970612, -38.52674484, 11.78018093, -67.87489319, 97.08961487, -11.79949951, 96.33724213, -0.38179797, 0.54791117, 0.51009792, 0.54205519, -0.34175709, 0.23499361, -0.22919202, 100.31200409, 84.66732025, 33.46999741, 0.00000000
1, 46.5701, 3188, 0.17494385, -1.23717809, 0.31071675, -40.85358429, 11.07612133, 98.00238037, -38.96521378, 8.94475269, -68.72259521, 96.68482208, -12.78676319, 96.33104706, -0.37858313, 0.55036902, 0.50383943, 0.54764473, -0.39064115, 0.26699775, -0.19601931, 100.31200409, 84.66732025, 33.46999741, 0.00000000
1, 46.5801, 3189, 0.23067291, -1.26873553, 0.26878285, -43.16918182, 8.63265038, 105.42221069, -39.75445557, 10.46477604, -68.34259033, 96.26618195, -13.83006001, 96.29606628, -0.37527299, 0.55310684, 0.49705559, 0.55333430, -0.46375099, 0.30179501, -0.16148275, 100.31200409, 84.66732025, 33.46999741, 0.00000000
1, 46.5901, 3190, 0.24388437, -1.29589725, 0.20535953, -46.00197220, 1.94733346, 113.06298828, -40.66062546, 10.96170712, -68.28412628, 95.83424377, -14.95778656, 96.19480896, -0.37190038, 0.55638474, 0.48942739, 0.55909491, -0.49527666, 0.33285505, -0.10574691, 100.31200409, 84.66732025, 33.46999741, 0.00000000
1, 46.6001, 3191, 0.18331623, -1.31824863, 0.15169036, -48.51034546, -5.19462729, 120.25059509, -41.50833130, 12.10172462, -68.92721558, 95.39882660, -16.15093613, 96.02090454, -0.36855704, 0.56016994, 0.48103714, 0.56478208, -0.45427126, 0.35985276, -0.06007442, 100.31200409, 84.66732025, 33.46999741, 0.00000000
1, 46.6101, 3192, 0.08074424, -1.35679996, 0.14023973, -50.82242203, -6.70621967, 126.57091522, -42.03449249, 9.64630222, -68.63490295, 94.94764709, -17.40696144, 95.83397675, -0.36502814, 0.56414461, 0.47211072, 0.57061976, -0.37231386, 0.40374810, -0.05691380, 100.31200409, 84.66732025, 33.46999741, 0.00000000
1, 46.6201, 3193, 0.01402785, -1.39898705, 0.17689212, -51.67204666, -1.55073929, 131.36656189, -42.03449249, 9.64630222, -68.63490295, 94.47358704, -18.71633530, 95.70642853, -0.36103618, 0.56794935, 0.46300173, 0.57681519, -0.32716891, 0.45199719, -0.10209034, 100.31200409, 84.66732025, 33.46999741, 0.00000000
1, 46.6301, 3194, -0.03003987, -1.44890368, 0.22613418, -50.98291779, 8.31101036, 134.36196899, -43.67144012, 12.13095570, -69.54106903, 93.97427368, -20.05622482, 95.68956757, -0.35644361, 0.57130110, 0.45405674, 0.58343422, -0.30520946, 0.50871408, -0.16014306, 100.31200409, 84.66732025, 33.46999741, 0.00000000
1, 46.6401, 3195, 0.02858048, -1.53649533, 0.38047588, -53.14918137, 23.20321846, 136.44453430, -44.19760132, 11.42940617, -69.86260986, 93.39062500, -21.43374252, 95.84572601, -0.35116851, 0.57382727, 0.44525087, 0.59089303, -0.38650444, 0.60364336, -0.32399681, 100.31200409, 84.66732025, 33.46999741, 0.00000000
1, 46.6501, 3196, 0.15996191, -1.61135566, 0.49367422, -54.86244965, 26.05517960, 140.39006042, -45.60070038, 12.42326832, -69.92107391, 92.76943970, -22.85068321, 96.04765320, -0.34560108, 0.57620877, 0.43617177, 0.59857970, -0.54091918, 0.68674386, -0.44747740, 100.31200409, 84.66732025, 33.46999741, 0.00000000
1, 46.6601, 3197, 0.07856534, -1.59639263, 0.45338714, -49.67153549, 29.82583046, 143.35823059, -47.03303146, 12.97866154, -70.30107880, 92.17176819, -24.29647255, 96.30805206, -0.33941498, 0.57855558, 0.42725012, 0.60624105, -0.48244113, 0.68116701, -0.41750202, 100.31200409, 84.66732025, 33.46999741, 0.00000000
1, 46.6701, 3198, 0.03651812, -1.62250304, 0.60381114, -48.01831055, 63.03672409, 146.95050049, -47.03303146, 12.97866154, -70.30107880, 91.42024231, -25.78493309, 96.95526886, -0.33165756, 0.57921052, 0.41913444, 0.61550367, -0.46417376, 0.71730375, -0.57915944, 100.31200409, 84.66732025, 33.46999741, 0.00000000
1, 46.6801, 3199, 0.11094251, -1.70484960, 0.68682784, -46.17742157, 91.76400757, 147.27879333, -47.93919754, 13.18327999, -70.33031464, 90.51884460, -27.26743507, 97.95246887, -0.32268682, 0.57826006, 0.41187343, 0.62597835, -0.56219959, 0.81060338, -0.67582703, 100.31200409, 84.66732025, 33.46999741, 0.00000000
