time,ax,ay,az,aT
5.620000,5.0377,-1.6426,0.5780,5.330
5.625000,4.9981,-1.3292,0.9168,5.252
5.630000,4.8738,-1.0773,1.0860,5.108
5.634000,4.7168,-0.8814,1.1264,4.929
5.638000,4.5260,-0.7262,1.0718,4.708
5.652000,4.3029,-0.6484,0.9608,4.456
5.653000,4.0702,-0.5865,0.7124,4.173
5.654000,3.8704,-0.5476,0.3796,3.927
5.705000,3.6715,-0.5222,-0.0158,3.709
5.707000,3.4489,-0.5219,-0.4899,3.522
5.710000,3.2116,-0.5675,-0.9730,3.403
5.711000,3.0066,-0.6228,-1.4864,3.411
5.712000,2.6975,-0.6461,-1.9867,3.412
5.714000,2.2584,-0.7156,-2.4571,3.413
5.714000,1.8425,-0.7995,-2.8212,3.463
5.715000,1.3954,-0.9207,-3.1245,3.544
5.715000,0.9195,-1.0646,-3.3528,3.636
5.716000,0.5347,-1.1873,-3.5588,3.790
5.717000,0.2312,-1.2984,-3.6253,3.858
5.717000,-0.0292,-1.4409,-3.6601,3.934
5.717000,-0.2318,-1.5285,-3.5894,3.908
5.724000,-0.4604,-1.6092,-3.5209,3.898
5.734000,-0.6259,-1.6544,-3.4046,3.837
5.735000,-0.7741,-1.6649,-3.3147,3.789
5.737000,-0.8946,-1.6620,-3.2107,3.724
5.772000,-0.9706,-1.6436,-3.1144,3.653
5.773000,-1.0649,-1.6176,-3.1164,3.669
5.773000,-1.1847,-1.5934,-3.1378,3.713
5.773000,-1.3725,-1.5925,-3.2215,3.847
5.773000,-1.6164,-1.5672,-3.2864,3.984
5.775000,-1.8511,-1.5410,-3.2920,4.079
5.775000,-2.1146,-1.4854,-3.3030,4.194
5.782000,-2.2655,-1.4266,-3.2526,4.213
5.783000,-2.4566,-1.3646,-3.2319,4.283
5.788000,-2.6902,-1.2923,-3.3031,4.452
5.796000,-2.8975,-1.2695,-3.3630,4.617
5.797000,-3.0051,-1.2459,-3.3826,4.693
5.802000,-3.1376,-1.1981,-3.3715,4.759
5.807000,-3.3996,-1.2239,-3.4519,4.997
5.812000,-3.6141,-1.2254,-3.5258,5.196
5.817000,-3.7481,-1.1855,-3.6262,5.348
5.822000,-3.8662,-1.1569,-3.7318,5.497
5.827000,-3.9283,-1.1799,-3.7848,5.581
5.831000,-3.9632,-1.2163,-3.8213,5.638
5.837000,-3.9759,-1.3018,-3.8698,5.699
5.842000,-3.9427,-1.3333,-3.8441,5.666
5.847000,-3.9021,-1.3085,-3.7731,5.583
5.852000,-3.8685,-1.3301,-3.7762,5.567
5.857000,-3.8275,-1.2998,-3.8103,5.555
5.876000,-3.7671,-1.2943,-3.8874,5.566
5.878000,-3.6043,-1.3206,-3.8972,5.470
5.879000,-3.3920,-1.3356,-3.8516,5.303
5.881000,-3.1668,-1.3393,-3.7410,5.081
5.882000,-2.9217,-1.3154,-3.6083,4.826
5.887000,-2.6706,-1.2950,-3.5065,4.594
5.892000,-2.4400,-1.2976,-3.4163,4.394
5.945000,-2.2059,-1.2301,-3.2875,4.146
5.947000,-1.9294,-1.1740,-3.1348,3.864
5.947000,-1.6772,-1.1463,-3.0323,3.650
5.948000,-1.3969,-1.0920,-2.9658,3.455
5.948000,-1.1987,-1.0495,-2.9397,3.344
5.949000,-1.0516,-1.0500,-2.9183,3.275
5.949000,-0.9914,-1.0404,-2.9396,3.272
5.949000,-0.8987,-1.0686,-2.8553,3.178
5.950000,-0.7464,-1.0479,-2.7781,3.062
5.951000,-0.5780,-1.0025,-2.7056,2.943
5.951000,-0.3723,-0.9251,-2.6758,2.856
5.951000,-0.1753,-0.8635,-2.6646,2.806
5.956000,-0.0035,-0.7602,-2.5142,2.627
5.961000,0.2245,-0.6942,-2.3850,2.494
5.966000,0.4494,-0.5606,-2.2199,2.333
5.972000,0.6691,-0.4266,-1.9615,2.116
5.982000,0.8620,-0.2682,-1.7297,1.951
5.984000,1.0691,-0.1435,-1.5028,1.850
5.986000,1.2635,-0.1190,-1.1516,1.714
5.991000,1.3642,-0.1091,-0.8199,1.595
6.013000,1.3669,-0.1375,-0.5173,1.468
6.016000,1.3527,-0.1538,-0.2246,1.380
6.016000,1.3831,-0.2324,0.0490,1.403
6.017000,1.3889,-0.2984,0.2915,1.450
6.017000,1.4015,-0.3402,0.6463,1.580
6.020000,1.4789,-0.3938,1.0509,1.857
6.026000,1.5643,-0.3749,1.4429,2.161
6.031000,1.6508,-0.2962,1.8770,2.517
6.036000,1.7508,-0.2219,2.2982,2.898
6.041000,1.7883,-0.1836,2.7420,3.279
6.048000,1.8014,-0.2318,3.1129,3.604
6.052000,1.7852,-0.3570,3.4468,3.898
6.057000,1.7300,-0.5450,3.7725,4.186
6.061000,1.6938,-0.6472,4.0492,4.437
6.066000,1.7584,-0.7403,4.2361,4.646
6.070000,1.8830,-0.6879,4.2856,4.731
6.076000,2.0596,-0.5714,4.2004,4.713
6.081000,2.2134,-0.4858,4.0863,4.673
6.086000,2.3650,-0.3881,3.9318,4.605
6.090000,2.4663,-0.2464,3.8948,4.617
6.102000,2.5644,0.0013,3.7938,4.579
6.103000,2.6323,0.3192,3.7438,4.588
6.106000,2.6790,0.6420,3.7378,4.643
6.151000,2.7350,0.8782,3.9479,4.882
6.153000,2.8056,0.9272,4.5219,5.402
6.153000,2.8862,0.8067,5.2988,6.088
6.154000,2.9607,0.5088,6.0626,6.766
6.154000,2.9428,0.1902,6.6531,7.277
6.155000,2.8918,-0.1066,6.9030,7.485
6.156000,2.7908,-0.3985,6.8153,7.375
6.156000,2.6089,-0.5938,6.4981,7.027
6.161000,2.4713,-0.6819,5.9372,6.467
6.163000,2.4024,-0.6494,5.2790,5.836
6.163000,2.4508,-0.5567,4.7078,5.337
6.165000,2.5138,-0.4196,4.2092,4.921
6.171000,2.6632,-0.2706,3.8909,4.723
6.175000,2.8493,-0.1116,3.6784,4.654
6.181000,2.9696,0.0501,3.5141,4.601
6.185000,3.0195,0.2549,3.4504,4.592
6.190000,3.0274,0.4067,3.4323,4.595
6.200000,2.8992,0.6218,3.5029,4.589
6.201000,2.6725,0.8060,3.4685,4.452
6.205000,2.3846,1.0542,3.3868,4.274
6.245000,2.0442,1.2411,3.3273,4.098
6.246000,1.7038,1.4527,3.1611,3.874
6.247000,1.4417,1.6385,2.9910,3.703
6.248000,1.2335,1.7861,2.7455,3.500
6.249000,1.1221,1.9314,2.4629,3.325
6.249000,0.9611,1.9542,2.1290,3.046
6.250000,0.8032,1.9645,1.8252,2.799
6.251000,0.6802,1.9289,1.4722,2.520
6.251000,0.5928,1.8570,1.0030,2.192
6.254000,0.4670,1.8495,0.4536,1.961
6.260000,0.3833,1.7781,-0.0495,1.820
6.264000,0.2795,1.7224,-0.5254,1.822
6.269000,0.2187,1.6545,-0.9263,1.909
6.273000,0.1922,1.5845,-1.3197,2.071
6.279000,0.2116,1.5053,-1.6241,2.224
6.283000,0.2226,1.4870,-1.8277,2.367
6.290000,0.2160,1.4697,-1.9620,2.461
6.299000,0.2095,1.4678,-2.0824,2.556
6.300000,0.2154,1.4380,-2.1796,2.620
6.303000,0.2432,1.4637,-2.2082,2.660
6.309000,0.1420,1.4084,-2.3237,2.721
6.330000,-0.0815,1.3747,-2.4039,2.770
6.333000,-0.3413,1.3244,-2.5586,2.901
6.333000,-0.5728,1.3415,-2.6420,3.018
6.334000,-0.7759,1.3970,-2.7260,3.160
6.334000,-0.9334,1.4645,-2.7844,3.282
6.339000,-1.0817,1.4818,-2.8506,3.390
6.344000,-1.2354,1.4796,-2.9579,3.531
6.348000,-1.4097,1.4890,-3.0464,3.672
6.353000,-1.6097,1.4454,-3.1183,3.795
6.359000,-1.7639,1.3607,-3.2667,3.954
6.363000,-1.9468,1.3190,-3.4339,4.162
6.368000,-2.0535,1.2701,-3.5027,4.254
6.373000,-2.1848,1.2430,-3.5424,4.344
6.378000,-2.3077,1.2832,-3.6364,4.494
6.383000,-2.3530,1.2786,-3.7582,4.615
6.388000,-2.4546,1.2650,-3.8362,4.727
6.400000,-2.4452,1.1876,-3.9994,4.836
6.402000,-2.4564,1.1804,-3.9896,4.832
6.403000,-2.3472,1.1215,-4.1057,4.860
6.408000,-2.1829,1.0851,-4.1417,4.806
6.417000,-2.1325,1.2027,-4.1387,4.809
6.419000,-1.9959,1.2714,-4.1378,4.767
6.423000,-1.7527,1.3102,-4.1135,4.659
6.468000,-1.4125,1.3284,-4.0251,4.468
6.470000,-1.1238,1.3139,-3.9445,4.307
6.470000,-0.9178,1.2785,-3.8788,4.186
6.471000,-0.7367,1.2678,-3.8495,4.119
6.471000,-0.6518,1.3392,-3.8617,4.139
6.471000,-0.5578,1.4736,-3.8196,4.132
6.472000,-0.4974,1.6087,-3.6996,4.065
6.472000,-0.4632,1.7227,-3.5376,3.962
6.473000,-0.4216,1.7484,-3.3888,3.837
6.473000,-0.4212,1.7574,-3.1837,3.661
6.478000,-0.4068,1.7061,-2.9726,3.451
6.482000,-0.4431,1.6663,-2.7459,3.242
6.488000,-0.4568,1.6853,-2.5273,3.072
6.494000,-0.4668,1.6769,-2.3192,2.900
6.497000,-0.4711,1.6766,-2.1932,2.801
6.502000,-0.4654,1.6270,-2.0105,2.628
6.508000,-0.4496,1.5666,-1.8188,2.442
6.512000,-0.4002,1.4954,-1.6492,2.262
6.518000,-0.3509,1.4538,-1.5517,2.155
6.523000,-0.3282,1.4278,-1.4162,2.038
6.527000,-0.3229,1.3411,-1.2902,1.889
6.532000,-0.3063,1.3303,-1.1595,1.791
6.537000,-0.3118,1.2830,-0.9236,1.611
6.542000,-0.2841,1.2689,-0.6305,1.445
6.573000,-0.2354,1.1849,-0.2348,1.231
6.574000,-0.1820,1.0546,0.3038,1.112
6.574000,-0.1378,0.8370,0.9441,1.269
6.574000,-0.0903,0.6609,1.5591,1.696
6.574000,-0.0607,0.3966,2.0457,2.085
6.575000,-0.0486,0.0417,2.4758,2.477
6.579000,-0.0229,-0.2650,2.7944,2.807
6.582000,-0.0812,-0.6236,3.0158,3.081
6.586000,-0.0922,-0.9902,3.0640,3.221
6.591000,-0.1376,-1.4003,3.0207,3.332
6.596000,-0.1890,-1.7398,2.9749,3.451
6.601000,-0.1630,-2.1080,3.0009,3.671
6.606000,-0.0568,-2.3629,3.2348,4.006
6.611000,0.1079,-2.5302,3.4901,4.312
6.616000,0.3619,-2.6531,3.7476,4.606
6.622000,0.6035,-2.6977,3.9815,4.847
6.626000,0.8246,-2.6835,4.1897,5.043
6.631000,1.0539,-2.5630,4.3891,5.191
6.637000,1.2311,-2.4014,4.6776,5.400
6.640000,1.4597,-2.1806,4.8876,5.547
6.685000,1.5912,-1.9708,5.0644,5.663
6.687000,1.7403,-1.8036,5.2345,5.804
6.687000,1.8782,-1.8256,5.5197,6.110
6.688000,1.9809,-2.0298,5.8744,6.523
6.689000,2.0482,-2.4238,6.2555,7.014
6.690000,2.1067,-2.7827,6.4667,7.349
6.690000,2.2375,-2.9825,6.5156,7.507
6.691000,2.3995,-3.0206,6.3497,7.430
6.691000,2.6138,-2.9040,6.0700,7.219
6.692000,2.8880,-2.6518,5.6001,6.836
6.696000,3.1337,-2.4720,5.1456,6.512
6.701000,3.3416,-2.3285,4.7784,6.279
6.706000,3.5526,-2.2380,4.4957,6.152
6.711000,3.6960,-2.2557,4.3499,6.138
6.717000,3.8635,-2.2092,4.2279,6.139
6.721000,3.9309,-2.1448,4.0077,6.009
6.726000,3.9555,-2.1199,3.7277,5.834
6.730000,3.9156,-2.1467,3.3881,5.605
6.736000,3.7419,-2.1984,3.0176,5.286
6.740000,3.5563,-2.2272,2.6284,4.951
6.746000,3.3490,-2.2685,2.1585,4.585
6.751000,3.1026,-2.2524,1.6943,4.192
6.755000,2.9440,-2.2215,1.3292,3.920
6.809000,2.8198,-2.1612,1.0130,3.694
6.811000,2.7613,-2.1192,0.7792,3.567
6.811000,2.6463,-2.0285,0.4985,3.371
6.812000,2.4556,-1.8893,0.1807,3.104
6.812000,2.2273,-1.7778,-0.2076,2.857
6.812000,2.0283,-1.6105,-0.6686,2.675
6.813000,1.8252,-1.4305,-1.0158,2.532
6.813000,1.5563,-1.2640,-1.2949,2.387
6.814000,1.2943,-1.1345,-1.6139,2.359
6.814000,1.0489,-0.9943,-1.8818,2.373
6.815000,0.7818,-0.8958,-2.1609,2.466
6.815000,0.5744,-0.7935,-2.4249,2.615
6.819000,0.4192,-0.6680,-2.6306,2.746
6.824000,0.3091,-0.4715,-2.8188,2.875
6.830000,0.2372,-0.2665,-2.9515,2.973
6.835000,0.0984,-0.0387,-3.1506,3.152
6.840000,-0.0162,0.1399,-3.2776,3.281
6.844000,-0.0777,0.3029,-3.4042,3.419
6.850000,-0.1959,0.3948,-3.4877,3.515
6.854000,-0.2964,0.5399,-3.4254,3.480
6.862000,-0.2789,0.6781,-3.3632,3.442
6.869000,-0.2985,0.8283,-3.2991,3.415
6.870000,-0.3338,1.0071,-3.2450,3.414
6.874000,-0.4110,1.1755,-3.1891,3.424
6.916000,-0.5269,1.2783,-3.1819,3.469
6.918000,-0.7054,1.3253,-3.1682,3.506
6.918000,-0.7984,1.3159,-3.1842,3.537
6.919000,-0.9660,1.2955,-3.1796,3.567
6.919000,-1.1505,1.2524,-3.2119,3.634
6.921000,-1.2418,1.1867,-3.2332,3.661
6.921000,-1.3480,1.1635,-3.3533,3.797
6.922000,-1.4479,1.1666,-3.5073,3.970
6.922000,-1.6157,1.1511,-3.6879,4.188
6.923000,-1.7676,1.1393,-3.7921,4.336
6.928000,-1.8726,1.1722,-3.8606,4.448
6.935000,-1.8688,1.2047,-3.8716,4.465
6.940000,-1.8906,1.2106,-3.7846,4.400
6.944000,-1.8544,1.2711,-3.6329,4.272
6.949000,-1.8462,1.3479,-3.3666,4.069
6.953000,-1.8680,1.4405,-3.0673,3.869
6.960000,-1.9075,1.5487,-2.7710,3.703
6.964000,-2.0126,1.6268,-2.5519,3.634
6.969000,-2.1261,1.6694,-2.2497,3.517
6.973000,-2.1924,1.7005,-1.9698,3.403
6.981000,-2.3000,1.7337,-1.7196,3.355
6.984000,-2.3672,1.7739,-1.4848,3.310
6.988000,-2.4328,1.8420,-1.2726,3.306
7.035000,-2.4846,1.8518,-1.1331,3.299
7.036000,-2.5177,1.8870,-0.9682,3.292
7.037000,-2.5398,1.9112,-0.9168,3.308
7.038000,-2.5459,1.9225,-0.8995,3.315
7.038000,-2.4580,1.9041,-0.8779,3.231
7.039000,-2.3748,1.9109,-0.9067,3.180
7.039000,-2.2440,1.9671,-0.9714,3.138
7.040000,-2.1378,1.9291,-0.9330,3.027
7.040000,-1.9575,1.9169,-0.9258,2.892
7.040000,-1.7585,1.9016,-0.8708,2.732
7.047000,-1.5292,1.9549,-0.8921,2.637
7.048000,-1.2775,1.9737,-0.8534,2.501
7.054000,-1.0326,1.9700,-0.8764,2.391
7.059000,-0.8801,1.9655,-0.8703,2.323
7.064000,-0.7383,2.0078,-0.8688,2.309
7.069000,-0.5954,2.0346,-0.8480,2.283
7.072000,-0.4889,2.0506,-0.8249,2.264
7.080000,-0.4044,2.0127,-0.7996,2.203
7.084000,-0.3154,1.9593,-0.8342,2.153
7.087000,-0.2052,1.8619,-0.8689,2.065
7.114000,-0.1622,1.7734,-0.9586,2.022
7.115000,-0.1029,1.7373,-0.9765,1.996
7.117000,-0.0227,1.7465,-1.0180,2.022
7.118000,0.0401,1.7919,-0.9300,2.019
7.118000,0.1359,1.8637,-0.7559,2.016
7.118000,0.2721,1.8782,-0.4743,1.956
7.123000,0.3744,1.8540,-0.1738,1.899
7.127000,0.4282,1.7882,0.1429,1.844
7.132000,0.4289,1.6088,0.4759,1.732
7.137000,0.3719,1.4040,0.7724,1.645
7.142000,0.3223,1.1859,0.9748,1.569
7.147000,0.3216,0.9568,1.1620,1.539
7.152000,0.3697,0.7219,1.3842,1.604
7.157000,0.5407,0.5556,1.5124,1.700
7.163000,0.6957,0.4078,1.6065,1.797
7.167000,0.8481,0.2956,1.7458,1.963
7.173000,0.9191,0.1784,1.9231,2.139
7.188000,1.0143,0.0590,2.1432,2.372
7.190000,1.1482,-0.0770,2.5637,2.810
7.192000,1.2327,-0.1582,2.8519,3.111
7.193000,1.3777,-0.2778,3.1059,3.409
7.251000,1.4849,-0.3690,3.2758,3.615
7.253000,1.5108,-0.4580,3.3306,3.686
7.253000,1.5178,-0.5062,3.3757,3.736
7.254000,1.5395,-0.5304,3.3705,3.743
7.254000,1.5661,-0.4962,3.3177,3.702
7.254000,1.6359,-0.3893,3.3011,3.705
7.255000,1.7171,-0.2932,3.3566,3.782
7.255000,1.7996,-0.3779,3.6422,4.080
7.256000,1.8998,-0.7152,4.1935,4.659
7.256000,1.9819,-1.2981,4.8976,5.441
7.257000,2.0993,-1.8757,5.4622,6.145
7.257000,2.2736,-2.3026,5.6364,6.499
7.258000,2.5513,-2.4712,5.5022,6.549
7.261000,2.8664,-2.4221,5.1515,6.373
7.267000,3.1543,-2.2908,4.7855,6.172
7.271000,3.5016,-2.1003,4.5478,6.112
7.276000,3.7781,-1.9764,4.4068,6.132
7.283000,4.0637,-1.8539,4.4127,6.279
7.286000,4.4233,-1.7378,4.5507,6.580
7.292000,4.8209,-1.5663,4.7776,6.966
7.337000,5.1513,-1.3043,5.0237,7.313
7.340000,5.4150,-1.0390,5.2480,7.612
7.340000,5.6409,-0.9397,5.3929,7.860
7.341000,5.7177,-0.7896,5.4513,7.939
7.342000,5.6043,-0.6063,5.4329,7.829
7.342000,5.3491,-0.4674,5.3017,7.546
7.343000,4.9626,-0.2888,5.0074,7.056
7.344000,4.6414,-0.1641,4.6003,6.537
7.344000,4.2941,-0.1648,4.2720,6.059
7.345000,3.9201,-0.2573,3.9795,5.592
7.347000,3.4809,-0.3742,3.6320,5.045
7.350000,3.0146,-0.5635,3.2751,4.487
7.356000,2.6146,-0.6666,2.9233,3.978
7.361000,2.2237,-0.7121,2.5240,3.438
7.366000,1.8996,-0.7640,2.0987,2.932
7.372000,1.5970,-0.7332,1.6500,2.411
7.376000,1.3110,-0.7630,1.2569,1.970
7.381000,1.0752,-0.7380,0.8811,1.574
7.386000,0.8178,-0.7323,0.6231,1.262
7.391000,0.4794,-0.7168,0.3320,0.924
7.399000,0.1700,-0.7010,0.0917,0.727
7.400000,-0.0483,-0.7093,-0.1268,0.722
7.405000,-0.2830,-0.6482,-0.2589,0.753
7.448000,-0.5201,-0.5895,-0.3189,0.848
7.449000,-0.7592,-0.5172,-0.3742,0.992
7.449000,-0.9312,-0.4811,-0.5131,1.167
7.449000,-1.1177,-0.5298,-0.7450,1.444
7.449000,-1.3573,-0.5479,-1.0411,1.796
7.450000,-1.5377,-0.5256,-1.3389,2.106
7.450000,-1.6214,-0.5537,-1.6670,2.391
7.450000,-1.6308,-0.5219,-1.9605,2.603
7.451000,-1.6973,-0.3701,-2.2145,2.815
7.456000,-1.7556,-0.3018,-2.4702,3.045
7.460000,-1.7660,-0.2570,-2.7277,3.260
7.465000,-1.7288,-0.2237,-2.9847,3.456
7.470000,-1.5820,-0.2470,-3.2124,3.589
7.476000,-1.4187,-0.2744,-3.3081,3.610
7.481000,-1.2173,-0.2266,-3.3820,3.602
7.484000,-1.0110,-0.2183,-3.5609,3.708
7.489000,-0.8289,-0.1659,-3.7250,3.820
7.496000,-0.6944,-0.1552,-3.8481,3.913
7.501000,-0.5859,-0.1074,-3.9948,4.039
7.504000,-0.4938,-0.1153,-4.1007,4.132
7.552000,-0.3386,-0.1069,-4.0629,4.078
7.554000,-0.2376,-0.0492,-3.9558,3.963
7.554000,-0.1329,0.0243,-3.8826,3.885
7.555000,0.0400,0.0486,-3.7691,3.770
7.555000,0.1975,0.0544,-3.7327,3.738
7.556000,0.2464,0.0680,-3.6679,3.677
7.556000,0.2871,0.0173,-3.6084,3.620
7.556000,0.3510,-0.0113,-3.6260,3.643
7.556000,0.3947,-0.0609,-3.6534,3.675
7.557000,0.4536,-0.0163,-3.7241,3.752
7.561000,0.5796,-0.0376,-3.6487,3.695
7.563000,0.6357,0.0045,-3.5707,3.627
7.569000,0.5931,0.0383,-3.3824,3.434
7.574000,0.4403,0.0468,-3.1726,3.203
7.580000,0.2759,0.0536,-2.9535,2.967
7.584000,0.1027,0.0249,-2.7587,2.761
7.589000,-0.0674,-0.0156,-2.6049,2.606
7.594000,-0.1990,-0.0463,-2.4729,2.481
7.610000,-0.3204,-0.1202,-2.3746,2.399
7.611000,-0.4150,-0.2060,-2.2789,2.326
7.611000,-0.5115,-0.2316,-2.1500,2.222
7.613000,-0.5379,-0.2783,-2.0955,2.181
7.618000,-0.5258,-0.3146,-2.0673,2.156
7.624000,-0.4830,-0.2761,-2.0102,2.086
7.633000,-0.4068,-0.2845,-1.9388,2.001
7.634000,-0.3739,-0.2418,-1.8505,1.903
7.639000,-0.3195,-0.2295,-1.7574,1.801
7.670000,-0.3011,-0.2473,-1.6571,1.702
7.670000,-0.2490,-0.2334,-1.4612,1.501
7.671000,-0.1132,-0.1952,-1.1675,1.189
7.671000,0.0012,-0.0969,-0.8742,0.880
7.671000,0.0130,-0.0492,-0.6794,0.681
7.671000,-0.0352,-0.0810,-0.4586,0.467
7.673000,-0.0284,-0.1426,-0.2072,0.253
7.680000,-0.1072,-0.1908,-0.0830,0.234
7.683000,-0.1879,-0.2332,-0.0789,0.310
7.688000,-0.2539,-0.1645,-0.0918,0.316
7.693000,-0.2911,-0.1256,-0.1216,0.340
7.697000,-0.3114,-0.0973,-0.1181,0.347
7.702000,-0.3316,-0.0053,-0.1577,0.367
7.708000,-0.3185,0.0211,-0.1137,0.339
7.712000,-0.2965,0.0563,-0.0912,0.315
7.718000,-0.2084,0.1285,-0.0877,0.260
7.723000,-0.2104,0.1755,-0.0649,0.282
7.728000,-0.2665,0.2207,-0.1280,0.369
7.732000,-0.2815,0.2233,-0.2099,0.416
7.738000,-0.3534,0.2551,-0.3272,0.545
7.743000,-0.3916,0.2706,-0.4345,0.644
7.766000,-0.4297,0.2603,-0.5890,0.774
7.767000,-0.4174,0.2839,-0.7189,0.878
7.767000,-0.3976,0.2844,-0.8938,1.019
7.767000,-0.3936,0.2355,-1.0825,1.176
7.767000,-0.3576,0.2573,-1.2706,1.345
7.772000,-0.3228,0.2687,-1.5085,1.566
7.776000,-0.2530,0.2627,-1.6740,1.713
7.782000,-0.1913,0.2367,-1.8201,1.845
7.787000,-0.1250,0.1481,-1.9706,1.980
7.792000,-0.0806,0.0519,-2.0635,2.066
7.797000,-0.0071,-0.0442,-2.1348,2.135
7.802000,0.0048,-0.0688,-2.1966,2.198
7.807000,0.0463,-0.0600,-2.2945,2.296
7.811000,0.0076,-0.0821,-2.4211,2.423
7.817000,-0.0872,-0.1378,-2.4810,2.486
7.822000,-0.1876,-0.2913,-2.5077,2.532
7.827000,-0.2796,-0.3774,-2.4892,2.533
7.835000,-0.3893,-0.4461,-2.4520,2.522
7.836000,-0.5479,-0.5308,-2.4460,2.562
7.841000,-0.6677,-0.5192,-2.4568,2.598
7.877000,-0.7826,-0.5474,-2.4460,2.626
7.877000,-0.8780,-0.6348,-2.2869,2.531
7.877000,-0.9586,-0.7624,-2.0395,2.379
7.878000,-0.9548,-0.9614,-1.7758,2.234
7.878000,-0.9166,-1.2201,-1.5893,2.203
7.878000,-0.8900,-1.4522,-1.3721,2.187
7.878000,-0.8748,-1.6598,-1.1982,2.226
7.881000,-0.8492,-1.8691,-0.9699,2.271
7.886000,-0.8008,-2.1176,-0.8042,2.403
7.892000,-0.6986,-2.3379,-0.6773,2.532
7.896000,-0.5453,-2.5196,-0.4621,2.619
7.901000,-0.3242,-2.6551,-0.2640,2.688
7.906000,-0.1144,-2.7251,0.0151,2.728
7.910000,0.1798,-2.7605,0.4205,2.798
7.916000,0.4221,-2.7426,0.7967,2.887
7.921000,0.7038,-2.6809,1.1890,3.016
7.926000,0.9029,-2.5732,1.4609,3.094
7.931000,1.1679,-2.4195,1.6726,3.165
7.936000,1.3958,-2.2725,1.8766,3.261
7.940000,1.6813,-2.0440,2.0638,3.356
7.946000,1.8638,-1.7175,2.2892,3.415
7.953000,1.9580,-1.4423,2.5527,3.526
7.956000,2.0627,-1.2474,2.8109,3.703
7.963000,2.1963,-1.1578,3.2075,4.056
7.975000,2.2898,-1.3103,3.8616,4.677
7.976000,2.3584,-1.8011,4.6769,5.539
7.976000,2.4436,-2.5229,5.2918,6.351
8.004000,2.4861,-3.2316,5.5630,6.897
8.005000,2.5064,-3.6019,5.4720,7.014
8.005000,2.5606,-3.6503,5.0055,6.703
8.006000,2.7579,-3.5266,4.3197,6.221
8.006000,2.9992,-3.2724,3.5350,5.674
8.006000,3.1812,-2.9074,2.8741,5.180
8.018000,3.4235,-2.6098,2.4783,4.967
8.019000,3.5399,-2.3505,2.3782,4.869
8.020000,3.6033,-2.0984,2.5134,4.869
8.025000,3.7172,-1.9267,2.8401,5.059
8.030000,3.7744,-1.7817,3.1261,5.215
8.035000,3.7697,-1.6508,3.3664,5.317
8.040000,3.6644,-1.4494,3.3841,5.194
8.045000,3.5033,-1.2589,3.2873,4.966
8.050000,3.3286,-1.0152,3.1743,4.710
8.055000,3.1616,-0.7893,3.0525,4.465
8.075000,3.0114,-0.6031,3.0511,4.329
8.075000,2.9113,-0.4378,3.0671,4.251
8.076000,2.9401,-0.4369,3.0766,4.278
8.076000,2.9973,-0.4073,3.0984,4.330
8.082000,3.0330,-0.4214,2.9411,4.246
8.086000,3.0926,-0.4338,2.6813,4.116
8.090000,3.1428,-0.4328,2.3479,3.947
8.094000,3.1696,-0.4274,1.8595,3.700
8.100000,3.1060,-0.4289,1.2524,3.376
8.104000,3.0267,-0.4842,0.7348,3.152
8.110000,2.8670,-0.5303,0.2445,2.926
8.116000,2.7544,-0.5209,-0.2137,2.811
8.120000,2.7248,-0.5223,-0.5823,2.835
8.126000,2.6970,-0.5032,-0.8926,2.885
8.131000,2.6902,-0.4565,-1.2091,2.985
8.136000,2.6993,-0.3459,-1.4409,3.079
8.140000,2.7272,-0.1953,-1.6265,3.181
8.146000,2.7078,-0.0382,-1.7590,3.229
8.149000,2.6733,0.1566,-1.8100,3.232
8.155000,2.5905,0.4077,-1.9185,3.249
8.170000,2.4952,0.5907,-1.9744,3.236
8.173000,2.3422,0.7122,-1.9302,3.117
8.174000,2.1122,0.8035,-1.8983,2.951
8.175000,1.8944,0.9385,-1.8406,2.803
8.225000,1.6791,1.0448,-1.7142,2.617
8.226000,1.4709,1.1871,-1.6052,2.480
8.227000,1.2861,1.2901,-1.4899,2.353
8.227000,1.0525,1.3757,-1.4253,2.243
8.227000,0.8584,1.4195,-1.3541,2.141
8.228000,0.6699,1.4834,-1.2953,2.080
8.228000,0.5515,1.5100,-1.2945,2.064
8.228000,0.5075,1.5849,-1.3179,2.123
8.229000,0.4277,1.6871,-1.2986,2.172
8.229000,0.2905,1.7300,-1.3538,2.216
8.229000,0.1080,1.7472,-1.4188,2.253
8.235000,-0.0459,1.7844,-1.5198,2.344
8.240000,-0.1782,1.7508,-1.6067,2.383
8.246000,-0.2867,1.7542,-1.7103,2.467
8.249000,-0.3644,1.7757,-1.8355,2.580
8.254000,-0.4448,1.7796,-1.9152,2.652
8.258000,-0.5037,1.7684,-2.0091,2.724
8.264000,-0.5723,1.7689,-2.0720,2.784
8.269000,-0.5886,1.7976,-2.0558,2.794
8.273000,-0.6383,1.7832,-2.0946,2.824
8.280000,-0.6711,1.8713,-2.1502,2.928
8.283000,-0.6989,1.9044,-2.1652,2.967
8.288000,-0.7072,1.8871,-2.2113,2.992
8.343000,-0.7104,1.9462,-2.2025,3.024
8.343000,-0.7513,1.9671,-2.1413,3.003
8.344000,-0.7340,2.0023,-2.0876,2.984
8.344000,-0.6986,2.0782,-1.9841,2.957
8.344000,-0.6380,2.1010,-1.7951,2.836
8.345000,-0.5589,2.1591,-1.6550,2.777
8.345000,-0.4972,2.1854,-1.5349,2.716
8.346000,-0.4770,2.1845,-1.3965,2.636
8.346000,-0.4766,2.1777,-1.2519,2.557
8.346000,-0.4526,2.1076,-1.1778,2.456
8.346000,-0.4723,2.0864,-1.0449,2.381
8.349000,-0.4968,2.0159,-0.8941,2.261
8.353000,-0.4786,1.9416,-0.8162,2.160
8.358000,-0.4942,1.8517,-0.7440,2.056
8.363000,-0.5174,1.7435,-0.6586,1.934
8.369000,-0.5484,1.6487,-0.6170,1.844
8.374000,-0.5778,1.5624,-0.6455,1.787
8.378000,-0.6251,1.4586,-0.6934,1.732
8.387000,-0.6785,1.3948,-0.7442,1.720
8.388000,-0.7097,1.3305,-0.7305,1.676
8.443000,-0.6931,1.2898,-0.7023,1.624
8.443000,-0.6813,1.2512,-0.6790,1.578
8.444000,-0.6652,1.2530,-0.7128,1.588
8.444000,-0.6236,1.2401,-0.6986,1.554
8.444000,-0.5680,1.1935,-0.7129,1.502
8.445000,-0.5088,1.1320,-0.7246,1.437
8.445000,-0.4197,1.0728,-0.7143,1.355
8.445000,-0.2531,0.9867,-0.6225,1.194
8.446000,-0.0665,0.9574,-0.5712,1.117
8.446000,0.1331,0.9609,-0.5030,1.093
8.446000,0.3119,0.9422,-0.4251,1.080
8.447000,0.4913,0.8868,-0.3733,1.080
8.454000,0.6405,0.8688,-0.3213,1.126
8.459000,0.8046,0.8093,-0.3195,1.185
8.463000,0.9502,0.7678,-0.3509,1.271
8.467000,1.1108,0.7254,-0.3725,1.378
8.472000,1.2339,0.7012,-0.3724,1.467
8.478000,1.3796,0.6547,-0.4175,1.583
8.482000,1.5310,0.6076,-0.4911,1.719
8.487000,1.7074,0.5433,-0.5524,1.875
8.492000,1.8227,0.4860,-0.5321,1.960
8.500000,2.0306,0.4669,-0.5093,2.145
8.503000,2.2591,0.4909,-0.5317,2.372
8.507000,2.4368,0.5006,-0.4368,2.526
8.560000,2.6449,0.4600,-0.3180,2.703
8.561000,2.7998,0.4220,-0.2111,2.839
8.561000,2.9182,0.3052,0.0704,2.935
8.561000,2.9508,0.1477,0.3897,2.980
8.562000,2.9317,-0.0743,0.7635,3.030
8.562000,2.8977,-0.3275,1.0622,3.104
8.562000,2.8581,-0.5998,1.3076,3.200
8.563000,2.8107,-0.8193,1.4591,3.271
8.563000,2.7191,-1.0337,1.5146,3.280
8.563000,2.6244,-1.2016,1.5890,3.295
8.563000,2.5245,-1.2818,1.5198,3.213
8.567000,2.3836,-1.2884,1.4410,3.069
8.573000,2.2306,-1.2499,1.3696,2.901
8.577000,2.1133,-1.2163,1.4609,2.842
8.582000,2.0390,-1.2546,1.6597,2.913
8.586000,2.0431,-1.3197,1.8177,3.036
8.592000,2.0036,-1.3641,1.9348,3.101
8.597000,1.9833,-1.3977,2.0042,3.147
8.602000,1.9964,-1.3731,2.0475,3.172
8.606000,2.0299,-1.2522,2.1198,3.191
8.614000,2.0900,-1.1285,2.2644,3.282
8.617000,2.1285,-1.0573,2.3734,3.359
8.621000,2.2208,-0.9504,2.5428,3.507
8.668000,2.3159,-0.8659,2.6601,3.632
8.669000,2.4033,-0.8999,2.8593,3.842
8.670000,2.4594,-1.1633,3.1759,4.182
8.670000,2.5164,-1.6034,3.5952,4.672
8.671000,2.5803,-2.2322,3.8992,5.181
8.671000,2.6977,-2.9538,4.0904,5.721
8.671000,2.8139,-3.6090,4.0827,6.133
8.672000,3.0001,-4.0898,3.9151,6.407
8.672000,3.2630,-4.4070,3.7409,6.638
8.673000,3.5528,-4.6265,3.5747,6.841
8.675000,3.9274,-4.7306,3.3878,7.020
8.680000,4.3421,-4.6173,3.0990,7.055
8.686000,4.6115,-4.3908,2.9452,7.016
8.690000,4.9391,-4.0958,2.8331,7.014
8.698000,5.2966,-3.6913,2.8774,7.068
8.701000,5.5664,-3.2139,3.0826,7.129
8.706000,5.6716,-2.6680,3.3385,7.101
8.714000,5.6001,-2.1681,3.5992,7.001
8.716000,5.3067,-1.7432,3.8117,6.762
8.720000,4.9716,-1.3950,3.6671,6.333
8.725000,4.6471,-1.0794,3.3595,5.835
8.763000,4.3249,-0.8664,2.9776,5.322
8.764000,4.0280,-0.6916,2.5334,4.808
8.765000,3.8748,-0.6030,2.1278,4.462
8.766000,3.6927,-0.5742,1.7343,4.120
8.766000,3.4796,-0.6123,1.3674,3.788
8.767000,3.3238,-0.6808,0.9624,3.527
8.767000,3.2041,-0.8224,0.5220,3.349
8.767000,3.0385,-0.9527,0.1037,3.186
8.770000,2.8896,-1.0732,-0.2995,3.097
8.774000,2.7792,-1.1977,-0.7855,3.127
8.780000,2.6173,-1.3350,-1.2086,3.177
8.787000,2.3759,-1.4868,-1.5974,3.226
8.793000,2.1534,-1.6120,-1.9974,3.350
8.797000,1.9290,-1.7530,-2.3011,3.477
8.799000,1.6908,-1.8617,-2.6018,3.619
8.805000,1.4085,-1.9617,-2.9236,3.792
8.811000,1.1904,-2.0405,-3.1349,3.925
8.815000,0.9856,-2.1103,-3.3770,4.102
8.820000,0.7567,-2.1225,-3.5996,4.247
8.824000,0.4897,-2.1801,-3.8101,4.417
8.831000,0.2226,-2.1679,-3.9415,4.504
8.835000,-0.1447,-2.0642,-3.9795,4.485
8.839000,-0.4182,-1.9289,-3.9936,4.455
8.885000,-0.6650,-1.8723,-3.9984,4.465
8.887000,-0.8491,-1.8274,-3.9531,4.437
8.887000,-0.9809,-1.7277,-3.7788,4.269
8.888000,-1.0442,-1.6430,-3.6216,4.112
8.888000,-1.1107,-1.4900,-3.4312,3.902
8.889000,-1.2186,-1.3074,-3.3034,3.756
8.890000,-1.2893,-1.0695,-3.2429,3.650
8.890000,-1.3423,-0.9466,-3.2281,3.622
8.890000,-1.3755,-0.8313,-3.1370,3.525
8.891000,-1.4320,-0.7048,-3.0820,3.471
8.896000,-1.4426,-0.6582,-3.0585,3.445
8.899000,-1.4691,-0.6316,-2.9922,3.393
8.904000,-1.4161,-0.5313,-2.9741,3.337
8.909000,-1.2960,-0.4122,-3.0158,3.308
8.914000,-1.1908,-0.2908,-3.0383,3.276
8.919000,-1.0551,-0.1645,-2.9840,3.169
8.924000,-0.9584,-0.0426,-2.9223,3.076
8.929000,-0.8483,0.0676,-2.8629,2.987
8.934000,-0.7557,0.1445,-2.7268,2.833
8.938000,-0.6445,0.1854,-2.5357,2.623
8.987000,-0.5025,0.2305,-2.2804,2.346
8.988000,-0.3627,0.3011,-2.0567,2.110
8.988000,-0.1985,0.3653,-1.8648,1.911
8.988000,-0.0839,0.4421,-1.7502,1.807
8.989000,0.0435,0.4497,-1.6673,1.727
8.989000,0.1311,0.4266,-1.6785,1.737
8.989000,0.2171,0.4252,-1.7476,1.812
8.990000,0.2297,0.3504,-1.7884,1.837
8.990000,0.2286,0.3292,-1.8630,1.906
8.991000,0.2785,0.2733,-1.9500,1.989
8.996000,0.3407,0.2286,-2.0011,2.043
8.998000,0.3861,0.2047,-1.9854,2.033
9.003000,0.4169,0.1251,-1.9865,2.034
9.008000,0.4210,-0.0220,-1.9326,1.978
9.013000,0.3912,-0.1073,-1.8835,1.927
9.018000,0.3536,-0.2004,-1.8297,1.874
9.023000,0.3559,-0.2771,-1.8117,1.867
9.028000,0.3455,-0.3520,-1.7291,1.798
9.034000,0.3249,-0.3911,-1.7349,1.808
9.039000,0.3132,-0.4349,-1.6713,1.755
9.043000,0.2817,-0.4787,-1.6362,1.728
9.052000,0.2973,-0.4839,-1.6009,1.699
9.054000,0.3239,-0.4510,-1.4531,1.556
9.057000,0.3951,-0.4830,-1.2480,1.395
9.106000,0.5250,-0.4508,-1.1505,1.343
9.106000,0.6248,-0.4152,-1.1105,1.340
9.107000,0.6896,-0.3857,-1.0704,1.330
9.107000,0.7861,-0.3651,-1.1091,1.408
9.107000,0.8543,-0.3031,-1.1979,1.502
9.107000,0.9685,-0.2378,-1.3699,1.694
9.108000,1.0784,-0.1789,-1.4938,1.851
9.108000,1.2129,-0.1619,-1.6531,2.057
9.109000,1.3046,-0.0766,-1.8166,2.238
9.109000,1.4135,-0.0689,-1.9031,2.372
9.114000,1.4946,-0.0787,-1.9748,2.478
9.116000,1.5501,-0.0630,-2.0677,2.585
9.122000,1.6240,-0.0862,-2.1411,2.689
9.129000,1.6347,-0.1917,-2.2334,2.774
9.132000,1.5995,-0.3288,-2.2177,2.754
9.139000,1.5426,-0.4781,-2.2738,2.789
9.142000,1.4785,-0.5753,-2.3273,2.817
9.147000,1.3984,-0.6436,-2.3713,2.827
9.152000,1.3503,-0.7070,-2.4702,2.903
9.157000,1.3299,-0.7892,-2.5333,2.968
9.163000,1.3087,-0.8776,-2.5057,2.960
9.167000,1.2702,-0.9796,-2.4019,2.888
9.172000,1.2509,-1.0445,-2.2723,2.796
9.233000,1.2487,-1.1201,-2.0788,2.671
9.235000,1.1940,-1.1422,-1.9339,2.544
9.235000,1.0650,-1.1730,-1.7680,2.374
9.235000,0.9070,-1.2274,-1.5574,2.180
9.236000,0.8297,-1.2600,-1.3569,2.029
9.236000,0.7973,-1.2853,-1.2048,1.934
9.236000,0.7543,-1.3203,-1.0892,1.870
9.237000,0.6835,-1.3027,-1.0121,1.786
9.237000,0.6083,-1.2878,-0.9352,1.704
9.237000,0.5111,-1.3711,-0.8558,1.695
9.237000,0.4207,-1.5572,-0.5946,1.719
9.238000,0.3206,-1.7551,-0.1734,1.793
9.238000,0.2253,-2.0605,0.2474,2.087
9.241000,0.1801,-2.4232,0.6223,2.508
9.246000,0.1058,-2.8477,1.0112,3.024
9.252000,0.0888,-3.2095,1.3758,3.493
9.257000,0.1173,-3.5681,1.6181,3.920
9.266000,0.2272,-3.8055,1.7310,4.187
9.267000,0.3159,-3.9953,1.8104,4.398
9.271000,0.4004,-4.0960,1.9256,4.544
9.276000,0.3930,-4.2047,2.0381,4.689
9.316000,0.4423,-4.3020,2.1959,4.850
9.317000,0.5502,-4.3182,2.4084,4.975
9.317000,0.6498,-4.3300,2.5034,5.044
9.318000,0.7150,-4.2414,2.6700,5.063
9.318000,0.8008,-4.0531,2.8482,5.018
9.318000,0.8928,-3.8203,3.0238,4.953
9.319000,1.0191,-3.5462,3.2566,4.921
9.319000,1.1819,-3.3057,3.5968,5.026
9.322000,1.1985,-3.2457,3.9918,5.283
9.326000,1.2170,-3.2643,4.3435,5.568
9.331000,1.2085,-3.3163,4.5826,5.784
9.336000,1.1935,-3.2897,4.6544,5.823
9.340000,1.2095,-3.1229,4.6096,5.698
9.346000,1.3182,-2.9209,4.5153,5.537
9.351000,1.3994,-2.6314,4.3573,5.279
9.356000,1.4799,-2.3742,4.2552,5.093
9.363000,1.6809,-2.1472,4.2330,5.035
9.367000,1.9234,-2.0037,4.2162,5.049
9.374000,2.1912,-1.9631,4.1928,5.122
9.376000,2.4157,-1.9467,4.1172,5.155
9.426000,2.5473,-2.0150,3.9294,5.098
9.427000,2.6194,-2.0600,3.5842,4.894
9.428000,2.6776,-2.1555,3.2133,4.705
9.428000,2.7531,-2.2147,2.8575,4.544
9.429000,2.7939,-2.2297,2.3804,4.295
9.429000,2.8146,-2.2284,1.9352,4.078
9.429000,2.8132,-2.2964,1.5577,3.951
9.430000,2.8645,-2.4018,1.2836,3.952
9.430000,2.8869,-2.4848,1.1391,3.976
9.431000,2.9214,-2.6002,0.9998,4.037
9.431000,2.9206,-2.6834,0.8008,4.046
9.435000,2.9107,-2.6794,0.6738,4.013
9.440000,2.9450,-2.6191,0.5971,3.986
9.447000,2.9617,-2.4741,0.4485,3.885
9.451000,2.8916,-2.2778,0.2280,3.688
9.455000,2.7847,-2.0450,-0.0785,3.456
9.460000,2.5570,-1.8212,-0.3249,3.156
9.464000,2.2782,-1.7025,-0.5188,2.891
9.470000,1.9388,-1.5862,-0.6984,2.601
9.475000,1.6390,-1.5064,-0.9091,2.405
9.488000,1.3023,-1.4749,-1.1677,2.288
9.492000,1.0045,-1.3743,-1.4045,2.207
9.493000,0.8049,-1.3218,-1.5979,2.225
9.561000,0.6507,-1.2334,-1.6977,2.197
9.563000,0.5728,-1.0827,-1.7422,2.130
9.566000,0.5303,-0.9368,-1.8056,2.102
9.567000,0.4751,-0.7890,-1.7682,1.994
9.567000,0.3453,-0.7255,-1.7930,1.965
9.568000,0.1863,-0.7179,-1.7937,1.941
9.568000,0.0318,-0.7543,-1.8899,2.035
9.569000,-0.0341,-0.7798,-1.9216,2.074
9.570000,-0.1384,-0.7845,-2.0417,2.192
9.570000,-0.2424,-0.8114,-2.1116,2.275
9.571000,-0.3316,-0.8625,-2.2676,2.449
9.572000,-0.3556,-0.8940,-2.4306,2.614
9.572000,-0.4312,-0.8768,-2.4980,2.682
9.573000,-0.5792,-0.8609,-2.5871,2.787
9.574000,-0.6724,-0.8749,-2.5619,2.789
9.575000,-0.7180,-0.8469,-2.5347,2.767
9.575000,-0.8144,-0.8871,-2.4410,2.722
9.579000,-0.9184,-0.9623,-2.3288,2.682
9.583000,-0.9942,-0.9889,-2.2363,2.640
9.589000,-1.0988,-0.9741,-2.1588,2.611
9.601000,-1.2300,-0.9300,-2.1393,2.637
9.602000,-1.3259,-0.8855,-2.1323,2.662
9.603000,-1.4298,-0.8834,-2.1232,2.708
9.613000,-1.4512,-0.8470,-2.1262,2.710
9.614000,-1.5074,-0.8029,-2.0052,2.634
9.644000,-1.5362,-0.7106,-1.8893,2.537
9.646000,-1.5665,-0.6325,-1.7618,2.441
9.646000,-1.5793,-0.5258,-1.6131,2.318
9.647000,-1.6273,-0.4818,-1.5031,2.267
9.647000,-1.7011,-0.4674,-1.3408,2.216
9.648000,-1.7866,-0.4806,-1.2579,2.237
9.649000,-1.8598,-0.5068,-1.1728,2.256
9.653000,-1.9494,-0.5151,-1.1670,2.330
9.658000,-2.0195,-0.5077,-1.1996,2.403
9.663000,-2.0631,-0.5467,-1.2491,2.473
9.668000,-2.0924,-0.6054,-1.3392,2.557
9.673000,-2.1123,-0.6000,-1.3718,2.589
9.678000,-2.1537,-0.6187,-1.4354,2.661
9.683000,-2.1018,-0.6662,-1.4224,2.624
9.687000,-2.0763,-0.6705,-1.4142,2.600
9.697000,-2.0126,-0.6962,-1.4011,2.549
9.698000,-1.9253,-0.6767,-1.3690,2.457
9.703000,-1.8261,-0.6551,-1.3153,2.344
9.708000,-1.7245,-0.6557,-1.3646,2.295
9.749000,-1.6278,-0.5991,-1.3613,2.205
9.750000,-1.4164,-0.5716,-1.4537,2.109
9.751000,-1.2023,-0.5111,-1.5509,2.028
9.751000,-1.0073,-0.4654,-1.6529,1.991
9.751000,-0.7541,-0.4032,-1.6857,1.890
9.751000,-0.5893,-0.3941,-1.7927,1.928
9.752000,-0.4507,-0.3135,-1.8543,1.934
9.752000,-0.3410,-0.2886,-1.8824,1.935
9.752000,-0.3225,-0.3264,-1.8984,1.953
9.758000,-0.2826,-0.3433,-1.8978,1.949
9.763000,-0.2622,-0.4184,-1.8828,1.946
9.767000,-0.2495,-0.4514,-1.8846,1.954
9.772000,-0.1801,-0.5165,-1.9366,2.012
9.777000,-0.0590,-0.5683,-1.9693,2.050
9.783000,0.0873,-0.5875,-2.0640,2.148
9.787000,0.1985,-0.5982,-2.2373,2.324
9.793000,0.2316,-0.6428,-2.4124,2.507
9.797000,0.2590,-0.7497,-2.5536,2.674
9.802000,0.3308,-0.8154,-2.7207,2.859
9.806000,0.4473,-0.8681,-2.9136,3.073
9.859000,0.6470,-0.9050,-3.1202,3.313
9.861000,0.8603,-0.9376,-3.1876,3.432
9.861000,1.0302,-0.9345,-3.1325,3.427
9.861000,1.2096,-0.9146,-3.0126,3.373
9.862000,1.3675,-0.8638,-2.8830,3.306
9.865000,1.5109,-0.8038,-2.7199,3.214
9.865000,1.6496,-0.7302,-2.5519,3.125
9.867000,1.8167,-0.6407,-2.3313,3.024
9.867000,1.8997,-0.5165,-2.1752,2.934
9.868000,1.9011,-0.4057,-2.0407,2.818
9.869000,1.9001,-0.3203,-1.8320,2.659
9.869000,1.8490,-0.2105,-1.6521,2.488
9.872000,1.7744,-0.2055,-1.3745,2.254
9.877000,1.7484,-0.2218,-1.0566,2.055
9.881000,1.6970,-0.2550,-0.6676,1.841
9.886000,1.6825,-0.2904,-0.2458,1.725
9.893000,1.6713,-0.2878,0.1753,1.705
9.897000,1.6316,-0.3240,0.5072,1.739
9.902000,1.5872,-0.4399,0.8530,1.855
9.906000,1.4471,-0.6210,1.1170,1.931
9.912000,1.2808,-0.8170,1.3303,2.019
9.916000,1.1100,-1.0159,1.4883,2.116
9.921000,0.9915,-1.2004,1.6174,2.245
9.934000,0.8657,-1.2813,1.6605,2.269
9.936000,0.6941,-1.3301,1.7158,2.279
9.937000,0.5653,-1.3868,1.8695,2.395
9.940000,0.4364,-1.4369,2.0472,2.539
9.995000,0.3312,-1.4155,2.2612,2.688
9.996000,0.3429,-1.3972,2.4777,2.865
9.997000,0.4042,-1.3680,2.7612,3.108
9.997000,0.4360,-1.2730,3.0832,3.364
9.998000,0.4574,-1.1606,3.4314,3.651
9.998000,0.4133,-1.0097,3.7317,3.888
9.998000,0.2631,-0.8757,3.9770,4.081
9.999000,0.0785,-0.7327,4.2125,4.276
9.999000,-0.1069,-0.5883,4.4192,4.459
10.000000,-0.2407,-0.5338,4.7047,4.741
10.000000,-0.3130,-0.5222,4.9919,5.029
10.001000,-0.3639,-0.6158,5.2928,5.341
10.007000,-0.2670,-0.7602,5.5593,5.617
10.015000,-0.0271,-0.8930,5.6863,5.756
10.015000,0.2906,-0.9714,5.5520,5.644
10.020000,0.5275,-1.0431,5.3196,5.447
10.025000,0.7526,-1.0882,5.0134,5.185
10.031000,1.0308,-1.0917,4.6717,4.907
10.035000,1.4168,-0.9909,4.3737,4.703
10.041000,1.7865,-0.8687,4.1817,4.630
10.050000,2.1664,-0.7869,3.9951,4.612
10.054000,2.5375,-0.6326,3.9192,4.712
10.056000,2.8047,-0.4822,3.9203,4.844
10.102000,3.0280,-0.3552,3.9958,5.026
10.102000,3.1386,-0.1489,4.0569,5.131
10.103000,3.1541,-0.0052,4.1323,5.198
10.103000,3.1297,0.1329,4.2215,5.257
10.103000,3.0134,0.2743,4.3173,5.272
10.104000,2.8604,0.3347,4.2998,5.175
10.104000,2.6992,0.4546,4.2170,5.027
10.104000,2.4651,0.5572,4.0043,4.735
10.105000,2.1794,0.5516,3.7912,4.408
10.105000,1.8684,0.5501,3.4795,3.988
10.110000,1.5627,0.5507,3.0888,3.505
10.115000,1.2571,0.5655,2.6790,3.013
10.119000,0.9969,0.5475,2.2886,2.556
10.124000,0.7410,0.5326,1.8461,2.059
10.133000,0.4915,0.5737,1.5525,1.726
10.134000,0.2004,0.5636,1.3168,1.446
10.139000,-0.0605,0.5717,1.0744,1.219
10.180000,-0.2961,0.5739,0.8852,1.096
10.180000,-0.4990,0.5658,0.7370,1.055
10.182000,-0.6956,0.5446,0.5702,1.051
10.182000,-0.8711,0.5367,0.4442,1.115
10.182000,-1.0254,0.4843,0.2467,1.161
10.183000,-1.2036,0.4188,0.1116,1.279
10.184000,-1.3580,0.2921,-0.0999,1.393
10.184000,-1.3856,0.2503,-0.3111,1.442
10.185000,-1.4058,0.1790,-0.6178,1.546
10.189000,-1.4216,0.1498,-0.9216,1.701
10.194000,-1.3494,0.1227,-1.2200,1.823
10.200000,-1.3355,0.0907,-1.4794,1.995
10.204000,-1.3011,0.0176,-1.7357,2.169
10.209000,-1.2477,-0.0434,-1.9198,2.290
10.215000,-1.1832,-0.1072,-2.1008,2.413
10.218000,-1.1053,-0.1854,-2.3410,2.595
10.224000,-1.1212,-0.1315,-2.6141,2.847
10.234000,-1.0774,-0.0967,-2.8961,3.091
10.235000,-1.0382,-0.1065,-3.1010,3.272
10.239000,-0.9606,-0.1370,-3.2839,3.424
10.269000,-0.9044,-0.1640,-3.4663,3.586
10.269000,-0.8600,-0.1439,-3.6124,3.716
10.270000,-0.8158,-0.0987,-3.6886,3.779
10.270000,-0.8382,-0.0758,-3.7956,3.888
10.270000,-0.8792,-0.1092,-3.8378,3.939
10.271000,-0.9190,-0.1342,-3.8322,3.943
10.273000,-0.9598,-0.1314,-3.8890,4.008
10.279000,-0.9779,-0.1372,-3.8669,3.991
10.283000,-0.9563,-0.2158,-3.8810,4.003
10.288000,-0.9692,-0.2838,-3.8834,4.013
10.293000,-0.9759,-0.3293,-3.8645,3.999
10.298000,-0.9908,-0.3904,-3.8340,3.979
10.303000,-1.0277,-0.4886,-3.8852,4.048
10.309000,-1.0842,-0.5161,-3.9057,4.086
10.314000,-1.0816,-0.5565,-3.9027,4.088
10.318000,-1.0651,-0.6623,-3.8643,4.063
10.324000,-1.0616,-0.7328,-3.8430,4.054
10.330000,-1.0398,-0.8471,-3.7742,4.005
10.333000,-0.9809,-0.9689,-3.6795,3.929
10.337000,-0.9499,-1.0051,-3.6041,3.860
10.394000,-0.9442,-0.9845,-3.5315,3.786
10.396000,-0.9189,-0.9932,-3.4278,3.685
10.396000,-0.9170,-1.0193,-3.3745,3.642
10.396000,-0.9293,-0.9744,-3.2926,3.557
10.397000,-0.9869,-0.9878,-3.1963,3.488
10.397000,-1.0422,-0.9588,-3.1430,3.447
10.398000,-1.0783,-0.8758,-3.0849,3.383
10.398000,-1.1313,-0.8271,-3.0147,3.325
10.398000,-1.1270,-0.7412,-2.8679,3.169
10.399000,-1.1345,-0.6779,-2.7548,3.055
10.399000,-1.1087,-0.5538,-2.6201,2.898
10.401000,-1.1235,-0.4698,-2.4927,2.774
10.405000,-1.1743,-0.4019,-2.3414,2.650
10.407000,-1.2155,-0.3506,-2.1808,2.521
10.413000,-1.2855,-0.2872,-2.0274,2.418
10.417000,-1.3363,-0.2430,-1.8838,2.322
10.423000,-1.3893,-0.2256,-1.7547,2.249
10.429000,-1.4063,-0.1750,-1.6187,2.151
10.432000,-1.3947,-0.1157,-1.5211,2.067
10.437000,-1.3783,-0.0907,-1.4548,2.006
10.442000,-1.4074,-0.0667,-1.4484,2.021
10.446000,-1.4702,-0.0102,-1.4109,2.038
10.453000,-1.4948,0.0454,-1.4357,2.073
10.458000,-1.4909,0.0545,-1.4294,2.066
10.464000,-1.4800,0.0625,-1.4326,2.061
10.467000,-1.4315,0.0955,-1.4908,2.069
10.472000,-1.3789,0.0842,-1.5154,2.051
10.476000,-1.3465,0.0455,-1.4943,2.012
10.532000,-1.3439,-0.0301,-1.5040,2.017
10.533000,-1.2821,-0.1040,-1.5352,2.003
10.534000,-1.1420,-0.2286,-1.4514,1.861
10.534000,-1.0122,-0.3703,-1.3222,1.706
10.534000,-0.8711,-0.5575,-1.1140,1.520
10.534000,-0.7304,-0.7113,-0.8679,1.339
10.534000,-0.6281,-0.9177,-0.5790,1.254
10.535000,-0.5264,-1.1335,-0.2593,1.276
10.535000,-0.4853,-1.3682,0.1081,1.456
10.535000,-0.3564,-1.5902,0.5518,1.720
10.535000,-0.2544,-1.8664,1.0046,2.135
10.537000,-0.1025,-2.1010,1.5168,2.593
10.542000,0.1140,-2.3324,2.0379,3.099
10.547000,0.3454,-2.5388,2.5007,3.580
10.552000,0.4560,-2.6629,2.8168,3.903
10.557000,0.6161,-2.7835,2.9980,4.137
10.562000,0.7629,-2.8138,3.0162,4.195
10.566000,0.8892,-2.8157,2.9911,4.203
10.571000,0.9977,-2.7311,2.9802,4.164
10.576000,1.1199,-2.5647,2.9403,4.059
10.623000,1.2635,-2.3638,2.9239,3.966
10.624000,1.4165,-2.0978,3.0386,3.955
10.624000,1.5931,-1.8553,3.2365,4.056
10.625000,1.7642,-1.5913,3.4722,4.207
10.625000,1.8671,-1.4169,3.8078,4.471
10.626000,1.8581,-1.3637,4.2745,4.856
10.626000,1.8154,-1.5524,4.9130,5.463
10.626000,1.7556,-1.9307,5.5866,6.166
10.627000,1.7307,-2.3513,6.1328,6.792
10.627000,1.7661,-2.7024,6.3893,7.159
10.634000,1.8968,-2.8621,6.3639,7.231
10.636000,1.9642,-2.7927,6.0689,6.963
10.641000,2.0541,-2.6565,5.4692,6.418
10.646000,2.2084,-2.4598,4.7232,5.765
10.651000,2.3073,-2.2330,4.1039,5.211
10.665000,2.3806,-1.9654,3.6014,4.743
10.666000,2.4800,-1.7838,3.2319,4.447
10.667000,2.5658,-1.7286,2.9854,4.299
10.669000,2.7511,-1.7021,2.7873,4.270
10.674000,2.8709,-1.6353,2.5419,4.169
10.718000,2.9157,-1.5905,2.2445,4.009
10.719000,2.9698,-1.6012,2.0072,3.926
10.719000,2.9308,-1.5766,1.6291,3.705
10.719000,2.8678,-1.5951,1.2778,3.522
10.720000,2.8074,-1.6060,0.9510,3.371
10.720000,2.8047,-1.6039,0.6605,3.298
10.720000,2.8573,-1.6005,0.4949,3.312
10.720000,3.0181,-1.6290,0.4157,3.455
10.721000,3.1767,-1.5746,0.3056,3.559
10.726000,3.3262,-1.4899,0.1503,3.648
10.729000,3.3901,-1.3946,0.0454,3.666
10.735000,3.4238,-1.2789,-0.1430,3.658
10.741000,3.3704,-1.1595,-0.3100,3.578
10.746000,3.2706,-0.9862,-0.5056,3.453
10.750000,3.0890,-0.8166,-0.5817,3.248
10.754000,2.8519,-0.5786,-0.5671,2.965
10.762000,2.5859,-0.3541,-0.6151,2.682
10.765000,2.2570,-0.1791,-0.5581,2.332
10.769000,1.8628,-0.0397,-0.4750,1.923
10.774000,1.4818,0.1474,-0.4138,1.545
10.808000,1.0752,0.2860,-0.2978,1.152
10.809000,0.7289,0.4093,-0.2632,0.876
10.809000,0.5284,0.5146,-0.2812,0.789
10.810000,0.3939,0.6397,-0.3086,0.812
10.810000,0.2348,0.7152,-0.3813,0.844
10.811000,0.0083,0.7959,-0.5257,0.954
10.811000,-0.1920,0.8198,-0.6294,1.051
10.814000,-0.3427,0.8686,-0.7688,1.210
10.819000,-0.4464,0.8900,-0.9269,1.360
10.823000,-0.5486,0.8794,-1.0296,1.461
10.829000,-0.6226,0.9015,-1.0746,1.535
10.834000,-0.6659,0.9135,-1.1243,1.594
10.838000,-0.7689,0.9152,-1.1357,1.649
10.844000,-0.8335,0.9189,-1.1281,1.677
10.849000,-0.9195,0.8933,-1.1062,1.693
10.853000,-1.0002,0.8501,-1.0847,1.703
10.858000,-1.0726,0.8420,-1.0613,1.728
10.863000,-1.1152,0.8377,-1.0696,1.758
10.869000,-1.2427,0.8205,-1.0832,1.841
10.874000,-1.3928,0.8119,-1.1214,1.964
10.882000,-1.5221,0.8118,-1.1698,2.084
10.884000,-1.6595,0.7464,-1.1710,2.164
10.888000,-1.8403,0.6682,-1.1779,2.285
10.928000,-1.9880,0.6157,-1.2405,2.423
10.930000,-2.0981,0.5509,-1.2631,2.510
10.930000,-2.1801,0.4806,-1.2362,2.552
10.931000,-2.2534,0.4531,-1.2674,2.625
10.931000,-2.3206,0.4085,-1.3277,2.705
10.931000,-2.3937,0.3611,-1.3741,2.784
10.932000,-2.4057,0.2920,-1.4305,2.814
10.932000,-2.4645,0.2013,-1.4945,2.889
10.934000,-2.4601,0.1635,-1.5012,2.887
10.939000,-2.4311,0.1070,-1.5416,2.881
10.943000,-2.4423,0.0008,-1.5461,2.891
10.948000,-2.4026,-0.0688,-1.5435,2.857
10.954000,-2.2671,-0.1016,-1.5241,2.734
10.959000,-2.1289,-0.0474,-1.5238,2.618
10.964000,-2.0099,0.0004,-1.4922,2.503
10.969000,-1.9390,0.0058,-1.3840,2.382
10.974000,-1.8679,-0.0099,-1.2830,2.266
10.980000,-1.8230,-0.0203,-1.2036,2.185
10.983000,-1.7846,-0.0640,-1.1198,2.108
10.987000,-1.7621,-0.0550,-0.9837,2.019
11.033000,-1.7057,-0.0986,-0.9579,1.959
11.034000,-1.5770,-0.0632,-0.9418,1.838
11.034000,-1.4697,-0.0400,-0.9378,1.744
11.034000,-1.3960,-0.0335,-0.8597,1.640
11.035000,-1.2624,-0.0368,-0.8463,1.520
11.035000,-1.1814,0.0072,-0.8306,1.444
11.035000,-1.0859,0.0483,-0.8319,1.369
11.036000,-0.9667,0.0650,-0.8547,1.292
11.036000,-0.7857,0.1096,-0.8894,1.192
11.037000,-0.6174,0.0959,-0.8930,1.090
11.044000,-0.4905,0.1221,-0.8679,1.004
11.047000,-0.2831,0.1137,-0.8237,0.878
11.052000,-0.0409,0.1734,-0.7795,0.800
11.058000,0.1547,0.2175,-0.8094,0.852
11.062000,0.3083,0.2071,-0.8944,0.968
11.068000,0.4534,0.2167,-1.0079,1.126
11.071000,0.5613,0.2003,-1.1643,1.308
11.077000,0.6417,0.2255,-1.3157,1.481
11.082000,0.7160,0.2423,-1.4979,1.678
11.087000,0.7533,0.2962,-1.7061,1.888
11.093000,0.8108,0.2917,-1.7750,1.973
11.102000,0.8050,0.3082,-1.9776,2.157
11.103000,0.8531,0.3100,-2.1749,2.357
11.108000,0.8974,0.2540,-2.2280,2.415
11.149000,0.9644,0.2414,-2.3477,2.550
11.150000,1.0425,0.2408,-2.4310,2.656
11.150000,1.1270,0.2451,-2.4470,2.705
11.151000,1.2131,0.3021,-2.3791,2.688
11.151000,1.2580,0.2943,-2.3471,2.679
11.152000,1.3314,0.3009,-2.3962,2.758
11.152000,1.3495,0.2910,-2.4022,2.771
11.152000,1.3651,0.3028,-2.4152,2.791
11.153000,1.4428,0.2671,-2.2847,2.715
11.158000,1.5115,0.2173,-2.0326,2.542
11.162000,1.5261,0.1434,-1.7882,2.355
11.167000,1.5325,-0.0140,-1.6187,2.229
11.173000,1.4927,-0.1931,-1.4189,2.069
11.177000,1.5094,-0.3915,-1.2079,1.972
11.182000,1.4703,-0.6446,-1.0000,1.891
11.186000,1.4140,-0.8637,-0.7331,1.812
11.191000,1.3787,-1.1200,-0.4574,1.834
11.197000,1.3121,-1.3966,-0.1299,1.921
11.201000,1.2930,-1.6525,0.2447,2.112
11.207000,1.3448,-1.9065,0.7358,2.446
11.213000,1.3839,-2.0965,1.1711,2.772
11.217000,1.4146,-2.2295,1.5532,3.063
11.221000,1.4772,-2.3105,1.8488,3.307
11.226000,1.4964,-2.3967,2.0489,3.490
