time,ax,ay,az,aT
11.217000,1.4598,-0.0510,-2.6176,2.998
11.222000,1.4719,-0.0476,-2.5733,2.965
11.227000,1.5013,0.0261,-2.5506,2.960
11.232000,1.5696,0.0744,-2.4348,2.898
11.246000,1.6151,0.2074,-2.2954,2.814
11.249000,1.6258,0.3107,-2.1659,2.726
11.249000,1.6211,0.3910,-2.1253,2.701
11.261000,1.5960,0.4224,-2.0539,2.635
11.262000,1.5408,0.4451,-1.9611,2.533
11.262000,1.4695,0.4325,-1.8612,2.411
11.297000,1.3774,0.4234,-1.6849,2.217
11.299000,1.2669,0.4122,-1.5161,2.018
11.299000,1.2428,0.4564,-1.3282,1.875
11.300000,1.2690,0.5226,-1.2359,1.847
11.301000,1.2322,0.5601,-1.1578,1.781
11.301000,1.1825,0.6290,-0.9764,1.658
11.302000,1.1655,0.6644,-0.7350,1.530
11.307000,1.1526,0.6493,-0.4720,1.405
11.308000,1.1680,0.6365,-0.1661,1.341
11.311000,1.1830,0.6013,0.0656,1.329
11.318000,1.2333,0.5322,0.2088,1.359
11.321000,1.2948,0.4720,0.3760,1.428
11.326000,1.3459,0.4204,0.5027,1.497
11.332000,1.3844,0.3711,0.7061,1.598
11.337000,1.4102,0.3356,0.8640,1.688
11.344000,1.4306,0.2883,1.0388,1.791
11.347000,1.4986,0.2267,1.2184,1.945
11.353000,1.5425,0.1841,1.4171,2.103
11.398000,1.6201,0.1590,1.5081,2.219
11.400000,1.6664,0.0716,1.6709,2.361
11.400000,1.7364,-0.0032,1.8026,2.503
11.401000,1.8039,-0.0415,1.9321,2.644
11.402000,1.9141,-0.0054,2.1645,2.889
11.408000,2.0123,0.0338,2.4518,3.172
11.409000,2.0843,0.0587,2.7294,3.435
11.410000,2.1637,0.0813,3.0712,3.758
11.411000,2.2409,0.0338,3.4245,4.093
11.411000,2.1941,-0.0072,3.7295,4.327
11.412000,2.2290,0.0160,4.0245,4.601
11.413000,2.2812,-0.0001,4.3740,4.933
11.416000,2.3246,-0.0034,4.6365,5.187
11.423000,2.3639,-0.0870,4.8959,5.437
11.426000,2.4351,-0.1055,5.0516,5.609
11.430000,2.5308,-0.1857,5.2067,5.792
11.435000,2.6195,-0.2369,5.3301,5.944
11.440000,2.7106,-0.3243,5.3716,6.026
11.445000,2.8656,-0.4979,5.3530,6.092
11.450000,3.0273,-0.6600,5.2670,6.111
11.456000,3.0782,-0.8558,5.2214,6.121
11.460000,3.1161,-1.0158,5.0490,6.020
11.465000,3.1527,-1.2017,4.7788,5.850
11.470000,3.1519,-1.3577,4.5259,5.680
11.496000,3.1499,-1.5024,4.2233,5.479
11.497000,3.2374,-1.5157,4.0554,5.406
11.497000,3.2832,-1.4667,3.8666,5.280
11.498000,3.3089,-1.4535,3.6593,5.143
11.498000,3.3501,-1.4041,3.5842,5.103
11.500000,3.2831,-1.2950,3.4401,4.929
11.506000,3.1581,-1.1504,3.3227,4.726
11.510000,2.9992,-1.0088,3.1602,4.472
11.515000,2.8544,-0.8373,2.9811,4.211
11.521000,2.6397,-0.6411,2.8238,3.918
11.524000,2.2688,-0.6165,2.6117,3.514
11.530000,1.7372,-0.7304,2.4620,3.100
11.536000,1.1408,-0.8946,2.2836,2.705
11.540000,0.5686,-1.1378,2.0262,2.392
11.545000,0.0801,-1.3598,1.6730,2.157
11.550000,-0.3460,-1.5702,1.3151,2.077
11.558000,-0.7211,-1.7662,0.8064,2.071
11.559000,-0.9577,-1.9284,0.2671,2.170
11.564000,-1.0679,-2.0922,-0.1976,2.357
11.569000,-1.1163,-2.3382,-0.6497,2.671
11.603000,-1.1991,-2.5555,-1.0888,3.026
11.605000,-1.3041,-2.6907,-1.5222,3.355
11.606000,-1.3697,-2.7677,-1.9089,3.630
11.606000,-1.4717,-2.7473,-2.2107,3.821
11.606000,-1.5394,-2.6599,-2.5094,3.968
11.607000,-1.6036,-2.4548,-2.8458,4.086
11.607000,-1.6155,-2.1890,-3.0358,4.077
11.609000,-1.6016,-1.8622,-3.1060,3.960
11.614000,-1.5665,-1.5823,-3.0780,3.799
11.619000,-1.5287,-1.2896,-2.8688,3.497
11.624000,-1.4187,-0.9967,-2.4522,3.003
11.629000,-1.2959,-0.7024,-1.9248,2.424
11.635000,-1.2562,-0.4512,-1.3944,1.930
11.639000,-1.2254,-0.2730,-0.8804,1.533
11.645000,-1.2850,-0.1405,-0.3879,1.350
11.649000,-1.3873,-0.0356,-0.0460,1.389
11.654000,-1.4706,-0.0068,0.1334,1.477
11.659000,-1.5756,-0.0425,0.1745,1.586
11.664000,-1.5713,-0.1282,0.1470,1.583
11.669000,-1.6112,-0.2422,0.0298,1.630
11.674000,-1.6169,-0.3721,-0.2224,1.674
11.678000,-1.5680,-0.5746,-0.5751,1.766
11.684000,-1.5247,-0.7774,-0.9228,1.944
11.696000,-1.4946,-0.9365,-1.2747,2.176
11.697000,-1.4063,-1.0747,-1.7117,2.462
11.699000,-1.3821,-1.1463,-2.0949,2.759
11.705000,-1.2738,-1.2055,-2.4026,2.975
11.756000,-1.1679,-1.2396,-2.7326,3.220
11.757000,-1.1098,-1.2462,-3.0109,3.442
11.758000,-0.9937,-1.2319,-3.1682,3.542
11.759000,-0.8624,-1.2111,-3.3101,3.629
11.759000,-0.7082,-1.1120,-3.4630,3.705
11.760000,-0.4875,-1.0349,-3.5244,3.705
11.761000,-0.2432,-0.9751,-3.5734,3.712
11.762000,0.0038,-0.8634,-3.6557,3.756
11.763000,0.2800,-0.7669,-3.6303,3.721
11.763000,0.5285,-0.6711,-3.6219,3.721
11.764000,0.7834,-0.5194,-3.5232,3.646
11.765000,0.9749,-0.4124,-3.5278,3.683
11.769000,1.1431,-0.3790,-3.5470,3.746
11.775000,1.2114,-0.4077,-3.6358,3.854
11.779000,1.2113,-0.3932,-3.6866,3.900
11.784000,1.1647,-0.4286,-3.7594,3.959
11.791000,1.0651,-0.4826,-3.9570,4.126
11.793000,0.9268,-0.4734,-4.1693,4.297
11.798000,0.7403,-0.4700,-4.4296,4.516
11.803000,0.5483,-0.4642,-4.6969,4.752
11.854000,0.3597,-0.4294,-4.9254,4.957
11.855000,0.2005,-0.3531,-5.0983,5.114
11.856000,0.1108,-0.2970,-5.1102,5.120
11.856000,0.0502,-0.2061,-4.9851,4.990
11.856000,0.0186,-0.0803,-4.6922,4.693
11.857000,-0.0011,0.0127,-4.3345,4.335
11.857000,0.0681,0.1611,-3.9457,3.950
11.857000,0.1706,0.3426,-3.5450,3.566
11.858000,0.2248,0.4511,-3.2089,3.248
11.858000,0.2591,0.5438,-2.8966,2.959
11.858000,0.2761,0.6465,-2.6010,2.694
11.863000,0.2925,0.7398,-2.2839,2.418
11.868000,0.3613,0.8233,-2.0340,2.224
11.872000,0.4325,0.8946,-1.7868,2.044
11.877000,0.5136,0.9778,-1.5328,1.889
11.883000,0.6191,1.0414,-1.3558,1.818
11.900000,0.9284,1.2172,-0.4379,1.592
11.900000,0.9415,1.2417,-0.4373,1.618
11.901000,0.9556,1.2654,-0.4371,1.645
11.903000,0.9639,1.3624,-0.1912,1.680
11.907000,0.9156,1.3934,-0.0131,1.667
11.913000,0.8228,1.3875,0.0568,1.614
11.918000,0.7258,1.4090,0.1239,1.590
11.965000,0.6409,1.3980,0.1739,1.548
11.966000,0.5635,1.3788,0.3025,1.520
11.966000,0.4549,1.3056,0.3041,1.416
11.966000,0.3365,1.2531,0.3343,1.340
11.966000,0.2815,1.2306,0.2787,1.293
11.967000,0.2560,1.1977,0.2355,1.247
11.967000,0.2454,1.2049,0.2192,1.249
11.967000,0.2445,1.1874,0.2347,1.235
11.968000,0.2532,1.1597,0.2891,1.222
11.968000,0.2574,1.1003,0.3727,1.190
11.976000,0.2518,1.0593,0.5383,1.215
11.977000,0.3129,0.9937,0.5967,1.201
11.983000,0.4242,0.9727,0.6748,1.258
11.987000,0.4803,0.9081,0.7128,1.250
11.992000,0.5606,0.8503,0.8542,1.329
11.996000,0.7180,0.8209,1.0964,1.546
12.001000,0.8912,0.8702,1.3265,1.820
12.009000,1.1713,0.9693,1.4679,2.113
12.012000,1.4339,1.0557,1.5327,2.349
12.016000,1.6691,1.0767,1.5520,2.521
12.064000,1.8508,1.0322,1.6765,2.702
12.065000,1.9605,1.0060,1.8294,2.864
12.065000,1.9697,0.9194,1.8409,2.848
12.065000,1.9408,0.8492,1.7494,2.747
12.066000,1.9478,0.7982,1.6340,2.665
12.066000,1.9236,0.7478,1.5549,2.584
12.066000,1.9400,0.6674,1.5312,2.560
12.066000,2.0136,0.6220,1.5175,2.597
12.067000,2.0226,0.6211,1.5304,2.611
12.067000,2.0719,0.5693,1.6228,2.693
12.071000,2.1636,0.5739,1.7084,2.816
12.076000,2.2185,0.5676,1.8687,2.956
12.080000,2.3518,0.5505,2.0388,3.161
12.086000,2.4411,0.5365,2.2977,3.395
12.090000,2.5250,0.5396,2.6115,3.672
12.095000,2.6107,0.5522,2.8534,3.907
12.101000,2.7196,0.5405,2.9805,4.071
12.107000,2.7702,0.5931,3.0024,4.128
12.110000,2.7936,0.6166,2.9146,4.084
12.116000,2.8184,0.6781,2.8105,4.038
12.120000,2.8711,0.7159,2.7070,4.010
12.162000,2.8564,0.7994,2.5465,3.909
12.163000,2.8553,0.9172,2.4514,3.873
12.163000,2.9036,1.0500,2.3642,3.889
12.163000,2.9124,1.2267,2.3042,3.911
12.164000,2.8747,1.3827,2.2666,3.913
12.165000,2.7861,1.5772,2.2965,3.940
12.165000,2.5964,1.7502,2.3268,3.901
12.166000,2.4114,1.9368,2.3836,3.905
12.166000,2.2361,2.1868,2.4186,3.954
12.170000,2.0775,2.3271,2.5299,4.016
12.174000,1.9386,2.4814,2.6546,4.119
12.179000,1.7835,2.6183,2.6635,4.139
12.185000,1.6197,2.6988,2.6783,4.133
12.190000,1.4591,2.7802,2.6537,4.111
12.195000,1.3427,2.8071,2.5343,4.013
12.199000,1.2558,2.7868,2.3730,3.870
12.204000,1.0785,2.6424,2.1556,3.577
12.209000,0.9805,2.4579,1.9588,3.292
12.214000,0.8493,2.2980,1.6942,2.979
12.219000,0.7517,2.1389,1.3739,2.651
12.224000,0.6878,1.9956,0.8881,2.290
12.229000,0.5900,1.8850,0.4527,2.026
12.234000,0.5231,1.7624,0.0820,1.840
12.270000,0.5278,1.6574,-0.2573,1.758
12.271000,0.4653,1.5531,-0.5485,1.712
12.272000,0.3575,1.3858,-0.7365,1.610
12.272000,0.2567,1.2561,-0.9385,1.589
12.272000,0.2161,1.1496,-0.9562,1.511
12.273000,0.1596,0.9950,-0.9358,1.375
12.273000,0.0775,0.8586,-0.9469,1.281
12.275000,0.0037,0.7170,-0.8962,1.148
12.279000,-0.1527,0.5817,-0.9344,1.111
12.284000,-0.2789,0.4312,-0.9588,1.088
12.289000,-0.3725,0.3234,-1.0029,1.118
12.294000,-0.4526,0.1599,-1.0379,1.143
12.298000,-0.5785,0.0682,-0.9946,1.153
12.304000,-0.6785,0.0191,-0.9927,1.203
12.308000,-0.7979,-0.0875,-0.9773,1.265
12.314000,-0.9273,-0.1102,-1.0318,1.392
12.318000,-1.1171,-0.1188,-1.1155,1.583
12.323000,-1.2665,-0.1346,-1.1830,1.738
12.329000,-1.3968,-0.1932,-1.2608,1.892
12.334000,-1.5632,-0.2255,-1.3655,2.088
12.344000,-1.6895,-0.2548,-1.5087,2.279
12.345000,-1.8115,-0.3245,-1.6021,2.440
12.353000,-1.9077,-0.3481,-1.6577,2.551
12.355000,-1.9641,-0.3634,-1.7110,2.630
12.404000,-2.0001,-0.3206,-1.7813,2.697
12.406000,-2.0377,-0.3054,-1.8276,2.754
12.406000,-2.0674,-0.3112,-1.8379,2.784
12.406000,-2.0540,-0.2973,-1.7858,2.738
12.407000,-2.0577,-0.3283,-1.6975,2.688
12.407000,-1.9923,-0.3544,-1.5946,2.576
12.408000,-1.9347,-0.4998,-1.5009,2.499
12.409000,-1.9163,-0.5475,-1.4115,2.442
12.409000,-1.9107,-0.5738,-1.3887,2.431
12.409000,-1.8916,-0.5954,-1.3773,2.414
12.410000,-1.7988,-0.6776,-1.3656,2.358
12.413000,-1.6610,-0.7454,-1.3225,2.250
12.418000,-1.4447,-0.8021,-1.3222,2.116
12.422000,-1.2770,-0.9288,-1.3048,2.048
12.428000,-1.0835,-1.0534,-1.3613,2.034
12.432000,-0.8971,-1.1548,-1.3531,1.992
12.442000,-0.6720,-1.2922,-1.3450,1.982
12.443000,-0.4892,-1.4086,-1.3634,2.020
12.447000,-0.3106,-1.5249,-1.3916,2.088
12.452000,-0.1673,-1.6647,-1.4629,2.222
12.488000,-0.0571,-1.8212,-1.5173,2.371
12.489000,0.0561,-1.9815,-1.6219,2.561
12.490000,0.1506,-2.2003,-1.7169,2.795
12.490000,0.2005,-2.3936,-1.8072,3.006
12.490000,0.2724,-2.5271,-1.8542,3.146
12.491000,0.3707,-2.6729,-1.9322,3.319
12.491000,0.4381,-2.7898,-1.9502,3.432
12.492000,0.5555,-2.8654,-1.8484,3.455
12.497000,0.6566,-2.8956,-1.7110,3.427
12.502000,0.7649,-2.9470,-1.5546,3.419
12.507000,0.8297,-3.0172,-1.4387,3.444
12.512000,0.8656,-3.0301,-1.2679,3.397
12.517000,0.8411,-3.0573,-1.1544,3.374
12.523000,0.8282,-3.0920,-1.0145,3.358
12.527000,0.8339,-3.0859,-0.8363,3.304
12.532000,0.9205,-3.0658,-0.6414,3.265
12.550000,0.9852,-3.0151,-0.4202,3.200
12.553000,1.0755,-2.9650,-0.2541,3.164
12.555000,1.1462,-2.9498,-0.0928,3.166
12.555000,1.1848,-2.9407,0.0447,3.171
12.603000,1.2060,-2.9665,0.1322,3.205
12.604000,1.2146,-3.0682,0.2341,3.308
12.605000,1.2730,-3.1112,0.3719,3.382
12.605000,1.3574,-3.1461,0.4977,3.462
12.605000,1.4746,-3.2184,0.6451,3.598
12.606000,1.6846,-3.1917,0.7255,3.681
12.606000,1.8273,-3.2335,0.8106,3.802
12.606000,2.0034,-3.3130,1.0342,4.007
12.607000,2.1607,-3.4036,1.1449,4.191
12.607000,2.3756,-3.5054,1.2362,4.411
12.609000,2.4903,-3.6805,1.3272,4.638
12.612000,2.6224,-3.8186,1.3938,4.837
12.617000,2.7455,-3.9075,1.4672,4.996
12.621000,2.8215,-3.9708,1.4851,5.093
12.628000,2.8937,-3.9630,1.5002,5.131
12.631000,2.9336,-3.9629,1.5052,5.155
12.637000,2.9649,-3.9513,1.5050,5.164
12.642000,2.9728,-3.9830,1.5405,5.203
12.647000,2.9671,-3.9574,1.6378,5.210
12.652000,2.9480,-3.9274,1.6941,5.195
12.657000,2.8744,-3.9243,1.7717,5.177
12.662000,2.8158,-3.9502,1.7964,5.173
12.665000,2.7573,-3.9575,1.9456,5.201
12.711000,2.6986,-3.9537,2.0565,5.210
12.712000,2.5920,-3.9432,2.1818,5.199
12.712000,2.5568,-3.9383,2.2259,5.196
12.713000,2.4971,-3.8721,2.3111,5.155
12.713000,2.4364,-3.7901,2.3680,5.090
12.713000,2.3409,-3.7790,2.5547,5.127
12.714000,2.3137,-3.8243,2.7847,5.266
12.714000,2.2427,-3.7997,2.9169,5.289
12.715000,2.1612,-3.8204,3.0351,5.336
12.715000,2.0212,-3.8985,3.1131,5.383
12.722000,1.8084,-3.9872,3.1605,5.400
12.727000,1.5638,-4.1151,3.1079,5.389
12.730000,1.2588,-4.2370,2.9121,5.293
12.735000,0.9608,-4.2737,2.5663,5.077
12.740000,0.6481,-4.2682,2.1327,4.815
12.745000,0.3755,-4.2275,1.7216,4.580
12.751000,0.1835,-4.1606,1.2421,4.346
12.755000,0.0771,-4.0338,0.8043,4.114
12.760000,-0.0158,-3.8945,0.4368,3.919
12.765000,-0.0617,-3.7233,0.0632,3.724
12.770000,-0.0461,-3.4964,-0.3119,3.511
12.778000,0.0066,-3.2181,-0.6382,3.281
12.780000,0.0463,-2.9844,-0.8103,3.093
12.833000,0.0801,-2.7356,-0.9720,2.904
12.834000,0.1987,-2.5123,-1.0564,2.733
12.835000,0.3208,-2.2652,-1.0252,2.507
12.837000,0.3505,-2.0350,-0.9863,2.288
12.838000,0.4267,-1.8178,-0.9420,2.091
12.839000,0.4468,-1.6261,-0.9286,1.925
12.839000,0.5115,-1.4193,-0.9220,1.768
12.840000,0.5873,-1.2194,-0.9606,1.660
12.841000,0.6598,-0.9447,-1.0062,1.530
12.841000,0.7108,-0.6795,-1.1141,1.486
12.842000,0.7792,-0.5004,-1.2509,1.556
12.843000,0.6570,-0.2923,-1.3689,1.546
12.845000,0.5500,-0.1392,-1.5543,1.655
12.849000,0.5135,-0.0718,-1.7663,1.841
12.856000,0.4257,0.0033,-1.9404,1.987
12.859000,0.2818,0.0456,-2.1222,2.141
12.864000,0.0890,0.0413,-2.3115,2.314
12.870000,-0.1524,0.0718,-2.4320,2.438
12.874000,-0.3684,0.0538,-2.5456,2.573
12.879000,-0.6474,0.0188,-2.5760,2.656
12.885000,-0.9178,-0.0094,-2.6737,2.827
12.929000,-1.1536,-0.0637,-2.7549,2.987
12.929000,-1.1518,-0.0531,-2.7500,2.982
12.930000,-1.2713,-0.0446,-2.7502,3.030
12.930000,-1.3068,-0.0331,-2.7598,3.054
12.931000,-1.3184,-0.0139,-2.7718,3.069
12.931000,-1.2849,0.0131,-2.7882,3.070
12.932000,-1.2805,0.0718,-2.8068,3.086
12.932000,-1.2816,0.1358,-2.8106,3.092
12.932000,-1.3120,0.2101,-2.8211,3.118
12.934000,-1.3118,0.2921,-2.7644,3.074
12.939000,-1.2739,0.4006,-2.5161,2.849
12.944000,-1.1758,0.5737,-2.2037,2.563
12.949000,-1.1272,0.7223,-2.0834,2.476
12.954000,-1.0928,0.8271,-1.9825,2.410
12.959000,-1.0968,0.9017,-1.9273,2.394
12.964000,-1.1032,0.9199,-1.9298,2.406
12.968000,-1.1092,0.9102,-1.9590,2.428
12.973000,-1.1721,0.8223,-2.0245,2.480
12.979000,-1.2489,0.7476,-2.1429,2.590
12.983000,-1.2511,0.7174,-2.2901,2.706
12.999000,-1.2076,0.6247,-2.5258,2.868
13.001000,-1.1738,0.5825,-2.7516,3.048
13.002000,-1.1239,0.5363,-2.8859,3.143
13.004000,-1.0194,0.5154,-2.9574,3.170
13.053000,-0.9493,0.5150,-2.9709,3.161
13.053000,-0.8535,0.5376,-2.8930,3.064
13.054000,-0.7603,0.4969,-2.7528,2.899
13.054000,-0.6622,0.4622,-2.5672,2.691
13.054000,-0.5352,0.5767,-2.4343,2.558
13.055000,-0.3820,0.6201,-2.2872,2.400
13.055000,-0.2406,0.6926,-2.1427,2.265
13.055000,-0.1495,0.7797,-1.9695,2.123
13.056000,-0.1156,0.8451,-1.7633,1.959
13.056000,-0.0810,0.8699,-1.5982,1.821
13.058000,-0.0435,0.8966,-1.5363,1.779
13.063000,0.0132,0.9061,-1.5202,1.770
13.068000,0.0318,0.9227,-1.5734,1.824
13.074000,0.0097,0.9011,-1.6552,1.885
13.077000,0.0808,0.9065,-1.6555,1.889
13.082000,0.1685,0.9630,-1.6387,1.908
13.090000,0.2489,0.9963,-1.5572,1.865
13.093000,0.3408,1.0883,-1.4013,1.807
13.098000,0.4755,1.1475,-1.2931,1.793
13.103000,0.5596,1.2339,-1.1417,1.772
13.146000,0.6172,1.3015,-0.8683,1.682
13.147000,0.6913,1.3264,-0.6931,1.649
13.147000,0.7890,1.3751,-0.4630,1.652
13.148000,0.8168,1.4094,-0.1756,1.638
13.148000,0.8323,1.5077,0.0302,1.722
13.148000,0.8163,1.6388,0.1904,1.841
13.148000,0.7856,1.7280,0.3409,1.929
13.148000,0.7926,1.8210,0.4816,2.044
13.149000,0.7608,1.8743,0.6412,2.122
13.153000,0.6833,1.8831,0.7312,2.132
13.157000,0.5648,1.8426,0.8783,2.118
13.163000,0.4342,1.8055,1.0250,2.121
13.168000,0.3061,1.7816,1.1808,2.159
13.173000,0.2858,1.7899,1.3003,2.231
13.177000,0.2226,1.7944,1.3403,2.251
13.182000,0.1474,1.7953,1.3730,2.265
13.187000,0.1198,1.7903,1.4437,2.303
13.192000,0.1065,1.7172,1.5332,2.305
13.197000,0.1171,1.6433,1.5674,2.274
13.201000,0.1849,1.5589,1.6683,2.291
13.227000,0.2212,1.4713,1.8097,2.343
13.228000,0.2453,1.3757,1.8503,2.319
13.228000,0.2400,1.2843,1.9412,2.340
13.229000,0.1767,1.2096,2.0179,2.359
13.229000,0.0984,1.2210,2.1115,2.441
13.231000,0.0506,1.2040,2.1360,2.452
13.236000,0.0306,1.2041,2.2136,2.520
13.241000,0.0124,1.1902,2.3345,2.620
13.246000,0.0105,1.1048,2.5344,2.765
13.251000,0.1160,0.9744,2.7294,2.900
13.257000,0.2139,0.8512,2.9936,3.120
13.261000,0.3211,0.7543,3.2073,3.310
13.266000,0.5332,0.6689,3.4040,3.510
13.272000,0.7211,0.5854,3.5931,3.711
13.276000,0.8803,0.4966,3.7722,3.905
13.281000,0.9682,0.3953,3.9196,4.057
13.286000,1.1402,0.2794,3.9923,4.161
13.291000,1.2980,0.1609,4.0719,4.277
13.296000,1.4417,0.0258,4.0867,4.334
13.301000,1.5569,-0.1473,4.0606,4.351
13.311000,1.6154,-0.2885,4.0965,4.413
13.312000,1.7558,-0.3785,4.0797,4.458
13.316000,1.9274,-0.4578,4.0392,4.499
13.367000,2.0797,-0.5120,3.9846,4.524
13.368000,2.2152,-0.5983,3.9541,4.572
13.369000,2.2932,-0.6664,3.8500,4.530
13.369000,2.3017,-0.7018,3.7081,4.420
13.369000,2.3102,-0.6780,3.5859,4.319
13.370000,2.4260,-0.6142,3.4119,4.231
13.371000,2.5320,-0.4889,3.1764,4.091
13.372000,2.6471,-0.2640,2.9346,3.961
13.372000,2.7951,-0.0402,2.6914,3.880
13.372000,2.8778,0.1992,2.3989,3.752
13.373000,2.9597,0.4731,2.1265,3.675
13.376000,3.0459,0.7046,1.9675,3.694
13.380000,3.1169,1.0010,1.8067,3.739
13.385000,3.1994,1.2997,1.6608,3.832
13.390000,3.3627,1.6285,1.5367,4.040
13.395000,3.4823,1.9253,1.4559,4.237
13.400000,3.6012,2.2059,1.3823,4.444
13.407000,3.6885,2.5172,1.3227,4.657
13.410000,3.7347,2.6554,1.2387,4.747
13.415000,3.7944,2.6772,1.1063,4.774
13.459000,3.8436,2.6017,0.9974,4.747
13.460000,3.7767,2.4311,0.8188,4.566
13.461000,3.7087,2.2612,0.5728,4.381
13.461000,3.5584,2.0968,0.3074,4.142
13.462000,3.3499,1.9023,0.0203,3.852
13.462000,3.1644,1.7526,-0.2786,3.628
13.462000,3.0453,1.5739,-0.6324,3.486
13.463000,2.8872,1.3623,-0.9667,3.336
13.463000,2.6567,1.1994,-1.1952,3.150
13.465000,2.4091,0.9854,-1.4282,2.969
13.471000,2.1686,0.7540,-1.5507,2.771
13.475000,1.8757,0.6107,-1.6276,2.557
13.480000,1.5669,0.4268,-1.6280,2.300
13.484000,1.2230,0.2571,-1.6143,2.041
13.489000,0.8373,0.1046,-1.5768,1.788
13.496000,0.5053,-0.0432,-1.5444,1.626
13.500000,0.1578,-0.1664,-1.4860,1.504
13.510000,-0.0999,-0.2441,-1.4160,1.440
13.510000,-0.3204,-0.2976,-1.4086,1.475
13.514000,-0.5112,-0.3220,-1.3584,1.487
13.519000,-0.7105,-0.3389,-1.3134,1.531
13.564000,-0.8992,-0.3151,-1.2447,1.568
13.565000,-1.0869,-0.2884,-1.1932,1.640
13.566000,-1.3000,-0.2233,-1.1777,1.768
13.566000,-1.4766,-0.1316,-1.1217,1.859
13.566000,-1.5808,-0.0466,-1.0682,1.908
13.567000,-1.6604,0.0356,-0.9241,1.901
13.567000,-1.7224,0.1438,-0.7208,1.873
13.568000,-1.7808,0.2535,-0.5710,1.887
13.568000,-1.9169,0.3044,-0.5251,2.011
13.569000,-1.9700,0.3469,-0.5782,2.082
13.574000,-2.0674,0.3730,-0.7015,2.215
13.579000,-2.1441,0.3547,-0.8470,2.333
13.585000,-2.2047,0.3803,-1.1107,2.498
13.589000,-2.1654,0.3974,-1.4325,2.627
13.595000,-2.0506,0.3948,-1.8311,2.777
13.600000,-1.9541,0.3774,-2.1508,2.930
13.604000,-1.8309,0.3386,-2.4415,3.070
13.609000,-1.6525,0.2569,-2.6362,3.122
13.614000,-1.4625,0.2065,-2.7707,3.140
13.619000,-1.4261,0.1328,-2.9525,3.282
13.623000,-1.4019,0.0116,-3.0644,3.370
13.628000,-1.3255,-0.1233,-3.1352,3.406
13.633000,-1.2660,-0.2356,-3.1649,3.417
13.677000,-1.1515,-0.3352,-3.1729,3.392
13.678000,-1.0273,-0.4290,-3.1640,3.354
13.678000,-0.8792,-0.5101,-3.2077,3.365
13.678000,-0.7454,-0.5782,-3.1508,3.289
13.679000,-0.5419,-0.5619,-2.9841,3.084
13.679000,-0.2871,-0.5352,-2.8348,2.899
13.679000,0.0024,-0.4219,-2.7127,2.745
13.680000,0.2140,-0.3616,-2.6679,2.701
13.680000,0.3120,-0.3712,-2.6718,2.715
13.684000,0.3516,-0.5032,-2.6572,2.727
13.689000,0.3690,-0.6476,-2.6867,2.788
13.693000,0.3762,-0.7964,-2.7193,2.858
13.698000,0.3491,-0.8897,-2.7405,2.902
13.704000,0.3018,-0.9988,-2.8268,3.013
13.708000,0.2218,-1.1134,-2.9011,3.115
13.713000,0.1521,-1.1353,-2.9108,3.128
13.718000,0.1042,-1.2078,-2.8581,3.105
13.723000,0.0877,-1.2519,-2.8269,3.093
13.728000,0.0329,-1.3106,-2.6615,2.967
13.733000,0.0236,-1.4004,-2.4171,2.794
13.744000,0.0650,-1.4716,-2.1300,2.590
13.745000,0.0925,-1.4474,-1.8145,2.323
13.748000,0.1441,-1.4313,-1.5807,2.137
13.753000,0.2508,-1.4140,-1.2395,1.897
13.801000,0.2979,-1.3884,-0.8556,1.658
13.802000,0.3219,-1.3669,-0.4654,1.479
13.802000,0.3395,-1.2879,-0.1095,1.336
13.803000,0.3577,-1.2571,0.1285,1.313
13.803000,0.3140,-1.2246,0.3422,1.310
13.804000,0.2846,-1.2502,0.4458,1.357
13.804000,0.3081,-1.3005,0.5108,1.431
13.804000,0.3651,-1.3274,0.6641,1.529
13.805000,0.4649,-1.3618,0.7672,1.631
13.805000,0.6192,-1.3560,0.8417,1.712
13.807000,0.7654,-1.3169,0.9285,1.784
13.812000,0.8704,-1.3118,1.0273,1.880
13.817000,0.9914,-1.3551,1.0473,1.979
13.822000,1.0517,-1.4701,1.0606,2.096
13.827000,1.1138,-1.5803,1.0693,2.209
13.832000,1.2326,-1.7308,1.1096,2.397
13.841000,1.3554,-1.7970,1.2026,2.552
13.842000,1.5350,-1.9176,1.2935,2.776
13.847000,1.6827,-2.0350,1.4205,2.998
13.852000,1.7795,-2.1446,1.5404,3.184
13.882000,1.9521,-2.2560,1.6916,3.430
13.883000,2.2009,-2.2997,1.7615,3.638
13.883000,2.4065,-2.3788,1.8240,3.844
13.883000,2.5973,-2.5124,1.8771,4.072
13.883000,2.8646,-2.6405,1.9970,4.378
13.884000,3.2375,-2.7225,2.1572,4.748
13.886000,3.6783,-2.7440,2.3023,5.134
13.901000,4.6874,-2.7650,2.4655,5.975
13.902000,4.7030,-2.7667,2.4529,5.982
13.902000,5.2260,-2.6800,2.6806,6.456
13.907000,5.7453,-2.5532,2.8011,6.883
13.912000,6.1555,-2.4296,2.7526,7.167
13.917000,6.4133,-2.3573,2.5544,7.295
13.921000,6.4652,-2.3743,2.3484,7.277
13.926000,6.3466,-2.4470,2.1731,7.141
13.931000,6.0762,-2.6560,2.1365,6.967
13.937000,5.6787,-2.9029,2.1195,6.721
13.941000,5.0936,-3.1588,2.1560,6.370
13.946000,4.4612,-3.4427,2.2414,6.065
13.951000,3.8815,-3.6546,2.2731,5.796
13.992000,3.2681,-3.8783,2.3157,5.575
13.993000,2.5349,-4.0615,2.3261,5.323
13.994000,1.7374,-4.2447,2.1991,5.086
13.994000,1.0022,-4.4849,1.9396,4.988
13.994000,0.2888,-4.6666,1.7270,4.984
13.995000,-0.3116,-4.8995,1.4513,5.119
13.995000,-0.8394,-5.0488,1.1602,5.248
13.996000,-1.2729,-5.1285,0.8392,5.350
13.996000,-1.6453,-5.0926,0.4740,5.373
14.001000,-1.8967,-4.9767,0.0980,5.327
14.005000,-2.0292,-4.6899,-0.3104,5.119
14.010000,-2.0669,-4.3420,-0.6938,4.859
14.016000,-1.9669,-4.0023,-0.9038,4.550
14.021000,-1.7768,-3.5779,-0.9122,4.098
14.025000,-1.6281,-3.1362,-0.9344,3.655
14.030000,-1.4426,-2.7638,-0.7885,3.216
14.036000,-1.2757,-2.4356,-0.5439,2.803
14.040000,-1.1801,-2.1475,-0.3419,2.474
14.046000,-1.1506,-1.9990,-0.0845,2.308
14.050000,-1.1894,-1.8355,0.0964,2.189
14.061000,-1.2411,-1.6623,0.1531,2.080
14.062000,-1.3222,-1.5303,0.0471,2.023
14.066000,-1.4420,-1.4153,-0.0754,2.022
14.125000,-1.5691,-1.2811,-0.1978,2.035
14.126000,-1.6890,-1.1706,-0.3321,2.082
14.126000,-1.8109,-1.0668,-0.4641,2.152
14.127000,-1.8941,-0.9768,-0.4886,2.186
14.127000,-2.0102,-0.9121,-0.6066,2.289
14.128000,-2.0641,-0.9161,-0.6337,2.345
14.128000,-2.2085,-0.9266,-0.6157,2.473
14.128000,-2.4337,-1.0633,-0.6600,2.737
14.129000,-2.6206,-1.2829,-0.7428,3.011
14.129000,-2.7526,-1.4489,-0.8278,3.219
14.130000,-2.8580,-1.5421,-0.9871,3.394
14.130000,-2.9554,-1.6719,-1.1107,3.573
14.131000,-2.9564,-1.7329,-1.2965,3.664
14.134000,-2.9951,-1.7917,-1.5661,3.825
14.139000,-2.9069,-1.8860,-1.8138,3.911
14.145000,-2.8687,-1.9341,-1.9489,3.971
14.149000,-2.7538,-1.9595,-2.0599,3.958
14.159000,-2.6387,-1.9861,-2.1420,3.936
14.160000,-2.5353,-2.0204,-2.2096,3.923
14.164000,-2.3690,-1.9429,-2.0740,3.700
14.169000,-2.1588,-1.7513,-1.9938,3.421
14.207000,-1.9358,-1.5772,-1.9689,3.180
14.208000,-1.7412,-1.3419,-1.9583,2.944
14.209000,-1.5994,-1.1583,-1.9763,2.794
14.209000,-1.4360,-0.9767,-2.0015,2.650
14.210000,-1.2390,-0.8213,-1.9430,2.446
14.210000,-1.0512,-0.6688,-1.8657,2.243
14.210000,-0.8557,-0.5026,-1.8821,2.128
14.210000,-0.5953,-0.3351,-1.9753,2.090
14.214000,-0.2918,-0.1807,-2.0207,2.050
14.220000,-0.0292,-0.0637,-2.0185,2.020
14.224000,0.1639,0.0806,-2.0739,2.082
14.230000,0.2942,0.1513,-2.2297,2.254
14.235000,0.3332,0.2037,-2.4524,2.483
14.240000,0.2973,0.2378,-2.6938,2.721
14.244000,0.2681,0.2374,-2.9803,3.002
14.249000,0.2291,0.1430,-3.2736,3.285
14.256000,0.2163,0.0940,-3.5952,3.603
14.258000,0.2273,0.0480,-3.9115,3.918
14.264000,0.1952,0.0200,-4.1604,4.165
14.269000,0.2519,0.0412,-4.3418,4.349
14.311000,0.2967,0.0716,-4.5132,4.524
14.313000,0.3443,0.1016,-4.5863,4.600
14.313000,0.3950,0.1435,-4.5707,4.590
14.313000,0.4105,0.2357,-4.5839,4.608
14.314000,0.4604,0.3277,-4.4989,4.534
14.314000,0.4896,0.3957,-4.3423,4.388
14.315000,0.5361,0.4923,-4.1188,4.183
14.316000,0.5925,0.5664,-3.9001,3.985
14.317000,0.5773,0.5894,-3.5860,3.680
14.318000,0.5411,0.6256,-3.2841,3.387
14.324000,0.4744,0.6600,-2.8798,2.992
14.329000,0.4251,0.6923,-2.5430,2.670
14.334000,0.2928,0.7246,-2.3144,2.443
14.338000,0.1969,0.6971,-2.1675,2.285
14.343000,0.0940,0.6741,-1.9943,2.107
14.348000,-0.0134,0.6180,-1.7784,1.883
14.355000,-0.0584,0.5144,-1.5960,1.678
14.358000,-0.0914,0.4353,-1.3204,1.393
14.364000,-0.0096,0.4147,-1.0020,1.084
14.369000,0.0554,0.4639,-0.7339,0.870
14.373000,0.1006,0.4613,-0.4681,0.665
14.378000,0.0447,0.4566,-0.1616,0.486
14.383000,-0.0665,0.4501,0.1806,0.490
14.394000,-0.1322,0.4128,0.5227,0.679
14.394000,-0.2673,0.3873,0.7951,0.924
14.398000,-0.3592,0.3951,1.0672,1.193
14.402000,-0.4461,0.4384,1.3198,1.461
14.457000,-0.5522,0.5311,1.4933,1.678
14.458000,-0.6245,0.5898,1.7119,1.915
14.458000,-0.6511,0.6282,1.8319,2.043
14.459000,-0.6870,0.6730,1.9421,2.167
14.460000,-0.6777,0.6974,2.0545,2.273
14.461000,-0.6522,0.6748,2.1428,2.339
14.467000,-0.5697,0.6558,2.2476,2.410
14.469000,-0.4620,0.6588,2.3092,2.445
14.472000,-0.3917,0.6505,2.2824,2.405
14.472000,-0.2681,0.5925,2.2128,2.306
14.473000,-0.0817,0.5307,2.1483,2.214
14.473000,0.1724,0.4364,2.0625,2.115
14.474000,0.4535,0.4008,1.8694,1.965
14.476000,0.6756,0.3480,1.7654,1.922
14.477000,0.8770,0.3165,1.6045,1.856
14.482000,1.0963,0.2684,1.4394,1.829
14.487000,1.2978,0.2357,1.3228,1.868
14.493000,1.5941,0.2857,1.2500,2.046
14.497000,1.8704,0.4137,1.2496,2.287
14.503000,2.1293,0.5290,1.3239,2.563
14.506000,2.3734,0.6341,1.4727,2.864
14.512000,2.5861,0.7719,1.7008,3.190
14.517000,2.6314,0.8365,2.0030,3.411
14.549000,2.7273,0.9283,2.3527,3.720
14.550000,2.7996,0.9511,2.6470,3.969
14.551000,2.8031,0.9735,2.9886,4.212
14.551000,2.7858,1.0386,3.3605,4.487
14.551000,2.7527,1.0452,3.7243,4.748
14.551000,2.7224,0.9861,4.0059,4.943
14.554000,2.6581,0.8562,4.2273,5.066
14.556000,2.4804,0.6814,4.3502,5.054
14.561000,2.2754,0.4742,4.4229,4.996
14.566000,2.0411,0.2685,4.3496,4.812
14.572000,1.8474,0.1438,4.2142,4.604
14.576000,1.7181,0.0434,4.0339,4.385
14.581000,1.6600,-0.0227,3.8542,4.197
14.586000,1.7114,-0.0180,3.6657,4.046
14.591000,1.7456,0.0697,3.5667,3.972
14.596000,1.8075,0.2477,3.5190,3.964
14.601000,1.8728,0.4845,3.4986,3.998
14.610000,1.8816,0.7724,3.5007,4.049
14.611000,1.8509,1.1708,3.4079,4.051
14.616000,1.6615,1.5139,3.3230,4.012
14.669000,1.4718,1.8606,3.3099,4.072
14.669000,1.3230,2.1888,3.4185,4.269
14.670000,1.2519,2.5237,3.4997,4.493
14.671000,1.1700,2.8982,3.5125,4.702
14.671000,1.0079,3.1415,3.4210,4.753
14.671000,0.8275,3.2699,3.2563,4.688
14.672000,0.6858,3.2735,2.9706,4.473
14.672000,0.5424,3.1956,2.5904,4.149
14.673000,0.4542,3.0293,2.1279,3.730
14.673000,0.3898,2.8466,1.6886,3.333
14.673000,0.2986,2.6050,1.2824,2.919
14.676000,0.2881,2.3291,0.7803,2.473
14.680000,0.3319,2.0987,0.3454,2.153
14.686000,0.4397,1.9532,-0.1775,2.010
14.690000,0.6300,1.8715,-0.6589,2.082
14.696000,0.7308,1.7948,-1.0078,2.184
14.700000,0.8185,1.7232,-1.2791,2.297
14.709000,0.8576,1.6595,-1.4850,2.386
14.711000,0.8558,1.5513,-1.5730,2.369
14.715000,0.8251,1.4846,-1.6463,2.365
14.764000,0.7497,1.3948,-1.7289,2.345
14.764000,0.6779,1.2841,-1.7352,2.263
14.765000,0.5355,1.2457,-1.6892,2.166
14.765000,0.4069,1.2176,-1.6077,2.057
14.765000,0.2826,1.1945,-1.5198,1.954
14.766000,0.0840,1.2006,-1.3634,1.819
14.766000,-0.1701,1.1826,-1.1959,1.690
14.766000,-0.3622,1.1261,-1.0868,1.606
14.767000,-0.5475,1.0359,-0.9475,1.507
14.767000,-0.7381,0.9761,-0.8045,1.465
14.773000,-0.8815,0.8920,-0.7532,1.463
14.775000,-1.0135,0.8121,-0.7482,1.499
14.780000,-1.1156,0.7726,-0.7653,1.558
14.784000,-1.1542,0.6994,-0.7469,1.542
14.792000,-1.1319,0.6811,-0.6453,1.470
14.795000,-1.1543,0.7034,-0.6373,1.494
14.799000,-1.1762,0.7182,-0.6296,1.515
14.810000,-1.1600,0.7300,-0.6649,1.523
14.812000,-1.2037,0.7271,-0.7097,1.575
14.814000,-1.2211,0.7162,-0.7641,1.609
14.819000,-1.2434,0.6925,-0.9476,1.710
14.858000,-1.2946,0.7112,-1.1332,1.862
14.858000,-1.2934,0.7075,-1.1655,1.879
14.859000,-1.2258,0.7557,-1.1785,1.861
14.859000,-1.1416,0.8412,-1.2011,1.858
14.859000,-0.9619,0.9398,-1.2526,1.838
14.859000,-0.7946,1.0178,-1.2920,1.827
14.860000,-0.7262,1.0294,-1.4365,1.911
14.860000,-0.6802,1.0010,-1.5139,1.938
14.865000,-0.6489,0.8627,-1.7012,2.015
14.870000,-0.6038,0.7613,-1.8931,2.128
14.875000,-0.5829,0.6567,-2.0989,2.275
14.879000,-0.4856,0.5317,-2.2854,2.396
14.883000,-0.4076,0.3994,-2.4524,2.518
14.889000,-0.3154,0.2118,-2.6645,2.691
14.904000,-0.1208,0.0627,-2.9693,2.972
14.904000,-0.1204,0.0217,-2.9720,2.975
14.905000,-0.0363,-0.1239,-3.0390,3.042
14.909000,0.0241,-0.2519,-3.1297,3.140
14.913000,0.1515,-0.3746,-3.2082,3.234
14.919000,0.2623,-0.4531,-3.2840,3.325
14.924000,0.4115,-0.5613,-3.2806,3.354
14.928000,0.5247,-0.6543,-3.3176,3.422
14.936000,0.6232,-0.7292,-3.2921,3.429
14.941000,0.6953,-0.8549,-3.2709,3.452
14.943000,0.8125,-0.9410,-3.1228,3.361
14.949000,0.9277,-1.0540,-2.9174,3.238
14.954000,1.0243,-1.1228,-2.6357,3.043
14.986000,1.1288,-1.2024,-2.3953,2.908
14.988000,1.1911,-1.3165,-2.2054,2.831
14.989000,1.2640,-1.4273,-2.0090,2.770
14.989000,1.2831,-1.5464,-1.9183,2.778
14.990000,1.2555,-1.6763,-1.8496,2.794
14.990000,1.2196,-1.7854,-1.7166,2.761
14.990000,1.1774,-1.8037,-1.5457,2.651
14.993000,1.1147,-1.8585,-1.3775,2.568
14.999000,1.1175,-1.9041,-1.1905,2.508
15.004000,1.0398,-1.8762,-0.9226,2.335
15.008000,0.9963,-1.8659,-0.6598,2.216
15.013000,0.9581,-1.8734,-0.4309,2.148
15.018000,0.9921,-1.8992,-0.1402,2.147
15.023000,1.0002,-1.8381,0.1286,2.097
15.028000,1.0636,-1.7554,0.4520,2.102
15.032000,1.1412,-1.6988,0.6937,2.161
15.070000,1.1608,-1.6735,0.8325,2.200
15.071000,1.1414,-1.6918,1.0288,2.286
15.072000,1.1113,-1.7562,1.1608,2.380
15.072000,1.1183,-1.8784,1.2499,2.518
15.072000,1.1050,-2.0227,1.3729,2.683
15.072000,1.1477,-2.1503,1.3743,2.798
15.073000,1.2012,-2.3354,1.4286,2.990
15.073000,1.2413,-2.5081,1.4452,3.150
15.078000,1.3299,-2.6489,1.5438,3.342
15.083000,1.4792,-2.8007,1.6835,3.587
15.087000,1.6561,-2.9536,1.8163,3.843
15.092000,1.7909,-3.0742,1.9566,4.060
15.097000,1.9655,-3.2440,2.1712,4.370
15.102000,2.1469,-3.3863,2.4287,4.688
15.108000,2.3477,-3.5229,2.6738,5.007
15.113000,2.4865,-3.5800,2.8347,5.199
15.118000,2.6235,-3.6915,2.9354,5.397
15.124000,2.6874,-3.7878,3.0380,5.550
15.127000,2.6763,-3.8737,3.1447,5.662
15.133000,2.7026,-3.9825,3.1958,5.777
15.180000,2.7083,-4.0519,3.2178,5.840
15.181000,2.7071,-4.0886,3.2446,5.880
15.182000,2.5887,-4.1311,3.2571,5.863
15.182000,2.4081,-4.1985,3.3008,5.859
15.183000,2.1706,-4.3074,3.3493,5.872
15.183000,1.9529,-4.4434,3.4169,5.936
15.184000,1.8003,-4.5084,3.4628,5.963
15.184000,1.6578,-4.6510,3.5493,6.081
15.185000,1.4938,-4.7804,3.5713,6.151
15.185000,1.3631,-4.9204,3.5864,6.239
15.187000,1.2678,-4.9874,3.5611,6.258
15.192000,1.1527,-5.1011,3.5051,6.296
15.197000,1.0893,-5.1751,3.4402,6.309
15.201000,0.9962,-5.1358,3.2778,6.174
15.207000,0.8902,-5.0783,3.0158,5.973
15.212000,0.8548,-4.9409,2.6805,5.686
15.217000,0.8348,-4.7093,2.3032,5.308
15.224000,0.8278,-4.4096,1.8913,4.869
15.226000,0.8622,-4.0830,1.5068,4.437
15.231000,0.8755,-3.7339,1.1238,3.996
15.237000,0.8770,-3.3651,0.7135,3.550
15.281000,0.8760,-2.9889,0.4316,3.144
15.282000,0.8797,-2.5934,0.1582,2.743
15.282000,0.8071,-2.2440,-0.1499,2.389
15.283000,0.7490,-1.8781,-0.4326,2.068
15.283000,0.7013,-1.5561,-0.6522,1.827
15.283000,0.6880,-1.3120,-0.7896,1.679
15.284000,0.6659,-1.1173,-0.8952,1.579
15.284000,0.6449,-0.9629,-1.0576,1.569
15.284000,0.6040,-0.8084,-1.1623,1.539
15.286000,0.5074,-0.7230,-1.3768,1.636
15.291000,0.3010,-0.6588,-1.5457,1.707
15.297000,0.1003,-0.5483,-1.7578,1.844
15.302000,-0.0799,-0.4416,-1.9223,1.974
15.306000,-0.2344,-0.2954,-2.0371,2.072
15.312000,-0.3699,-0.1906,-2.1382,2.178
15.316000,-0.5194,-0.1893,-2.1782,2.247
15.321000,-0.7831,-0.1957,-2.1379,2.285
15.326000,-1.1155,-0.2528,-2.1060,2.397
15.331000,-1.5238,-0.3964,-2.0441,2.580
15.337000,-1.9961,-0.5332,-1.9404,2.834
15.341000,-2.4411,-0.6394,-1.8787,3.146
15.347000,-2.8205,-0.7770,-1.8733,3.474
15.352000,-3.1103,-0.8380,-1.9361,3.758
15.398000,-3.4476,-0.9203,-2.0357,4.108
15.399000,-3.7274,-1.0189,-2.1215,4.408
15.400000,-3.9430,-1.0735,-2.2389,4.660
15.400000,-4.1093,-1.0745,-2.2800,4.821
15.401000,-4.1885,-1.0645,-2.3378,4.913
15.401000,-4.2936,-1.0483,-2.3907,5.025
15.402000,-4.3363,-1.0331,-2.3763,5.052
15.402000,-4.3098,-0.9305,-2.2373,4.944
15.402000,-4.2835,-0.8295,-2.1126,4.848
15.403000,-4.2216,-0.7066,-2.0547,4.748
15.409000,-4.1871,-0.5888,-2.0492,4.699
15.410000,-4.1249,-0.5431,-2.0671,4.646
15.415000,-4.0325,-0.5247,-2.1829,4.615
15.421000,-3.9198,-0.5528,-2.2983,4.577
15.426000,-3.7479,-0.6007,-2.4516,4.519
15.431000,-3.4286,-0.6180,-2.6238,4.361
15.436000,-3.0471,-0.5231,-2.7552,4.141
15.440000,-2.6631,-0.4211,-2.9322,3.983
15.446000,-2.2309,-0.3214,-3.1546,3.877
15.450000,-1.8985,-0.2264,-3.3866,3.889
15.457000,-1.6186,-0.2290,-3.5563,3.914
15.460000,-1.3710,-0.2711,-3.7261,3.980
15.465000,-1.1581,-0.2973,-3.8459,4.027
15.469000,-0.9297,-0.2741,-3.9130,4.031
15.497000,-0.6690,-0.1770,-3.9204,3.981
15.499000,-0.3715,-0.0446,-3.8394,3.858
15.499000,-0.0513,0.0514,-3.7084,3.709
15.500000,0.1738,0.1705,-3.5632,3.571
15.500000,0.3588,0.2716,-3.4516,3.481
15.500000,0.4967,0.3833,-3.4478,3.504
15.507000,0.5994,0.4241,-3.4056,3.484
15.509000,0.7049,0.4951,-3.3180,3.428
15.514000,0.7747,0.5363,-3.1464,3.284
15.519000,0.9139,0.6578,-2.9124,3.123
15.525000,1.0415,0.7903,-2.6378,2.944
15.530000,1.1399,0.9165,-2.3774,2.791
15.535000,1.2089,1.0335,-2.0619,2.604
15.540000,1.1769,1.0790,-1.7558,2.373
15.544000,1.1659,1.0979,-1.4977,2.193
15.549000,1.0972,1.0618,-1.1894,1.935
15.554000,1.0591,1.0419,-0.9721,1.775
15.600000,1.0471,1.0125,-0.7643,1.645
15.601000,1.0681,1.0118,-0.5590,1.574
15.601000,1.0717,1.0254,-0.4348,1.546
15.602000,1.0677,1.0827,-0.3366,1.557
15.602000,1.0891,1.1405,-0.1852,1.588
15.602000,1.1500,1.2154,-0.0431,1.674
15.603000,1.1431,1.2862,0.1426,1.727
15.603000,1.2165,1.3573,0.4457,1.876
15.603000,1.2462,1.4069,0.7728,2.032
15.604000,1.3232,1.4874,1.0639,2.257
15.610000,1.3348,1.5788,1.2855,2.435
15.613000,1.3242,1.7146,1.4758,2.621
15.619000,1.2932,1.8249,1.5177,2.703
15.623000,1.2178,1.9194,1.6196,2.791
15.628000,1.1172,1.9883,1.6976,2.843
15.633000,1.0632,2.0529,1.8376,2.953
15.638000,1.0130,2.1587,1.9583,3.086
15.644000,0.9905,2.2504,2.0284,3.187
15.648000,1.0050,2.3251,2.1699,3.335
15.662000,1.0564,2.4187,2.3110,3.508
15.663000,1.0278,2.4733,2.3366,3.554
15.664000,1.0081,2.4578,2.2706,3.495
15.668000,0.9472,2.3844,2.1155,3.325
15.726000,0.9816,2.2894,2.0175,3.205
15.726000,1.0756,2.1566,1.8592,3.044
15.727000,1.2074,2.1014,1.7007,2.961
15.727000,1.3434,2.0356,1.5543,2.892
15.727000,1.5100,1.9767,1.4534,2.881
15.728000,1.6040,1.9182,1.4103,2.871
15.728000,1.6828,1.8697,1.4370,2.897
15.728000,1.6773,1.7909,1.6052,2.932
15.729000,1.6355,1.6723,1.8523,2.984
15.729000,1.6221,1.5855,2.0900,3.084
15.729000,1.6012,1.5182,2.3921,3.254
15.729000,1.5633,1.4488,2.7226,3.458
15.732000,1.5518,1.3912,2.9498,3.612
15.737000,1.5113,1.3380,3.1624,3.752
15.742000,1.4565,1.3128,3.3721,3.901
15.747000,1.3702,1.2627,3.5479,4.007
15.753000,1.2815,1.1829,3.7089,4.098
15.757000,1.2040,1.0853,3.8217,4.151
15.762000,1.0301,0.9841,3.8363,4.092
15.768000,0.9438,0.9107,3.8390,4.057
15.772000,0.9330,0.8437,3.8131,4.015
15.777000,0.8662,0.7471,3.7274,3.899
15.782000,0.8651,0.6310,3.6255,3.780
15.830000,0.9338,0.5052,3.5195,3.676
15.831000,1.1249,0.3843,3.3760,3.579
15.831000,1.4147,0.3145,3.2214,3.532
15.832000,1.7002,0.3148,2.9675,3.434
15.832000,1.9624,0.2951,2.7267,3.372
15.832000,2.2420,0.3249,2.5447,3.407
15.833000,2.4718,0.3473,2.4360,3.488
15.833000,2.7745,0.4151,2.3787,3.678
15.834000,3.1140,0.5737,2.4375,3.996
15.834000,3.4432,0.7871,2.6263,4.401
15.840000,3.7150,1.1098,2.7867,4.775
15.842000,3.9820,1.4930,2.9210,5.159
15.846000,4.1172,1.8214,3.0171,5.420
15.852000,4.1997,2.1751,3.0556,5.631
15.857000,4.2125,2.5248,3.1752,5.848
15.862000,4.1063,2.8885,3.1887,5.947
15.866000,3.8453,3.1725,3.1413,5.892
15.878000,3.4370,3.3543,3.0927,5.712
15.879000,3.0254,3.4219,2.9685,5.447
15.881000,2.4882,3.3462,2.7376,4.988
15.887000,1.8998,3.1607,2.4526,4.429
15.952000,1.3679,2.9232,2.1617,3.885
15.953000,0.9139,2.6319,1.8554,3.347
15.953000,0.5182,2.3778,1.5602,2.891
15.954000,0.2045,2.1185,1.2094,2.448
15.954000,-0.0277,1.8762,0.8608,2.064
15.955000,-0.2481,1.6296,0.5890,1.750
15.955000,-0.4093,1.4294,0.2241,1.504
15.955000,-0.5325,1.2382,-0.0038,1.348
15.956000,-0.6207,1.0655,-0.2048,1.250
15.957000,-0.7047,0.9478,-0.3669,1.237
15.957000,-0.7343,0.8157,-0.5380,1.222
15.957000,-0.7903,0.7534,-0.6870,1.290
15.958000,-0.8412,0.7059,-0.7495,1.330
15.959000,-0.9079,0.7309,-0.8001,1.414
15.960000,-0.9496,0.7613,-0.8339,1.475
15.966000,-1.0185,0.7585,-0.8944,1.553
15.971000,-1.1142,0.7488,-0.9076,1.620
15.976000,-1.2077,0.7804,-0.8855,1.689
15.981000,-1.3754,0.7880,-0.8498,1.799
15.985000,-1.5312,0.7934,-0.8056,1.903
15.994000,-1.6078,0.8013,-0.7694,1.954
15.996000,-1.6223,0.7944,-0.6411,1.917
16.001000,-1.5890,0.8683,-0.5784,1.901
16.052000,-1.5491,0.9055,-0.5001,1.863
16.053000,-1.5055,0.9554,-0.4657,1.843
16.053000,-1.4797,0.9511,-0.5470,1.842
16.053000,-1.4888,0.9327,-0.7007,1.891
16.054000,-1.4925,0.9269,-0.9144,1.981
16.054000,-1.5128,0.9261,-1.1617,2.120
16.054000,-1.5929,0.8258,-1.5068,2.343
16.055000,-1.6064,0.8013,-1.7796,2.528
16.055000,-1.6107,0.7735,-2.0040,2.685
16.056000,-1.5847,0.7835,-2.2037,2.825
16.057000,-1.5264,0.7041,-2.3691,2.905
16.060000,-1.4310,0.6578,-2.4620,2.923
16.065000,-1.3871,0.6089,-2.6616,3.063
16.071000,-1.2700,0.4945,-2.8391,3.149
16.075000,-1.1970,0.5092,-2.9511,3.225
16.081000,-1.0765,0.4683,-3.0293,3.249
16.086000,-0.9033,0.3769,-3.1551,3.303
16.091000,-0.7036,0.3238,-3.2592,3.350
16.095000,-0.5663,0.2273,-3.3271,3.383
16.101000,-0.4318,0.0712,-3.4663,3.494
16.107000,-0.3287,-0.0802,-3.5260,3.542
16.110000,-0.2233,-0.1833,-3.5879,3.599
16.116000,-0.1488,-0.2926,-3.6231,3.638
16.120000,-0.0453,-0.3752,-3.6463,3.666
16.178000,0.0781,-0.4786,-3.6120,3.644
16.180000,0.2022,-0.5428,-3.5349,3.582
16.180000,0.3272,-0.6355,-3.4486,3.522
16.181000,0.3793,-0.7393,-3.3984,3.499
16.181000,0.3918,-0.8599,-3.3965,3.526
16.182000,0.3651,-1.0299,-3.3281,3.503
16.183000,0.3904,-1.1630,-3.1717,3.401
16.184000,0.4102,-1.2979,-3.1021,3.388
16.184000,0.4174,-1.4767,-3.0952,3.455
16.185000,0.3973,-1.5850,-3.0529,3.463
16.185000,0.4045,-1.7367,-2.9820,3.474
16.185000,0.3721,-1.8723,-2.8301,3.414
16.189000,0.3977,-2.0176,-2.6951,3.390
16.192000,0.4360,-2.1100,-2.4312,3.249
16.195000,0.5447,-2.2075,-2.1678,3.142
16.201000,0.6423,-2.2574,-1.8835,3.009
16.204000,0.7166,-2.2882,-1.6690,2.921
16.209000,0.7030,-2.2908,-1.4644,2.808
16.214000,0.6973,-2.3440,-1.2172,2.732
16.220000,0.7093,-2.3451,-0.9537,2.629
16.270000,0.7224,-2.3542,-0.7364,2.570
16.272000,0.6958,-2.3547,-0.5938,2.526
16.272000,0.6533,-2.3373,-0.4658,2.471
16.272000,0.5799,-2.3807,-0.4074,2.484
16.273000,0.5474,-2.4322,-0.3321,2.515
16.273000,0.5603,-2.4054,-0.2880,2.487
16.274000,0.5559,-2.3625,-0.2220,2.437
16.274000,0.5602,-2.2914,-0.2034,2.368
16.274000,0.6204,-2.2400,-0.1196,2.327
16.274000,0.6784,-2.1965,-0.0111,2.299
16.275000,0.7580,-2.1849,0.1532,2.318
16.280000,0.8735,-2.1914,0.3207,2.381
16.284000,0.9722,-2.1894,0.5296,2.453
16.294000,1.0589,-2.1843,0.7152,2.531
16.295000,1.2105,-2.1478,0.9875,2.656
16.298000,1.4149,-2.0944,1.1956,2.796
16.305000,1.5885,-2.0578,1.3302,2.920
16.309000,1.7820,-2.0025,1.4244,3.036
16.313000,2.0077,-2.0051,1.5500,3.233
16.319000,2.1967,-1.9773,1.5991,3.360
16.332000,2.3084,-1.9790,1.5718,3.423
16.333000,2.4221,-2.0101,1.5350,3.502
16.333000,2.5167,-2.0729,1.4863,3.583
16.402000,2.6307,-2.0930,1.4805,3.673
16.403000,2.7398,-2.1636,1.4197,3.769
16.403000,2.8224,-2.2559,1.3638,3.862
16.404000,2.8856,-2.4315,1.4395,4.039
16.404000,2.9010,-2.6258,1.5318,4.202
16.404000,2.7990,-2.8361,1.5811,4.287
16.405000,2.7089,-3.0192,1.5946,4.359
16.405000,2.6331,-3.2205,1.6440,4.473
16.405000,2.5931,-3.4250,1.6336,4.596
16.406000,2.6176,-3.5846,1.6855,4.748
16.406000,2.6226,-3.7185,1.7998,4.893
16.406000,2.5434,-3.8119,1.9596,4.984
16.407000,2.4161,-3.8863,2.1075,5.038
16.407000,2.3079,-3.9679,2.2936,5.131
16.409000,2.1734,-4.0524,2.5012,5.235
16.414000,2.0535,-4.1272,2.6894,5.337
16.419000,1.9506,-4.2359,2.9134,5.499
16.423000,1.8123,-4.3018,3.1562,5.635
16.428000,1.7202,-4.3155,3.3794,5.745
16.435000,1.5618,-4.3183,3.5760,5.820
16.444000,1.3584,-4.3005,3.8035,5.900
16.447000,1.1723,-4.3652,3.9565,6.007
16.448000,0.9652,-4.4481,4.0735,6.108
16.454000,0.7994,-4.4942,4.2405,6.230
16.519000,0.6129,-4.5399,4.3451,6.314
16.521000,0.4156,-4.5158,4.3583,6.290
16.522000,0.2406,-4.3887,4.2207,6.094
16.524000,0.0619,-4.2496,3.9827,5.824
16.525000,-0.1184,-4.1078,3.6635,5.505
16.526000,-0.2554,-3.8505,3.2756,5.062
16.527000,-0.3588,-3.5664,2.9289,4.629
16.528000,-0.4360,-3.2794,2.5519,4.178
16.529000,-0.4920,-2.9441,2.1661,3.688
16.530000,-0.5848,-2.6345,1.8317,3.262
16.531000,-0.6143,-2.2892,1.6155,2.868
16.533000,-0.6216,-1.9296,1.4172,2.474
16.534000,-0.6927,-1.6091,1.2271,2.139
16.535000,-0.8159,-1.3165,1.1312,1.918
16.536000,-0.9339,-1.0807,0.9718,1.728
16.537000,-1.0324,-0.9241,0.8395,1.620
16.539000,-1.0946,-0.8157,0.7440,1.555
16.543000,-1.1247,-0.7009,0.5843,1.448
16.548000,-1.2322,-0.6157,0.3674,1.426
16.553000,-1.2995,-0.5742,0.1030,1.424
16.558000,-1.3664,-0.4898,-0.2141,1.467
16.562000,-1.4157,-0.4745,-0.4716,1.566
16.567000,-1.4638,-0.4227,-0.7318,1.690
16.621000,-1.4601,-0.3722,-0.9567,1.785
16.622000,-1.5048,-0.4018,-1.0769,1.894
16.622000,-1.5567,-0.3983,-1.1478,1.975
16.623000,-1.6562,-0.4191,-1.2221,2.101
16.623000,-1.8267,-0.4377,-1.2426,2.252
16.623000,-2.0804,-0.4947,-1.2667,2.485
16.623000,-2.3143,-0.5347,-1.3254,2.720
16.624000,-2.5405,-0.5816,-1.4138,2.965
16.624000,-2.7067,-0.6161,-1.3930,3.106
16.624000,-2.8247,-0.6287,-1.4139,3.221
16.625000,-2.8638,-0.6527,-1.4595,3.280
16.626000,-2.9011,-0.6738,-1.4508,3.313
16.636000,-2.9558,-0.6755,-1.4594,3.365
16.636000,-2.9735,-0.6124,-1.5472,3.407
16.647000,-2.9666,-0.5535,-1.6973,3.462
16.648000,-2.9907,-0.4942,-1.7252,3.488
16.652000,-2.9282,-0.4178,-1.7842,3.454
16.661000,-2.7939,-0.3697,-1.8263,3.358
16.662000,-2.6405,-0.2707,-1.8612,3.242
16.666000,-2.4466,-0.0975,-1.8361,3.060
16.729000,-2.1981,0.0848,-1.8252,2.858
16.730000,-1.9837,0.2425,-1.9147,2.768
16.730000,-1.7772,0.3659,-1.9538,2.666
16.730000,-1.5096,0.4928,-1.9735,2.533
16.730000,-1.2354,0.5990,-2.0028,2.428
16.731000,-0.9881,0.6818,-2.0179,2.348
16.731000,-0.7127,0.7503,-2.1240,2.363
16.731000,-0.5095,0.8022,-2.3402,2.526
16.732000,-0.3235,0.7894,-2.6998,2.831
16.732000,-0.1619,0.7675,-3.0521,3.151
16.732000,-0.0245,0.7513,-3.4016,3.484
16.733000,0.0503,0.7295,-3.8105,3.880
16.733000,0.1081,0.6957,-4.1734,4.232
16.736000,0.1701,0.6746,-4.4996,4.553
16.741000,0.2935,0.7049,-4.7699,4.831
16.746000,0.2922,0.7055,-4.9249,4.984
16.750000,0.3102,0.7606,-5.0028,5.070
16.764000,0.4050,0.7504,-5.0615,5.133
16.764000,0.4668,0.7659,-4.9956,5.075
16.767000,0.5313,0.7566,-4.9010,4.987
