time,ax,ay,az,aT
22.441000,0.7808,0.6407,1.9918,2.233
22.442000,0.9606,0.7709,2.1910,2.513
22.447000,1.1047,0.8848,2.3921,2.779
22.452000,1.1707,0.9852,2.4806,2.914
22.514000,1.2419,0.9738,2.5305,2.982
22.515000,1.3897,0.9320,2.6255,3.113
22.516000,1.6544,0.9730,2.6362,3.261
22.516000,1.9881,1.0702,2.6848,3.508
22.516000,2.2141,1.2222,2.6588,3.669
22.516000,2.2534,1.3790,2.5487,3.671
22.517000,2.1710,1.4903,2.4933,3.626
22.517000,2.1091,1.5404,2.4761,3.599
22.518000,2.0511,1.5525,2.5162,3.598
22.518000,2.0524,1.5509,2.5587,3.628
22.518000,1.9723,1.5783,2.5463,3.587
22.519000,1.8498,1.6150,2.4697,3.483
22.519000,1.7358,1.6899,2.5348,3.506
22.527000,1.5191,1.7451,2.5599,3.451
22.530000,1.2246,1.7299,2.3828,3.189
22.531000,0.9145,1.6919,2.2762,2.980
22.538000,0.6317,1.6065,2.1468,2.755
22.543000,0.4821,1.5189,1.9206,2.496
22.547000,0.3965,1.4359,1.6838,2.248
22.552000,0.4797,1.3642,1.3957,2.010
22.559000,0.5878,1.2946,1.0182,1.749
22.561000,0.7722,1.1313,0.6609,1.521
22.567000,0.9968,0.9659,0.3453,1.430
22.642000,1.1909,0.8130,-0.0867,1.445
22.642000,1.3223,0.6968,-0.5182,1.582
22.643000,1.4476,0.5653,-0.8872,1.790
22.643000,1.5996,0.4545,-1.2180,2.061
22.644000,1.7254,0.3407,-1.4485,2.278
22.645000,1.8606,0.2434,-1.6219,2.480
22.645000,1.8660,0.1218,-1.8270,2.614
22.645000,1.7941,-0.0237,-2.0447,2.720
22.645000,1.5584,-0.2221,-2.2273,2.727
22.646000,1.3197,-0.3941,-2.3628,2.735
22.646000,1.0425,-0.5519,-2.4584,2.727
22.646000,0.7419,-0.6498,-2.5688,2.752
22.647000,0.5431,-0.7235,-2.7176,2.864
22.647000,0.4275,-0.7724,-2.8307,2.965
22.647000,0.4025,-0.7289,-2.9292,3.045
22.648000,0.4375,-0.6616,-2.9915,3.095
22.652000,0.4752,-0.5509,-2.9960,3.083
22.656000,0.4827,-0.4706,-2.9140,2.991
22.661000,0.4672,-0.3798,-2.6760,2.743
22.666000,0.3861,-0.3295,-2.4782,2.530
22.674000,0.3233,-0.2263,-2.2442,2.279
22.675000,0.2737,-0.1789,-1.9213,1.949
22.680000,0.2180,-0.1231,-1.6366,1.656
22.685000,0.1416,-0.0671,-1.3614,1.370
22.744000,0.0252,-0.0334,-1.0887,1.089
22.746000,-0.1244,-0.0415,-0.9238,0.933
22.746000,-0.3265,-0.1139,-0.8238,0.893
22.747000,-0.5986,-0.1836,-0.7410,0.970
22.749000,-0.9263,-0.3161,-0.6851,1.195
22.749000,-1.2591,-0.4447,-0.7087,1.512
22.751000,-1.5299,-0.5407,-0.8165,1.816
22.752000,-1.7343,-0.6089,-0.9104,2.051
22.755000,-1.8415,-0.6540,-1.0717,2.229
22.756000,-1.8298,-0.6925,-1.2048,2.298
22.756000,-1.8449,-0.6858,-1.3381,2.380
22.757000,-1.8315,-0.6360,-1.3879,2.384
22.757000,-1.7294,-0.6241,-1.4712,2.355
22.757000,-1.5696,-0.5657,-1.5569,2.282
22.762000,-1.2683,-0.4774,-1.5897,2.089
22.765000,-0.9929,-0.3971,-1.6272,1.947
22.770000,-0.6765,-0.3603,-1.5759,1.752
22.775000,-0.4575,-0.2735,-1.6057,1.692
22.780000,-0.3072,-0.2419,-1.6113,1.658
22.784000,-0.2090,-0.2678,-1.6167,1.652
22.848000,-0.1323,-0.2935,-1.6219,1.654
22.849000,-0.0988,-0.3600,-1.5770,1.621
22.849000,-0.2016,-0.4217,-1.6182,1.684
22.849000,-0.3379,-0.4690,-1.7240,1.818
22.850000,-0.4265,-0.5522,-1.8034,1.934
22.850000,-0.5153,-0.5778,-1.8900,2.042
22.850000,-0.5273,-0.6604,-1.8568,2.040
22.851000,-0.4677,-0.6013,-1.8069,1.961
22.851000,-0.3292,-0.4961,-1.6661,1.769
22.851000,-0.1621,-0.4544,-1.5301,1.604
22.851000,-0.0364,-0.3904,-1.3680,1.423
22.852000,-0.0242,-0.4091,-1.1393,1.211
22.852000,-0.1350,-0.4819,-0.8968,1.027
22.859000,-0.2889,-0.5757,-0.5757,0.864
22.860000,-0.4785,-0.6289,-0.3387,0.860
22.865000,-0.6536,-0.7231,-0.1834,0.992
22.871000,-0.7975,-0.8152,-0.1168,1.146
22.875000,-0.8433,-0.7973,0.0596,1.162
22.880000,-0.7723,-0.6575,0.2907,1.055
22.884000,-0.7210,-0.3792,0.4376,0.925
22.892000,-0.7109,-0.2598,0.5483,0.935
22.894000,-0.7886,-0.2880,0.7369,1.117
22.899000,-0.7813,-0.2783,1.2857,1.530
22.903000,-0.6697,-0.3239,1.3820,1.569
22.970000,-0.5300,-0.4241,1.2370,1.411
22.971000,-0.2431,-0.4082,1.2289,1.318
22.971000,-0.0083,-0.3021,1.2233,1.260
22.971000,0.1020,-0.1799,1.2322,1.249
22.972000,0.1646,-0.1059,1.2601,1.275
22.972000,0.1630,-0.1281,1.3050,1.321
22.972000,0.2195,-0.1720,1.3786,1.407
22.972000,0.2354,-0.2521,1.4761,1.516
22.973000,0.1606,-0.3592,1.4994,1.550
22.973000,0.0474,-0.5335,1.4603,1.555
22.973000,-0.1183,-0.7456,1.3663,1.561
22.973000,-0.3242,-0.8996,1.3132,1.624
22.974000,-0.3594,-1.0642,1.2247,1.662
22.974000,-0.2458,-1.0859,1.2347,1.663
22.979000,-0.0436,-0.9953,1.2929,1.632
22.984000,0.2611,-0.8755,1.3274,1.611
22.988000,0.5317,-0.7500,1.3024,1.594
22.993000,0.5983,-0.6116,1.5623,1.781
22.999000,0.6477,-0.5348,1.9990,2.168
23.004000,0.6346,-0.4652,2.2704,2.403
23.008000,0.5514,-0.3802,2.6872,2.769
23.012000,0.3982,-0.2665,3.0938,3.131
23.018000,0.1680,-0.1899,3.3655,3.375
23.088000,-0.1153,-0.1536,3.5001,3.505
23.089000,-0.4323,-0.1370,3.5958,3.624
23.090000,-0.7081,-0.2218,3.6981,3.772
23.090000,-0.8831,-0.3491,3.7496,3.868
23.090000,-0.9598,-0.4667,3.7622,3.911
23.091000,-0.9139,-0.4744,3.6930,3.834
23.091000,-0.7529,-0.5107,3.6163,3.729
23.091000,-0.6873,-0.5751,3.3434,3.461
23.091000,-0.4925,-0.5547,3.0393,3.128
23.092000,-0.1448,-0.5754,2.7999,2.862
23.092000,0.1834,-0.5957,2.6421,2.715
23.092000,0.5639,-0.6154,2.4939,2.630
23.093000,0.9675,-0.7410,2.3267,2.626
23.093000,1.2838,-0.8790,2.1881,2.685
23.093000,1.5219,-0.9707,1.9323,2.644
23.098000,1.6960,-1.0353,1.6693,2.595
23.103000,1.7972,-1.0910,1.4209,2.538
23.108000,1.8641,-1.0773,1.2182,2.474
23.113000,1.8645,-1.0373,1.0210,2.365
23.117000,1.8135,-0.9728,0.8344,2.221
23.124000,1.6401,-0.9382,0.6204,1.989
23.127000,1.4519,-0.9695,0.5294,1.824
23.132000,1.2489,-1.0000,0.4921,1.674
23.136000,1.0362,-0.9990,0.3911,1.492
23.202000,0.8594,-1.0148,0.2626,1.355
23.203000,0.7732,-0.9880,0.2331,1.276
23.203000,0.7035,-0.9409,0.2523,1.202
23.203000,0.6836,-0.9049,0.2029,1.152
23.204000,0.6606,-0.8903,0.0944,1.113
23.204000,0.6985,-0.8660,-0.0326,1.113
23.204000,0.7799,-0.8036,-0.2023,1.138
23.204000,0.8931,-0.7412,-0.3379,1.209
23.205000,1.0545,-0.6931,-0.5258,1.367
23.205000,1.2014,-0.6546,-0.7157,1.544
23.205000,1.2830,-0.6708,-0.8529,1.680
23.205000,1.3537,-0.7177,-0.8851,1.769
23.206000,1.3568,-0.7258,-0.9485,1.808
23.208000,1.3681,-0.7553,-1.0433,1.879
23.212000,1.2636,-0.6986,-1.1456,1.843
23.217000,1.2083,-0.6685,-1.1955,1.827
23.222000,1.1807,-0.6412,-1.1717,1.783
23.226000,1.1881,-0.5593,-1.1314,1.733
23.231000,1.2428,-0.4494,-1.0437,1.684
23.236000,1.2132,-0.3858,-0.9730,1.602
23.242000,1.1450,-0.3349,-1.0486,1.588
23.246000,1.0239,-0.3136,-1.0596,1.506
23.251000,0.8007,-0.3605,-0.8744,1.239
23.317000,0.6977,-0.4138,-0.9285,1.233
23.318000,0.8125,-0.4374,-1.0615,1.407
23.319000,0.8312,-0.4864,-1.1252,1.481
23.319000,0.8498,-0.4986,-1.1388,1.506
23.320000,0.8211,-0.4168,-1.0805,1.420
23.321000,0.9005,-0.3920,-1.2924,1.623
23.321000,1.0629,-0.5052,-1.4541,1.871
23.321000,1.2462,-0.5892,-1.4007,1.965
23.322000,1.3835,-0.6146,-1.4336,2.085
23.322000,1.5368,-0.5166,-1.6150,2.288
23.323000,1.5999,-0.4000,-1.8541,2.481
23.323000,1.6561,-0.3647,-2.0172,2.635
23.324000,1.7197,-0.4106,-2.1379,2.774
23.324000,1.7618,-0.4559,-2.2736,2.912
23.327000,1.7751,-0.4961,-2.2834,2.934
23.330000,1.7236,-0.5504,-2.3587,2.973
23.336000,1.6191,-0.6592,-2.3800,2.953
23.340000,1.4736,-0.7865,-2.4312,2.950
23.346000,1.2371,-0.9085,-2.5383,2.966
23.351000,1.0921,-0.9748,-2.5576,2.947
23.425000,1.0009,-0.8799,-2.4984,2.832
23.426000,1.0269,-0.7860,-2.4057,2.731
23.426000,1.0229,-0.6069,-2.4536,2.727
23.427000,0.9584,-0.4757,-2.4959,2.716
23.427000,0.8885,-0.3802,-2.4967,2.677
23.427000,0.9403,-0.2675,-2.4033,2.595
23.428000,0.9637,-0.1618,-2.1796,2.389
23.428000,0.9830,-0.0872,-1.9286,2.166
23.428000,0.9527,0.0013,-1.7244,1.970
23.429000,0.9089,0.0554,-1.5861,1.829
23.429000,0.7559,0.0458,-1.5137,1.693
23.429000,0.6462,-0.0113,-1.4522,1.590
23.429000,0.5681,-0.0780,-1.3348,1.453
23.430000,0.5262,-0.0637,-1.2092,1.320
23.430000,0.4817,-0.0618,-1.1403,1.239
23.430000,0.4005,-0.0581,-1.1713,1.239
23.435000,0.2788,-0.1244,-1.2093,1.247
23.439000,0.0903,-0.2297,-1.2162,1.241
23.445000,-0.1346,-0.3314,-1.1804,1.233
23.450000,-0.4008,-0.4462,-1.1451,1.293
23.454000,-0.6176,-0.6032,-1.1676,1.452
23.459000,-0.7730,-0.7284,-1.1429,1.560
23.466000,-0.8742,-0.8220,-1.2692,1.747
23.469000,-0.9305,-0.8334,-1.3718,1.855
23.533000,-0.9067,-0.8650,-1.4964,1.952
23.535000,-0.7195,-0.8665,-1.5617,1.926
23.536000,-0.4150,-0.8565,-1.4533,1.737
23.540000,-0.1677,-0.7202,-1.2501,1.452
23.541000,0.0103,-0.5912,-1.1270,1.273
23.542000,0.0714,-0.5442,-0.9905,1.132
23.543000,0.1261,-0.5075,-0.7544,0.918
23.543000,0.1924,-0.4740,-0.5738,0.769
23.544000,0.2999,-0.4076,-0.5628,0.757
23.545000,0.3370,-0.3243,-0.5895,0.753
23.545000,0.2749,-0.2473,-0.6801,0.774
23.546000,0.1663,-0.2669,-0.7533,0.816
23.546000,0.0370,-0.3136,-0.7685,0.831
23.547000,-0.1417,-0.3730,-0.7021,0.808
23.552000,-0.2645,-0.3996,-0.5279,0.713
23.553000,-0.3743,-0.4203,-0.3343,0.655
23.564000,-0.4401,-0.4405,-0.2123,0.658
23.566000,-0.4627,-0.4819,-0.1214,0.679
23.566000,-0.4214,-0.5543,-0.0477,0.698
23.569000,-0.3813,-0.5240,0.0158,0.648
23.640000,-0.3237,-0.5273,0.1073,0.628
23.641000,-0.2823,-0.5094,0.2002,0.616
23.642000,-0.2981,-0.4967,0.2801,0.643
23.643000,-0.3140,-0.5442,0.3874,0.738
23.644000,-0.2967,-0.6570,0.4719,0.862
23.644000,-0.2293,-0.8157,0.6077,1.043
23.645000,-0.0352,-0.9532,0.8308,1.265
23.646000,0.3361,-0.8897,1.0073,1.385
23.646000,0.7268,-0.7296,1.1470,1.542
23.647000,1.0674,-0.4365,1.3576,1.781
23.648000,1.3393,-0.1198,1.6008,2.091
23.649000,1.4899,0.1395,1.9127,2.428
23.650000,1.4887,0.3391,2.3074,2.767
23.651000,1.3106,0.5074,2.7902,3.124
23.651000,0.9823,0.6865,3.2296,3.445
23.652000,0.6695,0.8225,3.6975,3.847
23.653000,0.4131,0.9670,4.0051,4.141
23.660000,0.2677,1.0808,4.0399,4.191
23.663000,-0.0069,1.1990,4.5887,4.743
23.668000,-0.2846,1.2042,4.8217,4.978
23.677000,-0.4774,1.1315,4.6337,4.794
23.680000,-0.4847,1.1053,4.7683,4.919
23.683000,-0.3645,1.1254,4.8111,4.954
23.688000,-0.1241,1.1537,4.7862,4.925
23.760000,0.1137,1.1685,4.7484,4.891
23.761000,0.4322,1.1560,4.7097,4.869
23.762000,0.6878,1.1549,4.6316,4.823
23.762000,0.9139,1.1535,4.5312,4.764
23.762000,1.0970,1.1576,4.3369,4.621
23.762000,1.0650,1.1240,4.0132,4.302
23.763000,0.9146,1.1035,3.6299,3.903
23.763000,0.7211,1.0421,3.1468,3.392
23.763000,0.4967,0.9708,2.6956,2.908
23.764000,0.3500,0.8950,2.2527,2.449
23.764000,0.2394,0.8246,1.7924,1.987
23.764000,0.2012,0.8050,1.3436,1.579
23.764000,0.2289,0.7363,0.8682,1.161
23.765000,0.2680,0.6599,0.4093,0.821
23.765000,0.3107,0.5635,-0.0642,0.647
23.768000,0.3624,0.4336,-0.5476,0.787
23.773000,0.4204,0.2987,-0.9189,1.054
23.778000,0.5564,0.2530,-1.2501,1.392
23.783000,0.7942,0.2461,-1.4552,1.676
23.791000,1.1458,0.2878,-1.6276,2.011
23.793000,1.4573,0.3905,-1.7939,2.344
23.797000,1.6277,0.4515,-2.0117,2.627
23.801000,1.6825,0.4685,-2.1905,2.802
23.872000,1.6165,0.4603,-2.2540,2.812
23.873000,1.3649,0.3762,-2.3530,2.746
23.874000,1.0420,0.2518,-2.4209,2.648
23.874000,0.7031,0.1317,-2.3786,2.484
23.874000,0.4412,0.1183,-2.4082,2.451
23.875000,0.2626,0.1152,-2.4403,2.457
23.876000,0.2244,0.1343,-2.4297,2.444
23.876000,0.2615,0.1415,-2.3311,2.350
23.876000,0.2740,0.1965,-2.1658,2.192
23.877000,0.2809,0.2342,-2.0584,2.091
23.877000,0.2392,0.2208,-1.9682,1.995
23.878000,0.2728,0.1780,-1.9239,1.951
23.878000,0.2666,0.1605,-1.8347,1.861
23.878000,0.2161,0.1778,-1.7892,1.811
23.878000,0.1023,0.1702,-1.7584,1.770
23.881000,-0.0148,0.1736,-1.7927,1.801
23.886000,-0.1637,0.1209,-1.8917,1.903
23.891000,-0.2892,0.1176,-1.9837,2.008
23.898000,-0.3624,0.1062,-2.0423,2.077
23.902000,-0.3638,0.0912,-2.1342,2.167
23.909000,-0.3127,0.0731,-2.2213,2.244
23.912000,-0.2590,0.0522,-2.3009,2.316
23.979000,-0.1837,0.0188,-2.3349,2.342
23.980000,-0.1107,-0.0361,-2.3975,2.400
23.980000,-0.0303,-0.1102,-2.4695,2.472
23.980000,-0.0282,-0.1981,-2.5268,2.535
23.980000,0.0559,-0.2541,-2.6387,2.651
23.981000,0.1047,-0.2544,-2.6713,2.685
23.981000,0.2023,-0.1888,-2.6007,2.615
23.981000,0.3387,-0.1433,-2.6256,2.651
23.981000,0.4783,-0.0939,-2.4803,2.528
23.981000,0.5641,0.0190,-2.2582,2.328
23.982000,0.5315,0.1043,-2.0527,2.123
23.982000,0.3330,0.1378,-1.9233,1.957
23.982000,0.1958,0.0810,-1.7864,1.799
23.982000,0.1079,-0.0356,-1.6109,1.615
23.987000,0.0575,-0.1280,-1.5377,1.544
23.992000,0.0205,-0.1991,-1.5501,1.563
23.995000,-0.0154,-0.1457,-1.5595,1.566
24.001000,0.0663,-0.0706,-1.5569,1.560
24.008000,0.1931,0.0193,-1.5470,1.559
24.012000,0.3410,0.0545,-1.4942,1.534
24.014000,0.3805,0.0281,-1.4107,1.461
24.021000,0.3207,-0.0362,-1.3133,1.352
24.073000,0.2625,-0.0644,-1.2284,1.258
24.074000,0.2030,-0.0877,-1.1250,1.146
24.075000,0.1261,-0.1016,-1.0387,1.051
24.076000,0.0439,-0.0655,-0.9743,0.977
24.077000,-0.0150,-0.0586,-0.9246,0.927
24.079000,-0.0884,-0.1211,-0.8535,0.867
24.080000,-0.1236,-0.1835,-0.6868,0.722
24.081000,-0.1584,-0.2168,-0.6876,0.738
24.081000,-0.2334,-0.2709,-0.7073,0.793
24.082000,-0.4899,-0.4032,-0.7149,0.956
24.083000,-0.6501,-0.5176,-0.6530,1.057
24.083000,-0.6183,-0.5477,-0.6699,1.063
24.085000,-0.4919,-0.5292,-0.6693,0.985
24.091000,-0.3332,-0.4475,-0.6895,0.887
24.095000,-0.1922,-0.3266,-0.7472,0.838
24.099000,-0.0499,-0.2281,-0.7706,0.805
24.110000,0.0524,-0.1594,-0.6978,0.718
24.112000,0.0404,-0.1253,-0.5650,0.580
24.114000,-0.0282,-0.1735,-0.5107,0.540
24.119000,-0.1755,-0.2182,-0.5186,0.589
24.191000,-0.3827,-0.2736,-0.4953,0.683
24.192000,-0.4494,-0.3189,-0.3863,0.673
24.193000,-0.4786,-0.3207,-0.2202,0.617
24.194000,-0.5136,-0.3823,0.0122,0.640
24.195000,-0.5884,-0.3676,0.1958,0.721
24.196000,-0.6672,-0.3868,0.2828,0.821
24.197000,-0.7582,-0.4305,0.3828,0.952
24.199000,-0.8998,-0.4941,0.4741,1.131
24.199000,-1.0052,-0.5297,0.6169,1.293
24.200000,-1.0551,-0.5377,0.7346,1.394
24.201000,-1.0445,-0.5179,0.9422,1.499
24.204000,-0.9832,-0.4536,1.1270,1.563
24.205000,-0.9279,-0.3543,1.3852,1.705
24.206000,-0.9235,-0.2272,1.5879,1.851
24.206000,-0.8975,-0.1151,1.7568,1.976
24.207000,-0.9579,-0.0685,1.8871,2.117
24.210000,-1.0304,-0.1085,2.0315,2.280
24.211000,-1.1124,-0.1469,2.2043,2.473
24.215000,-1.1894,-0.1286,2.2718,2.568
24.221000,-1.2682,-0.1329,2.2772,2.610
24.235000,-1.2678,-0.1020,2.2254,2.563
24.241000,-1.2290,-0.0286,2.1808,2.503
24.243000,-1.1497,0.1063,2.2103,2.494
24.244000,-1.0707,0.2191,2.1704,2.430
24.244000,-0.9467,0.3289,2.1088,2.335
24.315000,-0.7973,0.3809,2.1234,2.300
24.316000,-0.6211,0.3297,2.1921,2.302
24.316000,-0.4351,0.2373,2.2741,2.328
24.316000,-0.3134,0.1374,2.3264,2.351
24.316000,-0.2203,0.1184,2.3440,2.357
24.317000,-0.1465,0.0535,2.3771,2.382
24.317000,-0.0780,0.0383,2.5116,2.513
24.317000,-0.0119,-0.0491,2.7499,2.750
24.317000,0.0350,-0.1733,3.0586,3.064
24.317000,0.1474,-0.2220,3.3303,3.341
24.318000,0.3164,-0.2168,3.5128,3.534
24.318000,0.4296,-0.1796,3.6805,3.710
24.318000,0.4741,-0.1624,3.6260,3.660
24.319000,0.5221,-0.1120,3.4932,3.534
24.319000,0.5885,-0.0304,3.4164,3.467
24.323000,0.5258,0.0353,3.3768,3.418
24.328000,0.3844,0.0731,3.2310,3.255
24.333000,0.2293,0.1257,3.0580,3.069
24.341000,-0.0426,0.0998,2.9440,2.946
24.344000,-0.2301,0.0733,2.8623,2.872
24.347000,-0.1898,0.0740,2.7437,2.751
24.353000,-0.0728,0.0344,2.4948,2.496
24.416000,0.0320,-0.0052,2.1611,2.161
24.418000,0.2030,-0.1716,1.7973,1.817
24.419000,0.3367,-0.3810,1.3938,1.484
24.423000,0.4226,-0.6087,0.9381,1.195
24.424000,0.4828,-0.7302,0.4928,1.005
24.425000,0.5600,-0.7948,-0.0617,0.974
24.427000,0.7569,-0.8306,-0.5389,1.246
24.428000,0.9805,-0.8395,-0.9817,1.622
24.429000,1.2548,-0.8637,-1.3398,2.029
24.429000,1.5421,-0.8715,-1.6345,2.410
24.430000,1.7945,-0.8838,-1.8635,2.734
24.431000,2.0884,-0.8715,-1.9933,3.016
24.432000,2.3519,-0.7647,-2.0888,3.237
24.433000,2.6129,-0.6590,-2.1217,3.430
24.433000,2.7087,-0.5897,-2.1447,3.505
24.434000,2.7009,-0.4372,-2.2274,3.528
24.438000,2.5367,-0.3665,-2.2313,3.398
24.443000,2.3166,-0.3398,-2.1350,3.169
24.448000,2.0547,-0.2718,-2.0178,2.893
24.453000,1.7346,-0.2398,-1.8101,2.518
24.458000,1.4186,-0.2499,-1.5768,2.136
24.462000,1.1304,-0.2701,-1.3060,1.748
24.468000,0.8963,-0.2387,-1.1199,1.454
24.537000,0.7736,-0.1447,-0.9682,1.248
24.539000,0.7428,-0.0607,-0.8056,1.097
24.539000,0.7322,-0.0630,-0.7038,1.018
24.540000,0.7204,-0.0374,-0.5911,0.933
24.541000,0.7480,0.0115,-0.5510,0.929
24.543000,0.7485,0.0215,-0.5739,0.943
24.543000,0.7079,0.0285,-0.7119,1.004
24.544000,0.7202,-0.0006,-0.9288,1.175
24.545000,0.6831,-0.0247,-1.1476,1.336
24.545000,0.6451,0.0358,-1.3775,1.521
24.546000,0.6951,0.0665,-1.6995,1.837
24.547000,0.8760,-0.0015,-2.0131,2.195
24.548000,1.0989,-0.0431,-2.1462,2.412
24.549000,1.2629,-0.0956,-2.3358,2.657
24.550000,1.4106,-0.0893,-2.5033,2.875
24.550000,1.4787,-0.1148,-2.5917,2.986
24.551000,1.4667,-0.1122,-2.6015,2.989
24.558000,1.4391,-0.1513,-2.4874,2.878
24.562000,1.3245,-0.2016,-2.3332,2.690
24.567000,1.1684,-0.2587,-2.1222,2.436
24.571000,1.0497,-0.3181,-1.9958,2.277
24.576000,0.9157,-0.3515,-1.8486,2.093
24.581000,0.7761,-0.3661,-1.6351,1.847
24.586000,0.6457,-0.3620,-1.4628,1.639
24.663000,0.4939,-0.2795,-1.3745,1.487
24.666000,0.4218,-0.2667,-1.2741,1.368
24.666000,0.3556,-0.2157,-1.2212,1.290
24.666000,0.2090,-0.1503,-1.1821,1.210
24.667000,0.0181,-0.1782,-1.1236,1.138
24.667000,-0.0928,-0.2110,-1.0337,1.059
24.667000,-0.1740,-0.2298,-0.8549,0.902
24.667000,-0.2179,-0.2113,-0.7045,0.767
24.668000,-0.1961,-0.2227,-0.6518,0.716
24.668000,-0.1189,-0.2547,-0.6016,0.664
24.668000,-0.0659,-0.3123,-0.6019,0.681
24.670000,-0.0589,-0.4365,-0.6218,0.762
24.670000,-0.1434,-0.6058,-0.6661,0.912
24.671000,-0.1781,-0.7843,-0.7516,1.101
24.671000,-0.1849,-0.9621,-0.8589,1.303
24.672000,-0.1658,-1.0259,-1.0048,1.446
24.672000,-0.0850,-1.0616,-1.0862,1.521
24.675000,0.0074,-1.0588,-1.0672,1.503
24.681000,0.0898,-0.9884,-1.1296,1.504
24.686000,0.1529,-0.9693,-1.1463,1.509
24.691000,0.2210,-0.9390,-1.0863,1.453
24.695000,0.2370,-0.9692,-1.0210,1.428
24.699000,0.2634,-0.9905,-0.9169,1.375
24.771000,0.3508,-0.9192,-0.8002,1.268
24.771000,0.4176,-0.8416,-0.7212,1.184
24.772000,0.4636,-0.7217,-0.6847,1.098
24.772000,0.4193,-0.6313,-0.5904,0.961
24.772000,0.4111,-0.5466,-0.4697,0.830
24.773000,0.3269,-0.5350,-0.2411,0.672
24.773000,0.3056,-0.4724,0.0115,0.563
24.773000,0.2823,-0.3401,0.1398,0.464
24.773000,0.2665,-0.2626,0.2083,0.428
24.773000,0.1668,-0.2403,0.2743,0.401
24.774000,-0.0100,-0.2209,0.3589,0.422
24.774000,-0.2182,-0.3004,0.4215,0.562
24.774000,-0.4219,-0.3692,0.4716,0.733
24.774000,-0.5805,-0.4417,0.4687,0.867
24.775000,-0.6509,-0.4704,0.4844,0.938
24.780000,-0.6499,-0.4432,0.4615,0.912
24.785000,-0.6085,-0.4460,0.4097,0.858
24.789000,-0.5389,-0.4856,0.4078,0.832
24.795000,-0.4553,-0.5303,0.4440,0.828
24.799000,-0.3218,-0.5726,0.5351,0.847
24.808000,-0.1912,-0.5619,0.5852,0.834
24.810000,-0.0346,-0.5147,0.6759,0.850
24.815000,0.0353,-0.4259,0.7593,0.871
24.819000,0.0328,-0.3719,0.8781,0.954
24.863000,-0.0635,-0.3791,1.1497,1.212
24.864000,-0.1241,-0.4526,1.3922,1.469
24.865000,-0.2085,-0.4874,1.6320,1.716
24.866000,-0.2834,-0.5029,1.8428,1.931
24.867000,-0.3682,-0.4944,1.9646,2.059
24.868000,-0.4873,-0.5054,2.1168,2.230
24.868000,-0.5735,-0.5715,2.2875,2.427
24.870000,-0.6506,-0.5876,2.4409,2.594
24.870000,-0.6800,-0.4822,2.6490,2.777
24.871000,-0.5107,-0.4445,2.8712,2.950
24.875000,-0.3891,-0.3473,2.9665,3.012
24.879000,-0.4260,-0.2097,2.8749,2.914
24.885000,-0.6248,-0.1224,2.9928,3.060
24.894000,-0.8790,-0.0882,3.4762,3.587
24.896000,-1.1147,-0.1694,3.4192,3.600
24.898000,-1.3637,-0.3046,3.3481,3.628
24.903000,-1.5042,-0.2765,3.3993,3.728
24.963000,-1.5334,-0.2218,3.2356,3.587
24.963000,-1.3823,-0.0450,3.0700,3.367
24.964000,-1.2979,0.0533,2.9429,3.217
24.964000,-1.2400,0.0347,2.9018,3.156
24.964000,-1.0176,0.0213,2.7312,2.915
24.965000,-0.7678,0.1042,2.5410,2.656
24.965000,-0.5526,0.1304,2.4365,2.502
24.966000,-0.2767,0.1101,2.2740,2.293
24.966000,0.0455,0.1104,2.0441,2.048
24.966000,0.4520,0.1036,1.9357,1.990
24.967000,0.7917,0.1141,1.8792,2.042
24.967000,1.0836,0.2022,1.8027,2.113
24.967000,1.3063,0.3641,1.6633,2.146
24.973000,1.5197,0.5523,1.6692,2.324
24.979000,1.6450,0.7025,1.7342,2.491
24.983000,1.6419,0.9249,1.7580,2.577
24.994000,1.5204,1.0514,1.9200,2.665
24.995000,1.2959,1.1150,2.0459,2.666
25.004000,0.9099,1.2056,2.0980,2.585
25.005000,0.4277,1.3009,1.9907,2.416
25.044000,-0.0494,1.3523,1.8343,2.279
25.045000,-0.4594,1.3351,1.7007,2.210
25.045000,-0.6894,1.3160,1.4678,2.088
25.045000,-0.8207,1.2036,1.2343,1.909
25.045000,-0.9536,1.1174,0.9497,1.749
25.046000,-0.9782,0.9755,0.5904,1.502
25.046000,-0.8089,0.8500,0.2278,1.195
25.046000,-0.4582,0.7870,-0.1595,0.924
25.047000,-0.0057,0.7918,-0.5741,0.978
25.052000,0.4764,0.8392,-0.9228,1.335
25.057000,0.8537,0.8559,-1.2561,1.743
25.062000,1.1763,0.8304,-1.5023,2.081
25.067000,1.4366,0.7828,-1.7384,2.387
25.072000,1.6465,0.7513,-1.9572,2.666
25.077000,1.8175,0.7147,-2.0753,2.850
25.082000,1.8851,0.6949,-2.1981,2.978
25.086000,1.7804,0.6914,-2.3374,3.018
25.092000,1.6417,0.6903,-2.4265,3.010
25.101000,1.4452,0.6650,-2.4988,2.962
25.102000,1.2915,0.6631,-2.5355,2.922
25.137000,1.0867,0.6198,-2.5152,2.809
25.137000,0.8456,0.5156,-2.3995,2.596
25.138000,0.6663,0.4434,-2.2102,2.351
25.138000,0.5607,0.3694,-2.1386,2.242
25.138000,0.4619,0.3100,-2.0292,2.104
25.138000,0.4483,0.2557,-1.9227,1.991
25.139000,0.4149,0.2350,-1.8072,1.869
25.141000,0.4909,0.2858,-1.7234,1.815
25.146000,0.6024,0.3746,-1.6565,1.802
25.151000,0.5605,0.4128,-1.6377,1.779
25.156000,0.3957,0.3115,-1.5525,1.632
25.161000,0.3765,0.2598,-1.3912,1.464
25.166000,0.5629,0.2787,-1.2374,1.388
25.172000,0.7472,0.4376,-1.2054,1.484
25.176000,0.7050,0.4924,-1.1827,1.462
25.181000,0.5486,0.4599,-1.1669,1.369
25.186000,0.3641,0.3402,-1.1653,1.267
25.191000,0.2617,0.2554,-1.2280,1.281
25.196000,0.1387,0.2316,-1.3452,1.372
25.201000,-0.0048,0.2015,-1.4354,1.450
25.207000,-0.1353,0.1655,-1.6567,1.670
25.211000,-0.2004,0.1522,-1.8557,1.873
25.215000,-0.1482,0.1523,-1.9661,1.978
25.272000,0.0615,0.1754,-2.0238,2.032
25.272000,0.2901,0.1688,-2.0910,2.118
25.273000,0.4533,0.0731,-2.1608,2.209
25.273000,0.5315,0.0198,-2.1547,2.219
25.274000,0.6162,-0.0218,-2.2253,2.309
25.274000,0.7960,-0.0728,-2.3678,2.499
25.275000,1.1713,0.0083,-2.4123,2.682
25.276000,1.4672,0.0715,-2.4016,2.815
25.277000,1.6147,0.2134,-2.4624,2.952
25.277000,1.6493,0.2310,-2.3846,2.909
25.278000,1.6023,0.2373,-2.2113,2.741
25.279000,1.4839,0.3178,-2.0117,2.520
25.281000,1.2635,0.3574,-1.7857,2.216
25.287000,0.9150,0.3152,-1.7100,1.965
25.291000,0.5980,0.2808,-1.5317,1.668
25.295000,0.2675,0.0987,-1.4082,1.437
25.301000,0.0862,-0.0045,-1.3564,1.359
25.307000,0.0800,-0.0580,-1.2804,1.284
25.311000,0.0883,0.0509,-1.2500,1.254
25.315000,0.2085,0.1139,-1.1600,1.184
25.320000,0.3780,0.1601,-1.0181,1.098
25.370000,0.5371,0.1344,-0.7977,0.971
25.371000,0.7456,0.1231,-0.5493,0.934
25.372000,0.9411,0.1210,-0.2754,0.988
25.372000,1.0042,0.1518,-0.0429,1.016
25.372000,0.9490,0.1387,-0.0026,0.959
25.372000,0.8444,0.0912,-0.0518,0.851
25.373000,0.6979,0.0019,-0.1042,0.706
25.373000,0.5743,-0.1149,-0.2266,0.628
25.373000,0.5145,-0.1873,-0.3900,0.672
25.373000,0.4661,-0.2315,-0.5106,0.729
25.376000,0.4240,-0.2518,-0.7128,0.867
25.380000,0.3576,-0.2357,-0.9008,0.997
25.384000,0.2858,-0.2303,-1.0171,1.081
25.389000,0.1849,-0.2904,-1.1264,1.178
25.395000,0.0676,-0.3463,-1.0609,1.118
25.399000,-0.0991,-0.4433,-1.0046,1.103
25.407000,-0.2694,-0.4642,-1.0075,1.142
25.410000,-0.3187,-0.4759,-1.0073,1.159
25.415000,-0.2851,-0.4807,-1.0564,1.195
25.419000,-0.2216,-0.5192,-1.0425,1.186
25.487000,-0.1548,-0.4959,-0.9706,1.101
25.487000,-0.0755,-0.4563,-0.8672,0.983
25.487000,-0.1133,-0.3693,-0.8356,0.921
25.488000,-0.2238,-0.2662,-0.8285,0.899
25.488000,-0.4025,-0.1927,-0.7696,0.890
25.488000,-0.6180,-0.1683,-0.6684,0.926
25.489000,-0.8031,-0.1407,-0.5678,0.994
25.489000,-1.0292,-0.1296,-0.4437,1.128
25.489000,-1.1958,-0.1614,-0.2818,1.239
25.490000,-1.2981,-0.1981,-0.1084,1.318
25.490000,-1.3696,-0.1943,0.0790,1.386
25.490000,-1.4294,-0.1834,0.2778,1.468
25.491000,-1.5541,-0.1778,0.4333,1.623
25.491000,-1.6430,-0.1966,0.5525,1.744
25.495000,-1.6958,-0.2565,0.6620,1.838
25.499000,-1.7150,-0.3385,0.8170,1.930
25.505000,-1.6833,-0.3918,1.0247,2.009
25.509000,-1.6723,-0.3926,1.1873,2.088
25.514000,-1.6126,-0.3455,1.3455,2.128
25.520000,-1.4729,-0.2787,1.4539,2.088
25.525000,-1.3536,-0.2113,1.6373,2.135
25.529000,-1.3025,-0.1692,1.8499,2.269
25.533000,-1.2315,-0.1452,2.0940,2.434
25.597000,-1.2197,-0.1279,2.3166,2.621
25.598000,-1.2795,-0.1533,2.5416,2.850
25.598000,-1.3467,-0.1412,2.7207,3.039
25.599000,-1.3640,-0.1329,2.9088,3.215
25.599000,-1.4133,-0.0957,3.0530,3.366
25.599000,-1.4350,-0.0351,3.0647,3.384
25.599000,-1.4625,0.0316,3.0492,3.382
25.600000,-1.4889,0.0877,2.9633,3.317
25.600000,-1.4325,0.1855,2.8576,3.202
25.600000,-1.3102,0.1935,2.7226,3.028
25.600000,-1.1269,0.1623,2.6514,2.886
25.601000,-0.8991,0.0466,2.5606,2.714
25.601000,-0.5887,-0.0740,2.4716,2.542
25.603000,-0.2507,-0.2302,2.4276,2.451
25.609000,0.0664,-0.3758,2.3781,2.409
25.613000,0.4103,-0.4671,2.2870,2.370
25.618000,0.6968,-0.5655,2.2500,2.422
25.623000,0.8566,-0.6920,2.2215,2.479
25.627000,0.9834,-0.8125,2.2591,2.594
25.633000,1.1204,-0.8932,2.3246,2.731
25.640000,1.2137,-0.9644,2.3804,2.841
25.643000,1.2926,-0.9541,2.4219,2.906
25.647000,1.2856,-0.8640,2.4327,2.884
25.653000,1.1626,-0.7010,2.4779,2.825
25.719000,1.0439,-0.4722,2.5219,2.770
25.720000,0.8635,-0.2690,2.5771,2.731
25.720000,0.6147,-0.1227,2.6413,2.715
25.720000,0.3655,-0.0632,2.6409,2.667
25.721000,0.1112,-0.0724,2.6309,2.634
25.721000,-0.0047,-0.0482,2.5276,2.528
25.721000,-0.0925,-0.0637,2.3788,2.381
25.721000,-0.1715,-0.1145,2.0697,2.080
25.722000,-0.1808,-0.2011,1.6547,1.677
25.722000,-0.1261,-0.3045,1.2077,1.252
25.722000,0.0425,-0.4056,0.6974,0.808
25.722000,0.2952,-0.4754,0.2406,0.609
25.723000,0.6312,-0.5493,-0.1296,0.847
25.724000,1.0048,-0.5769,-0.5163,1.268
25.727000,1.3340,-0.6841,-0.8815,1.739
25.733000,1.8053,-0.7172,-1.1989,2.283
25.738000,2.2629,-0.6946,-1.5237,2.815
25.742000,2.6514,-0.6920,-1.8202,3.290
25.748000,2.9422,-0.6917,-2.0142,3.632
25.755000,3.0827,-0.7025,-2.1945,3.849
25.765000,3.0462,-0.6570,-2.3277,3.890
25.766000,2.9238,-0.6626,-2.3758,3.825
25.767000,2.6534,-0.6358,-2.3292,3.587
25.835000,2.3192,-0.6127,-2.2477,3.287
25.836000,1.9195,-0.5608,-2.0665,2.876
25.836000,1.5434,-0.4760,-1.7758,2.400
25.837000,1.1818,-0.4381,-1.5429,1.992
25.837000,0.8157,-0.4245,-1.3677,1.648
25.837000,0.4888,-0.4022,-1.1686,1.329
25.837000,0.1722,-0.4224,-1.0701,1.163
25.838000,-0.0841,-0.4405,-1.0554,1.147
25.838000,-0.2609,-0.4999,-1.0553,1.196
25.838000,-0.3416,-0.5722,-1.1151,1.299
25.839000,-0.2999,-0.6386,-1.2346,1.422
25.839000,-0.1862,-0.6653,-1.4307,1.589
25.839000,0.0397,-0.6595,-1.6961,1.820
25.839000,0.2603,-0.6584,-1.9449,2.070
25.845000,0.5663,-0.6519,-2.1913,2.355
25.846000,0.8165,-0.6179,-2.3398,2.554
25.852000,1.0562,-0.6130,-2.3809,2.676
25.857000,1.2641,-0.6318,-2.4771,2.852
25.861000,1.4092,-0.6527,-2.5423,2.979
25.867000,1.4729,-0.6653,-2.5834,3.047
25.876000,1.5011,-0.6456,-2.6360,3.101
25.876000,1.4485,-0.5881,-2.7670,3.178
25.881000,1.3247,-0.5788,-2.7873,3.140
25.887000,1.0867,-0.5913,-2.8048,3.066
25.941000,0.8259,-0.6114,-2.7929,2.976
25.941000,0.5546,-0.6132,-2.8186,2.937
25.942000,0.3418,-0.6090,-2.7813,2.868
25.942000,0.1996,-0.6232,-2.7603,2.837
25.942000,0.1156,-0.6223,-2.6742,2.748
25.943000,0.0940,-0.5542,-2.5619,2.623
25.943000,0.1704,-0.4788,-2.4281,2.481
25.943000,0.2724,-0.3797,-2.2591,2.307
25.943000,0.4353,-0.3122,-2.1076,2.175
25.944000,0.5611,-0.3242,-1.8996,2.007
25.944000,0.6977,-0.2864,-1.7212,1.879
25.946000,0.7493,-0.2086,-1.5629,1.746
25.951000,0.8117,-0.0644,-1.4246,1.641
25.956000,0.8350,0.0362,-1.2965,1.543
25.960000,0.8533,0.1458,-1.1472,1.437
25.965000,0.7282,0.1668,-1.0578,1.295
25.970000,0.5293,0.1591,-0.9828,1.128
25.978000,0.3002,0.1013,-0.9098,0.963
25.980000,0.1006,0.0555,-0.8295,0.837
25.985000,-0.0286,0.0454,-0.7727,0.775
26.034000,-0.1476,0.0182,-0.7038,0.719
26.035000,-0.2496,-0.0767,-0.6206,0.673
26.035000,-0.3397,-0.1150,-0.5186,0.630
26.035000,-0.4061,-0.1976,-0.4434,0.633
26.035000,-0.3987,-0.2673,-0.3687,0.605
26.035000,-0.3895,-0.2860,-0.3496,0.596
26.036000,-0.3118,-0.2752,-0.3001,0.513
26.036000,-0.2328,-0.3043,-0.2825,0.476
26.036000,-0.1239,-0.3419,-0.3208,0.485
26.036000,-0.0641,-0.3783,-0.3670,0.531
26.044000,0.0618,-0.3771,-0.3969,0.551
26.045000,0.1681,-0.4145,-0.4821,0.658
26.051000,0.2118,-0.4182,-0.5457,0.719
26.058000,0.3155,-0.3660,-0.5468,0.730
26.061000,0.3980,-0.3581,-0.4423,0.694
26.064000,0.4692,-0.2986,-0.3062,0.635
26.069000,0.4604,-0.2635,-0.1382,0.548
26.116000,0.3860,-0.2288,-0.0841,0.457
26.117000,0.2432,-0.2448,0.0662,0.351
26.117000,0.0730,-0.2591,0.1861,0.327
26.117000,-0.0981,-0.2624,0.3019,0.412
26.118000,-0.3035,-0.2430,0.3995,0.557
26.118000,-0.4836,-0.1965,0.4570,0.694
26.118000,-0.6504,-0.2046,0.4649,0.825
26.118000,-0.8284,-0.2510,0.5306,1.015
26.119000,-0.9436,-0.3052,0.6417,1.181
26.119000,-0.9173,-0.3197,0.7911,1.253
26.126000,-0.8692,-0.3068,0.7730,1.203
26.129000,-0.8166,-0.3385,0.7785,1.178
26.135000,-0.7572,-0.2736,0.7811,1.122
26.140000,-0.6196,-0.2749,0.8120,1.058
26.144000,-0.4901,-0.2774,0.8494,1.019
26.149000,-0.3564,-0.2549,0.9653,1.060
26.154000,-0.1944,-0.1639,1.0234,1.055
26.166000,-0.1192,-0.0714,1.0332,1.043
26.166000,-0.0641,-0.0464,1.0545,1.057
26.168000,-0.0816,-0.0195,1.1110,1.114
26.228000,-0.1710,-0.0887,1.1720,1.188
26.229000,-0.2295,-0.1894,1.1635,1.201
26.229000,-0.3527,-0.2615,1.1117,1.195
26.229000,-0.5288,-0.3509,1.0382,1.217
26.229000,-0.5718,-0.3996,1.0884,1.293
26.230000,-0.5316,-0.4222,1.1359,1.323
26.230000,-0.4562,-0.4613,1.2212,1.383
26.230000,-0.3098,-0.4473,1.3658,1.470
26.231000,-0.1522,-0.3658,1.5674,1.617
26.231000,0.0261,-0.3027,1.8450,1.870
26.231000,0.2949,-0.1790,2.1270,2.155
26.232000,0.4534,0.0102,2.3252,2.369
26.234000,0.3489,0.0928,2.3751,2.402
26.240000,0.1319,0.1287,2.4799,2.487
26.243000,-0.2887,0.0958,2.5340,2.552
26.248000,-0.7183,0.0341,2.5212,2.622
26.253000,-1.1183,-0.0473,2.4918,2.732
26.258000,-1.4625,-0.1298,2.4218,2.832
26.263000,-1.7608,-0.2019,2.3159,2.916
26.268000,-1.9468,-0.3237,2.3053,3.035
26.274000,-1.9774,-0.4024,2.3230,3.077
26.279000,-1.9293,-0.4118,2.1920,2.949
26.283000,-1.7572,-0.3377,1.9819,2.670
26.352000,-1.4374,-0.2443,1.8171,2.330
26.354000,-1.1113,-0.1885,1.6186,1.972
26.354000,-0.6401,-0.1817,1.4057,1.555
26.354000,-0.2077,-0.2137,1.2553,1.290
26.355000,0.2360,-0.2549,1.0692,1.124
26.355000,0.6835,-0.2731,0.8378,1.115
26.355000,1.1155,-0.1861,0.6688,1.314
26.356000,1.5366,-0.1080,0.6625,1.677
26.356000,1.9180,0.0269,0.6871,2.038
26.356000,2.2456,0.1977,0.8097,2.395
26.357000,2.3805,0.3828,1.1234,2.660
26.357000,2.3375,0.5007,1.5036,2.824
26.357000,2.0815,0.6319,1.8262,2.840
26.358000,1.7016,0.7397,2.0579,2.771
26.358000,1.2747,0.8756,2.2778,2.753
26.363000,0.8685,0.9787,2.4312,2.761
26.368000,0.4306,1.0289,2.4752,2.715
26.372000,-0.0001,1.0827,2.4459,2.675
26.378000,-0.3060,1.1008,2.4177,2.674
26.382000,-0.5403,1.1065,2.3068,2.615
26.387000,-0.6813,1.1064,2.1084,2.477
26.394000,-0.6910,1.0572,1.7842,2.186
26.397000,-0.5767,0.9541,1.4205,1.806
26.402000,-0.3484,0.8214,1.0531,1.380
26.478000,0.0128,0.7073,0.5841,0.917
26.479000,0.4179,0.6392,0.2142,0.793
26.479000,0.8640,0.5963,-0.2410,1.077
26.480000,1.2619,0.6181,-0.6189,1.535
26.480000,1.5898,0.7052,-0.9534,1.983
26.480000,1.8594,0.7509,-1.2229,2.349
26.480000,2.1378,0.7964,-1.4180,2.686
26.481000,2.2836,0.8253,-1.6345,2.927
26.481000,2.2801,0.8401,-1.7721,3.007
26.482000,2.2446,0.8598,-1.8285,3.020
26.482000,2.1365,0.8126,-1.8563,2.945
26.482000,1.9679,0.7891,-1.8390,2.807
26.483000,1.7795,0.8247,-1.8412,2.690
26.483000,1.4730,0.8064,-1.7985,2.461
26.483000,1.1751,0.7027,-1.7494,2.221
26.483000,0.9146,0.6831,-1.7272,2.070
26.486000,0.7084,0.6609,-1.6770,1.937
26.491000,0.5927,0.6694,-1.4575,1.710
26.496000,0.6396,0.7199,-1.2648,1.590
26.502000,0.7227,0.8481,-1.0458,1.528
26.509000,0.7966,0.9440,-0.8796,1.516
26.512000,0.8541,0.9454,-0.7589,1.483
26.516000,0.7515,0.8621,-0.7052,1.344
26.521000,0.6446,0.7318,-0.6803,1.189
26.583000,0.5815,0.5693,-0.6721,1.055
26.584000,0.5455,0.4079,-0.7519,1.015
26.584000,0.5321,0.3505,-0.8768,1.084
26.585000,0.4808,0.3281,-1.0205,1.175
26.585000,0.4244,0.2906,-1.2145,1.319
26.585000,0.3581,0.2309,-1.3894,1.453
26.585000,0.2987,0.1683,-1.4640,1.504
26.586000,0.2633,0.1030,-1.5314,1.557
26.586000,0.2637,0.0588,-1.5844,1.607
26.586000,0.3525,0.0453,-1.6470,1.685
26.587000,0.3839,0.0647,-1.6833,1.728
26.587000,0.4222,0.0838,-1.7507,1.803
26.587000,0.4461,0.0667,-1.8469,1.901
26.593000,0.4629,0.0661,-1.9165,1.973
26.596000,0.4751,0.0510,-2.0505,2.105
26.600000,0.5113,0.0529,-2.0647,2.128
26.608000,0.6095,0.0527,-2.0430,2.133
26.612000,0.6864,0.0290,-2.0331,2.146
26.615000,0.7151,0.0393,-2.0281,2.151
26.620000,0.6981,0.0236,-2.0303,2.147
26.684000,0.6664,-0.0180,-2.0041,2.112
26.685000,0.6387,-0.0043,-1.9137,2.018
26.686000,0.6993,0.0287,-1.8284,1.958
26.686000,0.7407,0.0882,-1.7120,1.867
26.686000,0.7866,0.1766,-1.5816,1.775
26.686000,0.7915,0.2297,-1.5064,1.717
26.687000,0.8030,0.2879,-1.3981,1.638
26.687000,0.7467,0.3056,-1.3095,1.538
26.687000,0.6135,0.3040,-1.2118,1.392
26.687000,0.4943,0.2326,-1.1432,1.267
26.688000,0.2887,0.1964,-1.1300,1.183
26.688000,0.1381,0.1449,-1.1099,1.128
26.688000,0.0014,0.0946,-1.1620,1.166
26.692000,-0.1068,0.0096,-1.1738,1.179
26.697000,-0.1700,-0.0790,-1.2242,1.239
26.701000,-0.2453,-0.1519,-1.3011,1.333
26.706000,-0.2276,-0.1681,-1.3471,1.377
26.710000,-0.2085,-0.1947,-1.4008,1.430
26.715000,-0.1254,-0.2836,-1.3519,1.387
26.719000,-0.0574,-0.3749,-1.3250,1.378
26.725000,0.0055,-0.3966,-1.2599,1.321
26.729000,0.0367,-0.3914,-1.1976,1.260
26.734000,0.0454,-0.3928,-1.1907,1.255
26.795000,-0.0328,-0.4628,-1.1316,1.223
26.796000,-0.2240,-0.5418,-0.8912,1.067
26.796000,-0.2816,-0.5268,-0.8019,1.000
26.796000,-0.1480,-0.4323,-0.6960,0.833
26.797000,0.0152,-0.2696,-0.8550,0.897
26.797000,-0.1559,-0.2706,-0.9582,1.008
26.797000,-0.3820,-0.3680,-0.6835,0.865
26.797000,-0.3105,-0.3417,-0.5998,0.757
26.798000,-0.1326,-0.2471,-0.5417,0.610
26.798000,0.0490,-0.0695,-0.3488,0.359
26.798000,0.1917,0.1288,-0.2648,0.351
26.798000,0.2191,0.3002,-0.1630,0.406
26.799000,0.2498,0.4370,0.0709,0.508
26.805000,0.2294,0.5196,0.2910,0.638
26.810000,0.1507,0.6002,0.5046,0.798
26.815000,0.0089,0.6016,0.6636,0.896
26.819000,-0.2251,0.5782,0.6674,0.911
26.824000,-0.4107,0.5414,0.5875,0.898
26.829000,-0.5602,0.5172,0.5506,0.940
26.833000,-0.6260,0.4455,0.4991,0.916
26.891000,-0.6612,0.4029,0.3922,0.868
26.893000,-0.6589,0.3344,0.2370,0.776
26.894000,-0.5332,0.2738,0.1411,0.616
26.895000,-0.4184,0.2933,0.0207,0.511
26.895000,-0.2806,0.3071,-0.1695,0.449
26.896000,-0.1030,0.3515,-0.2761,0.459
26.897000,0.0358,0.3696,-0.3445,0.507
26.897000,0.1147,0.3358,-0.4079,0.541
26.898000,0.1503,0.3342,-0.5119,0.630
26.900000,0.0953,0.2742,-0.6203,0.685
26.900000,-0.0764,0.1946,-0.6779,0.709
26.901000,-0.2425,0.0788,-0.7684,0.810
26.902000,-0.4311,0.0152,-0.7839,0.895
26.907000,-0.6278,-0.0439,-0.7555,0.983
26.909000,-0.7413,-0.1464,-0.7475,1.063
26.914000,-0.8864,-0.1822,-0.7743,1.191
26.919000,-0.9823,-0.1898,-0.7715,1.263
26.929000,-1.0624,-0.2072,-0.6698,1.273
26.930000,-1.1628,-0.2683,-0.5841,1.329
26.933000,-1.1883,-0.2994,-0.5004,1.324
26.941000,-1.1823,-0.3319,-0.3639,1.281
26.944000,-1.2168,-0.3401,-0.1627,1.274
26.948000,-1.2290,-0.2790,0.0003,1.260
26.953000,-1.1324,-0.1635,0.1041,1.149
27.013000,-0.9297,-0.1427,0.1795,0.958
27.014000,-0.7377,-0.1658,0.2532,0.797
27.014000,-0.5759,-0.1755,0.2414,0.649
27.015000,-0.4017,-0.2208,0.1200,0.474
27.015000,-0.3547,-0.1915,0.0442,0.406
27.016000,-0.3370,-0.1904,-0.0509,0.390
27.016000,-0.3128,-0.1549,-0.0384,0.351
27.016000,-0.3085,-0.1497,-0.0429,0.346
27.017000,-0.2955,-0.1625,-0.0501,0.341
27.017000,-0.3917,-0.2776,0.2002,0.520
27.017000,-0.3913,-0.3588,0.3561,0.639
27.017000,-0.2847,-0.2674,0.4776,0.617
27.018000,-0.1009,-0.1160,0.5671,0.588
27.022000,-0.0042,0.0073,0.6968,0.697
27.027000,-0.0115,0.0668,0.7852,0.788
27.033000,-0.0341,0.0911,0.9497,0.955
27.042000,-0.0095,0.1645,1.0923,1.105
27.045000,-0.0066,0.2650,1.1822,1.212
27.047000,-0.0608,0.4576,1.3585,1.435
27.054000,-0.2455,0.6703,1.5068,1.667
27.116000,-0.4523,0.8808,1.6919,1.960
27.116000,-0.6446,1.0190,1.8709,2.226
27.117000,-0.8414,1.0478,1.9792,2.392
27.117000,-1.0543,0.8683,2.0194,2.438
27.118000,-1.2815,0.6445,2.0292,2.485
27.118000,-1.4184,0.3995,1.9387,2.435
27.118000,-1.3464,0.2763,1.7787,2.248
27.118000,-1.1813,0.1766,1.4864,1.907
27.119000,-0.9337,0.0649,1.1955,1.518
27.119000,-0.5996,-0.0392,0.9869,1.155
27.119000,-0.1872,-0.0656,0.8313,0.855
27.119000,0.2166,-0.1239,0.6998,0.743
27.120000,0.5446,-0.1513,0.6351,0.850
27.121000,0.9044,-0.0822,0.5728,1.074
27.127000,1.2272,-0.0745,0.5061,1.330
27.132000,1.4655,-0.1462,0.4521,1.541
27.137000,1.7155,-0.1941,0.4062,1.774
27.141000,1.8896,-0.2413,0.2856,1.926
27.146000,2.0077,-0.2193,0.0885,2.022
27.151000,2.0751,-0.2233,-0.1176,2.090
27.214000,2.0614,-0.2162,-0.2629,2.089
27.216000,1.9650,-0.2239,-0.2131,1.989
27.216000,1.8945,-0.1910,-0.0755,1.906
27.217000,1.6924,-0.1198,0.0689,1.698
27.219000,1.3976,-0.0992,0.1412,1.408
27.222000,1.0011,-0.0655,0.2565,1.035
27.224000,0.6370,-0.1011,0.4052,0.762
27.226000,0.3247,-0.1467,0.5178,0.629
27.226000,0.0638,-0.1609,0.6036,0.628
27.227000,-0.1867,-0.2136,0.5572,0.625
27.228000,-0.4757,-0.2800,0.4998,0.745
27.228000,-0.6512,-0.3895,0.4522,0.883
27.229000,-0.7040,-0.4827,0.3328,0.916
27.230000,-0.5705,-0.5341,0.1817,0.802
27.231000,-0.2941,-0.5126,0.0707,0.595
27.232000,0.1104,-0.4730,-0.0483,0.488
27.236000,0.5821,-0.4052,-0.1256,0.720
27.245000,0.9887,-0.3707,-0.2284,1.080
27.247000,1.2845,-0.3447,-0.2661,1.356
27.250000,1.5604,-0.3148,-0.2722,1.615
27.306000,1.5649,-0.3118,-0.1823,1.606
27.306000,1.4607,-0.2948,-0.0852,1.493
27.307000,1.4105,-0.2545,0.1218,1.438
27.307000,1.1589,-0.2750,0.3528,1.242
27.308000,0.8382,-0.3184,0.5579,1.056
27.308000,0.7003,-0.2176,0.6992,1.013
27.310000,0.6432,-0.1424,0.7202,0.976
27.310000,0.5236,-0.1001,0.8077,0.968
27.312000,0.4308,-0.0590,0.8282,0.935
27.312000,0.4173,-0.0717,0.7411,0.854
27.313000,0.4473,-0.0924,0.7453,0.874
27.313000,0.5933,-0.0707,0.7143,0.931
27.315000,0.8191,-0.0375,0.6793,1.065
27.320000,1.1034,-0.0447,0.6166,1.265
27.325000,1.3550,-0.0298,0.5189,1.451
27.331000,1.6190,0.0004,0.4650,1.684
27.336000,1.7876,-0.0131,0.4071,1.833
27.341000,1.8966,0.0059,0.3736,1.933
27.345000,1.9360,0.0148,0.2758,1.956
27.349000,1.9080,0.0013,0.2594,1.926
27.357000,1.8461,-0.0276,0.2859,1.868
27.359000,1.7309,-0.1060,0.3193,1.763
27.365000,1.4906,-0.1840,0.3712,1.547
27.370000,1.2040,-0.2691,0.3387,1.279
27.436000,0.8735,-0.4026,0.3581,1.026
27.437000,0.5946,-0.4558,0.3932,0.846
27.437000,0.3936,-0.5033,0.3963,0.752
27.438000,0.2947,-0.4979,0.4774,0.750
27.438000,0.3361,-0.4589,0.5603,0.798
27.438000,0.3937,-0.4030,0.5970,0.821
27.439000,0.4220,-0.3689,0.5998,0.821
27.439000,0.3707,-0.4113,0.5782,0.801
27.439000,0.3476,-0.4275,0.5418,0.773
27.440000,0.3865,-0.3982,0.5077,0.752
27.440000,0.4949,-0.3661,0.4330,0.753
27.440000,0.5796,-0.3075,0.3084,0.725
27.441000,0.6696,-0.2717,0.1534,0.739
27.441000,0.7127,-0.2675,0.0279,0.762
27.444000,0.7781,-0.3472,-0.1038,0.858
27.449000,0.8661,-0.3496,-0.1867,0.952
27.454000,0.9165,-0.3372,-0.2378,1.005
27.459000,1.0299,-0.3261,-0.2260,1.104
27.464000,1.0821,-0.3207,-0.3137,1.171
27.470000,1.0469,-0.3667,-0.4507,1.197
27.475000,1.0271,-0.3608,-0.5723,1.230
27.478000,0.9697,-0.3655,-0.6336,1.215
27.484000,0.9244,-0.3229,-0.6443,1.172
27.544000,1.0012,-0.1948,-0.5711,1.169
27.545000,1.0562,-0.0103,-0.4740,1.158
27.545000,1.1561,0.2042,-0.2362,1.198
27.545000,1.2960,0.3574,-0.0395,1.345
27.546000,1.3196,0.4776,0.1683,1.413
27.546000,1.2291,0.4759,0.4419,1.390
27.546000,1.0406,0.4569,0.7092,1.340
27.546000,0.8120,0.4606,0.8674,1.274
27.546000,0.5144,0.4597,0.9022,1.136
27.547000,0.2483,0.4899,0.8402,1.004
27.547000,-0.0508,0.4386,0.7964,0.911
27.547000,-0.3665,0.2675,0.7274,0.857
27.549000,-0.6457,0.0583,0.5786,0.869
27.554000,-0.7576,-0.1149,0.5126,0.922
27.558000,-0.7600,-0.2427,0.5027,0.943
27.564000,-0.5860,-0.3128,0.5611,0.870
27.569000,-0.3263,-0.3729,0.5611,0.749
27.574000,-0.0110,-0.3814,0.5871,0.700
27.578000,0.3175,-0.3311,0.5007,0.679
27.583000,0.6267,-0.1776,0.2739,0.707
27.592000,0.8833,0.0014,-0.0213,0.884
27.594000,1.1921,0.1417,-0.1365,1.208
27.598000,1.3840,0.1820,-0.2080,1.411
27.603000,1.4979,0.2527,-0.3910,1.569
27.662000,1.4529,0.2412,-0.5252,1.564
27.663000,1.3597,0.2461,-0.5698,1.495
27.663000,1.1608,0.2550,-0.6184,1.340
27.663000,0.8209,0.2559,-0.6516,1.079
27.663000,0.4381,0.2126,-0.9063,1.029
27.664000,0.0424,0.2610,-1.0192,1.053
27.664000,-0.2385,0.2858,-0.8036,0.886
27.664000,-0.3278,0.2052,-0.8121,0.899
27.664000,-0.3652,0.1932,-0.7482,0.855
27.664000,-0.3414,0.1823,-0.4997,0.632
27.665000,-0.3589,0.1886,-0.3894,0.562
27.665000,-0.3198,0.2285,-0.3742,0.543
27.668000,-0.1912,0.2948,-0.3130,0.471
27.673000,-0.0208,0.3730,-0.2753,0.464
27.677000,0.1579,0.5112,-0.2204,0.579
27.682000,0.3466,0.6255,-0.2274,0.750
27.688000,0.4946,0.7138,-0.2271,0.898
27.693000,0.5441,0.7116,-0.2580,0.932
27.697000,0.6384,0.6550,-0.2988,0.962
27.702000,0.7180,0.5705,-0.1842,0.935
27.766000,0.7115,0.4746,-0.0935,0.860
27.767000,0.6911,0.4291,0.0306,0.814
27.767000,0.7117,0.4242,0.0735,0.832
27.767000,0.7036,0.4356,0.0996,0.833
27.767000,0.6571,0.3797,0.1089,0.767
27.768000,0.5146,0.3280,0.0464,0.612
27.769000,0.3719,0.2351,0.0054,0.440
27.771000,0.1934,0.1178,-0.0332,0.229
27.772000,0.0410,0.0430,-0.0957,0.113
27.773000,-0.0084,-0.0369,-0.1580,0.163
27.773000,0.0167,-0.0787,-0.0934,0.123
27.774000,0.3320,-0.2283,0.4617,0.613
27.775000,0.6579,-0.4075,1.0502,1.305
27.775000,0.8919,-0.4739,1.4859,1.797
27.778000,0.9240,-0.3587,1.4459,1.753
27.782000,0.7999,-0.1575,0.8234,1.159
27.788000,0.5368,0.1193,-0.2877,0.621
27.792000,0.3112,0.3069,-1.2822,1.355
27.797000,0.2177,0.3643,-1.8238,1.873
27.802000,0.1910,0.2739,-1.8965,1.926
27.806000,0.2210,0.1747,-1.7187,1.742
27.811000,0.1593,0.0711,-1.3649,1.376
27.816000,0.0873,0.0933,-0.7993,0.809
27.875000,0.0194,0.2040,-0.2922,0.357
27.876000,0.0994,0.2768,0.1351,0.324
27.876000,0.1937,0.3874,0.5405,0.693
27.876000,0.2217,0.4274,0.7520,0.893
27.877000,0.1760,0.3413,0.8345,0.919
27.877000,0.0585,0.2728,0.8907,0.933
27.877000,-0.0036,0.2522,0.9518,0.985
27.877000,-0.0581,0.2197,0.9415,0.968
27.878000,-0.2080,0.1918,0.9553,0.996
27.878000,-0.3357,0.1040,0.8881,0.955
27.878000,-0.4416,-0.0009,0.6849,0.815
27.879000,-0.5283,-0.1056,0.5921,0.801
27.881000,-0.5802,-0.1552,0.6044,0.852
27.885000,-0.5332,-0.1548,0.6353,0.844
27.890000,-0.5179,-0.1682,0.4318,0.695
27.896000,-0.5669,-0.1445,0.0064,0.585
27.901000,-0.3594,0.0182,-0.2246,0.424
27.907000,0.1114,0.1698,-0.1515,0.253
27.911000,0.5392,0.1717,0.0317,0.567
27.916000,0.6827,0.1130,0.0977,0.699
27.925000,0.6146,0.0583,0.0206,0.618
27.988000,0.4663,0.1104,0.0681,0.484
27.989000,0.3424,0.1801,0.1898,0.431
27.989000,0.2306,0.2387,0.2945,0.444
27.989000,0.1091,0.2354,0.3033,0.399
27.990000,0.1380,0.3114,0.0728,0.348
27.990000,0.2573,0.3713,-0.2557,0.519
27.990000,0.4428,0.4281,-0.6247,0.877
27.990000,0.6278,0.4231,-0.9362,1.204
27.991000,0.7520,0.4045,-1.2216,1.490
27.991000,0.6580,0.3967,-1.9111,2.060
27.991000,0.3038,0.2063,-3.1268,3.148
27.992000,0.0310,-0.0851,-1.7549,1.757
27.992000,0.0530,-0.2926,-0.6079,0.677
27.992000,0.0538,-0.4418,-0.5453,0.704
27.995000,-0.0875,-0.3473,0.2135,0.417
28.000000,-0.1061,-0.1960,1.0714,1.094
28.005000,-0.1617,0.0171,1.4658,1.475
28.010000,-0.2280,0.2078,1.5263,1.557
28.014000,-0.0602,0.3167,1.3301,1.369
28.019000,0.0247,0.3572,0.8518,0.924
28.024000,-0.0916,0.4574,0.3238,0.568
28.030000,-0.1001,0.5927,-0.1077,0.611
28.035000,-0.0637,0.5439,-0.3668,0.659
28.042000,0.0198,0.3982,-0.4727,0.618
