time,ax,ay,az,aT
0.004000,0.0587,-0.2892,-0.1740,0.343
0.004000,0.0821,-0.2693,-0.3026,0.413
0.005000,0.0542,-0.2468,-0.3526,0.434
0.005000,-0.0517,-0.2051,-0.3218,0.385
0.005000,-0.1689,-0.1469,-0.2415,0.329
0.010000,-0.1919,-0.1418,-0.1213,0.268
0.011000,-0.1946,-0.1735,-0.0207,0.262
0.020000,-0.1767,-0.1654,0.0126,0.242
0.021000,-0.1855,-0.1244,0.0099,0.224
0.032000,-0.1992,-0.0932,0.0096,0.220
0.032000,-0.1934,-0.0385,0.0884,0.216
0.035000,-0.1941,-0.0319,0.1077,0.224
0.040000,-0.1913,0.0156,0.1297,0.232
0.065000,-0.2355,0.0297,0.1257,0.269
0.066000,-0.2882,0.0440,0.1507,0.328
0.066000,-0.2685,0.0153,0.1329,0.300
0.066000,-0.2148,-0.0517,0.0652,0.230
0.066000,-0.0959,-0.0850,-0.0620,0.142
0.075000,-0.1922,-0.1254,-0.1029,0.251
0.075000,-0.2690,-0.1847,-0.1007,0.342
0.085000,-0.2622,-0.2944,-0.1893,0.437
0.085000,-0.1768,-0.3564,-0.2588,0.475
0.090000,-0.1542,-0.4065,-0.3308,0.546
0.103000,-0.1848,-0.3990,-0.4125,0.603
0.104000,-0.2258,-0.4344,-0.4824,0.687
0.105000,-0.2413,-0.4384,-0.4475,0.671
0.119000,-0.2386,-0.4422,-0.3987,0.641
0.120000,-0.2366,-0.4124,-0.3526,0.592
0.120000,-0.2518,-0.3514,-0.2996,0.526
0.136000,-0.2576,-0.3261,-0.2419,0.481
0.137000,-0.2564,-0.3271,-0.1390,0.438
0.137000,-0.3364,-0.3497,-0.0912,0.494
0.141000,-0.4306,-0.3772,0.0810,0.578
0.153000,-0.4432,-0.3833,0.1120,0.597
0.153000,-0.3617,-0.3755,0.0716,0.526
0.156000,-0.3058,-0.3749,0.0100,0.484
0.160000,-0.3571,-0.3337,0.0013,0.489
0.165000,-0.3888,-0.3162,-0.0598,0.505
0.170000,-0.3967,-0.3152,-0.0660,0.511
0.175000,-0.3834,-0.2878,-0.0389,0.481
0.191000,-0.4301,-0.3537,-0.0333,0.558
0.192000,-0.5177,-0.3837,-0.0303,0.645
0.192000,-0.5457,-0.3996,-0.0680,0.680
0.196000,-0.5045,-0.4274,-0.1153,0.671
0.200000,-0.4130,-0.4580,-0.2007,0.649
0.205000,-0.2956,-0.4598,-0.2789,0.614
0.209000,-0.2765,-0.4878,-0.3690,0.671
0.214000,-0.4605,-0.5347,-0.3322,0.780
0.219000,-0.4506,-0.6220,-0.3434,0.841
0.225000,-0.3834,-0.5850,-0.3664,0.790
0.230000,-0.3904,-0.5816,-0.3512,0.784
0.234000,-0.4387,-0.6046,-0.4271,0.860
0.239000,-0.4251,-0.6324,-0.5030,0.913
0.245000,-0.3572,-0.6214,-0.4859,0.866
0.249000,-0.4522,-0.6341,-0.3469,0.853
0.254000,-0.4707,-0.6132,-0.3302,0.841
0.268000,-0.4245,-0.6067,-0.3062,0.801
0.269000,-0.3951,-0.6191,-0.2369,0.772
0.269000,-0.4161,-0.6556,-0.1629,0.793
0.275000,-0.4416,-0.6586,-0.1247,0.803
0.280000,-0.4646,-0.6403,-0.1248,0.801
0.284000,-0.4227,-0.5816,-0.1128,0.728
0.289000,-0.4620,-0.5665,-0.1317,0.743
0.295000,-0.4917,-0.5540,-0.2128,0.771
0.299000,-0.4856,-0.5367,-0.3631,0.810
0.304000,-0.4487,-0.5192,-0.4489,0.820
0.311000,-0.4948,-0.5788,-0.4335,0.876
0.314000,-0.4908,-0.5998,-0.4254,0.884
0.320000,-0.3607,-0.6491,-0.4293,0.858
0.323000,-0.3358,-0.6649,-0.5160,0.906
0.331000,-0.3038,-0.6472,-0.6185,0.945
0.334000,-0.2333,-0.6719,-0.6202,0.944
0.339000,-0.3275,-0.7464,-0.5931,1.008
0.356000,-0.3523,-0.7967,-0.5900,1.052
0.359000,-0.3199,-0.8302,-0.5773,1.061
0.359000,-0.2899,-0.8544,-0.5408,1.052
0.360000,-0.2741,-0.8211,-0.5233,1.012
0.383000,-0.0960,-0.7879,-0.6232,1.009
0.384000,0.0570,-0.7427,-0.7304,1.043
0.384000,-0.2432,-0.7546,-0.6371,1.017
0.384000,-0.3716,-0.7234,-0.6780,1.059
0.387000,-0.1686,-0.6801,-0.7121,0.999
0.389000,-0.0149,-0.6942,-0.6701,0.965
0.394000,0.0783,-0.7225,-0.8580,1.124
0.398000,0.1157,-0.7838,-0.9382,1.228
0.404000,0.1468,-0.8037,-0.8659,1.191
0.411000,0.1952,-0.7970,-0.7729,1.127
0.414000,-0.2870,-1.0368,-0.6542,1.259
0.418000,-1.8945,-2.0624,-0.4844,2.842
0.423000,-1.5779,-1.5383,0.1144,2.207
0.429000,-1.0840,-1.0092,-0.1435,1.488
0.433000,-0.7153,-1.1343,-1.0016,1.674
0.438000,-0.8116,-1.5851,-2.1033,2.756
0.445000,-0.5700,-1.3902,-2.2025,2.666
0.448000,-0.5624,-1.8345,-1.3026,2.319
0.454000,-0.7016,-2.2116,-0.9348,2.501
0.461000,-0.6026,-2.0013,-1.4164,2.525
0.464000,-0.3561,-1.7711,-1.2802,2.214
0.470000,-0.1659,-1.6723,-1.3281,2.142
0.474000,-0.0350,-1.7047,-1.4955,2.268
0.489000,0.0827,-1.7578,-1.5979,2.377
0.492000,0.1420,-1.8547,-1.7958,2.586
0.493000,0.1245,-1.8847,-2.0698,2.802
0.493000,0.1118,-1.8545,-2.2810,2.942
0.535000,0.0431,-1.8478,-2.4848,3.097
0.536000,0.0052,-1.7873,-2.5306,3.098
0.537000,-0.0936,-1.6833,-2.5525,3.059
0.537000,-0.2361,-1.5717,-2.5481,3.003
0.538000,-0.3146,-1.5197,-2.4481,2.899
0.539000,-0.3590,-1.4467,-2.3889,2.816
0.539000,-0.5397,-1.4800,-2.4661,2.926
0.540000,-0.5588,-1.6672,-2.6202,3.156
0.540000,-0.8396,-1.5945,-2.5285,3.105
0.545000,-1.1354,-1.5252,-2.5112,3.150
0.547000,-1.1469,-1.4859,-2.7952,3.367
0.552000,-1.0589,-1.4112,-2.9401,3.429
0.557000,-0.8863,-1.2863,-2.8435,3.244
0.563000,-0.7065,-1.2782,-2.7687,3.130
0.568000,-0.5995,-1.3336,-2.6558,3.032
0.573000,-0.6384,-1.3975,-2.5767,3.000
0.589000,-0.6413,-1.4743,-2.4495,2.930
0.590000,-0.6061,-1.5686,-2.4179,2.945
0.590000,-0.5053,-1.5795,-2.3643,2.888
0.592000,-0.3641,-1.5493,-2.2959,2.794
0.598000,-0.1254,-1.4349,-2.1483,2.586
0.602000,-0.0058,-1.2623,-2.0339,2.394
0.606000,0.0818,-1.0317,-1.8688,2.136
0.626000,0.1318,-0.7814,-1.4380,1.642
0.627000,0.2415,-0.5456,-1.0023,1.166
0.627000,0.2474,-0.3680,-0.7339,0.857
0.627000,0.1997,-0.2494,-0.3837,0.499
0.632000,0.1156,-0.1667,0.0075,0.203
0.636000,0.0105,-0.1659,0.3418,0.380
0.641000,0.0266,-0.1257,0.6409,0.654
0.646000,0.3085,-0.0485,0.8473,0.903
0.652000,0.3329,0.0180,1.2312,1.276
0.656000,0.4957,0.1361,1.6252,1.705
0.661000,0.8821,0.3703,2.1008,2.308
0.666000,1.1844,0.7325,2.6651,3.007
0.671000,1.4164,1.0782,3.1170,3.590
0.688000,1.6309,1.2656,3.4975,4.061
0.690000,1.9056,1.3470,3.9524,4.590
0.692000,2.1148,1.4127,4.2283,4.934
0.693000,2.2421,1.4649,4.4113,5.161
0.696000,2.3286,1.5013,4.5709,5.345
0.701000,2.3956,1.5046,4.5087,5.323
0.705000,2.4479,1.4902,4.2917,5.161
0.721000,2.3982,1.4512,3.9822,4.870
0.723000,2.3681,1.4338,3.5205,4.479
0.723000,2.3215,1.4129,3.0477,4.083
0.732000,2.1662,1.4515,2.7478,3.788
0.733000,2.0289,1.5168,2.5320,3.582
0.737000,1.8731,1.5658,2.3069,3.359
0.742000,1.7270,1.5895,2.1037,3.152
0.747000,1.6024,1.5999,1.8576,2.929
0.752000,1.4387,1.6161,1.6215,2.704
0.757000,1.3341,1.6453,1.4503,2.567
0.760000,1.2737,1.6778,1.2316,2.440
0.766000,1.1928,1.7040,1.0349,2.323
0.770000,0.9937,1.7239,0.8361,2.158
0.792000,0.7147,1.7017,0.5157,1.916
0.793000,0.3662,1.6044,0.2508,1.665
0.793000,0.0412,1.5638,0.0076,1.564
0.793000,-0.1595,1.5445,-0.2116,1.567
0.795000,-0.3050,1.5922,-0.3448,1.657
0.801000,-0.4075,1.6446,-0.4422,1.751
0.805000,-0.4186,1.7138,-0.4634,1.824
0.811000,-0.3498,1.8136,-0.4085,1.892
0.819000,-0.1849,1.8195,-0.3230,1.857
0.820000,-0.0071,1.8362,-0.2689,1.856
0.825000,0.2884,1.9756,-0.2246,2.009
0.835000,0.4702,1.9959,-0.2333,2.064
0.836000,0.5984,2.0332,-0.2995,2.140
0.840000,0.7685,2.0900,-0.3084,2.248
0.845000,0.9474,2.1066,-0.3392,2.335
0.850000,1.1278,2.1405,-0.2484,2.432
0.855000,1.3001,2.2321,-0.1890,2.590
0.860000,1.3595,2.3049,-0.0823,2.677
0.865000,1.3583,2.2987,0.0288,2.670
0.870000,1.2399,2.2612,0.0367,2.579
0.875000,1.0735,2.2091,-0.0562,2.457
0.883000,0.9187,2.1283,-0.1636,2.324
0.885000,0.7586,2.0622,-0.3477,2.225
0.889000,0.6576,2.0421,-0.4626,2.195
0.913000,0.5582,2.0016,-0.6449,2.176
0.915000,0.5032,1.9245,-0.8251,2.154
0.915000,0.5620,1.8350,-0.9317,2.133
0.916000,0.6819,1.7669,-1.0197,2.151
0.916000,0.8434,1.7729,-1.0175,2.211
0.920000,0.9838,1.7595,-0.9106,2.212
0.925000,1.0984,1.8031,-0.7638,2.245
0.930000,1.1419,1.8792,-0.5818,2.275
0.934000,1.1406,1.9371,-0.3644,2.277
0.939000,1.1422,1.9884,-0.1524,2.298
0.945000,1.1055,2.0110,0.0547,2.295
0.949000,1.0128,1.9946,0.3503,2.264
0.954000,0.8275,1.9771,0.5625,2.216
0.961000,0.6858,1.9723,0.9020,2.275
0.964000,0.6303,2.0610,1.2803,2.507
0.970000,0.5891,2.1830,1.6425,2.795
0.974000,0.4348,2.2587,1.8261,2.937
0.980000,0.2454,2.2641,1.9967,3.029
0.983000,-0.0443,2.1251,2.1354,3.013
0.989000,-0.3414,1.9136,2.0678,2.838
1.000000,-0.6789,1.6278,1.8585,2.562
1.001000,-0.8825,1.3951,1.5699,2.278
1.004000,-0.9376,1.3053,1.1660,1.986
1.028000,-0.8476,1.2656,0.7258,1.687
1.029000,-0.6451,1.2505,0.4165,1.467
1.030000,-0.4667,1.2295,0.1638,1.325
1.030000,-0.3504,1.2028,-0.0706,1.255
1.030000,-0.3546,1.1256,-0.1795,1.194
1.033000,-0.3229,1.0388,-0.4528,1.178
1.039000,-0.2700,1.0141,-0.4474,1.141
1.044000,-0.1946,1.0439,-0.3388,1.115
1.048000,-0.2035,1.0871,-0.2633,1.137
1.053000,-0.2781,1.1311,-0.1081,1.170
1.058000,-0.3867,1.1536,0.0429,1.217
1.064000,-0.5714,1.1398,0.0054,1.275
1.068000,-0.7730,1.0918,-0.1410,1.345
1.073000,-0.9550,0.9997,-0.1454,1.390
1.079000,-1.2046,0.9330,-0.1843,1.535
1.083000,-1.4803,0.8151,-0.2198,1.704
1.088000,-1.7095,0.7253,-0.2117,1.869
1.100000,-1.8541,0.6873,-0.2243,1.990
1.100000,-1.8724,0.6534,-0.2918,2.004
1.107000,-1.7626,0.5999,-0.4115,1.907
1.108000,-1.7155,0.5820,-0.6124,1.912
1.129000,-1.6345,0.6576,-0.8616,1.961
1.131000,-1.5252,0.7026,-1.0367,1.973
1.131000,-1.3489,0.7482,-1.1333,1.914
1.132000,-1.1998,0.7443,-1.2374,1.877
1.133000,-1.1639,0.7026,-1.3824,1.939
1.138000,-1.1360,0.6279,-1.4080,1.915
1.144000,-1.0882,0.6348,-1.4121,1.892
1.148000,-1.0750,0.6207,-1.3829,1.858
1.153000,-1.0200,0.6189,-1.3660,1.814
1.159000,-0.8941,0.6582,-1.3089,1.716
1.163000,-0.7592,0.7025,-1.2597,1.630
1.168000,-0.6470,0.7850,-1.1797,1.558
1.172000,-0.6046,0.7977,-1.1101,1.495
1.179000,-0.5485,0.8052,-1.0721,1.449
1.182000,-0.4997,0.7571,-1.0278,1.371
1.187000,-0.4263,0.7443,-1.0731,1.374
1.195000,-0.2884,0.7286,-1.1241,1.370
1.197000,-0.2174,0.7009,-1.2264,1.429
1.203000,-0.2022,0.7069,-1.3078,1.500
1.207000,-0.2097,0.7110,-1.3227,1.516
1.214000,-0.2668,0.7248,-1.3164,1.526
1.217000,-0.2575,0.6789,-1.1828,1.388
1.222000,-0.0837,0.5967,-1.1517,1.300
1.236000,0.0467,0.4967,-1.1440,1.248
1.237000,0.0807,0.5005,-1.1043,1.215
1.238000,0.0673,0.4959,-1.1697,1.272
1.269000,0.0619,0.4589,-1.2995,1.380
1.270000,0.1346,0.4428,-1.4799,1.551
1.271000,0.1922,0.4524,-1.6177,1.691
1.271000,0.3132,0.4283,-1.7345,1.814
1.272000,0.3909,0.3922,-1.7446,1.830
1.273000,0.3437,0.3468,-1.6841,1.753
1.273000,0.3228,0.2946,-1.6848,1.741
1.279000,0.3280,0.2284,-1.6558,1.703
1.282000,0.2889,0.2705,-1.5701,1.619
1.287000,0.2246,0.3294,-1.3633,1.420
1.294000,0.2471,0.3958,-1.1117,1.206
1.298000,0.3754,0.4381,-0.8128,0.997
1.301000,0.4630,0.4679,-0.3996,0.770
1.306000,0.5791,0.5948,0.0973,0.836
1.311000,0.6643,0.7607,0.4957,1.125
1.316000,0.7567,0.9390,0.7722,1.432
1.321000,0.7296,1.0505,1.0272,1.640
1.331000,0.6937,1.1500,1.2606,1.842
1.332000,0.7211,1.1728,1.4461,1.997
1.336000,0.8001,1.1908,1.5856,2.138
1.341000,0.8974,1.0678,1.6362,2.150
1.361000,0.8698,0.9819,1.5640,2.041
1.363000,0.8156,0.8571,1.5699,1.966
1.363000,0.7395,0.7726,1.5961,1.921
1.364000,0.7022,0.6265,1.4746,1.749
1.366000,0.6516,0.4552,1.3102,1.532
1.371000,0.6587,0.2623,1.2131,1.405
1.377000,0.7522,0.0508,1.1877,1.407
1.384000,0.9319,-0.1739,1.1621,1.500
1.386000,1.2577,-0.3345,1.1359,1.727
1.391000,1.7240,-0.3708,1.1858,2.125
1.397000,2.2227,-0.2232,1.2715,2.570
1.402000,2.6859,0.0030,1.4506,3.053
1.406000,3.0611,0.1423,1.8284,3.568
1.411000,3.4270,0.1368,2.2928,4.126
1.415000,3.7500,0.1269,2.8607,4.718
1.421000,4.1385,0.0690,3.4695,5.401
1.433000,4.4942,0.0527,4.0648,6.060
1.437000,4.6429,0.0770,4.6348,6.561
1.438000,4.5793,-0.0392,5.1205,6.870
1.440000,4.4349,-0.2397,5.4367,7.020
1.466000,4.1839,-0.4249,5.5716,6.981
1.467000,3.9994,-0.5207,5.5130,6.831
1.468000,3.9174,-0.5178,5.1439,6.486
1.468000,3.8422,-0.4616,4.6271,6.032
1.469000,3.7498,-0.4754,3.9675,5.480
1.470000,3.6950,-0.5229,3.2824,4.970
1.478000,3.5884,-0.5553,2.5913,4.461
1.481000,3.2739,-0.7369,2.0498,3.932
1.485000,2.8939,-0.8827,1.5888,3.417
1.490000,2.4598,-0.9588,1.1464,2.878
1.496000,2.0836,-1.0033,0.7298,2.425
1.500000,1.6906,-1.0587,0.4706,2.049
1.505000,1.2095,-1.0843,0.2512,1.644
1.510000,0.7501,-1.1474,0.0860,1.374
1.515000,0.3718,-1.2882,-0.0847,1.343
1.520000,-0.0228,-1.3774,-0.2063,1.393
1.527000,-0.4545,-1.3891,-0.2387,1.481
1.530000,-0.7644,-1.3113,-0.3283,1.553
1.535000,-1.0476,-1.2785,-0.3773,1.695
1.539000,-1.2347,-1.2785,-0.4360,1.830
1.554000,-1.3610,-1.2850,-0.5047,1.939
1.555000,-1.4599,-1.2979,-0.7008,2.075
1.556000,-1.6056,-1.2714,-0.8090,2.202
1.581000,-1.7575,-1.1814,-0.8316,2.275
1.582000,-1.8587,-1.1047,-0.8355,2.318
1.582000,-1.8304,-1.0917,-0.8373,2.290
1.583000,-1.8026,-1.0637,-0.7291,2.216
1.583000,-1.8868,-1.0042,-0.5818,2.215
1.584000,-1.9663,-0.9398,-0.4789,2.231
1.589000,-2.0511,-0.8253,-0.4367,2.254
1.594000,-2.1273,-0.7588,-0.3977,2.293
1.599000,-2.2526,-0.7718,-0.3161,2.402
1.604000,-2.3887,-0.7850,-0.3306,2.536
1.614000,-2.4879,-0.8342,-0.4508,2.662
1.615000,-2.4786,-0.7730,-0.6120,2.668
1.619000,-2.3995,-0.7447,-0.7567,2.624
1.624000,-2.3321,-0.7300,-0.9280,2.614
1.628000,-2.2088,-0.7645,-1.1357,2.599
1.633000,-1.9769,-0.7712,-1.3727,2.527
1.638000,-1.5669,-0.7096,-1.4908,2.276
1.653000,-1.0748,-0.6036,-1.5667,1.994
1.654000,-0.6200,-0.5613,-1.6051,1.810
1.655000,-0.2787,-0.5710,-1.5702,1.694
1.687000,-0.0628,-0.4893,-1.4715,1.552
1.688000,0.1082,-0.4367,-1.3575,1.430
1.689000,0.0844,-0.3030,-1.2140,1.254
1.689000,0.1085,-0.1888,-1.1541,1.174
1.689000,0.1026,-0.1559,-1.1640,1.179
1.690000,-0.0272,-0.1199,-1.2626,1.269
1.690000,-0.1636,-0.1497,-1.4355,1.453
1.697000,-0.4237,-0.2092,-1.5152,1.587
1.699000,-0.7533,-0.1735,-1.4585,1.651
1.703000,-1.0611,-0.1172,-1.3517,1.722
1.711000,-1.1683,-0.1051,-1.2902,1.744
1.714000,-1.0869,-0.0348,-1.2619,1.666
1.719000,-1.0132,0.0618,-1.1829,1.559
1.723000,-0.9603,0.0933,-1.0212,1.405
1.729000,-0.7890,0.0708,-0.7269,1.075
1.734000,-0.4788,0.0754,-0.7959,0.932
1.738000,-0.0640,-0.0201,-0.7649,0.768
1.751000,0.9204,-0.5101,-0.8881,1.377
1.755000,2.4825,-1.3677,-1.0202,3.012
1.756000,1.9529,-0.8552,-1.5425,2.631
1.758000,0.9334,-0.1215,-1.8270,2.055
1.783000,0.1275,0.4083,-2.0716,2.115
1.784000,-0.2829,0.9279,-2.1754,2.382
1.785000,-0.2781,1.2826,-2.0948,2.472
1.785000,-0.1715,1.4406,-2.0069,2.476
1.786000,-0.4916,1.2671,-1.6939,2.172
1.788000,-0.9835,0.8928,-1.1731,1.772
1.795000,-1.3607,0.5727,-0.6393,1.609
1.798000,-1.5860,0.3397,-0.3996,1.670
1.803000,-1.6462,0.3230,-0.5358,1.761
1.808000,-1.5800,0.5180,-0.8970,1.889
1.813000,-1.3160,0.7410,-1.2772,1.978
1.818000,-1.0846,0.9256,-1.6355,2.170
1.823000,-0.9220,1.0672,-1.8187,2.301
1.828000,-0.7328,1.0847,-1.7791,2.209
1.833000,-0.5693,0.9800,-1.6508,2.002
1.837000,-0.4784,0.8533,-1.5468,1.830
1.844000,-0.4266,0.7234,-1.5147,1.732
1.847000,-0.4023,0.6065,-1.4824,1.651
1.853000,-0.4323,0.5788,-1.5760,1.734
1.857000,-0.5290,0.5776,-1.7208,1.891
1.862000,-0.6907,0.5603,-1.8183,2.024
1.868000,-0.9491,0.5152,-2.0091,2.281
1.872000,-1.1776,0.4284,-2.1856,2.519
1.883000,-1.2951,0.4131,-2.3118,2.682
1.885000,-1.4043,0.3979,-2.3378,2.756
1.887000,-1.5950,0.3970,-2.3674,2.882
1.920000,-1.7448,0.4775,-2.3482,2.964
1.922000,-1.8812,0.5486,-2.2545,2.987
1.923000,-1.9798,0.6369,-2.1874,3.018
1.924000,-2.0337,0.6686,-2.0677,2.976
1.924000,-2.0833,0.7302,-1.9100,2.919
1.928000,-2.0435,0.7619,-1.7783,2.814
1.928000,-1.9386,0.7350,-1.5742,2.603
1.929000,-1.7459,0.7807,-1.3185,2.323
1.933000,-1.6055,0.7527,-1.0678,2.070
1.937000,-1.5109,0.7321,-0.9960,1.952
1.943000,-1.4052,0.6493,-0.8481,1.765
1.947000,-1.2264,0.5353,-0.6894,1.505
1.953000,-0.9892,0.4972,-0.4842,1.208
1.957000,-0.7005,0.5058,-0.3139,0.919
1.962000,-0.5144,0.5538,-0.1578,0.772
1.967000,-0.4685,0.5622,0.0244,0.732
1.972000,-0.5765,0.5862,0.2181,0.851
1.993000,-0.6362,0.6256,0.3580,0.961
1.994000,-0.6330,0.6951,0.4894,1.060
1.994000,-0.6046,0.7536,0.5977,1.136
1.995000,-0.5820,0.7632,0.7331,1.208
2.003000,-0.5341,0.7719,0.9624,1.344
2.004000,-0.5007,0.7647,1.1465,1.466
2.006000,-0.4747,0.7683,1.2639,1.553
2.017000,-0.4219,0.7345,1.2404,1.502
2.017000,-0.3733,0.6134,1.1716,1.374
2.022000,-0.3960,0.5131,1.0647,1.246
2.026000,-0.4846,0.3838,0.9792,1.158
2.038000,-0.4645,0.2766,0.9173,1.065
2.038000,-0.3107,0.0891,0.8806,0.938
2.041000,-0.0415,-0.0293,0.9377,0.939
2.051000,0.4989,-0.0662,1.0378,1.153
2.052000,1.2075,-0.0567,1.2142,1.713
2.055000,2.0246,-0.0867,1.4641,2.500
2.061000,2.8678,-0.0890,1.8621,3.420
2.066000,3.6719,-0.1000,2.3772,4.375
2.071000,4.3290,-0.1157,2.9980,5.267
2.079000,4.8122,-0.1350,3.6555,6.045
2.081000,5.0514,-0.2452,4.2311,6.594
2.085000,5.0295,-0.3826,4.6871,6.886
2.090000,4.9240,-0.5020,5.0117,7.044
2.102000,4.7411,-0.5319,5.1123,6.993
2.104000,4.5200,-0.4414,5.0854,6.818
2.105000,4.1577,-0.3239,4.9360,6.462
2.111000,3.6202,-0.2463,4.8367,6.047
2.115000,3.0065,-0.2634,4.6698,5.560
2.120000,2.3120,-0.4180,4.5022,5.078
2.125000,1.6669,-0.5585,4.2305,4.581
2.131000,1.2559,-0.7060,3.9215,4.178
2.135000,1.1628,-0.8407,3.5796,3.856
2.140000,1.3540,-0.8948,3.2092,3.596
2.145000,1.7608,-0.9374,2.8864,3.509
2.150000,2.3407,-0.8965,2.6660,3.659
2.154000,2.9149,-0.8200,2.6047,3.994
2.160000,3.4761,-0.6893,2.5640,4.374
2.165000,3.9071,-0.5890,2.5442,4.699
2.170000,4.0908,-0.5554,2.5381,4.846
2.174000,4.1251,-0.5676,2.5056,4.860
2.185000,3.9544,-0.5591,2.3848,4.652
2.187000,3.5990,-0.4871,2.2507,4.273
2.190000,3.1547,-0.4403,2.0004,3.761
2.214000,2.6610,-0.3679,1.6797,3.168
2.215000,2.0802,-0.2958,1.4063,2.528
2.215000,1.4863,-0.2931,1.1609,1.909
2.216000,0.9732,-0.2950,1.0254,1.444
2.216000,0.4898,-0.3279,1.0116,1.171
2.220000,0.1076,-0.4015,0.9690,1.054
2.224000,-0.0923,-0.4251,0.9022,1.002
2.229000,-0.1239,-0.3941,0.7993,0.900
2.235000,-0.0586,-0.4139,0.6769,0.796
2.239000,0.0627,-0.4080,0.4538,0.613
2.246000,0.2002,-0.4001,0.2900,0.533
2.250000,0.3171,-0.3876,0.1133,0.513
2.254000,0.4142,-0.4110,-0.0933,0.591
2.261000,0.4976,-0.4149,-0.3255,0.725
2.264000,0.5029,-0.4348,-0.4925,0.827
2.269000,0.4598,-0.3988,-0.6473,0.888
2.274000,0.4455,-0.3595,-0.7448,0.939
2.279000,0.4580,-0.3145,-0.8400,1.007
2.284000,0.4718,-0.2498,-0.8902,1.038
2.289000,0.4868,-0.2038,-0.8427,0.994
2.301000,0.5083,-0.2082,-0.8532,1.015
2.301000,0.3762,-0.2632,-0.8186,0.939
2.304000,0.2218,-0.3068,-0.8561,0.936
2.308000,0.1556,-0.3124,-0.9562,1.018
2.330000,0.1482,-0.3140,-0.9822,1.042
2.331000,0.0966,-0.3548,-1.0322,1.096
2.332000,0.0825,-0.4131,-1.2307,1.301
2.332000,0.0744,-0.4455,-1.3909,1.462
2.334000,-0.0210,-0.4710,-1.5489,1.619
2.339000,-0.1821,-0.4990,-1.6471,1.731
2.345000,-0.3297,-0.4620,-1.8319,1.918
2.348000,-0.5426,-0.4485,-1.9526,2.076
2.354000,-0.7439,-0.4483,-2.0453,2.222
2.359000,-0.8855,-0.4612,-2.1055,2.330
2.364000,-0.9814,-0.4319,-2.1478,2.401
2.369000,-1.0270,-0.4200,-2.1627,2.431
2.373000,-1.0724,-0.3563,-2.1647,2.442
2.380000,-1.0244,-0.2982,-2.0795,2.337
2.385000,-0.8972,-0.1790,-1.8929,2.102
2.388000,-0.7558,-0.0375,-1.7531,1.909
2.399000,-0.6336,0.0443,-1.5570,1.682
2.400000,-0.5335,0.1308,-1.4073,1.511
2.406000,-0.4413,0.2021,-1.2365,1.328
2.407000,-0.4079,0.1862,-1.1377,1.223
2.430000,-0.4479,0.2384,-1.0676,1.182
2.431000,-0.5087,0.2701,-0.9663,1.125
2.432000,-0.5355,0.3029,-0.9032,1.093
2.432000,-0.5761,0.3490,-0.8853,1.112
2.433000,-0.6210,0.4034,-0.9294,1.188
2.438000,-0.6516,0.4066,-0.9133,1.193
2.444000,-0.7226,0.3825,-0.9137,1.226
2.448000,-0.6984,0.3815,-0.8993,1.201
2.454000,-0.6720,0.3270,-0.8845,1.158
2.457000,-0.6147,0.2668,-0.9196,1.138
2.463000,-0.5101,0.2658,-0.9303,1.094
2.468000,-0.3697,0.2381,-0.9528,1.049
2.472000,-0.2804,0.2124,-0.9941,1.055
2.477000,-0.1270,0.2223,-1.1044,1.134
2.483000,-0.0768,0.1723,-1.1474,1.163
2.487000,-0.1130,0.0959,-1.1353,1.145
2.498000,-0.1677,0.0509,-1.1042,1.118
2.499000,0.0415,0.0682,-1.1284,1.131
2.502000,0.1360,0.0924,-1.1668,1.178
2.507000,0.0198,0.0948,-1.1621,1.166
2.530000,-0.0628,0.1017,-1.0208,1.028
2.531000,-0.1348,0.1080,-0.9157,0.932
2.532000,-0.2347,0.0705,-0.9278,0.960
2.532000,-0.3416,0.0298,-0.9228,0.984
2.533000,-0.4338,-0.0001,-0.8720,0.974
2.537000,-0.5280,-0.0598,-0.8234,0.980
2.544000,-0.6427,-0.1063,-0.8296,1.055
2.547000,-0.7307,-0.1613,-0.8090,1.102
2.552000,-0.7678,-0.2340,-0.8480,1.168
2.556000,-0.8451,-0.2789,-1.0087,1.345
2.562000,-0.9387,-0.4105,-1.1546,1.544
2.567000,-0.9934,-0.5278,-1.3122,1.728
2.572000,-0.9716,-0.5708,-1.4527,1.839
2.577000,-0.7490,-0.5631,-1.6027,1.857
2.582000,-0.4168,-0.5596,-1.5852,1.732
2.587000,-0.0422,-0.4956,-1.5271,1.606
2.592000,0.3034,-0.4193,-1.4572,1.546
2.597000,0.5980,-0.3906,-1.4255,1.594
2.602000,0.7824,-0.4219,-1.3962,1.655
2.607000,0.8275,-0.4220,-1.3955,1.676
2.619000,0.8723,-0.3600,-1.3515,1.648
2.620000,0.8904,-0.3221,-1.3002,1.609
2.622000,0.8557,-0.2797,-1.2225,1.518
2.656000,0.7943,-0.2997,-1.2140,1.481
2.657000,0.7301,-0.3582,-1.2029,1.452
2.657000,0.6198,-0.3544,-1.0504,1.270
2.658000,0.5450,-0.3745,-0.9840,1.186
2.658000,0.4363,-0.3610,-0.8721,1.040
2.658000,0.3867,-0.3258,-0.7841,0.933
2.658000,0.3564,-0.2761,-0.6173,0.764
2.662000,0.3165,-0.1829,-0.4460,0.577
2.666000,0.2723,-0.0947,-0.3682,0.468
2.671000,0.2737,-0.0660,-0.2380,0.369
2.677000,0.2104,-0.0517,-0.0385,0.220
2.681000,0.1401,-0.1001,0.1802,0.249
2.686000,0.0598,-0.1728,0.3176,0.366
2.691000,0.0889,-0.3055,0.4360,0.540
2.697000,0.1864,-0.2969,0.6429,0.732
2.701000,0.4544,-0.1897,0.7613,0.907
2.706000,0.6153,-0.0916,0.9228,1.113
2.717000,0.4801,-0.0116,1.1055,1.205
2.718000,0.4268,0.0816,1.1373,1.217
2.721000,0.4732,0.1785,1.2409,1.340
2.755000,0.4593,0.2836,1.4473,1.545
2.757000,0.4288,0.4037,1.7827,1.877
2.757000,0.3820,0.4357,2.0797,2.159
2.757000,0.3411,0.3603,2.2138,2.269
2.758000,0.2506,0.3710,2.4127,2.454
2.758000,0.0893,0.4750,2.5854,2.630
2.759000,-0.0422,0.5646,2.6338,2.694
2.765000,-0.1484,0.6353,2.5483,2.630
2.766000,-0.1676,0.6701,2.5397,2.632
2.770000,-0.1601,0.6953,2.6032,2.699
2.775000,-0.0825,0.7156,2.7125,2.807
2.780000,-0.0137,0.6612,2.7959,2.873
2.785000,0.0608,0.5895,2.8079,2.870
2.790000,0.0600,0.5363,2.7918,2.843
2.796000,0.1727,0.4299,2.7714,2.810
2.800000,0.5066,0.2804,2.6701,2.732
2.804000,0.8866,0.2027,2.5095,2.669
2.816000,1.3677,0.1067,2.3371,2.710
2.817000,1.8522,0.1226,2.1192,2.817
2.820000,2.3326,0.2821,1.9271,3.039
2.825000,2.7592,0.4944,1.8539,3.361
2.847000,3.1037,0.6878,1.9329,3.720
2.849000,3.2997,0.8500,2.1040,4.005
2.850000,3.2982,0.9348,2.2311,4.090
2.850000,3.1327,0.9345,2.3790,4.043
2.850000,2.8279,0.9801,2.4784,3.886
2.855000,2.3820,0.9633,2.4314,3.537
2.860000,1.9338,0.8913,2.3364,3.161
2.864000,1.5696,0.8043,2.1552,2.785
2.869000,1.2889,0.7196,1.9476,2.444
2.874000,1.0965,0.6278,1.7518,2.160
2.879000,1.0757,0.5343,1.6059,2.005
2.884000,1.1233,0.4755,1.4786,1.917
2.889000,1.2606,0.4392,1.3650,1.909
2.895000,1.3796,0.4424,1.4423,2.044
2.900000,1.4304,0.4823,1.5261,2.147
2.904000,1.4132,0.5010,1.6284,2.214
2.910000,1.3165,0.5940,1.7923,2.302
2.914000,1.0973,0.6264,1.8482,2.239
2.920000,0.8419,0.6386,1.8514,2.132
2.924000,0.5568,0.6326,1.8238,2.009
2.929000,0.2203,0.5387,1.7680,1.861
2.935000,-0.1846,0.4070,1.5743,1.636
2.939000,-0.6582,0.2613,1.4102,1.578
2.953000,-1.1175,0.0873,1.1469,1.604
2.964000,-1.5676,-0.1172,0.7630,1.747
2.965000,-1.9186,-0.2297,0.3757,1.968
2.965000,-2.1691,-0.3457,0.0259,2.197
2.965000,-2.2795,-0.4479,-0.3295,2.346
2.987000,-2.3551,-0.5504,-0.6715,2.510
2.989000,-2.4533,-0.6170,-1.0384,2.735
2.989000,-2.5064,-0.6522,-1.4139,2.951
2.990000,-2.5173,-0.6988,-1.6999,3.117
2.990000,-2.4354,-0.7184,-1.9084,3.176
2.999000,-2.2722,-0.7324,-2.0615,3.154
3.000000,-2.0611,-0.7360,-2.1997,3.103
3.003000,-1.8586,-0.6982,-2.2922,3.033
3.009000,-1.6408,-0.6554,-2.3293,2.924
3.013000,-1.4478,-0.6240,-2.4214,2.889
3.018000,-1.3293,-0.6330,-2.5612,2.954
3.023000,-1.2305,-0.6178,-2.6099,2.951
3.031000,-1.1121,-0.6264,-2.7423,3.025
3.033000,-1.0672,-0.6276,-2.8987,3.152
3.038000,-0.9997,-0.6549,-2.9834,3.214
3.057000,-0.9690,-0.6649,-3.0686,3.286
3.058000,-0.9297,-0.6001,-3.1519,3.340
3.059000,-0.9292,-0.5993,-3.2310,3.415
3.059000,-0.9506,-0.5858,-3.2725,3.458
3.065000,-0.9795,-0.5932,-3.2645,3.460
3.068000,-1.0275,-0.5954,-3.2383,3.449
3.073000,-1.1046,-0.5902,-3.3250,3.553
3.078000,-1.1917,-0.6208,-3.3788,3.636
3.083000,-1.1979,-0.7039,-3.4401,3.710
3.088000,-1.2528,-0.6841,-3.4923,3.773
3.093000,-1.2845,-0.7193,-3.5329,3.827
3.097000,-1.3312,-0.7473,-3.5500,3.864
3.103000,-1.3378,-0.7225,-3.5127,3.828
3.108000,-1.3424,-0.7408,-3.4138,3.742
3.113000,-1.2925,-0.6897,-3.4639,3.761
3.118000,-1.2505,-0.6721,-3.4426,3.724
3.122000,-1.2050,-0.7049,-3.4623,3.733
3.133000,-1.1752,-0.6996,-3.5013,3.759
3.134000,-1.1731,-0.7450,-3.5356,3.799
3.139000,-1.1507,-0.7689,-3.5941,3.851
3.163000,-1.1180,-0.7809,-3.6359,3.883
3.165000,-1.1465,-0.8166,-3.6254,3.889
3.165000,-1.1311,-0.8951,-3.6511,3.926
3.166000,-1.1102,-0.9373,-3.6698,3.947
3.167000,-1.1316,-0.9239,-3.7057,3.983
3.167000,-1.1524,-0.9574,-3.6584,3.953
3.173000,-1.1986,-0.9776,-3.5473,3.870
3.177000,-1.3128,-0.9463,-3.4251,3.788
3.182000,-1.5165,-0.9302,-3.2777,3.729
3.187000,-1.7142,-0.9058,-3.1550,3.703
3.194000,-1.9991,-0.9232,-3.0714,3.779
3.197000,-2.2735,-0.9470,-2.9811,3.867
3.203000,-2.5013,-0.9992,-2.8887,3.950
3.207000,-2.7093,-1.0805,-2.7677,4.021
3.213000,-2.9095,-1.1266,-2.7349,4.149
3.217000,-3.1454,-1.2341,-2.7326,4.346
3.222000,-3.3888,-1.3315,-2.7748,4.578
3.228000,-3.5845,-1.4523,-2.8806,4.822
3.232000,-3.7474,-1.6204,-3.0570,5.100
3.237000,-3.8676,-1.7970,-3.2898,5.386
3.242000,-3.9766,-2.0535,-3.4547,5.654
3.251000,-4.1316,-2.2507,-3.6236,5.939
3.253000,-4.1693,-2.4572,-3.8186,6.165
3.257000,-4.0943,-2.6430,-4.0808,6.356
3.283000,-3.9112,-2.7476,-4.2216,6.377
3.285000,-3.5437,-2.8464,-4.2749,6.240
3.286000,-3.1567,-2.8859,-4.2055,5.998
3.287000,-2.7455,-2.8938,-4.0233,5.666
3.287000,-2.3772,-2.9347,-3.7309,5.309
3.288000,-2.0538,-3.0130,-3.3477,4.950
3.292000,-1.7419,-3.0423,-2.9622,4.590
3.297000,-1.4445,-3.0593,-2.5406,4.231
3.301000,-1.2047,-3.0402,-2.0468,3.858
3.306000,-1.0185,-3.0506,-1.4946,3.546
3.313000,-0.9170,-3.0498,-1.0229,3.345
3.317000,-0.8670,-2.9883,-0.5474,3.159
3.321000,-0.9744,-2.8716,-0.1061,3.034
3.326000,-1.1625,-2.7423,0.2820,2.992
3.331000,-1.3622,-2.6804,0.7201,3.092
3.337000,-1.6309,-2.6424,1.1961,3.328
3.342000,-1.8891,-2.7487,1.7604,3.771
3.347000,-2.0644,-2.9645,2.3653,4.318
3.352000,-2.0822,-3.3302,3.0059,4.946
3.357000,-1.7643,-3.7109,3.5387,5.423
3.395000,-1.3855,-4.0912,3.9373,5.845
3.397000,-0.8690,-4.3036,4.1275,6.026
3.397000,-0.1546,-4.3262,4.1692,6.010
3.398000,0.6354,-4.2294,4.2249,6.012
3.399000,1.4407,-4.0178,4.2516,6.024
3.400000,2.1750,-3.7607,4.1920,6.037
3.400000,2.8266,-3.5380,4.2133,6.185
3.401000,3.3313,-3.3241,4.3540,6.411
3.402000,3.6800,-3.1063,4.6019,6.661
3.405000,3.8141,-2.9628,4.8497,6.844
3.411000,3.7396,-2.8210,5.0452,6.885
3.416000,3.5199,-2.6794,5.3466,6.939
3.421000,3.1019,-2.5846,5.6967,6.982
3.425000,2.6890,-2.5245,5.9520,7.002
3.430000,2.3449,-2.5409,6.2467,7.140
3.435000,2.1789,-2.5040,6.4783,7.279
3.440000,2.1246,-2.4925,6.5534,7.326
3.446000,2.1820,-2.5034,6.6443,7.428
3.450000,2.3136,-2.5294,6.4903,7.340
3.455000,2.4173,-2.5473,6.1965,7.122
3.466000,2.4387,-2.4808,5.7344,6.707
3.467000,2.4001,-2.4054,5.1901,6.203
3.472000,2.3561,-2.3618,4.6305,5.707
3.474000,2.2901,-2.3103,4.2109,5.321
3.498000,2.2706,-2.2654,3.8405,5.004
3.499000,2.1897,-2.2153,3.5645,4.734
3.500000,2.0808,-2.1973,3.3016,4.479
3.501000,2.0301,-2.1742,3.1090,4.303
3.501000,1.8511,-2.0808,3.0106,4.101
3.505000,1.5804,-1.9467,2.9033,3.836
3.511000,1.3476,-1.7655,2.7009,3.497
3.515000,1.1472,-1.5700,2.4873,3.157
3.520000,0.9166,-1.2696,2.3008,2.783
3.528000,0.7421,-0.9928,2.1437,2.476
3.530000,0.7051,-0.7872,1.9752,2.240
3.535000,0.7358,-0.6599,1.8433,2.092
3.540000,0.8903,-0.5003,1.7529,2.029
3.546000,1.2570,-0.1367,1.7779,2.182
3.549000,1.5854,0.0938,1.7078,2.332
3.554000,1.8890,0.3013,1.5328,2.451
3.567000,2.2686,0.4646,1.2866,2.649
3.568000,2.6642,0.6777,1.0074,2.928
3.569000,2.7798,0.7924,0.6403,2.961
3.607000,2.9727,0.8614,0.3790,3.118
3.609000,3.3819,0.9573,0.2567,3.524
3.610000,3.5965,1.0434,0.1489,3.748
3.611000,3.6689,1.0075,0.1392,3.807
3.611000,3.7363,0.9111,0.1220,3.848
3.612000,3.9114,0.8101,-0.0340,3.995
3.613000,4.0727,0.9673,-0.1616,4.189
3.613000,4.0745,1.0470,-0.2536,4.215
3.615000,3.8407,1.0975,-0.4250,4.017
3.619000,3.6054,0.9754,-0.6468,3.791
3.624000,3.4495,0.8797,-0.8448,3.659
3.630000,3.3946,0.8686,-1.0379,3.654
3.634000,3.4381,0.9038,-1.2478,3.768
3.638000,3.2802,0.9121,-1.3594,3.666
3.645000,3.0829,0.9052,-1.4036,3.506
3.649000,2.8460,0.9244,-1.5239,3.358
3.653000,2.4997,0.9125,-1.5335,3.071
3.660000,2.2183,0.9003,-1.4684,2.808
3.663000,1.9803,0.9024,-1.3931,2.584
3.668000,1.7256,0.9422,-1.2742,2.343
3.673000,1.3819,1.0214,-1.0926,2.036
3.682000,1.1020,1.1592,-0.9056,1.838
3.685000,0.9235,1.2538,-0.7612,1.733
3.688000,0.7695,1.3581,-0.6498,1.691
3.694000,0.6544,1.4018,-0.5259,1.634
3.720000,0.6333,1.5014,-0.3779,1.673
3.721000,0.6157,1.6018,-0.2656,1.737
3.722000,0.6107,1.6525,-0.1772,1.771
3.722000,0.6353,1.6956,-0.1462,1.817
3.723000,0.6700,1.7149,-0.2014,1.852
3.723000,0.7820,1.7479,-0.3068,1.939
3.730000,0.8637,1.7616,-0.4361,2.010
3.734000,0.9677,1.6867,-0.6395,2.047
3.738000,1.1589,1.6737,-0.9218,2.235
3.743000,1.2793,1.6352,-1.1822,2.389
3.748000,1.4321,1.6238,-1.3731,2.564
3.754000,1.5768,1.6739,-1.5540,2.775
3.758000,1.7233,1.7904,-1.5983,2.955
3.763000,1.8052,1.8846,-1.5852,3.053
3.768000,1.9492,1.9450,-1.4190,3.098
3.774000,2.0503,1.9545,-1.2651,3.102
3.784000,2.0581,1.9199,-0.9632,2.975
3.786000,2.0112,1.8026,-0.6191,2.771
3.788000,1.9289,1.7000,-0.4719,2.614
3.820000,1.8347,1.5287,-0.2968,2.407
3.822000,1.7938,1.3316,-0.1009,2.236
3.823000,1.8395,1.0850,0.1778,2.143
3.823000,1.8475,0.8109,0.5107,2.081
3.823000,1.8350,0.5548,0.8138,2.083
3.824000,1.7542,0.2982,1.0038,2.043
3.824000,1.6312,0.0654,1.1551,2.000
3.834000,1.4705,-0.2358,1.3637,2.019
3.835000,1.2529,-0.4824,1.6322,2.113
3.837000,1.0001,-0.6715,1.9489,2.291
3.842000,0.6808,-0.7613,2.3141,2.529
3.848000,0.3960,-0.7829,2.8042,2.938
3.853000,0.0718,-0.7411,3.3664,3.448
3.858000,-0.2052,-0.7510,4.0125,4.087
3.862000,-0.4584,-0.7204,4.6678,4.745
3.868000,-0.6759,-0.7672,5.4421,5.537
3.872000,-0.9032,-0.8995,6.2057,6.335
3.877000,-1.1091,-1.0636,6.9080,7.077
3.882000,-1.2462,-1.2940,7.6350,7.843
3.886000,-1.3148,-1.6396,8.4267,8.685
3.891000,-1.3912,-2.1316,9.2351,9.580
3.897000,-1.4280,-2.6536,9.8449,10.296
3.903000,-1.5206,-3.0883,10.1508,10.719
3.907000,-1.6065,-3.4427,10.0505,10.745
3.916000,-1.6388,-3.6180,9.6788,10.462
3.917000,-1.4747,-3.5469,9.0868,9.865
3.922000,-1.1611,-3.2313,8.2728,8.957
3.928000,-0.6394,-2.7424,7.3619,7.882
3.932000,0.0012,-2.2086,6.4407,6.809
3.936000,0.7714,-1.6392,5.6937,5.975
3.941000,1.5649,-1.1582,5.1569,5.512
3.946000,2.3927,-0.7017,4.6698,5.294
3.952000,3.1172,-0.2506,4.3234,5.336
3.957000,3.6161,0.1540,4.0218,5.411
3.962000,3.9045,0.5832,3.6595,5.383
3.967000,4.1600,0.9820,3.2269,5.356
3.971000,4.2686,1.3336,2.6237,5.185
3.976000,4.3578,1.6861,2.1083,5.126
3.982000,4.3942,1.9346,1.7524,5.111
3.986000,4.4818,2.0554,1.4768,5.147
3.992000,4.5621,2.2014,1.3074,5.231
3.996000,4.4897,2.3586,1.1771,5.206
4.002000,4.4273,2.5053,1.0087,5.186
4.006000,4.3331,2.6224,0.8426,5.134
4.018000,4.1986,2.6334,0.7166,5.008
4.020000,3.9367,2.6148,0.5348,4.756
4.021000,3.6573,2.5787,0.2923,4.485
4.057000,3.2831,2.4964,0.1130,4.126
4.059000,2.9146,2.4325,-0.1203,3.798
4.059000,2.4257,2.3393,-0.4199,3.396
4.061000,1.8934,2.2457,-0.6852,3.016
4.061000,1.4609,2.1663,-0.9855,2.793
4.062000,1.0151,2.1224,-1.2441,2.661
4.063000,0.4884,2.0856,-1.4968,2.613
4.063000,-0.0387,1.9606,-1.8076,2.667
4.066000,-0.6249,1.9249,-2.0801,2.902
4.070000,-1.2803,1.9357,-2.2642,3.242
4.078000,-1.9062,1.9216,-2.4601,3.658
4.081000,-2.4910,1.8948,-2.6510,4.102
4.085000,-2.9655,1.8867,-2.7627,4.471
4.090000,-3.3332,1.8972,-2.8547,4.781
4.096000,-3.6566,1.9120,-2.8744,5.029
4.100000,-3.8935,1.9571,-2.9293,5.251
4.106000,-4.1636,1.9873,-2.9978,5.502
4.111000,-4.2905,2.0237,-3.0750,5.653
4.115000,-4.3585,2.0733,-3.0772,5.724
4.120000,-4.4273,2.0956,-3.0330,5.761
4.125000,-4.3753,2.1644,-3.0456,5.754
4.134000,-4.2149,2.2795,-3.1123,5.714
4.136000,-4.1067,2.3762,-2.9533,5.589
4.140000,-3.8972,2.5066,-2.9373,5.486
4.174000,-3.6138,2.5127,-2.8919,5.267
4.177000,-3.2499,2.5666,-2.7381,4.965
4.180000,-2.7789,2.6391,-2.5409,4.598
4.182000,-2.3392,2.6771,-2.2983,4.233
4.182000,-1.9659,2.7135,-2.2474,4.035
4.183000,-1.6848,2.7816,-2.2735,3.968
4.184000,-1.5201,2.8141,-2.3526,3.970
4.184000,-1.2820,2.8563,-2.4011,3.946
4.185000,-1.0642,2.9013,-2.5099,3.981
4.189000,-0.8089,2.9155,-2.5666,3.968
4.194000,-0.5066,2.9019,-2.5925,3.924
4.200000,-0.2026,2.8798,-2.5590,3.858
4.205000,0.0530,2.8951,-2.5163,3.836
4.213000,0.3490,2.9742,-2.4810,3.889
4.215000,0.5275,3.0264,-2.4365,3.921
4.219000,0.6462,3.1284,-2.4137,4.004
4.224000,0.7555,3.2037,-2.3528,4.046
4.232000,0.8408,3.2019,-2.4022,4.090
4.235000,0.8685,3.2716,-2.4133,4.157
4.239000,0.8415,3.2954,-2.3385,4.128
4.272000,0.7958,3.2567,-2.2474,4.036
4.274000,0.7700,3.2176,-2.1280,3.934
4.275000,0.7567,3.1085,-2.0211,3.784
4.275000,0.7820,3.0538,-1.9052,3.683
4.276000,0.8557,3.0150,-1.7373,3.583
4.277000,0.9227,2.9656,-1.4723,3.437
4.277000,0.9903,2.9602,-1.2943,3.379
4.280000,1.0127,2.9821,-1.1627,3.357
4.283000,0.9156,2.9329,-1.0773,3.256
4.288000,0.8308,2.8725,-1.0022,3.154
4.294000,0.6891,2.7794,-0.9734,3.024
4.299000,0.4404,2.6610,-0.9788,2.869
4.304000,0.1517,2.5607,-0.9871,2.748
4.309000,-0.1433,2.4766,-0.9885,2.670
4.314000,-0.3965,2.3754,-0.9137,2.576
4.319000,-0.5288,2.2864,-0.7891,2.476
4.324000,-0.6810,2.1208,-0.5265,2.289
4.334000,-0.7768,1.8933,-0.1450,2.052
4.335000,-0.7429,1.5702,0.2957,1.762
4.339000,-0.6321,1.1872,0.9675,1.657
4.384000,-0.4655,0.7726,1.6139,1.849
4.386000,-0.2976,0.3210,2.2538,2.296
4.388000,-0.2027,-0.1604,2.7460,2.758
4.388000,-0.0854,-0.6673,3.1506,3.222
4.389000,0.0775,-1.2064,3.4369,3.643
4.389000,0.2478,-1.6887,3.7081,4.082
4.390000,0.3682,-2.1230,4.0887,4.622
4.390000,0.4964,-2.3868,4.4042,5.034
4.391000,0.6326,-2.5466,4.6166,5.310
4.395000,0.7958,-2.8744,4.9294,5.761
4.397000,0.8040,-2.8963,4.9124,5.759
4.398000,0.8339,-2.9416,5.1306,5.973
4.403000,0.8764,-2.8787,5.3780,6.163
4.408000,0.8836,-2.7839,5.5279,6.252
4.414000,0.7525,-2.5521,5.6331,6.230
4.420000,0.6601,-2.2626,5.8610,6.317
4.423000,0.5684,-1.9497,6.1489,6.476
4.430000,0.5040,-1.7744,6.5706,6.825
4.437000,0.4862,-1.8695,7.2568,7.509
4.437000,0.4846,-2.2075,8.0488,8.360
4.456000,0.5105,-2.7247,8.7120,9.142
4.457000,0.6011,-3.1903,9.1054,9.667
4.458000,0.7333,-3.5455,9.1601,9.850
4.458000,0.9317,-3.6731,8.8652,9.641
4.465000,1.1999,-3.5997,8.2311,9.064
4.467000,1.5705,-3.3556,7.3495,8.231
4.472000,1.9930,-3.0386,6.5677,7.506
4.477000,2.4584,-2.7507,5.8163,6.888
4.483000,2.9760,-2.5626,5.0550,6.401
4.488000,3.4352,-2.4262,4.3774,6.070
4.493000,3.7597,-2.2589,3.8099,5.810
4.497000,3.9455,-2.1353,3.3999,5.629
4.502000,3.9941,-2.0044,3.0539,5.413
4.506000,3.9763,-1.9687,2.7164,5.202
4.512000,3.9692,-1.9999,2.4040,5.053
4.517000,3.8418,-2.0471,2.1404,4.851
4.522000,3.7335,-2.1081,1.9040,4.691
4.527000,3.6165,-2.1490,1.6968,4.536
4.532000,3.5293,-2.1870,1.4947,4.413
4.537000,3.4866,-2.1766,1.3430,4.324
4.542000,3.4770,-2.1438,1.1985,4.257
4.548000,3.4621,-2.0847,1.0346,4.172
4.557000,3.4755,-2.0350,0.7606,4.099
4.559000,3.4428,-1.9587,0.4315,3.984
4.596000,3.2805,-1.8561,-0.0147,3.769
4.598000,3.0651,-1.7389,-0.4870,3.558
4.599000,2.8681,-1.5899,-0.9254,3.407
4.599000,2.6080,-1.4473,-1.3369,3.269
4.600000,2.3138,-1.3199,-1.7002,3.160
4.600000,2.0096,-1.2413,-2.0010,3.096
4.600000,1.7931,-1.1373,-2.2297,3.079
4.601000,1.5375,-1.0697,-2.4199,3.060
4.602000,1.2591,-1.0535,-2.5476,3.031
4.606000,0.9697,-1.0071,-2.7228,3.061
4.612000,0.6164,-0.9739,-2.8379,3.063
4.617000,0.2781,-0.9278,-2.9646,3.119
4.621000,0.0001,-0.9115,-3.0622,3.195
4.630000,-0.3014,-0.8728,-3.1715,3.303
4.631000,-0.5452,-0.8016,-3.2086,3.352
4.637000,-0.7528,-0.7845,-3.2908,3.466
4.642000,-0.9174,-0.7213,-3.3321,3.531
4.650000,-1.0270,-0.6979,-3.3827,3.603
4.653000,-1.1207,-0.7097,-3.3633,3.615
4.656000,-1.1772,-0.6492,-3.3051,3.568
4.663000,-1.2463,-0.5477,-3.2562,3.529
4.667000,-1.3345,-0.4581,-3.2336,3.528
4.671000,-1.4631,-0.3375,-3.2470,3.577
4.677000,-1.7012,-0.3153,-3.1767,3.617
4.711000,-1.9355,-0.3939,-3.1667,3.732
4.713000,-2.0628,-0.4271,-3.1597,3.798
4.714000,-2.1840,-0.4130,-3.1005,3.815
4.714000,-2.2895,-0.4017,-3.0898,3.867
4.715000,-2.3887,-0.4295,-3.0988,3.936
4.715000,-2.4747,-0.4651,-3.1274,4.015
4.716000,-2.6335,-0.5253,-3.1374,4.130
4.716000,-2.8145,-0.6314,-3.2221,4.325
4.720000,-2.9574,-0.6922,-3.2883,4.476
4.727000,-3.0793,-0.7794,-3.3837,4.641
4.731000,-3.1087,-0.8518,-3.4508,4.722
4.735000,-3.1225,-0.9525,-3.5182,4.799
4.740000,-3.1544,-1.0263,-3.5905,4.888
4.745000,-3.1997,-1.1401,-3.6462,4.983
4.750000,-3.1675,-1.2867,-3.7093,5.045
4.755000,-3.1420,-1.3895,-3.7963,5.120
4.764000,-3.1495,-1.4885,-3.8927,5.224
4.766000,-3.1517,-1.5721,-4.0082,5.336
4.770000,-3.1611,-1.6276,-4.1089,5.434
4.775000,-3.0891,-1.6597,-4.2069,5.477
4.803000,-3.0407,-1.7206,-4.2950,5.537
4.805000,-2.9994,-1.7386,-4.2943,5.519
4.806000,-2.9076,-1.7830,-4.2743,5.468
4.806000,-2.8304,-1.8325,-4.2110,5.395
4.807000,-2.6847,-1.8847,-4.1472,5.288
4.808000,-2.5325,-1.8464,-4.1238,5.180
4.815000,-2.3453,-1.8161,-4.0377,5.010
4.817000,-2.2111,-1.7123,-3.9515,4.841
4.820000,-2.0870,-1.6194,-3.8435,4.664
4.825000,-1.9870,-1.5301,-3.7044,4.473
4.830000,-1.8830,-1.4829,-3.6560,4.372
4.835000,-1.7681,-1.4805,-3.6336,4.304
4.840000,-1.6495,-1.4440,-3.6011,4.216
4.845000,-1.5581,-1.4430,-3.6186,4.196
4.851000,-1.4796,-1.3552,-3.6404,4.157
4.855000,-1.3757,-1.2883,-3.6882,4.142
4.859000,-1.2776,-1.2661,-3.7784,4.185
4.864000,-1.1540,-1.1971,-3.7916,4.140
4.869000,-1.0601,-1.1723,-3.8426,4.155
4.875000,-0.9719,-1.2008,-3.8212,4.122
4.882000,-0.8609,-1.2678,-3.6676,3.975
4.885000,-0.7486,-1.3781,-3.4346,3.776
4.889000,-0.5562,-1.4403,-3.1175,3.479
4.915000,-0.3432,-1.4861,-2.6518,3.059
4.916000,-0.1377,-1.5276,-2.1553,2.645
4.917000,-0.0279,-1.5887,-1.7164,2.339
4.917000,0.1063,-1.7364,-1.2994,2.171
4.917000,0.2486,-1.9611,-0.7562,2.117
4.919000,0.3730,-2.1962,-0.2520,2.242
4.924000,0.4489,-2.3369,0.1866,2.387
4.928000,0.3793,-2.5838,0.6361,2.688
4.934000,0.3772,-2.8726,0.9672,3.054
4.940000,0.4404,-3.0875,1.1945,3.340
4.944000,0.4535,-3.1757,1.4715,3.529
4.949000,0.5336,-3.2061,1.7074,3.671
4.953000,0.7243,-3.1946,1.9717,3.823
4.958000,0.9776,-3.1053,2.3457,4.013
4.963000,1.3008,-2.9591,2.7458,4.241
4.968000,1.6360,-2.7998,3.2104,4.563
4.974000,1.8825,-2.6282,3.7512,4.952
4.979000,2.0546,-2.4367,4.3517,5.394
4.983000,2.2713,-2.2753,4.9806,5.928
4.988000,2.4322,-2.2300,5.7167,6.601
5.012000,2.5747,-2.2949,6.5239,7.379
5.013000,2.6843,-2.4781,7.2895,8.154
5.014000,2.8189,-2.6743,7.9179,8.820
5.014000,3.0253,-2.8128,8.4115,9.371
5.015000,3.3047,-2.8321,8.5722,9.614
5.018000,3.6942,-2.7317,8.4676,9.634
5.023000,4.1363,-2.3689,8.0843,9.385
5.029000,4.6058,-1.8504,7.5977,9.075
5.033000,4.9774,-1.2336,7.1518,8.800
5.038000,5.2244,-0.5543,6.7370,8.543
5.045000,5.4341,0.0974,6.4823,8.459
5.048000,5.6361,0.6559,6.4061,8.558
5.053000,5.7735,1.0879,6.4746,8.743
5.058000,5.8322,1.4112,6.6295,8.942
5.063000,5.8699,1.6962,6.6502,9.031
5.068000,5.8554,1.9498,6.6013,9.037
5.073000,5.7054,2.1756,6.3987,8.845
5.078000,5.4296,2.3475,6.0305,8.447
5.083000,5.0434,2.4869,5.6570,7.976
5.088000,4.5735,2.5482,5.2587,7.421
5.099000,4.0902,2.5586,4.7951,6.802
5.100000,3.6090,2.5064,4.3736,6.200
5.103000,3.1284,2.3465,3.9917,5.588
5.107000,2.6949,2.1464,3.6538,5.022
5.152000,2.2826,1.9592,3.2953,4.462
5.154000,1.8867,1.8070,2.8663,3.878
5.155000,1.5269,1.6137,2.3644,3.244
5.157000,1.1146,1.4156,1.9166,2.631
5.157000,0.7166,1.2471,1.5329,2.102
5.157000,0.3255,1.0850,1.0771,1.563
5.158000,-0.0640,0.9583,0.6955,1.186
5.158000,-0.4064,0.8489,0.3166,0.993
5.159000,-0.7280,0.8670,-0.0428,1.133
5.159000,-1.0433,0.8958,-0.3299,1.414
5.163000,-1.3495,0.9119,-0.5782,1.728
5.167000,-1.6014,0.9512,-0.7735,2.017
5.172000,-1.8278,0.9947,-0.9396,2.283
5.177000,-1.9574,1.0781,-1.0717,2.478
5.182000,-2.0509,1.0885,-1.1554,2.593
5.187000,-2.1946,1.1187,-1.2315,2.754
5.193000,-2.2931,1.1659,-1.3503,2.905
5.198000,-2.3873,1.2204,-1.4304,3.039
5.202000,-2.4467,1.3178,-1.6032,3.208
5.208000,-2.4644,1.4053,-1.8662,3.396
5.212000,-2.4884,1.4759,-2.1522,3.606
5.218000,-2.5814,1.6637,-2.4299,3.916
5.222000,-2.5921,1.8252,-2.7113,4.172
5.270000,-2.5873,1.9345,-2.9056,4.345
5.273000,-2.5287,2.0224,-3.0824,4.470
5.273000,-2.4280,2.0845,-3.0861,4.446
5.274000,-2.3163,2.1250,-3.1182,4.428
5.274000,-2.2463,2.1271,-3.2001,4.451
5.277000,-2.1725,2.0930,-3.2815,4.457
5.278000,-2.0972,2.0682,-3.4105,4.506
5.279000,-2.0172,2.0096,-3.5679,4.565
5.279000,-1.9399,1.9868,-3.7393,4.658
5.280000,-1.8436,1.9974,-3.9512,4.796
5.281000,-1.7018,1.9771,-4.1961,4.941
5.281000,-1.6774,1.9907,-4.3305,5.053
5.286000,-1.5729,1.9573,-4.4386,5.100
5.292000,-1.4748,1.9150,-4.5754,5.175
5.297000,-1.4137,1.8615,-4.7145,5.262
5.301000,-1.3061,1.7520,-4.7603,5.238
5.307000,-1.1692,1.6748,-4.8538,5.266
5.345000,-1.0553,1.6277,-4.9543,5.321
5.347000,-0.9452,1.6132,-5.0403,5.376
5.347000,-0.7216,1.6146,-5.0999,5.398
5.348000,-0.5852,1.6870,-5.0760,5.381
5.348000,-0.4997,1.6988,-5.0953,5.394
5.349000,-0.3813,1.7171,-4.9977,5.298
5.349000,-0.3232,1.7537,-4.8767,5.192
5.350000,-0.2829,1.7441,-4.7153,5.035
5.351000,-0.2243,1.7457,-4.4682,4.802
5.356000,-0.2025,1.7250,-4.1785,4.525
5.360000,-0.2462,1.7296,-3.8989,4.272
5.366000,-0.2554,1.7425,-3.5816,3.991
5.371000,-0.3281,1.7681,-3.2935,3.752
5.376000,-0.3781,1.7990,-2.9845,3.505
5.381000,-0.4007,1.8064,-2.5829,3.177
5.386000,-0.4511,1.8280,-2.2373,2.924
5.400000,-0.5270,1.8636,-1.4692,2.431
5.402000,-0.5233,1.8721,-1.4654,2.434
5.403000,-0.5259,1.9585,-0.9936,2.258
5.406000,-0.5656,2.0841,-0.5925,2.239
5.414000,-0.6185,2.2107,-0.2359,2.308
5.417000,-0.5821,2.3255,0.1959,2.405
5.420000,-0.5232,2.4259,0.7120,2.582
5.459000,-0.3749,2.5068,1.4104,2.901
5.461000,-0.1292,2.5723,2.2090,3.393
5.461000,0.0468,2.5835,3.0522,3.999
5.462000,0.1749,2.4804,3.7724,4.518
5.462000,0.3458,2.2859,4.4893,5.050
5.462000,0.2154,1.9426,5.4297,5.771
5.463000,-0.2050,1.3886,6.3779,6.531
5.463000,-0.4908,0.7866,6.9940,7.055
5.466000,-0.8103,0.2283,7.4606,7.508
5.471000,-1.0983,-0.3124,7.7590,7.843
5.475000,-1.2762,-0.8514,7.8227,7.972
5.481000,-1.4852,-1.3345,7.5906,7.849
5.486000,-1.6852,-1.6796,7.1352,7.521
5.490000,-1.8971,-1.8968,6.5849,7.110
5.495000,-2.0491,-1.9845,5.9115,6.564
5.500000,-2.0921,-1.9504,5.3503,6.067
5.504000,-2.0250,-1.7957,5.0309,5.713
5.510000,-1.8022,-1.5610,4.9362,5.482
5.515000,-1.5490,-1.2868,5.0375,5.425
5.520000,-1.2606,-1.0438,5.3436,5.589
5.524000,-0.9386,-0.8259,5.7541,5.888
5.530000,-0.7265,-0.6997,6.1589,6.241
5.535000,-0.4814,-0.6218,6.4550,6.503
5.539000,-0.2141,-0.6436,6.8410,6.875
5.545000,0.0721,-0.9154,7.5555,7.611
5.550000,0.3650,-1.4911,8.3085,8.449
5.556000,0.8009,-2.3860,8.8868,9.236
5.600000,1.3133,-3.3356,9.1204,9.800
5.603000,1.8895,-4.1260,8.7974,9.899
5.604000,2.4707,-4.6083,8.0458,9.596
5.604000,3.0988,-4.8172,6.9363,8.996
5.605000,3.6226,-4.8315,5.7257,8.322
5.605000,4.0406,-4.6226,4.4458,7.580
5.606000,4.4534,-4.3030,3.1611,6.953
5.606000,4.7700,-3.9082,2.1654,6.536
5.607000,4.9926,-3.4708,1.3647,6.232
5.608000,5.1146,-2.9872,0.8011,5.977
5.610000,5.1041,-2.4892,0.4474,5.696
5.614000,5.0543,-2.0156,0.3359,5.452
5.620000,5.0377,-1.6426,0.5780,5.330
5.625000,4.9981,-1.3292,0.9168,5.252
5.630000,4.8738,-1.0773,1.0860,5.108
5.634000,4.7168,-0.8814,1.1264,4.929
5.638000,4.5260,-0.7262,1.0718,4.708
5.652000,4.3029,-0.6484,0.9608,4.456
5.653000,4.0702,-0.5865,0.7124,4.173
5.654000,3.8704,-0.5476,0.3796,3.927
5.705000,3.6715,-0.5222,-0.0158,3.709
5.707000,3.4489,-0.5219,-0.4899,3.522
5.710000,3.2116,-0.5675,-0.9730,3.403
5.711000,3.0066,-0.6228,-1.4864,3.411
5.712000,2.6975,-0.6461,-1.9867,3.412
5.714000,2.2584,-0.7156,-2.4571,3.413
5.714000,1.8425,-0.7995,-2.8212,3.463
5.715000,1.3954,-0.9207,-3.1245,3.544
5.715000,0.9195,-1.0646,-3.3528,3.636
5.716000,0.5347,-1.1873,-3.5588,3.790
5.717000,0.2312,-1.2984,-3.6253,3.858
5.717000,-0.0292,-1.4409,-3.6601,3.934
5.717000,-0.2318,-1.5285,-3.5894,3.908
5.724000,-0.4604,-1.6092,-3.5209,3.898
5.734000,-0.6259,-1.6544,-3.4046,3.837
5.735000,-0.7741,-1.6649,-3.3147,3.789
5.737000,-0.8946,-1.6620,-3.2107,3.724
5.772000,-0.9706,-1.6436,-3.1144,3.653
5.773000,-1.0649,-1.6176,-3.1164,3.669
5.773000,-1.1847,-1.5934,-3.1378,3.713
5.773000,-1.3725,-1.5925,-3.2215,3.847
5.773000,-1.6164,-1.5672,-3.2864,3.984
5.775000,-1.8511,-1.5410,-3.2920,4.079
5.775000,-2.1146,-1.4854,-3.3030,4.194
5.782000,-2.2655,-1.4266,-3.2526,4.213
5.783000,-2.4566,-1.3646,-3.2319,4.283
5.788000,-2.6902,-1.2923,-3.3031,4.452
5.796000,-2.8975,-1.2695,-3.3630,4.617
5.797000,-3.0051,-1.2459,-3.3826,4.693
5.802000,-3.1376,-1.1981,-3.3715,4.759
5.807000,-3.3996,-1.2239,-3.4519,4.997
5.812000,-3.6141,-1.2254,-3.5258,5.196
5.817000,-3.7481,-1.1855,-3.6262,5.348
5.822000,-3.8662,-1.1569,-3.7318,5.497
5.827000,-3.9283,-1.1799,-3.7848,5.581
5.831000,-3.9632,-1.2163,-3.8213,5.638
5.837000,-3.9759,-1.3018,-3.8698,5.699
5.842000,-3.9427,-1.3333,-3.8441,5.666
5.847000,-3.9021,-1.3085,-3.7731,5.583
5.852000,-3.8685,-1.3301,-3.7762,5.567
5.857000,-3.8275,-1.2998,-3.8103,5.555
5.876000,-3.7671,-1.2943,-3.8874,5.566
5.878000,-3.6043,-1.3206,-3.8972,5.470
5.879000,-3.3920,-1.3356,-3.8516,5.303
5.881000,-3.1668,-1.3393,-3.7410,5.081
5.882000,-2.9217,-1.3154,-3.6083,4.826
5.887000,-2.6706,-1.2950,-3.5065,4.594
5.892000,-2.4400,-1.2976,-3.4163,4.394
5.945000,-2.2059,-1.2301,-3.2875,4.146
5.947000,-1.9294,-1.1740,-3.1348,3.864
5.947000,-1.6772,-1.1463,-3.0323,3.650
5.948000,-1.3969,-1.0920,-2.9658,3.455
5.948000,-1.1987,-1.0495,-2.9397,3.344
5.949000,-1.0516,-1.0500,-2.9183,3.275
5.949000,-0.9914,-1.0404,-2.9396,3.272
5.949000,-0.8987,-1.0686,-2.8553,3.178
5.950000,-0.7464,-1.0479,-2.7781,3.062
5.951000,-0.5780,-1.0025,-2.7056,2.943
5.951000,-0.3723,-0.9251,-2.6758,2.856
5.951000,-0.1753,-0.8635,-2.6646,2.806
5.956000,-0.0035,-0.7602,-2.5142,2.627
5.961000,0.2245,-0.6942,-2.3850,2.494
5.966000,0.4494,-0.5606,-2.2199,2.333
5.972000,0.6691,-0.4266,-1.9615,2.116
5.982000,0.8620,-0.2682,-1.7297,1.951
5.984000,1.0691,-0.1435,-1.5028,1.850
5.986000,1.2635,-0.1190,-1.1516,1.714
5.991000,1.3642,-0.1091,-0.8199,1.595
6.013000,1.3669,-0.1375,-0.5173,1.468
6.016000,1.3527,-0.1538,-0.2246,1.380
6.016000,1.3831,-0.2324,0.0490,1.403
6.017000,1.3889,-0.2984,0.2915,1.450
6.017000,1.4015,-0.3402,0.6463,1.580
6.020000,1.4789,-0.3938,1.0509,1.857
6.026000,1.5643,-0.3749,1.4429,2.161
6.031000,1.6508,-0.2962,1.8770,2.517
6.036000,1.7508,-0.2219,2.2982,2.898
6.041000,1.7883,-0.1836,2.7420,3.279
6.048000,1.8014,-0.2318,3.1129,3.604
6.052000,1.7852,-0.3570,3.4468,3.898
6.057000,1.7300,-0.5450,3.7725,4.186
6.061000,1.6938,-0.6472,4.0492,4.437
6.066000,1.7584,-0.7403,4.2361,4.646
6.070000,1.8830,-0.6879,4.2856,4.731
6.076000,2.0596,-0.5714,4.2004,4.713
6.081000,2.2134,-0.4858,4.0863,4.673
6.086000,2.3650,-0.3881,3.9318,4.605
6.090000,2.4663,-0.2464,3.8948,4.617
6.102000,2.5644,0.0013,3.7938,4.579
6.103000,2.6323,0.3192,3.7438,4.588
6.106000,2.6790,0.6420,3.7378,4.643
6.151000,2.7350,0.8782,3.9479,4.882
6.153000,2.8056,0.9272,4.5219,5.402
6.153000,2.8862,0.8067,5.2988,6.088
6.154000,2.9607,0.5088,6.0626,6.766
6.154000,2.9428,0.1902,6.6531,7.277
6.155000,2.8918,-0.1066,6.9030,7.485
6.156000,2.7908,-0.3985,6.8153,7.375
6.156000,2.6089,-0.5938,6.4981,7.027
6.161000,2.4713,-0.6819,5.9372,6.467
6.163000,2.4024,-0.6494,5.2790,5.836
6.163000,2.4508,-0.5567,4.7078,5.337
6.165000,2.5138,-0.4196,4.2092,4.921
6.171000,2.6632,-0.2706,3.8909,4.723
6.175000,2.8493,-0.1116,3.6784,4.654
6.181000,2.9696,0.0501,3.5141,4.601
6.185000,3.0195,0.2549,3.4504,4.592
6.190000,3.0274,0.4067,3.4323,4.595
6.200000,2.8992,0.6218,3.5029,4.589
6.201000,2.6725,0.8060,3.4685,4.452
6.205000,2.3846,1.0542,3.3868,4.274
6.245000,2.0442,1.2411,3.3273,4.098
6.246000,1.7038,1.4527,3.1611,3.874
6.247000,1.4417,1.6385,2.9910,3.703
6.248000,1.2335,1.7861,2.7455,3.500
6.249000,1.1221,1.9314,2.4629,3.325
6.249000,0.9611,1.9542,2.1290,3.046
6.250000,0.8032,1.9645,1.8252,2.799
6.251000,0.6802,1.9289,1.4722,2.520
6.251000,0.5928,1.8570,1.0030,2.192
6.254000,0.4670,1.8495,0.4536,1.961
6.260000,0.3833,1.7781,-0.0495,1.820
6.264000,0.2795,1.7224,-0.5254,1.822
6.269000,0.2187,1.6545,-0.9263,1.909
6.273000,0.1922,1.5845,-1.3197,2.071
6.279000,0.2116,1.5053,-1.6241,2.224
6.283000,0.2226,1.4870,-1.8277,2.367
6.290000,0.2160,1.4697,-1.9620,2.461
6.299000,0.2095,1.4678,-2.0824,2.556
6.300000,0.2154,1.4380,-2.1796,2.620
6.303000,0.2432,1.4637,-2.2082,2.660
6.309000,0.1420,1.4084,-2.3237,2.721
6.330000,-0.0815,1.3747,-2.4039,2.770
6.333000,-0.3413,1.3244,-2.5586,2.901
6.333000,-0.5728,1.3415,-2.6420,3.018
6.334000,-0.7759,1.3970,-2.7260,3.160
6.334000,-0.9334,1.4645,-2.7844,3.282
6.339000,-1.0817,1.4818,-2.8506,3.390
6.344000,-1.2354,1.4796,-2.9579,3.531
6.348000,-1.4097,1.4890,-3.0464,3.672
6.353000,-1.6097,1.4454,-3.1183,3.795
6.359000,-1.7639,1.3607,-3.2667,3.954
6.363000,-1.9468,1.3190,-3.4339,4.162
6.368000,-2.0535,1.2701,-3.5027,4.254
6.373000,-2.1848,1.2430,-3.5424,4.344
6.378000,-2.3077,1.2832,-3.6364,4.494
6.383000,-2.3530,1.2786,-3.7582,4.615
6.388000,-2.4546,1.2650,-3.8362,4.727
6.400000,-2.4452,1.1876,-3.9994,4.836
6.402000,-2.4564,1.1804,-3.9896,4.832
6.403000,-2.3472,1.1215,-4.1057,4.860
6.408000,-2.1829,1.0851,-4.1417,4.806
6.417000,-2.1325,1.2027,-4.1387,4.809
6.419000,-1.9959,1.2714,-4.1378,4.767
6.423000,-1.7527,1.3102,-4.1135,4.659
6.468000,-1.4125,1.3284,-4.0251,4.468
6.470000,-1.1238,1.3139,-3.9445,4.307
6.470000,-0.9178,1.2785,-3.8788,4.186
6.471000,-0.7367,1.2678,-3.8495,4.119
6.471000,-0.6518,1.3392,-3.8617,4.139
6.471000,-0.5578,1.4736,-3.8196,4.132
6.472000,-0.4974,1.6087,-3.6996,4.065
6.472000,-0.4632,1.7227,-3.5376,3.962
6.473000,-0.4216,1.7484,-3.3888,3.837
6.473000,-0.4212,1.7574,-3.1837,3.661
6.478000,-0.4068,1.7061,-2.9726,3.451
6.482000,-0.4431,1.6663,-2.7459,3.242
6.488000,-0.4568,1.6853,-2.5273,3.072
6.494000,-0.4668,1.6769,-2.3192,2.900
6.497000,-0.4711,1.6766,-2.1932,2.801
6.502000,-0.4654,1.6270,-2.0105,2.628
6.508000,-0.4496,1.5666,-1.8188,2.442
6.512000,-0.4002,1.4954,-1.6492,2.262
6.518000,-0.3509,1.4538,-1.5517,2.155
6.523000,-0.3282,1.4278,-1.4162,2.038
6.527000,-0.3229,1.3411,-1.2902,1.889
6.532000,-0.3063,1.3303,-1.1595,1.791
6.537000,-0.3118,1.2830,-0.9236,1.611
6.542000,-0.2841,1.2689,-0.6305,1.445
6.573000,-0.2354,1.1849,-0.2348,1.231
6.574000,-0.1820,1.0546,0.3038,1.112
6.574000,-0.1378,0.8370,0.9441,1.269
6.574000,-0.0903,0.6609,1.5591,1.696
6.574000,-0.0607,0.3966,2.0457,2.085
6.575000,-0.0486,0.0417,2.4758,2.477
6.579000,-0.0229,-0.2650,2.7944,2.807
6.582000,-0.0812,-0.6236,3.0158,3.081
6.586000,-0.0922,-0.9902,3.0640,3.221
6.591000,-0.1376,-1.4003,3.0207,3.332
6.596000,-0.1890,-1.7398,2.9749,3.451
6.601000,-0.1630,-2.1080,3.0009,3.671
6.606000,-0.0568,-2.3629,3.2348,4.006
6.611000,0.1079,-2.5302,3.4901,4.312
6.616000,0.3619,-2.6531,3.7476,4.606
6.622000,0.6035,-2.6977,3.9815,4.847
6.626000,0.8246,-2.6835,4.1897,5.043
6.631000,1.0539,-2.5630,4.3891,5.191
6.637000,1.2311,-2.4014,4.6776,5.400
6.640000,1.4597,-2.1806,4.8876,5.547
6.685000,1.5912,-1.9708,5.0644,5.663
6.687000,1.7403,-1.8036,5.2345,5.804
6.687000,1.8782,-1.8256,5.5197,6.110
6.688000,1.9809,-2.0298,5.8744,6.523
6.689000,2.0482,-2.4238,6.2555,7.014
6.690000,2.1067,-2.7827,6.4667,7.349
6.690000,2.2375,-2.9825,6.5156,7.507
6.691000,2.3995,-3.0206,6.3497,7.430
6.691000,2.6138,-2.9040,6.0700,7.219
6.692000,2.8880,-2.6518,5.6001,6.836
6.696000,3.1337,-2.4720,5.1456,6.512
6.701000,3.3416,-2.3285,4.7784,6.279
6.706000,3.5526,-2.2380,4.4957,6.152
6.711000,3.6960,-2.2557,4.3499,6.138
6.717000,3.8635,-2.2092,4.2279,6.139
6.721000,3.9309,-2.1448,4.0077,6.009
6.726000,3.9555,-2.1199,3.7277,5.834
6.730000,3.9156,-2.1467,3.3881,5.605
6.736000,3.7419,-2.1984,3.0176,5.286
6.740000,3.5563,-2.2272,2.6284,4.951
6.746000,3.3490,-2.2685,2.1585,4.585
6.751000,3.1026,-2.2524,1.6943,4.192
6.755000,2.9440,-2.2215,1.3292,3.920
6.809000,2.8198,-2.1612,1.0130,3.694
6.811000,2.7613,-2.1192,0.7792,3.567
6.811000,2.6463,-2.0285,0.4985,3.371
6.812000,2.4556,-1.8893,0.1807,3.104
6.812000,2.2273,-1.7778,-0.2076,2.857
6.812000,2.0283,-1.6105,-0.6686,2.675
6.813000,1.8252,-1.4305,-1.0158,2.532
6.813000,1.5563,-1.2640,-1.2949,2.387
6.814000,1.2943,-1.1345,-1.6139,2.359
6.814000,1.0489,-0.9943,-1.8818,2.373
6.815000,0.7818,-0.8958,-2.1609,2.466
6.815000,0.5744,-0.7935,-2.4249,2.615
6.819000,0.4192,-0.6680,-2.6306,2.746
6.824000,0.3091,-0.4715,-2.8188,2.875
6.830000,0.2372,-0.2665,-2.9515,2.973
6.835000,0.0984,-0.0387,-3.1506,3.152
6.840000,-0.0162,0.1399,-3.2776,3.281
6.844000,-0.0777,0.3029,-3.4042,3.419
6.850000,-0.1959,0.3948,-3.4877,3.515
6.854000,-0.2964,0.5399,-3.4254,3.480
6.862000,-0.2789,0.6781,-3.3632,3.442
6.869000,-0.2985,0.8283,-3.2991,3.415
6.870000,-0.3338,1.0071,-3.2450,3.414
6.874000,-0.4110,1.1755,-3.1891,3.424
6.916000,-0.5269,1.2783,-3.1819,3.469
6.918000,-0.7054,1.3253,-3.1682,3.506
6.918000,-0.7984,1.3159,-3.1842,3.537
6.919000,-0.9660,1.2955,-3.1796,3.567
6.919000,-1.1505,1.2524,-3.2119,3.634
6.921000,-1.2418,1.1867,-3.2332,3.661
6.921000,-1.3480,1.1635,-3.3533,3.797
6.922000,-1.4479,1.1666,-3.5073,3.970
6.922000,-1.6157,1.1511,-3.6879,4.188
6.923000,-1.7676,1.1393,-3.7921,4.336
6.928000,-1.8726,1.1722,-3.8606,4.448
6.935000,-1.8688,1.2047,-3.8716,4.465
6.940000,-1.8906,1.2106,-3.7846,4.400
6.944000,-1.8544,1.2711,-3.6329,4.272
6.949000,-1.8462,1.3479,-3.3666,4.069
6.953000,-1.8680,1.4405,-3.0673,3.869
6.960000,-1.9075,1.5487,-2.7710,3.703
6.964000,-2.0126,1.6268,-2.5519,3.634
6.969000,-2.1261,1.6694,-2.2497,3.517
6.973000,-2.1924,1.7005,-1.9698,3.403
6.981000,-2.3000,1.7337,-1.7196,3.355
6.984000,-2.3672,1.7739,-1.4848,3.310
6.988000,-2.4328,1.8420,-1.2726,3.306
7.035000,-2.4846,1.8518,-1.1331,3.299
7.036000,-2.5177,1.8870,-0.9682,3.292
7.037000,-2.5398,1.9112,-0.9168,3.308
7.038000,-2.5459,1.9225,-0.8995,3.315
7.038000,-2.4580,1.9041,-0.8779,3.231
7.039000,-2.3748,1.9109,-0.9067,3.180
7.039000,-2.2440,1.9671,-0.9714,3.138
7.040000,-2.1378,1.9291,-0.9330,3.027
7.040000,-1.9575,1.9169,-0.9258,2.892
7.040000,-1.7585,1.9016,-0.8708,2.732
7.047000,-1.5292,1.9549,-0.8921,2.637
7.048000,-1.2775,1.9737,-0.8534,2.501
7.054000,-1.0326,1.9700,-0.8764,2.391
7.059000,-0.8801,1.9655,-0.8703,2.323
7.064000,-0.7383,2.0078,-0.8688,2.309
7.069000,-0.5954,2.0346,-0.8480,2.283
7.072000,-0.4889,2.0506,-0.8249,2.264
7.080000,-0.4044,2.0127,-0.7996,2.203
7.084000,-0.3154,1.9593,-0.8342,2.153
7.087000,-0.2052,1.8619,-0.8689,2.065
7.114000,-0.1622,1.7734,-0.9586,2.022
7.115000,-0.1029,1.7373,-0.9765,1.996
7.117000,-0.0227,1.7465,-1.0180,2.022
7.118000,0.0401,1.7919,-0.9300,2.019
7.118000,0.1359,1.8637,-0.7559,2.016
7.118000,0.2721,1.8782,-0.4743,1.956
7.123000,0.3744,1.8540,-0.1738,1.899
7.127000,0.4282,1.7882,0.1429,1.844
7.132000,0.4289,1.6088,0.4759,1.732
7.137000,0.3719,1.4040,0.7724,1.645
7.142000,0.3223,1.1859,0.9748,1.569
7.147000,0.3216,0.9568,1.1620,1.539
7.152000,0.3697,0.7219,1.3842,1.604
7.157000,0.5407,0.5556,1.5124,1.700
7.163000,0.6957,0.4078,1.6065,1.797
7.167000,0.8481,0.2956,1.7458,1.963
7.173000,0.9191,0.1784,1.9231,2.139
7.188000,1.0143,0.0590,2.1432,2.372
7.190000,1.1482,-0.0770,2.5637,2.810
7.192000,1.2327,-0.1582,2.8519,3.111
7.193000,1.3777,-0.2778,3.1059,3.409
7.251000,1.4849,-0.3690,3.2758,3.615
7.253000,1.5108,-0.4580,3.3306,3.686
7.253000,1.5178,-0.5062,3.3757,3.736
7.254000,1.5395,-0.5304,3.3705,3.743
7.254000,1.5661,-0.4962,3.3177,3.702
7.254000,1.6359,-0.3893,3.3011,3.705
7.255000,1.7171,-0.2932,3.3566,3.782
7.255000,1.7996,-0.3779,3.6422,4.080
7.256000,1.8998,-0.7152,4.1935,4.659
7.256000,1.9819,-1.2981,4.8976,5.441
7.257000,2.0993,-1.8757,5.4622,6.145
7.257000,2.2736,-2.3026,5.6364,6.499
7.258000,2.5513,-2.4712,5.5022,6.549
7.261000,2.8664,-2.4221,5.1515,6.373
7.267000,3.1543,-2.2908,4.7855,6.172
7.271000,3.5016,-2.1003,4.5478,6.112
7.276000,3.7781,-1.9764,4.4068,6.132
7.283000,4.0637,-1.8539,4.4127,6.279
7.286000,4.4233,-1.7378,4.5507,6.580
7.292000,4.8209,-1.5663,4.7776,6.966
7.337000,5.1513,-1.3043,5.0237,7.313
7.340000,5.4150,-1.0390,5.2480,7.612
7.340000,5.6409,-0.9397,5.3929,7.860
7.341000,5.7177,-0.7896,5.4513,7.939
7.342000,5.6043,-0.6063,5.4329,7.829
7.342000,5.3491,-0.4674,5.3017,7.546
7.343000,4.9626,-0.2888,5.0074,7.056
7.344000,4.6414,-0.1641,4.6003,6.537
7.344000,4.2941,-0.1648,4.2720,6.059
7.345000,3.9201,-0.2573,3.9795,5.592
7.347000,3.4809,-0.3742,3.6320,5.045
7.350000,3.0146,-0.5635,3.2751,4.487
7.356000,2.6146,-0.6666,2.9233,3.978
7.361000,2.2237,-0.7121,2.5240,3.438
7.366000,1.8996,-0.7640,2.0987,2.932
7.372000,1.5970,-0.7332,1.6500,2.411
7.376000,1.3110,-0.7630,1.2569,1.970
7.381000,1.0752,-0.7380,0.8811,1.574
7.386000,0.8178,-0.7323,0.6231,1.262
7.391000,0.4794,-0.7168,0.3320,0.924
7.399000,0.1700,-0.7010,0.0917,0.727
7.400000,-0.0483,-0.7093,-0.1268,0.722
7.405000,-0.2830,-0.6482,-0.2589,0.753
7.448000,-0.5201,-0.5895,-0.3189,0.848
7.449000,-0.7592,-0.5172,-0.3742,0.992
7.449000,-0.9312,-0.4811,-0.5131,1.167
7.449000,-1.1177,-0.5298,-0.7450,1.444
7.449000,-1.3573,-0.5479,-1.0411,1.796
7.450000,-1.5377,-0.5256,-1.3389,2.106
7.450000,-1.6214,-0.5537,-1.6670,2.391
7.450000,-1.6308,-0.5219,-1.9605,2.603
7.451000,-1.6973,-0.3701,-2.2145,2.815
7.456000,-1.7556,-0.3018,-2.4702,3.045
7.460000,-1.7660,-0.2570,-2.7277,3.260
7.465000,-1.7288,-0.2237,-2.9847,3.456
7.470000,-1.5820,-0.2470,-3.2124,3.589
7.476000,-1.4187,-0.2744,-3.3081,3.610
7.481000,-1.2173,-0.2266,-3.3820,3.602
7.484000,-1.0110,-0.2183,-3.5609,3.708
7.489000,-0.8289,-0.1659,-3.7250,3.820
7.496000,-0.6944,-0.1552,-3.8481,3.913
7.501000,-0.5859,-0.1074,-3.9948,4.039
7.504000,-0.4938,-0.1153,-4.1007,4.132
7.552000,-0.3386,-0.1069,-4.0629,4.078
7.554000,-0.2376,-0.0492,-3.9558,3.963
7.554000,-0.1329,0.0243,-3.8826,3.885
7.555000,0.0400,0.0486,-3.7691,3.770
7.555000,0.1975,0.0544,-3.7327,3.738
7.556000,0.2464,0.0680,-3.6679,3.677
7.556000,0.2871,0.0173,-3.6084,3.620
7.556000,0.3510,-0.0113,-3.6260,3.643
7.556000,0.3947,-0.0609,-3.6534,3.675
7.557000,0.4536,-0.0163,-3.7241,3.752
7.561000,0.5796,-0.0376,-3.6487,3.695
7.563000,0.6357,0.0045,-3.5707,3.627
7.569000,0.5931,0.0383,-3.3824,3.434
7.574000,0.4403,0.0468,-3.1726,3.203
7.580000,0.2759,0.0536,-2.9535,2.967
7.584000,0.1027,0.0249,-2.7587,2.761
7.589000,-0.0674,-0.0156,-2.6049,2.606
7.594000,-0.1990,-0.0463,-2.4729,2.481
7.610000,-0.3204,-0.1202,-2.3746,2.399
7.611000,-0.4150,-0.2060,-2.2789,2.326
7.611000,-0.5115,-0.2316,-2.1500,2.222
7.613000,-0.5379,-0.2783,-2.0955,2.181
7.618000,-0.5258,-0.3146,-2.0673,2.156
7.624000,-0.4830,-0.2761,-2.0102,2.086
7.633000,-0.4068,-0.2845,-1.9388,2.001
7.634000,-0.3739,-0.2418,-1.8505,1.903
7.639000,-0.3195,-0.2295,-1.7574,1.801
7.670000,-0.3011,-0.2473,-1.6571,1.702
7.670000,-0.2490,-0.2334,-1.4612,1.501
7.671000,-0.1132,-0.1952,-1.1675,1.189
7.671000,0.0012,-0.0969,-0.8742,0.880
7.671000,0.0130,-0.0492,-0.6794,0.681
7.671000,-0.0352,-0.0810,-0.4586,0.467
7.673000,-0.0284,-0.1426,-0.2072,0.253
7.680000,-0.1072,-0.1908,-0.0830,0.234
7.683000,-0.1879,-0.2332,-0.0789,0.310
7.688000,-0.2539,-0.1645,-0.0918,0.316
7.693000,-0.2911,-0.1256,-0.1216,0.340
7.697000,-0.3114,-0.0973,-0.1181,0.347
7.702000,-0.3316,-0.0053,-0.1577,0.367
7.708000,-0.3185,0.0211,-0.1137,0.339
7.712000,-0.2965,0.0563,-0.0912,0.315
7.718000,-0.2084,0.1285,-0.0877,0.260
7.723000,-0.2104,0.1755,-0.0649,0.282
7.728000,-0.2665,0.2207,-0.1280,0.369
7.732000,-0.2815,0.2233,-0.2099,0.416
7.738000,-0.3534,0.2551,-0.3272,0.545
7.743000,-0.3916,0.2706,-0.4345,0.644
7.766000,-0.4297,0.2603,-0.5890,0.774
7.767000,-0.4174,0.2839,-0.7189,0.878
7.767000,-0.3976,0.2844,-0.8938,1.019
7.767000,-0.3936,0.2355,-1.0825,1.176
7.767000,-0.3576,0.2573,-1.2706,1.345
7.772000,-0.3228,0.2687,-1.5085,1.566
7.776000,-0.2530,0.2627,-1.6740,1.713
7.782000,-0.1913,0.2367,-1.8201,1.845
7.787000,-0.1250,0.1481,-1.9706,1.980
7.792000,-0.0806,0.0519,-2.0635,2.066
7.797000,-0.0071,-0.0442,-2.1348,2.135
7.802000,0.0048,-0.0688,-2.1966,2.198
7.807000,0.0463,-0.0600,-2.2945,2.296
7.811000,0.0076,-0.0821,-2.4211,2.423
7.817000,-0.0872,-0.1378,-2.4810,2.486
7.822000,-0.1876,-0.2913,-2.5077,2.532
7.827000,-0.2796,-0.3774,-2.4892,2.533
7.835000,-0.3893,-0.4461,-2.4520,2.522
7.836000,-0.5479,-0.5308,-2.4460,2.562
7.841000,-0.6677,-0.5192,-2.4568,2.598
7.877000,-0.7826,-0.5474,-2.4460,2.626
7.877000,-0.8780,-0.6348,-2.2869,2.531
7.877000,-0.9586,-0.7624,-2.0395,2.379
7.878000,-0.9548,-0.9614,-1.7758,2.234
7.878000,-0.9166,-1.2201,-1.5893,2.203
7.878000,-0.8900,-1.4522,-1.3721,2.187
7.878000,-0.8748,-1.6598,-1.1982,2.226
7.881000,-0.8492,-1.8691,-0.9699,2.271
7.886000,-0.8008,-2.1176,-0.8042,2.403
7.892000,-0.6986,-2.3379,-0.6773,2.532
7.896000,-0.5453,-2.5196,-0.4621,2.619
7.901000,-0.3242,-2.6551,-0.2640,2.688
7.906000,-0.1144,-2.7251,0.0151,2.728
7.910000,0.1798,-2.7605,0.4205,2.798
7.916000,0.4221,-2.7426,0.7967,2.887
7.921000,0.7038,-2.6809,1.1890,3.016
7.926000,0.9029,-2.5732,1.4609,3.094
7.931000,1.1679,-2.4195,1.6726,3.165
7.936000,1.3958,-2.2725,1.8766,3.261
7.940000,1.6813,-2.0440,2.0638,3.356
7.946000,1.8638,-1.7175,2.2892,3.415
7.953000,1.9580,-1.4423,2.5527,3.526
7.956000,2.0627,-1.2474,2.8109,3.703
7.963000,2.1963,-1.1578,3.2075,4.056
7.975000,2.2898,-1.3103,3.8616,4.677
7.976000,2.3584,-1.8011,4.6769,5.539
7.976000,2.4436,-2.5229,5.2918,6.351
8.004000,2.4861,-3.2316,5.5630,6.897
8.005000,2.5064,-3.6019,5.4720,7.014
8.005000,2.5606,-3.6503,5.0055,6.703
8.006000,2.7579,-3.5266,4.3197,6.221
8.006000,2.9992,-3.2724,3.5350,5.674
8.006000,3.1812,-2.9074,2.8741,5.180
8.018000,3.4235,-2.6098,2.4783,4.967
8.019000,3.5399,-2.3505,2.3782,4.869
8.020000,3.6033,-2.0984,2.5134,4.869
8.025000,3.7172,-1.9267,2.8401,5.059
8.030000,3.7744,-1.7817,3.1261,5.215
8.035000,3.7697,-1.6508,3.3664,5.317
8.040000,3.6644,-1.4494,3.3841,5.194
8.045000,3.5033,-1.2589,3.2873,4.966
8.050000,3.3286,-1.0152,3.1743,4.710
8.055000,3.1616,-0.7893,3.0525,4.465
8.075000,3.0114,-0.6031,3.0511,4.329
8.075000,2.9113,-0.4378,3.0671,4.251
8.076000,2.9401,-0.4369,3.0766,4.278
8.076000,2.9973,-0.4073,3.0984,4.330
8.082000,3.0330,-0.4214,2.9411,4.246
8.086000,3.0926,-0.4338,2.6813,4.116
8.090000,3.1428,-0.4328,2.3479,3.947
8.094000,3.1696,-0.4274,1.8595,3.700
8.100000,3.1060,-0.4289,1.2524,3.376
8.104000,3.0267,-0.4842,0.7348,3.152
8.110000,2.8670,-0.5303,0.2445,2.926
8.116000,2.7544,-0.5209,-0.2137,2.811
8.120000,2.7248,-0.5223,-0.5823,2.835
8.126000,2.6970,-0.5032,-0.8926,2.885
8.131000,2.6902,-0.4565,-1.2091,2.985
8.136000,2.6993,-0.3459,-1.4409,3.079
8.140000,2.7272,-0.1953,-1.6265,3.181
8.146000,2.7078,-0.0382,-1.7590,3.229
8.149000,2.6733,0.1566,-1.8100,3.232
8.155000,2.5905,0.4077,-1.9185,3.249
8.170000,2.4952,0.5907,-1.9744,3.236
8.173000,2.3422,0.7122,-1.9302,3.117
8.174000,2.1122,0.8035,-1.8983,2.951
8.175000,1.8944,0.9385,-1.8406,2.803
8.225000,1.6791,1.0448,-1.7142,2.617
8.226000,1.4709,1.1871,-1.6052,2.480
8.227000,1.2861,1.2901,-1.4899,2.353
8.227000,1.0525,1.3757,-1.4253,2.243
8.227000,0.8584,1.4195,-1.3541,2.141
8.228000,0.6699,1.4834,-1.2953,2.080
8.228000,0.5515,1.5100,-1.2945,2.064
8.228000,0.5075,1.5849,-1.3179,2.123
8.229000,0.4277,1.6871,-1.2986,2.172
8.229000,0.2905,1.7300,-1.3538,2.216
8.229000,0.1080,1.7472,-1.4188,2.253
8.235000,-0.0459,1.7844,-1.5198,2.344
8.240000,-0.1782,1.7508,-1.6067,2.383
8.246000,-0.2867,1.7542,-1.7103,2.467
8.249000,-0.3644,1.7757,-1.8355,2.580
8.254000,-0.4448,1.7796,-1.9152,2.652
8.258000,-0.5037,1.7684,-2.0091,2.724
8.264000,-0.5723,1.7689,-2.0720,2.784
8.269000,-0.5886,1.7976,-2.0558,2.794
8.273000,-0.6383,1.7832,-2.0946,2.824
8.280000,-0.6711,1.8713,-2.1502,2.928
8.283000,-0.6989,1.9044,-2.1652,2.967
8.288000,-0.7072,1.8871,-2.2113,2.992
8.343000,-0.7104,1.9462,-2.2025,3.024
8.343000,-0.7513,1.9671,-2.1413,3.003
8.344000,-0.7340,2.0023,-2.0876,2.984
8.344000,-0.6986,2.0782,-1.9841,2.957
8.344000,-0.6380,2.1010,-1.7951,2.836
8.345000,-0.5589,2.1591,-1.6550,2.777
8.345000,-0.4972,2.1854,-1.5349,2.716
8.346000,-0.4770,2.1845,-1.3965,2.636
8.346000,-0.4766,2.1777,-1.2519,2.557
8.346000,-0.4526,2.1076,-1.1778,2.456
8.346000,-0.4723,2.0864,-1.0449,2.381
8.349000,-0.4968,2.0159,-0.8941,2.261
8.353000,-0.4786,1.9416,-0.8162,2.160
8.358000,-0.4942,1.8517,-0.7440,2.056
8.363000,-0.5174,1.7435,-0.6586,1.934
8.369000,-0.5484,1.6487,-0.6170,1.844
8.374000,-0.5778,1.5624,-0.6455,1.787
8.378000,-0.6251,1.4586,-0.6934,1.732
8.387000,-0.6785,1.3948,-0.7442,1.720
8.388000,-0.7097,1.3305,-0.7305,1.676
8.443000,-0.6931,1.2898,-0.7023,1.624
8.443000,-0.6813,1.2512,-0.6790,1.578
8.444000,-0.6652,1.2530,-0.7128,1.588
8.444000,-0.6236,1.2401,-0.6986,1.554
8.444000,-0.5680,1.1935,-0.7129,1.502
8.445000,-0.5088,1.1320,-0.7246,1.437
8.445000,-0.4197,1.0728,-0.7143,1.355
8.445000,-0.2531,0.9867,-0.6225,1.194
8.446000,-0.0665,0.9574,-0.5712,1.117
8.446000,0.1331,0.9609,-0.5030,1.093
8.446000,0.3119,0.9422,-0.4251,1.080
8.447000,0.4913,0.8868,-0.3733,1.080
8.454000,0.6405,0.8688,-0.3213,1.126
8.459000,0.8046,0.8093,-0.3195,1.185
8.463000,0.9502,0.7678,-0.3509,1.271
8.467000,1.1108,0.7254,-0.3725,1.378
8.472000,1.2339,0.7012,-0.3724,1.467
8.478000,1.3796,0.6547,-0.4175,1.583
8.482000,1.5310,0.6076,-0.4911,1.719
8.487000,1.7074,0.5433,-0.5524,1.875
8.492000,1.8227,0.4860,-0.5321,1.960
8.500000,2.0306,0.4669,-0.5093,2.145
8.503000,2.2591,0.4909,-0.5317,2.372
8.507000,2.4368,0.5006,-0.4368,2.526
8.560000,2.6449,0.4600,-0.3180,2.703
8.561000,2.7998,0.4220,-0.2111,2.839
8.561000,2.9182,0.3052,0.0704,2.935
8.561000,2.9508,0.1477,0.3897,2.980
8.562000,2.9317,-0.0743,0.7635,3.030
8.562000,2.8977,-0.3275,1.0622,3.104
8.562000,2.8581,-0.5998,1.3076,3.200
8.563000,2.8107,-0.8193,1.4591,3.271
8.563000,2.7191,-1.0337,1.5146,3.280
8.563000,2.6244,-1.2016,1.5890,3.295
8.563000,2.5245,-1.2818,1.5198,3.213
8.567000,2.3836,-1.2884,1.4410,3.069
8.573000,2.2306,-1.2499,1.3696,2.901
8.577000,2.1133,-1.2163,1.4609,2.842
8.582000,2.0390,-1.2546,1.6597,2.913
8.586000,2.0431,-1.3197,1.8177,3.036
8.592000,2.0036,-1.3641,1.9348,3.101
8.597000,1.9833,-1.3977,2.0042,3.147
8.602000,1.9964,-1.3731,2.0475,3.172
8.606000,2.0299,-1.2522,2.1198,3.191
8.614000,2.0900,-1.1285,2.2644,3.282
8.617000,2.1285,-1.0573,2.3734,3.359
8.621000,2.2208,-0.9504,2.5428,3.507
8.668000,2.3159,-0.8659,2.6601,3.632
8.669000,2.4033,-0.8999,2.8593,3.842
8.670000,2.4594,-1.1633,3.1759,4.182
8.670000,2.5164,-1.6034,3.5952,4.672
8.671000,2.5803,-2.2322,3.8992,5.181
8.671000,2.6977,-2.9538,4.0904,5.721
8.671000,2.8139,-3.6090,4.0827,6.133
8.672000,3.0001,-4.0898,3.9151,6.407
8.672000,3.2630,-4.4070,3.7409,6.638
8.673000,3.5528,-4.6265,3.5747,6.841
8.675000,3.9274,-4.7306,3.3878,7.020
8.680000,4.3421,-4.6173,3.0990,7.055
8.686000,4.6115,-4.3908,2.9452,7.016
8.690000,4.9391,-4.0958,2.8331,7.014
8.698000,5.2966,-3.6913,2.8774,7.068
8.701000,5.5664,-3.2139,3.0826,7.129
8.706000,5.6716,-2.6680,3.3385,7.101
8.714000,5.6001,-2.1681,3.5992,7.001
8.716000,5.3067,-1.7432,3.8117,6.762
8.720000,4.9716,-1.3950,3.6671,6.333
8.725000,4.6471,-1.0794,3.3595,5.835
8.763000,4.3249,-0.8664,2.9776,5.322
8.764000,4.0280,-0.6916,2.5334,4.808
8.765000,3.8748,-0.6030,2.1278,4.462
8.766000,3.6927,-0.5742,1.7343,4.120
8.766000,3.4796,-0.6123,1.3674,3.788
8.767000,3.3238,-0.6808,0.9624,3.527
8.767000,3.2041,-0.8224,0.5220,3.349
8.767000,3.0385,-0.9527,0.1037,3.186
8.770000,2.8896,-1.0732,-0.2995,3.097
8.774000,2.7792,-1.1977,-0.7855,3.127
8.780000,2.6173,-1.3350,-1.2086,3.177
8.787000,2.3759,-1.4868,-1.5974,3.226
8.793000,2.1534,-1.6120,-1.9974,3.350
8.797000,1.9290,-1.7530,-2.3011,3.477
8.799000,1.6908,-1.8617,-2.6018,3.619
8.805000,1.4085,-1.9617,-2.9236,3.792
8.811000,1.1904,-2.0405,-3.1349,3.925
8.815000,0.9856,-2.1103,-3.3770,4.102
8.820000,0.7567,-2.1225,-3.5996,4.247
8.824000,0.4897,-2.1801,-3.8101,4.417
8.831000,0.2226,-2.1679,-3.9415,4.504
8.835000,-0.1447,-2.0642,-3.9795,4.485
8.839000,-0.4182,-1.9289,-3.9936,4.455
8.885000,-0.6650,-1.8723,-3.9984,4.465
8.887000,-0.8491,-1.8274,-3.9531,4.437
8.887000,-0.9809,-1.7277,-3.7788,4.269
8.888000,-1.0442,-1.6430,-3.6216,4.112
8.888000,-1.1107,-1.4900,-3.4312,3.902
8.889000,-1.2186,-1.3074,-3.3034,3.756
8.890000,-1.2893,-1.0695,-3.2429,3.650
8.890000,-1.3423,-0.9466,-3.2281,3.622
8.890000,-1.3755,-0.8313,-3.1370,3.525
8.891000,-1.4320,-0.7048,-3.0820,3.471
8.896000,-1.4426,-0.6582,-3.0585,3.445
8.899000,-1.4691,-0.6316,-2.9922,3.393
8.904000,-1.4161,-0.5313,-2.9741,3.337
8.909000,-1.2960,-0.4122,-3.0158,3.308
8.914000,-1.1908,-0.2908,-3.0383,3.276
8.919000,-1.0551,-0.1645,-2.9840,3.169
8.924000,-0.9584,-0.0426,-2.9223,3.076
8.929000,-0.8483,0.0676,-2.8629,2.987
8.934000,-0.7557,0.1445,-2.7268,2.833
8.938000,-0.6445,0.1854,-2.5357,2.623
8.987000,-0.5025,0.2305,-2.2804,2.346
8.988000,-0.3627,0.3011,-2.0567,2.110
8.988000,-0.1985,0.3653,-1.8648,1.911
8.988000,-0.0839,0.4421,-1.7502,1.807
8.989000,0.0435,0.4497,-1.6673,1.727
8.989000,0.1311,0.4266,-1.6785,1.737
8.989000,0.2171,0.4252,-1.7476,1.812
8.990000,0.2297,0.3504,-1.7884,1.837
8.990000,0.2286,0.3292,-1.8630,1.906
8.991000,0.2785,0.2733,-1.9500,1.989
8.996000,0.3407,0.2286,-2.0011,2.043
8.998000,0.3861,0.2047,-1.9854,2.033
9.003000,0.4169,0.1251,-1.9865,2.034
9.008000,0.4210,-0.0220,-1.9326,1.978
9.013000,0.3912,-0.1073,-1.8835,1.927
9.018000,0.3536,-0.2004,-1.8297,1.874
9.023000,0.3559,-0.2771,-1.8117,1.867
9.028000,0.3455,-0.3520,-1.7291,1.798
9.034000,0.3249,-0.3911,-1.7349,1.808
9.039000,0.3132,-0.4349,-1.6713,1.755
9.043000,0.2817,-0.4787,-1.6362,1.728
9.052000,0.2973,-0.4839,-1.6009,1.699
9.054000,0.3239,-0.4510,-1.4531,1.556
9.057000,0.3951,-0.4830,-1.2480,1.395
9.106000,0.5250,-0.4508,-1.1505,1.343
9.106000,0.6248,-0.4152,-1.1105,1.340
9.107000,0.6896,-0.3857,-1.0704,1.330
9.107000,0.7861,-0.3651,-1.1091,1.408
9.107000,0.8543,-0.3031,-1.1979,1.502
9.107000,0.9685,-0.2378,-1.3699,1.694
9.108000,1.0784,-0.1789,-1.4938,1.851
9.108000,1.2129,-0.1619,-1.6531,2.057
9.109000,1.3046,-0.0766,-1.8166,2.238
9.109000,1.4135,-0.0689,-1.9031,2.372
9.114000,1.4946,-0.0787,-1.9748,2.478
9.116000,1.5501,-0.0630,-2.0677,2.585
9.122000,1.6240,-0.0862,-2.1411,2.689
9.129000,1.6347,-0.1917,-2.2334,2.774
9.132000,1.5995,-0.3288,-2.2177,2.754
9.139000,1.5426,-0.4781,-2.2738,2.789
9.142000,1.4785,-0.5753,-2.3273,2.817
9.147000,1.3984,-0.6436,-2.3713,2.827
9.152000,1.3503,-0.7070,-2.4702,2.903
9.157000,1.3299,-0.7892,-2.5333,2.968
9.163000,1.3087,-0.8776,-2.5057,2.960
9.167000,1.2702,-0.9796,-2.4019,2.888
9.172000,1.2509,-1.0445,-2.2723,2.796
9.233000,1.2487,-1.1201,-2.0788,2.671
9.235000,1.1940,-1.1422,-1.9339,2.544
9.235000,1.0650,-1.1730,-1.7680,2.374
9.235000,0.9070,-1.2274,-1.5574,2.180
9.236000,0.8297,-1.2600,-1.3569,2.029
9.236000,0.7973,-1.2853,-1.2048,1.934
9.236000,0.7543,-1.3203,-1.0892,1.870
9.237000,0.6835,-1.3027,-1.0121,1.786
9.237000,0.6083,-1.2878,-0.9352,1.704
9.237000,0.5111,-1.3711,-0.8558,1.695
9.237000,0.4207,-1.5572,-0.5946,1.719
9.238000,0.3206,-1.7551,-0.1734,1.793
9.238000,0.2253,-2.0605,0.2474,2.087
9.241000,0.1801,-2.4232,0.6223,2.508
9.246000,0.1058,-2.8477,1.0112,3.024
9.252000,0.0888,-3.2095,1.3758,3.493
9.257000,0.1173,-3.5681,1.6181,3.920
9.266000,0.2272,-3.8055,1.7310,4.187
9.267000,0.3159,-3.9953,1.8104,4.398
9.271000,0.4004,-4.0960,1.9256,4.544
9.276000,0.3930,-4.2047,2.0381,4.689
9.316000,0.4423,-4.3020,2.1959,4.850
9.317000,0.5502,-4.3182,2.4084,4.975
9.317000,0.6498,-4.3300,2.5034,5.044
9.318000,0.7150,-4.2414,2.6700,5.063
9.318000,0.8008,-4.0531,2.8482,5.018
9.318000,0.8928,-3.8203,3.0238,4.953
9.319000,1.0191,-3.5462,3.2566,4.921
9.319000,1.1819,-3.3057,3.5968,5.026
9.322000,1.1985,-3.2457,3.9918,5.283
9.326000,1.2170,-3.2643,4.3435,5.568
9.331000,1.2085,-3.3163,4.5826,5.784
9.336000,1.1935,-3.2897,4.6544,5.823
9.340000,1.2095,-3.1229,4.6096,5.698
9.346000,1.3182,-2.9209,4.5153,5.537
9.351000,1.3994,-2.6314,4.3573,5.279
9.356000,1.4799,-2.3742,4.2552,5.093
9.363000,1.6809,-2.1472,4.2330,5.035
9.367000,1.9234,-2.0037,4.2162,5.049
9.374000,2.1912,-1.9631,4.1928,5.122
9.376000,2.4157,-1.9467,4.1172,5.155
9.426000,2.5473,-2.0150,3.9294,5.098
9.427000,2.6194,-2.0600,3.5842,4.894
9.428000,2.6776,-2.1555,3.2133,4.705
9.428000,2.7531,-2.2147,2.8575,4.544
9.429000,2.7939,-2.2297,2.3804,4.295
9.429000,2.8146,-2.2284,1.9352,4.078
9.429000,2.8132,-2.2964,1.5577,3.951
9.430000,2.8645,-2.4018,1.2836,3.952
9.430000,2.8869,-2.4848,1.1391,3.976
9.431000,2.9214,-2.6002,0.9998,4.037
9.431000,2.9206,-2.6834,0.8008,4.046
9.435000,2.9107,-2.6794,0.6738,4.013
9.440000,2.9450,-2.6191,0.5971,3.986
9.447000,2.9617,-2.4741,0.4485,3.885
9.451000,2.8916,-2.2778,0.2280,3.688
9.455000,2.7847,-2.0450,-0.0785,3.456
9.460000,2.5570,-1.8212,-0.3249,3.156
9.464000,2.2782,-1.7025,-0.5188,2.891
9.470000,1.9388,-1.5862,-0.6984,2.601
9.475000,1.6390,-1.5064,-0.9091,2.405
9.488000,1.3023,-1.4749,-1.1677,2.288
9.492000,1.0045,-1.3743,-1.4045,2.207
9.493000,0.8049,-1.3218,-1.5979,2.225
9.561000,0.6507,-1.2334,-1.6977,2.197
9.563000,0.5728,-1.0827,-1.7422,2.130
9.566000,0.5303,-0.9368,-1.8056,2.102
9.567000,0.4751,-0.7890,-1.7682,1.994
9.567000,0.3453,-0.7255,-1.7930,1.965
9.568000,0.1863,-0.7179,-1.7937,1.941
9.568000,0.0318,-0.7543,-1.8899,2.035
9.569000,-0.0341,-0.7798,-1.9216,2.074
9.570000,-0.1384,-0.7845,-2.0417,2.192
9.570000,-0.2424,-0.8114,-2.1116,2.275
9.571000,-0.3316,-0.8625,-2.2676,2.449
9.572000,-0.3556,-0.8940,-2.4306,2.614
9.572000,-0.4312,-0.8768,-2.4980,2.682
9.573000,-0.5792,-0.8609,-2.5871,2.787
9.574000,-0.6724,-0.8749,-2.5619,2.789
9.575000,-0.7180,-0.8469,-2.5347,2.767
9.575000,-0.8144,-0.8871,-2.4410,2.722
9.579000,-0.9184,-0.9623,-2.3288,2.682
9.583000,-0.9942,-0.9889,-2.2363,2.640
9.589000,-1.0988,-0.9741,-2.1588,2.611
9.601000,-1.2300,-0.9300,-2.1393,2.637
9.602000,-1.3259,-0.8855,-2.1323,2.662
9.603000,-1.4298,-0.8834,-2.1232,2.708
9.613000,-1.4512,-0.8470,-2.1262,2.710
9.614000,-1.5074,-0.8029,-2.0052,2.634
9.644000,-1.5362,-0.7106,-1.8893,2.537
9.646000,-1.5665,-0.6325,-1.7618,2.441
9.646000,-1.5793,-0.5258,-1.6131,2.318
9.647000,-1.6273,-0.4818,-1.5031,2.267
9.647000,-1.7011,-0.4674,-1.3408,2.216
9.648000,-1.7866,-0.4806,-1.2579,2.237
9.649000,-1.8598,-0.5068,-1.1728,2.256
9.653000,-1.9494,-0.5151,-1.1670,2.330
9.658000,-2.0195,-0.5077,-1.1996,2.403
9.663000,-2.0631,-0.5467,-1.2491,2.473
9.668000,-2.0924,-0.6054,-1.3392,2.557
9.673000,-2.1123,-0.6000,-1.3718,2.589
9.678000,-2.1537,-0.6187,-1.4354,2.661
9.683000,-2.1018,-0.6662,-1.4224,2.624
9.687000,-2.0763,-0.6705,-1.4142,2.600
9.697000,-2.0126,-0.6962,-1.4011,2.549
9.698000,-1.9253,-0.6767,-1.3690,2.457
9.703000,-1.8261,-0.6551,-1.3153,2.344
9.708000,-1.7245,-0.6557,-1.3646,2.295
9.749000,-1.6278,-0.5991,-1.3613,2.205
9.750000,-1.4164,-0.5716,-1.4537,2.109
9.751000,-1.2023,-0.5111,-1.5509,2.028
9.751000,-1.0073,-0.4654,-1.6529,1.991
9.751000,-0.7541,-0.4032,-1.6857,1.890
9.751000,-0.5893,-0.3941,-1.7927,1.928
9.752000,-0.4507,-0.3135,-1.8543,1.934
9.752000,-0.3410,-0.2886,-1.8824,1.935
9.752000,-0.3225,-0.3264,-1.8984,1.953
9.758000,-0.2826,-0.3433,-1.8978,1.949
9.763000,-0.2622,-0.4184,-1.8828,1.946
9.767000,-0.2495,-0.4514,-1.8846,1.954
9.772000,-0.1801,-0.5165,-1.9366,2.012
9.777000,-0.0590,-0.5683,-1.9693,2.050
9.783000,0.0873,-0.5875,-2.0640,2.148
9.787000,0.1985,-0.5982,-2.2373,2.324
9.793000,0.2316,-0.6428,-2.4124,2.507
9.797000,0.2590,-0.7497,-2.5536,2.674
9.802000,0.3308,-0.8154,-2.7207,2.859
9.806000,0.4473,-0.8681,-2.9136,3.073
9.859000,0.6470,-0.9050,-3.1202,3.313
9.861000,0.8603,-0.9376,-3.1876,3.432
9.861000,1.0302,-0.9345,-3.1325,3.427
9.861000,1.2096,-0.9146,-3.0126,3.373
9.862000,1.3675,-0.8638,-2.8830,3.306
9.865000,1.5109,-0.8038,-2.7199,3.214
9.865000,1.6496,-0.7302,-2.5519,3.125
9.867000,1.8167,-0.6407,-2.3313,3.024
9.867000,1.8997,-0.5165,-2.1752,2.934
9.868000,1.9011,-0.4057,-2.0407,2.818
9.869000,1.9001,-0.3203,-1.8320,2.659
9.869000,1.8490,-0.2105,-1.6521,2.488
9.872000,1.7744,-0.2055,-1.3745,2.254
9.877000,1.7484,-0.2218,-1.0566,2.055
9.881000,1.6970,-0.2550,-0.6676,1.841
9.886000,1.6825,-0.2904,-0.2458,1.725
9.893000,1.6713,-0.2878,0.1753,1.705
9.897000,1.6316,-0.3240,0.5072,1.739
9.902000,1.5872,-0.4399,0.8530,1.855
9.906000,1.4471,-0.6210,1.1170,1.931
9.912000,1.2808,-0.8170,1.3303,2.019
9.916000,1.1100,-1.0159,1.4883,2.116
9.921000,0.9915,-1.2004,1.6174,2.245
9.934000,0.8657,-1.2813,1.6605,2.269
9.936000,0.6941,-1.3301,1.7158,2.279
9.937000,0.5653,-1.3868,1.8695,2.395
9.940000,0.4364,-1.4369,2.0472,2.539
9.995000,0.3312,-1.4155,2.2612,2.688
9.996000,0.3429,-1.3972,2.4777,2.865
9.997000,0.4042,-1.3680,2.7612,3.108
9.997000,0.4360,-1.2730,3.0832,3.364
9.998000,0.4574,-1.1606,3.4314,3.651
9.998000,0.4133,-1.0097,3.7317,3.888
9.998000,0.2631,-0.8757,3.9770,4.081
9.999000,0.0785,-0.7327,4.2125,4.276
9.999000,-0.1069,-0.5883,4.4192,4.459
10.000000,-0.2407,-0.5338,4.7047,4.741
10.000000,-0.3130,-0.5222,4.9919,5.029
10.001000,-0.3639,-0.6158,5.2928,5.341
10.007000,-0.2670,-0.7602,5.5593,5.617
10.015000,-0.0271,-0.8930,5.6863,5.756
10.015000,0.2906,-0.9714,5.5520,5.644
10.020000,0.5275,-1.0431,5.3196,5.447
10.025000,0.7526,-1.0882,5.0134,5.185
10.031000,1.0308,-1.0917,4.6717,4.907
10.035000,1.4168,-0.9909,4.3737,4.703
10.041000,1.7865,-0.8687,4.1817,4.630
10.050000,2.1664,-0.7869,3.9951,4.612
10.054000,2.5375,-0.6326,3.9192,4.712
10.056000,2.8047,-0.4822,3.9203,4.844
10.102000,3.0280,-0.3552,3.9958,5.026
10.102000,3.1386,-0.1489,4.0569,5.131
10.103000,3.1541,-0.0052,4.1323,5.198
10.103000,3.1297,0.1329,4.2215,5.257
10.103000,3.0134,0.2743,4.3173,5.272
10.104000,2.8604,0.3347,4.2998,5.175
10.104000,2.6992,0.4546,4.2170,5.027
10.104000,2.4651,0.5572,4.0043,4.735
10.105000,2.1794,0.5516,3.7912,4.408
10.105000,1.8684,0.5501,3.4795,3.988
10.110000,1.5627,0.5507,3.0888,3.505
10.115000,1.2571,0.5655,2.6790,3.013
10.119000,0.9969,0.5475,2.2886,2.556
10.124000,0.7410,0.5326,1.8461,2.059
10.133000,0.4915,0.5737,1.5525,1.726
10.134000,0.2004,0.5636,1.3168,1.446
10.139000,-0.0605,0.5717,1.0744,1.219
10.180000,-0.2961,0.5739,0.8852,1.096
10.180000,-0.4990,0.5658,0.7370,1.055
10.182000,-0.6956,0.5446,0.5702,1.051
10.182000,-0.8711,0.5367,0.4442,1.115
10.182000,-1.0254,0.4843,0.2467,1.161
10.183000,-1.2036,0.4188,0.1116,1.279
10.184000,-1.3580,0.2921,-0.0999,1.393
10.184000,-1.3856,0.2503,-0.3111,1.442
10.185000,-1.4058,0.1790,-0.6178,1.546
10.189000,-1.4216,0.1498,-0.9216,1.701
10.194000,-1.3494,0.1227,-1.2200,1.823
10.200000,-1.3355,0.0907,-1.4794,1.995
10.204000,-1.3011,0.0176,-1.7357,2.169
10.209000,-1.2477,-0.0434,-1.9198,2.290
10.215000,-1.1832,-0.1072,-2.1008,2.413
10.218000,-1.1053,-0.1854,-2.3410,2.595
10.224000,-1.1212,-0.1315,-2.6141,2.847
10.234000,-1.0774,-0.0967,-2.8961,3.091
10.235000,-1.0382,-0.1065,-3.1010,3.272
10.239000,-0.9606,-0.1370,-3.2839,3.424
10.269000,-0.9044,-0.1640,-3.4663,3.586
10.269000,-0.8600,-0.1439,-3.6124,3.716
10.270000,-0.8158,-0.0987,-3.6886,3.779
10.270000,-0.8382,-0.0758,-3.7956,3.888
10.270000,-0.8792,-0.1092,-3.8378,3.939
10.271000,-0.9190,-0.1342,-3.8322,3.943
10.273000,-0.9598,-0.1314,-3.8890,4.008
10.279000,-0.9779,-0.1372,-3.8669,3.991
10.283000,-0.9563,-0.2158,-3.8810,4.003
10.288000,-0.9692,-0.2838,-3.8834,4.013
10.293000,-0.9759,-0.3293,-3.8645,3.999
10.298000,-0.9908,-0.3904,-3.8340,3.979
10.303000,-1.0277,-0.4886,-3.8852,4.048
10.309000,-1.0842,-0.5161,-3.9057,4.086
10.314000,-1.0816,-0.5565,-3.9027,4.088
10.318000,-1.0651,-0.6623,-3.8643,4.063
10.324000,-1.0616,-0.7328,-3.8430,4.054
10.330000,-1.0398,-0.8471,-3.7742,4.005
10.333000,-0.9809,-0.9689,-3.6795,3.929
10.337000,-0.9499,-1.0051,-3.6041,3.860
10.394000,-0.9442,-0.9845,-3.5315,3.786
10.396000,-0.9189,-0.9932,-3.4278,3.685
10.396000,-0.9170,-1.0193,-3.3745,3.642
10.396000,-0.9293,-0.9744,-3.2926,3.557
10.397000,-0.9869,-0.9878,-3.1963,3.488
10.397000,-1.0422,-0.9588,-3.1430,3.447
10.398000,-1.0783,-0.8758,-3.0849,3.383
10.398000,-1.1313,-0.8271,-3.0147,3.325
10.398000,-1.1270,-0.7412,-2.8679,3.169
10.399000,-1.1345,-0.6779,-2.7548,3.055
10.399000,-1.1087,-0.5538,-2.6201,2.898
10.401000,-1.1235,-0.4698,-2.4927,2.774
10.405000,-1.1743,-0.4019,-2.3414,2.650
10.407000,-1.2155,-0.3506,-2.1808,2.521
10.413000,-1.2855,-0.2872,-2.0274,2.418
10.417000,-1.3363,-0.2430,-1.8838,2.322
10.423000,-1.3893,-0.2256,-1.7547,2.249
10.429000,-1.4063,-0.1750,-1.6187,2.151
10.432000,-1.3947,-0.1157,-1.5211,2.067
10.437000,-1.3783,-0.0907,-1.4548,2.006
10.442000,-1.4074,-0.0667,-1.4484,2.021
10.446000,-1.4702,-0.0102,-1.4109,2.038
10.453000,-1.4948,0.0454,-1.4357,2.073
10.458000,-1.4909,0.0545,-1.4294,2.066
10.464000,-1.4800,0.0625,-1.4326,2.061
10.467000,-1.4315,0.0955,-1.4908,2.069
10.472000,-1.3789,0.0842,-1.5154,2.051
10.476000,-1.3465,0.0455,-1.4943,2.012
10.532000,-1.3439,-0.0301,-1.5040,2.017
10.533000,-1.2821,-0.1040,-1.5352,2.003
10.534000,-1.1420,-0.2286,-1.4514,1.861
10.534000,-1.0122,-0.3703,-1.3222,1.706
10.534000,-0.8711,-0.5575,-1.1140,1.520
10.534000,-0.7304,-0.7113,-0.8679,1.339
10.534000,-0.6281,-0.9177,-0.5790,1.254
10.535000,-0.5264,-1.1335,-0.2593,1.276
10.535000,-0.4853,-1.3682,0.1081,1.456
10.535000,-0.3564,-1.5902,0.5518,1.720
10.535000,-0.2544,-1.8664,1.0046,2.135
10.537000,-0.1025,-2.1010,1.5168,2.593
10.542000,0.1140,-2.3324,2.0379,3.099
10.547000,0.3454,-2.5388,2.5007,3.580
10.552000,0.4560,-2.6629,2.8168,3.903
10.557000,0.6161,-2.7835,2.9980,4.137
10.562000,0.7629,-2.8138,3.0162,4.195
10.566000,0.8892,-2.8157,2.9911,4.203
10.571000,0.9977,-2.7311,2.9802,4.164
10.576000,1.1199,-2.5647,2.9403,4.059
10.623000,1.2635,-2.3638,2.9239,3.966
10.624000,1.4165,-2.0978,3.0386,3.955
10.624000,1.5931,-1.8553,3.2365,4.056
10.625000,1.7642,-1.5913,3.4722,4.207
10.625000,1.8671,-1.4169,3.8078,4.471
10.626000,1.8581,-1.3637,4.2745,4.856
10.626000,1.8154,-1.5524,4.9130,5.463
10.626000,1.7556,-1.9307,5.5866,6.166
10.627000,1.7307,-2.3513,6.1328,6.792
10.627000,1.7661,-2.7024,6.3893,7.159
10.634000,1.8968,-2.8621,6.3639,7.231
10.636000,1.9642,-2.7927,6.0689,6.963
10.641000,2.0541,-2.6565,5.4692,6.418
10.646000,2.2084,-2.4598,4.7232,5.765
10.651000,2.3073,-2.2330,4.1039,5.211
10.665000,2.3806,-1.9654,3.6014,4.743
10.666000,2.4800,-1.7838,3.2319,4.447
10.667000,2.5658,-1.7286,2.9854,4.299
10.669000,2.7511,-1.7021,2.7873,4.270
10.674000,2.8709,-1.6353,2.5419,4.169
10.718000,2.9157,-1.5905,2.2445,4.009
10.719000,2.9698,-1.6012,2.0072,3.926
10.719000,2.9308,-1.5766,1.6291,3.705
10.719000,2.8678,-1.5951,1.2778,3.522
10.720000,2.8074,-1.6060,0.9510,3.371
10.720000,2.8047,-1.6039,0.6605,3.298
10.720000,2.8573,-1.6005,0.4949,3.312
10.720000,3.0181,-1.6290,0.4157,3.455
10.721000,3.1767,-1.5746,0.3056,3.559
10.726000,3.3262,-1.4899,0.1503,3.648
10.729000,3.3901,-1.3946,0.0454,3.666
10.735000,3.4238,-1.2789,-0.1430,3.658
10.741000,3.3704,-1.1595,-0.3100,3.578
10.746000,3.2706,-0.9862,-0.5056,3.453
10.750000,3.0890,-0.8166,-0.5817,3.248
10.754000,2.8519,-0.5786,-0.5671,2.965
10.762000,2.5859,-0.3541,-0.6151,2.682
10.765000,2.2570,-0.1791,-0.5581,2.332
10.769000,1.8628,-0.0397,-0.4750,1.923
10.774000,1.4818,0.1474,-0.4138,1.545
10.808000,1.0752,0.2860,-0.2978,1.152
10.809000,0.7289,0.4093,-0.2632,0.876
10.809000,0.5284,0.5146,-0.2812,0.789
10.810000,0.3939,0.6397,-0.3086,0.812
10.810000,0.2348,0.7152,-0.3813,0.844
10.811000,0.0083,0.7959,-0.5257,0.954
10.811000,-0.1920,0.8198,-0.6294,1.051
10.814000,-0.3427,0.8686,-0.7688,1.210
10.819000,-0.4464,0.8900,-0.9269,1.360
10.823000,-0.5486,0.8794,-1.0296,1.461
10.829000,-0.6226,0.9015,-1.0746,1.535
10.834000,-0.6659,0.9135,-1.1243,1.594
10.838000,-0.7689,0.9152,-1.1357,1.649
10.844000,-0.8335,0.9189,-1.1281,1.677
10.849000,-0.9195,0.8933,-1.1062,1.693
10.853000,-1.0002,0.8501,-1.0847,1.703
10.858000,-1.0726,0.8420,-1.0613,1.728
10.863000,-1.1152,0.8377,-1.0696,1.758
10.869000,-1.2427,0.8205,-1.0832,1.841
10.874000,-1.3928,0.8119,-1.1214,1.964
10.882000,-1.5221,0.8118,-1.1698,2.084
10.884000,-1.6595,0.7464,-1.1710,2.164
10.888000,-1.8403,0.6682,-1.1779,2.285
10.928000,-1.9880,0.6157,-1.2405,2.423
10.930000,-2.0981,0.5509,-1.2631,2.510
10.930000,-2.1801,0.4806,-1.2362,2.552
10.931000,-2.2534,0.4531,-1.2674,2.625
10.931000,-2.3206,0.4085,-1.3277,2.705
10.931000,-2.3937,0.3611,-1.3741,2.784
10.932000,-2.4057,0.2920,-1.4305,2.814
10.932000,-2.4645,0.2013,-1.4945,2.889
10.934000,-2.4601,0.1635,-1.5012,2.887
10.939000,-2.4311,0.1070,-1.5416,2.881
10.943000,-2.4423,0.0008,-1.5461,2.891
10.948000,-2.4026,-0.0688,-1.5435,2.857
10.954000,-2.2671,-0.1016,-1.5241,2.734
10.959000,-2.1289,-0.0474,-1.5238,2.618
10.964000,-2.0099,0.0004,-1.4922,2.503
10.969000,-1.9390,0.0058,-1.3840,2.382
10.974000,-1.8679,-0.0099,-1.2830,2.266
10.980000,-1.8230,-0.0203,-1.2036,2.185
10.983000,-1.7846,-0.0640,-1.1198,2.108
10.987000,-1.7621,-0.0550,-0.9837,2.019
11.033000,-1.7057,-0.0986,-0.9579,1.959
11.034000,-1.5770,-0.0632,-0.9418,1.838
11.034000,-1.4697,-0.0400,-0.9378,1.744
11.034000,-1.3960,-0.0335,-0.8597,1.640
11.035000,-1.2624,-0.0368,-0.8463,1.520
11.035000,-1.1814,0.0072,-0.8306,1.444
11.035000,-1.0859,0.0483,-0.8319,1.369
11.036000,-0.9667,0.0650,-0.8547,1.292
11.036000,-0.7857,0.1096,-0.8894,1.192
11.037000,-0.6174,0.0959,-0.8930,1.090
11.044000,-0.4905,0.1221,-0.8679,1.004
11.047000,-0.2831,0.1137,-0.8237,0.878
11.052000,-0.0409,0.1734,-0.7795,0.800
11.058000,0.1547,0.2175,-0.8094,0.852
11.062000,0.3083,0.2071,-0.8944,0.968
11.068000,0.4534,0.2167,-1.0079,1.126
11.071000,0.5613,0.2003,-1.1643,1.308
11.077000,0.6417,0.2255,-1.3157,1.481
11.082000,0.7160,0.2423,-1.4979,1.678
11.087000,0.7533,0.2962,-1.7061,1.888
11.093000,0.8108,0.2917,-1.7750,1.973
11.102000,0.8050,0.3082,-1.9776,2.157
11.103000,0.8531,0.3100,-2.1749,2.357
11.108000,0.8974,0.2540,-2.2280,2.415
11.149000,0.9644,0.2414,-2.3477,2.550
11.150000,1.0425,0.2408,-2.4310,2.656
11.150000,1.1270,0.2451,-2.4470,2.705
11.151000,1.2131,0.3021,-2.3791,2.688
11.151000,1.2580,0.2943,-2.3471,2.679
11.152000,1.3314,0.3009,-2.3962,2.758
11.152000,1.3495,0.2910,-2.4022,2.771
11.152000,1.3651,0.3028,-2.4152,2.791
11.153000,1.4428,0.2671,-2.2847,2.715
11.158000,1.5115,0.2173,-2.0326,2.542
11.162000,1.5261,0.1434,-1.7882,2.355
11.167000,1.5325,-0.0140,-1.6187,2.229
11.173000,1.4927,-0.1931,-1.4189,2.069
11.177000,1.5094,-0.3915,-1.2079,1.972
11.182000,1.4703,-0.6446,-1.0000,1.891
11.186000,1.4140,-0.8637,-0.7331,1.812
11.191000,1.3787,-1.1200,-0.4574,1.834
11.197000,1.3121,-1.3966,-0.1299,1.921
11.201000,1.2930,-1.6525,0.2447,2.112
11.207000,1.3448,-1.9065,0.7358,2.446
11.213000,1.3839,-2.0965,1.1711,2.772
11.217000,1.4146,-2.2295,1.5532,3.063
11.221000,1.4772,-2.3105,1.8488,3.307
11.226000,1.4964,-2.3967,2.0489,3.490
11.282000,1.4628,-2.3995,2.2970,3.629
11.283000,1.3955,-2.3068,2.5596,3.718
11.284000,1.3160,-2.1428,2.7865,3.753
11.284000,1.2126,-1.8860,3.0854,3.814
11.284000,1.0660,-1.6974,3.4321,3.974
11.285000,0.8615,-1.5033,3.7763,4.155
11.285000,0.6760,-1.3307,4.0821,4.346
11.285000,0.4157,-1.1328,4.2825,4.449
11.286000,0.0777,-1.0251,4.5067,4.622
11.286000,-0.2091,-0.8934,4.6255,4.716
11.286000,-0.4309,-0.7430,4.6535,4.732
11.287000,-0.6336,-0.7030,4.6196,4.716
11.290000,-0.7866,-0.7640,4.6290,4.757
11.296000,-0.8014,-0.9881,4.6244,4.796
11.300000,-0.7167,-1.3321,4.7039,4.941
11.307000,-0.5252,-1.7118,4.6808,5.012
11.316000,-0.1628,-2.0861,4.4980,4.961
11.317000,0.3278,-2.3612,4.2180,4.845
11.321000,0.8993,-2.4758,3.8217,4.642
11.326000,1.4463,-2.5515,3.3646,4.463
11.369000,2.0462,-2.4961,2.9853,4.397
11.370000,2.6015,-2.3689,2.6861,4.427
11.370000,3.1131,-2.1452,2.4860,4.525
11.370000,3.6465,-1.8749,2.3918,4.747
11.371000,4.1214,-1.5002,2.3434,4.973
11.371000,4.5141,-1.0623,2.3334,5.191
11.371000,4.7456,-0.6073,2.4264,5.364
11.372000,4.7303,-0.1605,2.5955,5.398
11.372000,4.5046,0.2097,2.8211,5.319
11.375000,4.0828,0.5495,3.0768,5.142
11.380000,3.5516,0.7398,3.2232,4.853
11.385000,2.9992,0.8515,3.1193,4.410
11.391000,2.3243,0.8866,2.8637,3.793
11.394000,1.5782,0.8667,2.5216,3.098
11.400000,0.8703,0.7968,2.1745,2.474
11.411000,0.3055,0.6728,1.7655,1.914
11.412000,-0.2027,0.5498,1.4452,1.559
11.415000,-0.6355,0.3808,1.1253,1.347
11.421000,-1.0358,0.1807,0.7604,1.298
11.426000,-1.3748,-0.0046,0.4344,1.442
11.430000,-1.6311,-0.2170,0.0780,1.647
11.435000,-1.7879,-0.3892,-0.2919,1.853
11.439000,-1.8903,-0.5105,-0.5773,2.041
11.450000,-1.9429,-0.6566,-0.8642,2.226
11.452000,-1.9409,-0.7435,-1.0116,2.312
11.455000,-1.9410,-0.7924,-1.1393,2.386
11.508000,-1.9499,-0.8770,-1.2213,2.462
11.509000,-1.9506,-0.9209,-1.2529,2.495
11.509000,-1.9593,-1.0124,-1.2319,2.526
11.510000,-1.9942,-1.0013,-1.2065,2.537
11.510000,-1.9790,-0.9904,-1.1960,2.515
11.510000,-1.9567,-0.9776,-1.1691,2.480
11.511000,-1.9419,-0.9584,-1.1331,2.444
11.511000,-1.8891,-0.9330,-1.0808,2.368
11.511000,-1.8371,-0.8875,-1.0098,2.277
11.511000,-1.7912,-0.7932,-0.9990,2.199
11.512000,-1.7853,-0.7320,-0.9930,2.170
11.513000,-1.7770,-0.6255,-0.9871,2.127
11.519000,-1.7979,-0.5601,-1.0982,2.180
11.524000,-1.8125,-0.4784,-1.2257,2.240
11.529000,-1.8479,-0.4189,-1.4268,2.372
11.534000,-1.8565,-0.3742,-1.6174,2.491
11.538000,-1.8409,-0.3226,-1.7236,2.542
11.547000,-1.7171,-0.2401,-1.8816,2.559
11.549000,-1.5768,-0.1815,-2.0531,2.595
11.553000,-1.3430,-0.0989,-2.2189,2.596
11.558000,-1.1161,0.0103,-2.3600,2.611
11.608000,-0.9462,0.0982,-2.5051,2.680
11.609000,-0.7328,0.1481,-2.6829,2.785
11.609000,-0.5140,0.2249,-2.7881,2.844
11.609000,-0.3451,0.2949,-2.8592,2.895
11.610000,-0.1896,0.4302,-2.8746,2.913
11.610000,-0.0561,0.5060,-2.8754,2.920
11.610000,0.0417,0.5677,-2.8643,2.920
11.610000,0.1115,0.6058,-2.8869,2.952
11.611000,0.2128,0.6677,-2.9286,3.011
11.611000,0.3171,0.6483,-3.0136,3.099
11.613000,0.3979,0.6984,-3.0891,3.192
11.618000,0.4077,0.6647,-3.0380,3.136
11.623000,0.4238,0.6333,-2.9731,3.069
11.628000,0.4297,0.6089,-2.9256,3.019
11.633000,0.3350,0.5314,-2.8717,2.940
11.637000,0.2497,0.4250,-2.8905,2.932
11.646000,0.1428,0.3256,-2.9363,2.958
11.647000,0.0022,0.1593,-2.9922,2.996
11.653000,-0.1288,0.0579,-3.0680,3.071
11.658000,-0.2071,-0.0643,-3.1085,3.116
11.705000,-0.3075,-0.1519,-3.2115,3.230
11.706000,-0.4706,-0.2093,-3.2311,3.272
11.706000,-0.6277,-0.2648,-3.2724,3.343
11.707000,-0.7551,-0.3327,-3.2801,3.382
11.707000,-0.8606,-0.3124,-3.2541,3.380
11.707000,-0.9948,-0.2827,-3.1871,3.351
11.708000,-1.0524,-0.2556,-3.0864,3.271
11.708000,-1.1293,-0.1287,-2.9975,3.206
11.708000,-1.2517,-0.0142,-2.8628,3.125
11.709000,-1.3432,0.1040,-2.6371,2.961
11.717000,-1.4398,0.2589,-2.3660,2.782
11.717000,-1.4913,0.3329,-2.1308,2.622
11.723000,-1.5959,0.4141,-1.9148,2.527
11.728000,-1.6603,0.5095,-1.7275,2.450
11.732000,-1.6967,0.5969,-1.5833,2.396
11.737000,-1.7315,0.6642,-1.4440,2.350
11.741000,-1.7404,0.7377,-1.3167,2.304
11.747000,-1.7521,0.8173,-1.2159,2.284
11.752000,-1.7213,0.8718,-1.1319,2.237
11.758000,-1.6386,0.9177,-1.0336,2.144
11.764000,-1.6332,0.9141,-0.9427,2.096
11.768000,-1.5945,0.8849,-0.8593,2.016
11.772000,-1.5319,0.8513,-0.7762,1.917
11.777000,-1.3997,0.7992,-0.7463,1.776
11.837000,-1.2148,0.7119,-0.7646,1.602
11.838000,-1.0967,0.6876,-0.7809,1.512
11.839000,-0.9663,0.6357,-0.8310,1.424
11.844000,-0.8617,0.6117,-0.9675,1.433
11.845000,-0.7805,0.5848,-1.0251,1.415
11.846000,-0.7277,0.5648,-1.0494,1.396
11.847000,-0.7154,0.5591,-1.0164,1.363
11.847000,-0.6887,0.5099,-0.9045,1.246
11.848000,-0.7073,0.4842,-0.7093,1.113
11.849000,-0.7256,0.4579,-0.4523,0.970
11.849000,-0.7218,0.3467,-0.2127,0.828
11.850000,-0.7463,0.1624,-0.0048,0.764
11.850000,-0.8233,-0.0566,0.1499,0.839
11.851000,-0.8640,-0.2648,0.2420,0.935
11.851000,-0.8589,-0.5167,0.3337,1.056
11.856000,-0.7845,-0.8002,0.4516,1.208
11.867000,-0.6794,-1.1000,0.5766,1.416
11.870000,-0.5172,-1.4064,0.7469,1.674
11.871000,-0.3624,-1.7331,0.8479,1.963
11.923000,-0.1075,-2.0124,0.9322,2.220
11.924000,0.0875,-2.2485,1.0454,2.481
11.924000,0.2705,-2.4745,1.2019,2.764
11.926000,0.4227,-2.6299,1.3729,2.997
11.927000,0.5753,-2.7024,1.6133,3.200
11.927000,0.7287,-2.7183,1.8370,3.361
11.927000,0.9452,-2.5891,2.1037,3.467
11.928000,1.0836,-2.3799,2.4349,3.573
11.928000,1.2301,-2.1246,2.7060,3.654
11.929000,1.3795,-1.8122,3.0584,3.813
11.929000,1.4907,-1.4988,3.4177,4.019
11.932000,1.4035,-1.2999,3.7719,4.229
11.935000,1.3381,-1.0849,4.1520,4.495
11.940000,1.2466,-1.1081,4.5672,4.862
11.946000,1.1723,-1.3029,5.0987,5.392
11.951000,1.0959,-1.6674,5.5551,5.903
11.956000,1.0818,-2.1176,5.8455,6.311
11.961000,1.2033,-2.4359,5.9871,6.575
11.965000,1.3641,-2.5051,5.8224,6.484
11.970000,1.4988,-2.4422,5.4430,6.151
11.977000,1.7664,-2.3617,4.9786,5.787
11.982000,2.0251,-2.1457,4.4895,5.372
11.986000,2.2316,-1.9182,4.0236,4.985
11.991000,2.4127,-1.7147,3.6287,4.683
12.002000,2.5622,-1.4921,3.2997,4.436
12.003000,2.6568,-1.2603,3.0482,4.235
12.006000,2.7399,-1.0745,2.8429,4.092
12.063000,2.7954,-0.9089,2.6429,3.953
12.064000,2.8262,-0.7734,2.4647,3.829
12.064000,2.7464,-0.7949,2.2125,3.615
12.065000,2.6355,-0.7939,1.9796,3.390
12.065000,2.5317,-0.8514,1.7397,3.188
12.065000,2.4182,-0.9456,1.5717,3.035
12.066000,2.3285,-1.0593,1.3753,2.904
12.066000,2.2626,-1.2090,1.2725,2.864
12.066000,2.2707,-1.3107,1.1675,2.870
12.067000,2.2955,-1.4168,1.0459,2.893
12.067000,2.3510,-1.5246,0.8554,2.930
12.067000,2.3919,-1.5646,0.6343,2.928
12.071000,2.3536,-1.5844,0.4257,2.869
12.074000,2.2607,-1.6101,0.2199,2.784
12.080000,2.1542,-1.6054,-0.0382,2.687
12.084000,2.0512,-1.5652,-0.2934,2.597
12.091000,1.8967,-1.4654,-0.4860,2.446
12.097000,1.7890,-1.3106,-0.5754,2.291
12.101000,1.6113,-1.1395,-0.5931,2.061
12.106000,1.3707,-0.9401,-0.5342,1.746
12.110000,1.1150,-0.6748,-0.5832,1.428
12.157000,0.8559,-0.4565,-0.5795,1.130
12.158000,0.5832,-0.2950,-0.5615,0.862
12.158000,0.3518,-0.1459,-0.5627,0.679
12.159000,0.1112,0.0220,-0.6022,0.613
12.159000,-0.0216,0.1558,-0.6631,0.682
12.160000,-0.1665,0.2768,-0.7384,0.806
12.160000,-0.3332,0.3852,-0.8326,0.976
12.160000,-0.4095,0.4380,-0.9240,1.102
12.160000,-0.5009,0.5021,-0.9746,1.205
12.161000,-0.6384,0.5967,-1.0703,1.382
12.169000,-0.6904,0.5592,-1.1466,1.451
12.170000,-0.8222,0.5477,-1.1651,1.528
12.174000,-0.9708,0.6292,-1.2098,1.674
12.179000,-1.0590,0.6052,-1.3145,1.793
12.183000,-1.1492,0.5549,-1.3688,1.871
12.189000,-1.1669,0.5309,-1.4042,1.901
12.195000,-1.1006,0.5359,-1.4037,1.862
12.198000,-1.1221,0.5314,-1.3674,1.847
12.204000,-1.1332,0.6060,-1.4128,1.910
12.209000,-1.1767,0.6162,-1.4321,1.953
12.257000,-1.2476,0.6480,-1.4470,2.017
12.258000,-1.3003,0.6847,-1.4120,2.038
12.258000,-1.3918,0.6665,-1.3777,2.069
12.259000,-1.4768,0.7130,-1.3893,2.149
12.259000,-1.5192,0.7595,-1.3920,2.196
12.259000,-1.5838,0.7818,-1.3738,2.238
12.260000,-1.6446,0.8042,-1.3464,2.273
12.260000,-1.6681,0.8406,-1.3124,2.283
12.260000,-1.7098,0.8887,-1.3075,2.329
12.261000,-1.7864,0.9220,-1.2409,2.362
12.264000,-1.7760,0.9644,-1.1722,2.336
12.268000,-1.8148,0.9919,-1.0563,2.322
12.273000,-1.8861,0.9735,-0.9457,2.324
12.280000,-1.8919,0.9852,-0.8621,2.301
12.283000,-1.9039,1.0056,-0.8197,2.304
12.288000,-1.9463,0.9750,-0.7753,2.311
12.293000,-1.9833,0.9079,-0.7481,2.306
12.298000,-1.9911,0.8783,-0.7739,2.310
12.303000,-1.9866,0.7668,-0.8022,2.276
12.308000,-2.0463,0.6932,-0.8020,2.305
12.313000,-2.0529,0.6433,-0.8738,2.322
12.318000,-2.0282,0.5838,-0.9479,2.314
12.322000,-1.9482,0.5177,-0.9381,2.223
12.329000,-1.8537,0.4855,-0.8853,2.111
12.333000,-1.7135,0.4513,-0.7585,1.927
12.337000,-1.6089,0.4556,-0.6366,1.789
12.342000,-1.4732,0.4336,-0.5675,1.637
12.397000,-1.3444,0.4712,-0.4915,1.507
12.397000,-1.2706,0.4893,-0.4372,1.430
12.398000,-1.1677,0.4474,-0.4022,1.314
12.398000,-1.0886,0.4291,-0.4583,1.257
12.399000,-0.9854,0.4582,-0.4451,1.174
12.399000,-0.9081,0.4609,-0.4679,1.121
12.399000,-0.8235,0.4727,-0.5052,1.076
12.400000,-0.7242,0.5058,-0.4757,1.003
12.400000,-0.6294,0.5577,-0.4678,0.962
12.401000,-0.4677,0.5541,-0.4552,0.856
12.401000,-0.3563,0.5905,-0.4500,0.824
12.402000,-0.2309,0.6069,-0.4569,0.794
12.412000,-0.1154,0.5865,-0.4423,0.744
12.414000,0.0118,0.6008,-0.4256,0.736
12.420000,0.1264,0.5924,-0.4450,0.752
12.422000,0.2523,0.6068,-0.5194,0.838
12.437000,0.3582,0.6177,-0.5961,0.930
12.439000,0.4749,0.5722,-0.6679,1.000
12.439000,0.5523,0.5303,-0.7087,1.043
12.441000,0.6668,0.4899,-0.7612,1.124
12.489000,0.8328,0.4630,-0.8806,1.297
12.491000,0.9374,0.4591,-0.9685,1.424
12.491000,1.0119,0.4402,-1.0323,1.511
12.491000,1.1690,0.4566,-1.1436,1.698
12.492000,1.3196,0.5060,-1.2329,1.876
12.492000,1.4470,0.5550,-1.2788,2.009
12.493000,1.6233,0.6441,-1.3148,2.186
12.493000,1.7452,0.7494,-1.3720,2.343
12.493000,1.8654,0.8325,-1.4169,2.486
12.494000,1.9364,0.9413,-1.4232,2.581
12.502000,1.9726,1.0349,-1.3815,2.621
12.503000,1.9933,1.0987,-1.3230,2.633
12.509000,1.9581,1.0945,-1.2168,2.552
12.513000,1.8768,1.0745,-1.0917,2.423
12.516000,1.6946,0.9673,-0.9453,2.168
12.521000,1.4645,0.8491,-0.8065,1.875
12.527000,1.2511,0.7228,-0.7277,1.618
12.531000,1.1119,0.6390,-0.6276,1.428
12.536000,0.9540,0.4922,-0.4848,1.178
12.542000,0.7968,0.2185,-0.2228,0.856
12.550000,0.6958,-0.0265,0.0195,0.697
12.554000,0.6299,-0.2905,0.3018,0.756
12.556000,0.5775,-0.5758,0.4661,0.939
12.610000,0.5171,-0.8943,0.6084,1.199
12.611000,0.4772,-1.1833,0.7120,1.461
12.611000,0.4914,-1.4976,0.7627,1.751
12.611000,0.5598,-1.7072,0.7870,1.961
12.612000,0.7345,-1.8499,0.8257,2.155
12.612000,1.0029,-1.8873,0.9675,2.346
12.612000,1.2806,-1.8760,1.0356,2.496
12.613000,1.4689,-1.8067,1.2096,2.624
12.613000,1.5224,-1.6814,1.4441,2.689
12.613000,1.4842,-1.5103,1.6623,2.692
12.614000,1.3642,-1.3606,2.0148,2.788
12.616000,1.2107,-1.1879,2.4437,2.975
12.620000,1.0625,-0.9911,2.9295,3.270
12.625000,0.8648,-0.7859,3.3212,3.521
12.630000,0.6435,-0.6209,3.4680,3.581
12.635000,0.3360,-0.5593,3.5163,3.576
12.641000,0.0282,-0.5508,3.5546,3.597
12.652000,-0.1873,-0.6030,3.4681,3.525
12.653000,-0.3799,-0.7589,3.4365,3.540
12.655000,-0.5046,-1.0420,3.4885,3.676
12.714000,-0.4802,-1.5119,3.5069,3.849
12.715000,-0.3358,-2.0770,3.5109,4.093
12.716000,-0.0879,-2.6334,3.4243,4.321
12.716000,0.2662,-3.0700,3.1395,4.399
12.716000,0.7030,-3.4214,2.8626,4.516
12.717000,1.1479,-3.6318,2.5723,4.596
12.717000,1.5581,-3.7644,2.3526,4.705
12.717000,2.0966,-3.7635,2.2655,4.867
12.718000,2.6227,-3.7172,2.1553,5.034
12.718000,3.0890,-3.5747,2.0006,5.131
12.718000,3.5005,-3.3046,1.9857,5.207
12.719000,3.8382,-2.9047,2.0624,5.237
12.719000,4.0855,-2.4642,2.1230,5.222
12.725000,4.1371,-1.9146,2.2846,5.099
12.730000,4.0747,-1.3391,2.4367,4.933
12.735000,3.7881,-0.7846,2.5912,4.656
12.740000,3.3829,-0.2816,2.6401,4.300
12.747000,2.8255,0.1277,2.6095,3.848
12.750000,2.1995,0.4694,2.4350,3.315
12.754000,1.5351,0.7021,2.2245,2.793
12.759000,0.9608,0.8402,2.0261,2.395
12.808000,0.4237,0.9310,1.8754,2.136
12.809000,-0.0332,0.9550,1.7340,1.980
12.809000,-0.4196,0.8859,1.5901,1.868
12.809000,-0.7598,0.7692,1.3408,1.722
12.810000,-1.0513,0.6436,1.0317,1.607
12.810000,-1.2774,0.5478,0.6966,1.555
12.810000,-1.4355,0.4254,0.3093,1.529
12.811000,-1.5709,0.2510,-0.0942,1.594
12.811000,-1.6324,0.1143,-0.4422,1.695
12.811000,-1.6130,-0.0102,-0.7297,1.770
12.815000,-1.5477,-0.1245,-0.8924,1.791
12.821000,-1.4123,-0.2567,-1.0574,1.783
12.825000,-1.2882,-0.3614,-1.1982,1.796
12.829000,-1.2847,-0.4289,-1.3031,1.880
12.834000,-1.2933,-0.4849,-1.4560,2.007
12.839000,-1.3594,-0.5058,-1.5804,2.145
12.847000,-1.4230,-0.5462,-1.7002,2.283
12.849000,-1.5078,-0.5417,-1.7365,2.363
12.854000,-1.5710,-0.6167,-1.6800,2.381
12.859000,-1.5625,-0.6109,-1.5688,2.297
12.920000,-1.5762,-0.5512,-1.5203,2.258
12.921000,-1.5981,-0.4811,-1.4912,2.238
12.921000,-1.6366,-0.3987,-1.5051,2.259
12.921000,-1.7162,-0.3500,-1.5260,2.323
12.921000,-1.8082,-0.3283,-1.6569,2.474
12.922000,-1.8750,-0.3550,-1.7993,2.623
12.922000,-1.9124,-0.2772,-1.9962,2.778
12.922000,-1.9302,-0.2477,-2.1994,2.937
12.923000,-1.8955,-0.1970,-2.4567,3.109
12.923000,-1.8131,-0.1464,-2.6603,3.223
12.923000,-1.6358,-0.0382,-2.8246,3.264
12.924000,-1.4300,0.1107,-2.8682,3.207
12.924000,-1.1859,0.2932,-2.9136,3.159
12.932000,-0.9344,0.4469,-2.9798,3.155
12.933000,-0.7395,0.5285,-3.0909,3.222
12.938000,-0.6180,0.5714,-3.2016,3.310
12.944000,-0.5551,0.6020,-3.3571,3.456
12.949000,-0.4333,0.6108,-3.4668,3.547
12.953000,-0.3557,0.6027,-3.5904,3.658
12.958000,-0.2543,0.6428,-3.7519,3.815
12.964000,-0.1558,0.6619,-3.8794,3.939
12.968000,-0.0070,0.6744,-4.0402,4.096
12.973000,0.1205,0.6878,-4.1290,4.188
13.036000,0.2123,0.7238,-4.2031,4.270
13.037000,0.3001,0.7297,-4.2199,4.293
13.037000,0.3530,0.7104,-4.1698,4.245
13.037000,0.4197,0.7210,-4.0341,4.119
13.038000,0.4593,0.7899,-3.8893,3.995
13.038000,0.5005,0.7925,-3.8145,3.928
13.039000,0.4457,0.8219,-3.7524,3.867
13.039000,0.2719,0.8062,-3.6888,3.786
13.039000,0.0419,0.7478,-3.6598,3.736
13.039000,-0.2445,0.6732,-3.7227,3.791
13.040000,-0.5212,0.5731,-3.7025,3.783
13.040000,-0.7431,0.5005,-3.6421,3.751
13.040000,-0.9678,0.4699,-3.4291,3.594
13.042000,-1.1189,0.4621,-3.2000,3.421
13.050000,-1.1915,0.4458,-2.9382,3.202
13.054000,-1.3122,0.4591,-2.6867,3.025
13.057000,-1.4989,0.4488,-2.4549,2.911
13.064000,-1.7153,0.3098,-2.2189,2.822
13.067000,-2.0259,0.1351,-2.0243,2.867
13.072000,-2.2490,0.0133,-1.8780,2.930
13.080000,-2.3824,-0.0575,-1.8134,2.995
13.082000,-2.4842,-0.1204,-1.7775,3.057
13.087000,-2.5310,-0.1678,-1.6673,3.035
13.091000,-2.5563,-0.2092,-1.5762,3.010
13.135000,-2.5243,-0.2039,-1.4656,2.926
13.136000,-2.4711,-0.1397,-1.3214,2.806
13.136000,-2.3873,-0.0840,-1.1818,2.665
13.137000,-2.2710,0.0898,-1.0323,2.496
13.137000,-2.1842,0.2548,-0.8180,2.346
13.137000,-2.0532,0.4534,-0.5604,2.176
13.138000,-1.9227,0.6445,-0.2289,2.041
13.138000,-1.7764,0.8252,0.0641,1.960
13.138000,-1.7456,0.9178,0.3974,2.012
13.143000,-1.6963,0.9436,0.7372,2.076
13.148000,-1.6954,0.8660,1.0977,2.198
13.153000,-1.7257,0.6872,1.3496,2.296
13.158000,-1.7564,0.5171,1.5051,2.370
13.161000,-1.7872,0.2961,1.6454,2.447
13.167000,-1.7222,0.0485,1.7252,2.438
13.171000,-1.5208,-0.2680,1.8044,2.375
13.177000,-1.2835,-0.6192,1.8473,2.333
13.181000,-0.9840,-0.9826,1.9185,2.370
13.187000,-0.6798,-1.3479,2.0519,2.547
13.191000,-0.3542,-1.6666,2.2090,2.790
13.201000,-0.1194,-1.9478,2.3683,3.069
13.202000,0.1252,-2.2007,2.5516,3.372
13.207000,0.3960,-2.3531,2.7087,3.610
13.266000,0.5618,-2.4625,2.8730,3.825
13.268000,0.7331,-2.5142,3.0301,4.005
13.268000,0.8864,-2.5224,3.1393,4.124
13.269000,1.0362,-2.4344,3.2270,4.173
13.269000,1.1251,-2.2717,3.3602,4.209
13.269000,1.2007,-2.0707,3.4576,4.205
13.271000,1.2456,-1.8320,3.6174,4.242
13.271000,1.1803,-1.5493,3.7725,4.246
13.271000,1.0310,-1.1874,3.9325,4.235
13.272000,0.8525,-0.8597,4.0496,4.227
13.272000,0.7090,-0.5936,4.0996,4.203
13.273000,0.5836,-0.4515,4.2524,4.316
13.273000,0.5785,-0.4868,4.5796,4.642
13.276000,0.5811,-0.8675,5.0663,5.173
13.281000,0.6943,-1.4719,5.5426,5.777
13.286000,0.8483,-2.1832,5.8242,6.278
13.291000,0.9591,-2.8000,5.8374,6.545
13.301000,1.1003,-3.2474,5.4848,6.468
13.302000,1.3337,-3.5265,4.9179,6.197
13.305000,1.6349,-3.5476,4.3073,5.815
13.367000,1.9559,-3.4886,3.6843,5.438
13.368000,2.2924,-3.3749,3.1305,5.142
13.369000,2.5427,-3.1884,2.7508,4.919
13.369000,2.7300,-2.9213,2.5019,4.717
13.369000,2.9033,-2.5925,2.3044,4.523
13.369000,3.0130,-2.2240,2.1698,4.328
13.370000,3.0450,-1.8383,2.1529,4.158
13.370000,3.0216,-1.4991,2.2627,4.062
13.370000,2.9124,-1.1936,2.3190,3.910
13.371000,2.6938,-0.9491,2.2881,3.660
13.371000,2.4924,-0.7449,2.0625,3.320
13.371000,2.3221,-0.5430,1.7189,2.940
13.372000,2.2131,-0.3525,1.3918,2.638
13.377000,2.1666,-0.1754,1.0958,2.434
13.381000,2.1628,-0.0474,0.8479,2.324
13.385000,2.1654,0.0407,0.7126,2.280
13.390000,2.1813,0.0582,0.5608,2.253
13.400000,2.2224,0.0767,0.3854,2.257
13.403000,2.2713,0.1177,0.2127,2.284
13.404000,2.2849,0.1453,-0.0264,2.290
13.455000,2.2367,0.1696,-0.2816,2.261
13.456000,2.1031,0.1740,-0.5121,2.172
13.456000,1.8918,0.2021,-0.7826,2.057
13.457000,1.6491,0.1969,-0.9330,1.905
13.457000,1.4085,0.1995,-1.0613,1.775
13.457000,1.1970,0.2075,-1.1247,1.656
13.458000,1.0196,0.2233,-1.1378,1.544
13.458000,0.8406,0.2326,-1.1198,1.419
13.458000,0.6959,0.2637,-1.1354,1.358
13.459000,0.5709,0.3042,-1.0435,1.228
13.459000,0.4418,0.3447,-1.0475,1.188
13.464000,0.3708,0.3799,-1.0566,1.182
13.471000,0.2235,0.4503,-1.0921,1.202
13.475000,0.1029,0.5175,-1.1589,1.273
13.480000,-0.0628,0.5241,-1.2593,1.365
13.485000,-0.1803,0.5109,-1.4099,1.510
13.488000,-0.2590,0.5379,-1.5343,1.646
13.495000,-0.3564,0.6002,-1.5919,1.738
13.499000,-0.4698,0.5642,-1.6280,1.786
13.503000,-0.5635,0.6116,-1.7170,1.908
13.510000,-0.7237,0.6371,-1.7940,2.037
13.519000,-0.9096,0.6862,-1.8712,2.191
13.521000,-1.1546,0.7280,-1.9364,2.369
13.523000,-1.3510,0.7240,-1.9732,2.499
13.584000,-1.5295,0.7365,-1.9958,2.620
13.584000,-1.7286,0.6890,-1.9948,2.728
13.585000,-1.8978,0.6486,-1.9488,2.796
13.585000,-2.0490,0.6367,-1.9152,2.876
13.586000,-2.1366,0.6509,-1.8988,2.932
13.587000,-2.2685,0.6264,-1.8207,2.975
13.589000,-2.3828,0.5918,-1.7669,3.025
13.590000,-2.4886,0.5185,-1.7282,3.074
13.590000,-2.5836,0.4876,-1.7067,3.135
13.591000,-2.7038,0.3509,-1.7288,3.228
13.593000,-2.7941,0.2950,-1.7847,3.329
13.593000,-2.8333,0.2295,-1.7860,3.357
13.594000,-2.8645,0.1280,-1.8879,3.433
13.596000,-2.8470,0.0577,-2.0354,3.500
13.599000,-2.8194,-0.0096,-2.1326,3.535
13.603000,-2.7698,-0.0761,-2.1675,3.518
13.608000,-2.7105,-0.1035,-2.2405,3.518
13.615000,-2.6510,-0.1347,-2.3180,3.524
13.618000,-2.6224,-0.1790,-2.3451,3.523
13.623000,-2.5193,-0.1742,-2.3743,3.466
13.689000,-2.5093,-0.1609,-2.3436,3.437
13.690000,-2.4344,-0.1489,-2.3199,3.366
13.691000,-2.3428,-0.1381,-2.2697,3.265
13.692000,-2.2775,-0.1526,-2.2672,3.217
13.693000,-2.2387,-0.1519,-2.2285,3.163
13.694000,-2.2051,-0.1793,-2.1539,3.088
13.695000,-2.1523,-0.2108,-2.0576,2.985
13.696000,-2.0804,-0.2061,-1.9805,2.880
13.696000,-1.9466,-0.2299,-1.9059,2.734
13.697000,-1.8176,-0.2200,-1.8624,2.612
13.698000,-1.6505,-0.2054,-1.8069,2.456
13.699000,-1.4950,-0.1550,-1.7350,2.296
13.699000,-1.3054,-0.1096,-1.6970,2.144
13.699000,-1.1181,-0.0813,-1.6782,2.018
13.700000,-0.9546,-0.0201,-1.7362,1.981
13.702000,-0.8467,-0.0124,-1.7225,1.919
13.707000,-0.8040,-0.0392,-1.7160,1.895
13.714000,-0.7475,-0.0529,-1.7192,1.875
13.717000,-0.6888,-0.0894,-1.7823,1.913
13.722000,-0.5804,-0.0699,-1.8600,1.950
13.732000,-0.4463,-0.0707,-1.8874,1.941
13.734000,-0.2719,-0.0751,-2.0058,2.026
13.737000,-0.0676,-0.1740,-2.0739,2.082
13.742000,0.1013,-0.1924,-2.1942,2.205
13.804000,0.1969,-0.2070,-2.2376,2.256
13.805000,0.3590,-0.2582,-2.3097,2.352
13.805000,0.5257,-0.3171,-2.3699,2.448
13.806000,0.6366,-0.3478,-2.4348,2.541
13.806000,0.8323,-0.4098,-2.6140,2.774
13.806000,1.0286,-0.5100,-2.6706,2.907
13.807000,1.1727,-0.6095,-2.6500,2.961
13.807000,1.3031,-0.7225,-2.5188,2.927
13.807000,1.4753,-0.9156,-2.3369,2.911
13.808000,1.6415,-1.0356,-2.1571,2.902
13.808000,1.7490,-1.1230,-2.0201,2.898
13.808000,1.7865,-1.1825,-1.8850,2.854
13.809000,1.8239,-1.3284,-1.6804,2.813
13.816000,1.9003,-1.4817,-1.3515,2.763
13.817000,1.9543,-1.6087,-0.9441,2.702
13.821000,1.9503,-1.7884,-0.4847,2.690
13.827000,1.9937,-1.9297,0.0386,2.775
13.831000,2.0195,-2.0305,0.5110,2.909
13.836000,2.0948,-2.1029,1.0353,3.144
13.841000,2.1240,-2.1640,1.5659,3.413
13.846000,2.0470,-2.1541,2.0385,3.604
13.851000,1.9548,-2.1453,2.4744,3.814
13.856000,1.8351,-2.1047,2.8523,3.992
13.926000,1.6371,-2.0895,3.1485,4.118
13.927000,1.3557,-2.0186,3.4159,4.193
13.927000,1.0935,-1.9591,3.6067,4.248
13.928000,0.7762,-1.8489,3.8048,4.301
13.928000,0.5117,-1.8366,4.0458,4.472
13.928000,0.2834,-1.9128,4.4013,4.807
13.929000,0.0742,-2.1400,4.8378,5.290
13.929000,-0.0153,-2.4272,5.1373,5.682
13.930000,-0.0241,-2.7481,5.3386,6.004
13.930000,0.0949,-2.9761,5.4011,6.168
13.930000,0.4148,-2.9769,5.3518,6.138
13.931000,0.9420,-2.7266,5.2126,5.958
13.931000,1.5372,-2.3573,4.9572,5.700
13.931000,2.0686,-1.9547,4.6602,5.461
13.932000,2.5264,-1.4852,4.4173,5.301
13.938000,2.8628,-1.0299,4.2216,5.204
13.941000,3.1666,-0.6228,4.1658,5.270
13.946000,3.3546,-0.2352,4.2905,5.451
13.951000,3.4662,0.0362,4.4156,5.614
13.957000,3.4947,0.2218,4.5429,5.736
13.964000,3.4381,0.3016,4.6986,5.830
13.965000,3.4024,0.3947,4.7363,5.845
13.971000,3.2759,0.4240,4.6726,5.722
13.975000,3.1019,0.3776,4.5099,5.487
14.030000,2.8716,0.3157,4.2028,5.100
14.031000,2.6146,0.1627,3.8374,4.646
14.032000,2.3863,-0.0090,3.5454,4.274
14.034000,2.2229,-0.1604,3.2384,3.931
14.036000,2.0074,-0.3074,2.9809,3.607
14.037000,1.7876,-0.4588,2.6990,3.270
14.038000,1.5329,-0.5209,2.4430,2.931
14.040000,1.1999,-0.5386,2.1939,2.558
14.042000,0.8554,-0.5404,1.9065,2.158
14.045000,0.4748,-0.4736,1.6934,1.821
14.047000,0.1272,-0.3979,1.5164,1.573
14.048000,-0.2382,-0.2394,1.3781,1.419
14.050000,-0.5663,-0.0533,1.1873,1.317
14.050000,-0.8959,0.1264,0.9922,1.343
14.051000,-1.2489,0.3186,0.9314,1.590
14.055000,-1.5847,0.5370,0.9256,1.912
14.063000,-1.8775,0.7426,0.8888,2.206
14.067000,-2.1968,0.8634,0.8162,2.498
14.069000,-2.4400,0.9611,0.6790,2.709
14.076000,-2.6102,1.0546,0.4988,2.859
14.117000,-2.7505,1.0959,0.2855,2.974
14.117000,-2.8015,1.0970,0.0796,3.010
14.118000,-2.8018,1.1200,-0.1641,3.022
14.118000,-2.6770,1.1294,-0.3930,2.932
14.118000,-2.5159,1.1130,-0.5761,2.811
14.119000,-2.3207,1.0761,-0.8424,2.693
14.119000,-2.0913,1.0479,-1.1082,2.588
14.119000,-1.8988,1.0498,-1.2900,2.524
14.120000,-1.7474,1.0584,-1.5002,2.535
14.125000,-1.6077,1.0018,-1.7343,2.568
14.130000,-1.5004,0.9551,-1.9757,2.658
14.134000,-1.3526,0.9236,-2.2364,2.772
14.140000,-1.2289,0.9024,-2.5189,2.944
14.146000,-1.1196,0.8657,-2.7466,3.090
14.150000,-1.0510,0.8140,-2.9410,3.227
14.154000,-1.0421,0.7526,-3.1665,3.417
14.163000,-1.0812,0.7368,-3.3752,3.620
14.165000,-1.1112,0.7478,-3.5524,3.797
14.168000,-1.0874,0.7760,-3.5952,3.835
14.173000,-1.0486,0.8287,-3.6375,3.875
14.227000,-0.9593,0.8697,-3.6050,3.831
14.227000,-0.8342,0.9056,-3.4238,3.638
14.228000,-0.6737,1.0297,-3.1609,3.392
14.228000,-0.5210,1.2050,-2.8906,3.175
14.228000,-0.3763,1.3735,-2.7519,3.099
14.229000,-0.2951,1.5250,-2.5412,2.978
14.229000,-0.2246,1.6302,-2.3425,2.863
14.229000,-0.1598,1.7222,-2.2852,2.866
14.230000,-0.1412,1.7743,-2.2352,2.857
14.230000,-0.1258,1.8126,-2.2620,2.901
14.230000,-0.1250,1.8061,-2.4159,3.019
14.234000,-0.0980,1.8125,-2.5866,3.160
14.239000,-0.0807,1.8299,-2.7023,3.265
14.245000,0.0035,1.8347,-2.8443,3.385
14.248000,0.0469,1.8320,-3.0054,3.520
14.253000,0.1212,1.8005,-3.0539,3.547
14.258000,0.1741,1.7766,-2.9970,3.488
14.263000,0.2199,1.7795,-3.0119,3.505
14.268000,0.2251,1.7854,-2.9596,3.464
14.273000,0.1607,1.7658,-2.9073,3.405
14.279000,0.0752,1.7350,-2.7472,3.250
14.284000,-0.0528,1.6930,-2.5610,3.070
14.287000,-0.1677,1.6423,-2.3249,2.851
14.292000,-0.2624,1.6329,-2.0391,2.626
14.343000,-0.3151,1.6405,-1.8185,2.469
14.344000,-0.3329,1.6459,-1.6178,2.332
14.345000,-0.3541,1.6295,-1.4465,2.208
14.345000,-0.3836,1.6509,-1.2712,2.119
14.346000,-0.4422,1.6214,-1.0992,2.008
14.346000,-0.5378,1.6246,-0.9879,1.976
14.346000,-0.6559,1.6105,-0.9155,1.965
14.346000,-0.6866,1.6006,-0.8222,1.926
14.347000,-0.7763,1.6045,-0.7557,1.936
14.347000,-0.8797,1.6222,-0.6728,1.964
14.349000,-0.9567,1.6058,-0.5830,1.958
14.353000,-1.0578,1.5910,-0.5269,1.982
14.357000,-1.1903,1.5299,-0.4470,1.989
14.363000,-1.2973,1.5041,-0.4029,2.027
14.367000,-1.3810,1.4871,-0.3085,2.053
14.373000,-1.4731,1.4933,-0.2691,2.115
14.377000,-1.5400,1.5105,-0.2008,2.166
14.382000,-1.5578,1.4931,-0.0799,2.159
14.388000,-1.5365,1.5222,0.0027,2.163
14.393000,-1.4827,1.5281,0.1329,2.133
14.452000,-1.4417,1.4269,0.3226,2.054
14.453000,-1.3269,1.3116,0.4971,1.931
14.453000,-1.1906,1.1103,0.7617,1.797
14.453000,-1.0199,0.9212,0.9796,1.688
14.454000,-0.7453,0.7179,1.0815,1.497
14.454000,-0.3954,0.4649,1.2229,1.367
14.454000,-0.0677,0.1547,1.3989,1.409
14.455000,0.1733,-0.1858,1.5903,1.610
14.455000,0.5306,-0.5325,1.8022,1.953
14.455000,0.8752,-0.9335,2.0175,2.389
14.455000,1.1504,-1.4095,2.2508,2.894
14.456000,1.3850,-1.8229,2.4352,3.342
14.457000,1.6726,-2.1181,2.5183,3.691
14.462000,1.9740,-2.3415,2.5584,3.991
14.466000,2.2480,-2.4402,2.6727,4.260
14.473000,2.4887,-2.5068,2.7088,4.451
14.477000,2.6767,-2.5385,2.7744,4.616
14.482000,2.7300,-2.5112,2.8410,4.672
14.486000,2.7198,-2.3642,2.8253,4.579
14.491000,2.6653,-2.0858,2.8542,4.427
14.497000,2.5878,-1.7288,2.9778,4.307
14.501000,2.4753,-1.3129,3.2055,4.257
14.506000,2.3780,-0.9468,3.5536,4.379
14.564000,2.3147,-0.5652,3.9141,4.582
14.565000,2.2325,-0.2227,4.2891,4.840
14.565000,2.1023,0.0189,4.6351,5.090
14.565000,1.9743,0.1704,4.8945,5.280
14.566000,1.8843,0.2234,5.1006,5.442
14.566000,1.8369,0.1056,5.4543,5.756
14.566000,1.8300,-0.2699,5.7684,6.058
14.567000,1.8728,-0.9009,5.8996,6.255
14.567000,2.0151,-1.5098,5.8052,6.328
14.567000,2.1894,-1.9934,5.5097,6.255
14.568000,2.3431,-2.4509,4.9706,6.017
14.568000,2.4526,-2.8287,4.2290,5.648
14.572000,2.4965,-3.0819,3.3909,5.218
14.577000,2.5372,-3.3470,2.5859,4.932
14.582000,2.6418,-3.4651,1.8835,4.747
14.586000,2.7558,-3.4917,1.1977,4.607
14.590000,2.8455,-3.4910,0.6339,4.548
14.596000,2.9289,-3.4309,0.1749,4.514
14.601000,2.9782,-3.3181,-0.3038,4.469
14.606000,3.0199,-3.1649,-0.5681,4.411
14.665000,3.0145,-3.0288,-0.7429,4.337
14.666000,2.9383,-2.7695,-0.9911,4.158
14.666000,2.7968,-2.4878,-1.1646,3.920
14.667000,2.6217,-2.2227,-1.2686,3.664
14.667000,2.4250,-2.0249,-1.3368,3.430
14.667000,2.2455,-1.8514,-1.3813,3.221
14.668000,2.0686,-1.6788,-1.4189,3.018
14.668000,1.8173,-1.5624,-1.4663,2.810
14.668000,1.5907,-1.4976,-1.4994,2.650
14.668000,1.3166,-1.4012,-1.5489,2.469
14.669000,1.0284,-1.3546,-1.5146,2.277
14.669000,0.7403,-1.3173,-1.5280,2.149
14.671000,0.5292,-1.2557,-1.5653,2.075
14.676000,0.3640,-1.2109,-1.6647,2.090
14.681000,0.2108,-1.1588,-1.7591,2.117
14.685000,0.0930,-1.1158,-1.9056,2.210
14.690000,-0.0518,-1.0507,-2.0325,2.289
14.694000,-0.1734,-1.0159,-2.0823,2.323
14.700000,-0.3483,-0.9777,-2.1507,2.388
14.705000,-0.4543,-0.9237,-2.1731,2.405
14.713000,-0.5345,-0.9020,-2.1687,2.409
14.715000,-0.5241,-0.8405,-2.2069,2.419
14.722000,-0.5093,-0.7513,-2.2136,2.393
14.725000,-0.4563,-0.6155,-2.2081,2.337
14.784000,-0.3894,-0.5094,-2.2596,2.349
14.785000,-0.3775,-0.3878,-2.2295,2.294
14.785000,-0.3245,-0.2006,-2.1873,2.220
14.786000,-0.2737,-0.0555,-2.1307,2.149
14.786000,-0.2222,0.1071,-2.0765,2.091
14.786000,-0.1751,0.2848,-2.0368,2.064
14.786000,-0.1729,0.4532,-1.9492,2.009
14.787000,-0.2318,0.5499,-1.8836,1.976
14.787000,-0.2752,0.6875,-1.8566,1.999
14.787000,-0.3412,0.7864,-1.8228,2.014
14.787000,-0.4344,0.8183,-1.7656,1.994
14.788000,-0.4713,0.9073,-1.7375,2.016
14.789000,-0.5381,1.0054,-1.7315,2.073
14.798000,-0.6279,1.0578,-1.6970,2.096
14.799000,-0.7333,1.1024,-1.6319,2.101
14.805000,-0.9019,1.1703,-1.5196,2.119
14.809000,-1.0407,1.1966,-1.4198,2.129
14.814000,-1.2116,1.1647,-1.3470,2.154
14.819000,-1.3934,1.1606,-1.2126,2.181
14.824000,-1.5212,1.1532,-1.1363,2.222
14.829000,-1.6506,1.1330,-1.1442,2.306
14.834000,-1.7887,1.1530,-1.1093,2.400
14.838000,-1.8566,1.1795,-1.0892,2.454
14.900000,-1.9218,1.1839,-0.9928,2.466
14.902000,-1.9673,1.2405,-0.9039,2.495
14.904000,-1.9908,1.2224,-0.8537,2.487
14.905000,-1.9875,1.2419,-0.7942,2.474
14.906000,-1.9457,1.2916,-0.6824,2.433
14.906000,-1.9038,1.3020,-0.5208,2.365
14.907000,-1.8737,1.2995,-0.3645,2.309
14.908000,-1.8051,1.2645,-0.2254,2.215
14.911000,-1.7504,1.2689,-0.2209,2.173
14.912000,-1.7357,1.2718,-0.1882,2.160
14.912000,-1.6702,1.2444,-0.1729,2.090
14.913000,-1.6018,1.2465,-0.2083,2.040
14.915000,-1.5090,1.2330,-0.3374,1.978
14.916000,-1.4545,1.2085,-0.4474,1.943
14.918000,-1.3617,1.1566,-0.5313,1.864
14.919000,-1.3097,1.0894,-0.6296,1.816
14.923000,-1.2145,1.0550,-0.6705,1.743
14.937000,-1.1172,1.0293,-0.7283,1.685
14.940000,-1.0011,0.9714,-0.7933,1.605
14.940000,-0.9332,0.9367,-0.9085,1.604
15.005000,-0.8845,0.9704,-1.0213,1.663
15.007000,-0.8144,0.9126,-1.1269,1.663
15.008000,-0.7779,0.9166,-1.2778,1.754
15.010000,-0.7747,0.8890,-1.3258,1.774
15.010000,-0.7541,0.8276,-1.3286,1.737
15.012000,-0.7139,0.8163,-1.4201,1.787
15.013000,-0.6369,0.8094,-1.3994,1.738
15.014000,-0.5611,0.8118,-1.3816,1.698
15.015000,-0.4721,0.7922,-1.3810,1.661
15.017000,-0.3937,0.7963,-1.4599,1.709
15.018000,-0.3333,0.8218,-1.4410,1.692
15.019000,-0.2956,0.8326,-1.4655,1.711
15.019000,-0.2116,0.8696,-1.4999,1.747
15.020000,-0.1769,0.8728,-1.4676,1.717
15.022000,-0.1607,0.8854,-1.4331,1.692
15.022000,-0.1752,0.9026,-1.4442,1.712
15.024000,-0.2233,0.9145,-1.4361,1.717
15.029000,-0.4905,0.8975,-1.3008,1.655
15.035000,-0.8167,0.8609,-0.8207,1.443
15.038000,-1.0580,0.7189,-0.3310,1.321
15.045000,-1.2403,0.6337,0.1630,1.402
15.049000,-1.2727,0.5114,0.6638,1.524
15.052000,-1.3472,0.4425,0.9850,1.727
15.057000,-1.3735,0.3215,1.4090,1.994
15.063000,-1.3659,0.1699,1.8640,2.317
15.067000,-1.3550,0.0096,2.2996,2.669
15.071000,-1.3237,-0.1237,2.5746,2.898
15.159000,-1.1952,-0.2749,2.7395,3.001
15.163000,-1.0336,-0.5206,2.7894,3.020
15.163000,-0.8191,-0.7640,2.7745,2.992
15.163000,-0.5941,-0.9617,2.6734,2.903
15.164000,-0.3648,-1.1163,2.5383,2.797
15.164000,-0.1978,-1.2409,2.3670,2.680
15.164000,-0.0928,-1.2780,2.2025,2.548
15.165000,0.0052,-1.3035,2.0735,2.449
15.165000,0.1491,-1.2617,2.0159,2.383
15.166000,0.2840,-1.1915,1.9482,2.301
15.166000,0.4022,-1.0590,2.1719,2.450
15.166000,0.5317,-0.9296,2.4883,2.709
15.167000,0.5836,-0.7751,2.7084,2.877
15.167000,0.5058,-0.5743,2.9668,3.064
15.167000,0.3384,-0.4643,3.1585,3.210
15.168000,0.1221,-0.4049,3.3072,3.334
15.168000,0.0075,-0.4368,3.4205,3.448
15.169000,-0.1007,-0.4645,3.4836,3.516
15.169000,-0.1735,-0.5337,3.5539,3.598
15.171000,0.0130,-0.7259,3.7514,3.821
15.177000,0.2316,-1.1589,3.9751,4.147
15.181000,0.2721,-1.6463,4.0600,4.390
15.187000,0.4404,-2.1473,3.9681,4.533
15.191000,0.6955,-2.5322,3.7548,4.582
15.199000,0.9871,-2.8044,3.3677,4.492
15.202000,1.3105,-2.9723,2.8595,4.328
15.206000,1.7352,-2.9863,2.3502,4.178
15.260000,2.1415,-2.8932,1.9593,4.098
15.261000,2.5508,-2.7398,1.6796,4.103
15.261000,2.8845,-2.5471,1.5155,4.136
15.261000,3.0643,-2.2910,1.4598,4.095
15.262000,3.1534,-2.0292,1.5096,4.042
15.262000,3.1122,-1.6922,1.6573,3.911
15.262000,3.0366,-1.3292,1.8527,3.797
15.263000,2.8954,-0.9269,2.1289,3.711
15.263000,2.6378,-0.5806,2.3810,3.601
15.263000,2.3284,-0.2894,2.5011,3.429
15.263000,2.0390,-0.0330,2.4608,3.196
15.266000,1.7089,0.2116,2.2842,2.861
15.271000,1.4307,0.4633,2.0363,2.531
15.276000,1.1961,0.6261,1.8728,2.309
15.281000,0.9708,0.7209,1.7077,2.092
15.285000,0.8141,0.7378,1.4932,1.854
15.290000,0.6565,0.7292,1.1935,1.545
15.300000,0.4976,0.6208,0.7992,1.128
15.302000,0.3494,0.5038,0.3775,0.720
15.305000,0.2078,0.4125,0.0095,0.462
15.361000,0.1329,0.3018,-0.4532,0.560
15.362000,0.0204,0.1850,-0.9793,0.997
15.362000,0.0380,-0.0327,-1.4302,1.431
15.363000,-0.0130,-0.1731,-1.7724,1.781
15.363000,-0.1193,-0.1447,-2.0614,2.070
15.363000,-0.0859,-0.2272,-2.2831,2.296
15.364000,-0.0963,-0.2887,-2.4187,2.438
15.364000,-0.1070,-0.3290,-2.4398,2.464
15.364000,-0.0625,-0.3604,-2.5021,2.529
15.365000,-0.0537,-0.3948,-2.5840,2.615
15.365000,-0.1266,-0.4542,-2.6400,2.682
15.365000,-0.2549,-0.4619,-2.6845,2.736
15.369000,-0.4079,-0.4927,-2.7723,2.845
15.374000,-0.6171,-0.5485,-2.8840,3.000
15.379000,-0.7704,-0.6009,-2.8499,3.013
15.384000,-0.8529,-0.5879,-2.6608,2.855
15.389000,-0.8361,-0.4834,-2.4411,2.625
15.397000,-0.7972,-0.3599,-2.2983,2.459
15.400000,-0.8326,-0.2300,-2.2227,2.385
15.404000,-0.9165,-0.2450,-2.1805,2.378
15.409000,-1.0439,-0.2688,-2.2746,2.517
15.454000,-1.2126,-0.3589,-2.4139,2.725
15.455000,-1.3317,-0.4599,-2.6150,2.970
15.456000,-1.4326,-0.5425,-2.8013,3.193
15.456000,-1.3740,-0.5965,-2.9058,3.269
15.456000,-1.2494,-0.5592,-2.9405,3.244
15.456000,-1.1327,-0.5357,-3.0611,3.308
15.457000,-1.0500,-0.5112,-3.1669,3.375
15.457000,-0.9414,-0.5095,-3.2988,3.468
15.457000,-0.8493,-0.5259,-3.3947,3.539
15.460000,-0.7357,-0.6178,-3.4354,3.567
15.466000,-0.6458,-0.6534,-3.5598,3.676
15.470000,-0.5101,-0.6613,-3.6697,3.764
15.474000,-0.4216,-0.6892,-3.7582,3.844
15.480000,-0.2605,-0.6414,-3.7056,3.770
15.484000,-0.0938,-0.6091,-3.6963,3.747
15.488000,0.0115,-0.5754,-3.6872,3.732
15.545000,0.1512,-0.4785,-3.6617,3.696
15.546000,0.2275,-0.3758,-3.6054,3.632
15.546000,0.2164,-0.2100,-3.5925,3.605
15.547000,0.2322,-0.0745,-3.5988,3.607
15.547000,0.1887,0.0306,-3.6100,3.615
15.547000,0.0999,0.1339,-3.5804,3.584
15.548000,0.0183,0.2212,-3.4887,3.496
15.548000,-0.0732,0.3233,-3.3968,3.413
15.548000,-0.1243,0.3750,-3.2547,3.279
15.549000,-0.2428,0.4317,-3.0982,3.138
15.549000,-0.3494,0.4737,-2.9442,3.002
15.550000,-0.4824,0.4912,-2.7760,2.860
15.555000,-0.5458,0.4888,-2.7229,2.820
15.560000,-0.5825,0.4783,-2.6102,2.717
15.565000,-0.5666,0.4646,-2.5622,2.665
15.569000,-0.5839,0.4760,-2.4739,2.586
15.573000,-0.5626,0.4484,-2.4528,2.556
15.580000,-0.5481,0.4633,-2.4725,2.575
15.584000,-0.4921,0.4878,-2.4446,2.541
15.588000,-0.4260,0.5122,-2.4240,2.514
15.637000,-0.3620,0.5630,-2.3654,2.458
15.637000,-0.3193,0.5927,-2.2854,2.382
15.638000,-0.3769,0.6015,-2.2030,2.315
15.638000,-0.4031,0.6465,-2.0729,2.208
15.638000,-0.3623,0.6870,-1.7493,1.914
