time,ax,ay,az,aT
0.004000,-0.0928,0.1722,-0.3446,0.396
0.005000,-0.1646,0.1575,-0.4952,0.545
0.005000,-0.2429,0.1798,-0.6342,0.703
0.011000,-0.3160,0.2103,-0.7472,0.838
0.012000,-0.1718,0.2396,-0.8225,0.874
0.015000,-0.2498,0.2439,-0.8052,0.878
0.021000,-0.3897,0.2349,-0.7600,0.886
0.027000,-0.4053,0.2653,-0.7179,0.866
0.030000,-0.0850,0.2939,-0.5044,0.590
0.035000,-0.1222,0.2198,-0.1099,0.275
0.043000,-0.6132,0.0454,0.1953,0.645
0.047000,-0.4582,0.1285,0.1588,0.502
0.050000,-0.1516,0.2559,0.0012,0.297
0.055000,-0.0561,0.2820,-0.0314,0.289
0.060000,0.0110,0.2432,-0.0063,0.244
0.065000,-0.0504,0.1729,0.0071,0.180
0.071000,-0.5880,-0.0555,0.4626,0.750
0.086000,-0.8508,0.0690,0.7647,1.146
0.087000,-0.7565,0.2917,0.8043,1.142
0.087000,-0.7752,0.3567,1.1579,1.438
0.095000,-0.8415,0.4334,1.2325,1.554
0.096000,-0.7833,0.3855,1.2249,1.504
0.100000,-0.7538,0.3375,1.2283,1.480
0.105000,-0.6883,0.3443,1.1425,1.378
0.117000,-0.6059,0.3223,1.0585,1.261
0.119000,-0.5136,0.3816,0.9425,1.139
0.119000,-0.3521,0.4888,0.6204,0.865
0.126000,-0.1862,0.5125,0.2859,0.616
0.129000,-0.1160,0.4871,0.0127,0.501
0.134000,-0.0864,0.5231,-0.2831,0.601
0.144000,-0.0995,0.5134,-0.5924,0.790
0.146000,-0.1717,0.5235,-0.8320,0.998
0.150000,-0.3009,0.5607,-1.0093,1.193
0.157000,-0.3841,0.6015,-1.0724,1.288
0.161000,-0.4743,0.6314,-0.9902,1.267
0.164000,-0.5999,0.6410,-0.9401,1.286
0.169000,-0.6297,0.6063,-0.8836,1.243
0.183000,-0.6548,0.6182,-0.9234,1.290
0.184000,-0.7256,0.5956,-0.9639,1.346
0.184000,-0.7398,0.5914,-0.9098,1.313
0.190000,-0.8219,0.5746,-0.8281,1.301
0.201000,-0.8955,0.5428,-0.5804,1.197
0.202000,-0.8942,0.5434,-0.5802,1.196
0.203000,-0.8755,0.5140,-0.3536,1.075
0.224000,-0.8154,0.4780,-0.1637,0.959
0.225000,-0.7499,0.5015,0.0355,0.903
0.225000,-0.6832,0.4647,0.1509,0.840
0.225000,-0.6104,0.4105,0.2355,0.772
0.232000,-0.5427,0.4365,0.2299,0.733
0.233000,-0.4872,0.4206,0.1796,0.668
0.238000,-0.3813,0.4468,0.0942,0.595
0.249000,-0.2347,0.4911,-0.1099,0.555
0.249000,-0.1385,0.4750,-0.2748,0.566
0.254000,-0.0590,0.4586,-0.3365,0.572
0.269000,0.0345,0.4656,-0.3189,0.565
0.270000,0.0893,0.4531,-0.4038,0.613
0.270000,0.1673,0.4569,-0.4834,0.686
0.287000,0.1703,0.4555,-0.6270,0.793
0.288000,0.2393,0.4492,-0.7486,0.905
0.289000,0.2330,0.4691,-0.9248,1.063
0.289000,0.1082,0.4272,-1.2369,1.313
0.320000,0.0560,0.3767,-1.4937,1.541
0.323000,0.0715,0.4085,-1.7314,1.780
0.324000,0.2382,0.5495,-1.8954,1.988
0.325000,0.3746,0.6728,-2.1222,2.258
0.325000,0.4472,0.7792,-2.2925,2.462
0.326000,0.4636,0.7928,-2.4164,2.585
0.326000,0.5460,0.7643,-2.3485,2.529
0.329000,0.7479,0.7871,-2.1180,2.380
0.333000,0.9427,0.8272,-1.7991,2.193
0.337000,1.1357,0.8939,-1.4158,2.023
0.342000,1.2484,0.8693,-1.0512,1.849
0.348000,1.3094,0.8799,-0.6121,1.692
0.352000,1.4673,0.8987,-0.1339,1.726
0.358000,1.6506,0.9366,0.3884,1.937
0.362000,1.6586,0.9019,0.8742,2.081
0.367000,1.5607,0.9058,1.2121,2.174
0.373000,1.4142,0.9693,1.5315,2.299
0.384000,1.2465,1.0580,1.7493,2.394
0.385000,1.0159,1.0880,1.7057,2.264
0.387000,0.7446,1.1170,1.4847,2.002
0.403000,0.4611,1.1691,1.2515,1.774
0.404000,0.2106,1.2114,0.9985,1.584
0.405000,-0.0097,1.2156,0.7925,1.451
0.409000,-0.2316,1.1938,0.4949,1.313
0.413000,-0.4340,1.1684,0.1197,1.252
0.417000,-0.5612,1.1757,-0.3401,1.346
0.422000,-0.6341,1.1758,-0.8490,1.583
0.443000,-0.6705,1.1481,-1.1564,1.762
0.443000,-0.7571,1.1599,-1.4040,1.972
0.444000,-0.8676,1.2141,-1.5826,2.175
0.445000,-0.9663,1.2009,-1.7165,2.307
0.450000,-1.0662,1.1493,-1.7508,2.350
0.452000,-1.0050,1.0808,-1.7550,2.293
0.466000,-0.7924,1.0746,-1.7675,2.215
0.467000,-0.5475,1.0012,-1.6306,1.990
0.467000,-0.3248,0.9251,-1.4711,1.768
0.472000,-0.1073,0.8886,-1.2241,1.516
0.483000,0.1534,0.8529,-0.8918,1.243
0.484000,0.2262,0.8265,-0.6867,1.098
0.487000,0.0760,0.7464,-0.4525,0.876
0.503000,-0.1576,0.6647,-0.0076,0.683
0.503000,-0.3317,0.6066,0.4404,0.820
0.503000,-0.4357,0.5760,0.7102,1.013
0.506000,-0.5001,0.4954,0.8863,1.132
0.537000,-0.3718,0.3550,0.9403,1.072
0.537000,0.4094,-0.2347,0.9921,1.099
0.538000,0.5738,-0.2568,-0.1274,0.641
0.538000,0.8118,0.3827,-0.5765,1.067
0.538000,1.0796,1.1313,-1.1189,1.923
0.539000,1.0411,1.4659,-1.5035,2.344
0.546000,0.6553,1.1462,-1.5733,2.054
0.547000,0.0690,0.6048,-1.9963,2.087
0.551000,-0.3591,0.3021,-2.8345,2.873
0.560000,-0.4694,0.3562,-3.5982,3.646
0.562000,-0.3962,0.6071,-3.9654,4.031
0.567000,-0.3240,0.8763,-3.9996,4.107
0.571000,-0.2199,0.9728,-3.7640,3.894
0.576000,-0.1489,0.9108,-3.4142,3.537
0.581000,-0.1589,0.8310,-3.0698,3.184
0.585000,-0.1165,0.8401,-2.7016,2.832
0.591000,-0.0437,0.8776,-2.3190,2.480
0.595000,-0.0182,0.8951,-1.9768,2.170
0.601000,-0.0518,0.9423,-1.8776,2.101
0.605000,-0.0738,0.9611,-1.8151,2.055
0.616000,-0.0781,0.9253,-1.6862,1.925
0.618000,-0.0459,0.9329,-1.5150,1.780
0.620000,-0.0879,0.9359,-1.4853,1.758
0.626000,-0.2053,0.9371,-1.5062,1.786
0.630000,-0.2878,0.9435,-1.5918,1.873
0.635000,-0.3292,0.9147,-1.5293,1.812
0.657000,-0.3162,0.8939,-1.2951,1.605
0.659000,-0.3487,0.8590,-0.8870,1.283
0.659000,-0.4236,0.8716,-0.6059,1.143
0.659000,-0.4689,0.8929,-0.4969,1.124
0.660000,-0.5159,0.8940,-0.4303,1.118
0.666000,-0.4182,0.8893,-0.3560,1.045
0.671000,-0.3149,0.9359,-0.4077,1.068
0.677000,-0.2397,0.9576,-0.4466,1.083
0.680000,-0.1837,0.9517,-0.4870,1.085
0.685000,-0.1159,0.9136,-0.5744,1.085
0.692000,-0.0336,0.8988,-0.6394,1.104
0.696000,0.1143,0.8928,-0.7063,1.144
0.700000,0.2873,0.9130,-0.8134,1.256
0.705000,0.3854,0.9641,-0.8367,1.333
0.717000,0.5792,1.0319,-0.7667,1.410
0.718000,0.7429,1.0663,-0.6612,1.458
0.720000,0.8845,1.1102,-0.6253,1.551
0.726000,1.0616,1.1041,-0.7858,1.721
0.731000,1.2989,0.9767,-1.0275,1.923
0.735000,1.4242,0.9364,-0.6575,1.827
0.739000,1.3827,0.9664,0.0004,1.687
0.752000,1.1448,1.0803,-0.0412,1.575
0.753000,0.8683,1.2773,-0.3194,1.577
0.755000,0.7467,1.3683,-0.2719,1.582
0.760000,0.7237,1.2966,-0.1624,1.494
0.764000,0.7732,1.2927,-0.0822,1.509
0.769000,0.7924,1.3759,-0.1533,1.595
0.774000,0.8024,1.4745,-0.1534,1.686
0.782000,0.9035,1.5002,0.0321,1.752
0.784000,1.1343,1.4938,0.2570,1.893
0.790000,1.3256,1.4935,0.5499,2.071
0.794000,1.3941,1.4821,0.9301,2.237
0.800000,1.3356,1.4735,1.4049,2.435
0.804000,1.2531,1.5409,1.7093,2.620
0.811000,1.1217,1.5116,1.9133,2.684
0.815000,1.0271,1.5338,2.0770,2.779
0.819000,0.8922,1.5928,2.2459,2.894
0.846000,0.7962,1.6388,2.3363,2.963
0.847000,0.7342,1.6810,2.3651,2.993
0.848000,0.6581,1.6769,2.3443,2.956
0.848000,0.5515,1.6769,2.3764,2.960
0.849000,0.4785,1.6619,2.3851,2.946
0.849000,0.4465,1.6320,2.4658,2.990
0.855000,0.3274,1.6735,2.5608,3.077
0.859000,0.1216,1.6788,2.5604,3.064
0.865000,0.0057,1.7001,2.5889,3.097
0.869000,0.0075,1.7091,2.6416,3.146
0.875000,0.1440,1.7127,2.8260,3.308
0.879000,0.4298,1.6962,3.0059,3.478
0.884000,0.8362,1.6307,3.2101,3.696
0.888000,1.3336,1.5729,3.4198,3.993
0.894000,1.7526,1.4893,3.6662,4.328
0.900000,2.1911,1.3696,3.9855,4.750
0.904000,2.6287,1.1874,4.2343,5.123
0.915000,2.9680,1.0495,4.4755,5.472
0.916000,3.2218,0.9289,4.6667,5.746
0.920000,3.3563,0.7919,4.6528,5.791
0.923000,3.0534,0.6366,4.4080,5.400
0.949000,1.9933,0.4569,3.8320,4.344
0.951000,0.4496,0.3502,3.0413,3.094
0.951000,-0.9336,0.4638,2.1048,2.349
0.952000,-1.9035,0.6659,1.2431,2.369
0.952000,-2.7733,0.4638,0.6620,2.889
0.953000,-3.4015,0.2536,0.3578,3.430
0.959000,-3.5990,0.2017,0.1683,3.609
0.964000,-3.2642,0.3348,0.2887,3.294
0.970000,-2.5529,0.5544,0.6824,2.700
0.974000,-1.9591,0.4965,1.2635,2.384
0.978000,-1.5559,0.2936,1.7388,2.352
0.983000,-1.2901,-0.0180,2.2869,2.626
0.988000,-1.0340,-0.3109,2.8875,3.083
0.993000,-0.7260,-0.4629,3.3532,3.462
0.998000,-0.5113,-0.5095,3.6115,3.683
1.003000,-0.3472,-0.5980,3.6948,3.759
1.009000,-0.1990,-0.6578,3.7312,3.794
1.012000,-0.0475,-0.7566,3.7354,3.812
1.018000,0.1003,-0.7344,3.4640,3.542
1.023000,0.2330,-0.6915,3.2280,3.309
1.027000,0.3735,-0.6131,2.9050,2.992
1.033000,0.4661,-0.5274,2.5354,2.631
1.038000,0.4565,-0.4935,2.3387,2.433
1.051000,0.3721,-0.4959,2.2471,2.331
1.055000,0.1421,-0.4362,2.0043,2.056
1.056000,-0.1978,-0.3259,1.7657,1.806
1.058000,-0.5893,-0.2527,1.5260,1.655
1.091000,-0.9611,-0.2308,1.3259,1.654
1.092000,-1.2658,-0.2142,1.0455,1.656
1.093000,-1.4931,-0.2622,0.6822,1.662
1.093000,-1.7482,-0.3435,0.2647,1.801
1.093000,-1.9693,-0.4355,-0.2626,2.034
1.094000,-2.0531,-0.4417,-0.7998,2.247
1.094000,-2.0843,-0.4138,-1.4241,2.558
1.097000,-2.0591,-0.4154,-2.0191,2.914
1.102000,-1.9370,-0.4314,-2.5255,3.212
1.106000,-1.7208,-0.4947,-2.9868,3.482
1.113000,-1.4631,-0.5171,-3.2022,3.558
1.117000,-1.2158,-0.5396,-3.2818,3.541
1.122000,-1.0652,-0.6082,-3.2610,3.484
1.133000,-0.9713,-0.7308,-3.1133,3.342
1.137000,-0.9723,-0.7645,-2.8909,3.144
1.138000,-0.9535,-0.7462,-2.7127,2.971
1.160000,-0.9709,-0.7077,-2.5999,2.864
1.161000,-1.0702,-0.6948,-2.6046,2.900
1.162000,-1.2268,-0.7073,-2.5906,2.952
1.163000,-1.3325,-0.7260,-2.4767,2.905
1.163000,-1.2539,-0.7222,-2.2656,2.688
1.167000,-0.9506,-0.5721,-1.6677,2.003
1.171000,-0.3172,-0.2661,-0.9528,1.039
1.177000,-0.1161,-0.0209,-0.6747,0.685
1.181000,0.3836,0.2703,-0.5061,0.690
1.186000,0.3677,-0.4523,-1.2844,1.410
1.192000,-0.3430,-1.2587,-1.9018,2.306
1.198000,-0.9187,-1.6850,-2.5594,3.199
1.202000,-0.8907,-1.6959,-3.0897,3.635
1.207000,-0.4721,-1.4860,-3.4068,3.747
1.211000,0.0829,-1.1449,-3.5798,3.759
1.217000,0.4064,-0.9621,-3.4440,3.599
1.221000,0.5273,-0.9312,-3.1904,3.365
1.227000,0.5407,-0.9423,-2.9697,3.162
1.231000,0.5039,-1.0216,-2.9061,3.121
1.236000,0.3803,-1.1715,-2.9108,3.161
1.248000,0.1859,-1.3171,-3.0056,3.287
1.253000,-0.1771,-1.4917,-3.2265,3.559
1.254000,-0.6702,-1.6283,-3.4204,3.847
1.257000,-1.1919,-1.6958,-3.4417,4.018
1.280000,-1.5524,-1.6061,-3.2741,3.964
1.282000,-1.5697,-1.3573,-2.9919,3.641
1.282000,-1.5017,-1.0072,-2.6286,3.190
1.283000,-1.5503,-0.8266,-2.2079,2.822
1.283000,-1.6386,-0.7364,-1.9926,2.683
1.286000,-1.5990,-0.6528,-1.9013,2.569
1.292000,-1.3911,-0.5517,-1.9053,2.423
1.296000,-1.1486,-0.4257,-1.8490,2.218
1.301000,-0.8853,-0.2029,-1.4673,1.726
1.306000,0.2065,1.1034,2.8962,3.106
1.310000,1.4455,1.7305,3.7334,4.361
1.317000,1.6395,1.2206,0.9048,2.235
1.320000,1.2125,0.3872,-3.4203,3.649
1.326000,0.1350,-0.4807,-3.6837,3.717
1.330000,-0.5949,-0.8722,-0.4980,1.167
1.335000,-0.7572,-0.7758,0.0132,1.084
1.342000,-0.8161,-0.3834,-0.4768,1.020
1.345000,-0.7331,0.0773,-0.2706,0.785
1.351000,-0.4847,0.5210,0.4367,0.835
1.355000,-0.5093,0.8751,0.6006,1.177
1.360000,-0.9748,1.0044,0.2453,1.421
1.366000,-1.7721,0.9481,-0.2294,2.023
1.369000,-2.3148,0.8560,-0.7576,2.582
1.380000,-2.6286,0.7872,-1.2735,3.025
1.381000,-2.7821,0.6513,-1.6245,3.287
1.385000,-2.8016,0.6774,-1.8122,3.405
1.390000,-2.6791,0.7486,-1.8899,3.363
1.415000,-2.3456,0.9906,-2.0024,3.239
1.416000,-1.9638,1.2566,-2.1724,3.187
1.417000,-1.5213,1.4801,-2.3071,3.135
1.417000,-1.3141,1.5206,-2.5888,3.277
1.418000,-1.1695,1.4973,-2.7422,3.336
1.420000,-1.0704,1.4191,-2.6377,3.181
1.427000,-1.0684,1.4112,-2.2510,2.864
1.430000,-0.8866,1.5847,-1.9616,2.673
1.441000,-0.7552,1.8403,-1.6681,2.596
1.442000,-0.9487,1.9171,-1.1958,2.451
1.446000,-1.1263,1.8607,-0.6957,2.284
1.450000,-1.2422,1.7645,-0.2368,2.171
1.454000,-1.2541,1.6047,0.0493,2.037
1.459000,-1.0700,1.4244,0.2897,1.805
1.465000,-0.6334,1.3043,0.6499,1.589
1.470000,0.0844,1.3061,1.1086,1.715
1.475000,0.8674,1.3356,1.6137,2.267
1.479000,1.4828,1.3088,2.2298,2.981
1.485000,2.0198,1.2462,2.8094,3.678
1.490000,2.3954,1.2285,3.2359,4.209
1.510000,2.6129,1.1516,3.5604,4.564
1.511000,2.8642,1.1149,3.7528,4.851
1.512000,3.2355,1.2161,3.7584,5.106
1.512000,3.1730,1.1823,4.0220,5.258
1.515000,2.6786,0.9758,4.3375,5.190
1.519000,2.1700,0.9083,4.4197,5.007
1.526000,1.7996,0.8721,4.4603,4.888
1.529000,1.4348,0.8480,4.5119,4.810
1.534000,1.0705,0.8250,4.5167,4.715
1.539000,0.6480,0.7891,4.4505,4.566
1.543000,0.1904,0.7413,4.4325,4.498
1.549000,-0.3913,0.5604,4.1944,4.250
1.553000,-0.8527,0.3930,3.9202,4.031
1.562000,-1.0851,0.2132,3.7794,3.938
1.567000,-1.2202,0.0740,3.5683,3.772
1.568000,-1.0970,-0.1009,3.4946,3.664
1.593000,-0.7913,-0.3479,3.6444,3.746
1.594000,-0.2716,-0.5313,3.8004,3.847
1.594000,0.3979,-0.6189,3.9274,3.996
1.595000,1.3519,-0.6428,3.4713,3.780
1.595000,2.0524,-0.6598,3.0135,3.705
1.600000,2.1046,-0.8538,3.6753,4.320
1.603000,1.9719,-0.9599,4.5223,5.026
1.610000,1.9396,-0.9020,4.6334,5.103
1.613000,1.8699,-0.8486,4.3806,4.838
1.618000,1.7734,-0.8546,3.9822,4.442
1.623000,1.7442,-0.8720,3.4979,4.005
1.628000,1.6203,-0.9218,2.9206,3.465
1.634000,1.4304,-0.9242,2.1781,2.765
1.638000,1.2361,-0.8993,1.2841,1.996
1.646000,1.0987,-0.7744,0.3147,1.381
1.647000,1.0304,-0.7198,-0.5855,1.387
1.653000,0.9537,-0.7199,-1.3217,1.782
1.659000,0.8390,-0.7518,-1.9285,2.233
1.663000,0.5972,-0.8144,-2.5195,2.714
1.668000,0.4263,-0.8781,-3.0665,3.218
1.672000,0.3294,-0.9154,-3.3625,3.500
1.679000,0.3657,-0.9575,-3.5325,3.678
1.683000,0.4056,-0.9371,-3.6580,3.798
1.688000,0.4417,-1.0482,-3.5385,3.717
1.699000,0.4696,-1.2763,-3.2672,3.539
1.701000,0.4613,-1.4212,-2.8199,3.191
1.702000,0.4939,-1.4840,-2.3398,2.814
1.736000,0.5489,-1.5161,-1.8546,2.458
1.738000,0.5649,-1.5953,-1.2750,2.119
1.739000,0.5927,-1.6963,-0.7652,1.953
1.739000,0.6351,-1.8107,-0.4247,1.965
1.739000,0.6708,-1.9464,-0.2002,2.068
1.740000,0.6789,-2.0613,-0.0143,2.170
1.740000,0.7337,-2.1560,0.1048,2.280
1.745000,0.7882,-2.2381,0.1002,2.375
1.747000,0.8738,-2.2936,0.0465,2.455
1.752000,0.8428,-2.3199,-0.1498,2.473
1.759000,0.7020,-2.3934,-0.5384,2.552
1.762000,0.4743,-2.4607,-1.1415,2.754
1.767000,0.3256,-2.4421,-1.8135,3.059
1.772000,0.2616,-2.4151,-2.4717,3.466
1.777000,0.1212,-2.4291,-2.9448,3.819
1.782000,-0.0907,-2.4068,-3.2717,4.063
1.787000,-0.2622,-2.3784,-3.5704,4.298
1.793000,-0.3432,-2.4754,-3.7911,4.541
1.796000,-0.3365,-2.4772,-3.9126,4.643
1.801000,-0.1323,-2.4125,-3.9568,4.636
1.807000,0.0754,-2.3629,-3.9283,4.585
1.816000,0.2660,-2.3090,-3.8609,4.507
1.817000,0.4522,-2.2991,-3.7399,4.413
1.821000,0.5680,-2.2994,-3.6730,4.370
1.826000,0.6236,-2.2667,-3.5670,4.272
1.831000,0.6624,-2.2638,-3.3330,4.083
1.836000,0.7660,-2.2549,-2.9974,3.828
1.841000,0.8983,-2.1956,-2.5382,3.474
1.846000,1.0310,-2.1224,-2.0767,3.143
1.851000,1.1665,-2.0504,-1.8422,2.993
1.856000,1.2907,-1.9297,-1.6737,2.862
1.861000,1.3061,-1.8558,-1.4183,2.676
1.866000,1.3061,-1.7932,-1.2072,2.526
1.871000,1.2501,-1.7683,-1.0427,2.404
1.877000,1.2047,-1.7263,-0.8984,2.289
1.881000,1.1965,-1.6672,-0.8815,2.233
1.886000,1.1850,-1.5357,-0.9277,2.150
1.891000,1.2494,-1.3532,-0.9868,2.090
1.896000,1.2672,-1.2034,-1.1498,2.092
1.901000,1.5755,-1.2454,-1.1805,2.330
1.907000,2.1343,-1.3691,-1.5115,2.952
1.918000,1.8237,-0.7742,-2.2179,2.974
1.920000,1.4110,-0.3120,-2.3007,2.717
1.921000,1.0425,-0.0678,-2.2709,2.500
1.956000,0.7721,0.0521,-2.2746,2.403
1.957000,0.6601,0.0644,-2.3116,2.405
1.958000,0.5671,0.0841,-2.2745,2.346
1.958000,0.5096,0.1640,-2.0393,2.108
1.959000,0.5240,0.3736,-1.7642,1.878
1.960000,0.6111,0.6268,-1.3536,1.612
1.960000,0.7095,0.8396,-0.9270,1.438
1.960000,0.7639,0.9755,-0.4743,1.327
1.966000,0.8004,1.0556,0.1770,1.337
1.970000,0.8344,1.1629,0.7596,1.620
1.977000,0.8953,1.2897,1.1475,1.945
1.980000,0.8212,1.3901,1.5517,2.239
1.986000,0.7420,1.5259,1.7741,2.455
2.002000,0.6002,1.6661,1.9057,2.602
2.006000,0.3524,1.8035,2.0065,2.721
2.007000,0.0536,1.8976,2.1265,2.851
2.009000,-0.2197,1.9317,2.2655,2.985
2.010000,-0.4319,2.0136,2.3711,3.141
2.046000,-0.6079,2.1026,2.4526,3.287
2.048000,-0.7533,2.1321,2.5647,3.419
2.049000,-0.8381,2.1451,2.6787,3.533
2.050000,-0.8488,2.1725,2.8496,3.682
2.051000,-0.7527,2.1999,3.1323,3.901
2.051000,-0.5617,2.3059,3.3237,4.084
2.052000,-0.3329,2.3851,3.4121,4.176
2.053000,-0.1042,2.4589,3.4217,4.215
2.056000,0.1320,2.4723,3.4675,4.261
2.060000,0.2900,2.4877,3.3627,4.193
2.065000,0.4166,2.4745,3.2725,4.124
2.069000,0.4434,2.4856,3.0721,3.976
2.075000,0.3208,2.4185,2.9121,3.799
2.080000,0.0592,2.3695,2.8066,3.674
2.085000,-0.1810,2.3437,2.8770,3.715
2.091000,-0.3117,2.2571,2.9846,3.755
2.095000,-0.3935,2.1020,3.3140,3.944
2.099000,-0.5053,1.9376,3.6885,4.197
2.104000,-0.5350,1.7610,3.9673,4.373
2.110000,-0.5348,1.5910,4.1389,4.466
2.115000,-0.5378,1.4560,4.2995,4.571
2.120000,-0.5336,1.2531,4.3868,4.593
2.132000,-0.5291,1.0468,4.4704,4.622
2.133000,-0.5986,0.8969,4.4716,4.600
2.134000,-0.6990,0.7578,4.3425,4.463
2.139000,-0.9074,0.5748,4.0329,4.173
2.173000,-1.0998,0.3937,3.7435,3.922
2.175000,-1.3061,0.2197,3.4955,3.738
2.175000,-1.4704,0.0365,3.3265,3.637
2.176000,-1.6534,-0.1776,3.2412,3.643
2.178000,-1.7696,-0.3291,3.0791,3.567
2.178000,-1.8530,-0.4662,2.8979,3.471
2.179000,-1.8235,-0.6369,2.6474,3.277
2.179000,-1.7226,-0.7621,2.4374,3.080
2.184000,-1.5788,-0.8874,2.3207,2.944
2.189000,-1.5400,-1.0391,2.0293,2.751
2.195000,-1.6512,-1.1743,1.7120,2.653
2.208000,-1.6945,-1.4701,1.1942,2.541
2.210000,-1.7173,-1.4695,1.1913,2.555
2.210000,-1.6278,-1.5941,1.0408,2.505
2.213000,-1.4614,-1.6958,0.8171,2.383
2.218000,-1.2354,-1.8104,0.5276,2.254
2.223000,-1.0091,-1.8901,0.1750,2.150
2.230000,-0.9083,-1.9825,-0.1834,2.188
2.233000,-0.7934,-2.0662,-0.5237,2.274
2.238000,-0.5943,-2.1313,-0.8412,2.367
2.255000,-0.3937,-2.2014,-1.2892,2.581
2.256000,-0.2059,-2.2500,-1.7028,2.829
2.259000,-0.1145,-2.2935,-2.1826,3.168
2.260000,-0.1815,-2.3433,-2.6456,3.539
2.264000,-0.2538,-2.3148,-3.0635,3.848
2.268000,-0.4327,-2.3104,-3.4850,4.204
2.273000,-0.6735,-2.3822,-3.8529,4.580
2.278000,-0.9245,-2.3858,-4.0747,4.811
2.284000,-1.0891,-2.3621,-4.1604,4.907
2.288000,-1.1806,-2.3252,-4.1629,4.912
2.293000,-1.1757,-2.3353,-4.1249,4.884
2.298000,-1.1515,-2.3376,-4.1182,4.873
2.302000,-1.1677,-2.3636,-3.9463,4.746
2.308000,-1.1907,-2.3921,-3.7046,4.568
2.313000,-1.0790,-2.3713,-3.3377,4.234
2.318000,-0.9517,-2.4217,-2.8545,3.862
2.331000,-0.7484,-2.4267,-2.4362,3.519
2.332000,-0.5403,-2.3925,-2.0985,3.228
2.333000,-0.3434,-2.2861,-1.8243,2.945
2.337000,-0.0949,-2.2733,-1.6749,2.825
2.363000,0.1269,-2.2255,-1.5566,2.719
2.364000,0.2219,-2.2243,-1.4858,2.684
2.365000,0.3509,-2.1741,-1.4791,2.653
2.365000,0.5600,-2.1661,-1.5147,2.702
2.365000,0.7290,-2.0999,-1.5853,2.730
2.373000,0.9035,-1.9850,-1.7341,2.786
2.374000,1.0597,-1.8880,-1.9539,2.916
2.377000,1.0987,-1.7893,-2.3073,3.120
2.383000,1.1325,-1.7407,-2.6057,3.332
2.387000,1.1243,-1.6818,-2.9335,3.563
2.392000,1.0949,-1.6309,-3.3295,3.866
2.397000,0.9546,-1.5752,-3.6341,4.074
2.402000,0.7079,-1.4946,-3.7718,4.118
2.408000,0.4475,-1.4125,-3.9297,4.200
2.412000,0.1226,-1.3406,-4.0197,4.239
2.417000,-0.1287,-1.1947,-3.9228,4.103
2.422000,-0.2006,-1.0709,-3.7273,3.883
2.427000,-0.1962,-0.9239,-3.3784,3.508
2.432000,-0.0907,-0.8020,-2.8828,2.994
2.436000,0.0619,-0.6675,-2.4411,2.531
2.447000,0.1235,-0.6169,-2.0119,2.108
2.448000,0.2072,-0.5669,-1.7286,1.831
2.452000,0.3298,-0.5107,-1.4783,1.598
2.481000,0.3908,-0.4748,-1.2154,1.362
2.483000,0.4955,-0.3778,-1.0739,1.242
2.483000,0.5960,-0.2388,-0.9844,1.175
2.483000,0.7210,-0.1103,-0.8536,1.123
2.483000,0.7247,-0.0062,-0.7416,1.037
2.484000,0.6386,0.0998,-0.6031,0.884
2.486000,0.4984,0.2172,-0.4285,0.692
2.492000,0.2295,0.3483,-0.1986,0.462
2.496000,-0.1349,0.4758,-0.0064,0.495
2.501000,-0.4635,0.6190,0.1553,0.789
2.508000,-0.6562,0.7606,0.3680,1.070
2.512000,-0.7281,0.8194,0.5551,1.229
2.517000,-0.7247,0.9246,0.4657,1.264
2.521000,-0.6917,1.0215,0.2000,1.250
2.526000,-0.7178,1.0655,-0.0940,1.288
2.531000,-0.8149,1.1410,-0.3929,1.456
2.536000,-0.8919,1.3232,-0.6690,1.730
2.548000,-0.8965,1.4811,-0.8272,1.919
2.552000,-0.9718,1.6007,-0.7962,2.035
2.552000,-1.1056,1.6920,-0.8659,2.199
2.587000,-1.1998,1.7623,-0.6991,2.244
2.588000,-1.1439,1.8976,0.0939,2.218
2.588000,-1.0574,2.0084,0.7812,2.400
2.591000,-0.9835,2.0728,1.1126,2.550
2.592000,-0.8456,2.0766,1.1575,2.523
2.592000,-0.7122,2.1282,0.9349,2.431
2.592000,-0.6192,2.1898,1.0642,2.512
2.593000,-0.5750,2.1772,1.5165,2.715
2.596000,-0.6375,2.1616,2.1435,3.110
2.601000,-0.6507,2.1300,2.9532,3.699
2.606000,-0.5569,2.1510,3.4797,4.129
2.611000,-0.4306,2.1094,3.7452,4.320
2.616000,-0.3457,2.0670,3.6571,4.215
2.620000,-0.3262,2.0719,3.5600,4.132
2.626000,-0.3082,2.0882,3.5615,4.140
2.631000,-0.1962,2.0913,3.9391,4.464
2.635000,-0.0595,2.1502,4.3366,4.841
2.642000,-0.0746,2.1540,4.1974,4.718
2.645000,-0.1363,2.1412,4.2562,4.766
2.650000,-0.3352,2.1374,4.3484,4.857
2.655000,-0.5891,2.0732,4.0149,4.557
2.660000,-0.7113,2.0758,3.4950,4.127
2.665000,-0.6083,2.1245,3.0417,3.760
2.670000,-0.5474,2.1701,2.7763,3.566
2.688000,-0.4494,2.1483,2.6336,3.428
2.689000,-0.2538,2.0885,2.5030,3.270
2.689000,0.0174,2.0031,2.3127,3.060
2.689000,0.3424,1.9138,2.2679,2.987
2.696000,0.6921,1.8279,2.1197,2.883
2.703000,1.0809,1.6741,2.0377,2.850
2.706000,1.4116,1.4890,1.9688,2.844
2.728000,1.6726,1.3424,1.9627,2.907
2.730000,1.8476,1.1511,2.0551,2.994
2.730000,1.9225,1.0204,2.2024,3.096
2.731000,1.8845,0.9261,2.5031,3.267
2.734000,1.6491,0.8316,2.9692,3.497
2.735000,1.3067,0.7027,3.4480,3.754
2.740000,0.9380,0.5074,4.0001,4.140
2.744000,0.6354,0.2922,4.4374,4.492
2.750000,0.4867,0.1134,4.8279,4.854
2.754000,0.4173,-0.0828,5.1486,5.166
2.759000,0.3747,-0.2998,5.2927,5.314
2.764000,0.4118,-0.4019,5.1990,5.231
2.769000,0.4790,-0.5166,5.1455,5.194
2.786000,0.6347,-0.6273,4.8002,4.882
2.787000,0.7694,-0.6767,4.2160,4.339
2.787000,0.8720,-0.7719,3.6418,3.823
2.789000,0.9647,-0.8596,3.1033,3.362
2.795000,1.0624,-0.9321,2.4712,2.847
2.799000,1.1270,-0.9987,1.6090,2.204
2.804000,1.2137,-1.1032,0.6619,1.769
2.810000,1.3104,-1.1101,-0.4313,1.771
2.814000,1.2757,-1.1428,-1.4631,2.253
2.819000,1.1996,-1.1779,-2.2751,2.829
2.824000,1.1391,-1.2005,-2.8777,3.320
2.829000,1.0360,-1.2623,-3.2888,3.672
2.834000,0.9641,-1.3105,-3.5543,3.909
2.839000,0.8505,-1.3737,-3.7871,4.117
2.845000,0.7854,-1.4853,-3.9277,4.272
2.849000,0.6868,-1.5785,-3.8804,4.245
2.855000,0.6604,-1.6342,-3.8751,4.257
2.865000,0.6535,-1.7434,-3.9165,4.337
2.866000,0.5819,-1.8800,-3.9351,4.400
2.869000,0.5460,-1.9939,-3.9545,4.462
2.910000,0.5340,-2.1261,-3.8958,4.470
2.913000,0.5395,-2.1595,-3.6701,4.292
2.914000,0.5775,-2.2337,-3.3726,4.086
2.915000,0.5551,-2.3253,-3.0890,3.906
2.916000,0.5445,-2.4352,-2.7920,3.745
2.916000,0.5674,-2.5760,-2.6031,3.706
2.917000,0.5742,-2.7242,-2.3468,3.641
2.918000,0.5921,-2.7682,-2.2069,3.589
2.919000,0.6642,-2.8375,-2.1040,3.594
2.919000,0.6884,-2.9181,-2.0111,3.610
2.925000,0.6699,-2.9217,-2.1387,3.682
2.928000,0.6638,-2.9156,-2.1061,3.657
2.933000,0.7827,-2.9404,-2.3868,3.867
2.939000,0.9086,-2.9621,-3.0097,4.319
2.944000,1.0808,-3.0204,-3.7051,4.901
2.949000,1.3340,-3.0499,-4.2968,5.435
2.954000,1.5351,-3.0427,-4.5396,5.676
2.958000,1.6865,-2.9839,-4.6997,5.817
2.962000,1.7112,-2.9450,-4.6893,5.796
2.968000,1.6911,-2.9040,-4.7167,5.791
2.972000,1.5995,-2.9161,-4.5741,5.655
2.991000,1.4554,-2.9597,-4.3187,5.434
2.994000,1.3741,-2.9995,-4.1513,5.303
2.995000,1.4010,-2.9227,-4.0623,5.197
2.995000,1.5842,-2.9068,-3.6926,4.959
2.997000,2.0078,-2.9139,-3.1784,4.757
3.002000,4.0381,-3.0926,-2.8183,5.815
3.009000,5.0222,-3.2806,-2.2744,6.415
3.012000,3.0675,-3.2407,-2.2833,5.013
3.017000,1.3004,-2.8775,-2.0511,3.765
3.022000,0.5772,-2.0409,-0.9826,2.338
3.028000,0.2189,-1.3573,-0.0026,1.375
3.032000,-0.1761,-1.4478,0.2759,1.484
3.037000,-0.6546,-1.9894,0.1798,2.102
3.042000,-0.9634,-2.4795,-0.1998,2.668
3.047000,-0.8322,-2.5314,-0.7467,2.767
3.052000,-0.2517,-2.0720,-1.1299,2.373
3.059000,0.4860,-1.5600,-1.3004,2.088
3.062000,0.9475,-1.1193,-1.1367,1.855
3.067000,1.1666,-0.9434,-1.0149,1.811
3.072000,1.2200,-0.8479,-0.7006,1.643
3.077000,1.2917,-0.7444,-0.5191,1.579
3.082000,1.4028,-0.6044,-0.4677,1.597
3.087000,1.4930,-0.4301,-0.4031,1.605
3.099000,1.6054,-0.2191,-0.3036,1.648
3.108000,1.6064,-0.0239,-0.2295,1.623
3.109000,1.5484,0.0866,-0.0852,1.553
3.109000,1.5686,0.2389,0.6338,1.709
3.136000,1.5646,0.5018,1.2098,2.040
3.137000,1.4832,0.7004,1.5216,2.237
3.138000,1.3249,0.8009,1.8807,2.436
3.138000,1.1233,0.7164,2.2208,2.590
3.139000,0.9881,0.7263,2.7241,2.987
3.139000,1.0013,0.8375,3.2402,3.493
3.145000,1.0262,0.9895,3.6976,3.963
3.147000,0.9537,1.1224,3.9272,4.194
3.152000,0.7576,1.1978,4.1682,4.403
3.158000,0.5197,1.2852,4.0858,4.315
3.161000,0.3022,1.4401,3.8307,4.104
3.166000,0.0661,1.6440,3.4767,3.846
3.171000,-0.1997,1.7826,3.1546,3.629
3.177000,-0.4268,1.8734,2.9572,3.527
3.181000,-0.5344,1.9678,2.5701,3.281
3.187000,-0.6839,2.0254,2.1580,3.038
3.195000,-0.8551,2.0542,1.8328,2.883
3.197000,-0.9124,2.0500,1.7444,2.842
3.203000,-0.9060,1.9989,1.7320,2.796
3.206000,-0.8531,1.8626,1.7957,2.724
3.237000,-0.8377,1.8253,2.0237,2.851
3.239000,-0.7783,1.8123,2.2514,2.993
3.240000,-0.6893,1.7229,2.4383,3.064
3.241000,-0.6971,1.6282,2.4202,2.999
3.242000,-0.6574,1.5997,2.7835,3.277
3.243000,-0.4714,1.6392,3.0189,3.467
3.243000,-0.3945,1.5949,3.1585,3.560
3.247000,-0.3879,1.5052,3.3963,3.735
3.250000,-0.3361,1.3955,3.5510,3.830
3.256000,-0.2120,1.2988,3.6902,3.918
3.261000,-0.0868,1.2582,3.7373,3.944
3.266000,0.0050,1.2231,3.7503,3.945
3.270000,0.0260,1.1861,3.7840,3.966
3.276000,0.0077,1.2049,3.6782,3.871
3.280000,-0.0279,1.1980,3.4212,3.625
3.286000,-0.0930,1.0969,3.0316,3.225
3.292000,-0.2308,0.9592,2.4567,2.647
3.296000,-0.4042,0.8792,1.9425,2.170
3.301000,-0.6403,0.8793,1.6793,2.001
3.305000,-0.8245,0.8306,1.6140,1.994
3.316000,-1.0243,0.7737,1.7774,2.193
3.317000,-1.1756,0.6916,1.9497,2.379
3.320000,-1.2579,0.5788,2.0689,2.489
3.356000,-1.3295,0.4183,2.0804,2.504
3.358000,-1.3693,0.2600,2.0705,2.496
3.360000,-1.3969,0.1302,2.1661,2.581
3.361000,-1.3505,0.0475,2.2526,2.627
3.361000,-1.3494,-0.0200,2.2420,2.617
3.362000,-1.3558,-0.0485,2.2206,2.602
3.362000,-1.3644,-0.1174,2.1027,2.509
3.363000,-1.3631,-0.2436,1.9936,2.427
3.365000,-1.3944,-0.3891,1.8364,2.338
3.369000,-1.4412,-0.4845,1.6597,2.251
3.375000,-1.4815,-0.5780,1.4302,2.139
3.380000,-1.5721,-0.6359,1.3537,2.170
3.385000,-1.6596,-0.6873,1.1981,2.159
3.392000,-1.8533,-0.7941,0.9540,2.231
3.395000,-1.9656,-0.8725,0.5065,2.209
3.400000,-2.0512,-0.8961,0.1572,2.244
3.405000,-2.0883,-0.8930,-0.2690,2.287
3.410000,-2.0384,-0.9110,-0.8080,2.374
3.415000,-2.0590,-0.9541,-1.2951,2.613
3.420000,-1.9870,-0.9594,-1.6759,2.771
3.429000,-1.8365,-0.9930,-2.1663,3.009
3.431000,-1.7108,-1.0569,-2.7449,3.403
3.435000,-1.6704,-1.0474,-2.9962,3.587
3.440000,-1.7087,-1.1027,-3.3514,3.920
3.476000,-1.8788,-1.2316,-3.7631,4.383
3.477000,-2.0930,-1.3087,-4.1291,4.811
3.477000,-2.1853,-1.3528,-4.4068,5.102
3.478000,-2.2388,-1.4257,-4.6229,5.331
3.478000,-2.2826,-1.4531,-4.5960,5.333
3.479000,-2.2338,-1.5545,-4.4077,5.180
3.480000,-2.1931,-1.6463,-4.1824,5.001
3.480000,-2.1202,-1.7600,-3.8363,4.723
3.484000,-2.0219,-1.8578,-3.3475,4.330
3.490000,-1.9321,-1.9477,-2.8806,3.978
3.494000,-1.7790,-2.0496,-2.3967,3.621
3.499000,-1.6438,-2.1143,-1.9094,3.289
3.504000,-1.4904,-2.1571,-1.4133,2.979
3.509000,-1.3663,-2.2031,-0.8669,2.733
3.513000,-1.2687,-2.2004,-0.4252,2.575
3.518000,-1.0694,-2.1956,-0.1400,2.446
3.528000,-0.6938,-2.2035,-0.0369,2.310
3.529000,-0.3089,-2.1718,-0.0224,2.194
3.533000,0.1484,-2.1633,-0.0553,2.169
3.539000,0.5951,-2.0869,-0.2505,2.184
3.582000,0.9647,-2.0502,-0.4286,2.306
3.583000,1.2029,-1.9475,-0.6185,2.371
3.584000,1.2932,-1.8670,-0.8181,2.414
3.584000,1.1833,-1.8061,-1.0682,2.409
3.585000,0.9874,-1.8266,-1.3523,2.478
3.585000,0.8006,-1.8036,-1.6203,2.553
3.585000,0.6487,-1.6938,-1.9466,2.661
3.586000,0.4951,-1.5712,-2.2836,2.816
3.586000,0.3587,-1.4685,-2.5264,2.944
3.589000,0.3140,-1.3421,-2.6493,2.986
3.594000,0.2749,-1.1986,-2.7819,3.042
3.598000,0.2007,-1.1286,-2.7571,2.986
3.603000,0.0575,-1.0555,-2.6084,2.814
3.608000,-0.0281,-0.9671,-2.4559,2.640
3.613000,-0.0348,-0.8372,-2.3520,2.497
3.617000,0.0871,-0.6539,-2.2226,2.318
3.624000,0.1678,-0.5201,-2.0652,2.136
3.628000,0.1591,-0.4120,-1.9062,1.957
3.633000,0.2333,-0.2891,-1.6379,1.679
3.637000,0.3064,-0.1685,-1.5087,1.549
3.654000,0.2018,0.0001,-1.2675,1.283
3.655000,-0.0172,0.1447,-1.0458,1.056
3.655000,-0.3508,0.2081,-0.7170,0.825
3.664000,-0.7152,0.2693,-0.3935,0.860
3.665000,-0.9842,0.4281,-0.1539,1.084
3.668000,-1.0342,0.5953,0.0932,1.197
3.672000,-0.9784,0.7588,0.2380,1.261
3.677000,-0.8530,0.8828,-0.0064,1.228
3.683000,-0.6915,0.9772,-0.3671,1.252
3.688000,-0.5942,1.0501,-0.4860,1.301
3.693000,-0.5363,1.1786,-0.4497,1.371
3.697000,-0.3969,1.3800,-0.5817,1.549
3.702000,-0.3575,1.4918,-0.6477,1.665
3.707000,-0.3581,1.5907,-0.6406,1.752
3.712000,-0.4036,1.6030,-0.6802,1.788
3.717000,-0.4172,1.6657,-0.6307,1.829
3.721000,-0.3486,1.7667,-0.4229,1.850
3.727000,-0.3130,1.8367,-0.2435,1.879
3.732000,-0.2575,1.8471,0.0391,1.865
3.736000,-0.2040,1.8408,0.3125,1.878
3.745000,-0.1480,1.8102,0.6272,1.922
3.747000,-0.1420,1.8102,1.0432,2.094
3.753000,-0.2079,1.8120,1.5244,2.377
3.776000,-0.3546,1.8341,2.0066,2.742
3.777000,-0.4410,1.8477,2.5091,3.147
3.777000,-0.4702,1.8805,2.9703,3.547
3.777000,-0.4736,1.9054,3.3646,3.896
3.778000,-0.4231,1.9579,3.6634,4.175
3.782000,-0.2660,2.0187,3.8816,4.383
3.786000,-0.1628,2.0204,4.2514,4.710
3.792000,-0.0793,1.9814,4.6391,5.045
3.797000,0.0091,1.9344,4.9041,5.272
3.802000,0.1528,1.9318,4.9655,5.330
3.807000,0.2084,1.9495,4.8163,5.200
3.812000,0.2602,1.9638,4.6170,5.024
3.817000,0.3253,1.9368,4.4055,4.823
3.823000,0.3063,1.9193,4.0212,4.466
3.832000,0.2368,1.8472,3.8109,4.242
3.833000,0.2652,1.8214,3.5995,4.043
3.836000,0.3438,1.7923,3.1162,3.611
3.841000,0.4799,1.6772,2.5856,3.119
3.878000,0.6226,1.5636,1.9974,2.612
3.880000,0.7454,1.4384,1.2956,2.074
3.881000,0.8141,1.3272,0.8669,1.782
3.882000,0.7710,1.1497,0.7197,1.560
3.882000,0.6827,0.9544,0.8414,1.444
3.883000,0.5531,0.7122,1.2463,1.538
3.883000,0.4003,0.5156,1.8821,1.992
3.883000,0.3335,0.3393,2.6395,2.682
3.887000,0.3693,0.0666,3.3927,3.413
3.891000,0.3834,-0.1603,4.0950,4.116
3.896000,0.6013,-0.3577,4.5658,4.619
3.901000,0.9179,-0.5530,4.9591,5.074
3.906000,1.1730,-0.6998,5.2257,5.401
3.911000,1.4052,-0.8688,5.4000,5.647
3.916000,1.5963,-1.0512,5.3581,5.689
3.921000,1.6043,-1.2376,4.9355,5.335
3.927000,1.5330,-1.4134,4.4910,4.951
3.931000,1.4480,-1.5234,4.0557,4.568
3.936000,1.4121,-1.5742,3.4641,4.059
3.943000,1.4207,-1.5727,2.6015,3.356
3.946000,1.4211,-1.5748,1.6107,2.663
3.950000,1.3436,-1.6299,0.7019,2.226
3.956000,1.2333,-1.6934,-0.2407,2.109
3.961000,1.0536,-1.7134,-1.1894,2.337
3.966000,0.8875,-1.7295,-2.0134,2.799
3.970000,0.7701,-1.7139,-2.6396,3.240
4.000000,0.6985,-1.6498,-3.1116,3.590
4.001000,0.6098,-1.6344,-3.2674,3.704
4.002000,0.4845,-1.6461,-3.4950,3.894
4.002000,0.3296,-1.6970,-3.7774,4.154
4.002000,0.2523,-1.7339,-4.0314,4.396
4.003000,0.1878,-1.7447,-4.0919,4.452
4.005000,0.0816,-1.7463,-3.8565,4.234
4.010000,-0.0014,-1.7534,-3.6074,4.011
4.015000,-0.1161,-1.8001,-3.2964,3.758
4.020000,-0.2028,-1.8275,-2.9349,3.463
4.025000,-0.3337,-1.8868,-2.5223,3.167
4.030000,-0.4963,-1.9667,-2.1776,2.976
4.036000,-0.5762,-2.0106,-1.9194,2.839
4.041000,-0.5920,-2.0285,-1.7282,2.730
4.047000,-0.5203,-2.0092,-1.6753,2.667
4.050000,-0.3610,-1.9672,-1.6717,2.607
4.055000,-0.2548,-1.9577,-1.8514,2.706
4.060000,-0.2426,-1.9663,-1.8672,2.722
4.065000,-0.2351,-1.9548,-2.0304,2.828
4.069000,-0.2232,-1.9109,-2.3170,3.012
4.098000,-0.1926,-1.8846,-2.5261,3.158
4.099000,-0.1934,-1.8540,-2.7825,3.349
4.100000,-0.2333,-1.8379,-3.0218,3.545
4.100000,-0.2401,-1.8000,-3.2203,3.697
4.101000,-0.2142,-1.7760,-3.3017,3.755
4.102000,-0.1556,-1.7514,-3.3619,3.794
4.104000,-0.1580,-1.7098,-3.2907,3.712
4.109000,-0.1040,-1.6467,-3.1145,3.525
4.114000,-0.0313,-1.6196,-2.9216,3.341
4.120000,0.1228,-1.5855,-2.9417,3.344
4.124000,0.2528,-1.6091,-3.1004,3.502
4.129000,0.3538,-1.5584,-3.1513,3.533
4.134000,0.3350,-1.4813,-3.0373,3.396
4.140000,0.2970,-1.4806,-2.9044,3.273
4.145000,0.2945,-1.4368,-2.8219,3.180
4.150000,0.3246,-1.4197,-2.6341,3.010
4.154000,0.4114,-1.3695,-2.4701,2.854
4.195000,0.5645,-1.2626,-2.4591,2.821
4.196000,0.7096,-1.1659,-2.2062,2.594
4.196000,0.8594,-1.1224,-2.0966,2.529
4.196000,0.9755,-1.0488,-2.0513,2.502
4.197000,1.0507,-1.0263,-1.9170,2.415
4.197000,1.0668,-0.9902,-1.9378,2.424
4.197000,0.9785,-0.9212,-1.8027,2.249
4.197000,0.8554,-0.8602,-1.5885,1.999
4.199000,0.7311,-0.7570,-1.4721,1.810
4.209000,0.6336,-0.6615,-1.5372,1.789
4.209000,0.5769,-0.5380,-1.5111,1.705
4.213000,0.5371,-0.4696,-1.4754,1.639
4.218000,0.5360,-0.3700,-1.5069,1.642
4.226000,0.5494,-0.2890,-1.4551,1.582
4.230000,0.5605,-0.2167,-1.3824,1.507
4.233000,0.4687,-0.1289,-1.2294,1.322
4.238000,0.3527,-0.1475,-1.0201,1.089
4.243000,0.3296,-0.1578,-0.8740,0.947
4.248000,0.3779,-0.0876,-0.6309,0.741
4.253000,0.5447,0.0435,-0.2552,0.603
4.264000,0.7013,0.1108,0.0262,0.710
4.265000,0.7158,0.1597,0.2566,0.777
4.268000,0.7679,0.1924,0.6034,0.995
4.273000,0.8936,0.2230,0.8516,1.254
4.309000,0.9278,0.3205,1.1162,1.486
4.310000,0.9859,0.4227,1.3208,1.701
4.310000,1.0159,0.5031,1.4820,1.866
4.311000,1.0015,0.5311,1.5067,1.885
4.311000,0.9330,0.5618,1.6601,1.985
4.311000,0.9372,0.6002,1.8512,2.160
4.312000,1.0071,0.6441,2.0393,2.364
4.314000,1.0736,0.7078,2.2553,2.596
4.318000,1.1127,0.7675,2.3413,2.703
4.324000,1.1119,0.8495,2.4793,2.847
4.327000,1.0331,0.8151,2.6261,2.937
4.332000,0.9001,0.8461,2.7723,3.035
4.338000,0.7658,0.9498,2.9081,3.154
4.343000,0.5398,0.9520,2.8539,3.057
4.348000,0.1903,0.9559,2.8609,3.022
4.352000,-0.1469,0.9616,3.0868,3.236
4.359000,-0.4396,0.9640,3.3330,3.497
4.363000,-0.5881,1.0248,3.6048,3.794
4.368000,-0.6047,1.0767,3.8782,4.070
4.372000,-0.6139,1.1001,4.1274,4.315
4.378000,-0.5861,1.1181,4.3169,4.498
4.382000,-0.5951,1.0875,4.5330,4.699
4.387000,-0.6163,1.0816,4.6113,4.776
4.398000,-0.6421,1.0837,4.4441,4.619
4.400000,-0.7153,1.1033,4.3069,4.503
4.402000,-0.8424,1.1427,4.1805,4.415
4.443000,-0.9800,1.1308,3.8755,4.154
4.444000,-1.0785,1.1178,3.5286,3.855
4.445000,-1.1568,1.1426,3.1107,3.510
4.446000,-1.2195,1.1268,2.8295,3.281
4.446000,-1.2422,1.1236,2.6822,3.162
4.446000,-1.2580,1.0639,2.5346,3.023
4.447000,-1.2582,1.0291,2.5278,3.005
4.447000,-1.1805,0.9764,2.5418,2.968
4.448000,-1.1379,0.8844,2.4524,2.845
4.452000,-1.1498,0.8033,2.3504,2.737
4.457000,-1.2409,0.6809,2.3027,2.703
4.462000,-1.2393,0.5865,2.5364,2.883
4.468000,-1.0951,0.4865,2.8815,3.121
4.472000,-0.9549,0.3750,3.2786,3.435
4.480000,-0.7974,0.2509,3.6567,3.751
4.481000,-0.6941,0.0825,4.0638,4.124
4.487000,-0.5510,-0.0500,4.4289,4.463
4.491000,-0.4183,-0.2454,4.5108,4.537
4.496000,-0.4734,-0.3494,4.5066,4.545
4.501000,-0.5410,-0.3766,4.3950,4.444
4.506000,-0.6350,-0.4278,4.2216,4.290
4.538000,-0.7879,-0.5128,4.0680,4.175
4.540000,-0.8438,-0.5746,3.6522,3.792
4.540000,-0.9890,-0.6539,3.0703,3.291
4.541000,-1.0822,-0.6734,2.5635,2.863
4.543000,-1.0916,-0.7000,1.9525,2.344
4.544000,-1.1673,-0.6752,1.1363,1.763
4.544000,-1.2157,-0.6723,0.3372,1.430
4.546000,-1.3038,-0.6805,-0.4430,1.536
4.552000,-1.3627,-0.7413,-1.3559,2.060
4.556000,-1.4981,-0.8107,-2.1174,2.717
4.561000,-1.6128,-0.9039,-2.6159,3.203
4.566000,-1.6599,-0.9605,-3.0675,3.618
4.570000,-1.6664,-0.9513,-3.5348,4.022
4.576000,-1.6957,-0.9334,-3.8484,4.308
4.582000,-1.7509,-0.9374,-4.0971,4.553
4.586000,-1.7872,-0.9104,-4.3340,4.776
4.595000,-1.7720,-0.9262,-4.3752,4.810
4.596000,-1.7128,-1.0352,-4.3309,4.771
4.600000,-1.5169,-1.1086,-4.3277,4.718
4.606000,-1.2732,-1.1874,-4.3607,4.695
4.613000,-1.0124,-1.3076,-4.1306,4.449
4.617000,-0.7811,-1.3791,-3.9028,4.212
4.620000,-0.5568,-1.4571,-3.7416,4.054
4.658000,-0.2916,-1.5641,-3.5293,3.871
4.660000,-0.1553,-1.6740,-3.2918,3.696
4.662000,-0.0932,-1.7448,-3.0432,3.509
4.662000,-0.1359,-1.8322,-2.5844,3.171
4.663000,-0.1034,-1.8435,-2.1474,2.832
4.663000,-0.0425,-1.8208,-1.7624,2.534
4.663000,-0.0299,-1.7934,-1.4792,2.325
4.664000,-0.0769,-1.7809,-1.2042,2.151
4.666000,-0.1202,-1.6955,-1.0469,1.996
4.670000,-0.0134,-1.6548,-0.9976,1.932
4.676000,0.1360,-1.6298,-0.9963,1.915
4.680000,0.2513,-1.6038,-1.1220,1.973
4.684000,0.3537,-1.5506,-1.2980,2.053
4.689000,0.4952,-1.4865,-1.3427,2.063
4.695000,0.6994,-1.4471,-1.5267,2.217
4.699000,0.8916,-1.3791,-1.9123,2.521
4.704000,0.9565,-1.3201,-2.3370,2.849
4.713000,0.9224,-1.3146,-2.6531,3.101
4.715000,0.8345,-1.2829,-2.8659,3.249
4.722000,0.6898,-1.1434,-2.9901,3.275
4.724000,0.5317,-1.0274,-2.9782,3.195
4.750000,0.3746,-0.9326,-2.9522,3.119
4.752000,0.2519,-0.8183,-2.8953,3.019
4.752000,0.1111,-0.7325,-2.8053,2.901
4.752000,-0.0518,-0.6325,-2.6770,2.751
4.753000,-0.1857,-0.5686,-2.6180,2.685
4.754000,-0.3814,-0.5166,-2.7170,2.792
4.759000,-0.5902,-0.4496,-2.7206,2.820
4.765000,-0.7452,-0.4032,-2.6912,2.821
4.769000,-0.7852,-0.2219,-2.6816,2.803
4.773000,-0.7348,-0.0015,-2.5769,2.680
4.779000,-0.7425,0.0930,-2.4323,2.545
4.784000,-0.7552,0.1693,-2.1642,2.298
4.790000,-0.8274,0.2895,-1.9519,2.140
4.795000,-0.8997,0.3600,-1.8455,2.084
4.800000,-0.9285,0.5198,-1.5460,1.877
4.805000,-0.9737,0.6608,-1.3501,1.791
4.812000,-1.0991,0.7186,-1.2122,1.787
4.815000,-1.2495,0.8442,-0.9864,1.802
4.819000,-1.3053,0.9515,-0.7951,1.800
4.841000,-1.3027,0.9830,-0.7217,1.784
4.842000,-1.2896,1.0754,-0.6156,1.788
4.842000,-1.3142,1.1282,-0.3860,1.775
4.843000,-1.3407,1.1513,-0.1504,1.774
4.843000,-1.2835,1.1515,0.0842,1.726
4.848000,-1.3225,1.1622,0.3061,1.787
4.854000,-1.4174,1.2214,0.6278,1.974
4.859000,-1.4065,1.2713,1.0086,2.147
4.863000,-1.3562,1.3238,1.2646,2.278
4.868000,-1.2447,1.3884,1.4078,2.336
4.873000,-1.1240,1.4603,1.5411,2.402
4.878000,-1.0413,1.4727,1.7195,2.492
4.883000,-1.0514,1.4854,2.0529,2.743
4.888000,-0.9858,1.5393,2.2230,2.878
4.894000,-0.8659,1.5461,2.3923,2.977
4.898000,-0.6967,1.6039,2.6374,3.164
4.905000,-0.5164,1.5807,2.8197,3.274
4.909000,-0.3612,1.6179,3.1546,3.564
4.913000,-0.2072,1.6214,3.5416,3.901
4.918000,-0.0929,1.6008,3.9188,4.234
4.924000,-0.0093,1.6054,4.2817,4.573
4.928000,0.1005,1.6297,4.6954,4.971
4.933000,0.1667,1.6803,4.8973,5.180
4.938000,0.0697,1.6849,5.1317,5.402
4.947000,-0.0728,1.6432,5.2912,5.541
4.948000,-0.1498,1.6176,5.2706,5.515
4.953000,-0.2133,1.5747,5.2612,5.496
4.980000,-0.0743,1.5765,5.1867,5.422
4.982000,0.0613,1.5394,4.8941,5.131
4.983000,0.1847,1.5310,4.3903,4.653
4.983000,0.2623,1.5046,3.8951,4.184
4.983000,0.3416,1.4947,3.2979,3.637
4.984000,0.4509,1.5111,2.8304,3.240
4.987000,0.5300,1.4808,2.5375,2.985
4.995000,0.5841,1.5361,2.2630,2.797
4.997000,0.6419,1.5334,2.0331,2.626
5.002000,0.6190,1.4587,1.8309,2.421
5.008000,0.5608,1.3745,1.5798,2.168
5.012000,0.5769,1.2763,1.3895,1.973
5.017000,0.5451,1.2147,1.1953,1.789
5.022000,0.5200,1.1202,0.9876,1.581
5.027000,0.4315,0.9570,1.1036,1.523
5.032000,0.3444,0.7298,1.4570,1.666
5.037000,0.2920,0.5476,1.7086,1.818
5.048000,0.2763,0.4406,1.9641,2.032
5.050000,0.3355,0.3863,2.3940,2.448
5.052000,0.4820,0.3212,2.6233,2.687
5.057000,0.6256,0.2328,2.7076,2.789
5.086000,0.7884,0.0873,2.6880,2.803
5.087000,0.9134,-0.0130,2.5170,2.678
5.088000,1.0781,-0.0993,2.4172,2.649
5.089000,1.2446,-0.1238,2.1710,2.506
5.089000,1.3655,-0.1990,1.8528,2.310
5.089000,1.4624,-0.2552,1.4266,2.059
5.096000,1.5162,-0.3135,0.8563,1.769
5.097000,1.5483,-0.3612,0.1442,1.596
5.102000,1.5437,-0.3928,-0.4111,1.645
5.106000,1.5336,-0.4365,-0.8938,1.828
5.111000,1.5008,-0.4798,-1.3641,2.084
5.117000,1.4041,-0.5771,-1.6668,2.255
5.121000,1.2411,-0.6445,-2.0917,2.516
5.126000,1.1592,-0.6932,-2.4932,2.836
5.131000,1.0485,-0.7613,-2.8405,3.122
5.136000,0.9104,-0.8602,-3.1386,3.379
5.149000,0.7805,-0.9349,-3.3279,3.544
5.150000,0.6375,-0.9920,-3.2942,3.499
5.151000,0.5055,-1.0679,-3.2836,3.490
5.193000,0.4849,-1.1510,-3.1669,3.404
5.195000,0.5109,-1.2225,-3.0611,3.336
5.195000,0.5575,-1.3594,-2.9133,3.263
5.196000,0.6439,-1.4379,-2.7064,3.132
5.196000,0.7035,-1.4752,-2.5239,3.007
5.197000,0.7679,-1.4907,-2.4231,2.947
5.197000,0.8157,-1.5806,-2.3389,2.938
5.197000,0.8012,-1.6731,-2.3837,3.020
5.198000,0.7551,-1.7682,-2.3828,3.062
5.201000,0.7869,-1.8444,-2.3410,3.082
5.210000,0.8627,-1.9095,-2.2126,3.047
5.213000,0.9726,-1.9472,-2.0382,2.982
5.216000,1.1070,-1.9915,-1.9322,2.987
5.220000,1.2156,-2.0281,-1.9591,3.071
5.226000,1.2720,-2.0717,-2.0685,3.192
5.231000,1.3408,-2.1483,-2.0688,3.270
5.237000,1.4078,-2.1718,-2.1303,3.352
5.242000,1.4876,-2.1779,-2.2552,3.470
5.246000,1.5375,-2.1687,-2.4436,3.611
5.250000,1.5050,-2.2254,-2.6071,3.744
5.255000,1.3976,-2.2066,-2.6502,3.721
5.265000,1.2589,-2.1889,-2.6997,3.697
5.267000,1.2300,-2.1409,-2.8396,3.763
5.270000,1.2799,-2.0458,-2.8784,3.756
5.309000,1.3823,-1.9657,-3.0149,3.855
5.310000,1.4322,-1.9743,-3.1630,3.994
5.311000,1.3364,-1.9589,-3.1483,3.941
5.312000,1.1841,-1.9381,-3.0814,3.828
5.312000,1.0612,-1.8545,-3.0054,3.687
5.312000,1.0294,-1.7341,-2.8153,3.463
5.313000,1.0856,-1.6678,-2.7051,3.358
5.313000,1.1430,-1.6554,-2.5742,3.267
5.315000,1.2296,-1.6229,-2.2840,3.060
5.320000,1.2879,-1.4678,-1.9157,2.735
5.325000,1.4684,-1.2478,-1.6009,2.505
5.330000,1.5490,-1.0709,-1.2388,2.254
5.335000,1.5371,-0.9923,-0.9680,2.070
5.342000,1.4814,-0.9118,-0.6016,1.841
5.345000,1.4899,-0.8318,-0.2020,1.718
5.349000,1.4149,-0.6762,0.1212,1.573
5.355000,1.5058,-0.4642,0.1671,1.585
5.360000,1.5090,-0.2817,0.2828,1.561
5.365000,1.4489,-0.1739,0.4513,1.528
5.370000,1.3753,-0.0407,0.6822,1.536
5.383000,1.3935,0.1707,1.0041,1.726
5.385000,1.4004,0.4169,1.1635,1.868
5.386000,1.3748,0.6070,1.3019,1.988
5.389000,1.3578,0.8107,1.4692,2.159
5.435000,1.3853,0.9468,1.4141,2.194
5.436000,1.3234,1.1045,1.3996,2.220
5.436000,1.2249,1.2414,1.3082,2.180
5.437000,1.1375,1.3531,1.1562,2.112
5.437000,0.9603,1.4403,1.0270,2.013
5.437000,0.7387,1.5442,1.0398,2.003
5.437000,0.5134,1.6892,1.2013,2.135
5.438000,0.3774,1.7773,1.3820,2.283
5.438000,0.2943,1.8208,1.4622,2.354
5.439000,0.2207,1.8392,1.5016,2.385
5.444000,0.1824,1.8565,1.7703,2.572
5.449000,0.2057,1.8228,1.9882,2.705
5.456000,0.1561,1.7573,2.2008,2.821
5.460000,0.0595,1.6187,2.6643,3.118
5.464000,0.0136,1.4284,3.2568,3.556
5.469000,-0.0198,1.2999,3.7853,4.002
5.478000,-0.0503,1.1633,4.3148,4.469
5.479000,-0.0945,1.0986,4.8581,4.982
5.484000,-0.1143,1.0190,5.2315,5.331
5.488000,-0.0330,0.9185,5.5100,5.586
5.510000,0.0493,0.7821,5.6442,5.698
5.511000,0.1164,0.6809,5.6272,5.669
5.511000,0.1362,0.6194,5.5193,5.556
5.512000,0.0428,0.5907,5.2271,5.261
5.513000,-0.1365,0.5783,4.8366,4.873
5.518000,-0.4087,0.5683,4.3381,4.394
5.525000,-0.6499,0.5591,3.8604,3.954
5.528000,-0.8676,0.5652,3.4296,3.583
5.533000,-1.0314,0.5398,3.0474,3.262
5.544000,-1.1272,0.5001,2.6036,2.881
5.546000,-1.1336,0.5543,2.1743,2.514
5.548000,-1.0844,0.5547,1.8332,2.201
5.553000,-1.0066,0.4706,1.5226,1.885
5.559000,-0.8622,0.3793,1.1584,1.493
5.563000,-0.6995,0.2766,1.0322,1.277
5.569000,-0.5328,0.1743,1.0527,1.193
5.574000,-0.4625,0.1179,1.2749,1.361
5.578000,-0.4433,0.0565,1.6773,1.736
5.583000,-0.5012,0.0131,2.1456,2.203
5.588000,-0.4690,-0.0089,2.6205,2.662
5.612000,-0.4563,-0.0438,2.9880,3.023
5.613000,-0.4942,-0.1595,3.2749,3.316
5.613000,-0.5516,-0.2421,3.4340,3.486
5.613000,-0.6640,-0.3257,3.5617,3.638
5.614000,-0.7642,-0.3532,3.6196,3.716
5.619000,-0.8465,-0.3419,3.6344,3.747
5.623000,-0.9847,-0.3733,3.5371,3.691
5.627000,-1.1204,-0.4548,3.3278,3.541
5.632000,-1.2124,-0.4809,3.1668,3.425
5.637000,-1.2386,-0.5067,2.8843,3.180
5.643000,-1.2658,-0.4819,2.5282,2.868
5.648000,-1.3564,-0.4658,2.1079,2.550
5.654000,-1.3742,-0.4677,1.5421,2.118
5.657000,-1.3994,-0.5177,0.8617,1.723
5.663000,-1.3485,-0.5437,0.1550,1.462
5.668000,-1.3276,-0.6020,-0.5259,1.550
5.672000,-1.4182,-0.6697,-1.2321,1.994
5.678000,-1.4553,-0.6625,-1.9352,2.510
5.682000,-1.5402,-0.6724,-2.7126,3.191
5.687000,-1.6664,-0.6985,-3.4907,3.931
5.698000,-1.8541,-0.7203,-4.1841,4.633
5.699000,-1.9908,-0.7157,-4.6574,5.115
5.702000,-2.1199,-0.7222,-4.8825,5.372
5.741000,-2.2415,-0.7946,-5.0274,5.562
5.742000,-2.3937,-0.8728,-4.9990,5.611
5.742000,-2.5502,-0.9501,-4.8643,5.574
5.743000,-2.6516,-1.0173,-4.6710,5.467
5.743000,-2.7102,-1.1133,-4.3566,5.250
5.744000,-2.7335,-1.2461,-4.0545,5.046
5.745000,-2.7264,-1.3588,-3.7334,4.818
5.745000,-2.6939,-1.4789,-3.4020,4.584
5.746000,-2.5785,-1.6068,-2.9931,4.265
5.751000,-2.4641,-1.7054,-2.5612,3.942
5.756000,-2.2522,-1.7759,-2.2775,3.662
5.761000,-1.9477,-1.8904,-2.0581,3.406
5.766000,-1.5936,-1.9614,-1.8974,3.160
5.771000,-1.1492,-2.0490,-1.7498,2.929
5.777000,-0.6570,-2.1084,-1.6508,2.757
5.781000,-0.2091,-2.1371,-1.6553,2.711
5.786000,0.1780,-2.1616,-1.7321,2.776
5.796000,0.4903,-2.2012,-1.8760,2.933
5.797000,0.7758,-2.2514,-2.0680,3.154
5.801000,0.9823,-2.3096,-2.2505,3.371
5.806000,1.1370,-2.2990,-2.3376,3.470
5.829000,1.2619,-2.2461,-2.5447,3.621
5.830000,1.2720,-2.1696,-2.7140,3.700
5.831000,1.2877,-2.1171,-3.0275,3.912
5.831000,1.1486,-2.0928,-3.3419,4.107
5.832000,0.9529,-2.0578,-3.4853,4.158
5.836000,0.7649,-1.9952,-3.6398,4.221
5.842000,0.5533,-1.8735,-3.8010,4.274
5.846000,0.3274,-1.7637,-3.9047,4.297
5.852000,0.1611,-1.6108,-3.9844,4.301
5.858000,0.1134,-1.4476,-3.9306,4.190
5.861000,0.1218,-1.3317,-3.8534,4.079
5.866000,0.0520,-1.1551,-3.8080,3.980
5.871000,-0.0988,-1.0419,-3.6846,3.830
5.876000,-0.2327,-0.9039,-3.4663,3.590
5.881000,-0.3546,-0.7219,-3.1701,3.271
5.885000,-0.4050,-0.5561,-2.9488,3.028
5.891000,-0.4725,-0.3730,-2.6350,2.703
5.896000,-0.5308,-0.1990,-2.4775,2.541
5.901000,-0.5490,-0.0630,-2.3372,2.402
5.905000,-0.5941,0.0785,-2.2406,2.319
5.910000,-0.6516,0.2589,-2.1518,2.263
5.916000,-0.6738,0.4451,-2.0352,2.190
5.920000,-0.6557,0.6349,-1.8312,2.046
5.930000,-0.6571,0.7876,-1.6021,1.902
5.932000,-0.6352,0.9509,-1.3213,1.748
5.936000,-0.5394,1.1224,-0.9413,1.561
5.975000,-0.5561,1.2156,-0.6985,1.508
5.976000,-0.6298,1.2854,-0.4445,1.499
5.977000,-0.6818,1.3509,-0.0884,1.516
5.977000,-0.7049,1.4357,0.2720,1.622
5.978000,-0.7226,1.5801,0.5961,1.837
5.979000,-0.6968,1.7717,0.8555,2.087
5.980000,-0.6870,1.9291,0.9737,2.267
5.980000,-0.7048,1.9832,1.0394,2.347
5.981000,-0.7139,1.9991,1.0882,2.385
5.985000,-0.8266,2.0319,1.2181,2.509
5.990000,-0.8226,2.0915,1.5412,2.725
5.995000,-0.8597,2.1680,1.7849,2.937
6.000000,-0.9589,2.2135,2.0448,3.162
6.004000,-1.1103,2.2210,2.3019,3.386
6.014000,-1.2950,2.1928,2.3864,3.490
6.016000,-1.4254,2.2009,2.4275,3.573
6.019000,-1.4686,2.2164,2.5642,3.694
6.050000,-1.5058,2.3159,2.7459,3.895
6.052000,-1.5778,2.3347,2.8506,4.008
6.053000,-1.6518,2.3301,2.9787,4.127
6.053000,-1.7210,2.2831,3.2905,4.359
6.053000,-1.6527,2.2436,3.5635,4.524
6.053000,-1.4811,2.3115,3.6952,4.603
6.055000,-1.2215,2.2400,3.8798,4.644
6.060000,-0.9703,2.1555,3.9643,4.616
6.064000,-0.6228,2.0700,4.0111,4.557
6.069000,-0.3346,2.0192,3.8648,4.373
6.075000,-0.2107,1.9578,3.6284,4.128
6.080000,-0.0930,1.9652,3.3543,3.889
6.085000,-0.0763,1.8941,3.0468,3.588
6.089000,-0.0373,1.7450,2.7798,3.282
6.094000,-0.1447,1.6192,2.5839,3.053
6.099000,-0.2664,1.5575,2.6143,3.055
6.105000,-0.4017,1.4762,2.6628,3.071
6.110000,-0.5362,1.3868,2.9233,3.280
6.114000,-0.5982,1.2528,3.5106,3.775
6.119000,-0.4746,1.0779,3.8082,3.986
6.147000,-0.2872,0.8665,4.0318,4.134
6.149000,-0.0672,0.7163,4.1674,4.229
6.149000,0.2355,0.5073,4.0671,4.105
6.149000,0.4888,0.2635,4.0158,4.054
6.150000,0.6084,0.1092,4.0444,4.091
6.150000,0.7598,0.0463,3.9307,4.004
6.153000,0.9062,-0.0951,3.6247,3.737
6.158000,1.0522,-0.2621,3.3321,3.504
6.163000,1.1409,-0.4137,3.0910,3.321
6.168000,1.1985,-0.5642,2.9419,3.226
6.173000,1.3187,-0.6919,2.8416,3.208
6.179000,1.5134,-0.7493,2.5248,3.038
6.184000,1.6272,-0.7335,2.3596,2.959
6.188000,1.6578,-0.7812,2.0927,2.782
6.195000,1.5934,-0.8490,1.7980,2.548
6.199000,1.5179,-0.8576,1.4514,2.269
6.203000,1.4336,-0.8906,1.1081,2.019
6.212000,1.3854,-0.8831,0.6744,1.776
6.214000,1.3614,-0.8805,0.2462,1.640
6.218000,1.3804,-0.9349,-0.0622,1.668
6.223000,1.5093,-0.9411,-0.2794,1.800
6.233000,1.7122,-0.9948,-0.5468,2.054
6.234000,1.8241,-1.0311,-0.7974,2.242
6.238000,1.8955,-1.0667,-1.1701,2.470
6.289000,2.0006,-1.1536,-1.4545,2.729
6.291000,2.0990,-1.2055,-1.6318,2.919
6.291000,2.1167,-1.2775,-1.9245,3.133
6.292000,2.1067,-1.3452,-2.1437,3.293
6.293000,2.0622,-1.3964,-2.4070,3.464
6.294000,2.0217,-1.4022,-2.5660,3.555
6.295000,2.0567,-1.5205,-2.5827,3.635
6.295000,2.1935,-1.7086,-2.5406,3.766
6.296000,2.9860,-2.0815,-2.5569,4.448
6.297000,3.7855,-2.2755,-2.5907,5.121
6.297000,3.3372,-1.9201,-2.8286,4.778
6.298000,2.3462,-1.6780,-2.9215,4.106
6.303000,1.3232,-1.5277,-2.4630,3.186
6.310000,0.6960,-1.6117,-1.8451,2.547
6.317000,0.3312,-1.7998,-1.4399,2.329
6.318000,0.2196,-1.9137,-1.4138,2.389
6.322000,0.3659,-2.0141,-1.5987,2.597
6.329000,0.5380,-1.9930,-1.9489,2.839
6.333000,0.7771,-1.9195,-2.3784,3.154
6.337000,0.8948,-1.8596,-2.7681,3.453
6.352000,0.9564,-1.8435,-3.0276,3.672
6.353000,0.9835,-1.8756,-3.1695,3.812
6.355000,0.9716,-1.9004,-3.2489,3.887
6.358000,0.9680,-1.8464,-3.2037,3.822
6.409000,0.9341,-1.7972,-3.2445,3.825
6.411000,0.7933,-1.7389,-3.2397,3.761
6.411000,0.5573,-1.6878,-3.1726,3.637
6.412000,0.3840,-1.6654,-3.0768,3.520
6.412000,0.2203,-1.6215,-3.0122,3.428
6.413000,-0.0207,-1.6348,-2.9981,3.415
6.413000,-0.2656,-1.6263,-2.8910,3.328
6.413000,-0.3599,-1.5769,-2.6457,3.101
6.414000,-0.3140,-1.5113,-2.3982,2.852
6.414000,-0.2792,-1.4156,-2.1363,2.578
6.417000,-0.3298,-1.3068,-1.9079,2.336
6.418000,-0.3188,-1.2257,-1.5788,2.024
6.421000,-0.2983,-1.1414,-1.3258,1.775
6.428000,-0.3109,-1.0591,-1.0100,1.496
6.433000,-0.2699,-0.9886,-0.7818,1.289
6.437000,-0.1846,-0.8538,-0.6145,1.068
6.456000,-0.1551,-0.7935,-0.5248,0.964
6.458000,-0.1522,-0.7261,-0.4384,0.862
6.458000,-0.1062,-0.6613,-0.3672,0.764
6.459000,-0.0119,-0.5937,-0.4191,0.727
6.466000,0.0828,-0.4303,-0.4886,0.656
6.466000,0.2068,-0.3162,-0.6694,0.769
6.472000,0.3453,-0.1933,-0.9689,1.047
6.492000,0.5367,-0.1161,-1.1483,1.273
6.494000,0.6734,0.0145,-1.2610,1.430
6.494000,0.8035,0.1323,-1.3887,1.610
6.495000,1.0271,0.1922,-1.4266,1.768
6.497000,1.1998,0.2665,-1.3490,1.825
6.501000,1.2569,0.3717,-1.2418,1.806
6.505000,1.2131,0.4794,-1.0289,1.661
6.510000,1.0999,0.5898,-0.6818,1.422
6.516000,1.0110,0.6617,-0.3079,1.247
6.521000,0.9463,0.7502,0.0352,1.208
6.527000,0.8362,0.8550,0.4627,1.282
6.531000,0.7810,0.8729,0.8094,1.424
6.536000,0.6611,0.9259,1.1523,1.619
6.543000,0.6173,0.9011,1.4365,1.805
6.546000,0.5746,0.8053,1.9349,2.173
6.551000,0.4404,0.9154,3.2141,3.371
6.557000,0.8823,1.0849,3.2700,3.556
6.562000,0.8210,1.2957,2.3524,2.808
6.566000,0.3637,1.4286,2.0761,2.546
6.571000,0.1196,1.4375,2.3545,2.761
6.615000,0.0589,1.2768,2.6468,2.939
6.617000,0.0580,1.1170,2.7589,2.977
6.617000,0.0870,1.1618,2.6477,2.893
6.618000,0.0579,1.2583,2.6744,2.956
6.618000,-0.0170,1.3561,2.6906,3.013
6.619000,-0.0953,1.3068,2.6486,2.955
6.619000,-0.1134,1.1871,2.7302,2.979
6.619000,-0.1551,1.1256,2.8375,3.057
6.620000,-0.2655,1.0840,2.9252,3.131
6.621000,-0.3725,1.0598,3.0697,3.269
6.625000,-0.5234,1.0169,3.1135,3.317
6.630000,-0.6369,0.9957,3.1284,3.344
6.635000,-0.6320,0.9793,3.1292,3.339
6.639000,-0.6955,0.9339,3.0440,3.259
6.645000,-0.7579,0.9147,2.8420,3.080
6.650000,-0.8315,0.8261,2.5231,2.782
6.654000,-0.9112,0.7503,2.2163,2.511
6.663000,-0.9613,0.6707,1.9522,2.277
6.665000,-1.0346,0.6211,1.7332,2.112
6.670000,-1.1168,0.5898,1.5734,2.018
6.696000,-1.3467,0.4812,1.5228,2.089
6.697000,-1.6739,0.3193,1.4594,2.244
6.697000,-1.9860,0.1881,1.4237,2.451
6.697000,-2.1352,0.0967,1.4566,2.587
6.698000,-2.2034,0.0453,1.4143,2.619
6.701000,-2.2648,-0.0740,1.4143,2.671
6.704000,-2.1831,-0.2177,1.4182,2.612
6.711000,-2.0210,-0.3600,1.5218,2.555
6.715000,-1.7859,-0.4722,1.6366,2.468
6.719000,-1.4922,-0.5646,1.7294,2.353
6.726000,-1.2260,-0.6469,1.8627,2.322
6.730000,-1.0400,-0.7597,2.0481,2.419
6.734000,-0.8981,-0.8747,2.2335,2.561
6.740000,-0.8484,-1.0049,2.3356,2.680
6.744000,-0.7833,-1.1478,2.4023,2.775
6.749000,-0.7553,-1.2396,2.4533,2.851
6.754000,-0.7333,-1.2993,2.4381,2.858
6.759000,-0.7575,-1.3417,2.4242,2.872
6.764000,-0.7918,-1.3792,2.4044,2.883
6.769000,-0.8147,-1.3978,2.2835,2.799
6.783000,-0.8642,-1.3693,2.0784,2.635
6.786000,-0.9784,-1.2796,1.8348,2.442
6.787000,-1.1063,-1.2124,1.5097,2.230
6.789000,-1.1925,-1.1507,1.0312,1.952
6.822000,-1.3537,-1.0796,0.4831,1.798
6.823000,-1.4221,-1.1013,-0.0250,1.799
6.823000,-1.4955,-1.0836,-0.5339,1.922
6.824000,-1.5263,-1.1051,-0.9939,2.130
6.824000,-1.5360,-1.0791,-1.5080,2.408
6.825000,-1.6518,-1.0746,-1.9377,2.764
6.825000,-1.8235,-1.1052,-2.4126,3.220
6.828000,-1.9775,-1.1057,-2.7777,3.584
6.834000,-2.0691,-1.1286,-3.0571,3.860
6.838000,-2.0539,-1.2237,-3.3706,4.132
6.845000,-1.9976,-1.2834,-3.5893,4.304
6.848000,-1.8672,-1.2766,-3.6797,4.319
6.853000,-1.6796,-1.3328,-3.6992,4.276
6.860000,-1.4252,-1.3591,-3.7601,4.245
6.864000,-1.1849,-1.3890,-3.7643,4.184
6.869000,-0.9752,-1.4415,-3.7333,4.119
6.879000,-0.7430,-1.4907,-3.6431,4.006
6.880000,-0.4931,-1.5657,-3.4911,3.858
6.883000,-0.2898,-1.6215,-3.2652,3.657
6.888000,-0.1398,-1.6278,-3.0295,3.442
6.919000,0.0313,-1.5825,-2.7649,3.186
6.920000,0.1594,-1.5129,-2.5618,2.979
6.921000,0.1733,-1.5198,-2.4555,2.893
6.921000,0.0899,-1.4935,-2.2691,2.718
6.922000,-0.0590,-1.4799,-2.1697,2.627
6.922000,-0.1724,-1.4239,-1.9873,2.451
6.922000,-0.2622,-1.3379,-1.9707,2.396
6.929000,-0.3133,-1.2289,-1.9881,2.358
6.932000,-0.3832,-1.0728,-2.0731,2.365
6.938000,-0.4000,-0.9957,-2.2068,2.454
6.943000,-0.3903,-0.9207,-2.4204,2.619
6.949000,-0.3575,-0.8253,-2.6139,2.764
6.953000,-0.2858,-0.7114,-2.6514,2.760
6.959000,-0.1212,-0.5905,-2.7247,2.791
6.963000,0.0541,-0.5027,-2.7479,2.794
6.967000,0.1271,-0.4408,-2.6902,2.729
6.973000,0.3438,-0.2132,-2.4751,2.508
6.977000,0.5412,0.0174,-2.2992,2.362
6.983000,0.5688,0.0905,-2.0211,2.102
6.987000,0.5012,0.1782,-1.7055,1.786
6.998000,0.4966,0.2421,-1.3760,1.483
7.000000,0.4192,0.3586,-1.1618,1.286
7.006000,0.3719,0.5010,-1.0148,1.191
7.007000,0.3026,0.6786,-0.7552,1.059
7.048000,0.2216,0.8150,-0.4886,0.976
7.049000,0.1389,0.8859,-0.2529,0.932
7.050000,0.0577,1.0467,-0.0766,1.051
7.050000,-0.0508,1.2182,0.0475,1.220
7.050000,-0.0863,1.3501,0.1389,1.360
7.050000,-0.1924,1.4283,0.1470,1.449
7.050000,-0.2303,1.4793,0.2179,1.513
7.051000,-0.1717,1.5701,0.2726,1.603
7.051000,-0.1004,1.6581,0.3179,1.691
7.059000,-0.0596,1.8197,0.3205,1.849
7.062000,-0.1230,1.9186,0.3209,1.949
7.067000,-0.2047,1.9959,0.3216,2.032
7.072000,-0.2834,2.0854,0.2025,2.114
7.078000,-0.3620,2.1757,0.0162,2.206
7.082000,-0.4529,2.2911,-0.2305,2.347
7.086000,-0.5637,2.3416,-0.5092,2.462
7.092000,-0.5731,2.3902,-0.6723,2.548
7.097000,-0.6176,2.4251,-0.6412,2.583
7.102000,-0.5968,2.4304,-0.5314,2.558
7.106000,-0.5443,2.4467,-0.3333,2.529
7.116000,-0.5201,2.4069,-0.0566,2.463
7.117000,-0.4519,2.3442,0.4184,2.424
7.122000,-0.3230,2.2822,0.9649,2.499
7.167000,-0.1786,2.2126,1.5310,2.697
7.169000,-0.0308,2.1922,2.1243,3.053
7.169000,0.0781,2.1506,2.6784,3.436
7.170000,0.1507,2.0964,3.0577,3.710
7.171000,0.3022,2.1295,3.5376,4.140
7.171000,0.4031,2.1869,3.9777,4.557
7.172000,0.5253,2.1791,4.3974,4.936
7.172000,0.6115,2.1416,4.7088,5.209
7.173000,0.7338,2.1575,4.8884,5.393
7.173000,0.8260,2.1858,4.9055,5.434
7.180000,0.9297,2.2075,4.7460,5.316
7.186000,1.0479,2.2636,4.4840,5.131
7.186000,1.0664,2.2638,4.1097,4.812
7.191000,1.0837,2.2309,3.7805,4.521
7.197000,1.1077,2.2516,3.4410,4.259
7.201000,1.1317,2.2049,3.2340,4.074
7.206000,1.1727,2.1749,3.1759,4.024
7.215000,1.2544,2.1625,3.1657,4.034
7.216000,1.3027,2.1108,3.1193,3.985
7.221000,1.1901,2.0176,3.1058,3.890
7.265000,0.9725,1.8379,3.2445,3.854
7.266000,0.7753,1.5809,3.4374,3.862
7.266000,0.6396,1.3468,3.7371,4.024
7.267000,0.6145,1.1300,4.1630,4.357
7.267000,0.6878,1.0082,4.4790,4.642
7.267000,0.7775,0.9161,4.6545,4.807
7.268000,0.8904,0.7050,4.6467,4.784
7.268000,0.9401,0.4462,4.4086,4.530
7.269000,1.0265,0.2022,4.0740,4.206
7.270000,1.1330,-0.0078,3.6047,3.779
7.276000,1.2863,-0.1522,3.2016,3.454
7.281000,1.3890,-0.2833,2.8475,3.181
7.286000,1.4756,-0.3942,2.4828,2.915
7.290000,1.5684,-0.5081,2.1504,2.710
7.295000,1.6252,-0.5607,1.9675,2.613
7.300000,1.6806,-0.6188,1.7235,2.486
7.305000,1.7400,-0.6777,1.4090,2.339
7.310000,1.7226,-0.8140,1.0124,2.157
7.315000,1.7311,-0.8955,0.5740,2.032
7.320000,1.7800,-0.9894,0.2327,2.050
7.331000,1.8189,-1.0520,-0.1483,2.106
7.332000,1.8955,-1.1094,-0.6052,2.278
7.335000,1.8874,-1.1949,-1.0304,2.460
7.340000,1.9017,-1.2359,-1.5202,2.730
7.375000,1.9088,-1.2802,-2.0629,3.088
7.377000,1.8647,-1.3172,-2.6759,3.517
7.377000,1.8331,-1.4466,-3.2405,3.994
7.377000,1.7752,-1.5556,-3.6591,4.354
7.378000,1.6284,-1.6624,-4.0618,4.681
7.379000,1.4999,-1.7622,-4.2838,4.869
7.379000,1.4062,-1.8428,-4.4117,4.984
7.381000,1.3207,-1.9283,-4.4265,5.006
7.384000,1.2340,-2.0957,-4.3279,4.964
7.389000,1.1918,-2.2088,-4.0871,4.796
7.395000,1.1302,-2.3666,-3.7991,4.616
7.399000,1.1092,-2.5221,-3.4825,4.441
7.404000,1.1078,-2.6306,-3.1890,4.280
7.410000,1.0833,-2.7574,-2.8631,4.120
7.414000,1.1110,-2.8725,-2.5709,4.012
7.419000,1.1431,-2.9261,-2.3907,3.948
7.431000,1.1944,-2.9980,-2.2572,3.938
7.432000,1.2394,-3.0767,-2.2081,3.985
7.434000,1.2904,-3.0810,-2.2433,4.024
7.439000,1.2883,-3.1690,-2.2786,4.110
7.475000,1.1598,-3.1777,-2.3574,4.123
7.477000,0.9651,-3.1646,-2.4293,4.105
7.477000,0.7976,-3.1606,-2.4131,4.056
7.477000,0.7713,-3.1156,-2.3712,3.991
7.478000,0.7996,-3.1109,-2.3706,3.992
7.478000,0.8081,-3.0940,-2.2532,3.912
7.479000,0.7916,-3.0936,-2.2657,3.915
7.479000,0.7928,-3.0879,-2.4797,4.039
7.484000,0.7699,-3.0791,-2.7568,4.204
7.488000,0.6503,-3.0352,-2.9109,4.255
7.495000,0.5776,-3.0207,-3.0022,4.298
7.503000,0.5037,-2.9803,-3.0980,4.328
7.504000,0.3997,-2.8513,-3.1389,4.259
7.509000,0.2708,-2.7439,-3.0388,4.103
7.513000,0.0212,-2.5764,-2.9584,3.923
7.519000,-0.1199,-2.4517,-2.9432,3.832
7.523000,-0.1314,-2.3148,-2.9669,3.765
7.528000,-0.0090,-2.1532,-2.9676,3.666
7.533000,0.2161,-2.0315,-2.8904,3.539
7.538000,0.4631,-1.8368,-2.8505,3.422
7.549000,0.6995,-1.6790,-2.7164,3.269
7.551000,0.7586,-1.5605,-2.4641,3.014
7.553000,0.8019,-1.3710,-2.0510,2.594
7.559000,0.8249,-1.1422,-1.6177,2.145
7.563000,0.8279,-0.9391,-1.2191,1.747
7.568000,0.9308,-0.7450,-0.8476,1.463
7.572000,1.0589,-0.5054,-0.4385,1.253
7.588000,1.2576,-0.3856,-0.1804,1.328
7.589000,1.3021,-0.2374,0.1612,1.333
7.589000,1.3457,-0.0488,0.4359,1.415
7.597000,1.3044,0.1130,0.6746,1.473
7.598000,1.2763,0.2956,0.8921,1.585
7.603000,1.1488,0.4729,1.0882,1.651
7.611000,1.0197,0.6374,1.2248,1.717
7.612000,0.9032,0.7987,1.2758,1.755
7.619000,0.8275,1.0407,1.2961,1.857
7.623000,0.7831,1.2749,1.2018,1.919
7.627000,0.6794,1.4637,0.9927,1.895
7.633000,0.5357,1.6243,0.7330,1.861
7.638000,0.2587,1.7122,0.5799,1.826
7.643000,-0.1323,1.7950,0.5471,1.881
7.648000,-0.5296,1.8994,0.5338,2.043
7.653000,-0.9434,2.0564,0.5827,2.336
7.669000,-1.3936,2.1491,0.6648,2.646
7.672000,-1.8109,2.2875,1.0432,3.098
7.674000,-2.1667,2.3805,1.3590,3.494
7.676000,-2.4490,2.4376,1.6912,3.847
7.677000,-2.6514,2.5351,2.0376,4.196
7.720000,-2.7648,2.4982,2.3267,4.393
7.723000,-2.7422,2.3913,2.6257,4.487
7.724000,-2.5632,2.2117,2.8151,4.403
7.725000,-2.2639,2.1272,3.0051,4.322
7.725000,-1.8753,2.0945,3.2340,4.285
7.726000,-1.3658,2.0844,3.4590,4.263
7.726000,-0.8790,2.0206,3.7855,4.380
7.727000,-0.5289,1.9713,4.1712,4.644
7.727000,-0.2215,1.9219,4.5183,4.915
7.728000,-0.0344,1.8525,4.8326,5.176
7.734000,0.0459,1.7408,5.1578,5.444
7.737000,-0.0206,1.6629,5.3531,5.605
7.746000,-0.2207,1.5414,5.4339,5.653
7.747000,-0.4823,1.4265,5.4409,5.645
7.751000,-0.7524,1.3680,5.3243,5.548
7.758000,-1.0093,1.3010,5.0366,5.299
7.763000,-1.2677,1.2401,4.6495,4.976
7.767000,-1.4563,1.1857,4.0361,4.452
7.772000,-1.6643,1.1026,3.3249,3.878
7.777000,-1.8950,0.9682,2.6230,3.378
7.781000,-2.0557,0.8671,1.9413,2.957
7.786000,-2.0279,0.7835,1.4082,2.590
7.832000,-1.9631,0.7251,0.9823,2.312
7.833000,-1.7852,0.6831,0.6630,2.023
7.834000,-1.6046,0.5643,0.5287,1.781
7.834000,-1.4043,0.4170,0.5169,1.553
7.835000,-1.1292,0.3010,0.5461,1.290
7.835000,-0.8418,0.2111,0.6334,1.074
7.835000,-0.6134,0.1157,0.8054,1.019
7.835000,-0.4387,0.0600,1.0240,1.116
7.836000,-0.3030,-0.0619,1.1294,1.171
7.836000,-0.2604,-0.2790,1.2011,1.260
7.842000,-0.2221,-0.3763,1.3588,1.427
7.846000,-0.1712,-0.4859,1.4667,1.555
7.851000,-0.1885,-0.6030,1.5318,1.657
7.857000,-0.2740,-0.7210,1.5858,1.763
7.862000,-0.3866,-0.8234,1.6097,1.849
7.866000,-0.5428,-0.9725,1.6683,2.006
7.870000,-0.6995,-1.1184,1.6566,2.118
7.881000,-0.8183,-1.2420,1.6080,2.190
7.883000,-0.8563,-1.2620,1.5012,2.140
7.886000,-0.9168,-1.3436,1.3434,2.110
7.927000,-1.0766,-1.5060,1.1276,2.168
7.928000,-1.1853,-1.5937,0.8156,2.147
7.929000,-1.2765,-1.6377,0.5748,2.154
7.929000,-1.3336,-1.6546,0.2924,2.145
7.930000,-1.2970,-1.6489,-0.0793,2.099
7.930000,-1.2721,-1.7091,-0.4903,2.186
7.930000,-1.2952,-1.8082,-1.0459,2.458
7.931000,-1.3062,-1.8716,-1.6461,2.814
7.931000,-1.2983,-1.9270,-2.2008,3.200
7.935000,-1.2956,-1.9952,-2.7510,3.637
7.941000,-1.2578,-1.9943,-3.3596,4.104
7.945000,-1.1760,-2.0313,-3.7974,4.464
7.951000,-1.1725,-2.1394,-4.1726,4.833
7.955000,-1.1825,-2.2199,-4.4592,5.120
7.960000,-1.1700,-2.3108,-4.6385,5.313
7.966000,-1.1116,-2.3544,-4.7420,5.410
7.970000,-1.0694,-2.4252,-4.8172,5.498
7.979000,-1.0441,-2.5185,-4.7518,5.478
7.982000,-0.9978,-2.5847,-4.6506,5.413
7.984000,-0.9259,-2.6219,-4.4989,5.289
8.013000,-0.8830,-2.6567,-4.3539,5.176
8.014000,-0.8091,-2.6589,-4.2125,5.047
8.015000,-0.7185,-2.6669,-3.9646,4.832
8.016000,-0.5676,-2.6220,-3.7361,4.600
8.017000,-0.3946,-2.5891,-3.4862,4.360
8.017000,-0.2710,-2.5522,-3.3937,4.255
8.019000,-0.0815,-2.5355,-3.2788,4.146
8.025000,0.0763,-2.4580,-3.1819,4.021
8.029000,0.1747,-2.3558,-3.0264,3.839
8.034000,0.2820,-2.2174,-2.7931,3.577
8.040000,0.4081,-2.0738,-2.5489,3.311
8.044000,0.5372,-1.9760,-2.4298,3.178
8.050000,0.6097,-1.8356,-2.3137,3.016
8.056000,0.7026,-1.6765,-2.3057,2.936
8.061000,0.7039,-1.5827,-2.3219,2.897
8.065000,0.6566,-1.4554,-2.3413,2.834
8.069000,0.5823,-1.3233,-2.4046,2.806
8.077000,0.5379,-1.1738,-2.4022,2.727
8.080000,0.5943,-0.9923,-2.4085,2.672
8.085000,0.6170,-0.8073,-2.2705,2.487
8.089000,0.5814,-0.6403,-2.1727,2.338
8.095000,0.5543,-0.4624,-2.0624,2.185
8.099000,0.5213,-0.2424,-1.9805,2.062
8.103000,0.5039,-0.0973,-1.9366,2.003
8.115000,0.3581,0.0375,-1.8517,1.886
8.116000,0.1390,0.1626,-1.6545,1.668
8.120000,-0.1456,0.3688,-1.3858,1.441
8.160000,-0.4481,0.5319,-1.0912,1.294
8.162000,-0.7113,0.7142,-0.7446,1.253
8.162000,-0.8765,0.8292,-0.4532,1.289
8.162000,-0.8424,1.0059,-0.3246,1.352
8.163000,-0.7761,1.1146,-0.1646,1.368
8.163000,-0.6904,1.1337,0.0125,1.327
8.163000,-0.5760,1.1684,0.1711,1.314
8.164000,-0.4342,1.2641,0.2464,1.359
8.164000,-0.2117,1.4424,0.2720,1.483
8.169000,-0.0652,1.5909,0.1691,1.601
8.177000,-0.0056,1.7340,0.0403,1.735
8.179000,-0.0511,1.8721,-0.1361,1.878
8.183000,-0.1793,1.9963,-0.3127,2.029
8.190000,-0.4115,2.1163,-0.3819,2.190
8.194000,-0.5987,2.1900,-0.3039,2.291
8.199000,-0.6263,2.3179,-0.1053,2.403
8.206000,-0.5399,2.3997,0.1972,2.468
8.210000,-0.4647,2.4113,0.4286,2.493
8.217000,-0.4343,2.3504,0.6611,2.480
8.217000,-0.3537,2.4009,0.9354,2.601
8.223000,-0.2096,2.5241,1.1967,2.801
8.240000,-0.1047,2.5978,1.5287,3.016
8.243000,-0.2229,2.6102,1.8597,3.213
8.244000,-0.2479,2.6450,2.2614,3.489
8.244000,-0.2728,2.6111,2.5928,3.690
8.248000,-0.4055,2.6780,2.7632,3.869
8.252000,-0.5628,2.6498,2.8016,3.897
8.260000,-0.6376,2.5505,2.8013,3.842
8.264000,-0.7530,2.4377,2.9248,3.881
8.268000,-0.7754,2.3282,3.0572,3.920
8.273000,-0.5859,2.3530,3.2921,4.089
8.279000,-0.3596,2.4088,3.6272,4.369
8.282000,-0.1008,2.4205,3.9268,4.614
8.287000,0.0567,2.4402,4.1291,4.797
8.302000,0.1788,2.4078,4.1651,4.814
8.303000,0.2861,2.3351,4.1572,4.777
8.304000,0.3201,2.3322,4.0479,4.683
8.331000,0.2608,2.3251,3.9997,4.634
8.333000,0.1832,2.3091,3.9958,4.619
8.333000,0.2438,2.3873,4.0623,4.718
8.333000,0.4140,2.3706,4.0890,4.745
8.334000,0.6344,2.3404,4.0735,4.741
8.335000,0.9030,2.3426,4.0229,4.742
8.337000,1.0834,2.2816,3.8581,4.611
8.343000,1.2682,2.2036,3.7343,4.518
8.347000,1.4738,2.1784,3.6344,4.486
8.352000,1.5301,2.0628,3.5391,4.373
8.356000,1.4793,1.9820,3.3737,4.183
8.362000,1.3400,1.8144,3.2339,3.943
8.366000,1.1633,1.6418,3.1311,3.722
8.371000,0.9333,1.4882,3.1611,3.616
8.376000,0.6609,1.2791,3.2640,3.567
8.382000,0.3561,1.0719,3.3179,3.505
8.386000,0.1087,0.8373,3.4691,3.570
8.392000,0.0019,0.5650,3.6200,3.664
8.396000,0.0352,0.2762,3.7804,3.791
8.402000,0.1108,0.0348,3.9268,3.929
8.407000,0.2585,-0.1580,4.1054,4.117
8.413000,0.4150,-0.2911,4.2427,4.273
8.416000,0.5842,-0.4248,4.2265,4.288
8.421000,0.7822,-0.5594,4.0478,4.160
8.426000,0.8805,-0.8029,3.8169,3.999
8.443000,1.0210,-1.0044,3.4980,3.780
8.443000,1.1446,-1.0825,2.9980,3.387
8.444000,1.3039,-1.1546,2.5417,3.081
8.446000,1.3505,-1.2271,1.9638,2.681
8.451000,1.3421,-1.3503,1.3529,2.336
8.457000,1.3094,-1.4374,0.7349,2.079
8.472000,1.2050,-1.5233,0.0948,1.945
8.472000,1.0884,-1.6315,-0.5484,2.036
8.473000,0.9827,-1.7014,-1.1642,2.284
8.481000,0.9767,-1.7015,-1.6885,2.588
8.482000,0.8710,-1.7770,-2.2582,3.003
8.486000,0.7368,-1.8556,-2.7398,3.390
8.493000,0.6915,-1.9823,-3.1407,3.778
8.495000,0.6509,-2.0251,-3.5332,4.124
8.501000,0.5813,-2.0604,-3.8697,4.422
8.505000,0.5184,-2.1525,-4.1506,4.704
8.511000,0.3688,-2.2556,-4.3498,4.914
8.518000,0.2236,-2.3960,-4.5415,5.140
8.520000,0.1705,-2.4995,-4.6758,5.305
8.549000,0.2667,-2.5899,-4.7862,5.449
8.550000,0.2798,-2.6939,-4.8414,5.547
8.550000,0.3248,-2.7852,-4.8366,5.591
8.550000,0.4017,-2.8784,-4.7096,5.534
8.551000,0.4727,-2.9641,-4.5633,5.462
8.551000,0.6121,-2.9926,-4.4188,5.372
8.555000,0.7410,-3.0816,-4.3260,5.363
8.560000,0.7993,-3.1715,-4.1984,5.322
8.565000,0.8707,-3.2220,-4.1028,5.289
8.570000,0.8812,-3.2743,-3.9049,5.172
8.574000,0.9032,-3.2978,-3.6570,5.006
8.580000,0.8823,-3.2736,-3.4356,4.827
8.584000,0.8074,-3.2406,-3.2306,4.647
8.590000,0.7199,-3.1751,-2.9439,4.389
8.595000,0.6321,-3.1277,-2.8048,4.248
8.599000,0.6012,-3.1036,-2.7076,4.162
8.605000,0.5555,-3.0670,-2.6714,4.105
8.610000,0.4734,-3.0418,-2.6842,4.084
8.614000,0.3858,-2.9799,-2.6480,4.005
8.620000,0.2595,-2.8929,-2.6994,3.965
8.629000,0.1180,-2.7806,-2.7310,3.899
8.630000,-0.0270,-2.6836,-2.6592,3.778
8.634000,-0.1169,-2.6017,-2.5894,3.672
8.639000,-0.1495,-2.4704,-2.5238,3.535
8.662000,-0.1087,-2.3208,-2.4076,3.346
8.663000,0.0435,-2.1670,-2.3965,3.231
8.664000,0.1853,-1.9803,-2.4974,3.193
8.664000,0.2877,-1.7963,-2.5216,3.109
8.665000,0.3746,-1.7029,-2.6036,3.134
8.669000,0.4814,-1.6014,-2.5929,3.085
8.674000,0.6244,-1.5108,-2.5066,2.993
8.679000,0.7821,-1.3762,-2.3998,2.875
8.684000,0.8465,-1.2170,-2.1693,2.627
8.689000,0.8131,-1.0550,-1.7865,2.228
8.695000,0.6993,-0.9026,-1.4737,1.864
8.699000,0.6447,-0.7482,-1.1395,1.508
8.705000,0.6351,-0.5635,-0.8914,1.231
8.709000,0.6711,-0.4060,-0.7125,1.060
8.714000,0.7960,-0.1778,-0.5594,0.989
8.720000,0.8335,0.0086,-0.3699,0.912
8.733000,0.8557,0.1771,-0.1562,0.888
8.734000,0.9277,0.3685,0.1106,1.004
8.735000,1.0736,0.5777,0.3203,1.261
8.741000,1.1594,0.7643,0.3559,1.434
8.786000,1.2307,0.9403,0.3824,1.595
8.786000,1.2562,1.0656,0.3182,1.678
8.787000,1.2763,1.1958,0.1846,1.759
8.787000,1.3216,1.3529,0.0408,1.892
8.787000,1.4301,1.5255,0.0636,2.092
8.787000,1.5159,1.6974,0.0922,2.278
8.788000,1.5502,1.8715,0.2072,2.439
8.788000,1.5500,2.0194,0.4515,2.585
8.788000,1.5029,2.1197,0.6311,2.674
8.789000,1.4344,2.1415,0.8849,2.725
8.795000,1.2456,2.1711,1.2388,2.793
8.798000,1.0391,2.1578,1.7099,2.943
8.803000,0.8147,2.1779,2.2337,3.224
8.808000,0.5554,2.1901,2.7198,3.536
8.813000,0.3115,2.1482,3.2787,3.932
8.818000,0.0545,2.1214,3.7744,4.330
8.822000,-0.2390,2.1160,4.2600,4.763
8.828000,-0.4684,2.0695,4.7097,5.166
8.834000,-0.6501,2.0456,5.0019,5.443
8.838000,-0.7311,2.0345,5.2401,5.669
8.843000,-0.7475,2.0218,5.3645,5.781
8.848000,-0.6775,2.0001,5.3777,5.777
8.854000,-0.5353,1.9935,5.4185,5.798
8.877000,-0.3852,2.0065,5.4511,5.821
8.878000,-0.2414,2.0250,5.4371,5.807
8.878000,-0.2088,2.0510,5.5058,5.879
8.879000,-0.2509,1.9743,5.5881,5.932
8.879000,-0.4175,1.9024,5.6100,5.938
8.882000,-0.6843,1.8087,5.4091,5.744
8.887000,-0.9778,1.6574,5.1316,5.481
8.892000,-1.2359,1.5467,4.8014,5.194
8.898000,-1.5052,1.4484,4.1959,4.687
8.903000,-1.8008,1.2960,3.5015,4.145
8.908000,-2.0592,1.1383,2.8061,3.662
8.913000,-2.2481,1.0527,2.1282,3.270
8.917000,-2.3419,0.9443,1.5030,2.939
8.922000,-2.4183,0.8257,0.9993,2.744
8.927000,-2.3649,0.7213,0.6045,2.545
8.932000,-2.2031,0.5791,0.2679,2.294
8.937000,-2.0140,0.4763,0.0008,2.070
8.943000,-1.7206,0.3388,-0.1251,1.758
8.947000,-1.3894,0.1860,-0.0384,1.402
8.951000,-1.0960,0.0221,0.1774,1.110
8.981000,-0.7822,-0.1222,0.5631,0.972
8.981000,-0.6358,-0.2673,1.1363,1.329
8.982000,-0.5722,-0.3997,1.7228,1.859
8.983000,-0.5574,-0.4896,2.2206,2.341
8.983000,-0.5548,-0.5667,2.6020,2.720
8.983000,-0.5624,-0.6869,2.8652,3.000
8.986000,-0.5559,-0.8220,2.9487,3.111
8.991000,-0.6239,-0.9627,3.0012,3.213
8.997000,-0.7142,-1.0998,2.8602,3.146
9.001000,-0.8245,-1.1495,2.5236,2.893
9.006000,-0.9793,-1.1953,2.1348,2.635
9.011000,-1.2215,-1.2174,1.7342,2.446
9.017000,-1.3598,-1.2730,1.2904,2.266
9.021000,-1.5358,-1.2968,0.7935,2.161
9.027000,-1.6876,-1.3528,0.3292,2.188
9.032000,-1.7678,-1.4218,-0.1527,2.274
9.036000,-1.7721,-1.4937,-0.5284,2.377
9.042000,-1.7463,-1.5659,-0.8721,2.502
9.046000,-1.6976,-1.6120,-1.2893,2.673
9.051000,-1.6522,-1.6746,-1.6941,2.899
9.057000,-1.6434,-1.7874,-2.1509,3.244
9.068000,-1.5659,-1.8157,-2.7319,3.635
9.069000,-1.4817,-1.7972,-3.2629,4.009
9.072000,-1.5120,-1.7506,-3.7253,4.385
9.118000,-1.6822,-1.7631,-4.1344,4.799
9.119000,-1.8942,-1.8464,-4.4235,5.154
9.120000,-1.9782,-1.8492,-4.5933,5.332
9.120000,-2.0399,-1.8240,-4.6441,5.390
9.121000,-2.1160,-1.8547,-4.5735,5.370
9.124000,-2.2121,-1.9608,-4.3981,5.299
9.124000,-2.1207,-2.0898,-4.1921,5.142
9.125000,-1.9697,-2.1466,-3.9859,4.937
9.126000,-1.7526,-2.2207,-3.7409,4.690
9.126000,-1.4961,-2.2644,-3.5667,4.482
9.126000,-1.2909,-2.3549,-3.4892,4.403
9.130000,-1.0579,-2.4063,-3.3501,4.258
9.135000,-0.7939,-2.4480,-3.0535,3.993
9.140000,-0.5409,-2.4616,-2.7829,3.755
9.145000,-0.3293,-2.4186,-2.6411,3.596
9.150000,-0.1250,-2.3936,-2.5153,3.474
9.157000,0.0698,-2.3986,-2.4148,3.404
9.161000,0.3914,-2.4103,-2.4277,3.443
9.165000,0.6126,-2.3688,-2.4703,3.477
9.170000,0.7722,-2.3723,-2.4301,3.483
9.211000,0.8615,-2.3134,-2.3477,3.407
9.212000,0.8764,-2.2374,-2.2734,3.308
9.212000,0.8271,-2.1373,-2.1020,3.110
9.213000,0.7476,-2.0302,-1.9865,2.937
9.213000,0.7264,-1.9137,-1.9625,2.836
9.213000,0.7660,-1.7325,-1.9442,2.714
9.213000,0.8355,-1.6061,-2.0297,2.720
9.214000,0.8914,-1.4911,-2.1687,2.779
9.219000,0.9614,-1.3322,-2.3832,2.895
9.220000,0.9041,-1.1791,-2.5489,2.950
9.225000,0.8458,-0.9737,-2.8051,3.087
9.230000,0.6951,-0.7895,-2.9490,3.131
9.235000,0.5424,-0.6280,-3.0267,3.138
9.240000,0.4132,-0.4315,-3.0053,3.064
9.245000,0.2787,-0.2455,-2.8702,2.894
9.249000,0.1811,0.0161,-2.6578,2.664
9.255000,0.0418,0.1735,-2.3606,2.367
9.260000,-0.1436,0.3489,-2.0720,2.106
9.264000,-0.2914,0.5254,-1.8421,1.938
9.269000,-0.3781,0.6573,-1.5966,1.768
9.280000,-0.4781,0.8140,-1.3140,1.618
9.281000,-0.5057,0.9233,-1.0321,1.474
9.284000,-0.5880,1.0061,-0.6454,1.332
9.289000,-0.6315,1.1316,-0.2399,1.318
9.319000,-0.6023,1.2704,0.0892,1.409
9.320000,-0.5549,1.4411,0.2634,1.567
9.321000,-0.5320,1.5887,0.4122,1.725
9.321000,-0.4974,1.6795,0.5645,1.840
9.321000,-0.4243,1.7709,0.5911,1.915
9.321000,-0.3101,1.8798,0.6092,2.000
9.329000,-0.1229,2.0185,0.4895,2.081
9.330000,-0.0014,2.1802,0.3203,2.204
9.334000,0.0307,2.2720,0.0872,2.274
9.339000,0.0453,2.3401,-0.0670,2.342
9.345000,0.0784,2.4399,-0.1378,2.445
9.349000,0.1277,2.5957,-0.2260,2.609
9.355000,-0.0178,2.6833,-0.3152,2.702
9.359000,-0.3126,2.8084,-0.3051,2.842
9.364000,-0.5821,2.8665,-0.2921,2.940
9.368000,-0.7694,2.9273,-0.1904,3.033
9.374000,-0.8945,2.9552,0.0833,3.089
9.379000,-0.9556,2.9503,0.3831,3.125
9.383000,-0.9772,2.9125,0.7830,3.170
9.388000,-0.9842,2.8509,1.2355,3.259
9.395000,-0.9534,2.8513,1.7048,3.456
9.398000,-0.8613,2.7912,2.1699,3.639
9.403000,-0.7177,2.7084,2.5833,3.811
9.446000,-0.5032,2.7294,3.1869,4.226
9.447000,-0.3322,2.7934,3.7299,4.672
9.448000,-0.1756,2.8282,4.1985,5.065
9.449000,-0.1142,2.7351,4.6028,5.355
9.449000,-0.1039,2.6546,4.9244,5.595
9.450000,-0.0487,2.6226,5.1226,5.755
9.450000,0.0305,2.6026,5.2172,5.830
9.450000,0.0621,2.5420,5.2895,5.869
9.451000,0.1566,2.5246,5.2822,5.857
9.453000,0.3288,2.5050,5.2311,5.809
9.458000,0.4568,2.4570,5.1219,5.699
9.463000,0.5198,2.4288,4.9017,5.495
9.468000,0.5059,2.3540,4.6207,5.210
9.473000,0.5249,2.2113,4.2928,4.857
9.478000,0.5594,2.0351,3.9798,4.505
9.483000,0.5344,1.8759,3.7079,4.190
9.488000,0.5191,1.7030,3.4025,3.840
9.494000,0.5129,1.4904,3.3098,3.666
9.499000,0.4315,1.2690,3.3747,3.631
9.502000,0.3851,1.1367,3.3842,3.591
9.538000,0.2990,0.9161,3.4057,3.539
9.539000,0.2641,0.6427,3.5614,3.629
9.539000,0.2733,0.4598,3.6457,3.685
9.540000,0.3718,0.2948,3.5851,3.616
9.540000,0.5072,0.1595,3.5090,3.549
9.540000,0.6319,-0.0445,3.3363,3.396
9.540000,0.8039,-0.2457,3.2516,3.358
9.542000,0.9996,-0.4275,3.0301,3.219
9.547000,1.1236,-0.5521,2.7033,2.979
9.552000,1.2126,-0.6384,2.3621,2.731
9.558000,1.2598,-0.8301,1.9899,2.497
9.562000,1.2921,-0.9689,1.5721,2.254
9.567000,1.3074,-1.0567,1.1610,2.043
9.572000,1.4207,-1.1441,0.7209,1.961
9.578000,1.5052,-1.2327,0.1987,1.956
9.582000,1.5420,-1.3317,-0.3101,2.061
9.587000,1.4882,-1.4476,-0.9231,2.272
9.596000,1.4362,-1.5295,-1.5212,2.592
9.597000,1.4314,-1.5174,-1.9827,2.878
9.602000,1.4355,-1.5419,-2.3012,3.120
9.643000,1.3598,-1.6081,-2.6539,3.388
9.644000,1.2185,-1.7226,-2.9619,3.637
9.645000,1.1238,-1.7920,-3.1562,3.799
9.645000,0.9458,-1.9360,-3.4258,4.047
9.646000,0.8179,-2.0273,-3.6657,4.268
9.646000,0.7543,-2.0109,-3.8330,4.394
9.647000,0.6211,-2.0684,-4.2198,4.740
9.647000,0.5155,-2.1657,-4.4650,4.989
9.649000,0.3969,-2.2764,-4.5811,5.131
9.651000,0.2723,-2.3311,-4.6590,5.217
9.658000,0.2110,-2.3946,-4.5456,5.142
9.661000,0.1631,-2.4050,-4.3222,4.949
9.666000,0.1314,-2.4728,-4.1319,4.817
9.672000,0.1017,-2.5314,-3.9173,4.665
9.677000,0.0933,-2.6167,-3.7019,4.534
9.682000,0.1775,-2.7103,-3.5404,4.462
9.686000,0.2515,-2.7598,-3.2865,4.299
9.691000,0.3488,-2.7969,-2.9064,4.049
9.696000,0.4414,-2.8147,-2.6178,3.869
9.701000,0.4722,-2.8256,-2.3388,3.698
9.707000,0.4723,-2.8422,-2.0115,3.514
9.711000,0.4921,-2.7980,-1.6358,3.278
9.716000,0.4120,-2.7917,-1.2875,3.102
9.722000,0.3085,-2.8143,-1.0525,3.020
9.762000,0.2551,-2.7606,-0.9640,2.935
9.763000,0.2205,-2.7170,-0.6869,2.811
9.764000,0.1278,-2.7290,-0.4843,2.775
9.764000,0.1198,-2.7369,-0.5451,2.793
9.765000,0.1390,-2.6762,-0.4168,2.712
9.765000,0.1947,-2.5683,-0.5303,2.630
9.765000,0.4837,-2.4557,-0.9407,2.674
9.766000,0.7095,-2.4004,-1.3275,2.833
9.767000,0.7747,-2.3059,-1.1244,2.680
9.771000,0.6875,-2.1962,-1.3626,2.674
9.776000,0.5868,-2.1212,-1.7527,2.814
9.780000,0.4578,-2.0350,-2.1227,2.976
9.785000,0.4442,-1.9017,-2.4366,3.123
9.792000,0.5073,-1.7112,-2.4200,3.007
9.795000,0.6408,-1.5565,-2.4610,2.982
9.801000,0.6823,-1.4473,-2.7554,3.186
9.805000,0.5551,-1.2656,-3.1791,3.467
9.810000,0.4789,-1.1138,-3.5509,3.752
9.816000,0.4343,-0.9528,-3.5725,3.723
9.820000,0.3999,-0.7777,-3.4834,3.592
9.834000,0.1575,-0.6866,-3.4012,3.473
9.836000,0.0583,-0.6122,-3.2447,3.302
9.837000,0.0587,-0.4113,-2.9968,3.025
9.887000,0.1034,-0.2328,-2.6385,2.651
9.888000,0.0612,-0.0456,-2.3848,2.386
9.889000,-0.0559,0.1190,-2.1065,2.111
9.889000,-0.1112,0.2683,-1.7031,1.728
9.890000,-0.0472,0.4521,-1.3013,1.378
9.890000,0.0690,0.5648,-0.8409,1.015
9.891000,0.2781,0.7015,-0.5630,0.941
9.891000,0.4535,0.9005,-0.2258,1.033
9.892000,0.5548,1.0204,0.0366,1.162
9.892000,0.6328,1.1596,0.2602,1.346
9.892000,0.6785,1.3182,0.3876,1.532
9.895000,0.7086,1.5059,0.4641,1.728
9.900000,0.7468,1.6681,0.5564,1.910
9.904000,0.7572,1.7570,0.7792,2.066
9.910000,0.7805,1.8329,1.1393,2.295
9.915000,0.7811,1.9076,1.3280,2.452
9.919000,0.8112,1.9527,1.3862,2.528
9.931000,0.8270,2.0357,1.4307,2.622
9.932000,0.7849,2.0632,1.5118,2.676
9.935000,0.6626,2.1074,1.7152,2.797
9.978000,0.4962,2.1417,2.0746,3.023
9.979000,0.3599,2.1800,2.4705,3.314
9.979000,0.2159,2.1913,2.9149,3.653
9.980000,0.1094,2.1724,3.0879,3.777
9.980000,-0.0028,2.1353,3.3797,3.998
9.980000,0.0086,2.0771,3.6685,4.216
9.981000,0.1420,2.0741,3.9546,4.468
9.981000,0.3095,2.0763,4.2259,4.719
9.983000,0.4078,2.1042,4.3969,4.892
9.984000,0.3917,2.0952,4.7026,5.163
9.989000,0.3819,2.0541,4.9897,5.409
9.994000,0.4288,2.0282,5.1845,5.584
9.999000,0.2885,1.9289,5.2944,5.642
10.004000,0.0301,1.8276,5.3938,5.695
10.009000,-0.2215,1.7024,5.4066,5.673
10.014000,-0.5141,1.6801,5.3232,5.606
10.018000,-0.7618,1.6982,5.1679,5.493
10.025000,-0.9455,1.6659,4.8402,5.205
10.029000,-1.0725,1.6387,4.4427,4.855
10.033000,-1.1652,1.6026,4.1259,4.577
10.039000,-1.2254,1.5510,3.9013,4.374
10.047000,-1.2242,1.4893,3.4935,3.990
10.049000,-1.2678,1.3939,2.9979,3.541
10.054000,-1.3476,1.2535,2.6798,3.251
10.099000,-1.3352,1.1642,2.4165,2.996
10.100000,-1.2763,1.0572,2.1622,2.724
10.100000,-1.2190,0.9469,2.0697,2.582
10.100000,-1.2526,0.8427,2.1247,2.606
10.100000,-1.3720,0.6970,2.1811,2.669
10.101000,-1.4962,0.5188,2.2343,2.739
10.101000,-1.5488,0.3631,2.3011,2.797
10.102000,-1.6209,0.2486,2.5540,3.035
10.102000,-1.5588,0.1553,2.9121,3.307
10.104000,-1.4169,0.0732,3.1531,3.458
10.110000,-1.3096,-0.1469,3.3257,3.577
10.113000,-1.2508,-0.2806,3.4041,3.637
10.118000,-1.1393,-0.3855,3.3096,3.521
10.123000,-1.0486,-0.4951,3.0305,3.245
10.128000,-1.0384,-0.6308,2.7701,3.025
10.133000,-1.0152,-0.7565,2.6455,2.933
10.137000,-1.0653,-0.8316,2.4127,2.765
10.145000,-1.1381,-0.9135,2.0884,2.548
10.148000,-1.2101,-1.0280,1.6820,2.313
10.153000,-1.2554,-1.0481,1.1791,2.016
10.193000,-1.2750,-1.1075,0.6801,1.821
10.194000,-1.3172,-1.1364,0.3016,1.766
10.194000,-1.3869,-1.2659,-0.0715,1.879
10.195000,-1.4336,-1.4336,-0.4489,2.077
10.195000,-1.4267,-1.4623,-0.8091,2.197
10.196000,-1.3899,-1.4596,-1.2696,2.382
10.196000,-1.3232,-1.4897,-1.6462,2.585
10.197000,-1.3214,-1.5860,-1.8796,2.792
10.198000,-1.3847,-1.7479,-2.2306,3.154
10.202000,-1.3237,-1.8511,-2.6824,3.518
10.207000,-1.2727,-1.8854,-3.1541,3.889
10.215000,-1.2842,-1.9799,-3.5741,4.283
10.221000,-1.2884,-2.0096,-3.9643,4.627
10.223000,-1.2590,-2.0652,-4.0810,4.744
10.227000,-1.1911,-2.1372,-4.0345,4.718
10.232000,-1.1706,-2.2117,-4.1642,4.858
10.237000,-1.2338,-2.2937,-3.9820,4.758
10.252000,-1.2540,-2.3789,-3.7174,4.588
10.253000,-1.2002,-2.5086,-3.5828,4.535
10.255000,-1.0823,-2.5398,-3.4559,4.423
10.307000,-0.9100,-2.5614,-3.2979,4.274
10.307000,-0.7961,-2.6027,-3.0441,4.083
10.308000,-0.6592,-2.5783,-2.7896,3.855
10.308000,-0.4942,-2.6417,-2.6802,3.796
10.309000,-0.3587,-2.7093,-2.7226,3.858
10.309000,-0.2574,-2.7672,-2.6269,3.824
10.309000,-0.1588,-2.7105,-2.6370,3.785
10.310000,-0.0645,-2.5774,-2.5975,3.660
10.310000,-0.0050,-2.5188,-2.5896,3.613
10.310000,0.0636,-2.4864,-2.7569,3.713
10.311000,0.1230,-2.4104,-2.8318,3.721
10.311000,0.0939,-2.3508,-2.8477,3.694
10.318000,0.0986,-2.2807,-3.2688,3.987
10.322000,0.0718,-2.1922,-3.7917,4.380
10.326000,0.0421,-2.1299,-3.9147,4.457
10.332000,0.0334,-2.0523,-3.9784,4.477
10.337000,0.0449,-1.8832,-3.9731,4.397
10.342000,0.0039,-1.7277,-3.9183,4.282
10.347000,-0.0803,-1.5115,-3.8237,4.112
10.351000,-0.1575,-1.2755,-3.6080,3.830
10.357000,-0.2308,-1.0625,-3.2691,3.445
10.361000,-0.2762,-0.8223,-3.0869,3.206
10.366000,-0.3682,-0.6435,-2.7624,2.860
10.372000,-0.4688,-0.4947,-2.8912,2.970
10.408000,-0.6835,-0.3253,-2.9112,3.008
10.409000,-0.8836,-0.1782,-2.6003,2.752
10.410000,-1.0526,-0.0201,-2.1883,2.428
10.410000,-1.1185,0.1721,-1.6771,2.023
10.411000,-1.1098,0.3692,-1.0689,1.584
10.411000,-1.0569,0.4482,-0.5686,1.281
10.411000,-0.9469,0.5258,-0.3238,1.130
10.412000,-0.8104,0.6115,-0.3269,1.067
10.416000,-0.6257,0.6551,-0.3074,0.957
10.421000,-0.4044,0.7667,-0.2629,0.906
10.426000,-0.2154,0.8051,-0.2319,0.865
10.431000,-0.0297,0.9284,-0.3936,1.009
10.436000,0.1076,1.0317,-0.5472,1.173
10.441000,0.1391,1.1345,-0.6382,1.309
10.447000,0.1536,1.2709,-0.7841,1.501
10.450000,0.1578,1.4006,-0.9685,1.710
10.455000,0.1462,1.4952,-1.0912,1.857
10.461000,-0.0249,1.6246,-1.0833,1.953
10.466000,-0.1145,1.7671,-1.0860,2.077
10.470000,-0.1656,1.8731,-1.1523,2.205
10.482000,-0.2595,1.9620,-1.1820,2.305
10.484000,-0.3703,2.0488,-1.1253,2.367
10.486000,-0.4002,2.1046,-1.1378,2.426
10.544000,-0.3944,2.1924,-0.9878,2.437
10.545000,-0.4200,2.2501,-0.7259,2.401
10.545000,-0.3794,2.2678,-0.3568,2.327
10.546000,-0.3017,2.2669,-0.0239,2.287
10.546000,-0.2654,2.2306,0.2323,2.258
10.547000,-0.2154,2.1852,0.4933,2.250
10.547000,-0.1179,2.1524,0.9454,2.354
10.547000,-0.0306,2.0890,1.7561,2.729
10.548000,0.0539,2.0535,2.6366,3.342
10.548000,0.2190,2.0227,3.2938,3.871
10.548000,0.5240,2.0418,3.9459,4.474
10.549000,0.7660,2.0161,4.6080,5.088
10.550000,0.9762,2.0284,5.1806,5.649
10.555000,1.0781,2.0228,5.5089,5.967
10.560000,1.0579,2.0296,5.6199,6.068
10.565000,0.9997,2.1233,5.5640,6.039
10.569000,0.8663,2.2204,5.3721,5.877
10.578000,0.7324,2.3215,5.1420,5.689
10.580000,0.6299,2.4969,4.9377,5.569
10.584000,0.5615,2.6106,4.6753,5.384
10.590000,0.5533,2.6848,4.4307,5.210
10.611000,0.5239,2.6991,4.1461,4.975
10.612000,0.3439,2.6539,4.0362,4.843
10.612000,0.2567,2.5833,3.9739,4.747
10.613000,0.3042,2.4757,3.9611,4.681
10.614000,0.3368,2.3190,3.9189,4.566
10.619000,0.4588,2.0921,3.8854,4.437
10.625000,0.5143,1.8737,3.7842,4.254
10.630000,0.5765,1.6163,3.7849,4.156
10.635000,0.6898,1.3672,3.8636,4.156
10.640000,0.7412,1.1786,4.0088,4.244
10.644000,0.7759,1.0113,4.0653,4.260
10.649000,0.8586,0.8190,4.2157,4.379
10.655000,1.0333,0.6563,4.2139,4.388
10.660000,1.2004,0.5512,3.9457,4.161
10.665000,1.2411,0.3122,3.7919,4.002
10.669000,1.1999,0.1188,3.5755,3.773
10.677000,1.1953,0.0326,3.2562,3.469
10.679000,1.2897,0.0060,2.8723,3.149
10.684000,1.3350,-0.0928,2.4790,2.817
10.688000,1.3487,-0.2062,2.1192,2.520
10.729000,1.3455,-0.3316,1.7259,2.213
10.730000,1.4310,-0.3635,1.2320,1.923
10.731000,1.5642,-0.4168,0.7046,1.766
10.732000,1.6664,-0.4574,0.1744,1.737
10.732000,1.7758,-0.5155,-0.4093,1.894
10.733000,1.7943,-0.6196,-1.0157,2.153
10.733000,1.8244,-0.6322,-1.5665,2.486
10.734000,1.8612,-0.6201,-2.1600,2.918
10.734000,1.8059,-0.7330,-2.7946,3.407
10.738000,1.7371,-0.8382,-3.2221,3.755
10.743000,1.6619,-0.8614,-3.5675,4.029
10.748000,1.5728,-0.9264,-3.8265,4.240
10.753000,1.4244,-1.0284,-3.9753,4.346
10.758000,1.2929,-1.1192,-4.0096,4.359
10.763000,1.1424,-1.2394,-4.1040,4.437
10.768000,0.9965,-1.3652,-3.9907,4.334
10.773000,0.8333,-1.5091,-3.7699,4.145
10.778000,0.7550,-1.6667,-3.4629,3.917
10.783000,0.6419,-1.8270,-3.1984,3.739
10.790000,0.6087,-1.9693,-2.9255,3.579
10.797000,0.5572,-2.1106,-2.7658,3.523
10.798000,0.5257,-2.3093,-2.5393,3.472
10.803000,0.4597,-2.4579,-2.2723,3.379
10.849000,0.4743,-2.5452,-1.9857,3.263
10.849000,0.6078,-2.6580,-1.8464,3.293
10.849000,0.7669,-2.6703,-1.7153,3.265
10.850000,0.9327,-2.6828,-1.5275,3.225
10.850000,1.0987,-2.7821,-1.6940,3.438
10.851000,1.1555,-2.8771,-1.9514,3.663
10.851000,1.2185,-2.8527,-2.0368,3.711
10.852000,1.1617,-2.8452,-2.2112,3.786
10.853000,1.0928,-2.8304,-2.3764,3.854
10.853000,0.9448,-2.7817,-2.5543,3.893
10.858000,0.7276,-2.7778,-2.7808,3.997
10.862000,0.5487,-2.7774,-2.9943,4.121
10.867000,0.2619,-2.7347,-3.1278,4.163
10.872000,0.0600,-2.6732,-3.3398,4.278
10.877000,-0.1369,-2.6213,-3.4630,4.345
10.882000,-0.2677,-2.5239,-3.4762,4.304
10.887000,-0.2738,-2.4287,-3.5566,4.315
10.894000,-0.2607,-2.3332,-3.6948,4.378
10.897000,-0.2386,-2.2464,-3.9484,4.549
10.902000,-0.1117,-2.1410,-4.0981,4.625
10.907000,-0.0026,-2.0239,-4.1825,4.646
10.940000,0.0837,-1.9716,-4.0271,4.485
10.941000,0.1431,-1.9029,-3.7494,4.207
10.944000,0.2166,-1.7873,-3.2676,3.731
10.944000,0.3170,-1.6376,-2.7942,3.254
10.945000,0.4302,-1.4904,-2.3574,2.822
10.945000,0.5526,-1.3294,-2.1003,2.546
10.946000,0.6938,-1.1475,-2.0632,2.461
10.947000,0.7894,-1.0212,-1.9708,2.356
10.952000,0.8205,-0.8857,-1.7876,2.157
10.957000,0.8329,-0.7026,-1.8172,2.119
10.962000,0.7933,-0.5340,-1.8182,2.054
10.967000,0.7378,-0.2812,-1.7383,1.909
10.972000,0.7700,-0.0566,-1.5801,1.759
10.976000,0.7703,0.1759,-1.4657,1.665
10.981000,0.8271,0.3425,-1.3930,1.656
10.988000,0.9016,0.5200,-1.2784,1.649
10.991000,1.0342,0.6967,-1.0217,1.612
10.996000,1.2059,0.8774,-0.5250,1.581
11.001000,1.4072,1.0119,0.0249,1.733
11.006000,1.6095,1.1094,0.4823,2.013
11.011000,1.6595,1.1432,1.0317,2.264
11.017000,1.6482,1.2447,1.6493,2.643
11.021000,1.6689,1.3651,2.1993,3.080
11.048000,1.6635,1.4562,2.5913,3.406
11.049000,1.6653,1.5920,2.9473,3.741
11.050000,1.5881,1.7411,3.2079,3.980
11.050000,1.3765,1.7861,3.2704,3.972
11.051000,1.1095,1.8712,3.3715,4.012
11.051000,0.8347,1.9315,3.4896,4.075
11.056000,0.5735,2.0012,3.5574,4.122
11.061000,0.4027,2.1378,3.6705,4.267
11.066000,0.2339,2.2217,3.7308,4.349
11.072000,-0.0162,2.1841,3.8768,4.450
11.076000,-0.1846,2.1732,3.9817,4.540
11.081000,-0.1900,2.2632,4.0335,4.629
11.086000,-0.1949,2.3487,4.1855,4.803
11.092000,-0.1611,2.3272,4.3992,4.979
11.095000,-0.1341,2.2463,4.6098,5.130
11.101000,-0.2240,2.2661,4.8920,5.396
11.105000,-0.2919,2.2522,5.2696,5.738
11.110000,-0.3690,2.2351,5.5183,5.965
11.116000,-0.4508,2.1662,5.6792,6.095
11.120000,-0.6498,2.0765,5.7144,6.115
11.130000,-0.8207,2.0396,5.5716,5.990
11.131000,-0.9327,1.9884,5.3277,5.763
11.135000,-1.0982,1.9423,4.9252,5.407
11.182000,-1.2095,1.9117,4.4547,4.996
11.183000,-1.3381,1.7942,4.1311,4.698
11.183000,-1.4503,1.6598,3.8153,4.406
11.184000,-1.5199,1.5855,3.5069,4.138
11.184000,-1.5400,1.4592,3.2631,3.892
11.185000,-1.4820,1.3579,3.0716,3.671
11.185000,-1.3648,1.2364,2.8532,3.396
11.185000,-1.2723,1.1452,2.8709,3.342
11.186000,-1.1469,1.0456,2.9356,3.321
11.187000,-1.1109,0.9230,2.9974,3.327
11.191000,-1.1738,0.7361,3.1235,3.417
11.195000,-1.2615,0.5806,3.2111,3.499
11.200000,-1.3715,0.4438,3.4210,3.712
11.205000,-1.4105,0.3011,3.6769,3.950
11.209000,-1.4933,0.1543,3.8284,4.112
11.215000,-1.4687,-0.0232,3.7420,4.020
11.228000,-1.4758,-0.1553,3.6430,3.934
11.229000,-1.4950,-0.2443,3.5171,3.829
11.230000,-1.4657,-0.3119,3.2807,3.607
11.235000,-1.4147,-0.4082,2.9266,3.276
11.240000,-1.3680,-0.4778,2.5314,2.917
11.267000,-1.3375,-0.5420,1.9394,2.417
11.268000,-1.2969,-0.6096,1.4064,2.008
11.268000,-1.2145,-0.6607,0.9413,1.673
11.268000,-1.2274,-0.6570,0.5439,1.495
11.269000,-1.2922,-0.6841,0.1804,1.473
11.270000,-1.3732,-0.7180,-0.2905,1.577
11.276000,-1.4652,-0.7365,-0.7182,1.790
11.279000,-1.5570,-0.8278,-1.1104,2.084
11.284000,-1.6079,-0.8794,-1.3906,2.301
11.289000,-1.5940,-0.9129,-1.6952,2.500
11.295000,-1.6067,-0.9688,-2.0242,2.760
11.299000,-1.5568,-1.0349,-2.3372,2.993
11.305000,-1.4802,-1.0870,-2.7277,3.288
11.309000,-1.5042,-1.1919,-3.0186,3.577
11.314000,-1.5706,-1.2993,-3.2556,3.841
11.319000,-1.6129,-1.3659,-3.4988,4.088
11.329000,-1.5904,-1.4370,-3.6955,4.272
11.330000,-1.6036,-1.5369,-3.8504,4.445
11.334000,-1.6384,-1.6295,-3.8608,4.500
11.339000,-1.5824,-1.7344,-3.7673,4.439
11.371000,-1.5053,-1.8711,-3.6415,4.362
11.372000,-1.3308,-1.9802,-3.5500,4.277
11.372000,-1.1377,-2.1127,-3.4182,4.176
11.373000,-0.9934,-2.2067,-3.4134,4.184
11.373000,-0.7137,-2.2696,-3.4754,4.212
11.374000,-0.4518,-2.2635,-3.4700,4.168
11.375000,-0.2623,-2.2557,-3.5885,4.247
11.378000,-0.1164,-2.2988,-3.6873,4.347
11.383000,-0.0593,-2.3373,-3.7284,4.401
11.389000,-0.0260,-2.4193,-3.6926,4.415
11.393000,0.0409,-2.4448,-3.5222,4.288
11.399000,0.1557,-2.3927,-3.2985,4.078
11.403000,0.1968,-2.3496,-3.1744,3.954
11.409000,0.2770,-2.3326,-3.0705,3.866
11.413000,0.3558,-2.3563,-3.0083,3.838
11.418000,0.4477,-2.3322,-2.9804,3.811
11.424000,0.5598,-2.3083,-3.0178,3.840
11.428000,0.6346,-2.2654,-3.0417,3.845
11.433000,0.6104,-2.1602,-3.1096,3.835
11.438000,0.5425,-2.1024,-3.1928,3.861
11.444000,0.5119,-2.0438,-3.3634,3.969
11.448000,0.3889,-1.9627,-3.4971,4.029
11.453000,0.2975,-1.8487,-3.5776,4.038
11.466000,0.3283,-1.6995,-3.6122,4.006
11.468000,0.3596,-1.5839,-3.4794,3.840
11.469000,0.3886,-1.3080,-3.4976,3.754
11.473000,0.5751,-1.0561,-3.3533,3.562
11.524000,0.6414,-0.9833,-3.1520,3.364
11.525000,0.5905,-0.8864,-2.9943,3.178
11.525000,0.5951,-0.6884,-2.7942,2.939
11.525000,0.6146,-0.4541,-2.6067,2.716
11.525000,0.4837,-0.2719,-2.3841,2.448
11.526000,0.3363,-0.2159,-2.0642,2.103
11.526000,0.2609,-0.0637,-1.7093,1.730
11.527000,0.2593,0.2419,-1.3958,1.440
11.527000,0.2833,0.4707,-1.0135,1.153
11.528000,0.2924,0.6132,-0.6053,0.910
11.528000,0.3202,0.8058,-0.1738,0.884
11.533000,0.2831,0.9522,0.1475,1.004
11.537000,0.3057,1.0189,0.4259,1.146
11.543000,0.2611,1.1208,0.6421,1.318
11.547000,0.3025,1.2051,0.9040,1.537
11.554000,0.3002,1.3269,1.1589,1.787
11.563000,0.3001,1.4310,1.4236,2.041
11.564000,0.3264,1.5435,1.6218,2.263
11.567000,0.3239,1.6120,1.7438,2.397
11.572000,0.3335,1.7247,1.8378,2.542
11.612000,0.3169,1.7859,1.8465,2.588
11.612000,0.2672,1.8893,1.7481,2.588
11.613000,0.1439,1.8938,1.6050,2.487
11.613000,-0.0046,1.9488,1.5432,2.486
11.613000,-0.1708,2.0064,1.5699,2.553
11.614000,-0.3240,2.0502,1.5938,2.617
11.614000,-0.4496,2.0782,1.6145,2.670
11.614000,-0.5359,2.1529,1.5770,2.722
11.617000,-0.6024,2.2100,1.5934,2.790
11.621000,-0.7592,2.2310,1.4479,2.766
11.627000,-0.9067,2.2137,1.6572,2.910
11.631000,-1.0577,2.2777,1.8335,3.109
11.636000,-1.1313,2.3078,2.0438,3.284
11.642000,-1.0452,2.2871,2.3983,3.475
11.646000,-0.9102,2.2846,2.6031,3.581
11.651000,-0.7145,2.3381,2.6466,3.603
11.657000,-0.5516,2.3469,2.7060,3.624
11.664000,-0.3587,2.4117,2.7766,3.695
11.666000,-0.1495,2.4676,2.8538,3.776
11.671000,-0.0233,2.5814,2.9233,3.900
11.712000,0.0541,2.5831,2.7939,3.805
11.713000,0.1388,2.5759,2.6882,3.726
11.713000,0.2629,2.5578,2.7325,3.752
11.714000,0.4014,2.5359,2.8526,3.838
11.714000,0.5144,2.5057,2.9718,3.921
11.714000,0.5378,2.5555,3.0901,4.046
11.715000,0.4642,2.5436,3.3369,4.221
11.716000,0.3775,2.3865,3.5089,4.260
11.716000,0.2367,2.2082,3.7594,4.366
11.721000,0.0795,2.0853,3.9570,4.474
11.726000,-0.0415,1.9004,4.0826,4.503
11.730000,-0.0896,1.7562,4.1436,4.501
11.736000,-0.0799,1.5759,4.2695,4.552
11.743000,-0.0739,1.3733,4.3983,4.608
11.745000,-0.0528,1.1793,4.4848,4.638
11.750000,0.0264,0.9026,4.5628,4.651
11.756000,0.1055,0.6887,4.5561,4.609
11.760000,0.2010,0.4628,4.5155,4.544
11.765000,0.3394,0.2724,4.2928,4.315
11.770000,0.5332,0.1222,3.9675,4.005
11.780000,0.6731,-0.0598,3.6543,3.716
11.782000,0.6788,-0.2230,3.1811,3.260
11.785000,0.6802,-0.3292,2.7250,2.828
11.827000,0.7181,-0.3618,2.2572,2.396
11.828000,0.6782,-0.4280,1.7943,1.965
11.829000,0.6309,-0.5204,1.2309,1.478
11.829000,0.5505,-0.5759,0.6335,1.018
11.829000,0.5186,-0.6801,0.0520,0.857
11.830000,0.5205,-0.7272,-0.5691,1.060
11.830000,0.5318,-0.7714,-1.1298,1.468
11.830000,0.5349,-0.8005,-1.6232,1.887
11.831000,0.5392,-0.8761,-1.9805,2.232
11.835000,0.5032,-0.9763,-2.3552,2.599
11.841000,0.5269,-1.0579,-2.6948,2.943
11.844000,0.5382,-1.1157,-2.9949,3.241
11.850000,0.5582,-1.2119,-3.1814,3.450
11.855000,0.6253,-1.3078,-3.3696,3.668
11.860000,0.6005,-1.4203,-3.6430,3.956
11.865000,0.5770,-1.5491,-3.7699,4.116
11.869000,0.5428,-1.6679,-3.7456,4.136
11.881000,0.5050,-1.7650,-3.7136,4.143
11.882000,0.5139,-1.8813,-3.7050,4.187
11.885000,0.5168,-2.0050,-3.5831,4.138
11.933000,0.5168,-2.0934,-3.4124,4.037
11.935000,0.5021,-2.2116,-3.2715,3.981
11.935000,0.4799,-2.3311,-3.1219,3.926
11.936000,0.4864,-2.4501,-3.0302,3.927
11.936000,0.4903,-2.5740,-2.9288,3.930
11.937000,0.5614,-2.6286,-2.8345,3.906
11.937000,0.6257,-2.6671,-2.7829,3.905
11.937000,0.6929,-2.6632,-2.7475,3.889
11.938000,0.7063,-2.6840,-2.7976,3.941
11.938000,0.6106,-2.7321,-2.8660,4.006
11.940000,0.5756,-2.7571,-2.9862,4.105
11.944000,0.4814,-2.7495,-3.0673,4.147
11.949000,0.3086,-2.7571,-3.0760,4.142
11.954000,0.1365,-2.7296,-3.0435,4.090
11.959000,0.0437,-2.6452,-3.0129,4.010
11.964000,-0.0490,-2.5998,-3.0202,3.985
11.969000,-0.1035,-2.5551,-3.1083,4.025
11.975000,-0.1726,-2.5132,-3.1409,4.026
11.979000,-0.2498,-2.5268,-3.2475,4.122
11.984000,-0.2038,-2.5311,-3.2771,4.146
11.989000,-0.1426,-2.4375,-3.2636,4.076
11.994000,-0.1212,-2.4134,-3.2741,4.069
11.999000,0.0138,-2.3608,-3.2772,4.039
12.004000,0.0974,-2.2963,-3.2613,3.990
12.013000,0.1849,-2.2366,-3.2550,3.954
12.014000,0.2069,-2.1818,-3.2559,3.925
12.019000,0.1784,-2.0480,-3.2091,3.811
12.059000,0.1668,-1.9118,-3.1291,3.671
12.060000,0.1838,-1.7850,-3.1305,3.608
12.061000,0.2586,-1.6580,-3.0008,3.438
12.061000,0.3764,-1.5068,-2.8812,3.273
12.061000,0.4199,-1.3889,-2.7883,3.143
12.062000,0.3988,-1.2348,-2.6337,2.936
12.062000,0.3534,-1.1067,-2.4893,2.747
12.063000,0.3030,-0.9469,-2.3647,2.565
12.064000,0.2928,-0.8080,-2.2385,2.398
12.068000,0.2530,-0.6564,-2.0368,2.155
12.075000,0.2383,-0.4969,-1.8264,1.908
12.081000,0.3181,-0.3657,-1.6168,1.688
12.083000,0.4586,-0.2362,-1.4439,1.533
12.088000,0.6189,-0.0345,-1.2288,1.376
12.096000,0.7729,0.1603,-1.0286,1.297
12.098000,0.8901,0.2978,-0.7477,1.200
12.103000,0.9809,0.4478,-0.4078,1.153
12.146000,1.1178,0.6003,-0.1451,1.277
12.147000,1.2647,0.8081,0.2223,1.517
12.147000,1.4679,0.9462,0.6251,1.855
12.147000,1.5984,1.0788,1.0756,2.208
12.148000,1.7313,1.1724,1.5070,2.577
12.148000,1.8887,1.3178,1.7686,2.904
12.148000,2.0061,1.5126,1.9420,3.175
12.148000,2.1287,1.6969,1.9865,3.370
12.149000,2.1270,1.8687,1.9261,3.424
12.154000,1.9700,1.9809,1.9109,3.385
12.158000,1.7506,2.0937,1.9311,3.343
12.162000,1.5117,2.2200,1.9955,3.346
12.168000,1.2312,2.2665,2.1209,3.339
12.173000,0.8628,2.3193,2.3501,3.413
12.181000,0.5378,2.4073,2.6639,3.631
12.184000,0.2562,2.4324,2.9713,3.849
12.188000,-0.0801,2.4045,3.2889,4.075
12.192000,-0.3139,2.3976,3.5785,4.319
12.197000,-0.4027,2.3923,3.9718,4.654
12.202000,-0.4880,2.4027,4.3901,5.028
12.215000,-0.5679,2.3802,4.8480,5.431
12.217000,-0.5994,2.2625,5.2526,5.750
12.218000,-0.5546,2.2497,5.6354,6.093
12.262000,-0.4313,2.2597,6.0999,6.519
12.264000,-0.3156,2.2556,6.3333,6.730
12.264000,-0.1976,2.1918,6.4150,6.782
12.265000,-0.1108,2.1323,6.3503,6.700
12.265000,-0.1526,2.0915,6.1347,6.483
12.266000,-0.2406,2.0576,5.8422,6.199
12.266000,-0.3643,2.0189,5.4466,5.820
12.267000,-0.5785,2.0284,5.1175,5.535
12.267000,-0.8253,2.0289,4.7948,5.271
12.267000,-1.0329,1.9659,4.4639,4.986
12.272000,-1.1274,1.9188,4.1580,4.716
12.276000,-1.1041,1.9212,3.7693,4.372
12.282000,-1.1597,1.8565,3.3860,4.032
12.287000,-1.1647,1.7539,3.0436,3.701
12.292000,-1.1453,1.6455,2.6554,3.327
12.296000,-1.0065,1.5366,2.3191,2.958
12.301000,-0.9517,1.3369,2.1418,2.698
12.306000,-0.9286,1.1209,2.1136,2.566
12.311000,-0.9111,0.9172,2.2440,2.590
12.316000,-0.8519,0.7016,2.5783,2.805
12.321000,-0.8396,0.5449,2.9497,3.115
12.327000,-0.8481,0.3552,3.3849,3.508
12.332000,-0.8058,0.2032,3.8010,3.891
12.337000,-0.7219,0.0138,4.0982,4.161
12.385000,-0.6106,-0.1778,4.2173,4.265
12.386000,-0.5314,-0.3650,4.2402,4.289
12.386000,-0.4721,-0.5435,4.1675,4.229
12.386000,-0.4033,-0.7042,4.0328,4.114
12.387000,-0.3817,-0.8898,3.7957,3.917
12.387000,-0.3705,-0.9835,3.5185,3.672
12.387000,-0.4026,-1.0523,3.1271,3.324
12.388000,-0.4752,-1.1506,2.6763,2.952
12.388000,-0.5639,-1.2523,2.1138,2.521
12.388000,-0.6448,-1.2942,1.5035,2.086
12.394000,-0.7278,-1.3262,0.8908,1.756
12.395000,-0.8274,-1.4383,0.2895,1.684
12.402000,-0.8553,-1.4674,-0.3104,1.727
12.406000,-0.8786,-1.4872,-0.8542,1.927
12.411000,-0.8592,-1.5065,-1.3304,2.186
12.416000,-0.8303,-1.5228,-1.7370,2.455
12.420000,-0.8213,-1.5546,-2.0959,2.736
12.427000,-0.8013,-1.5614,-2.4837,3.041
12.430000,-0.7973,-1.6265,-2.9149,3.432
12.435000,-0.8627,-1.6774,-3.3136,3.813
12.467000,-0.8974,-1.7452,-3.6726,4.164
12.468000,-0.9308,-1.8245,-3.9565,4.455
12.468000,-0.9849,-1.9271,-4.1202,4.654
12.469000,-1.0338,-2.0460,-4.2786,4.854
12.469000,-1.1066,-2.0760,-4.4244,5.011
12.469000,-1.1107,-2.1919,-4.5553,5.176
12.470000,-1.1683,-2.3004,-4.6330,5.303
12.475000,-1.1692,-2.4040,-4.6120,5.331
12.481000,-1.1176,-2.4574,-4.4636,5.216
12.485000,-1.0439,-2.4758,-4.2472,5.026
12.490000,-1.0029,-2.5505,-4.0917,4.925
12.495000,-0.8696,-2.5312,-3.9943,4.808
12.500000,-0.7845,-2.5883,-3.7608,4.632
12.505000,-0.6516,-2.6623,-3.5800,4.509
12.510000,-0.5544,-2.6677,-3.4873,4.426
12.515000,-0.3873,-2.6408,-3.4727,4.380
12.520000,-0.1957,-2.6988,-3.4620,4.394
12.527000,-0.0511,-2.7770,-3.4504,4.429
12.530000,0.1617,-2.7989,-3.5001,4.484
12.534000,0.4020,-2.7430,-3.6254,4.564
12.540000,0.5668,-2.6668,-3.7520,4.638
12.585000,0.6416,-2.6537,-3.9185,4.776
12.586000,0.7223,-2.6312,-4.0439,4.878
12.587000,0.8015,-2.6109,-4.1790,4.992
12.587000,0.8736,-2.5804,-4.1948,5.002
12.588000,0.9167,-2.5567,-4.0865,4.907
12.588000,0.9737,-2.4898,-3.8590,4.695
12.588000,1.0135,-2.3800,-3.6054,4.437
12.589000,1.1015,-2.2374,-3.4114,4.226
12.589000,1.1043,-1.9808,-3.3631,4.056
12.589000,1.0202,-1.7417,-3.3696,3.928
12.596000,0.8022,-1.5317,-3.3758,3.793
12.600000,0.5458,-1.3648,-3.3702,3.677
12.604000,0.4039,-1.1422,-3.3126,3.527
12.610000,0.3566,-0.9644,-3.2462,3.405
12.614000,0.2426,-0.7618,-3.1592,3.259
12.619000,0.0879,-0.4770,-2.8915,2.932
12.624000,-0.0356,-0.2081,-2.6057,2.614
12.629000,-0.2547,-0.0579,-2.3093,2.324
12.634000,-0.5912,0.0284,-1.9686,2.056
12.639000,-0.9235,0.1369,-1.6335,1.881
12.648000,-1.1016,0.3126,-1.3639,1.781
12.650000,-1.2218,0.4835,-1.0445,1.679
12.654000,-1.2438,0.6637,-0.6802,1.565
12.705000,-1.1411,0.8624,-0.4260,1.492
12.706000,-0.9760,0.9791,-0.3250,1.420
12.706000,-0.7462,1.0212,-0.1904,1.279
12.707000,-0.4088,1.0797,-0.0655,1.156
12.707000,0.0051,1.1832,0.0548,1.185
12.708000,0.3473,1.3268,0.1847,1.384
12.708000,0.5303,1.4292,0.3363,1.561
12.709000,0.4522,1.5259,0.5074,1.670
12.709000,0.4154,1.6720,0.6238,1.832
12.710000,0.2985,1.8292,0.7479,1.999
12.710000,0.0642,2.0094,0.8174,2.170
12.713000,-0.1936,2.1504,0.8204,2.310
12.718000,-0.3960,2.2454,0.7305,2.394
12.723000,-0.5719,2.3285,0.6335,2.480
12.729000,-0.7097,2.3861,0.4428,2.528
12.733000,-0.7453,2.4618,0.4186,2.606
12.738000,-0.7319,2.5438,0.4267,2.681
12.745000,-0.7179,2.6303,0.4690,2.767
12.748000,-0.7587,2.6737,0.6721,2.859
12.753000,-0.8835,2.6505,0.9063,2.937
12.788000,-0.9925,2.5723,1.2913,3.045
12.789000,-1.0313,2.5753,1.6217,3.213
12.789000,-1.1659,2.5371,1.9383,3.399
12.790000,-1.2416,2.5459,2.3249,3.664
12.790000,-1.1961,2.5869,2.8370,4.021
12.790000,-1.0417,2.5855,3.3168,4.333
12.791000,-0.8762,2.6507,3.9923,4.872
12.793000,-0.8523,2.6693,4.5316,5.328
12.797000,-0.8100,2.6761,4.8757,5.620
12.802000,-0.6627,2.6343,4.9371,5.635
12.807000,-0.4169,2.6086,4.7975,5.477
12.812000,-0.1498,2.6707,4.4954,5.231
12.818000,0.0278,2.7283,4.1497,4.966
12.822000,0.1750,2.7059,3.7480,4.626
12.827000,0.3069,2.6572,3.4545,4.369
12.834000,0.4050,2.5734,3.2134,4.137
12.837000,0.4812,2.4888,3.0075,3.933
12.842000,0.6160,2.3560,3.0588,3.910
12.847000,0.6389,2.1726,3.3359,4.032
12.853000,0.6949,1.9549,3.6332,4.184
12.864000,0.7803,1.7626,3.8743,4.327
12.865000,0.7824,1.5377,4.1697,4.513
12.868000,0.8102,1.2991,4.4836,4.738
12.872000,0.9464,1.0387,4.7736,4.976
12.923000,0.9777,0.7510,5.0666,5.214
12.925000,1.0357,0.5285,5.3656,5.490
12.925000,1.1276,0.3247,5.4916,5.616
12.926000,1.1988,0.1466,5.4956,5.627
12.926000,1.2451,-0.0594,5.4020,5.544
12.926000,1.2648,-0.2790,5.1777,5.337
12.927000,1.2090,-0.4429,4.8945,5.061
12.927000,1.1071,-0.5606,4.5357,4.702
12.927000,1.0512,-0.6151,4.1395,4.315
12.928000,0.9509,-0.7141,3.6798,3.867
12.928000,0.8014,-0.8210,3.1249,3.329
12.932000,0.6869,-0.8712,2.5206,2.754
12.936000,0.5755,-0.9716,1.7325,2.068
12.943000,0.4184,-1.0875,0.9036,1.475
12.947000,0.1796,-1.1037,0.1578,1.129
12.952000,0.0161,-1.1456,-0.5632,1.277
12.957000,-0.1612,-1.1315,-1.2192,1.671
12.961000,-0.3052,-1.1635,-1.8062,2.170
12.966000,-0.4287,-1.2311,-2.2746,2.622
12.972000,-0.5608,-1.2652,-2.6245,2.967
12.980000,-0.6279,-1.2677,-2.9737,3.293
12.983000,-0.5823,-1.2913,-3.2504,3.546
12.986000,-0.5295,-1.2903,-3.4382,3.710
13.031000,-0.5147,-1.3719,-3.6954,3.975
13.032000,-0.5186,-1.4765,-3.9764,4.273
13.033000,-0.5127,-1.5296,-4.2001,4.499
13.033000,-0.4850,-1.5480,-4.3593,4.651
13.034000,-0.4805,-1.6441,-4.4496,4.768
13.034000,-0.4752,-1.7123,-4.4041,4.749
13.035000,-0.3922,-1.8152,-4.2730,4.659
13.036000,-0.3464,-1.9391,-4.3188,4.747
13.036000,-0.3618,-2.0360,-4.2665,4.741
13.036000,-0.3472,-2.1517,-4.0631,4.611
13.041000,-0.2760,-2.2797,-3.8687,4.499
13.046000,-0.1820,-2.3892,-3.8216,4.511
13.051000,-0.1443,-2.4495,-3.6798,4.423
13.056000,-0.0737,-2.5662,-3.4048,4.264
13.061000,-0.0035,-2.6175,-3.2932,4.207
13.066000,-0.0269,-2.6663,-3.1219,4.106
13.070000,0.0617,-2.6672,-3.0033,4.017
13.079000,0.1961,-2.6898,-2.9014,3.961
13.080000,0.2876,-2.7299,-2.7295,3.871
13.085000,0.2719,-2.7783,-2.6286,3.834
13.125000,0.2016,-2.8498,-2.5648,3.839
13.126000,0.2680,-2.8178,-2.4805,3.764
13.126000,0.2992,-2.8048,-2.3851,3.694
13.126000,0.2763,-2.8181,-2.2282,3.603
13.127000,0.3243,-2.7885,-2.0625,3.483
13.127000,0.2956,-2.7066,-1.9140,3.328
13.127000,0.2480,-2.6278,-1.7757,3.181
13.128000,0.2025,-2.6191,-1.7643,3.164
13.130000,0.2258,-2.5921,-1.8081,3.168
13.135000,0.2264,-2.5153,-1.9502,3.191
13.141000,0.2209,-2.4121,-2.2316,3.293
13.145000,0.2662,-2.2700,-2.5761,3.444
13.150000,0.2682,-2.1744,-2.8620,3.604
13.155000,0.2358,-2.0387,-3.0683,3.691
13.160000,0.2096,-1.8984,-3.3199,3.830
13.166000,0.2204,-1.7238,-3.4976,3.906
13.171000,0.2277,-1.5362,-3.6187,3.938
13.175000,0.1978,-1.3570,-3.6379,3.888
13.181000,0.2458,-1.2025,-3.5125,3.721
13.185000,0.3478,-1.0107,-3.3215,3.489
13.190000,0.4784,-0.8056,-3.0195,3.162
13.195000,0.4631,-0.6541,-2.8626,2.973
13.200000,0.4358,-0.4845,-2.6114,2.692
13.205000,0.4735,-0.3113,-2.3233,2.391
13.218000,0.5044,-0.1131,-2.1154,2.178
13.219000,0.5642,0.0859,-1.7579,1.848
13.221000,0.5258,0.2878,-1.4230,1.544
13.290000,0.4753,0.4876,-1.1629,1.348
13.291000,0.5228,0.7210,-0.8556,1.235
13.292000,0.5416,0.8707,-0.4748,1.130
13.292000,0.5029,0.9893,-0.0588,1.111
13.292000,0.5218,1.1672,0.2614,1.305
13.293000,0.5788,1.3705,0.5219,1.577
13.293000,0.6837,1.5749,0.7805,1.886
13.294000,0.8056,1.7496,1.0895,2.213
13.295000,0.9042,1.8823,1.3989,2.513
13.295000,0.9347,1.9996,1.5245,2.683
13.295000,0.9090,2.1229,1.5741,2.795
13.296000,0.8300,2.2336,1.5165,2.824
13.296000,0.6808,2.4114,1.4754,2.908
13.296000,0.4802,2.5656,1.5823,3.052
13.297000,0.2875,2.7205,1.6741,3.207
13.302000,0.1095,2.8164,1.7530,3.319
13.304000,0.0103,2.9016,1.8501,3.441
13.309000,-0.0871,2.9311,2.0175,3.559
13.314000,-0.1995,2.8860,2.1808,3.623
13.320000,-0.2105,2.8885,2.2898,3.692
13.324000,-0.2088,2.9053,2.5763,3.889
13.330000,-0.1683,2.8691,2.9136,4.093
13.333000,-0.2280,2.7750,3.1656,4.216
13.338000,-0.2563,2.7113,3.4903,4.427
13.380000,-0.2799,2.6678,3.8354,4.680
13.381000,-0.3106,2.6204,4.1987,4.959
13.381000,-0.2211,2.6115,4.5353,5.238
13.381000,-0.1183,2.5568,4.8836,5.514
13.382000,-0.0399,2.5660,5.1271,5.733
13.382000,0.0602,2.4922,5.3618,5.913
13.383000,0.1421,2.4670,5.5855,6.108
13.384000,0.1780,2.4680,5.8323,6.335
13.384000,0.2140,2.3511,6.0020,6.450
13.389000,0.1360,2.2166,5.9801,6.379
13.393000,-0.0720,2.0787,5.8865,6.243
13.398000,-0.3115,1.9324,5.6832,6.011
13.404000,-0.5467,1.8525,5.3843,5.720
13.410000,-0.9307,1.7434,4.9681,5.347
13.413000,-1.3377,1.6537,4.5493,5.022
13.419000,-1.6922,1.5507,4.0651,4.668
13.423000,-2.0508,1.3725,3.5202,4.299
13.464000,-2.2596,1.2156,3.0145,3.959
13.465000,-2.3245,1.1219,2.5712,3.643
13.465000,-2.3274,1.0177,2.1012,3.297
13.466000,-2.2261,0.8251,1.6828,2.910
13.466000,-2.0451,0.5806,1.4278,2.561
13.467000,-1.8418,0.3563,1.2499,2.254
13.468000,-1.6376,0.1858,1.2397,2.062
13.469000,-1.3316,0.0328,1.4689,1.983
13.469000,-1.0498,-0.0916,1.9211,2.191
13.475000,-0.8920,-0.2745,2.4246,2.598
13.481000,-0.7395,-0.4308,2.9084,3.032
13.482000,-0.6682,-0.5952,3.2584,3.379
13.487000,-0.6012,-0.7809,3.4996,3.636
13.494000,-0.5094,-0.9285,3.5153,3.671
13.498000,-0.3422,-1.0863,3.4757,3.658
13.502000,-0.2789,-1.1898,3.3285,3.546
13.513000,-0.2997,-1.2894,3.1336,3.402
13.514000,-0.3493,-1.3901,2.8098,3.154
13.517000,-0.4372,-1.4529,2.2829,2.741
13.523000,-0.6331,-1.5567,1.7848,2.451
13.566000,-0.9083,-1.6312,1.3246,2.289
13.567000,-1.1769,-1.6447,0.9759,2.246
13.568000,-1.4099,-1.5829,0.6023,2.204
13.568000,-1.5437,-1.5481,0.0791,2.188
13.569000,-1.6482,-1.5377,-0.4790,2.304
13.569000,-1.6907,-1.5841,-1.0319,2.536
13.569000,-1.7006,-1.6361,-1.5922,2.847
13.570000,-1.6230,-1.6937,-2.0907,3.142
13.570000,-1.5832,-1.7989,-2.5306,3.485
13.572000,-1.5432,-1.8558,-2.8977,3.771
13.577000,-1.3933,-1.8668,-3.2018,3.960
13.583000,-1.2941,-1.8173,-3.4122,4.077
13.587000,-1.2354,-1.8746,-3.5601,4.209
13.592000,-1.1191,-1.9527,-3.6384,4.278
13.598000,-1.0264,-2.0661,-3.5584,4.241
13.602000,-0.9018,-2.1649,-3.4971,4.211
13.607000,-0.6401,-2.2211,-3.4324,4.138
13.612000,-0.4135,-2.2592,-3.2682,3.995
13.616000,-0.1994,-2.3251,-3.0667,3.854
13.634000,-0.0808,-2.3451,-2.9229,3.748
13.636000,0.0410,-2.3749,-2.8604,3.718
13.637000,0.0966,-2.4316,-2.7210,3.651
13.684000,0.2179,-2.4438,-2.6146,3.585
13.685000,0.3265,-2.4740,-2.5575,3.573
13.685000,0.3959,-2.4846,-2.6043,3.621
13.685000,0.4425,-2.4828,-2.6879,3.686
13.686000,0.5165,-2.4445,-2.8179,3.766
13.686000,0.4934,-2.4369,-2.9991,3.896
13.686000,0.4713,-2.4404,-3.1765,4.033
13.687000,0.4095,-2.4426,-3.4031,4.209
13.687000,0.4731,-2.4265,-3.6838,4.436
13.687000,0.4466,-2.4108,-3.8874,4.596
13.688000,0.3775,-2.3974,-3.9592,4.644
13.692000,0.2586,-2.4005,-3.9212,4.605
13.696000,0.2644,-2.3887,-3.7665,4.468
13.701000,0.3252,-2.3479,-3.5021,4.229
13.705000,0.4789,-2.2020,-3.2764,3.976
13.711000,0.6753,-2.0900,-3.1104,3.808
13.715000,0.7491,-1.9642,-2.9635,3.633
13.721000,0.8488,-1.8843,-2.8549,3.524
13.727000,0.9510,-1.7856,-2.7677,3.428
13.730000,1.0197,-1.6726,-2.7596,3.384
13.736000,1.0353,-1.5525,-2.7898,3.356
13.771000,1.1264,-1.4303,-2.7241,3.277
13.772000,1.2260,-1.2916,-2.5079,3.076
13.772000,1.3657,-1.1413,-2.2870,2.898
13.772000,1.5173,-0.9774,-2.0564,2.736
13.773000,1.6429,-0.7475,-1.8302,2.571
13.773000,1.6808,-0.5599,-1.6799,2.441
13.773000,1.5744,-0.4022,-1.5075,2.217
13.775000,1.3959,-0.3130,-1.3223,1.948
13.780000,1.1887,-0.1536,-1.2607,1.740
13.785000,0.9171,-0.0148,-1.3632,1.643
13.790000,0.6747,0.1350,-1.4911,1.642
13.796000,0.3823,0.2964,-1.5805,1.653
13.800000,0.1832,0.5031,-1.6315,1.717
13.806000,0.0127,0.6934,-1.7713,1.902
13.811000,-0.2213,0.8845,-1.8900,2.098
13.815000,-0.4787,1.0239,-1.8732,2.188
13.820000,-0.6525,1.1552,-1.8169,2.250
13.825000,-0.7123,1.3335,-1.7954,2.347
13.830000,-0.7686,1.4917,-1.7680,2.438
13.835000,-0.8531,1.6662,-1.6826,2.517
13.843000,-0.9517,1.7660,-1.6466,2.595
13.845000,-0.9984,1.8652,-1.5214,2.606
13.850000,-0.9498,1.9928,-1.3861,2.607
13.856000,-0.8608,2.1201,-1.3988,2.682
13.862000,-0.8008,2.2188,-1.3058,2.696
13.865000,-0.7408,2.3297,-1.1722,2.711
13.870000,-0.7828,2.3694,-0.9430,2.668
13.935000,-0.8113,2.4096,-0.6231,2.618
13.936000,-0.7472,2.4862,-0.1338,2.600
13.936000,-0.5898,2.5103,0.5898,2.645
13.936000,-0.5086,2.5242,1.1294,2.812
13.937000,-0.4723,2.5824,1.6077,3.078
13.937000,-0.4262,2.5334,2.1569,3.354
13.937000,-0.3370,2.5182,2.6288,3.656
13.938000,-0.2669,2.4812,3.0312,3.926
13.938000,-0.1468,2.4840,3.4696,4.270
13.938000,0.0497,2.4761,3.8655,4.591
13.938000,0.1500,2.4496,4.0685,4.751
13.939000,0.2278,2.4451,4.2633,4.920
13.939000,0.3048,2.4909,4.5241,5.173
13.941000,0.4671,2.5316,4.7052,5.363
13.946000,0.5353,2.5840,4.7590,5.442
13.950000,0.5200,2.6620,4.7479,5.468
13.955000,0.4025,2.6915,4.5285,5.283
13.959000,0.2178,2.7235,4.2106,5.019
13.965000,0.0312,2.7709,3.8557,4.748
13.969000,-0.0879,2.8178,3.5950,4.569
13.977000,-0.1540,2.8815,3.4396,4.490
13.980000,-0.1195,2.9170,3.3200,4.421
13.984000,-0.0015,2.8796,3.1900,4.297
13.989000,0.1589,2.8369,3.2072,4.285
14.026000,0.2364,2.7244,3.1991,4.209
14.027000,0.2561,2.5494,3.2710,4.155
14.028000,0.2577,2.3432,3.4561,4.183
14.028000,0.2816,2.1271,3.7186,4.293
14.028000,0.4065,1.9436,3.9847,4.452
14.028000,0.5678,1.7254,4.3549,4.719
14.029000,0.7102,1.4716,4.7607,5.033
14.029000,0.8196,1.1692,5.0113,5.211
14.035000,0.9295,0.9253,5.2365,5.398
14.040000,0.9834,0.6719,5.4321,5.561
14.044000,0.9818,0.4107,5.4815,5.584
14.048000,0.9276,0.1817,5.5002,5.581
14.053000,0.9176,-0.0273,5.4596,5.536
14.059000,0.8762,-0.2027,5.3005,5.376
14.064000,0.8684,-0.3490,4.9656,5.053
14.068000,0.8300,-0.5026,4.6489,4.749
14.113000,0.7850,-0.6033,4.2428,4.357
14.113000,0.7786,-0.6584,3.5825,3.725
14.114000,0.7530,-0.7268,2.8255,3.013
14.114000,0.6956,-0.8145,2.0212,2.287
14.114000,0.6609,-0.9354,1.1337,1.612
14.114000,0.5971,-1.0165,0.2890,1.214
14.115000,0.5682,-1.0810,-0.5040,1.321
14.115000,0.5624,-1.1086,-1.3395,1.827
14.115000,0.5578,-1.1720,-2.1468,2.509
14.119000,0.5491,-1.2329,-2.8615,3.164
14.124000,0.5281,-1.2665,-3.3505,3.621
14.129000,0.5478,-1.2943,-3.6812,3.940
14.134000,0.5968,-1.3420,-4.0264,4.286
14.137000,0.6752,-1.4118,-4.1926,4.475
14.143000,0.6205,-1.5281,-4.2539,4.562
14.148000,0.5218,-1.6692,-4.3610,4.699
14.153000,0.5204,-1.7828,-4.3822,4.760
14.158000,0.6142,-1.8187,-4.5042,4.896
14.162000,0.6813,-1.8487,-4.5927,4.997
14.168000,0.6166,-1.9688,-4.6359,5.074
14.174000,0.6355,-2.1262,-4.5954,5.103
14.178000,0.6998,-2.2374,-4.6338,5.193
14.183000,0.6706,-2.3312,-4.6193,5.218
14.187000,0.6958,-2.4442,-4.4990,5.167
14.204000,0.7559,-2.5549,-4.3398,5.092
14.206000,0.8248,-2.6589,-4.1319,4.982
14.206000,0.8287,-2.7186,-4.0518,4.949
14.279000,0.8676,-2.8084,-3.8720,4.861
14.280000,0.9563,-2.8669,-3.5705,4.678
14.281000,1.0282,-2.8847,-3.2932,4.497
14.281000,1.0049,-2.9367,-3.0489,4.351
14.282000,0.9923,-2.9087,-2.8325,4.180
14.282000,0.9503,-2.8968,-2.6534,4.042
14.282000,0.8291,-2.8893,-2.5183,3.921
14.283000,0.7700,-2.8719,-2.3697,3.802
14.283000,0.6438,-2.8258,-2.2674,3.680
14.283000,0.5055,-2.8373,-2.2207,3.638
14.284000,0.4529,-2.7698,-2.2967,3.627
14.284000,0.3612,-2.7332,-2.4523,3.690
14.284000,0.2781,-2.7176,-2.6182,3.784
14.284000,0.2075,-2.6723,-2.7184,3.818
14.285000,0.2065,-2.5758,-2.8844,3.873
14.285000,0.1745,-2.4968,-2.9803,3.892
14.288000,0.1375,-2.3968,-3.0615,3.891
14.292000,0.1672,-2.2564,-2.9871,3.747
14.297000,0.2037,-2.1350,-2.8723,3.585
14.302000,0.2062,-2.0375,-2.8941,3.545
14.307000,0.2625,-1.9297,-2.9308,3.519
14.312000,0.3505,-1.7998,-2.8772,3.412
14.316000,0.4459,-1.7027,-2.7455,3.261
14.322000,0.4980,-1.5857,-2.5022,3.004
14.353000,0.5187,-1.4757,-2.1879,2.690
14.353000,0.5254,-1.3587,-1.9171,2.408
14.354000,0.5519,-1.2348,-1.7278,2.194
14.354000,0.5675,-1.0538,-1.4359,1.869
14.354000,0.5877,-0.8520,-1.1775,1.568
14.355000,0.6038,-0.6535,-1.0098,1.346
14.356000,0.6449,-0.4750,-0.8060,1.136
14.363000,0.6418,-0.3285,-0.4559,0.853
14.366000,0.7402,-0.1688,-0.2467,0.798
14.373000,0.8104,0.0113,-0.0418,0.812
14.377000,0.8191,0.2210,0.1446,0.861
14.381000,0.8354,0.4174,0.1929,0.954
14.387000,0.9140,0.6008,0.1699,1.107
14.391000,0.9596,0.8388,0.1975,1.290
14.396000,0.9651,1.0881,0.2060,1.469
14.401000,0.9666,1.3447,0.2263,1.671
14.406000,0.9643,1.5348,0.2508,1.830
14.454000,0.8888,1.7355,0.3270,1.977
14.463000,0.7898,1.9278,0.5072,2.144
14.465000,0.6988,2.0763,0.8127,2.337
14.465000,0.6059,2.2549,1.0568,2.563
14.467000,0.4700,2.3677,1.2638,2.725
14.467000,0.3390,2.5036,1.4358,2.906
14.469000,0.2152,2.6341,1.5678,3.073
14.470000,0.1868,2.6972,1.7939,3.245
14.470000,0.0815,2.7408,2.0874,3.446
14.473000,-0.0573,2.8319,2.3241,3.664
14.474000,-0.1960,2.8250,2.5874,3.836
14.475000,-0.4259,2.7917,2.9970,4.118
14.476000,-0.5676,2.7465,3.3925,4.402
14.477000,-0.6717,2.7344,3.7216,4.667
14.482000,-0.8228,2.6214,4.0346,4.881
14.486000,-0.8564,2.5748,4.5660,5.311
14.494000,-0.9157,2.5101,4.9718,5.644
14.497000,-0.8169,2.4365,5.4365,6.013
14.501000,-0.7972,2.2717,5.8388,6.316
14.505000,-0.8904,2.1700,6.2298,6.657
14.517000,-0.8906,2.0711,6.4951,6.875
14.520000,-0.9001,2.0003,6.5780,6.934
14.522000,-1.0342,1.8996,6.5653,6.912
14.569000,-1.1292,1.8353,6.4073,6.760
14.570000,-1.1624,1.8622,6.0062,6.395
14.571000,-1.1186,1.8922,5.4912,5.915
14.571000,-1.0806,1.8755,5.0081,5.456
14.571000,-1.0405,1.8411,4.5087,4.980
14.572000,-1.0312,1.7637,3.9542,4.451
14.572000,-0.9448,1.7014,3.4662,3.975
14.573000,-0.8649,1.6432,2.8981,3.442
14.573000,-0.7365,1.5805,2.4335,2.994
14.573000,-0.6480,1.5333,2.0357,2.630
14.576000,-0.5785,1.4519,1.7044,2.313
14.579000,-0.6033,1.3774,1.5635,2.169
14.585000,-0.6752,1.1903,1.6031,2.108
14.589000,-0.7464,1.0077,1.5625,2.003
14.596000,-0.8754,0.8848,1.4823,1.936
14.599000,-1.0776,0.7781,1.5158,2.016
14.604000,-1.3160,0.6108,1.6439,2.193
14.611000,-1.5311,0.4279,1.8573,2.445
14.615000,-1.6222,0.2764,2.1803,2.732
14.619000,-1.5724,0.1364,2.3334,2.817
14.683000,-1.4263,0.0194,2.4130,2.803
14.685000,-1.2453,-0.0490,2.4410,2.741
14.685000,-1.0812,-0.1479,2.5899,2.810
14.685000,-0.9475,-0.2803,2.4772,2.667
14.685000,-0.8365,-0.4340,2.1654,2.362
14.686000,-0.7764,-0.5252,1.9798,2.190
14.686000,-0.7547,-0.6232,1.7217,1.980
14.686000,-0.7907,-0.6845,1.4246,1.767
14.687000,-0.8313,-0.7664,1.0929,1.573
14.687000,-0.9009,-0.7917,0.8269,1.457
14.687000,-0.9947,-0.8322,0.5212,1.398
14.688000,-1.0800,-0.8872,0.1706,1.408
14.688000,-1.1886,-0.9661,-0.1460,1.539
14.689000,-1.2161,-1.0519,-0.4886,1.680
14.694000,-1.2899,-1.1275,-0.7473,1.869
14.699000,-1.3670,-1.1787,-1.0324,2.079
14.704000,-1.4093,-1.2692,-1.4160,2.367
14.710000,-1.4650,-1.3920,-1.7759,2.690
14.714000,-1.4841,-1.4990,-2.0789,2.962
14.720000,-1.5119,-1.5516,-2.3444,3.192
14.725000,-1.4815,-1.6336,-2.6752,3.467
14.730000,-1.4407,-1.6851,-2.9160,3.663
14.733000,-1.3464,-1.7491,-3.0859,3.794
14.739000,-1.2582,-1.8687,-3.2425,3.948
14.744000,-1.2592,-2.0369,-3.3784,4.141
14.748000,-1.2367,-2.1482,-3.5560,4.335
14.753000,-1.0496,-2.2364,-3.6075,4.372
14.819000,-0.9704,-2.2974,-3.5734,4.358
14.821000,-0.8674,-2.3168,-3.6499,4.409
14.824000,-0.7287,-2.3476,-3.6885,4.432
14.825000,-0.4921,-2.3682,-3.6676,4.393
14.826000,-0.3677,-2.3911,-3.6874,4.410
14.827000,-0.3370,-2.4548,-3.6233,4.389
14.828000,-0.2565,-2.4927,-3.6449,4.423
14.828000,-0.0495,-2.3926,-3.7091,4.414
14.829000,0.0804,-2.3793,-3.8397,4.518
14.829000,0.1767,-2.3063,-4.1375,4.740
14.829000,0.4690,-2.2115,-4.2557,4.819
14.830000,0.6148,-2.1880,-4.0873,4.677
14.830000,0.6433,-2.1883,-3.7995,4.432
14.830000,0.7361,-2.1147,-3.5837,4.226
14.831000,0.7221,-1.9962,-3.5281,4.117
14.833000,0.7594,-1.7965,-3.4486,3.962
14.839000,0.7764,-1.6541,-3.3240,3.793
14.844000,0.7426,-1.6717,-3.1975,3.684
14.847000,0.6455,-1.6147,-3.1503,3.598
14.852000,0.6760,-1.3683,-3.2255,3.568
14.895000,0.6184,-1.2457,-2.9832,3.291
14.896000,0.6117,-1.2872,-2.5337,2.907
14.896000,0.6321,-1.2399,-2.0732,2.497
14.896000,0.6382,-1.0851,-1.4337,1.908
14.897000,0.7641,-0.9296,-0.7128,1.399
14.897000,0.8593,-0.7957,-0.1873,1.186
14.897000,0.9140,-0.6840,0.1911,1.157
14.898000,0.9282,-0.5353,0.6575,1.257
14.898000,0.8806,-0.4052,1.0613,1.437
14.903000,0.7303,-0.2653,1.1902,1.421
14.908000,0.4919,-0.1729,1.4293,1.521
14.913000,0.2996,-0.0516,1.6137,1.642
14.919000,0.2445,0.0702,1.5471,1.568
14.923000,0.1593,0.2739,1.3783,1.414
14.928000,0.0487,0.3951,0.9537,1.033
14.932000,-0.0611,0.5165,0.5264,0.740
14.936000,-0.1632,0.6051,0.2587,0.678
14.943000,-0.2029,0.6308,-0.0010,0.663
14.948000,-0.2758,0.7206,-0.1521,0.786
14.951000,-0.3099,0.8368,-0.2719,0.933
14.956000,-0.3458,0.9629,-0.4204,1.106
15.019000,-0.4555,1.0891,-0.5112,1.286
15.019000,-0.5262,1.1993,-0.4805,1.395
15.020000,-0.5357,1.3107,-0.5486,1.519
15.020000,-0.5412,1.3875,-0.8207,1.700
15.020000,-0.5891,1.4300,-0.8689,1.774
15.021000,-0.7154,1.5101,-1.0376,1.967
15.021000,-0.8269,1.5950,-1.1457,2.131
15.021000,-0.9147,1.7111,-1.1838,2.273
15.022000,-1.0391,1.7675,-1.1234,2.338
15.022000,-1.1696,1.7767,-0.8906,2.306
15.022000,-1.2272,1.8101,-0.8945,2.363
15.023000,-1.2606,1.8153,-0.8720,2.376
15.023000,-1.2942,1.8525,-0.7658,2.386
15.034000,-1.2206,1.8520,-0.6023,2.298
15.035000,-1.1569,1.8571,-0.3746,2.220
15.037000,-1.0457,1.8340,0.0634,2.112
15.045000,-0.8435,1.8424,0.3315,2.053
15.046000,-0.5961,1.8148,0.7553,2.054
15.052000,-0.2916,1.8414,1.3663,2.311
15.056000,0.0041,1.8710,1.8541,2.634
15.061000,0.2411,1.9008,2.2910,2.987
15.066000,0.5016,1.9321,2.6850,3.346
15.071000,0.7987,1.9572,2.9099,3.597
15.121000,0.9870,1.9351,2.7628,3.515
15.123000,1.1656,1.9882,2.5881,3.466
15.124000,1.3277,2.0666,2.5746,3.558
15.125000,1.3644,2.1322,2.6119,3.637
15.127000,1.3193,2.1490,2.5850,3.611
15.127000,1.1617,2.1533,2.5704,3.549
15.129000,0.9664,2.2075,2.6229,3.562
15.130000,0.7148,2.2479,2.5242,3.455
15.131000,0.4474,2.2370,2.4890,3.376
15.132000,0.1676,2.1757,2.6699,3.448
15.133000,-0.1449,2.0236,2.9038,3.542
15.133000,-0.3843,1.8643,2.9493,3.510
15.137000,-0.4066,1.7316,3.0361,3.519
15.141000,-0.2783,1.6088,3.3075,3.689
15.146000,-0.3686,1.3182,3.5583,3.812
15.150000,-0.4014,0.9770,3.8434,3.986
15.156000,-0.1361,0.7761,4.3618,4.432
15.162000,0.1835,0.5464,4.8535,4.888
15.166000,0.4138,0.3232,5.3909,5.416
15.170000,0.6364,0.0807,5.7623,5.798
15.216000,0.9835,-0.0842,5.9806,6.062
15.217000,1.2501,-0.2371,5.9631,6.097
15.217000,1.5479,-0.3498,5.7367,5.952
15.218000,1.7564,-0.3913,5.3688,5.662
15.219000,1.8226,-0.4669,4.9573,5.302
15.219000,1.7767,-0.5260,4.4544,4.824
15.220000,1.7653,-0.5683,3.9389,4.354
15.220000,1.7793,-0.6387,3.3362,3.835
15.221000,1.6971,-0.6988,2.6489,3.223
15.221000,1.6431,-0.6804,1.7519,2.496
15.226000,1.5786,-0.7003,0.8579,1.928
15.234000,1.4768,-0.7212,0.0234,1.644
15.235000,1.3178,-0.7612,-0.8338,1.735
15.241000,1.1819,-0.7860,-1.6806,2.200
15.244000,1.1399,-0.7704,-2.4609,2.819
15.250000,1.0264,-0.8335,-3.1056,3.375
15.255000,0.9199,-0.9385,-3.6396,3.870
15.260000,0.8728,-0.9553,-4.0328,4.235
15.265000,0.8036,-0.9892,-4.3546,4.537
15.270000,0.7092,-1.1021,-4.5793,4.763
15.276000,0.6204,-1.2075,-4.5947,4.791
15.280000,0.5042,-1.3921,-4.5083,4.745
15.284000,0.3555,-1.6035,-4.4324,4.727
15.289000,0.2793,-1.7537,-4.3786,4.725
15.344000,0.2588,-1.8644,-4.2893,4.684
15.346000,0.2794,-1.9460,-4.1066,4.553
15.348000,0.2986,-2.0942,-3.9070,4.443
15.349000,0.2806,-2.2140,-3.8215,4.425
15.351000,0.2379,-2.3104,-3.8379,4.486
15.352000,0.2398,-2.3547,-3.9321,4.590
15.353000,0.2642,-2.4690,-4.0562,4.756
15.354000,0.3327,-2.5594,-4.1506,4.888
15.355000,0.4047,-2.6380,-4.2224,4.995
15.356000,0.5259,-2.6689,-4.2288,5.028
15.357000,0.6463,-2.6451,-4.2055,5.010
15.359000,0.6876,-2.6432,-4.2336,5.038
15.360000,0.6381,-2.6560,-4.1460,4.965
15.361000,0.5938,-2.7077,-4.0140,4.878
15.364000,0.4730,-2.7361,-3.7995,4.706
15.369000,0.2785,-2.7349,-3.5521,4.492
15.374000,0.0557,-2.7074,-3.2592,4.237
15.378000,-0.1041,-2.6224,-2.7753,3.820
15.383000,-0.2171,-2.5384,-2.2600,3.406
15.388000,-0.2788,-2.4753,-1.7630,3.052
15.397000,-0.2778,-2.3766,-1.4560,2.801
15.399000,-0.2643,-2.3388,-1.1731,2.630
15.403000,-0.1885,-2.2998,-0.9288,2.487
15.453000,-0.0340,-2.2841,-0.7058,2.391
15.454000,0.0416,-2.2581,-0.5042,2.314
15.454000,0.0693,-2.1699,-0.3906,2.206
15.454000,0.0989,-2.0795,-0.3217,2.107
15.458000,0.0849,-1.9727,-0.2688,1.993
15.459000,0.1516,-1.8135,-0.3012,1.845
15.460000,0.2873,-1.6665,-0.4405,1.748
15.460000,0.4376,-1.5048,-0.7490,1.737
15.463000,0.5932,-1.3490,-1.1218,1.852
15.463000,0.6830,-1.1650,-1.5784,2.077
15.464000,0.6809,-1.0042,-1.9665,2.311
15.464000,0.6371,-0.8636,-2.2793,2.519
15.468000,0.5752,-0.6994,-2.3597,2.527
15.472000,0.4852,-0.5326,-2.3875,2.494
15.477000,0.4390,-0.3343,-2.3846,2.448
15.483000,0.4243,-0.1645,-2.2910,2.336
15.488000,0.3596,-0.0107,-2.2221,2.251
15.494000,0.2662,0.1464,-2.2304,2.251
15.501000,0.2537,0.3165,-2.1918,2.229
15.503000,0.2310,0.4829,-2.1349,2.201
15.551000,0.2223,0.6125,-1.9501,2.056
15.553000,0.3140,0.8227,-1.6998,1.914
15.553000,0.4606,0.9888,-1.4079,1.781
15.554000,0.6549,1.1489,-1.1388,1.745
15.554000,0.8845,1.2504,-0.8280,1.741
15.554000,1.0470,1.3289,-0.5924,1.793
15.555000,1.1166,1.4228,-0.2862,1.831
15.556000,1.1416,1.5321,-0.0434,1.911
15.557000,1.1849,1.6929,0.2317,2.079
15.557000,1.1415,1.8260,0.4937,2.209
15.558000,1.1119,1.9292,0.7305,2.343
15.562000,1.1057,2.0074,0.9636,2.486
15.568000,1.0366,2.1035,1.2984,2.681
15.576000,0.9047,2.1389,1.5170,2.774
15.579000,0.6760,2.1997,1.7368,2.883
15.582000,0.4980,2.2522,1.8979,2.987
15.587000,0.3817,2.2726,2.0794,3.104
15.592000,0.2095,2.3042,2.2810,3.249
15.597000,0.0364,2.2659,2.4811,3.360
15.603000,-0.1359,2.1910,2.5723,3.382
15.608000,-0.2527,2.1563,2.8104,3.551
15.612000,-0.3774,2.1637,3.0089,3.725
15.617000,-0.4503,2.1558,3.3519,4.011
15.621000,-0.4019,2.1132,3.7249,4.301
15.653000,-0.2609,2.0689,3.9582,4.474
15.654000,-0.1180,2.0225,4.2844,4.739
15.655000,-0.0255,1.9392,4.6228,5.013
15.656000,-0.0328,1.8496,4.9093,5.246
15.657000,0.0451,1.8201,5.0272,5.347
15.658000,0.1560,1.8116,5.0083,5.328
15.658000,0.1902,1.7499,4.8263,5.137
15.662000,0.1872,1.6328,4.6370,4.920
15.668000,0.2870,1.5875,4.3300,4.621
15.671000,0.3591,1.5620,3.9171,4.232
15.677000,0.2966,1.5187,3.4672,3.797
15.681000,0.1478,1.4655,3.0708,3.406
15.686000,0.0324,1.3748,2.6579,2.993
15.693000,-0.0401,1.3193,2.3330,2.681
15.696000,-0.1303,1.2638,2.0359,2.400
15.701000,-0.2966,1.1804,1.9143,2.268
