SensorId, TimeStamp (s), FrameNumber, AccX (g), AccY (g), AccZ (g), GyroX (deg/s), GyroY (deg/s), GyroZ (deg/s), MagX (uT), MagY (uT), MagZ (uT), EulerX (deg), EulerY (deg), EulerZ (deg), QuatW, QuatX, QuatY, QuatZ, LinAccX (g), LinAccY (g), LinAccZ (g), Pressure (kPa), Altitude (m), Temperature (degC), HeaveMotion (m)
1, -0.0002, 0, -0.22216809, -0.97171390, 0.27661353, 2.39191079, 16.81655884, 6.74823666, 1.05232382, 8.79859638, -126.51271057, 108.08338165, -11.00971317, 147.49580383, -0.08903060, 0.27956897, 0.75774980, 0.58286363, 0.03074873, 0.03810555, 0.02595166, 100.44400787, 73.59517670, 32.18999863, 0.00000000
1, 0.0002, 0, -0.09344482, -1.02703857, 0.26806641, -2.17492270, 24.69031906, 0.43367282, -3.18620276, 19.46799088, -103.97544098, 88.00804138, 6.56391573, 33.30399704, -0.69939303, 0.65268284, 0.23819998, 0.16767661, 0.20775026, 0.03419364, -0.30261025, 100.36500549, 80.22028351, 31.37999916, 0.00000000
1, 0.0048, 1, -0.20577413, -0.98027742, 0.26618454, 2.45853281, 17.13630867, 6.50964499, 1.14001751, 6.54779291, -126.51271057, 108.08182526, -11.06709862, 147.56858826, -0.08826878, 0.27935651, 0.75780010, 0.58301586, 0.01339433, 0.04686032, 0.03632139, 100.44400787, 73.59517670, 32.18999863, 0.00000000
1, 0.0098, 2, -0.18975876, -0.97451580, 0.27602595, 2.68967366, 18.53921700, 6.18961954, 1.14001751, 6.54779291, -126.51271057, 108.07991028, -11.12512684, 147.64869690, -0.08746596, 0.27909836, 0.75786507, 0.58317614, -0.00363203, 0.04125731, 0.02644190, 100.44400787, 73.59517670, 32.18999863, 0.00000000
1, 0.0052, 1, -0.08123779, -1.02221680, 0.26782227, -2.62992287, 24.86531830, 0.71367294, -3.18620276, 19.46799088, -103.97544098, 88.00920105, 6.56467056, 33.42919540, -0.69920379, 0.65242767, 0.23891906, 0.16843376, 0.19556190, 0.02937296, -0.30233541, 100.36500549, 80.22028351, 31.37999916, 0.00000000
1, 0.0102, 2, -0.07690430, -1.02050781, 0.26440430, -3.78492332, 25.74032021, 1.27367306, -3.18620276, 19.46799088, -103.97544098, 88.00510406, 6.56277800, 33.55888748, -0.69903338, 0.65213591, 0.23964012, 0.16924472, 0.19120429, 0.02766300, -0.29896852, 100.36500549, 80.22028351, 31.37999916, 0.00000000
1, 0.0302, 3, -0.06323242, -1.02136230, 0.29772949, -2.90992284, 32.95032501, 0.74867290, -2.51388478, 19.17568016, -103.47851563, 88.00919342, 6.56145334, 34.16558075, -0.69810241, 0.65088582, 0.24308778, 0.17294243, 0.17749161, 0.02851171, -0.33226293, 100.36500549, 80.22028351, 31.37999916, 0.00000000
1, 0.0352, 4, -0.04333496, -1.02484131, 0.30688477, -2.62992287, 33.23032379, 0.46867281, -2.51388478, 19.17568016, -103.47851563, 88.01516724, 6.56487131, 34.33280945, -0.69782037, 0.65055925, 0.24406655, 0.17392817, 0.15764751, 0.03199345, -0.34132037, 100.36500549, 80.22028351, 31.37999916, 0.00000000
1, 0.0498, 3, -0.17159711, -0.95456266, 0.29051504, 2.49424839, 23.02161789, 6.57936478, 1.28617358, 9.61707115, -125.46038818, 108.02080536, -11.60666752, 148.32539368, -0.08084061, 0.27684689, 0.75820428, 0.58476228, -0.03003504, 0.02254038, 0.01058087, 100.44400787, 73.59517670, 32.18999863, 0.00000000
1, 0.0548, 4, -0.17471026, -0.96236587, 0.28028691, 2.33119869, 21.89530945, 7.01027250, 1.28617358, 9.44168377, -125.28500366, 108.01330566, -11.67367744, 148.42074585, -0.07990965, 0.27652660, 0.75825691, 0.58497351, -0.02804344, 0.03054491, 0.02059342, 100.44400787, 73.59517670, 32.18999863, 0.00000000
1, 0.0598, 5, -0.18100458, -0.95727396, 0.28551117, 1.90957654, 21.50444221, 7.18158388, 1.28617358, 9.44168377, -125.28500366, 108.00402832, -11.74089813, 148.51394653, -0.07899222, 0.27622032, 0.75829464, 0.58519399, -0.02290663, 0.02562294, 0.01514479, 100.44400787, 73.59517670, 32.18999863, 0.00000000
1, 0.0648, 6, -0.17863195, -0.95427728, 0.29315597, 2.11468530, 22.23315811, 7.37160397, 1.28617358, 9.44168377, -125.28500366, 107.99499512, -11.81012726, 148.61044312, -0.07804327, 0.27590200, 0.75833690, 0.58541650, -0.02647443, 0.02279831, 0.00728682, 100.44400787, 73.59517670, 32.18999863, 0.00000000
1, 0.0698, 7, -0.15867485, -0.94532621, 0.29861307, 1.93205822, 22.67908287, 7.59487057, 1.08155513, 9.55860806, -125.28500366, 107.98456573, -11.88107777, 148.70880127, -0.07707597, 0.27557868, 0.75837272, 0.58565050, -0.04764951, 0.01402509, 0.00165212, 100.44400787, 73.59517670, 32.18999863, 0.00000000
1, 0.0402, 5, -0.02520752, -1.02722168, 0.31134033, -2.90992284, 32.21532059, 0.53867286, -2.51388478, 19.11721611, -103.01081085, 88.01915741, 6.56775141, 34.49494171, -0.69755512, 0.65023130, 0.24500982, 0.17488986, 0.13957419, 0.03437714, -0.34569255, 100.36500549, 80.22028351, 31.37999916, 0.00000000
1, 0.0452, 6, -0.02130127, -1.02447510, 0.31732178, -3.32992315, 30.64032173, 0.50367284, -2.51388478, 19.11721611, -103.01081085, 88.02014160, 6.57053137, 34.64915085, -0.69731754, 0.64990085, 0.24590248, 0.17580993, 0.13571566, 0.03163514, -0.35164714, 100.36500549, 80.22028351, 31.37999916, 0.00000000
1, 0.0502, 7, -0.01037598, -1.02130127, 0.32098389, -3.50492311, 30.39532280, 0.25867277, -2.33849740, 19.61414719, -103.12773895, 88.02012634, 6.57449007, 34.80208588, -0.69708824, 0.64956325, 0.24679287, 0.17671719, 0.12485295, 0.02846837, -0.35530478, 100.36500549, 80.22028351, 31.37999916, 0.00000000
1, 0.0552, 8, -0.00158691, -1.02331543, 0.32025146, -3.78492332, 30.11532211, -0.16132739, -2.33849740, 19.61414719, -103.12773895, 88.01853943, 6.58049822, 34.95354080, -0.69687188, 0.64921355, 0.24768399, 0.17760643, 0.11615624, 0.03049389, -0.35459086, 100.36500549, 80.22028351, 31.37999916, 0.00000000
1, 0.0602, 9, 0.00067139, -1.02423096, 0.31921387, -4.37992334, 29.27532196, -0.68632758, -2.33849740, 19.61414719, -103.12773895, 88.01350403, 6.58899546, 35.10068130, -0.69668436, 0.64884555, 0.24855946, 0.17846206, 0.11403668, 0.03142786, -0.35362431, 100.36500549, 80.22028351, 31.37999916, 0.00000000
1, 0.0652, 10, 0.00726318, -1.01483154, 0.31311035, -4.90492344, 28.75032234, -1.14132774, -2.19234133, 19.29260445, -103.12773895, 88.00556946, 6.59969378, 35.24510574, -0.69651967, 0.64845961, 0.24942733, 0.17929435, 0.10762010, 0.02205304, -0.34764421, 100.36500549, 80.22028351, 31.37999916, 0.00000000
1, 0.0748, 8, -0.15151031, -0.94240606, 0.29421282, 1.41065860, 21.76012993, 7.96517801, 1.08155513, 9.55860806, -125.28500366, 107.97245789, -11.95237541, 148.80212402, -0.07613570, 0.27528927, 0.75838691, 0.58589131, -0.05602092, 0.01129509, 0.00580743, 100.44400787, 73.59517670, 32.18999863, 0.00000000
1, 0.0798, 9, -0.17680222, -0.93842721, 0.29941693, 1.13861537, 20.77710915, 8.19057655, 1.49079216, 8.62320995, -125.05115509, 107.95992279, -12.02321625, 148.89036560, -0.07522532, 0.27503124, 0.75838733, 0.58612949, -0.03195038, 0.00748513, 0.00026363, 100.44400787, 73.59517670, 32.18999863, 0.00000000
1, 0.0848, 10, -0.20338653, -0.93579125, 0.30921546, 1.03726828, 20.38742447, 8.42794228, 1.49079216, 8.62320995, -125.05115509, 107.94722748, -12.09457970, 148.97636414, -0.07432287, 0.27479050, 0.75838017, 0.58636659, -0.00660626, 0.00501460, -0.00987808, 100.44400787, 73.59517670, 32.18999863, 0.00000000
1, 0.0702, 11, 0.00762939, -1.00445557, 0.30810547, -4.97492361, 28.26032066, -1.31632769, -2.19234133, 19.29260445, -103.12773895, 87.99700928, 6.61120129, 35.38703537, -0.69636267, 0.64807248, 0.25028434, 0.18010797, 0.10745053, 0.01170495, -0.34278750, 100.36500549, 80.22028351, 31.37999916, 0.00000000
1, 0.0752, 12, 0.00097656, -1.00018311, 0.30889893, -5.11492395, 27.70031929, -1.63132787, -2.30926633, 18.85413551, -103.21543121, 87.98747253, 6.62420225, 35.52608871, -0.69621712, 0.64768112, 0.25113174, 0.18089743, 0.11432315, 0.00746355, -0.34373951, 100.36500549, 80.22028351, 31.37999916, 0.00000000
1, 0.0898, 11, -0.22792925, -0.94041288, 0.30859739, 0.63739079, 21.14556503, 8.62636566, 1.49079216, 8.62320995, -125.05115509, 107.93174744, -12.16802788, 149.06578064, -0.07339498, 0.27453542, 0.75836235, 0.58662611, 0.01669268, 0.00981295, -0.00965326, 100.44400787, 73.59517670, 32.18999863, 0.00000000
1, 0.0948, 12, -0.23518705, -0.94755006, 0.31880686, 0.48310068, 22.12144852, 8.54643250, 1.54925454, 9.58784008, -125.02191925, 107.91606140, -12.24414921, 149.15983582, -0.07242502, 0.27426237, 0.75834882, 0.58689189, 0.02264727, 0.01711244, -0.02023557, 100.44400787, 73.59517670, 32.18999863, 0.00000000
1, 0.1252, 13, -0.07110596, -0.98242188, 0.32598877, -5.04492378, 21.54031944, -1.42132783, -2.07541656, 19.46799088, -102.57234955, 87.86730194, 6.76804161, 36.65463638, -0.69530129, 0.64411592, 0.25814170, 0.18717319, 0.18890871, -0.00992930, -0.36288929, 100.36500549, 80.22028351, 31.37999916, 0.00000000
1, 0.1302, 14, -0.07165527, -0.98266602, 0.32513428, -5.21992397, 21.01531792, -1.10632765, -2.07541656, 19.46799088, -102.57234955, 87.85365295, 6.77749205, 36.76017380, -0.69521999, 0.64377320, 0.25876763, 0.18778896, 0.18962982, -0.00965611, -0.36226594, 100.36500549, 80.22028351, 31.37999916, 0.00000000
1, 0.1352, 15, -0.06793213, -0.98455811, 0.32867432, -5.28992367, 20.38531876, -0.79132766, -2.07541656, 19.46799088, -102.57234955, 87.83928680, 6.78527832, 36.86258698, -0.69514459, 0.64343643, 0.25936475, 0.18839718, 0.18604961, -0.00773794, -0.36604929, 100.36500549, 80.22028351, 31.37999916, 0.00000000
1, 0.1402, 16, -0.05999756, -0.98547363, 0.32586670, -5.35992336, 20.10531807, -0.68632758, -1.90002918, 19.23414230, -102.36772919, 87.82442474, 6.79251385, 36.96362686, -0.69507295, 0.64310050, 0.25994971, 0.18900144, 0.17824197, -0.00679761, -0.36349821, 100.36500549, 80.22028351, 31.37999916, 0.00000000
1, 0.1452, 17, -0.04785156, -0.98791504, 0.32110596, -5.39492369, 20.21031761, -0.37132746, -1.90002918, 19.23414230, -102.36772919, 87.80947113, 6.79822016, 37.06525421, -0.69499791, 0.64276570, 0.26052850, 0.18961844, 0.16620064, -0.00433388, -0.35899514, 100.36500549, 80.22028351, 31.37999916, 0.00000000
1, 0.1148, 13, -0.20135279, -0.93888247, 0.33921689, 0.06112827, 24.53478622, 7.97838879, 1.25694239, 9.50014591, -125.25577545, 107.82692719, -12.55078793, 149.58912659, -0.06831780, 0.27281561, 0.75827754, 0.58814919, -0.01647996, 0.00905136, -0.04231102, 100.44400787, 73.59517670, 32.18999863, 0.00000000
1, 0.1198, 14, -0.19817172, -0.93524539, 0.34097934, 0.02273951, 24.77729797, 8.01970959, 1.34463608, 8.62320995, -125.31423187, 107.80350494, -12.62669563, 149.69754028, -0.06729223, 0.27244335, 0.75825703, 0.58846629, -0.02095491, 0.00556285, -0.04452772, 100.44400787, 73.59517670, 32.18999863, 0.00000000
1, 0.1502, 18, -0.03686523, -0.99108887, 0.31256104, -5.77992392, 20.10531807, -0.33632743, -2.66004086, 19.23414230, -102.42619324, 87.79254913, 6.80375719, 37.16635132, -0.69493395, 0.64241999, 0.26109970, 0.19023772, 0.15531024, -0.00113770, -0.35073346, 100.36500549, 80.22028351, 31.37999916, 0.00000000
1, 0.1552, 19, -0.02740479, -0.99420166, 0.30187988, -6.09492397, 19.47531700, -0.51132751, -2.66004086, 19.23414230, -102.42619324, 87.77368164, 6.81007767, 37.26424026, -0.69488692, 0.64206749, 0.26165387, 0.19083749, 0.14595377, 0.00199965, -0.34036773, 100.36500549, 80.22028351, 31.37999916, 0.00000000
1, 0.1602, 20, -0.02593994, -0.99243164, 0.29510498, -6.86492443, 18.91531754, -0.68632758, -2.66004086, 19.23414230, -102.42619324, 87.75061798, 6.81720018, 37.35928345, -0.69486874, 0.64169371, 0.26218933, 0.19142491, 0.14460996, 0.00025851, -0.33396322, 100.36500549, 80.22028351, 31.37999916, 0.00000000
1, 0.1248, 15, -0.22432867, -0.93899238, 0.33625317, 0.22756399, 22.61239433, 8.31602192, 1.34463608, 8.62320995, -125.31423187, 107.78339386, -12.70067406, 149.79498291, -0.06632806, 0.27213681, 0.75823116, 0.58875102, 0.00394311, 0.00947930, -0.04030145, 100.44400787, 73.59517670, 32.18999863, 0.00000000
1, 0.1298, 16, -0.24467440, -0.95518255, 0.29894450, -0.46432438, 21.03549004, 8.46250439, 1.69541073, 8.88629055, -124.87576294, 107.76142120, -12.77293587, 149.88455200, -0.06542037, 0.27187353, 0.75818014, 0.58903980, 0.02314455, 0.02588684, -0.00349758, 100.44400787, 73.59517670, 32.18999863, 0.00000000
1, 0.1348, 17, -0.25018477, -0.94488120, 0.25117716, -1.54607427, 22.21449471, 8.29406357, 1.69541073, 8.88629055, -124.87576294, 107.73260498, -12.84615040, 149.98019409, -0.06449074, 0.27157104, 0.75810611, 0.58937716, 0.02753785, 0.01579061, 0.04374900, 100.44400787, 73.59517670, 32.18999863, 0.00000000
1, 0.1652, 21, -0.02526855, -0.98815918, 0.28387451, -8.08992481, 17.79531670, -1.00132763, -2.66004086, 17.80181122, -102.42619324, 87.72077179, 6.82572460, 37.44862366, -0.69489986, 0.64128798, 0.26268923, 0.19198526, 0.14408067, -0.00397754, -0.32322580, 100.36500549, 80.22028351, 31.37999916, 0.00000000
1, 0.1398, 18, -0.23356909, -0.92239726, 0.25606284, -0.80713725, 25.77780342, 8.12422562, 1.69541073, 8.88629055, -124.87576294, 107.70336151, -12.92389965, 150.09359741, -0.06343897, 0.27117267, 0.75806201, 0.58973122, 0.00960806, -0.00657155, 0.03837098, 100.44400787, 73.59517670, 32.18999863, 0.00000000
1, 0.1448, 19, -0.19804533, -0.91793859, 0.27535126, -0.50811422, 27.49045563, 7.98597908, 1.90002918, 6.16778708, -125.51885223, 107.67250061, -13.00051594, 150.21582031, -0.06235297, 0.27071023, 0.75803232, 0.59009761, -0.02729291, -0.01092524, 0.01860098, 100.44400787, 73.59517670, 32.18999863, 0.00000000
1, 0.1498, 20, -0.17176795, -0.90983605, 0.26868224, -1.31412721, 26.44390869, 7.76098156, 1.90002918, 6.16778708, -125.51885223, 107.63952637, -13.07743549, 150.33319092, -0.06129435, 0.27028078, 0.75797909, 0.59047365, -0.05484661, -0.01890142, 0.02472561, 100.44400787, 73.59517670, 32.18999863, 0.00000000
1, 0.1548, 21, -0.16661294, -0.90568829, 0.25556546, -1.01056683, 25.00426865, 8.35374260, 1.92926037, 8.76936531, -125.40192413, 107.60972595, -13.15493488, 150.44267273, -0.06026430, 0.26990831, 0.75792187, 0.59082329, -0.06127949, -0.02289639, 0.03726817, 100.44400787, 73.59517670, 32.18999863, 0.00000000
1, 0.1598, 22, -0.19044778, -0.91272759, 0.26698568, -0.71339118, 24.11906815, 9.06495667, 1.92926037, 8.76936531, -125.40192413, 107.58250427, -13.23443794, 150.54679871, -0.05924155, 0.26958269, 0.75786078, 0.59115374, -0.03881653, -0.01571718, 0.02523744, 100.44400787, 73.59517670, 32.18999863, 0.00000000
1, 0.1702, 22, -0.02996826, -0.98358154, 0.27734375, -8.96492481, 17.13031578, -1.03632772, -2.66004086, 17.80181122, -102.42619324, 87.68617249, 6.83433580, 37.53460693, -0.69496280, 0.64086056, 0.26316243, 0.19253583, 0.14893156, -0.00851366, -0.31727815, 100.36500549, 80.22028351, 31.37999916, 0.00000000
1, 0.2252, 23, -0.08349609, -0.95611572, 0.33917236, -9.38492393, 10.20031548, 9.04367542, -2.10464764, 18.91259766, -101.95848846, 87.24745941, 6.63805676, 38.23455048, -0.69589853, 0.63705140, 0.26516992, 0.19893669, 0.19928271, -0.03602094, -0.38669384, 100.36500549, 80.22028351, 31.37999916, 0.00000000
1, 0.2302, 24, -0.08483887, -0.96392822, 0.32611084, -9.83992577, 9.74531460, 9.67367649, -2.10464764, 18.91259766, -101.95848846, 87.20417786, 6.59210682, 38.28590393, -0.69597512, 0.63677979, 0.26511145, 0.19961508, 0.19984308, -0.02826373, -0.37437230, 100.36500549, 80.22028351, 31.37999916, 0.00000000
1, 0.2352, 25, -0.08856201, -0.96868896, 0.31878662, -10.25992489, 8.55531502, 10.30367565, -2.63080978, 18.97106171, -101.69541168, 87.15808105, 6.54275656, 38.33145905, -0.69607133, 0.63651264, 0.26499552, 0.20028429, 0.20272519, -0.02356121, -0.36784208, 100.36500549, 80.22028351, 31.37999916, 0.00000000
1, 0.2198, 23, -0.26953387, -0.90461504, 0.28593469, -3.09798002, 15.89741611, 11.17773628, 1.66617942, 9.64630222, -124.43729401, 107.27433014, -14.19102955, 151.40405273, -0.04891374, 0.26832101, 0.75627136, 0.59469748, 0.02399102, -0.02164989, -0.00005363, 100.44400787, 73.59517670, 32.18999863, 0.00000000
1, 0.2248, 24, -0.25192717, -0.90268278, 0.32102621, -2.83577752, 17.68270302, 10.90148258, 1.66617942, 9.64630222, -124.43729401, 107.24293518, -14.26923752, 151.47459412, -0.04808020, 0.26821458, 0.75610840, 0.59502041, 0.00497662, -0.02347719, -0.03570163, 100.44400787, 73.59517670, 32.18999863, 0.00000000
1, 0.2402, 26, -0.08990479, -0.97778320, 0.31170654, -10.60992527, 7.68031454, 10.82867622, -2.63080978, 18.97106171, -101.69541168, 87.10971832, 6.49060440, 38.37278366, -0.69618237, 0.63624829, 0.26483524, 0.20094907, 0.20317513, -0.01452771, -0.36159456, 100.36500549, 80.22028351, 31.37999916, 0.00000000
1, 0.2452, 27, -0.09283447, -0.98510742, 0.30560303, -11.02992630, 7.05031395, 11.42367649, -2.63080978, 18.97106171, -101.69541168, 87.05889130, 6.43535089, 38.41114044, -0.69630677, 0.63598329, 0.26463547, 0.20161922, 0.20515914, -0.00726667, -0.35636520, 100.36500549, 80.22028351, 31.37999916, 0.00000000
1, 0.2502, 28, -0.09289551, -0.98791504, 0.29602051, -11.48492527, 6.77031374, 11.94867611, -2.45542240, 19.70184135, -102.45542145, 87.00560760, 6.37744236, 38.44826508, -0.69644195, 0.63571256, 0.26440847, 0.20230265, 0.20422800, -0.00452337, -0.34770310, 100.36500549, 80.22028351, 31.37999916, 0.00000000
1, 0.2298, 25, -0.23081896, -0.92210019, 0.32385239, -2.78932571, 16.84094048, 11.16124535, 2.22157264, 9.82168961, -124.11575317, 107.21279907, -14.34741497, 151.54064941, -0.04726703, 0.26813856, 0.75594139, 0.59533197, -0.01746085, -0.00389393, -0.03909459, 100.44400787, 73.59517670, 32.18999863, 0.00000000
1, 0.2348, 26, -0.23885487, -0.93024635, 0.29097536, -3.43591452, 14.49438953, 11.46406555, 2.22157264, 9.82168961, -124.11575317, 107.18232727, -14.42355919, 151.59474182, -0.04653071, 0.26813209, 0.75574863, 0.59563750, -0.01064737, 0.00447134, -0.00684603, 100.44400787, 73.59517670, 32.18999863, 0.00000000
1, 0.2398, 27, -0.26126993, -0.92791426, 0.25343281, -3.91651654, 13.15637684, 11.89397049, 1.43232965, 9.90938282, -123.94036865, 107.15118408, -14.49975872, 151.64166260, -0.04583286, 0.26817340, 0.75553519, 0.59594381, 0.01058544, 0.00236185, 0.03005257, 100.44400787, 73.59517670, 32.18999863, 0.00000000
1, 0.2448, 28, -0.26183397, -0.91405451, 0.25067183, -3.94205809, 15.27971458, 11.94490719, 1.43232965, 9.90938282, -123.94036865, 107.11421204, -14.58070183, 151.69972229, -0.04505772, 0.26816180, 0.75530726, 0.59629709, 0.00981260, -0.01133409, 0.03217070, 100.44400787, 73.59517670, 32.18999863, 0.00000000
1, 0.2498, 29, -0.25264469, -0.90577579, 0.25165594, -4.15145779, 14.93139458, 11.86916542, 1.43232965, 9.90938282, -123.94036865, 107.07952118, -14.65933990, 151.75553894, -0.04430475, 0.26815537, 0.75509036, 0.59663087, -0.00072839, -0.01945838, 0.03053525, 100.44400787, 73.59517670, 32.18999863, 0.00000000
1, 0.2548, 30, -0.24818939, -0.88635254, 0.24728768, -4.53490067, 14.29968357, 11.92909431, 1.60771704, 9.70476437, -124.34960175, 107.04361725, -14.73730278, 151.80824280, -0.04357544, 0.26816636, 0.75486112, 0.59696972, -0.00648595, -0.03872244, 0.03426942, 100.44400787, 73.59517670, 32.18999863, 0.00000000
1, 0.2552, 29, -0.09149170, -0.98846436, 0.28625488, -11.55492496, 6.77031374, 12.40367699, -2.45542240, 19.70184135, -102.45542145, 86.95195007, 6.31729937, 38.48556900, -0.69657469, 0.63544452, 0.26416808, 0.20300059, 0.20178984, -0.00404039, -0.33887279, 100.36500549, 80.22028351, 31.37999916, 0.00000000
1, 0.2602, 30, -0.08660889, -0.98870850, 0.27880859, -11.62492657, 7.12031317, 12.78867626, -2.57234716, 19.73107338, -102.10464478, 86.89813232, 6.25535774, 38.52478027, -0.69670141, 0.63517535, 0.26392686, 0.20372061, 0.19583653, -0.00386459, -0.33236304, 100.36500549, 80.22028351, 31.37999916, 0.00000000
1, 0.2598, 31, -0.21212661, -0.86536241, 0.27176139, -2.66838932, 15.91016865, 12.25919056, 1.60771704, 9.70476437, -124.34960175, 107.01506805, -14.81914234, 151.86846924, -0.04276276, 0.26814938, 0.75467920, 0.59726602, -0.04397228, -0.05956214, 0.00931617, 100.44400787, 73.59517670, 32.18999863, 0.00000000
1, 0.2952, 31, -0.03527832, -0.94555664, 0.29595947, -13.58492661, 7.99531460, 12.54367733, -3.15697169, 17.94796753, -103.01081085, 86.46656799, 5.83295965, 38.85059738, -0.69779867, 0.63281375, 0.26247028, 0.20912492, 0.13716957, -0.04736462, -0.35699588, 100.36500549, 80.22028351, 31.37999916, 0.00000000
1, 0.3002, 32, -0.03906250, -0.93945313, 0.31274414, -13.33992672, 7.75031376, 12.64867592, -2.13387895, 19.52645493, -101.92926025, 86.40419769, 5.77224970, 38.89342117, -0.69796258, 0.63248146, 0.26223516, 0.20987672, 0.13989809, -0.05350814, -0.37487227, 100.36500549, 80.22028351, 31.37999916, 0.00000000
1, 0.3052, 33, -0.04510498, -0.94134521, 0.32690430, -12.60492516, 8.06531429, 12.68367672, -2.13387895, 19.52645493, -101.92926025, 86.34561157, 5.71151304, 38.93789673, -0.69810182, 0.63216859, 0.26201525, 0.21062970, 0.14488801, -0.05165656, -0.39007652, 100.36500549, 80.22028351, 31.37999916, 0.00000000
1, 0.3102, 34, -0.05004883, -0.94708252, 0.33325195, -12.11492538, 8.52031517, 12.64867592, -3.09850907, 19.73107338, -102.45542145, 86.28966522, 5.65113878, 38.98470306, -0.69822210, 0.63186556, 0.26181442, 0.21138841, 0.14878103, -0.04596136, -0.39740577, 100.36500549, 80.22028351, 31.37999916, 0.00000000
1, 0.3152, 35, -0.06060791, -0.96081543, 0.33679199, -11.83492565, 8.52031517, 12.54367733, -3.09850907, 19.73107338, -102.45542145, 86.23507690, 5.59133339, 39.03152466, -0.69833517, 0.63156945, 0.26161891, 0.21214059, 0.15830137, -0.03226877, -0.40190431, 100.36500549, 80.22028351, 31.37999916, 0.00000000
1, 0.2648, 32, -0.17972678, -0.88121259, 0.29248035, -1.69311190, 14.85443783, 13.06286430, 1.84156680, 10.02630806, -124.34960175, 106.99295044, -14.90325546, 151.92233276, -0.04195240, 0.26818794, 0.75451076, 0.59751886, -0.07783754, -0.04350295, -0.01183473, 100.44400787, 73.59517670, 32.18999863, 0.00000000
1, 0.3202, 36, -0.08239746, -0.98168945, 0.33752441, -11.79992580, 8.62531567, 12.57867718, -3.09850907, 19.73107338, -102.45542145, 86.18066406, 5.53143263, 39.07893372, -0.69844526, 0.63127345, 0.26142576, 0.21289615, 0.17905003, -0.01143372, -0.40358967, 100.36500549, 80.22028351, 31.37999916, 0.00000000
1, 0.3252, 37, -0.11968994, -1.01153564, 0.34020996, -11.65992546, 8.94031525, 12.54367638, -3.62467122, 19.05875397, -102.33849335, 86.12706757, 5.47185850, 39.12797165, -0.69854766, 0.63097787, 0.26124433, 0.21365759, 0.21530524, 0.01837501, -0.40721464, 100.36500549, 80.22028351, 31.37999916, 0.00000000
1, 0.3302, 38, -0.15435791, -1.04193115, 0.34008789, -11.79992580, 9.81531525, 12.43867683, -3.62467122, 19.05875397, -102.33849335, 86.07312775, 5.41314602, 39.18139648, -0.69864446, 0.63066828, 0.26109090, 0.21444134, 0.24894989, 0.04873626, -0.40803000, 100.36500549, 80.22028351, 31.37999916, 0.00000000
1, 0.2948, 33, -0.19322857, -0.91494298, 0.32830462, -2.23727536, 13.51868153, 16.29780579, 1.72464192, 10.14323330, -124.20344543, 106.87566376, -15.43797779, 152.16131592, -0.03728472, 0.26912758, 0.75331324, 0.59891516, -0.07344514, -0.00808374, -0.05039206, 100.44400787, 73.59517670, 32.18999863, 0.00000000
1, 0.2998, 34, -0.19050206, -0.90364182, 0.33210346, -1.97524631, 12.53541088, 16.72671127, 1.72464192, 10.14323330, -124.20344543, 106.85604095, -15.53616238, 152.19853210, -0.03645778, 0.26934528, 0.75308663, 0.59915322, -0.07776256, -0.01906019, -0.05458201, 100.44400787, 73.59517670, 32.18999863, 0.00000000
1, 0.3048, 35, -0.19357204, -0.90719783, 0.33939344, -0.38504013, 10.58420086, 17.32595444, 1.66617942, 9.35398960, -123.91113281, 106.84716797, -15.63437653, 152.22521973, -0.03566051, 0.26963592, 0.75289083, 0.59931654, -0.07636024, -0.01513220, -0.06220253, 100.44400787, 73.59517670, 32.18999863, 0.00000000
1, 0.3098, 36, -0.20187475, -0.93113434, 0.34028322, 0.02908173, 8.83139610, 17.94489479, 1.66617942, 9.35398960, -123.91113281, 106.84292603, -15.73301697, 152.24229431, -0.03489963, 0.26999319, 0.75269538, 0.59944600, -0.06971555, 0.00922330, -0.06336497, 100.44400787, 73.59517670, 32.18999863, 0.00000000
1, 0.3148, 37, -0.21710482, -0.95432448, 0.34242558, 0.29893324, 10.14665604, 18.39343452, 1.57848585, 9.58784008, -123.67728424, 106.83841705, -15.83570004, 152.26522827, -0.03408066, 0.27033094, 0.75250310, 0.59958225, -0.05619187, 0.03284711, -0.06579614, 100.44400787, 73.59517670, 32.18999863, 0.00000000
1, 0.3198, 38, -0.22576098, -1.00197017, 0.34333301, 0.23577024, 9.64201736, 19.08325386, 1.57848585, 9.58784008, -123.67728424, 106.83451080, -15.94096184, 152.28465271, -0.03326085, 0.27070421, 0.75229961, 0.59971511, -0.04930389, 0.08095308, -0.06700923, 100.44400787, 73.59517670, 32.18999863, 0.00000000
1, 0.3352, 39, -0.16943359, -1.06341553, 0.33874512, -11.90492535, 10.93531609, 12.47367764, -3.47851491, 19.76030350, -102.22157288, 86.01915741, 5.35469770, 39.24049759, -0.69873047, 0.63034493, 0.26096952, 0.21525803, 0.26300830, 0.07018928, -0.40763128, 100.36500549, 80.22028351, 31.37999916, 0.00000000
1, 0.3402, 40, -0.16345215, -1.07385254, 0.33496094, -11.97492599, 11.81031609, 12.29867649, -3.47851491, 19.76030350, -102.22157288, 85.96517181, 5.29748440, 39.30398178, -0.69880956, 0.63000870, 0.26087877, 0.21609408, 0.25602525, 0.08059813, -0.40478754, 100.36500549, 80.22028351, 31.37999916, 0.00000000
1, 0.3248, 39, -0.26649460, -1.02728868, 0.34193325, -1.51965046, 7.80861664, 19.37737083, 1.57848585, 9.58784008, -123.67728424, 106.82443237, -16.04499817, 152.29452515, -0.03251404, 0.27113253, 0.75204349, 0.59988397, -0.01031686, 0.10671404, -0.06602561, 100.44400787, 73.59517670, 32.18999863, 0.00000000
1, 0.3298, 40, -0.28469419, -1.01327193, 0.32526189, -2.56709528, 9.06089211, 19.07003021, 1.05232382, 9.17860222, -123.76497650, 106.80724335, -16.14937973, 152.31112671, -0.03174654, 0.27151632, 0.75176466, 0.60010093, 0.00617663, 0.09312992, -0.04977605, 100.44400787, 73.59517670, 32.18999863, 0.00000000
1, 0.3652, 41, -0.08099365, -1.04589844, 0.31030273, -13.93492603, 16.22031593, 8.16867542, -3.77082729, 19.76030350, -102.04618073, 85.67145538, 5.07527828, 39.68320084, -0.69931442, 0.62788874, 0.26108560, 0.22033946, 0.16960156, 0.05265254, -0.38521039, 100.36500549, 80.22028351, 31.37999916, 0.00000000
1, 0.3702, 42, -0.08679199, -1.04357910, 0.31341553, -14.07492638, 17.09531784, 7.32867527, -3.77082729, 19.76030350, -102.04618073, 85.60887146, 5.04524040, 39.77155685, -0.69943452, 0.62737811, 0.26127100, 0.22119166, 0.17486073, 0.05036802, -0.38941154, 100.36500549, 80.22028351, 31.37999916, 0.00000000
1, 0.3698, 41, -0.21042164, -0.96093261, 0.35934237, -4.99848604, 21.29377556, 16.44817352, 0.76001167, 9.82168961, -123.50189972, 106.51815033, -17.00890923, 152.80534363, -0.02390150, 0.27230904, 0.74952579, 0.60289943, -0.08254610, 0.04347192, -0.08932957, 100.44400787, 73.59517670, 32.18999863, 0.00000000
1, 0.3748, 42, -0.17877811, -0.96795726, 0.34239370, -4.80849409, 17.48419952, 17.05599594, 0.76001167, 9.82168961, -123.50189972, 106.47597504, -17.11545563, 152.86785889, -0.02293716, 0.27240041, 0.74921578, 0.60328078, -0.11592887, 0.05084144, -0.07316521, 100.44400787, 73.59517670, 32.18999863, 0.00000000
1, 0.3752, 43, -0.10247803, -1.04315186, 0.32019043, -13.79492569, 17.41031837, 6.83867502, -3.27389646, 19.26337242, -101.98772430, 85.54776001, 5.01786470, 39.86132813, -0.69954735, 0.62686664, 0.26148185, 0.22203411, 0.19006059, 0.04998008, -0.39725560, 100.36500549, 80.22028351, 31.37999916, 0.00000000
1, 0.3802, 44, -0.12866211, -1.04199219, 0.33032227, -13.61992645, 18.14531708, 6.45367527, -3.27389646, 19.26337242, -101.98772430, 85.48780060, 4.99278688, 39.95465088, -0.69964999, 0.62634838, 0.26172709, 0.22288267, 0.21580131, 0.04886330, -0.40843511, 100.36500549, 80.22028351, 31.37999916, 0.00000000
1, 0.3852, 45, -0.14935303, -1.03570557, 0.32922363, -13.02492619, 19.89531708, 6.20867491, -3.24466538, 19.49722290, -102.57234955, 85.43152618, 4.96971750, 40.05666351, -0.69971794, 0.62582773, 0.26203793, 0.22376454, 0.23607975, 0.04261917, -0.40833026, 100.36500549, 80.22028351, 31.37999916, 0.00000000
1, 0.3798, 43, -0.18539365, -0.99277759, 0.32813463, -5.60036182, 15.56971550, 18.17716217, 0.64308679, 9.79245853, -124.08652496, 106.43302917, -17.22465897, 152.91921997, -0.02201506, 0.27257794, 0.74886882, 0.60366565, -0.11108716, 0.07602001, -0.05979855, 100.44400787, 73.59517670, 32.18999863, 0.00000000
1, 0.3848, 44, -0.19727916, -1.00914896, 0.33617184, -6.34727955, 15.68978882, 18.71532059, 0.64308679, 9.79245853, -124.08652496, 106.38626862, -17.33658028, 152.97052002, -0.02108362, 0.27276880, 0.74849498, 0.60407621, -0.10107721, 0.09271486, -0.06878819, 100.44400787, 73.59517670, 32.18999863, 0.00000000
1, 0.3898, 45, -0.22939396, -1.02264881, 0.33983743, -7.36080313, 14.24843788, 18.90418053, 0.84770536, 9.82168961, -123.64805603, 106.33659363, -17.44736481, 153.01441956, -0.02020614, 0.27300280, 0.74809003, 0.60450196, -0.07082823, 0.10653590, -0.07350155, 100.44400787, 73.59517670, 32.18999863, 0.00000000
1, 0.3902, 46, -0.15325928, -1.02697754, 0.32751465, -12.70992565, 20.56031799, 5.78867435, -3.24466538, 19.49722290, -102.57234955, 85.37706757, 4.94910622, 40.16184616, -0.69977307, 0.62530482, 0.26238337, 0.22464789, 0.23961857, 0.03393579, -0.40757787, 100.36500549, 80.22028351, 31.37999916, 0.00000000
1, 0.3952, 47, -0.14807129, -1.01812744, 0.32641602, -12.56992626, 21.08531952, 5.50867462, -3.24466538, 19.49722290, -102.57234955, 85.32348633, 4.93020630, 40.26955414, -0.69982028, 0.62477696, 0.26275352, 0.22553512, 0.23409162, 0.02513194, -0.40741226, 100.36500549, 80.22028351, 31.37999916, 0.00000000
1, 0.4002, 48, -0.14324951, -1.00640869, 0.31756592, -12.35992622, 21.29531860, 4.91367388, -3.27389646, 19.23414230, -102.22157288, 85.27100372, 4.91444683, 40.37808228, -0.69986421, 0.62424594, 0.26314798, 0.22640721, 0.22898142, 0.01346356, -0.39948004, 100.36500549, 80.22028351, 31.37999916, 0.00000000
1, 0.3948, 46, -0.29493421, -1.02292287, 0.31787574, -9.18631077, 12.15428352, 18.42182541, 0.84770536, 9.82168961, -123.64805603, 106.28161621, -17.55167198, 153.04830933, -0.01943883, 0.27327085, 0.74764711, 0.60495377, -0.00700509, 0.10713048, -0.05271632, 100.44400787, 73.59517670, 32.18999863, 0.00000000
1, 0.3998, 47, -0.33633024, -1.00581527, 0.29897302, -10.67660713, 11.64220524, 17.44712639, 0.84770536, 9.82168961, -123.64805603, 106.21842194, -17.65178680, 153.08146667, -0.01872413, 0.27352300, 0.74716777, 0.60545427, 0.03276698, 0.09027565, -0.03501770, 100.44400787, 73.59517670, 32.18999863, 0.00000000
1, 0.4048, 48, -0.37579045, -1.01572931, 0.31178501, -8.89382076, 17.00360489, 16.74602127, 0.81847411, 9.52937698, -123.82344055, 106.15550995, -17.75590515, 153.14280701, -0.01783232, 0.27361146, 0.74674767, 0.60595942, 0.07048456, 0.10039937, -0.04910376, 100.44400787, 73.59517670, 32.18999863, 0.00000000
1, 0.4052, 49, -0.13781738, -1.00323486, 0.31280518, -11.90492439, 21.08531952, 4.38867378, -3.27389646, 19.23414230, -102.22157288, 85.22066498, 4.90131617, 40.48534775, -0.69990265, 0.62372422, 0.26355457, 0.22725211, 0.22331205, 0.01034278, -0.39560467, 100.36500549, 80.22028351, 31.37999916, 0.00000000
1, 0.4102, 50, -0.13427734, -1.01245117, 0.30822754, -11.27492523, 20.70031738, 3.93367386, -3.85852075, 19.64337921, -102.60157776, 85.17326355, 4.89038515, 40.59051895, -0.69993204, 0.62321949, 0.26396772, 0.22806510, 0.21957313, 0.01961192, -0.39186245, 100.36500549, 80.22028351, 31.37999916, 0.00000000
1, 0.4098, 49, -0.38541469, -1.03740442, 0.33125150, -8.28855515, 19.77338219, 16.20845032, 0.81847411, 9.52937698, -123.82344055, 106.09093475, -17.86120224, 153.21907043, -0.01685740, 0.27360910, 0.74635100, 0.60647678, 0.07830831, 0.12228782, -0.06980354, 100.44400787, 73.59517670, 32.18999863, 0.00000000
1, 0.4148, 50, -0.36415911, -1.04562080, 0.31133693, -9.47428322, 20.48913765, 14.97872639, 0.32154340, 9.32475853, -122.77111816, 106.01857758, -17.96148872, 153.30091858, -0.01590593, 0.27354658, 0.74593717, 0.60703963, 0.05541338, 0.13073847, -0.05111868, 100.44400787, 73.59517670, 32.18999863, 0.00000000
1, 0.4352, 51, -0.14520264, -1.16625977, 0.26538086, -14.42492771, 23.92031860, 5.64867449, -3.62467122, 19.35106659, -102.19233704, 84.90325165, 4.82644701, 41.14316559, -0.70017165, 0.62045032, 0.26604468, 0.23242484, 0.22941977, 0.17372815, -0.35363275, 100.36500549, 80.22028351, 31.37999916, 0.00000000
1, 0.4402, 52, -0.13256836, -1.17993164, 0.27026367, -15.12492657, 25.53032112, 6.34867477, -3.62467122, 19.35106659, -102.19233704, 84.83857727, 4.80624151, 41.27360153, -0.70021975, 0.61980247, 0.26649913, 0.23348531, 0.21644548, 0.18747057, -0.35962605, 100.36500549, 80.22028351, 31.37999916, 0.00000000
1, 0.4452, 53, -0.11688232, -1.19323730, 0.27905273, -15.43992805, 26.33531952, 7.43367481, -3.62467122, 19.35106659, -102.19233704, 84.77265930, 4.78114700, 41.40856934, -0.70025468, 0.61914837, 0.26694518, 0.23460396, 0.20034714, 0.20084482, -0.36955476, 100.36500549, 80.22028351, 31.37999916, 0.00000000
1, 0.4502, 54, -0.09173584, -1.19482422, 0.28656006, -15.96492767, 25.98532104, 8.65867519, -3.65390229, 19.55568504, -101.63694763, 84.70394135, 4.74995279, 41.54237747, -0.70029408, 0.61849475, 0.26734149, 0.23575622, 0.17468590, 0.20249665, -0.37823972, 100.36500549, 80.22028351, 31.37999916, 0.00000000
1, 0.4552, 55, -0.07031250, -1.19396973, 0.28784180, -16.55992699, 24.86531830, 10.02367687, -3.65390229, 19.55568504, -101.63694763, 84.63176727, 4.71160889, 41.67126465, -0.70034719, 0.61784929, 0.26766023, 0.23692651, 0.15261951, 0.20170471, -0.38076872, 100.36500549, 80.22028351, 31.37999916, 0.00000000
1, 0.4398, 51, -0.32479626, -1.11025584, 0.29972184, -13.44626236, 18.53984833, 10.56625175, 0.40923706, 9.82168961, -122.97573853, 105.60395050, -18.40370941, 153.77453613, -0.01133554, 0.27254453, 0.74386412, 0.61012894, 0.00864577, 0.19588387, -0.04671593, 100.44400787, 73.59517670, 32.18999863, 0.00000000
1, 0.4448, 52, -0.31510034, -1.10488975, 0.27616587, -13.55467033, 21.25953102, 8.94995022, 0.40923706, 9.82168961, -122.97573853, 105.50431061, -18.47173691, 153.87036133, -0.01059438, 0.27224129, 0.74340701, 0.61083436, -0.00216728, 0.19049959, -0.02478931, 100.44400787, 73.59517670, 32.18999863, 0.00000000
1, 0.4498, 53, -0.31180647, -1.11063945, 0.25447625, -13.97567844, 20.51745987, 7.78090000, 0.40923706, 9.82168961, -122.97573853, 105.40487671, -18.53659058, 153.96377563, -0.00988679, 0.27193978, 0.74295157, 0.61153418, -0.00647926, 0.19618827, -0.00479271, 100.44400787, 73.59517670, 32.18999863, 0.00000000
1, 0.4548, 54, -0.38276550, -1.11838889, 0.24489819, -14.22326469, 20.22114754, 6.97078896, 0.05846244, 10.78631973, -123.03420258, 105.30416870, -18.59700394, 154.05693054, -0.00921339, 0.27161968, 0.74249798, 0.61223745, 0.06349108, 0.20384014, 0.00290339, 100.44400787, 73.59517670, 32.18999863, 0.00000000
1, 0.4598, 55, -0.39814153, -1.11873257, 0.17848572, -16.09893990, 21.70524216, 3.94544768, 0.05846244, 10.78631973, -123.03420258, 105.19017029, -18.64460373, 154.16198730, -0.00859517, 0.27116096, 0.74202949, 0.61301726, 0.07818300, 0.20408896, 0.06744635, 100.44400787, 73.59517670, 32.18999863, 0.00000000
1, 0.4602, 56, -0.04003906, -1.18353271, 0.28784180, -17.01492882, 20.14031982, 11.21367741, -4.06313944, 19.55568504, -101.46156311, 84.55535889, 4.66527843, 41.77715302, -0.70045418, 0.61725163, 0.26779726, 0.23801064, 0.12157945, 0.19132757, -0.38207448, 100.36500549, 80.22028351, 31.37999916, 0.00000000
1, 0.4652, 57, -0.01721191, -1.17877197, 0.27655029, -17.08492851, 16.71031761, 11.87867641, -4.06313944, 19.55568504, -101.46156311, 84.47714996, 4.61414194, 41.86629486, -0.70059520, 0.61669433, 0.26781046, 0.23902321, 0.09788473, 0.18662564, -0.37213904, 100.36500549, 80.22028351, 31.37999916, 0.00000000
1, 0.4702, 58, 0.00042725, -1.17846680, 0.26623535, -17.29492760, 13.03531647, 12.50867653, -4.06313944, 19.55568504, -101.46156311, 84.39636993, 4.55820799, 41.93744659, -0.70077735, 0.61617553, 0.26769179, 0.23995829, 0.07929346, 0.18637876, -0.36321753, 100.36500549, 80.22028351, 31.37999916, 0.00000000
1, 0.4648, 56, -0.38309976, -1.09975111, 0.15475652, -17.52351570, 27.31182861, 2.02913857, 0.52616191, 10.43554497, -122.77111816, 105.05892181, -18.69003105, 154.29835510, -0.00786379, 0.27048916, 0.74154645, 0.61390781, 0.06245156, 0.18484366, 0.08915871, 100.44400787, 73.59517670, 32.18999863, 0.00000000
1, 0.4698, 57, -0.28947839, -1.06777167, 0.15775391, -16.11116409, 36.53355408, -0.01237596, 0.52616191, 10.43554497, -122.77111816, 104.91857147, -18.73711014, 154.48471069, -0.00687276, 0.26950350, 0.74112660, 0.61485934, -0.03194917, 0.15251520, 0.08415559, 100.44400787, 73.59517670, 32.18999863, 0.00000000
1, 0.4748, 58, -0.21152256, -1.06990278, 0.15696867, -13.15571976, 38.98531342, -0.97302032, 0.52616191, 10.43554497, -122.77111816, 104.78835297, -18.78222847, 154.68504333, -0.00579377, 0.26842082, 0.74079585, 0.61574203, -0.11066171, 0.15432829, 0.08292733, 100.44400787, 73.59517670, 32.18999863, 0.00000000
1, 0.4752, 59, 0.01037598, -1.17657471, 0.25671387, -17.67992592, 9.22031498, 12.92867661, -3.97544575, 18.97106171, -102.22157288, 84.31209564, 4.49841499, 41.98984909, -0.70100927, 0.61568904, 0.26744086, 0.24080788, 0.06831956, 0.18454765, -0.35514751, 100.36500549, 80.22028351, 31.37999916, 0.00000000
1, 0.4802, 60, 0.01641846, -1.17071533, 0.24475098, -18.23992729, 5.86031389, 12.89367676, -3.97544575, 18.97106171, -102.22157288, 84.22367859, 4.43719721, 42.02555084, -0.70129508, 0.61521971, 0.26708195, 0.24157242, 0.06121701, 0.17875691, -0.34470594, 100.36500549, 80.22028351, 31.37999916, 0.00000000
1, 0.4798, 59, -0.25082299, -1.06436360, 0.22329980, -12.72065639, 35.58648682, 0.02704673, -0.49693072, 11.10786343, -123.09265900, 104.66616058, -18.82745361, 154.86683655, -0.00479248, 0.26746106, 0.74046218, 0.61656904, -0.07225780, 0.14840567, 0.01448771, 100.44400787, 73.59517670, 32.18999863, 0.00000000
1, 0.4848, 60, -0.19642647, -1.14938211, 0.08390748, -16.74399757, 30.36332703, 1.42595804, -0.49693072, 11.10786343, -123.09265900, 104.53291321, -18.87259865, 155.02018738, -0.00396857, 0.26668629, 0.74000072, 0.61746389, -0.12709519, 0.23336959, 0.15172848, 100.44400787, 73.59517670, 32.18999863, 0.00000000
1, 0.5302, 61, 0.04882813, -1.10626221, 0.26300049, -17.04992676, 6.87531424, 2.67367363, -5.11546326, 19.52645493, -102.57234955, 83.27978516, 4.02186203, 42.06533813, -0.70548368, 0.61038470, 0.26280004, 0.24629156, 0.02133806, 0.11553892, -0.37937880, 100.36500549, 80.22028351, 31.37999916, 0.00000000
1, 0.5352, 62, 0.06988525, -1.11413574, 0.25939941, -16.45492744, 9.99031544, 0.95867300, -5.05700064, 19.43876076, -102.60157776, 83.20104980, 4.02298212, 42.11563110, -0.70579678, 0.60978162, 0.26290512, 0.24677572, 0.00025312, 0.12357369, -0.37715876, 100.36500549, 80.22028351, 31.37999916, 0.00000000
1, 0.5298, 61, 0.04571052, -1.23959255, 0.17596519, -19.05990791, 49.01174545, 4.42368937, -0.76001167, 12.51096153, -122.59573364, 103.12145996, -19.33945084, 156.86401367, 0.00599573, 0.25714037, 0.73551464, 0.62678647, -0.37699568, 0.32042521, 0.03707546, 100.44400787, 73.59517670, 32.18999863, 0.00000000
1, 0.5348, 62, 0.08841662, -1.23115134, 0.14300634, -19.93192863, 50.85129166, 5.84567070, -0.76001167, 12.51096153, -122.59573364, 102.93698883, -19.42509460, 157.11970520, 0.00756346, 0.25594035, 0.73488915, 0.62799311, -0.42098653, 0.31182081, 0.06709625, 100.44400787, 73.59517670, 32.18999863, 0.00000000
1, 0.5402, 63, 0.09179688, -1.11657715, 0.25134277, -15.68492699, 12.44031620, -0.93132764, -5.05700064, 19.43876076, -102.60157776, 83.12693787, 4.03501129, 42.17698669, -0.70608121, 0.60915375, 0.26314405, 0.24725787, -0.02149623, 0.12618208, -0.37040323, 100.36500549, 80.22028351, 31.37999916, 0.00000000
1, 0.5452, 64, 0.12542725, -1.11621094, 0.24444580, -15.08992672, 14.29531574, -3.41632867, -5.20315695, 19.70184135, -102.74773407, 83.05637360, 4.06056261, 42.24605942, -0.70635462, 0.60849518, 0.26351231, 0.24770568, -0.05474507, 0.12599193, -0.36473823, 100.36500549, 80.22028351, 31.37999916, 0.00000000
1, 0.5502, 65, 0.16546631, -1.12115479, 0.22924805, -14.31992722, 14.82031727, -6.98632956, -5.20315695, 19.70184135, -102.74773407, 82.98971558, 4.10423803, 42.31554031, -0.70663959, 0.60781306, 0.26399970, 0.24804837, -0.09410539, 0.13112600, -0.35070008, 100.36500549, 80.22028351, 31.37999916, 0.00000000
1, 0.5552, 66, 0.20178223, -1.12451172, 0.20953369, -13.96992683, 14.57531834, -11.22133160, -5.20315695, 19.70184135, -102.74773407, 82.92461395, 4.16885567, 42.38115311, -0.70696330, 0.60709506, 0.26459533, 0.24824969, -0.12939051, 0.13469593, -0.33210629, 100.36500549, 80.22028351, 31.37999916, 0.00000000
1, 0.5602, 67, 0.23577881, -1.12707520, 0.19000244, -13.93492603, 13.87531757, -16.19133186, -5.49546909, 20.05261612, -103.06927490, 82.85925293, 4.25777626, 42.44013596, -0.70734721, 0.60632753, 0.26530111, 0.24827850, -0.16194926, 0.13750425, -0.31368878, 100.36500549, 80.22028351, 31.37999916, 0.00000000
1, 0.5652, 68, 0.29400635, -1.14074707, 0.16394043, -13.96992683, 13.35031605, -23.50633430, -5.49546909, 20.05261612, -103.06927490, 82.79330444, 4.38272190, 42.49183273, -0.70781630, 0.60547918, 0.26618347, 0.24806771, -0.21819513, 0.15146640, -0.28874385, 100.36500549, 80.22028351, 31.37999916, 0.00000000
1, 0.5702, 69, 0.35296631, -1.15203857, 0.14672852, -13.96992683, 13.00031662, -30.99633789, -5.55393171, 20.37415886, -103.24466705, 82.72695160, 4.54466248, 42.53691483, -0.70836902, 0.60454613, 0.26725227, 0.24761574, -0.27446532, 0.16310976, -0.27265215, 100.36500549, 80.22028351, 31.37999916, 0.00000000
1, 0.5752, 70, 0.42761230, -1.16284180, 0.11456299, -14.59992695, 10.79531574, -37.12133789, -5.55393171, 20.37415886, -103.24466705, 82.65637207, 4.73562813, 42.56694031, -0.70902824, 0.60354435, 0.26840696, 0.24692303, -0.34591624, 0.17432000, -0.24164382, 100.36500549, 80.22028351, 31.37999916, 0.00000000
1, 0.5398, 63, 0.11145070, -1.26106894, 0.12885229, -18.59716988, 52.60103989, 7.44773483, 0.46769950, 12.80327415, -122.27418518, 102.75634003, -19.51970100, 157.38301086, 0.00924605, 0.25474158, 0.73427778, 0.62917197, -0.44550741, 0.34161979, 0.07822981, 100.44400787, 73.59517670, 32.18999863, 0.00000000
1, 0.5448, 64, 0.10765550, -1.30451477, 0.12915863, -18.50814629, 54.72571564, 10.40657425, 0.46769950, 12.80327415, -122.27418518, 102.56962585, -19.61952972, 157.65521240, 0.01100346, 0.25351816, 0.73363745, 0.63038373, -0.44336829, 0.38497117, 0.07475439, 100.44400787, 73.59517670, 32.18999863, 0.00000000
1, 0.5498, 65, 0.10586639, -1.35553539, 0.14413044, -17.72753906, 58.55569458, 13.67767620, 0.26308095, 13.50482273, -122.53726959, 102.38412476, -19.74931908, 157.94329834, 0.01305757, 0.25235066, 0.73296922, 0.63158911, -0.44358164, 0.43598819, 0.05655203, 100.44400787, 73.59517670, 32.18999863, 0.00000000
1, 0.6202, 71, 1.12286377, -1.13800049, 0.54016113, 47.10509109, -6.80969095, -90.14635468, -6.05086231, 20.95878410, -103.47851563, 82.88430023, 7.75642109, 42.11971283, -0.71403813, 0.59802091, 0.28460619, 0.22697985, -0.98984486, 0.15464815, -0.66393244, 100.36500549, 80.22028351, 31.37999916, 0.00000000
1, 0.6252, 72, 1.11816406, -1.14617920, 0.66796875, 53.30009460, -13.49469280, -96.20136261, -6.05086231, 20.95878410, -103.47851563, 83.13316345, 8.22564602, 41.99295807, -0.71375942, 0.59861344, 0.28722054, 0.22296594, -0.97714913, 0.16340749, -0.78742170, 100.36500549, 80.22028351, 31.37999916, 0.00000000
1, 0.5548, 66, 0.17013136, -1.38019955, 0.16135024, -17.69971657, 62.89864349, 17.07574272, 0.26308095, 13.50482273, -122.53726959, 102.19156647, -19.89941025, 158.25083923, 0.01534454, 0.25116965, 0.73225635, 0.63283420, -0.51027083, 0.46079224, 0.03621058, 100.44400787, 73.59517670, 32.18999863, 0.00000000
1, 0.5598, 67, 0.25221610, -1.38715005, 0.17041834, -18.26889038, 63.80795288, 21.10061264, 0.26308095, 13.50482273, -122.53726959, 101.99497986, -20.06915665, 158.55952454, 0.01776570, 0.25009009, 0.73147666, 0.63409889, -0.59508258, 0.46801066, 0.02398331, 100.44400787, 73.59517670, 32.18999863, 0.00000000
1, 0.5648, 68, 0.35473970, -1.38344061, 0.17750400, -18.09119415, 62.33134842, 27.58285904, 0.81847411, 13.91405964, -121.95264435, 101.80321503, -20.26813889, 158.85441589, 0.02032141, 0.24925558, 0.73062587, 0.63533032, -0.70072907, 0.46474606, 0.01381886, 100.44400787, 73.59517670, 32.18999863, 0.00000000
1, 0.6302, 73, 1.07922363, -1.15222168, 0.77874756, 56.59009552, -20.59969711, -102.74635315, -6.05086231, 20.95878410, -103.47851563, 83.39186859, 8.72376156, 41.82860947, -0.71352959, 0.59928036, 0.28980938, 0.21851580, -0.92973256, 0.17015985, -0.89364296, 100.36500549, 80.22028351, 31.37999916, 0.00000000
1, 0.6352, 74, 0.99371338, -1.13806152, 0.88250732, 57.36009979, -27.56469917, -109.92135620, -5.52470016, 22.27418900, -103.91698456, 83.64719391, 9.25430775, 41.62717056, -0.71341544, 0.59992969, 0.29236799, 0.21364415, -0.83521760, 0.15689015, -0.99284804, 100.36500549, 80.22028351, 31.37999916, 0.00000000
1, 0.6402, 75, 0.88085938, -1.12365723, 0.92443848, 57.50009537, -32.39469910, -119.12636566, -5.52470016, 22.27418900, -103.91698456, 83.89677429, 9.82885075, 41.39837265, -0.71342140, 0.60049134, 0.29500878, 0.20835066, -0.71262604, 0.14361562, -1.03030920, 100.36500549, 80.22028351, 31.37999916, 0.00000000
1, 0.5698, 69, 0.44859850, -1.38490856, 0.20832822, -15.68295383, 58.78166580, 34.16256332, 0.81847411, 13.91405964, -121.95264435, 101.63108826, -20.49485588, 159.12477112, 0.02297299, 0.24872436, 0.72976714, 0.63643408, -0.79825729, 0.46686366, -0.01994124, 100.44400787, 73.59517670, 32.18999863, 0.00000000
1, 0.5748, 70, 0.59553671, -1.39065921, 0.30237237, -11.45756817, 49.90129852, 44.37770462, 0.46769950, 13.85559750, -121.83571625, 101.49894714, -20.76206779, 159.33888245, 0.02567197, 0.24875812, 0.72891790, 0.63729042, -0.94965327, 0.47355354, -0.11618437, 100.44400787, 73.59517670, 32.18999863, 0.00000000
1, 0.6452, 76, 0.76312256, -1.17346191, 0.88195801, 55.85509491, -48.87970352, -126.75636292, -5.55393171, 22.59573174, -104.00467682, 84.12075806, 10.43368435, 41.08427048, -0.71372497, 0.60103011, 0.29731023, 0.20240098, -0.58464617, 0.19479324, -0.98367274, 100.36500549, 80.22028351, 31.37999916, 0.00000000
1, 0.6502, 77, 0.65332031, -1.25036621, 0.80480957, 51.48009491, -61.89971161, -132.28636169, -5.55393171, 22.59573174, -104.00467682, 84.30702209, 11.06057358, 40.70301056, -0.71433014, 0.60144979, 0.29929984, 0.19598572, -0.46418217, 0.27333763, -0.90296078, 100.36500549, 80.22028351, 31.37999916, 0.00000000
1, 0.6552, 78, 0.55194092, -1.33538818, 0.68560791, 43.95508957, -74.84971619, -137.04637146, -5.55393171, 22.59573174, -104.00467682, 84.43825531, 11.70584488, 40.25459290, -0.71530825, 0.60165459, 0.30093211, 0.18917111, -0.35182497, 0.36028072, -0.78105789, 100.36500549, 80.22028351, 31.37999916, 0.00000000
1, 0.6148, 71, 0.32995570, -1.44723380, 0.57354176, -13.55703926, -60.87110138, 127.15125275, -2.92312193, 14.90792179, -122.82958221, 101.68286133, -24.15856743, 157.71501160, 0.03987589, 0.27618206, 0.71840298, 0.63720536, -0.73835874, 0.55167621, -0.39062053, 100.44400787, 73.59517670, 32.18999863, 0.00000000
1, 0.6198, 72, 0.12265580, -1.45060456, 0.49306244, -14.36834908, -70.21627045, 140.43392944, -2.92312193, 14.90792179, -122.82958221, 101.83383179, -24.77545166, 157.18124390, 0.04142103, 0.28255254, 0.71642375, 0.63654172, -0.54044527, 0.55988014, -0.30932716, 100.44400787, 73.59517670, 32.18999863, 0.00000000
1, 0.6602, 79, 0.44097900, -1.41888428, 0.55126953, 34.92508698, -86.36471558, -139.49636841, -6.19701815, 23.44343758, -104.64776611, 84.50692749, 12.35852337, 39.74646378, -0.71665782, 0.60160947, 0.30217919, 0.18208653, -0.22973570, 0.44596529, -0.64506042, 100.36500549, 80.22028351, 31.37999916, 0.00000000
1, 0.6652, 80, 0.31378174, -1.50958252, 0.42596436, 26.14008713, -95.25472260, -140.12635803, -6.19701815, 23.44343758, -104.64776611, 84.51581573, 13.01042080, 39.19186401, -0.71832091, 0.60131890, 0.30307841, 0.17485471, -0.09142156, 0.53908247, -0.51911587, 100.36500549, 80.22028351, 31.37999916, 0.00000000
1, 0.6248, 73, -0.16660954, -1.48583722, 0.48353845, -10.56105232, -77.97286987, 158.88339233, -4.61853266, 15.17100239, -123.61882019, 102.03841400, -25.47308350, 156.57972717, 0.04328233, 0.28969225, 0.71429980, 0.63559490, -0.26193574, 0.60066807, -0.29862273, 100.44400787, 73.59517670, 32.18999863, 0.00000000
1, 0.6298, 74, -0.60278618, -1.53808212, 0.45982593, -7.77204561, -92.83029175, 176.75592041, -4.61853266, 15.17100239, -123.61882019, 102.31135559, -26.24026108, 155.86981201, 0.04521054, 0.29777572, 0.71200764, 0.63429558, 0.16256092, 0.65930736, -0.27336124, 100.44400787, 73.59517670, 32.18999863, 0.00000000
1, 0.6348, 75, -0.90016884, -1.54198575, 0.39907187, -6.77778196, -95.79926300, 189.15109253, -4.61853266, 15.17100239, -123.61882019, 102.61629486, -27.06152916, 155.11961365, 0.04739976, 0.30629969, 0.70953095, 0.63285047, 0.44747090, 0.67044497, -0.21014813, 100.44400787, 73.59517670, 32.18999863, 0.00000000
1, 0.6902, 81, -0.27276611, -1.71337891, 0.04583740, -8.43992424, -65.60971069, -126.72135925, -7.10318613, 25.37269783, -106.60625458, 83.92846680, 16.10480309, 36.58650970, -0.72842395, 0.59592110, 0.30670542, 0.14215644, 0.54765940, 0.75723141, -0.14687273, 100.36500549, 80.22028351, 31.37999916, 0.00000000
1, 0.6952, 82, -0.31335449, -1.67999268, 0.04888916, -13.26992702, -53.46470261, -125.77636719, -7.22011089, 26.01578522, -107.39550018, 83.76407623, 16.70141220, 36.23918152, -0.73025125, 0.59413731, 0.30818889, 0.13694359, 0.59824151, 0.72703207, -0.15232113, 100.36500549, 80.22028351, 31.37999916, 0.00000000
1, 0.7002, 83, -0.38037109, -1.63049316, 0.07904053, -14.73992538, -39.46469879, -124.48136139, -7.22011089, 26.01578522, -107.39550018, 83.60953522, 17.29835320, 35.96252823, -0.73189569, 0.59222013, 0.31006545, 0.13214996, 0.67522776, 0.68082345, -0.18477511, 100.36500549, 80.22028351, 31.37999916, 0.00000000
1, 0.7052, 84, -0.36584473, -1.56646729, 0.09808350, -14.45992661, -24.83469772, -124.23637390, -7.22011089, 26.01578522, -107.39550018, 83.47596741, 17.90163231, 35.75978088, -0.73331016, 0.59021181, 0.31239450, 0.12773418, 0.67071474, 0.62018514, -0.20577283, 100.36500549, 80.22028351, 31.37999916, 0.00000000
1, 0.7102, 85, -0.30090332, -1.51745605, 0.12908936, -12.56992626, -13.94969273, -124.13137054, -7.24934244, 25.54808426, -108.18473816, 83.36696625, 18.51021576, 35.61198807, -0.73450470, 0.58818662, 0.31507012, 0.12357248, 0.61585128, 0.57465398, -0.23828860, 100.36500549, 80.22028351, 31.37999916, 0.00000000
1, 0.6398, 76, -1.14071548, -1.51366663, 0.30341420, -4.46238756, -87.93927765, 199.26377869, -6.89856768, 14.93715286, -124.08652496, 102.93351746, -27.93708611, 154.38946533, 0.05013863, 0.31488684, 0.70690489, 0.63136196, 0.67488647, 0.65008450, -0.11178865, 100.44400787, 73.59517670, 32.18999863, 0.00000000
1, 0.6448, 77, -1.31328392, -1.44115210, 0.22681366, 0.52478939, -69.13803101, 207.25476074, -6.89856768, 14.93715286, -124.08652496, 103.24641418, -28.87030792, 153.74182129, 0.05374920, 0.32316628, 0.70419723, 0.62990546, 0.83351266, 0.58616251, -0.03248268, 100.44400787, 73.59517670, 32.18999863, 0.00000000
1, 0.6498, 78, -1.42507660, -1.35169542, 0.20641695, 8.50344753, -45.40189743, 212.41593933, -9.12014008, 12.59865570, -124.90499878, 103.55319214, -29.85155106, 153.20797729, 0.05832934, 0.33089697, 0.70152265, 0.62846708, 0.93056023, 0.50584114, -0.00955012, 100.44400787, 73.59517670, 32.18999863, 0.00000000
1, 0.6548, 79, -1.52497947, -1.29715598, 0.21930744, 17.58190155, -22.17012024, 214.29125977, -9.12014008, 12.59865570, -124.90499878, 103.85435486, -30.86666298, 152.79103088, 0.06379643, 0.33799344, 0.69894910, 0.62702531, 1.01521945, 0.46093094, -0.02023361, 100.44400787, 73.59517670, 32.18999863, 0.00000000
1, 0.6598, 80, -1.59514654, -1.30848980, 0.21245006, 24.86480713, 1.75078142, 212.91094971, -9.12014008, 12.59865570, -124.90499878, 104.13194275, -31.90185738, 152.50157166, 0.07005513, 0.34434158, 0.69646770, 0.62566286, 1.07000530, 0.48232836, -0.01166434, 100.44400787, 73.59517670, 32.18999863, 0.00000000
1, 0.7152, 86, -0.19281006, -1.48779297, 0.15246582, -10.99492455, -6.49469090, -124.69137573, -7.24934244, 25.54808426, -108.18473816, 83.27632141, 19.12566376, 35.50130844, -0.73553735, 0.58614653, 0.31799811, 0.11955881, 0.51790607, 0.54857898, -0.26283914, 100.36500549, 80.22028351, 31.37999916, 0.00000000
1, 0.7202, 87, -0.08331299, -1.44073486, 0.18041992, -8.96492481, -4.00968933, -125.11137390, -7.74627304, 27.33119011, -107.89242554, 83.19847870, 19.74450493, 35.40207291, -0.73646396, 0.58413500, 0.32101759, 0.11556356, 0.41859424, 0.50521398, -0.29168412, 100.36500549, 80.22028351, 31.37999916, 0.00000000
1, 0.7252, 88, 0.00476074, -1.39306641, 0.18646240, -7.07492399, -7.33469105, -125.46135712, -7.74627304, 27.33119011, -107.89242554, 83.12251282, 20.36297798, 35.28377533, -0.73736864, 0.58217829, 0.32393900, 0.11144240, 0.34067550, 0.46134374, -0.29852974, 100.36500549, 80.22028351, 31.37999916, 0.00000000
1, 0.6848, 81, -1.07938790, -1.34441173, 0.35273078, 25.46154022, 84.31974030, 210.98063660, -11.86787510, 13.79713535, -123.67728424, 104.80337524, -37.39273453, 152.64366150, 0.11011206, 0.36749873, 0.68296552, 0.62159330, 0.47515383, 0.57283187, -0.15388742, 100.44400787, 73.59517670, 32.18999863, 0.00000000
1, 0.6898, 82, -0.96142364, -1.30788910, 0.31029969, 24.42303467, 98.90998077, 207.87144470, -12.62788677, 13.12481689, -123.23881531, 104.76031494, -38.52322769, 152.91625977, 0.11909547, 0.37085617, 0.67980015, 0.62141269, 0.34168822, 0.54793698, -0.11453857, 100.44400787, 73.59517670, 32.18999863, 0.00000000
1, 0.7302, 89, 0.07873535, -1.35552979, 0.19488525, -4.20492315, -13.56469250, -125.46135712, -7.74627304, 27.33119011, -107.62934875, 83.04756165, 20.97754860, 35.13108444, -0.73826623, 0.58032668, 0.32666406, 0.10711908, 0.27676579, 0.42769361, -0.30771965, 100.36500549, 80.22028351, 31.37999916, 0.00000000
1, 0.6948, 83, -0.85548800, -1.28911030, 0.31165868, 25.71696854, 108.88510132, 204.86793518, -12.62788677, 13.12481689, -123.23881531, 104.67338562, -39.65046692, 153.26193237, 0.12829417, 0.37380394, 0.67660040, 0.62130761, 0.22039583, 0.54082906, -0.11976193, 100.44400787, 73.59517670, 32.18999863, 0.00000000
1, 0.6998, 84, -0.76337290, -1.29179800, 0.33207688, 24.37777519, 110.22386169, 202.28797913, -14.08944702, 13.00789261, -122.30342102, 104.56114960, -40.76750183, 153.62846375, 0.13743436, 0.37661344, 0.67332608, 0.62121350, 0.11324278, 0.55525935, -0.14450665, 100.44400787, 73.59517670, 32.18999863, 0.00000000
1, 0.7048, 85, -0.70547324, -1.27772117, 0.31369787, 19.42307091, 104.79407501, 200.32882690, -14.08944702, 13.00789261, -122.30342102, 104.43368530, -41.86775208, 153.97244263, 0.14626722, 0.37950537, 0.66991466, 0.62112486, 0.04084900, 0.55305541, -0.13071758, 100.44400787, 73.59517670, 32.18999863, 0.00000000
1, 0.7352, 90, 0.13702393, -1.31683350, 0.21124268, -1.89492249, -21.36969566, -125.18137360, -7.36626720, 27.62350082, -107.62934875, 82.96706390, 21.58578873, 34.93548203, -0.73919272, 0.57857221, 0.32913151, 0.10257096, 0.22841108, 0.39296237, -0.32487509, 100.36500549, 80.22028351, 31.37999916, 0.00000000
1, 0.7098, 86, -0.64039594, -1.23554289, 0.25581995, 13.13393974, 97.98970032, 198.56419373, -14.08944702, 13.00789261, -122.30342102, 104.29162598, -42.95056152, 154.28411865, 0.15473576, 0.38253483, 0.66634047, 0.62105912, -0.03815344, 0.52285647, -0.07750704, 100.44400787, 73.59517670, 32.18999863, 0.00000000
1, 0.7148, 87, -0.57244670, -1.17643142, 0.19772117, 8.98496532, 90.74430847, 197.07727051, -14.08944702, 13.21251106, -120.84185791, 104.14981079, -44.01678467, 154.55908203, 0.16287054, 0.38571087, 0.66266608, 0.62094611, -0.11957435, 0.47578865, -0.02406845, 100.44400787, 73.59517670, 32.18999863, 0.00000000
1, 0.7198, 88, -0.51746088, -1.12691069, 0.18758617, 7.61284304, 80.25794220, 195.19734192, -14.08944702, 13.21251106, -120.84185791, 104.03954315, -45.06074142, 154.77412415, 0.17061427, 0.38909310, 0.65900260, 0.62065524, -0.18765536, 0.43832469, -0.01829041, 100.44400787, 73.59517670, 32.18999863, 0.00000000
1, 0.7652, 91, 0.09838867, -1.15130615, 0.15307617, 16.16508484, -53.77970505, -114.99636841, -8.00935364, 29.58199310, -107.71704102, 82.42343140, 24.99011612, 33.00487900, -0.74469876, 0.57050884, 0.33877113, 0.07195601, 0.32197499, 0.25183648, -0.27242142, 100.36500549, 80.22028351, 31.37999916, 0.00000000
1, 0.7702, 92, 0.06250000, -1.11425781, 0.14050293, 18.72008514, -53.91970444, -112.09136963, -8.24320412, 30.22508049, -108.15550995, 82.35597992, 25.50992393, 32.62734985, -0.74537051, 0.56962091, 0.33986294, 0.06669376, 0.36612910, 0.21877491, -0.26042902, 100.36500549, 80.22028351, 31.37999916, 0.00000000
1, 0.7752, 93, 0.01031494, -1.08990479, 0.15075684, 22.22008514, -54.16470718, -109.60636139, -8.24320412, 30.22508049, -108.15550995, 82.30223846, 26.01689148, 32.24808502, -0.74592948, 0.56886750, 0.34088507, 0.06145234, 0.42634204, 0.19836032, -0.27106577, 100.36500549, 80.22028351, 31.37999916, 0.00000000
1, 0.7248, 89, -0.49182206, -1.10154283, 0.20507367, 7.14311409, 65.73885345, 193.31495667, -15.46331501, 13.50482273, -120.49108124, 103.98947144, -46.07791519, 154.89770508, 0.17786820, 0.39278695, 0.65541172, 0.62009418, -0.22590640, 0.42505676, -0.03954839, 100.44400787, 73.59517670, 32.18999863, 0.00000000
1, 0.7298, 90, -0.47899118, -1.06846666, 0.24207331, 5.31103992, 49.24893570, 191.78851318, -15.46331501, 13.50482273, -120.49108124, 104.00942230, -47.06787109, 154.91018677, 0.18456487, 0.39686829, 0.65187430, 0.61926681, -0.25083861, 0.40413111, -0.07947399, 100.44400787, 73.59517670, 32.18999863, 0.00000000
1, 0.7802, 94, -0.05505371, -1.07318115, 0.16967773, 24.91508675, -53.46470261, -107.54135895, -7.45396090, 30.83893585, -108.44782257, 82.26044464, 26.51381493, 31.87214279, -0.74638397, 0.56821406, 0.34187609, 0.05625363, 0.49953181, 0.18553400, -0.29016441, 100.36500549, 80.22028351, 31.37999916, 0.00000000
1, 0.7852, 95, -0.08081055, -1.05230713, 0.20166016, 27.82008743, -51.01470566, -105.79135895, -7.45396090, 30.83893585, -108.44782257, 82.23612213, 27.00352669, 31.50917244, -0.74670464, 0.56765938, 0.34290099, 0.05112774, 0.53295666, 0.16853201, -0.32208005, 100.36500549, 80.22028351, 31.37999916, 0.00000000
1, 0.7902, 96, -0.05664063, -1.05169678, 0.24597168, 34.01509094, -46.49970245, -105.05636597, -7.45396090, 30.83893585, -108.44782257, 82.25105286, 27.49261475, 31.17029190, -0.74678200, 0.56729186, 0.34405917, 0.04604351, 0.51637924, 0.17176573, -0.36579379, 100.36500549, 80.22028351, 31.37999916, 0.00000000
1, 0.7952, 97, -0.05181885, -1.07141113, 0.30627441, 37.76008987, -44.11970520, -105.09136200, -8.24320412, 30.42969894, -108.53551483, 82.28772736, 27.98361206, 30.84344673, -0.74671054, 0.56702548, 0.34529388, 0.04095959, 0.51913851, 0.19534375, -0.42507511, 100.36500549, 80.22028351, 31.37999916, 0.00000000
1, 0.7948, 91, -0.58126259, -0.46276724, 0.22725144, 4.25427246, -79.20778656, 121.05435944, -23.56036186, 14.14791012, -118.29874420, 111.99346924, -56.56230164, 145.11380005, 0.22709240, 0.47162172, 0.61705232, 0.58757859, -0.25287083, -0.05064608, -0.02463216, 100.44400787, 73.59517670, 32.18999863, 0.00000000
1, 0.7998, 92, -0.57149291, -0.43637949, 0.20162092, 4.71027470, -81.76668549, 107.28215790, -24.93422890, 14.35252857, -118.32797241, 112.90565491, -56.90284729, 144.05261230, 0.22774786, 0.47654766, 0.61576754, 0.58469111, -0.26597881, -0.06889001, 0.00723401, 100.44400787, 73.59517670, 32.18999863, 0.00000000
1, 0.8002, 98, -0.04248047, -1.08752441, 0.37109375, 39.40509033, -40.51470184, -105.65135956, -8.24320412, 30.42969894, -108.53551483, 82.33904266, 28.48002434, 30.53538895, -0.74652457, 0.56678230, 0.34665343, 0.03592071, 0.51741982, 0.21539152, -0.48861858, 100.36500549, 80.22028351, 31.37999916, 0.00000000
1, 0.8048, 93, -0.55811018, -0.40875748, 0.21609539, 5.57627964, -79.40385437, 96.14581299, -24.93422890, 14.35252857, -118.32797241, 113.79013824, -57.18774414, 143.03321838, 0.22819214, 0.48109078, 0.61469269, 0.58192176, -0.28223854, -0.08917733, -0.00105605, 100.44400787, 73.59517670, 32.18999863, 0.00000000
1, 0.8098, 94, -0.53494519, -0.38252294, 0.21714598, 5.50414896, -75.90304565, 85.15368652, -24.93422890, 14.35252857, -118.32797241, 114.62937164, -57.42123032, 142.06996155, 0.22844230, 0.48523843, 0.61379486, 0.57932186, -0.30772880, -0.10885371, 0.00385523, 100.44400787, 73.59517670, 32.18999863, 0.00000000
1, 0.8148, 95, -0.56705618, -0.36289385, 0.21332759, 6.60235548, -71.92535400, 75.03433228, -26.24963379, 14.93715286, -118.62028503, 115.42388153, -57.60976791, 141.16833496, 0.22856002, 0.48899302, 0.61308503, 0.57686484, -0.27747917, -0.12263460, 0.01327180, 100.44400787, 73.59517670, 32.18999863, 0.00000000
1, 0.8302, 99, 0.21191406, -1.03143311, 0.39318848, 31.14508629, -18.60469627, -112.05636597, -8.74013424, 30.42969894, -108.97398376, 82.78803253, 31.61661148, 29.11955833, -0.74391079, 0.56441778, 0.35774130, 0.00710694, 0.31029189, 0.18538862, -0.50044477, 100.36500549, 80.22028351, 31.37999916, 0.00000000
1, 0.8352, 100, 0.21472168, -1.00189209, 0.35473633, 28.80009079, -16.36469460, -111.74135590, -8.74013424, 30.42969894, -108.97398376, 82.83805084, 32.16068649, 28.94163132, -0.74348199, 0.56360626, 0.35996637, 0.00262727, 0.31555805, 0.16071099, -0.46062383, 100.36500549, 80.22028351, 31.37999916, 0.00000000
1, 0.8198, 96, -0.58097845, -0.35139275, 0.21663857, 7.64290571, -66.22981262, 64.43087006, -26.24963379, 14.93715286, -118.62028503, 116.15539551, -57.75640106, 140.34895325, 0.22857977, 0.49230149, 0.61255932, 0.57459694, -0.26503205, -0.12903433, 0.01524609, 100.44400787, 73.59517670, 32.18999863, 0.00000000
1, 0.8248, 97, -0.59424710, -0.33469072, 0.21883544, 8.66444016, -61.73643875, 54.57014465, -27.59427071, 14.90792179, -117.86027527, 116.83127594, -57.86345673, 139.60229492, 0.22848985, 0.49521682, 0.61221683, 0.57248873, -0.25285760, -0.14135134, 0.01802018, 100.44400787, 73.59517670, 32.18999863, 0.00000000
1, 0.8298, 98, -0.62691242, -0.32557449, 0.23188040, 8.35039806, -58.51405716, 44.94149399, -27.59427071, 14.90792179, -117.86027527, 117.45169830, -57.93045425, 138.91984558, 0.22823492, 0.49779201, 0.61203498, 0.57054812, -0.22093897, -0.14679974, 0.00964817, 100.44400787, 73.59517670, 32.18999863, 0.00000000
1, 0.8402, 101, 0.26574707, -0.97503662, 0.30999756, 28.38008690, -13.17969322, -112.44136810, -8.74013424, 30.42969894, -108.97398376, 82.89403534, 32.71035767, 28.78142738, -0.74299425, 0.56275511, 0.36230245, -0.00179028, 0.27262354, 0.13883150, -0.41445950, 100.36500549, 80.22028351, 31.37999916, 0.00000000
1, 0.8452, 102, 0.29406738, -0.96289063, 0.27978516, 29.88508606, -11.00969124, -112.68636322, -8.27243519, 31.33586693, -109.14936829, 82.96299744, 33.26272202, 28.63361168, -0.74241585, 0.56193447, 0.36470544, -0.00618622, 0.25238508, 0.13174434, -0.38264281, 100.36500549, 80.22028351, 31.37999916, 0.00000000
1, 0.8502, 103, 0.34234619, -0.95355225, 0.24151611, 30.83009148, -8.73469162, -113.87636566, -8.27243519, 31.33586693, -109.14936829, 83.04243469, 33.82253647, 28.49837303, -0.74175829, 0.56111127, 0.36720136, -0.01057984, 0.21224490, 0.12759769, -0.34261826, 100.36500549, 80.22028351, 31.37999916, 0.00000000
1, 0.8348, 99, -0.64856786, -0.30679208, 0.22746405, 7.42655230, -54.90915298, 35.11940765, -28.44197655, 15.52177715, -117.04180145, 118.00770569, -57.95859528, 138.30816650, 0.22780856, 0.50002044, 0.61200154, 0.56880319, -0.19962153, -0.16262461, 0.01848574, 100.44400787, 73.59517670, 32.18999863, 0.00000000
1, 0.8552, 104, 0.41674805, -0.95556641, 0.20880127, 33.42008972, -8.76969147, -115.03135681, -8.44782257, 31.74510384, -109.29552460, 83.13317871, 34.38823318, 28.36219406, -0.74101734, 0.56033814, 0.36971334, -0.01505290, 0.14600728, 0.13491704, -0.30797139, 100.36500549, 80.22028351, 31.37999916, 0.00000000
1, 0.8602, 105, 0.48107910, -0.95654297, 0.20794678, 36.39508820, -10.58969212, -114.99635315, -8.44782257, 31.74510384, -109.29552460, 83.23158264, 34.95286179, 28.21527863, -0.74021250, 0.55964506, 0.37215346, -0.01961688, 0.08980283, 0.14127815, -0.30505943, 100.36500549, 80.22028351, 31.37999916, 0.00000000
1, 0.8652, 106, 0.51513672, -0.95788574, 0.20959473, 37.02508926, -16.08469391, -114.29636383, -8.44782257, 31.74510384, -109.29552460, 83.31294250, 35.51100922, 28.03552818, -0.73946166, 0.55896282, 0.37438813, -0.02430204, 0.06375769, 0.14806128, -0.30477732, 100.36500549, 80.22028351, 31.37999916, 0.00000000
1, 0.8398, 100, -0.64171344, -0.28045881, 0.24454661, 7.27063894, -50.17506409, 24.96394730, -28.44197655, 15.52177715, -117.04180145, 118.49174500, -57.95018768, 137.78036499, 0.22725028, 0.50185865, 0.61213386, 0.56726301, -0.20652451, -0.18678521, 0.00556035, 100.44400787, 73.59517670, 32.18999863, 0.00000000
1, 0.8748, 101, -0.24125540, -0.25750002, 0.15669221, -2.96134949, -22.20933151, -42.83635712, -30.16661835, 15.43408298, -116.60333252, 119.46899414, -56.98852539, 136.68026733, 0.21945834, 0.50364131, 0.61672920, 0.56376284, -0.59829235, -0.21624476, 0.10991487, 100.44400787, 73.59517670, 32.18999863, 0.00000000
1, 0.8798, 102, -0.21332355, -0.26988271, 0.15817727, -2.46360803, -26.51644897, -49.00938416, -30.16661835, 15.43408298, -116.60333252, 119.44899750, -56.70998001, 136.68870544, 0.21748088, 0.50300133, 0.61799431, 0.56371522, -0.62366009, -0.20740229, 0.11022912, 100.44400787, 73.59517670, 32.18999863, 0.00000000
1, 0.8848, 103, -0.24997440, -0.26453689, 0.11308733, -4.51007605, -29.05601311, -54.26663589, -29.84507370, 16.39871407, -115.81408691, 119.41628265, -56.40230560, 136.70008850, 0.21525896, 0.50229865, 0.61934417, 0.56371313, -0.58400971, -0.21662255, 0.15716073, 100.44400787, 73.59517670, 32.18999863, 0.00000000
1, 0.8702, 107, 0.52227783, -0.98077393, 0.20892334, 36.67509079, -26.44469833, -112.26635742, -7.48319197, 31.77433395, -109.03244781, 83.35467529, 36.05320740, 27.79331589, -0.73886991, 0.55827618, 0.37622887, -0.02916801, 0.06436069, 0.17638321, -0.30276123, 100.36500549, 80.22028351, 31.37999916, 0.00000000
1, 0.8752, 108, 0.53002930, -0.95275879, 0.21118164, 35.20508957, -34.21469879, -110.06136322, -7.48319197, 31.77433395, -109.03244781, 83.35899353, 36.58003235, 27.50342369, -0.73842382, 0.55755299, 0.37775692, -0.03412721, 0.06407747, 0.15377067, -0.30418670, 100.36500549, 80.22028351, 31.37999916, 0.00000000
1, 0.8898, 104, -0.24295604, -0.21669023, 0.14511374, -4.32760382, -30.60263824, -59.45849228, -29.84507370, 16.39871407, -115.81408691, 119.37590027, -56.06822586, 136.72174072, 0.21286933, 0.50148857, 0.62082154, 0.56371665, -0.58793771, -0.26886001, 0.12721807, 100.44400787, 73.59517670, 32.18999863, 0.00000000
1, 0.8948, 105, -0.22820838, -0.20268564, 0.22905068, -2.48680067, -36.65705872, -63.44692612, -29.84507370, 16.39871407, -115.81408691, 119.37674713, -55.69755554, 136.70764160, 0.21022847, 0.50070554, 0.62251216, 0.56353933, -0.59938002, -0.28759784, 0.04578599, 100.44400787, 73.59517670, 32.18999863, 0.00000000
1, 0.8998, 106, -0.20375730, -0.19962437, 0.23127829, -4.31700134, -45.13537216, -67.90206146, -29.90353584, 15.98947620, -116.80795288, 119.39897156, -55.29109192, 136.65342712, 0.20723259, 0.50001395, 0.62429458, 0.56329131, -0.61990637, -0.29556513, 0.04661303, 100.44400787, 73.59517670, 32.18999863, 0.00000000
1, 0.9152, 109, 0.15545654, -0.76495361, 0.25421143, 29.67508507, -79.04971313, -97.63636017, -8.56474686, 32.70973206, -109.79245758, 82.29693604, 40.37094116, 23.71291542, -0.73833019, 0.55103606, 0.38118118, -0.07699888, 0.49084783, 0.00865323, -0.35568282, 100.36500549, 80.22028351, 31.37999916, 0.00000000
1, 0.9048, 107, -0.20533539, -0.18140325, 0.19920585, -8.09252167, -51.92160034, -73.90452576, -29.90353584, 15.98947620, -116.80795288, 119.42271423, -54.84187698, 136.57398987, 0.20381892, 0.49935377, 0.62616688, 0.56304419, -0.61385262, -0.31911826, 0.08202636, 100.44400787, 73.59517670, 32.18999863, 0.00000000
1, 0.9098, 108, -0.23962578, -0.17431548, 0.17807661, -10.82849884, -65.24834442, -79.86580658, -31.01432228, 13.38789845, -116.39871216, 119.49216461, -54.33398819, 136.42114258, 0.19983152, 0.49887443, 0.62820828, 0.56262428, -0.57455850, -0.33197296, 0.10703188, 100.44400787, 73.59517670, 32.18999863, 0.00000000
1, 0.9202, 110, 0.11578369, -0.74810791, 0.24267578, 27.40008736, -81.70971680, -96.41135406, -8.85705948, 32.70973206, -109.93861389, 82.03095245, 40.79280472, 23.09346962, -0.73869473, 0.55003190, 0.38076884, -0.08252387, 0.53615624, -0.00296178, -0.34690940, 100.36500549, 80.22028351, 31.37999916, 0.00000000
1, 0.9398, 109, -0.40463439, -0.10426585, 0.22890857, -15.51321411, -88.94370270, -103.08477783, -31.45279121, 16.92487526, -116.19409180, 119.94093323, -50.70637894, 135.29762268, 0.17088519, 0.49571642, 0.64211059, 0.55924726, -0.37170273, -0.44301873, 0.08466624, 100.44400787, 73.59517670, 32.18999863, 0.00000000
1, 0.9448, 110, -0.46572348, -0.09424588, 0.27675119, -17.49000931, -91.03033447, -106.85993195, -31.45279121, 16.92487526, -116.19409180, 120.01493073, -50.01988983, 135.09049988, 0.16536888, 0.49510500, 0.64465022, 0.55852515, -0.30315673, -0.46067154, 0.04200730, 100.44400787, 73.59517670, 32.18999863, 0.00000000
1, 0.9252, 111, 0.07232666, -0.73065186, 0.25537109, 26.38508797, -82.93472290, -94.97635651, -8.85705948, 32.70973206, -109.93861389, 81.74779510, 41.20443726, 22.46076584, -0.73908567, 0.54899704, 0.38027412, -0.08801254, 0.58507407, -0.01521956, -0.36259127, 100.36500549, 80.22028351, 31.37999916, 0.00000000
1, 0.9302, 112, 0.05078125, -0.70916748, 0.25518799, 23.97008514, -82.44471741, -93.85635376, -8.27243519, 32.94358444, -110.52323914, 81.44757843, 41.60845947, 21.82563972, -0.73950768, 0.54788768, 0.37976581, -0.09341054, 0.61194223, -0.03151405, -0.36557150, 100.36500549, 80.22028351, 31.37999916, 0.00000000
1, 0.9352, 113, 0.00701904, -0.68188477, 0.24658203, 21.76508713, -80.86971283, -91.89635468, -8.27243519, 32.94358444, -110.52323914, 81.13675690, 42.00143433, 21.19613075, -0.73994195, 0.54672951, 0.37925902, -0.09866830, 0.66086555, -0.05364710, -0.36024427, 100.36500549, 80.22028351, 31.37999916, 0.00000000
1, 0.9498, 111, -0.51951718, -0.06906015, 0.29698762, -20.09576607, -91.19702911, -111.03700256, -31.21894073, 16.22332573, -116.19409180, 120.05225372, -49.31142807, 134.90794373, 0.15965419, 0.49435127, 0.64719468, 0.55791265, -0.24150519, -0.49372709, 0.02684686, 100.44400787, 73.59517670, 32.18999863, 0.00000000
1, 0.9548, 112, -0.56823331, -0.03053615, 0.26917818, -22.53902245, -87.17974854, -115.32672119, -31.21894073, 16.22332573, -116.19409180, 120.04141998, -48.59440613, 134.77104187, 0.15388893, 0.49337581, 0.64971805, 0.55746311, -0.18454963, -0.54036629, 0.05934841, 100.44400787, 73.59517670, 32.18999863, 0.00000000
1, 0.9598, 113, -0.59011370, 0.00489745, 0.24267697, -23.65257645, -81.71887970, -121.24640656, -31.48202324, 15.93101406, -116.63256073, 119.97982788, -47.86543655, 134.69306946, 0.14810328, 0.49208710, 0.65227783, 0.55717981, -0.15418860, -0.58426911, 0.09007107, 100.44400787, 73.59517670, 32.18999863, 0.00000000
1, 0.9402, 114, -0.00506592, -0.65185547, 0.23529053, 19.98008537, -77.26470947, -90.46134949, -8.27243519, 32.94358444, -110.52323914, 80.82651520, 42.38759232, 20.58543968, -0.74034411, 0.54553759, 0.37883121, -0.10376141, 0.67796791, -0.07856755, -0.35225809, 100.36500549, 80.22028351, 31.37999916, 0.00000000
1, 0.9452, 115, -0.03594971, -0.60015869, 0.22241211, 18.96508598, -70.36971283, -89.51634979, -7.89242887, 32.73896408, -110.96170807, 80.53571320, 42.77228165, 20.01547813, -0.74064100, 0.54434520, 0.37859803, -0.10864032, 0.71380085, -0.12518087, -0.34239820, 100.36500549, 80.22028351, 31.37999916, 0.00000000
1, 0.9502, 116, -0.02966309, -0.56640625, 0.20697021, 19.98008537, -64.27970886, -88.57135773, -7.89242887, 32.73896408, -110.96170807, 80.27172852, 43.15536118, 19.48154068, -0.74079973, 0.54321682, 0.37852523, -0.11335817, 0.71241975, -0.15386908, -0.32962197, 100.36500549, 80.22028351, 31.37999916, 0.00000000
1, 0.9552, 117, -0.03814697, -0.56536865, 0.18237305, 22.29008675, -58.57470322, -87.41635895, -8.74013424, 33.82051849, -111.63402557, 80.04029083, 43.53592682, 18.98197556, -0.74079823, 0.54219788, 0.37858927, -0.11793901, 0.72575545, -0.14989011, -0.30725849, 100.36500549, 80.22028351, 31.37999916, 0.00000000
1, 0.9648, 114, -0.58008498, 0.03955319, 0.23919944, -22.32933998, -66.02790833, -127.30381012, -31.48202324, 15.93101406, -116.63256073, 119.83401489, -47.14926529, 134.73727417, 0.14263816, 0.49021548, 0.65487218, 0.55721241, -0.15575677, -0.62768376, 0.09701538, 100.44400787, 73.59517670, 32.18999863, 0.00000000
1, 0.9698, 115, -0.57553536, 0.04496784, 0.25077268, -20.79075050, -59.00690842, -131.95817566, -31.48202324, 15.93101406, -116.63256073, 119.65410614, -46.43013763, 134.83929443, 0.13728672, 0.48801053, 0.65753359, 0.55735785, -0.15178293, -0.64208394, 0.08823867, 100.44400787, 73.59517670, 32.18999863, 0.00000000
1, 0.9748, 116, -0.58931196, 0.05455234, 0.24317166, -20.42519760, -51.93760681, -136.14082336, -30.98509216, 15.98947620, -116.89564514, 119.43775940, -45.70991516, 134.99560547, 0.13203788, 0.48549125, 0.66022372, 0.55764580, -0.12929304, -0.66078568, 0.09813640, 100.44400787, 73.59517670, 32.18999863, 0.00000000
1, 0.9602, 118, -0.00634766, -0.57720947, 0.14746094, 25.02008629, -53.49970627, -85.03635406, -8.74013424, 33.82051849, -111.63402557, 79.84247589, 43.90784836, 18.51476860, -0.74064499, 0.54132110, 0.37873912, -0.12236547, 0.69868588, -0.13315776, -0.27412325, 100.36500549, 80.22028351, 31.37999916, 0.00000000
1, 0.9802, 119, 0.05981445, -0.59753418, 0.12939453, 27.71508598, -28.78969765, -76.11135101, -7.95089149, 33.87898254, -112.36480713, 79.35522461, 45.30631638, 17.02339363, -0.73884714, 0.53884643, 0.38037655, -0.13806961, 0.64999187, -0.09477771, -0.25930670, 100.36500549, 80.22028351, 31.37999916, 0.00000000
1, 0.9852, 120, 0.06561279, -0.59118652, 0.13537598, 27.68008804, -23.15469742, -75.30634308, -7.95089149, 33.87898254, -112.36480713, 79.30705261, 45.65489960, 16.76170540, -0.73812205, 0.53834593, 0.38123131, -0.14150023, 0.64846647, -0.09674526, -0.26513988, 100.36500549, 80.22028351, 31.37999916, 0.00000000
1, 0.9798, 117, -0.60952419, 0.07076593, 0.23019522, -19.25865936, -43.37257385, -139.94746399, -30.98509216, 15.98947620, -116.89564514, 119.18569183, -44.99356461, 135.21214294, 0.12696162, 0.48262703, 0.66294628, 0.55808085, -0.10027659, -0.68622625, 0.11287656, 100.44400787, 73.59517670, 32.18999863, 0.00000000
1, 0.9848, 118, -0.61199373, 0.06802899, 0.24885900, -17.12637711, -35.22086716, -143.60098267, -30.69277954, 14.44022179, -116.83718109, 118.90736389, -44.28023529, 135.48388672, 0.12207095, 0.47942612, 0.66572499, 0.55862290, -0.08901553, -0.69283402, 0.09552533, 100.44400787, 73.59517670, 32.18999863, 0.00000000
1, 1.0148, 119, -0.48296508, -0.02739365, 0.18859203, -17.80156136, -9.16864109, -158.35934448, -29.58199310, 16.42794418, -117.07102966, 116.90592957, -39.95560455, 137.71911621, 0.09422745, 0.45558321, 0.68255717, 0.56363189, -0.16212294, -0.65411663, 0.15718204, 100.44400787, 73.59517670, 32.18999863, 0.00000000
1, 1.0198, 120, -0.43731704, -0.05275045, 0.16686045, -17.05436707, -6.58392906, -159.84954834, -29.58199310, 16.42794418, -117.07102966, 116.54678345, -39.22659302, 138.14572144, 0.08974451, 0.45105311, 0.68531579, 0.56465864, -0.19794911, -0.63815510, 0.17835072, 100.44400787, 73.59517670, 32.18999863, 0.00000000
1, 0.9902, 121, 0.07049561, -0.59985352, 0.14385986, 27.96008682, -19.47969627, -74.08135223, -7.95089149, 33.87898254, -112.65711975, 79.27751160, 46.00076294, 16.52560234, -0.73732722, 0.53789049, 0.38216904, -0.14480792, 0.64780724, -0.08374301, -0.27322233, 100.36500549, 80.22028351, 31.37999916, 0.00000000
1, 0.9952, 122, 0.07330322, -0.59484863, 0.14147949, 28.13508797, -17.83469582, -71.70134735, -8.68167210, 34.58053207, -112.65711975, 79.25737000, 46.33638763, 16.30268669, -0.73650682, 0.53748405, 0.38309804, -0.14800157, 0.64909905, -0.08451511, -0.27031177, 100.36500549, 80.22028351, 31.37999916, 0.00000000
1, 1.0002, 123, 0.08496094, -0.56774902, 0.14160156, 27.50508881, -18.00969505, -70.02134705, -8.68167210, 34.58053207, -112.65711975, 79.23282623, 46.66354370, 16.07925797, -0.73570645, 0.53707814, 0.38398162, -0.15113306, 0.64139843, -0.10747948, -0.26992434, 100.36500549, 80.22028351, 31.37999916, 0.00000000
1, 1.0052, 124, 0.08258057, -0.58386230, 0.12200928, 27.61008644, -18.91969490, -68.02634430, -8.38935947, 34.96053696, -112.39403534, 79.20402527, 46.97997284, 15.85046005, -0.73492384, 0.53669697, 0.38478425, -0.15422192, 0.64760005, -0.08731329, -0.24990740, 100.36500549, 80.22028351, 31.37999916, 0.00000000
1, 1.0248, 121, -0.39261818, -0.07395829, 0.15882130, -17.47442627, -7.27056122, -160.42140198, -29.08506203, 16.07716942, -118.06489563, 116.19759369, -38.49148941, 138.55979919, 0.08521431, 0.44650218, 0.68804389, 0.56565893, -0.23268718, -0.62627596, 0.18578997, 100.44400787, 73.59517670, 32.18999863, 0.00000000
1, 1.0298, 122, -0.35498911, -0.08755106, 0.13230719, -19.14846802, -10.06629944, -160.64196777, -29.08506203, 16.07716942, -118.06489563, 115.85978699, -37.74737549, 138.94865417, 0.08055797, 0.44199789, 0.69071090, 0.56662762, -0.26009023, -0.62190205, 0.21171254, 100.44400787, 73.59517670, 32.18999863, 0.00000000
1, 1.0348, 123, -0.33913541, -0.09625799, 0.09059284, -20.33621025, -14.62254810, -159.89419556, -28.58813095, 16.48640823, -117.83103943, 115.54263306, -36.99507141, 139.30032349, 0.07575621, 0.43761119, 0.69331539, 0.56751317, -0.26545912, -0.62225699, 0.25290260, 100.44400787, 73.59517670, 32.18999863, 0.00000000
1, 1.0102, 125, 0.10192871, -0.58801270, 0.12927246, 28.24008560, -19.58469582, -65.29634094, -8.38935947, 34.96053696, -112.39403534, 79.17562103, 47.28229523, 15.61905956, -0.73414820, 0.53637165, 0.38549325, -0.15724775, 0.63189697, -0.07925183, -0.25677261, 100.36500549, 80.22028351, 31.37999916, 0.00000000
1, 1.0152, 126, 0.09301758, -0.60070801, 0.13317871, 28.76508904, -20.80969620, -62.53134537, -8.50628471, 35.10669327, -112.56941986, 79.14421082, 47.56981659, 15.38109589, -0.73339242, 0.53609586, 0.38609090, -0.16022094, 0.64424384, -0.06282525, -0.26033148, 100.36500549, 80.22028351, 31.37999916, 0.00000000
1, 1.0398, 124, -0.34320343, -0.09672520, 0.06842464, -20.13428116, -19.28255081, -158.67585754, -28.58813095, 16.48640823, -117.83103943, 115.25283051, -36.23683548, 139.61407471, 0.07084397, 0.43335453, 0.69588268, 0.56827140, -0.25076032, -0.63068378, 0.27471319, 100.44400787, 73.59517670, 32.18999863, 0.00000000
1, 1.0448, 125, -0.36030579, -0.09706502, 0.07236207, -19.55368423, -25.69651222, -156.80310059, -28.58813095, 16.48640823, -117.83103943, 114.99864960, -35.47870255, 139.87902832, 0.06583780, 0.42931557, 0.69839454, 0.56885731, -0.22294700, -0.63899446, 0.27068728, 100.44400787, 73.59517670, 32.18999863, 0.00000000
1, 1.0498, 126, -0.39449692, -0.10517900, 0.10803290, -19.33046341, -34.80674362, -154.46429443, -28.09120178, 15.93101406, -118.06489563, 114.78352356, -34.70481491, 140.08169556, 0.06056710, 0.42552829, 0.70088029, 0.56923121, -0.17790009, -0.63931066, 0.23528287, 100.44400787, 73.59517670, 32.18999863, 0.00000000
1, 1.0802, 127, 0.16210938, -0.40417480, 0.22613525, 27.89008904, 2.25531244, -6.35632992, -7.33703566, 34.55130005, -114.03098297, 79.29504395, 49.37437439, 13.15133762, -0.72552460, 0.53910351, 0.38586864, -0.18462662, 0.59678841, -0.23562238, -0.34751779, 100.36500549, 80.22028351, 31.37999916, 0.00000000
1, 1.0852, 128, 0.19726563, -0.42541504, 0.22033691, 27.54008865, 3.37531257, -1.17632759, -7.33703566, 34.55130005, -114.03098297, 79.45081329, 49.38326645, 13.17513561, -0.72480994, 0.53998226, 0.38578093, -0.18504803, 0.56179023, -0.21452567, -0.33996177, 100.36500549, 80.22028351, 31.37999916, 0.00000000
1, 1.0902, 129, 0.25262451, -0.44311523, 0.20916748, 24.74008560, 3.27031279, 4.14367390, -7.80473518, 34.81438065, -113.79713440, 79.59763336, 49.36586761, 13.20560455, -0.72420508, 0.54086053, 0.38558674, -0.18525630, 0.50632381, -0.19725946, -0.32714087, 100.36500549, 80.22028351, 31.37999916, 0.00000000
1, 1.0952, 130, 0.29876709, -0.46026611, 0.19342041, 22.32508659, 1.80031216, 8.06367588, -7.80473518, 34.81438065, -113.79713440, 79.72799683, 49.32781219, 13.23029804, -0.72371268, 0.54171592, 0.38527259, -0.18533453, 0.45980582, -0.18081445, -0.30996519, 100.36500549, 80.22028351, 31.37999916, 0.00000000
1, 1.1002, 131, 0.32659912, -0.48101807, 0.18786621, 20.64508629, -0.08968838, 12.08867645, -7.80473518, 34.81438065, -113.79713440, 79.84317017, 49.26824188, 13.24605083, -0.72332352, 0.54257005, 0.38481680, -0.18530189, 0.43135843, -0.16100726, -0.30320749, 100.36500549, 80.22028351, 31.37999916, 0.00000000
1, 1.1052, 132, 0.34411621, -0.49481201, 0.18414307, 19.21008492, -1.27968884, 15.69367790, -8.24320412, 34.02513885, -113.56328583, 79.94787598, 49.18987274, 13.25748348, -0.72301680, 0.54342926, 0.38424936, -0.18515937, 0.41299844, -0.14839059, -0.29845756, 100.36500549, 80.22028351, 31.37999916, 0.00000000
1, 1.0548, 127, -0.43484691, -0.12733763, 0.13876846, -20.45056343, -44.49679565, -151.66650391, -28.09120178, 15.93101406, -118.06489563, 114.60203552, -33.92294693, 140.21882629, 0.05504660, 0.42205006, 0.70327777, 0.56942439, -0.12640876, -0.62534660, 0.20516461, 100.44400787, 73.59517670, 32.18999863, 0.00000000
1, 1.0598, 128, -0.47820586, -0.15404673, 0.15314385, -21.90621948, -52.87030411, -148.69287109, -28.09120178, 16.77871895, -118.85413361, 114.44642639, -33.13697433, 140.29884338, 0.04931434, 0.41885456, 0.70557028, 0.56947309, -0.07168415, -0.60655725, 0.19167222, 100.44400787, 73.59517670, 32.18999863, 0.00000000
1, 1.1102, 133, 0.35681152, -0.51196289, 0.18804932, 18.86008453, -1.48968887, 19.08868027, -8.24320412, 34.02513885, -113.56328583, 80.05284882, 49.09457779, 13.27159882, -0.72274828, 0.54433179, 0.38359708, -0.18490854, 0.39926109, -0.13263358, -0.30140412, 100.36500549, 80.22028351, 31.37999916, 0.00000000
1, 1.1152, 134, 0.36645508, -0.53704834, 0.20349121, 19.28008461, -0.92968863, 22.27368164, -8.62320995, 34.25898743, -114.06021881, 80.16600800, 48.98406982, 13.29379177, -0.72248507, 0.54530466, 0.38288286, -0.18455076, 0.38839856, -0.10915097, -0.31583995, 100.36500549, 80.22028351, 31.37999916, 0.00000000
1, 1.1202, 135, 0.38800049, -0.57440186, 0.21246338, 19.91008377, 0.22531174, 25.91368103, -8.62320995, 34.25898743, -114.06021881, 80.29206848, 48.85656357, 13.32894707, -0.72221541, 0.54636657, 0.38211259, -0.18406092, 0.36544994, -0.07362358, -0.32370639, 100.36500549, 80.22028351, 31.37999916, 0.00000000
1, 1.0948, 129, -0.79594660, -0.32485205, 0.29963738, -25.92730331, -72.74691772, -119.98707581, -27.30195808, 17.04179955, -120.05261230, 113.70478058, -27.93984032, 139.95487976, 0.00822794, 0.40221775, 0.71819419, 0.56775916, 0.32408857, -0.48317206, 0.05273150, 100.44400787, 73.59517670, 32.18999863, 0.00000000
1, 1.0998, 130, -0.86049587, -0.37644616, 0.31085628, -26.20478439, -69.56299591, -116.29729462, -27.65273285, 16.80795097, -120.49108124, 113.61750793, -27.26810074, 139.85733032, 0.00270045, 0.40030921, 0.71958768, 0.56739658, 0.39898795, -0.43712133, 0.04227684, 100.44400787, 73.59517670, 32.18999863, 0.00000000
1, 1.1048, 131, -0.92012602, -0.41779611, 0.33513999, -26.03805733, -64.84590149, -112.47144318, -27.65273285, 16.80795097, -120.49108124, 113.52329254, -26.62342453, 139.77488708, -0.00258125, 0.39838958, 0.72089332, 0.56709069, 0.46868029, -0.40113473, 0.01853671, 100.44400787, 73.59517670, 32.18999863, 0.00000000
1, 1.1098, 132, -0.97280163, -0.44800875, 0.33726674, -25.92447853, -58.57271576, -108.18720245, -27.38965225, 17.01256943, -120.87108612, 113.41920471, -26.01097870, 139.71429443, -0.00755744, 0.39643627, 0.72210568, 0.56687260, 0.53105223, -0.37598920, 0.01670111, 100.44400787, 73.59517670, 32.18999863, 0.00000000
1, 1.1148, 133, -1.01920450, -0.47335842, 0.33224031, -25.02152443, -49.86147690, -103.60955048, -27.38965225, 17.01256943, -120.87108612, 113.30464935, -25.43686295, 139.68708801, -0.01213008, 0.39440033, 0.72324431, 0.56676191, 0.58663595, -0.35541070, 0.02172129, 100.44400787, 73.59517670, 32.18999863, 0.00000000
1, 1.1252, 136, 0.39544678, -0.60125732, 0.21710205, 20.61008644, 2.15031219, 28.50368309, -8.62320995, 34.25898743, -114.06021881, 80.43446350, 48.71784592, 13.38123989, -0.72191632, 0.54750794, 0.38133478, -0.18345480, 0.35643399, -0.04880086, -0.32709813, 100.36500549, 80.22028351, 31.37999916, 0.00000000
1, 1.1852, 137, 1.11090088, -0.82440186, 0.32427979, 9.23508167, 45.37532425, 53.24869156, -8.12627888, 32.44665146, -114.03098297, 82.65170288, 46.18578339, 15.36425591, -0.71921420, 0.56260175, 0.37310171, -0.16433308, -0.38863766, 0.13859694, -0.41375351, 100.36500549, 80.22028351, 31.37999916, 0.00000000
1, 1.1902, 138, 1.35156250, -0.94580078, 0.41033936, 13.57508278, 62.07033539, 45.65368652, -7.71704149, 31.42355919, -113.59251404, 83.06894684, 45.99786758, 15.84922504, -0.71819377, 0.56421256, 0.37382951, -0.16159660, -0.63171315, 0.25690871, -0.49544090, 100.36500549, 80.22028351, 31.37999916, 0.00000000
1, 1.1952, 139, 1.57257080, -1.22711182, 0.56671143, 20.71508598, 75.75533295, 34.80368423, -7.71704149, 31.42355919, -113.59251404, 83.58207703, 45.86906433, 16.41926003, -0.71668851, 0.56595933, 0.37519822, -0.15897763, -0.85448945, 0.53569961, -0.64611799, 100.36500549, 80.22028351, 31.37999916, 0.00000000
1, 1.2002, 140, 1.52978516, -1.51983643, 0.61767578, 24.81008720, 75.58032990, 29.23868370, -7.71704149, 31.42355919, -113.59251404, 84.10885620, 45.76422882, 16.98083115, -0.71503645, 0.56773436, 0.37666500, -0.15660201, -0.81298399, 0.82640433, -0.69078404, 100.36500549, 80.22028351, 31.37999916, 0.00000000
1, 1.2052, 141, 1.35491943, -1.64880371, 0.60412598, 14.10008335, 57.27533722, 30.98868561, -7.80473518, 32.24203491, -113.24173737, 84.48716736, 45.63848877, 17.41087532, -0.71395451, 0.56907272, 0.37758616, -0.15444750, -0.63956869, 0.95336705, -0.67223972, 100.36500549, 80.22028351, 31.37999916, 0.00000000
1, 1.1198, 134, -1.04630244, -0.49582568, 0.33200625, -23.81588936, -39.78150558, -99.35362244, -27.38965225, 17.01256943, -120.87108612, 113.17858887, -24.90216827, 139.70063782, -0.01625839, 0.39223948, 0.72432750, 0.56677467, 0.62232709, -0.33744234, 0.02167405, 100.44400787, 73.59517670, 32.18999863, 0.00000000
1, 1.1248, 135, -1.05870581, -0.53394949, 0.33706307, -22.72132492, -29.13240814, -94.17137909, -27.47734642, 17.65565681, -121.07570648, 113.04091644, -24.41209793, 139.75556946, -0.01990293, 0.38997066, 0.72534204, 0.56692654, 0.64267755, -0.30354792, 0.01600031, 100.44400787, 73.59517670, 32.18999863, 0.00000000
1, 1.1298, 136, -1.04948783, -0.54674876, 0.34734908, -21.94767952, -18.66833115, -90.11111450, -27.47734642, 17.65565681, -121.07570648, 112.89015198, -23.96092415, 139.85316467, -0.02310228, 0.38756424, 0.72630334, 0.56722462, 0.64080632, -0.29473165, 0.00489346, 100.44400787, 73.59517670, 32.18999863, 0.00000000
1, 1.2102, 142, 1.10839844, -1.55816650, 0.45892334, -5.63992357, 30.85032272, 33.71868134, -7.80473518, 32.24203491, -113.24173737, 84.63187408, 45.48525238, 17.65300369, -0.71381199, 0.56965947, 0.37774691, -0.15253787, -0.39484370, 0.86066586, -0.52474058, 100.36500549, 80.22028351, 31.37999916, 0.00000000
1, 1.2152, 143, 0.85675049, -1.41986084, 0.32452393, -17.22492599, 12.16031551, 34.66368484, -7.16164875, 31.45279121, -112.74481201, 84.62361145, 45.31838608, 17.76232910, -0.71426928, 0.56977451, 0.37737805, -0.15087184, -0.14521009, 0.72029889, -0.39027184, 100.36500549, 80.22028351, 31.37999916, 0.00000000
1, 1.2202, 144, 0.67248535, -1.32409668, 0.20227051, -18.79992867, 7.43531418, 33.68368530, -7.16164875, 31.45279121, -112.74481201, 84.58289337, 45.15420151, 17.83738327, -0.71483493, 0.56979126, 0.37689555, -0.14932741, 0.03702367, 0.62253773, -0.26868924, 100.36500549, 80.22028351, 31.37999916, 0.00000000
1, 1.1348, 137, -1.02159703, -0.56486356, 0.34957120, -21.03849792, -4.49814034, -85.12300873, -27.41888237, 17.94796753, -121.71879578, 112.72074890, -23.55987740, 140.00991821, -0.02571363, 0.38495904, 0.72720593, 0.56772971, 0.61944479, -0.28032005, 0.00137578, 100.44400787, 73.59517670, 32.18999863, 0.00000000
1, 1.1398, 138, -0.98702556, -0.57936263, 0.33872172, -20.76553154, 3.18231988, -81.36808777, -27.41888237, 17.94796753, -121.71879578, 112.54221344, -23.19043922, 140.19572449, -0.02798332, 0.38227695, 0.72805107, 0.56835109, 0.59094155, -0.26931000, 0.01069823, 100.44400787, 73.59517670, 32.18999863, 0.00000000
1, 1.2252, 145, 0.57324219, -1.32287598, 0.13531494, -15.68492699, 13.28031731, 33.92868423, -7.16164875, 31.45279121, -112.74481201, 84.58680725, 44.99159241, 17.95366859, -0.71522647, 0.56994569, 0.37656796, -0.14768080, 0.13426259, 0.61932480, -0.20204048, 100.36500549, 80.22028351, 31.37999916, 0.00000000
1, 1.2302, 146, 0.52551270, -1.30151367, 0.09167480, -16.52492714, 21.71531868, 35.95868301, -7.01549244, 30.95586014, -113.32943726, 84.62875366, 44.82279205, 18.13014412, -0.71551096, 0.57015961, 0.37645712, -0.14574678, 0.17993203, 0.59587479, -0.15816531, 100.36500549, 80.22028351, 31.37999916, 0.00000000
1, 1.2248, 139, 0.33074197, -0.64925873, 0.07384902, -12.99098110, -4.06408691, -1.05480969, -25.84039688, 16.98333740, -121.80648804, 111.64129639, -24.62693214, 143.43940735, -0.00463693, 0.36728153, 0.72988260, 0.57650173, -0.74779898, -0.19569930, 0.26127464, 100.44400787, 73.59517670, 32.18999863, 0.00000000
1, 1.2298, 140, -0.16352189, -0.63527441, 0.12684335, -19.39757919, -42.29214859, -2.65558672, -25.84039688, 16.98333740, -121.80648804, 111.63205719, -24.53717422, 143.22837830, -0.00635868, 0.36826000, 0.72942501, 0.57644016, -0.25247630, -0.21038370, 0.20700885, 100.44400787, 73.59517670, 32.18999863, 0.00000000
1, 1.2752, 147, 0.00726318, -0.61181641, 0.13238525, -31.36493301, 20.31531906, 64.23869324, -5.52470016, 30.63431740, -113.59251404, 84.32274628, 42.73724747, 19.51802444, -0.72176689, 0.57025146, 0.37213475, -0.12402251, 0.67237985, -0.11813830, -0.20484067, 100.36500549, 80.22028351, 31.37999916, 0.00000000
1, 1.2802, 148, -0.12835693, -0.61572266, 0.22167969, -30.76993179, 16.50031662, 67.94869995, -5.52470016, 30.63431740, -113.59251404, 84.27532196, 42.40737534, 19.67533112, -0.72262824, 0.57047194, 0.37112814, -0.12097172, 0.80383492, -0.11799517, -0.29506701, 100.36500549, 80.22028351, 31.37999916, 0.00000000
1, 1.2348, 141, -0.53078568, -0.52363992, 0.18135260, -19.31252098, -46.71483231, -4.12912130, -26.54194641, 17.10026360, -122.06957245, 111.63097382, -24.43243599, 142.99787903, -0.00825691, 0.36930141, 0.72898865, 0.57630193, 0.11629739, -0.32281801, 0.15201405, 100.44400787, 73.59517670, 32.18999863, 0.00000000
1, 1.2398, 142, -0.66661471, -0.38334921, 0.21859649, -15.23125076, -45.41489410, -1.66138470, -26.54194641, 17.10026360, -122.06957245, 111.64919281, -24.34149551, 142.76924133, -0.00998597, 0.37038788, 0.72861254, 0.57605284, 0.25353211, -0.46371996, 0.11511891, 100.44400787, 73.59517670, 32.18999863, 0.00000000
1, 1.2448, 143, -0.81187594, -0.29958314, 0.28117672, 1.75667596, -45.30080795, 6.99328470, -26.77579689, 16.42794418, -121.71879578, 111.77531433, -24.34385872, 142.51811218, -0.01082245, 0.37200558, 0.72842550, 0.57523131, 0.39922684, -0.54728758, 0.05379262, 100.44400787, 73.59517670, 32.18999863, 0.00000000
1, 1.2852, 149, -0.23022461, -0.63122559, 0.27160645, -29.43993187, 15.83531761, 72.67370605, -5.52470016, 30.63431740, -113.59251404, 84.23265076, 42.05376053, 19.83086777, -0.72348386, 0.57080060, 0.36997172, -0.11780862, 0.90121353, -0.10649843, -0.34600306, 100.36500549, 80.22028351, 31.37999916, 0.00000000
1, 1.2902, 150, -0.28027344, -0.67889404, 0.30474854, -27.72493172, 26.19532204, 77.15370941, -6.46009922, 30.69277954, -113.03712463, 84.24550629, 41.68310928, 20.05787086, -0.72414309, 0.57130128, 0.36901709, -0.11427218, 0.94649905, -0.06308603, -0.37962729, 100.36500549, 80.22028351, 31.37999916, 0.00000000
1, 1.2952, 151, -0.26177979, -0.70776367, 0.39984131, -26.84992981, 43.06532669, 80.23369598, -6.46009922, 30.69277954, -113.03712463, 84.33604431, 41.30535507, 20.39719963, -0.72451299, 0.57195437, 0.36850861, -0.11023023, 0.92308980, -0.03865048, -0.47422120, 100.36500549, 80.22028351, 31.37999916, 0.00000000
1, 1.2498, 144, -0.93305886, -0.20320372, 0.34544599, 6.56617880, -41.29647827, 14.63383198, -26.77579689, 16.42794418, -121.71879578, 111.90730286, -24.33524132, 142.27790833, -0.01165844, 0.37351057, 0.72833192, 0.57435757, 0.52012211, -0.64292157, -0.00864922, 100.44400787, 73.59517670, 32.18999863, 0.00000000
1, 1.2548, 145, -0.97910017, -0.12825494, 0.44585529, 10.84576225, -38.42680359, 18.53854370, -26.77579689, 16.42794418, -121.71879578, 112.05800629, -24.34951401, 142.04435730, -0.01223561, 0.37506801, 0.72828114, 0.57339418, 0.56575674, -0.71709669, -0.10691206, 100.44400787, 73.59517670, 32.18999863, 0.00000000
1, 1.2598, 146, -0.90698248, -0.09808236, 0.49791002, 11.69833565, -38.15991974, 19.34025383, -26.89272118, 17.36334419, -121.63110352, 112.21323395, -24.36741066, 141.81042480, -0.01277022, 0.37664324, 0.72823632, 0.57240611, 0.49322325, -0.74630761, -0.15650368, 100.44400787, 73.59517670, 32.18999863, 0.00000000
1, 1.3002, 152, -0.17926025, -0.71289063, 0.53558350, -26.74493027, 55.84032822, 82.36869812, -6.40163708, 29.87430573, -112.48172760, 84.47985077, 40.92269135, 20.81928825, -0.72467148, 0.57269591, 0.36834317, -0.10580158, 0.83556414, -0.03805605, -0.60866976, 100.36500549, 80.22028351, 31.37999916, 0.00000000
1, 1.3052, 153, 0.01318359, -0.69354248, 0.64263916, -25.09992981, 65.08032990, 84.22370911, -6.40163708, 29.87430573, -112.48172760, 84.66754150, 40.53422928, 21.29931259, -0.72463334, 0.57354969, 0.36840811, -0.10110757, 0.63800704, -0.06202366, -0.71382546, 100.36500549, 80.22028351, 31.37999916, 0.00000000
1, 1.3102, 154, 0.21398926, -0.67315674, 0.72479248, -17.64492989, 74.88033295, 84.01370239, -6.40163708, 29.87430573, -112.48172760, 84.92832184, 40.14990997, 21.83855247, -0.72423297, 0.57466495, 0.36874729, -0.09629232, 0.43206218, -0.08704983, -0.79334569, 100.36500549, 80.22028351, 31.37999916, 0.00000000
1, 1.2648, 147, -0.80453289, -0.05141993, 0.46399236, 11.35637093, -36.82396317, 17.23826981, -26.89272118, 17.36334419, -121.63110352, 112.36219025, -24.37754059, 141.58758545, -0.01332070, 0.37811673, 0.72821546, 0.57144785, 0.39066005, -0.79192227, -0.12006748, 100.44400787, 73.59517670, 32.18999863, 0.00000000
1, 1.2698, 148, -0.69723129, -0.00963727, 0.39600497, 14.00888729, -27.99591064, 11.70141506, -27.41888237, 16.95410728, -121.57263947, 112.50109863, -24.37830353, 141.42109680, -0.01368588, 0.37919420, 0.72835523, 0.57054639, 0.28348285, -0.83271623, -0.04967005, 100.44400787, 73.59517670, 32.18999863, 0.00000000
1, 1.3048, 149, -0.75874901, -1.88440990, 0.57442766, 1.19345379, 23.20414925, -13.23926163, -27.38965225, 16.66179466, -121.95264435, 112.90389252, -24.19898796, 141.72467041, -0.01211232, 0.37659505, 0.73189467, 0.56776732, 0.34737056, 1.04337728, -0.22415349, 100.44400787, 73.59517670, 32.18999863, 0.00000000
1, 1.3098, 150, -0.53290021, -2.09364247, 0.48309773, -4.08302927, 44.60362625, -14.20432281, -27.71119499, 16.77871895, -122.04033661, 112.77849579, -24.21978188, 141.98027039, -0.01110965, 0.37503207, 0.73204911, 0.56862259, 0.12157442, 1.25216460, -0.13421799, 100.44400787, 73.59517670, 32.18999863, 0.00000000
1, 1.3148, 151, -0.19762500, -2.07580566, 0.51041013, -10.57094097, 57.98408508, -12.36566639, -27.71119499, 16.77871895, -122.04033661, 112.59426880, -24.27420425, 142.29983521, -0.00974008, 0.37319040, 0.73201513, 0.56990170, -0.21451701, 1.23354292, -0.16330656, 100.44400787, 73.59517670, 32.18999863, 0.00000000
1, 1.3198, 152, 0.03680080, -1.86834192, 0.53913730, -19.98436737, 49.37932968, -6.94774055, -27.38965225, 16.57410049, -122.56649780, 112.38522339, -24.33641434, 142.56471252, -0.00866230, 0.37173048, 0.73165023, 0.57133996, -0.45000011, 1.02519214, -0.19429973, 100.44400787, 73.59517670, 32.18999863, 0.00000000
1, 1.3248, 153, 0.10197490, -1.56290483, 0.49303287, -27.84490967, 27.41093826, -0.01034594, -27.38965225, 16.57410049, -122.56649780, 112.18859863, -24.38847733, 142.70390320, -0.00823834, 0.37103665, 0.73096514, 0.57267261, -0.51593125, 0.71897793, -0.15064788, 100.44400787, 73.59517670, 32.18999863, 0.00000000
1, 1.3152, 155, 0.46630859, -0.70794678, 0.81713867, -3.22492266, 89.68533325, 80.61870575, -6.16778708, 29.75738144, -112.54019165, 85.31540680, 39.78644562, 22.46629715, -0.72319961, 0.57622874, 0.36956874, -0.09144269, 0.17482196, -0.05680529, -0.88118309, 100.36500549, 80.22028351, 31.37999916, 0.00000000
1, 1.3202, 156, 0.62945557, -0.76373291, 0.85327148, 6.22508001, 96.96533966, 75.29869843, -6.16778708, 29.75738144, -112.54019165, 85.77085876, 39.44878006, 23.13177490, -0.72176963, 0.57801777, 0.37070537, -0.08672766, 0.00703717, -0.00532979, -0.91171026, 100.36500549, 80.22028351, 31.37999916, 0.00000000
1, 1.3602, 157, 0.52661133, -1.13763428, 0.34954834, 20.54008484, -0.15968838, 43.79868698, -5.81701231, 27.82811928, -111.57556152, 88.33631897, 37.44640350, 25.77620697, -0.71211153, 0.59191281, 0.37163734, -0.06650003, 0.08217932, 0.34464785, -0.37290657, 100.36500549, 80.22028351, 31.37999916, 0.00000000
1, 1.3652, 158, 0.38885498, -1.07543945, 0.38458252, 16.79508400, -7.89469147, 46.59868622, -5.37854433, 27.27272606, -110.84477997, 88.39527130, 37.21237946, 25.73493576, -0.71193928, 0.59316593, 0.37013888, -0.06552828, 0.21674073, 0.27998456, -0.40703773, 100.36500549, 80.22028351, 31.37999916, 0.00000000
1, 1.3298, 154, 0.04778025, -1.23975134, 0.44366366, -31.18870354, 8.25049877, 6.20038509, -27.38965225, 16.57410049, -122.56649780, 112.02072144, -24.43305779, 142.73297119, -0.00832291, 0.37101856, 0.73008692, 0.57380223, -0.46234441, 0.39516091, -0.10359374, 100.44400787, 73.59517670, 32.18999863, 0.00000000
1, 1.3348, 155, -0.03890639, -0.95126820, 0.50664216, -31.49392509, -6.63298607, 10.89702988, -26.83425903, 16.34025192, -121.74802399, 111.88666534, -24.47165298, 142.67672729, -0.00876784, 0.37152228, 0.72911805, 0.57470095, -0.37645775, 0.10599565, -0.16853166, 100.44400787, 73.59517670, 32.18999863, 0.00000000
1, 1.3398, 156, -0.09271052, -0.73536456, 0.59626120, -31.16796875, -26.91656113, 14.40536118, -26.83425903, 16.34025192, -121.74802399, 111.80016327, -24.48905945, 142.50988770, -0.00976364, 0.37264636, 0.72809035, 0.57525980, -0.32325780, -0.11048007, -0.25945652, 100.44400787, 73.59517670, 32.18999863, 0.00000000
1, 1.3702, 159, 0.26989746, -0.99841309, 0.39428711, 13.99508286, -9.99469185, 50.51868439, -5.37854433, 27.27272606, -110.84477997, 88.43276978, 36.95850372, 25.68107224, -0.71188098, 0.59438640, 0.36847985, -0.06444351, 0.33224338, 0.20032610, -0.41624904, 100.36500549, 80.22028351, 31.37999916, 0.00000000
1, 1.3752, 160, 0.22821045, -0.93530273, 0.39916992, 13.64508343, -9.04969120, 55.06869125, -5.17392588, 26.42502213, -110.84477997, 88.47271729, 36.68203735, 25.63386154, -0.71182519, 0.59566838, 0.36673105, -0.06318687, 0.37014848, 0.13436407, -0.42067367, 100.36500549, 80.22028351, 31.37999916, 0.00000000
1, 1.3802, 161, 0.22735596, -0.90692139, 0.38836670, 13.40008259, -7.54469109, 61.08869171, -5.17392588, 26.42502213, -110.84477997, 88.51770020, 36.37570953, 25.59690285, -0.71176344, 0.59703892, 0.36487055, -0.06169979, 0.36683744, 0.10287353, -0.40933007, 100.36500549, 80.22028351, 31.37999916, 0.00000000
1, 1.3852, 162, 0.26214600, -0.89300537, 0.38684082, 11.96508217, -5.58469009, 65.49869537, -5.17392588, 26.42502213, -110.84477997, 88.56318665, 36.04759979, 25.57263184, -0.71171403, 0.59843570, 0.36295697, -0.06000134, 0.32750300, 0.08560511, -0.40725577, 100.36500549, 80.22028351, 31.37999916, 0.00000000
1, 1.3448, 157, -0.17815979, -0.58983326, 0.55386519, -31.93534470, -51.40606689, 15.68917751, -27.30195808, 16.98333740, -122.42034149, 111.77699280, -24.46240044, 142.20950317, -0.01153432, 0.37444398, 0.72707456, 0.57534450, -0.23748267, -0.25627959, -0.21760973, 100.44400787, 73.59517670, 32.18999863, 0.00000000
1, 1.3498, 158, -0.36648270, -0.43716672, 0.44670835, -31.88891602, -64.71273041, 12.81260872, -27.30195808, 16.98333740, -122.42034149, 111.76515961, -24.40278435, 141.85307312, -0.01378071, 0.37646246, 0.72602630, 0.57530165, -0.04805383, -0.40918592, -0.11068273, 100.44400787, 73.59517670, 32.18999863, 0.00000000
1, 1.3902, 163, 0.33331299, -0.88494873, 0.35607910, 10.81008148, -3.72968936, 70.39870453, -5.26161957, 26.65887070, -111.75094604, 88.61003113, 35.69525528, 25.56034470, -0.71167165, 0.59987366, 0.36097288, -0.05808347, 0.25142467, 0.07397047, -0.37592334, 100.36500549, 80.22028351, 31.37999916, 0.00000000
1, 1.3952, 164, 0.37780762, -0.91693115, 0.30267334, 10.11008167, -4.49969006, 73.61869812, -5.26161957, 26.65887070, -111.75094604, 88.65081024, 35.32672501, 25.54350853, -0.71166074, 0.60133260, 0.35887867, -0.05607416, 0.20175290, 0.10223262, -0.32199439, 100.36500549, 80.22028351, 31.37999916, 0.00000000
1, 1.4002, 165, 0.42425537, -0.95019531, 0.24920654, 8.46508026, -6.10969019, 75.71869659, -5.40777540, 25.98655319, -111.04940033, 88.67786407, 34.94752884, 25.51696014, -0.71171552, 0.60276288, 0.35667953, -0.05401552, 0.14993100, 0.13169222, -0.26818138, 100.36500549, 80.22028351, 31.37999916, 0.00000000
1, 1.4052, 166, 0.47680664, -0.97613525, 0.20874023, 7.31008101, -8.80469036, 76.90870667, -5.40777540, 25.98655319, -111.04940033, 88.69001770, 34.56207275, 25.47414207, -0.71183747, 0.60416269, 0.35436410, -0.05197224, 0.09188003, 0.15379842, -0.22757654, 100.36500549, 80.22028351, 31.37999916, 0.00000000
1, 1.3948, 159, -0.78552938, -1.03496730, 0.25018659, -25.12321281, -9.26104546, -12.45125484, -27.97427559, 16.31101990, -122.36187744, 111.51555634, -23.48525620, 139.66168213, -0.03202967, 0.38655835, 0.72024912, 0.57514167, 0.38618749, 0.18157949, 0.08300195, 100.44400787, 73.59517670, 32.18999863, 0.00000000
1, 1.3998, 160, -0.70310956, -0.98118961, 0.19278491, -24.00181198, -2.25681615, -13.63056374, -27.97427559, 16.31101990, -122.36187744, 111.38922119, -23.41795731, 139.67713928, -0.03284715, 0.38615540, 0.71987110, 0.57583922, 0.30492651, 0.12673619, 0.13895366, 100.44400787, 73.59517670, 32.18999863, 0.00000000
1, 1.4048, 161, -0.60839272, -0.91926110, 0.16988643, -21.13752747, 4.57159328, -15.57234478, -27.97427559, 16.31101990, -122.36187744, 111.26198578, -23.35388565, 139.73097229, -0.03345130, 0.38552272, 0.71960682, 0.57655817, 0.21129261, 0.06368970, 0.16045228, 100.44400787, 73.59517670, 32.18999863, 0.00000000
1, 1.4098, 162, -0.54423147, -0.89409292, 0.19969590, -18.27007675, 8.16413212, -17.66139984, -28.73428726, 17.33411217, -122.56649780, 111.14031982, -23.28641319, 139.80699158, -0.03394745, 0.38473755, 0.71945399, 0.57724392, 0.14812481, 0.03732138, 0.12915201, 100.44400787, 73.59517670, 32.18999863, 0.00000000
1, 1.4148, 163, -0.49579614, -0.88535631, 0.24569406, -14.75263691, 7.71778107, -21.04677200, -28.73428726, 17.33411217, -122.56649780, 111.03467560, -23.20215797, 139.88714600, -0.03448431, 0.38386196, 0.71944493, 0.57780606, 0.10084102, 0.02737076, 0.08185051, 100.44400787, 73.59517670, 32.18999863, 0.00000000
1, 1.4102, 167, 0.47167969, -1.00372314, 0.17504883, 7.03008032, -11.46469116, 76.97870636, -5.40777540, 25.98655319, -111.04940033, 88.69197845, 34.17597198, 25.41535950, -0.71199983, 0.60554171, 0.35196072, -0.04999194, 0.09144726, 0.17756981, -0.19391440, 100.36500549, 80.22028351, 31.37999916, 0.00000000
1, 1.4252, 168, 0.33886719, -1.14587402, 0.20184326, 4.37007999, -18.04469490, 71.69370270, -5.37854433, 23.99883080, -110.52323914, 88.64382935, 33.06355286, 25.16261101, -0.71268851, 0.60938001, 0.34458447, -0.04464056, 0.20800963, 0.30889404, -0.22153668, 100.36500549, 80.22028351, 31.37999916, 0.00000000
1, 1.4302, 169, 0.19256592, -1.17150879, 0.22747803, 2.23507905, -16.81969452, 70.60870361, -5.37854433, 23.99883080, -110.52323914, 88.60612488, 32.70859528, 25.07257462, -0.71301591, 0.61047524, 0.34217787, -0.04292548, 0.34910282, 0.33116347, -0.24778405, 100.36500549, 80.22028351, 31.37999916, 0.00000000
1, 1.4198, 164, -0.44042832, -0.90443444, 0.24950738, -14.02608871, 3.10111856, -22.91866875, -28.50043869, 17.12949371, -122.82958221, 110.94061279, -23.10079575, 139.94729614, -0.03520102, 0.38304472, 0.71947736, 0.57826465, 0.04703653, 0.04525866, 0.07693891, 100.44400787, 73.59517670, 32.18999863, 0.00000000
1, 1.4248, 165, -0.44309938, -0.91567266, 0.22353728, -14.10196972, -2.30719471, -22.55588531, -28.50043869, 17.12949371, -122.82958221, 110.85740662, -22.99144173, 139.97901917, -0.03607934, 0.38237509, 0.71949238, 0.57863492, 0.05149784, 0.05535833, 0.10185289, 100.44400787, 73.59517670, 32.18999863, 0.00000000
1, 1.4298, 166, -0.42740184, -0.93675137, 0.20028828, -13.25273132, -5.06710100, -23.36857414, -28.50043869, 17.12949371, -122.82958221, 110.78340149, -22.87335205, 139.99813843, -0.03705063, 0.38175046, 0.71953696, 0.57893050, 0.03772040, 0.07530485, 0.12424985, 100.44400787, 73.59517670, 32.18999863, 0.00000000
1, 1.4348, 167, -0.42808920, -0.93106830, 0.22087455, -12.50624371, -5.37267399, -24.89260483, -28.44197655, 17.86027527, -122.65419006, 110.71270752, -22.74756432, 140.01841736, -0.03805767, 0.38108641, 0.71962416, 0.57919425, 0.04034936, 0.06839548, 0.10289361, 100.44400787, 73.59517670, 32.18999863, 0.00000000
1, 1.4398, 168, -0.43068492, -0.92256200, 0.25427970, -11.66193104, -7.81012821, -26.08311844, -28.44197655, 17.86027527, -122.65419006, 110.65019226, -22.61188507, 140.02844238, -0.03915731, 0.38044736, 0.71974713, 0.57938826, 0.04500309, 0.05862605, 0.06883307, 100.44400787, 73.59517670, 32.18999863, 0.00000000
1, 1.4352, 170, 0.16143799, -1.18994141, 0.22271729, -0.31992197, -11.98969269, 70.57369995, -5.37854433, 23.99883080, -110.52323914, 88.57182312, 32.35435486, 25.01178551, -0.71333224, 0.61149347, 0.33992386, -0.04104423, 0.37501982, 0.34627488, -0.24363399, 100.36500549, 80.22028351, 31.37999916, 0.00000000
1, 1.4402, 171, 0.16723633, -1.20050049, 0.24871826, -1.47492230, -7.50969124, 70.11869812, -6.48933077, 25.13884735, -111.95556641, 88.54637146, 32.00292587, 24.97784996, -0.71360517, 0.61247122, 0.33782026, -0.03904010, 0.36402154, 0.35356206, -0.27011818, 100.36500549, 80.22028351, 31.37999916, 0.00000000
1, 1.4452, 172, 0.12487793, -1.20697021, 0.26422119, -4.79992294, -4.49969006, 69.31369781, -6.48933077, 25.13884735, -111.95556641, 88.51392365, 31.65589905, 24.96183395, -0.71391463, 0.61333299, 0.33583441, -0.03693124, 0.40122339, 0.35683236, -0.28614593, 100.36500549, 80.22028351, 31.37999916, 0.00000000
1, 1.4798, 169, -0.54063940, -0.92523754, 0.34224606, -8.25278187, -0.37567058, -34.25668335, -28.73428726, 17.80181122, -123.12189484, 110.21006775, -21.38995361, 140.14978027, -0.04846998, 0.37447330, 0.72152841, 0.58035958, 0.17441127, 0.05121829, -0.02327323, 100.44400787, 73.59517670, 32.18999863, 0.00000000
1, 1.4848, 170, -0.54503131, -0.93256044, 0.32188702, -9.18028164, 2.50326562, -35.54329300, -27.71119499, 17.71411896, -123.12189484, 110.13535309, -21.22744560, 140.22782898, -0.04944398, 0.37327299, 0.72187835, 0.58061546, 0.18149510, 0.05720136, -0.00368028, 100.44400787, 73.59517670, 32.18999863, 0.00000000
1, 1.4898, 171, -0.51982611, -0.92672253, 0.33504069, -9.14813900, 8.38546181, -36.80558395, -27.71119499, 17.71411896, -123.12189484, 110.04958344, -21.06897163, 140.33750916, -0.05026432, 0.37188268, 0.72226048, 0.58096188, 0.15885741, 0.04993171, -0.01768103, 100.44400787, 73.59517670, 32.18999863, 0.00000000
1, 1.4948, 172, -0.47003233, -0.91292572, 0.35398105, -9.84166527, 12.61331749, -37.60734177, -27.21426392, 18.06489372, -122.91727448, 109.95486450, -20.91949272, 140.46882629, -0.05093985, 0.37038672, 0.72263771, 0.58138943, 0.11150731, 0.03468352, -0.03757597, 100.44400787, 73.59517670, 32.18999863, 0.00000000
1, 1.4998, 173, -0.42014363, -0.88861513, 0.36073706, -10.40250874, 11.85079575, -37.96889877, -27.21426392, 18.06489372, -122.91727448, 109.85665894, -20.76109886, 140.59729004, -0.05170070, 0.36886674, 0.72300988, 0.58182573, 0.06411696, 0.00891820, -0.04533549, 100.44400787, 73.59517670, 32.18999863, 0.00000000
1, 1.4502, 173, 0.09075928, -1.19451904, 0.26440430, -8.92992496, -0.01968835, 68.78870392, -5.70008755, 24.34960556, -111.54633331, 88.47473907, 31.31207466, 24.97231483, -0.71426153, 0.61405993, 0.33400574, -0.03465797, 0.43021646, 0.34124732, -0.28697646, 100.36500549, 80.22028351, 31.37999916, 0.00000000
1, 1.4552, 174, 0.08923340, -1.15576172, 0.27197266, -12.42992592, 6.91031408, 67.91370392, -5.70008755, 24.34960556, -111.54633331, 88.43896484, 30.97356224, 25.02334785, -0.71459341, 0.61466980, 0.33241874, -0.03217495, 0.42666757, 0.29942933, -0.29518649, 100.36500549, 80.22028351, 31.37999916, 0.00000000
1, 1.4602, 175, 0.13720703, -1.12945557, 0.27056885, -15.61492729, 14.26031590, 66.72369385, -5.70008755, 24.34960556, -111.54633331, 88.40886688, 30.64202881, 25.11701584, -0.71489567, 0.61516792, 0.33109421, -0.02948542, 0.37370315, 0.27015102, -0.29432738, 100.36500549, 80.22028351, 31.37999916, 0.00000000
1, 1.5302, 176, 0.19824219, -0.93322754, 0.36267090, -16.97992706, 26.47532082, 74.14369965, -6.13855600, 22.09880066, -110.55246735, 88.07993317, 25.91156387, 27.30626106, -0.71754801, 0.62027776, 0.31652310, 0.01391134, 0.24017669, 0.03496102, -0.39272872, 100.36500549, 80.22028351, 31.37999916, 0.00000000
1, 1.5352, 177, 0.21716309, -0.91467285, 0.37249756, -16.73492813, 24.37531853, 75.75370026, -7.36626720, 21.98187637, -110.34784698, 88.06111908, 25.53711128, 27.45562935, -0.71761370, 0.62078148, 0.31522387, 0.01717384, 0.21541125, 0.01358968, -0.40292406, 100.36500549, 80.22028351, 31.37999916, 0.00000000
1, 1.5402, 178, 0.22198486, -0.89404297, 0.38220215, -16.76992798, 22.97531891, 76.97870636, -7.36626720, 21.98187637, -110.34784698, 88.03786469, 25.15634918, 27.59716606, -0.71768963, 0.62129402, 0.31384361, 0.02043704, 0.20461255, -0.00987000, -0.41307420, 100.36500549, 80.22028351, 31.37999916, 0.00000000
1, 1.5452, 179, 0.24145508, -0.88323975, 0.37390137, -16.27992630, 21.82031822, 78.20369720, -7.36626720, 21.98187637, -110.34784698, 88.01349640, 24.76932335, 27.73229980, -0.71775764, 0.62183160, 0.31239033, 0.02370032, 0.17904857, -0.02350760, -0.40525484, 100.36500549, 80.22028351, 31.37999916, 0.00000000
1, 1.5502, 180, 0.27612305, -0.87420654, 0.35479736, -15.64992523, 20.42031860, 79.11370850, -7.22011089, 21.42648315, -110.37708282, 87.98822784, 24.37755585, 27.85967636, -0.71781737, 0.62239468, 0.31086504, 0.02694522, 0.13818324, -0.03537202, -0.38664562, 100.36500549, 80.22028351, 31.37999916, 0.00000000
1, 1.5048, 174, -0.37384444, -0.86653757, 0.35057324, -10.96845245, 8.57922077, -38.28503418, -27.50657654, 18.29874229, -122.85881042, 109.76174164, -20.59549904, 140.70941162, -0.05258162, 0.36741766, 0.72336298, 0.58222461, 0.02051711, -0.01462337, -0.03614490, 100.44400787, 73.59517670, 32.18999863, 0.00000000
1, 1.5098, 175, -0.34712312, -0.83772063, 0.34212607, -11.49373055, 7.81701612, -38.64703751, -27.50657654, 18.29874229, -122.85881042, 109.66575623, -20.42674446, 140.81794739, -0.05350398, 0.36597422, 0.72370452, 0.58262515, -0.00343181, -0.04492463, -0.02870530, 100.44400787, 73.59517670, 32.18999863, 0.00000000
1, 1.5148, 176, -0.30413651, -0.81474125, 0.36042023, -10.96689034, 8.25198364, -39.16916275, -27.50657654, 18.29874229, -122.85881042, 109.57176208, -20.25608635, 140.92916870, -0.05441745, 0.36450332, 0.72406626, 0.58301300, -0.04368233, -0.06942979, -0.04797171, 100.44400787, 73.59517670, 32.18999863, 0.00000000
1, 1.5552, 181, 0.30181885, -0.86743164, 0.33752441, -14.84492588, 18.67031670, 79.60370636, -7.22011089, 21.42648315, -110.37708282, 87.96221161, 23.98308372, 27.97736168, -0.71786898, 0.62298352, 0.30926856, 0.03014667, 0.10622242, -0.04495637, -0.36988795, 100.36500549, 80.22028351, 31.37999916, 0.00000000
1, 1.5602, 182, 0.30157471, -0.88415527, 0.33563232, -12.95492649, 16.57031631, 80.02369690, -7.33703566, 21.07570839, -111.02017212, 87.94023895, 23.58618546, 28.08348083, -0.71788752, 0.62363172, 0.30759332, 0.03327829, 0.10014092, -0.03101892, -0.36846182, 100.36500549, 80.22028351, 31.37999916, 0.00000000
1, 1.5652, 183, 0.30773926, -0.89868164, 0.33807373, -12.42992687, 13.56031704, 80.12870026, -7.33703566, 21.07570839, -111.02017212, 87.91366577, 23.18825340, 28.17309189, -0.71792275, 0.62429416, 0.30581763, 0.03632380, 0.08760885, -0.01924336, -0.37139910, 100.36500549, 80.22028351, 31.37999916, 0.00000000
1, 1.5198, 177, -0.28050935, -0.82208622, 0.37507969, -10.34337711, 6.65866423, -39.32023621, -27.33119011, 18.24028015, -123.15112305, 109.48401642, -20.08189964, 141.03225708, -0.05537491, 0.36306849, 0.72444028, 0.58335346, -0.06450373, -0.06358241, -0.06360675, 100.44400787, 73.59517670, 32.18999863, 0.00000000
1, 1.5702, 184, 0.30102539, -0.90441895, 0.33190918, -12.95492649, 10.13031483, 79.95370483, -7.33703566, 21.07570839, -111.02017212, 87.87661743, 22.79060745, 28.24401855, -0.71800905, 0.62493539, 0.30393448, 0.03927688, 0.08793641, -0.01620737, -0.36586204, 100.36500549, 80.22028351, 31.37999916, 0.00000000
1, 1.5752, 185, 0.28906250, -0.90344238, 0.33178711, -13.89992619, 6.24531364, 79.56869507, -7.83396673, 20.54954720, -110.34784698, 87.82631683, 22.39421463, 28.29396820, -0.71816438, 0.62554055, 0.30193472, 0.04212406, 0.09351038, -0.01982430, -0.36662430, 100.36500549, 80.22028351, 31.37999916, 0.00000000
1, 1.5248, 178, -0.29389140, -0.85059273, 0.36933514, -10.80456066, -2.26246834, -39.31668854, -27.33119011, 18.24028015, -123.15112305, 109.40970612, -19.89279747, 141.09019470, -0.05662100, 0.36185887, 0.72477841, 0.58356541, -0.04807454, -0.03653628, -0.05878188, 100.44400787, 73.59517670, 32.18999863, 0.00000000
1, 1.5852, 186, 0.21704102, -0.89074707, 0.32745361, -14.10992622, 5.30031300, 78.44869995, -7.95089149, 20.11107826, -110.26015472, 87.71961975, 21.61019897, 28.38670349, -0.71848357, 0.62669146, 0.29792804, 0.04772913, 0.15283149, -0.03760681, -0.36420318, 100.36500549, 80.22028351, 31.37999916, 0.00000000
1, 1.5902, 187, 0.20117188, -0.89428711, 0.30505371, -12.88492584, 4.39031315, 78.30870056, -7.95089149, 20.11107826, -110.26015472, 87.66997528, 21.21985626, 28.42718506, -0.71861142, 0.62729257, 0.29589579, 0.05047137, 0.16236171, -0.03653014, -0.34273270, 100.36500549, 80.22028351, 31.37999916, 0.00000000
1, 1.5698, 179, -0.29897973, -0.87140453, 0.30181527, -14.30497074, 4.37502241, -41.39231491, -26.54194641, 18.70797920, -122.59573364, 108.66007233, -18.17666817, 141.60981750, -0.06812517, 0.35073552, 0.72730857, 0.58597428, -0.01450093, -0.02887352, 0.00030664, 100.44400787, 73.59517670, 32.18999863, 0.00000000
1, 1.5748, 180, -0.25908181, -0.87899530, 0.33585495, -11.99938774, 7.74841499, -41.79693222, -26.54194641, 18.70797920, -122.59573364, 108.56587982, -17.99095917, 141.71823120, -0.06913475, 0.34917665, 0.72765988, 0.58635074, -0.05139486, -0.02280234, -0.03482179, 100.44400787, 73.59517670, 32.18999863, 0.00000000
1, 1.5798, 181, -0.26081923, -0.90516877, 0.35380924, -11.31594944, 7.09473228, -41.89131546, -26.22040367, 18.88336754, -122.62496185, 108.47653961, -17.80358887, 141.82313538, -0.07015689, 0.34763229, 0.72802556, 0.58669299, -0.04660068, 0.00191154, -0.05392816, 100.44400787, 73.59517670, 32.18999863, 0.00000000
1, 1.5952, 188, 0.20196533, -0.89416504, 0.28393555, -11.69492531, 2.85031223, 77.85370636, -7.95089149, 20.11107826, -110.26015472, 87.62312317, 20.83149719, 28.45956421, -0.71871895, 0.62792110, 0.29382670, 0.05314120, 0.15523428, -0.03906569, -0.32248390, 100.36500549, 80.22028351, 31.37999916, 0.00000000
1, 1.6002, 189, 0.13897705, -0.91497803, 0.29449463, -10.64492512, 1.62531221, 77.53870392, -8.18474102, 19.93569183, -109.90938568, 87.57906342, 20.44448090, 28.48558235, -0.71880579, 0.62857395, 0.29172686, 0.05575352, 0.21190453, -0.02061182, -0.33387476, 100.36500549, 80.22028351, 31.37999916, 0.00000000
1, 1.6052, 190, 0.08044434, -0.94177246, 0.31091309, -10.32992554, 2.32531238, 76.80370331, -8.18474102, 19.93569183, -109.90938568, 87.53773499, 20.06130981, 28.51539993, -0.71886861, 0.62921834, 0.28966653, 0.05835731, 0.26415050, 0.00388202, -0.35107443, 100.36500549, 80.22028351, 31.37999916, 0.00000000
1, 1.5848, 182, -0.27570540, -0.90958953, 0.33202365, -12.40206432, 5.75884247, -41.76912689, -26.22040367, 18.88336754, -122.62496185, 108.38431549, -17.61455917, 141.92074585, -0.07123440, 0.34612161, 0.72835469, 0.58704776, -0.02851996, 0.00493358, -0.03330866, 100.44400787, 73.59517670, 32.18999863, 0.00000000
1, 1.5898, 183, -0.29332754, -0.89990532, 0.28926522, -13.33548546, 6.57601166, -41.31713867, -26.22040367, 18.88336754, -122.62496185, 108.28686523, -17.42879868, 142.02125549, -0.07228811, 0.34460005, 0.72865307, 0.58744365, -0.00768566, -0.00611775, 0.00821290, 100.44400787, 73.59517670, 32.18999863, 0.00000000
1, 1.5948, 184, -0.29399109, -0.86785793, 0.26870164, -12.83187485, 9.11596870, -41.01764297, -25.48962212, 18.76644325, -121.92341614, 108.18787384, -17.24940300, 142.13375854, -0.07323905, 0.34302595, 0.72895849, 0.58786803, -0.00394730, -0.03954633, 0.02756027, 100.44400787, 73.59517670, 32.18999863, 0.00000000
1, 1.6102, 191, 0.07574463, -0.94439697, 0.30267334, -13.23492622, 8.06531429, 75.54370880, -8.38935947, 19.49722290, -109.90938568, 87.49203491, 19.68569946, 28.57565117, -0.71893370, 0.62973386, 0.28781015, 0.06111522, 0.26265132, 0.00428778, -0.34366348, 100.36500549, 80.22028351, 31.37999916, 0.00000000
1, 1.6152, 192, 0.07543945, -0.94622803, 0.29321289, -13.72492695, 10.79531574, 74.91369629, -8.38935947, 19.49722290, -109.90938568, 87.44836426, 19.31387520, 28.65040016, -0.71897137, 0.63021177, 0.28605214, 0.06393386, 0.25683016, 0.00397232, -0.33502710, 100.36500549, 80.22028351, 31.37999916, 0.00000000
1, 1.6202, 193, 0.07165527, -0.93371582, 0.29272461, -14.28492737, 12.86031628, 74.21370697, -8.38935947, 19.49722290, -109.90938568, 87.40499115, 18.94607353, 28.73602295, -0.71899265, 0.63065040, 0.28437337, 0.06679358, 0.25453493, -0.01062567, -0.33534712, 100.36500549, 80.22028351, 31.37999916, 0.00000000
1, 1.5998, 185, -0.28084588, -0.84949529, 0.28390473, -11.49024868, 12.98292446, -40.55697632, -25.48962212, 18.76644325, -121.92341614, 108.09146881, -17.07684517, 142.26403809, -0.07404169, 0.34136730, 0.72930801, 0.58829939, -0.01422951, -0.05929152, 0.01116338, 100.44400787, 73.59517670, 32.18999863, 0.00000000
1, 1.6048, 186, -0.24431553, -0.84547377, 0.28690121, -10.85723400, 13.64332008, -40.26887894, -25.60654831, 19.35106659, -122.94650269, 107.99790192, -16.90645599, 142.39672852, -0.07480628, 0.33970150, 0.72966892, 0.58871913, -0.04792503, -0.06463483, 0.00703529, 100.44400787, 73.59517670, 32.18999863, 0.00000000
1, 1.6252, 194, 0.07373047, -0.92028809, 0.27404785, -14.38992596, 16.01031685, 72.95369720, -8.71090317, 19.08798599, -110.37708282, 87.36585999, 18.58534050, 28.83806229, -0.71897346, 0.63105404, 0.28282475, 0.06970105, 0.24646924, -0.02606663, -0.31743509, 100.36500549, 80.22028351, 31.37999916, 0.00000000
1, 1.6302, 195, 0.09234619, -0.91406250, 0.27276611, -13.33992577, 20.31531715, 71.90369415, -8.71090317, 19.08798599, -110.37708282, 87.33844757, 18.23089981, 28.96250153, -0.71886748, 0.63145757, 0.28144005, 0.07268036, 0.22196075, -0.03423849, -0.31674385, 100.36500549, 80.22028351, 31.37999916, 0.00000000
