SensorId, TimeStamp (s), FrameNumber, AccX (g), AccY (g), AccZ (g), GyroX (deg/s), GyroY (deg/s), GyroZ (deg/s), MagX (uT), MagY (uT), MagZ (uT), EulerX (deg), EulerY (deg), EulerZ (deg), QuatW, QuatX, QuatY, QuatZ, LinAccX (g), LinAccY (g), LinAccZ (g), Pressure (kPa), Altitude (m), Temperature (degC), HeaveMotion (m)
1, 0.0000, 0, -0.60686499, -1.08897114, 0.20278615, 18.86954880, -59.75553513, 179.23652649, -1.90002918, 6.72318029, -109.64630127, 96.12577057, -33.80398560, -96.90843964, -0.58595580, 0.32662168, -0.66155404, -0.33514240, 0.05310784, 0.26024410, -0.11851878, 100.42400360, 75.27233124, 28.95999908, 0.00000000
1, 0.0050, 1, -0.77536494, -0.98704159, 0.13052095, 28.70694160, -61.98425674, 176.91999817, -1.90002918, 6.72318029, -109.64630127, 96.54647827, -34.64930725, -97.39727783, -0.58632737, 0.32134593, -0.66605651, -0.33064449, 0.20951471, 0.16729933, -0.04161563, 100.42400360, 75.27233124, 28.95999908, 0.00000000
1, 0.0100, 2, -0.93441200, -0.89238489, 0.33660182, 38.33445358, -67.20145416, 175.69163513, -1.90002918, 6.72318029, -109.64630127, 97.04653168, -35.48207474, -97.93012238, -0.58635354, 0.31625530, -0.67076784, -0.32594883, 0.35607088, 0.08138984, -0.24208522, 100.42400360, 75.27233124, 28.95999908, 0.00000000
1, 0.0150, 3, -1.06520414, -0.82503557, 0.55547369, 43.32955170, -80.94806671, 172.60136414, -3.82928967, 6.81087399, -109.88014984, 97.63460541, -36.28660202, -98.55995178, -0.58582234, 0.31116432, -0.67581177, -0.32135242, 0.47479588, 0.02289666, -0.45424682, 100.42400360, 75.27233124, 28.95999908, 0.00000000
1, 0.0500, 4, -0.68353689, -0.36349297, 0.29072598, 23.31480789, -79.39193726, 104.47137451, -9.76322746, 7.98012257, -111.28324890, 101.68672943, -40.52716446, -103.06920624, -0.57875192, 0.28125930, -0.70560324, -0.29675499, 0.03439779, -0.38284767, -0.14056727, 100.42400360, 75.27233124, 28.95999908, 0.00000000
1, 0.0550, 5, -0.68545192, -0.31986913, 0.25867173, 20.79082680, -84.61636353, 94.77468872, -9.76322746, 7.98012257, -111.28324890, 102.23202515, -40.90365601, -103.74392700, -0.57711262, 0.27777189, -0.70916140, -0.29474384, 0.03121126, -0.42059457, -0.10230903, 100.42400360, 75.27233124, 28.95999908, 0.00000000
1, 0.0001, 0, -0.06457520, -1.84069824, 0.41870117, -49.76454544, -115.73464203, -173.35452271, -11.02016926, 30.28354263, -113.53404999, 129.61967468, 37.37425232, 28.09548759, 0.46150345, -0.79845917, -0.34035912, 0.18339372, 0.66798711, 1.22682500, 0.09025155, 100.34500122, 81.89849854, 29.01000023, 0.00000000
1, 0.0051, 1, -0.06585693, -1.80010986, 0.41699219, -53.99954987, -127.07464600, -176.60951233, -11.02016926, 30.28354263, -113.53404999, 129.40544128, 38.45974731, 28.18632126, 0.46383685, -0.79369396, -0.34436899, 0.19056620, 0.68407220, 1.19328320, 0.08255553, 100.34500122, 81.89849854, 29.01000023, 0.00000000
1, 0.0600, 6, -0.68015862, -0.26789072, 0.22123125, 17.39334297, -88.33578491, 84.45899200, -9.76322746, 7.98012257, -111.28324890, 102.77490234, -41.22095490, -104.43632507, -0.57524920, 0.27446061, -0.71262336, -0.29313433, 0.02163334, -0.46726304, -0.05858730, 100.42400360, 75.27233124, 28.95999908, 0.00000000
1, 0.0101, 2, -0.12591553, -1.70672607, 0.43347168, -55.99454880, -134.98464966, -176.50453186, -11.02016926, 30.28354263, -113.53404999, 129.15483093, 39.57014847, 28.23303986, 0.46631363, -0.78874642, -0.34819794, 0.19796182, 0.75917023, 1.10714293, 0.05587895, 100.34500122, 81.89849854, 29.01000023, 0.00000000
1, 0.0151, 3, -0.19036865, -1.58935547, 0.47283936, -56.23954773, -142.64967346, -175.97952271, -10.49400711, 30.54662323, -114.20636749, 128.87335205, 40.70279312, 28.23264694, 0.46887246, -0.78365546, -0.35181949, 0.20558673, 0.83872187, 0.99724305, 0.00571629, 100.34500122, 81.89849854, 29.01000023, 0.00000000
1, 0.0650, 7, -0.66877544, -0.21533841, 0.15583882, 13.59513664, -91.35334015, 73.77954102, -11.57556248, 7.57088566, -111.19555664, 103.30829620, -41.47795868, -105.13936615, -0.57318485, 0.27133840, -0.71596503, -0.29193965, 0.00684573, -0.51508427, 0.01307919, 100.42400360, 75.27233124, 28.95999908, 0.00000000
1, 0.0700, 8, -0.64663178, -0.14271227, 0.07477140, 9.98790359, -92.52244568, 63.07162857, -11.57556248, 7.57088566, -111.19555664, 103.82330322, -41.67673111, -105.83893585, -0.57097560, 0.26843756, -0.71914530, -0.29113275, -0.01788268, -0.58359897, 0.10035593, 100.42400360, 75.27233124, 28.95999908, 0.00000000
1, 0.0750, 9, -0.61152291, -0.06949318, -0.00013091, 7.85934067, -92.42597961, 52.41011047, -12.71557999, 8.44782257, -111.80941010, 104.31998444, -41.81930542, -106.52481079, -0.56864572, 0.26581213, -0.72215497, -0.29065123, -0.05484315, -0.65335965, 0.18136202, 100.42400360, 75.27233124, 28.95999908, 0.00000000
1, 0.0501, 4, -0.45587158, -0.99749756, 0.27154541, -27.85453987, -121.40466309, -150.77951050, -15.78485775, 33.52820587, -116.10639954, 126.82154846, 48.19440842, 27.56358147, 0.48379940, -0.74927324, -0.37194896, 0.25725827, 1.19847167, 0.46167228, 0.13022396, 100.34500122, 81.89849854, 29.01000023, 0.00000000
1, 0.0551, 5, -0.44940186, -0.96472168, 0.27410889, -22.70953941, -115.24464417, -149.79949951, -15.78485775, 33.52820587, -116.10639954, 126.69271851, 49.13931274, 27.54319763, 0.48471394, -0.74504340, -0.37465546, 0.26381084, 1.20300889, 0.43785423, 0.11891846, 100.34500122, 81.89849854, 29.01000023, 0.00000000
1, 0.0601, 6, -0.46759033, -0.97003174, 0.27905273, -20.39953804, -107.99964142, -148.57450867, -15.78485775, 33.52820587, -116.10639954, 126.60269165, 50.05765152, 27.55888176, 0.48541638, -0.74091595, -0.37742379, 0.27012199, 1.23171902, 0.45232791, 0.10575196, 100.34500122, 81.89849854, 29.01000023, 0.00000000
1, 0.0651, 7, -0.39404297, -0.96624756, 0.26092529, -19.34954071, -100.19464874, -147.38450623, -16.89564514, 34.43437576, -116.74948883, 126.55063629, 50.94797134, 27.61676598, 0.48593983, -0.73687547, -0.38028276, 0.27615586, 1.16817427, 0.45780119, 0.11615326, 100.34500122, 81.89849854, 29.01000023, 0.00000000
1, 0.0701, 8, -0.30175781, -0.94885254, 0.25402832, -19.13953972, -94.90963745, -145.38951111, -16.89564514, 34.43437576, -116.74948883, 126.51936340, 51.81458282, 27.69922066, 0.48636404, -0.73289227, -0.38316453, 0.28196448, 1.08543622, 0.44970378, 0.11568089, 100.34500122, 81.89849854, 29.01000023, 0.00000000
1, 0.0800, 10, -0.57834697, -0.00260469, -0.05583492, 7.42806101, -91.38697815, 42.27523422, -12.71557999, 8.44782257, -111.80941010, 104.80146790, -41.90974045, -107.18979645, -0.56621319, 0.26350227, -0.72500116, -0.29041779, -0.08922340, -0.71741891, 0.24306861, 100.42400360, 75.27233124, 28.95999908, 0.00000000
1, 0.0850, 11, -0.53343278, 0.05064067, -0.09799767, 8.13647175, -90.35118103, 32.68660355, -12.71557999, 8.44782257, -111.80941010, 105.27246094, -41.95107269, -107.83310699, -0.56367308, 0.26152080, -0.72770709, -0.29038259, -0.13472612, -0.76841176, 0.29120684, 100.42400360, 75.27233124, 28.95999908, 0.00000000
1, 0.0900, 12, -0.50084531, 0.07220729, -0.09585567, 10.34550667, -90.42803955, 20.63375473, -14.20637226, 8.38935947, -111.75094604, 105.73840332, -41.94073486, -108.45448303, -0.56099510, 0.25991064, -0.73029274, -0.29052281, -0.16728154, -0.78840363, 0.29504138, 100.42400360, 75.27233124, 28.95999908, 0.00000000
1, 0.0950, 13, -0.45321360, 0.07733597, -0.07143046, 11.28841019, -91.79338074, 8.11063004, -14.20637226, 8.38935947, -111.75094604, 106.20095062, -41.85404968, -109.06241608, -0.55804205, 0.25875968, -0.73277009, -0.29099926, -0.21416855, -0.79262227, 0.27673391, 100.42400360, 75.27233124, 28.95999908, 0.00000000
1, 0.0751, 9, -0.25341797, -0.93267822, 0.23944092, -21.34453964, -90.21963501, -140.83950806, -18.09412384, 34.52206802, -116.48640442, 126.48529816, 52.64895248, 27.79114342, 0.48680899, -0.72895491, -0.38600600, 0.28747377, 1.04614353, 0.44263759, 0.12309670, 100.34500122, 81.89849854, 29.01000023, 0.00000000
1, 0.0801, 10, -0.26062012, -0.90753174, 0.21099854, -23.33954048, -87.94464111, -137.79449463, -18.09412384, 34.52206802, -116.48640442, 126.44285583, 53.46437836, 27.88403702, 0.48729149, -0.72501636, -0.38880348, 0.29279724, 1.06199074, 0.42641228, 0.14441240, 100.34500122, 81.89849854, 29.01000023, 0.00000000
1, 0.0851, 11, -0.31396484, -0.88403320, 0.18066406, -25.01954079, -85.03964233, -135.06451416, -18.09412384, 34.52206802, -117.27565002, 126.39829254, 54.26024246, 27.98375702, 0.48778787, -0.72108865, -0.39157811, 0.29792741, 1.12361717, 0.41169789, 0.16768983, 100.34500122, 81.89849854, 29.01000023, 0.00000000
1, 0.0901, 12, -0.32476807, -0.82720947, 0.13488770, -26.03454208, -81.29463196, -133.17449951, -18.97106171, 34.46360779, -117.27565002, 126.36359406, 55.03742981, 28.10079193, 0.48825312, -0.71718532, -0.39436707, 0.30286780, 1.14235163, 0.36357942, 0.20656958, 100.34500122, 81.89849854, 29.01000023, 0.00000000
1, 0.0951, 13, -0.32092285, -0.76702881, 0.11242676, -25.82454109, -77.89963531, -131.52949524, -18.97106171, 34.46360779, -117.27565002, 126.34494019, 55.79796219, 28.23494339, 0.48865229, -0.71332604, -0.39715561, 0.30765632, 1.14612114, 0.31209555, 0.22234604, 100.34500122, 81.89849854, 29.01000023, 0.00000000
1, 0.1000, 14, -0.42003366, 0.07661112, -0.05983021, 10.70234776, -92.60749817, -1.78602946, -15.90178299, 9.76322746, -112.18941498, 106.64928436, -41.71515656, -109.65493011, -0.55493444, 0.25789538, -0.73513621, -0.29174066, -0.24574129, -0.79166895, 0.27127138, 100.42400360, 75.27233124, 28.95999908, 0.00000000
1, 0.1501, 14, -0.34503174, -0.39898682, 0.10668945, -0.51953095, -41.91962433, -94.95448303, -20.95878410, 35.60362244, -118.21104431, 127.63442230, 62.74084091, 30.53348923, 0.48644936, -0.67868936, -0.42334133, 0.35146832, 1.23300290, 0.03444908, 0.17369393, 100.34500122, 81.89849854, 29.01000023, 0.00000000
1, 0.1551, 15, -0.36767578, -0.37042236, 0.11676025, 5.11547089, -31.69961548, -92.43448639, -20.95878410, 35.60362244, -118.21104431, 127.96979523, 63.20317841, 30.88125229, 0.48546138, -0.67659825, -0.42532334, 0.35446039, 1.25938749, 0.01318943, 0.16114412, 100.34500122, 81.89849854, 29.01000023, 0.00000000
1, 0.1600, 15, -0.29123998, 0.17121233, -0.20945732, -6.19540310, -69.89907837, -111.54918671, -17.83104324, 11.69248772, -113.35866547, 109.54030609, -36.58872604, -114.11871338, -0.51300901, 0.26976091, -0.74933815, -0.32022375, -0.30657774, -0.92604792, 0.47675955, 100.42400360, 75.27233124, 28.95999908, 0.00000000
1, 0.1650, 16, -0.28792557, 0.15330507, -0.19178124, -5.81309652, -67.62181854, -117.80916595, -17.83104324, 11.69248772, -113.35866547, 109.59957123, -35.92072678, -114.27050018, -0.50921023, 0.27251977, -0.74937254, -0.32385004, -0.30063808, -0.91433263, 0.46220684, 100.42400360, 75.27233124, 28.95999908, 0.00000000
1, 0.1700, 17, -0.29271743, 0.12446864, -0.15102908, -6.18629265, -64.52663422, -123.58435822, -17.83104324, 11.69248772, -113.35866547, 109.63692474, -35.23058319, -114.39048004, -0.50541687, 0.27549282, -0.74923700, -0.32756898, -0.28624687, -0.89193380, 0.42431849, 100.42400360, 75.27233124, 28.95999908, 0.00000000
1, 0.1601, 16, -0.35437012, -0.38079834, 0.12915039, 7.74047184, -25.18961906, -91.38448334, -21.71879578, 35.83747482, -118.73721313, 128.37506104, 63.64022064, 31.29109764, 0.48428276, -0.67467093, -0.42736417, 0.35728043, 1.24955487, 0.03088361, 0.14689320, 100.34500122, 81.89849854, 29.01000023, 0.00000000
1, 0.1651, 17, -0.33197021, -0.39971924, 0.13916016, 9.63047314, -19.90461540, -90.19448090, -21.71879578, 35.83747482, -118.73721313, 128.83789063, 64.05474854, 31.75305748, 0.48296031, -0.67287678, -0.42944500, 0.35994893, 1.23039889, 0.05711095, 0.13550597, 100.34500122, 81.89849854, 29.01000023, 0.00000000
1, 0.1701, 18, -0.30468750, -0.40814209, 0.14971924, 10.29547310, -16.36961365, -88.40948486, -21.71879578, 35.83747482, -118.73721313, 129.33554077, 64.44945526, 32.24840164, 0.48157242, -0.67117476, -0.43153065, 0.36248270, 1.20615482, 0.07275749, 0.12390481, 100.34500122, 81.89849854, 29.01000023, 0.00000000
1, 0.1750, 18, -0.32753837, 0.11086660, -0.13210930, -8.08899975, -61.37961960, -129.16360474, -18.18181801, 12.65711784, -113.53404999, 109.64589691, -34.51939392, -114.47966003, -0.50165015, 0.27864036, -0.74890935, -0.33142346, -0.24138862, -0.88494879, 0.40788278, 100.42400360, 75.27233124, 28.95999908, 0.00000000
1, 0.1800, 19, -0.36750865, 0.11031839, -0.11236735, -10.13521194, -58.06648254, -134.45661926, -18.18181801, 12.65711784, -113.53404999, 109.62664032, -33.78883743, -114.53858185, -0.49791986, 0.28195244, -0.74838513, -0.33540770, -0.19100668, -0.89122254, 0.39027405, 100.42400360, 75.27233124, 28.95999908, 0.00000000
1, 0.1850, 20, -0.39464387, 0.10792666, -0.09367615, -11.94951534, -56.18946457, -139.33114624, -17.97719955, 12.42326832, -114.17713928, 109.58639526, -33.03850174, -114.57711792, -0.49418086, 0.28539938, -0.74770218, -0.33952036, -0.15308359, -0.89581537, 0.37344050, 100.42400360, 75.27233124, 28.95999908, 0.00000000
1, 0.1900, 21, -0.42038232, 0.11386815, -0.10902464, -13.23913574, -56.40988159, -143.70150757, -17.97719955, 12.42326832, -114.17713928, 109.53353119, -32.27574158, -114.60770416, -0.49041396, 0.28889874, -0.74691725, -0.34372428, -0.11614003, -0.90876991, 0.39045978, 100.42400360, 75.27233124, 28.95999908, 0.00000000
1, 0.1950, 22, -0.40632975, 0.09807326, -0.05665607, -11.57464886, -57.06381989, -149.27651978, -17.97719955, 12.42326832, -114.17713928, 109.48690796, -31.47708511, -114.63249969, -0.48644775, 0.29263750, -0.74606609, -0.34801915, -0.11868331, -0.90017891, 0.33984748, 100.42400360, 75.27233124, 28.95999908, 0.00000000
1, 0.1751, 19, -0.26947021, -0.39953613, 0.14379883, 10.01547337, -15.10961437, -86.34448242, -21.77725792, 35.74977875, -118.21104431, 129.84324646, 64.83032227, 32.75483704, 0.48019439, -0.66951549, -0.43358019, 0.36492538, 1.17382002, 0.07123848, 0.12890796, 100.34500122, 81.89849854, 29.01000023, 0.00000000
1, 0.1801, 20, -0.23364258, -0.38562012, 0.13281250, 10.08547306, -14.61961555, -83.47447968, -21.77725792, 35.74977875, -118.21104431, 130.35052490, 65.19666290, 33.25885773, 0.47884393, -0.66791022, -0.43554887, 0.36728975, 1.14072990, 0.06422138, 0.13901940, 100.34500122, 81.89849854, 29.01000023, 0.00000000
1, 0.1851, 21, -0.22680664, -0.36914063, 0.13635254, 10.64547348, -14.44461346, -77.94448853, -22.18649483, 36.45132828, -118.53259277, 130.83721924, 65.53959656, 33.73571396, 0.47755614, -0.66641575, -0.43734533, 0.36953929, 1.13643324, 0.05426159, 0.13462271, 100.34500122, 81.89849854, 29.01000023, 0.00000000
1, 0.2350, 23, -0.40017503, -0.15723348, -0.01866306, -25.37446213, -60.35440063, -150.65147400, -16.86641312, 15.81408882, -116.13563538, 108.53712463, -25.03194427, -114.64689636, -0.45587584, 0.32132578, -0.73537630, -0.38490096, -0.02609920, -0.70024061, 0.30537948, 100.42400360, 75.27233124, 28.95999908, 0.00000000
1, 0.2400, 24, -0.46705160, -0.21000291, 0.02923094, -25.79667091, -63.32164383, -149.06936646, -16.86641312, 15.81408882, -116.13563538, 108.43564606, -24.23116684, -114.71861267, -0.45172507, 0.32447553, -0.73410094, -0.38955867, 0.05340651, -0.65365899, 0.25756797, 100.42400360, 75.27233124, 28.95999908, 0.00000000
1, 0.1901, 22, -0.26763916, -0.34960938, 0.11108398, 10.71547222, -12.76461411, -72.62448120, -22.18649483, 36.45132828, -118.53259277, 131.31260681, 65.85527802, 34.19852448, 0.47631463, -0.66504377, -0.43901601, 0.37162632, 1.17959940, 0.04087923, 0.15912317, 100.34500122, 81.89849854, 29.01000023, 0.00000000
1, 0.2450, 25, -0.54320490, -0.26827809, 0.06720562, -25.98679161, -64.83055878, -147.21009827, -16.86641312, 15.81408882, -116.13563538, 108.33782196, -23.43087769, -114.80262756, -0.44750312, 0.32755166, -0.73283523, -0.39421237, 0.14220077, -0.60132980, 0.21961120, 100.42400360, 75.27233124, 28.95999908, 0.00000000
1, 0.2500, 26, -0.62547785, -0.32551193, 0.13170643, -26.62271118, -64.71225739, -145.09605408, -16.63256264, 17.01256943, -117.56796265, 108.23731995, -22.64095116, -114.89059448, -0.44330820, 0.33053356, -0.73154992, -0.39882353, 0.23702905, -0.54988635, 0.15501176, 100.42400360, 75.27233124, 28.95999908, 0.00000000
1, 0.2550, 27, -0.72216415, -0.41161636, 0.22192542, -28.38033295, -62.78225708, -141.94308472, -16.63256264, 17.01256943, -117.56796265, 108.12564087, -21.86919212, -114.97504425, -0.43923369, 0.33339870, -0.73020685, -0.40338218, 0.34603062, -0.46939576, 0.06437813, 100.42400360, 75.27233124, 28.95999908, 0.00000000
1, 0.1951, 23, -0.23846436, -0.33520508, 0.07531738, 11.69547367, -10.76961422, -68.80947876, -22.18649483, 36.45132828, -118.53259277, 131.79316711, 66.14847565, 34.66054535, 0.47506356, -0.66379100, -0.44059712, 0.37359118, 1.15255117, 0.03230144, 0.19429870, 100.34500122, 81.89849854, 29.01000023, 0.00000000
1, 0.2501, 24, 0.20922852, -0.48236084, -0.00512695, 24.61047554, -0.09460951, -22.29445839, -22.85881233, 36.18824768, -117.94796753, 135.78550720, 68.12893677, 37.87314987, 0.46330017, -0.65755707, -0.44846117, 0.38968495, 0.71867633, 0.22201042, 0.27197915, 100.34500122, 81.89849854, 29.01000023, 0.00000000
1, 0.2551, 25, 0.28173828, -0.51312256, -0.03063965, 24.64547539, -0.26960954, -18.37446213, -22.85881233, 36.18824768, -117.94796753, 136.07109070, 68.19378662, 38.04805756, 0.46228549, -0.65769058, -0.44856340, 0.39054599, 0.64660597, 0.25491565, 0.29804605, 100.34500122, 81.89849854, 29.01000023, 0.00000000
1, 0.2601, 26, 0.32647705, -0.53924561, -0.05603027, 24.33047676, -2.78961039, -12.84445763, -22.04033852, 36.27594376, -118.32797241, 136.28453064, 68.24833679, 38.14691162, 0.46142265, -0.65788192, -0.44846079, 0.39136106, 0.60223722, 0.28275740, 0.32380575, 100.34500122, 81.89849854, 29.01000023, 0.00000000
1, 0.2600, 28, -0.74662954, -0.45060244, 0.26156950, -30.73071861, -58.93701935, -138.98228455, -16.25255775, 15.87255192, -117.62642670, 107.99630737, -21.11762810, -115.04601288, -0.43534771, 0.33617720, -0.72875798, -0.40788382, 0.38268641, -0.43573946, 0.02422831, 100.42400360, 75.27233124, 28.95999908, 0.00000000
1, 0.2650, 29, -0.77174699, -0.50720727, 0.27359185, -34.27416229, -50.25701523, -134.69926453, -16.25255775, 15.87255192, -117.62642670, 107.83585358, -20.39994049, -115.08151245, -0.43184698, 0.33889243, -0.72711229, -0.41227162, 0.41959059, -0.38423163, 0.01105243, 100.42400360, 75.27233124, 28.95999908, 0.00000000
1, 0.2700, 30, -0.78235841, -0.54581761, 0.24012008, -35.87265396, -40.74815750, -130.87696838, -16.25255775, 15.87255192, -117.62642670, 107.65338135, -19.71500206, -115.07711792, -0.42872277, 0.34161445, -0.72528619, -0.41648084, 0.44163954, -0.35043851, 0.04294860, 100.42400360, 75.27233124, 28.95999908, 0.00000000
1, 0.2651, 27, 0.32946777, -0.55548096, -0.06597900, 25.10047722, -3.48961067, -9.65945625, -22.04033852, 36.27594376, -118.32797241, 136.46755981, 68.29428101, 38.20882034, 0.46060514, -0.65813822, -0.44823885, 0.39214659, 0.59955794, 0.30041987, 0.33403695, 100.34500122, 81.89849854, 29.01000023, 0.00000000
1, 0.2701, 28, 0.34283447, -0.56994629, -0.06439209, 26.08047867, -3.48961067, -6.75445557, -22.04033852, 36.27594376, -118.32797241, 136.62942505, 68.33016968, 38.24269485, 0.45980862, -0.65847009, -0.44791615, 0.39289242, 0.58643889, 0.31609619, 0.33274114, 100.34500122, 81.89849854, 29.01000023, 0.00000000
1, 0.2751, 29, 0.37115479, -0.57775879, -0.06359863, 26.92047501, -4.15461063, -4.02445459, -22.85881233, 35.69131851, -118.67874908, 136.76502991, 68.35910797, 38.24377060, 0.45904702, -0.65885985, -0.44748661, 0.39361835, 0.55831468, 0.32491481, 0.33221826, 100.34500122, 81.89849854, 29.01000023, 0.00000000
1, 0.2801, 30, 0.39929199, -0.58184814, -0.07598877, 28.04047966, -5.02961111, -1.36445391, -22.85881233, 35.69131851, -118.67874908, 136.87437439, 68.38210297, 38.21058273, 0.45831534, -0.65930796, -0.44694316, 0.39433748, 0.53033519, 0.32981798, 0.34482718, 100.34500122, 81.89849854, 29.01000023, 0.00000000
1, 0.2750, 31, -0.77996445, -0.58683562, 0.22356667, -36.19998932, -30.39998627, -126.73535919, -16.51563835, 18.35720444, -118.50335693, 107.45500946, -19.06533241, -115.02941132, -0.42599028, 0.34437573, -0.72329575, -0.42045337, 0.45011613, -0.31402805, 0.05755326, 100.42400360, 75.27233124, 28.95999908, 0.00000000
1, 0.2800, 32, -0.74307454, -0.61599243, 0.23374119, -36.48879242, -23.15981865, -122.24767303, -16.51563835, 18.35720444, -118.50335693, 107.24706268, -18.44769287, -114.95482635, -0.42355877, 0.34711185, -0.72120839, -0.42422861, 0.42352772, -0.28928244, 0.04523384, 100.42400360, 75.27233124, 28.95999908, 0.00000000
1, 0.3100, 33, -0.85770857, -0.77775574, 0.31322694, -33.79386139, -16.49274826, -82.40895081, -14.96638393, 19.64337921, -119.67260742, 106.05622864, -15.41661453, -114.55552673, -0.41232610, 0.36010632, -0.70967424, -0.44347847, 0.58939958, -0.14851473, -0.04941967, 100.42400360, 75.27233124, 28.95999908, 0.00000000
1, 0.3150, 34, -0.85707211, -0.80103242, 0.32813269, -32.88769150, -13.44141102, -75.65278625, -14.96638393, 19.64337921, -119.67260742, 105.88032532, -15.03477955, -114.51540375, -0.41096106, 0.36158592, -0.70808649, -0.44607198, 0.59532100, -0.12781809, -0.06671593, 100.42400360, 75.27233124, 28.95999908, 0.00000000
1, 0.2851, 31, 0.43078613, -0.59057617, -0.08605957, 30.28047943, -4.95961142, 1.12054706, -22.94650650, 34.20052719, -118.70797729, 136.97268677, 68.39640045, 38.15346527, 0.45755982, -0.65984946, -0.44629025, 0.39504790, 0.49894804, 0.33920047, 0.35514104, 100.34500122, 81.89849854, 29.01000023, 0.00000000
1, 0.3200, 35, -0.81761587, -0.83082080, 0.35019249, -32.60767365, -5.43916464, -67.85929108, -14.96638393, 19.64337921, -119.67260742, 105.69906616, -14.70117474, -114.44761658, -0.40998551, 0.36298209, -0.70647508, -0.44838488, 0.56159210, -0.10037670, -0.09121290, 100.42400360, 75.27233124, 28.95999908, 0.00000000
1, 0.3250, 36, -0.75765663, -0.83344448, 0.33457407, -33.08565903, 0.09575431, -62.04282379, -15.20023346, 20.57877731, -120.22800446, 105.51124573, -14.40278912, -114.36154175, -0.40929765, 0.36429566, -0.70484024, -0.45051584, 0.50686103, -0.09988129, -0.07811591, 100.42400360, 75.27233124, 28.95999908, 0.00000000
1, 0.3300, 37, -0.70902199, -0.82467210, 0.29813969, -32.80133438, 4.44381428, -55.84372711, -15.20023346, 20.57877731, -120.22800446, 105.32235718, -14.13974190, -114.26340485, -0.40885705, 0.36550674, -0.70322567, -0.45245391, 0.46291271, -0.11057810, -0.04431208, 100.42400360, 75.27233124, 28.95999908, 0.00000000
1, 0.3201, 32, 0.58099365, -0.75720215, -0.08044434, 29.47547913, -13.42961407, 24.15055466, -23.64805603, 35.66208649, -118.94182587, 136.62600708, 68.27486420, 36.54960632, 0.45395222, -0.66528791, -0.43808940, 0.39924574, 0.34803358, 0.50332510, 0.34961891, 100.34500122, 81.89849854, 29.01000023, 0.00000000
1, 0.3251, 33, 0.56817627, -0.76422119, -0.09283447, 28.77547646, -13.88461494, 26.46055412, -23.73575020, 34.90207672, -119.05875397, 136.40942383, 68.23417664, 36.16153717, 0.45384255, -0.66612071, -0.43654430, 0.39967412, 0.36059934, 0.50892228, 0.36153197, 100.34500122, 81.89849854, 29.01000023, 0.00000000
1, 0.3301, 34, 0.56616211, -0.78857422, -0.19696045, 27.86547661, -13.81461430, 28.03555679, -23.73575020, 34.90207672, -119.05875397, 136.17587280, 68.18724823, 35.75996780, 0.45378387, -0.66696447, -0.43496910, 0.40005049, 0.36231950, 0.53169221, 0.46516433, 100.34500122, 81.89849854, 29.01000023, 0.00000000
1, 0.3351, 35, 0.64031982, -0.78027344, -0.30590820, 22.26547623, -11.39961338, 27.26555634, -24.08652496, 34.63899231, -119.08798218, 135.94355774, 68.13368988, 35.38975143, 0.45382768, -0.66772294, -0.43356070, 0.40026456, 0.28783002, 0.52171904, 0.57365304, 100.34500122, 81.89849854, 29.01000023, 0.00000000
1, 0.3401, 36, 0.89801025, -0.73059082, -0.45025635, 18.13547325, -7.12961197, 23.34555435, -24.08652496, 34.63899231, -119.08798218, 135.76403809, 68.07797241, 35.09855270, 0.45384151, -0.66839862, -0.43242228, 0.40035272, 0.02976913, 0.47047985, 0.71777749, 100.34500122, 81.89849854, 29.01000023, 0.00000000
1, 0.3350, 38, -0.66933703, -0.82625043, 0.26596433, -31.32919502, 7.71324301, -49.26483536, -14.93715286, 20.98801422, -120.72492981, 105.13977051, -13.91241455, -114.15883636, -0.40862021, 0.36660480, -0.70168167, -0.45417339, 0.42730823, -0.11073931, -0.01479263, 100.42400360, 75.27233124, 28.95999908, 0.00000000
1, 0.3400, 39, -0.65555459, -0.86716187, 0.25490338, -29.43246078, 8.54848003, -41.24211884, -14.93715286, 20.98801422, -120.72492981, 104.96951294, -13.73927307, -114.06190491, -0.40861145, 0.36743498, -0.70032012, -0.45560947, 0.41678602, -0.07134710, -0.00639729, 100.42400360, 75.27233124, 28.95999908, 0.00000000
1, 0.3450, 40, -0.59664601, -0.95631850, 0.24784090, -28.53881264, 5.05808878, -28.92821884, -14.93715286, 20.98801422, -120.72492981, 104.81154633, -13.60623932, -113.99880981, -0.40864888, 0.36790597, -0.69919813, -0.45691723, 0.36028230, 0.01655200, -0.00183228, 100.42400360, 75.27233124, 28.95999908, 0.00000000
1, 0.3500, 41, -0.50787050, -0.97336566, 0.36323580, -17.79484367, -5.39053726, -9.01881695, -14.29406548, 20.37415886, -121.45571136, 104.72600555, -13.55600929, -114.01393127, -0.40859115, 0.36775386, -0.69879508, -0.45770726, 0.27246040, 0.03264327, -0.11876100, 100.42400360, 75.27233124, 28.95999908, 0.00000000
1, 0.3550, 42, -0.51541096, -1.21474969, 0.62120789, 6.98109913, -21.41499329, 18.99158287, -14.29406548, 20.37415886, -121.45571136, 104.79198456, -13.62069702, -114.14520264, -0.40820581, 0.36687210, -0.69962102, -0.45749676, 0.27877784, 0.27385089, -0.37676188, 100.42400360, 75.27233124, 28.95999908, 0.00000000
1, 0.3451, 37, 1.18640137, -0.79260254, -0.47778320, 23.45547485, -7.96961260, 20.44055367, -23.82344246, 34.63899231, -119.17568207, 135.63070679, 68.03509521, 34.82837296, 0.45366439, -0.66910893, -0.43125820, 0.40062255, -0.25892407, 0.53130436, 0.74519473, 100.34500122, 81.89849854, 29.01000023, 0.00000000
1, 0.3501, 38, 1.36138916, -0.94500732, -0.39129639, 29.96547699, -11.60961342, 19.53055382, -23.82344246, 35.10669327, -119.17568207, 135.50708008, 68.00818634, 34.53347015, 0.45334873, -0.66986573, -0.42993379, 0.40113819, -0.43411198, 0.68277788, 0.65849024, 100.34500122, 81.89849854, 29.01000023, 0.00000000
1, 0.3551, 39, 1.37072754, -1.14160156, -0.24127197, 33.08048248, -14.02461529, 19.49555206, -23.82344246, 35.10669327, -119.17568207, 135.37879944, 67.98976135, 34.21672440, 0.45298547, -0.67063928, -0.42850682, 0.40178242, -0.44358316, 0.87856162, 0.50812924, 100.34500122, 81.89849854, 29.01000023, 0.00000000
1, 0.3850, 43, -0.08302377, -1.30510652, 0.14739208, -22.81889915, 29.36464691, 64.01094055, -16.60333252, 18.50336075, -121.71879578, 105.48873901, -15.56582165, -115.20310211, -0.41238189, 0.35332197, -0.70978206, -0.44868055, -0.18428525, 0.37631562, 0.10821917, 100.42400360, 75.27233124, 28.95999908, 0.00000000
1, 0.3900, 44, 0.45074445, -1.19097781, -0.30812961, -25.60619545, 53.30539322, 47.93222046, -16.60333252, 18.50336075, -121.71879578, 105.29754639, -15.85710049, -114.99909973, -0.41534597, 0.35245827, -0.70899147, -0.44787505, -0.72208285, 0.26353842, 0.56201434, 100.42400360, 75.27233124, 28.95999908, 0.00000000
1, 0.3601, 40, 1.23327637, -1.25378418, -0.16540527, 29.02047920, -15.03961372, 20.16055298, -23.73575020, 34.52206802, -119.43875885, 135.21592712, 67.97231293, 33.88452148, 0.45277032, -0.67132521, -0.42711028, 0.40236607, -0.30624482, 0.98983097, 0.43175253, 100.34500122, 81.89849854, 29.01000023, 0.00000000
1, 0.3651, 41, 1.01245117, -1.23852539, -0.03662109, 27.06047821, -14.16461468, 20.86055183, -23.73575020, 34.52206802, -119.43875885, 135.04519653, 67.94891357, 33.55437469, 0.45260730, -0.67199904, -0.42574376, 0.40287259, -0.08555952, 0.97353065, 0.30242091, 100.34500122, 81.89849854, 29.01000023, 0.00000000
1, 0.3950, 45, 0.79665709, -1.21543837, -0.51726365, -20.12699699, 76.37455750, 33.40999603, -16.60333252, 18.50336075, -121.71879578, 105.10415649, -16.11811638, -114.66094971, -0.41866714, 0.35255492, -0.70772219, -0.44671285, -1.07194662, 0.28870228, 0.76844025, 100.42400360, 75.27233124, 28.95999908, 0.00000000
1, 0.4000, 46, 0.80902261, -1.31954932, -0.46560571, -18.13077354, 73.61580658, 22.73307228, -16.42794418, 19.64337921, -121.33879089, 104.91883850, -16.32293510, -114.32108307, -0.42165869, 0.35295847, -0.70636874, -0.44572136, -1.08812666, 0.39293998, 0.71331799, 100.42400360, 75.27233124, 28.95999908, 0.00000000
1, 0.4050, 47, 0.54733312, -1.35657942, -0.38328648, -15.80364799, 50.75459671, 18.19764328, -16.42794418, 19.64337921, -121.33879089, 104.77467346, -16.47573471, -114.08946991, -0.42381835, 0.35309568, -0.70540541, -0.44508952, -0.82938880, 0.42993540, 0.62752879, 100.42400360, 75.27233124, 28.95999908, 0.00000000
1, 0.3951, 42, 0.83416748, -1.10382080, -0.28112793, 20.90047455, 1.44539118, 14.91055202, -24.67114830, 33.73282623, -119.38029480, 134.74752808, 67.58362579, 32.48361969, 0.45055062, -0.67663944, -0.41998336, 0.40345675, 0.09035964, 0.83316588, 0.54944789, 100.34500122, 81.89849854, 29.01000023, 0.00000000
1, 0.4001, 43, 0.86657715, -1.07427979, -0.25915527, 18.94047546, -3.87461066, 13.33555126, -24.67114830, 33.73282623, -119.38029480, 134.69526672, 67.54987335, 32.32461166, 0.45029685, -0.67718756, -0.41917980, 0.40365583, 0.05767839, 0.80296922, 0.52774811, 100.34500122, 81.89849854, 29.01000023, 0.00000000
1, 0.4100, 48, 0.23082037, -1.37877893, -0.21884990, -4.82200432, 29.06537247, 23.14922905, -16.39871407, 19.32183456, -121.83571625, 104.71777344, -16.62452507, -113.97332764, -0.42523587, 0.35286105, -0.70512980, -0.44435972, -0.51573372, 0.45222288, 0.46077895, 100.42400360, 75.27233124, 28.95999908, 0.00000000
1, 0.4150, 49, -0.08684686, -1.51049089, 0.07463360, 5.70587778, 8.37453842, 35.73671341, -16.39871407, 19.32183456, -121.83571625, 104.74816132, -16.80791664, -113.97816467, -0.42609781, 0.35203308, -0.70563459, -0.44338831, -0.20170486, 0.58434129, 0.16624311, 100.42400360, 75.27233124, 28.95999908, 0.00000000
1, 0.4200, 50, -0.43388820, -1.58417726, 0.27283734, 0.54439592, -15.52317333, 45.67835617, -16.39871407, 19.32183456, -121.83571625, 104.79191589, -17.00917435, -114.11714172, -0.42649496, 0.35033864, -0.70663524, -0.44275451, 0.14151548, 0.65887856, -0.03243890, 100.42400360, 75.27233124, 28.95999908, 0.00000000
1, 0.4051, 44, 0.90203857, -1.03265381, -0.32287598, 16.91047478, -12.06461334, 10.04555035, -24.67114830, 33.73282623, -119.38029480, 134.59051514, 67.55651855, 32.11977386, 0.45019451, -0.67749083, -0.41834790, 0.40412405, 0.02218376, 0.76085365, 0.59108794, 100.34500122, 81.89849854, 29.01000023, 0.00000000
1, 0.4101, 45, 0.91156006, -1.02966309, -0.35717773, 17.26047516, -22.07461548, 7.73554897, -24.87576675, 32.97281647, -119.52645111, 134.42033386, 67.60630035, 31.84230804, 0.45022318, -0.67758131, -0.41738096, 0.40493947, 0.01289595, 0.75760007, 0.62431520, 100.34500122, 81.89849854, 29.01000023, 0.00000000
1, 0.4151, 46, 0.80725098, -1.02703857, -0.35107422, 20.90047455, -32.95961761, 7.73554897, -24.87576675, 32.97281647, -119.52645111, 134.17225647, 67.69371796, 31.46108055, 0.45034149, -0.67754942, -0.41613483, 0.40614197, 0.11777219, 0.75484115, 0.61610329, 100.34500122, 81.89849854, 29.01000023, 0.00000000
1, 0.4250, 51, -0.60749161, -1.36612952, 0.11875493, -21.62423706, -28.67972565, 48.94186401, -16.74948883, 19.46799088, -121.98187256, 104.74621582, -17.20983696, -114.32721710, -0.42688787, 0.34787264, -0.70749927, -0.44294041, 0.31215376, 0.44196644, 0.12088694, 100.42400360, 75.27233124, 28.95999908, 0.00000000
1, 0.4201, 47, 0.61083984, -0.99230957, -0.30181885, 23.31547737, -32.01461792, 10.36054993, -25.22654152, 33.00204468, -119.40953064, 133.91990662, 67.76775360, 31.06241989, 0.45041642, -0.67762733, -0.41478556, 0.40730751, 0.31470707, 0.71986234, 0.56475496, 100.34500122, 81.89849854, 29.01000023, 0.00000000
1, 0.4251, 48, 0.39501953, -0.93566895, -0.27508545, 24.43547821, -25.57461739, 13.96555042, -25.22654152, 33.00204468, -119.40953064, 133.69772339, 67.80586243, 30.69045830, 0.45040441, -0.67790484, -0.41343516, 0.40823084, 0.53084481, 0.66272116, 0.53637940, 100.34500122, 81.89849854, 29.01000023, 0.00000000
1, 0.4301, 49, 0.22656250, -0.90808105, -0.27416992, 24.85547638, -16.64961433, 17.36054993, -25.22654152, 33.00204468, -119.40953064, 133.52751160, 67.80045319, 30.37240601, 0.45027831, -0.67840916, -0.41215119, 0.40883002, 0.69933814, 0.63436055, 0.53452551, 100.34500122, 81.89849854, 29.01000023, 0.00000000
1, 0.4300, 52, -0.76975352, -1.00846028, -0.06509920, -24.42256927, -37.35480118, 53.85327911, -16.74948883, 19.46799088, -121.98187256, 104.70233917, -17.42348862, -114.58783722, -0.42714727, 0.34503216, -0.70854002, -0.44324848, 0.47138745, 0.08545282, 0.30391034, 100.42400360, 75.27233124, 28.95999908, 0.00000000
1, 0.4351, 50, 0.14038086, -0.92077637, -0.27215576, 25.31047630, -7.89961243, 20.09055328, -25.10961723, 31.94972229, -119.73107147, 133.41473389, 67.75472260, 30.11387444, 0.45002908, -0.67912608, -0.41094929, 0.40912384, 0.78528011, 0.64605403, 0.53230882, 100.34500122, 81.89849854, 29.01000023, 0.00000000
1, 0.4401, 51, 0.11511230, -0.94500732, -0.23040771, 25.55547714, -1.17960978, 22.54055405, -25.10961723, 31.94972229, -119.73107147, 133.34315491, 67.67685699, 29.89842606, 0.44969487, -0.68001026, -0.40980151, 0.40917394, 0.81008434, 0.66909444, 0.49095207, 100.34500122, 81.89849854, 29.01000023, 0.00000000
1, 0.4850, 53, -0.70359653, -0.47873053, 0.23280588, 17.40680313, -37.42129898, 27.90638542, -18.18181801, 19.81876564, -122.68342590, 104.92780304, -19.21360588, -116.31053925, -0.42936641, 0.32614604, -0.71781260, -0.44047517, 0.37427175, -0.43437320, 0.00728790, 100.42400360, 75.27233124, 28.95999908, 0.00000000
1, 0.4900, 54, -0.72280633, -0.53131855, 0.25697675, 20.55243492, -30.62827682, 24.62819672, -18.18181801, 19.81876564, -122.68342590, 105.09957123, -19.31817436, -116.50324249, -0.42869601, 0.32505155, -0.71920532, -0.43966454, 0.39187726, -0.38058621, -0.01447088, 100.42400360, 75.27233124, 28.95999908, 0.00000000
1, 0.4950, 55, -0.75049895, -0.64632154, 0.26736516, 22.84348297, -20.87545013, 21.08090973, -18.18181801, 19.81876564, -122.68342590, 105.25906372, -19.39251328, -116.63906860, -0.42812070, 0.32441869, -0.72033215, -0.43884712, 0.41809532, -0.26440218, -0.02263177, 100.42400360, 75.27233124, 28.95999908, 0.00000000
1, 0.4951, 52, 0.39324951, -1.06353760, 0.00280762, 42.53048325, 60.21041107, 58.73056793, -24.34960556, 30.60508537, -119.46798706, 133.73242188, 64.87699890, 28.53089714, 0.44290063, -0.70024371, -0.39548349, 0.39634666, 0.51293731, 0.75765353, 0.28917992, 100.34500122, 81.89849854, 29.01000023, 0.00000000
1, 0.5001, 53, 0.50012207, -1.13830566, 0.02899170, 43.86048508, 64.09541321, 59.53556824, -24.34960556, 30.60508537, -119.46798706, 134.00399780, 64.44029999, 28.58873558, 0.44148004, -0.70322073, -0.39414102, 0.39399102, 0.40283704, 0.82885510, 0.26917171, 100.34500122, 81.89849854, 29.01000023, 0.00000000
1, 0.5000, 56, -0.78537589, -0.80978405, 0.32201284, 24.02943230, -8.08957672, 17.02409744, -18.00643158, 18.29874229, -122.82958221, 105.40103149, -19.46372795, -116.70407867, -0.42785138, 0.32418004, -0.72118330, -0.43788719, 0.45165032, -0.09998721, -0.07540594, 100.42400360, 75.27233124, 28.95999908, 0.00000000
1, 0.5050, 57, -0.79952955, -0.96924734, 0.36640522, 22.87860298, 3.83748245, 13.08172226, -18.00643158, 18.29874229, -122.82958221, 105.51514435, -19.53162003, -116.70275879, -0.42789721, 0.32427153, -0.72173268, -0.43686831, 0.46456105, 0.06032044, -0.11827548, 100.42400360, 75.27233124, 28.95999908, 0.00000000
1, 0.5100, 58, -0.77353346, -1.11040783, 0.37858921, 20.49986076, 11.55939960, 9.75578690, -19.05875397, 19.55568504, -123.06343079, 105.60255432, -19.59380150, -116.65736389, -0.42815581, 0.32457015, -0.72204435, -0.43587708, 0.43748537, 0.20223260, -0.12923968, 100.42400360, 75.27233124, 28.95999908, 0.00000000
1, 0.5150, 59, -0.70652568, -1.20704103, 0.38975805, 17.09077644, 16.46292305, 7.39230442, -19.05875397, 19.55568504, -123.06343079, 105.66332245, -19.65126419, -116.58362579, -0.42857164, 0.32497215, -0.72216523, -0.43496779, 0.36948991, 0.29947507, -0.13942401, 100.42400360, 75.27233124, 28.95999908, 0.00000000
1, 0.5200, 60, -0.62657988, -1.25547314, 0.37450299, 13.24032879, 19.93660927, 6.40244627, -19.05875397, 19.55568504, -123.06343079, 105.69831848, -19.70872498, -116.49074554, -0.42913222, 0.32539868, -0.72213316, -0.43414849, 0.28864107, 0.34843969, -0.12348570, 100.42400360, 75.27233124, 28.95999908, 0.00000000
1, 0.5051, 54, 0.58447266, -1.21246338, 0.06994629, 44.87548447, 65.63540649, 60.34056854, -24.34960556, 30.60508537, -119.46798706, 134.28092957, 63.99523926, 28.64709663, 0.44000742, -0.70624453, -0.39277866, 0.39158270, 0.31513596, 0.89945638, 0.23456457, 100.34500122, 81.89849854, 29.01000023, 0.00000000
1, 0.5101, 55, 0.64404297, -1.26690674, 0.09600830, 44.00048828, 65.91541290, 60.51556396, -24.55422401, 31.56971550, -119.05875397, 134.54895020, 63.54845810, 28.70062256, 0.43855169, -0.70924598, -0.39142388, 0.38914010, 0.25213042, 0.95034778, 0.21489304, 100.34500122, 81.89849854, 29.01000023, 0.00000000
1, 0.5151, 56, 0.70996094, -1.31835938, 0.08306885, 43.44049072, 64.90041351, 61.11056900, -24.55422401, 31.56971550, -119.05875397, 134.79786682, 63.10301971, 28.73612213, 0.43713242, -0.71221626, -0.39003330, 0.38670063, 0.18273476, 0.99824011, 0.23412822, 100.34500122, 81.89849854, 29.01000023, 0.00000000
1, 0.5201, 57, 0.72698975, -1.33990479, 0.08648682, 44.49048615, 59.93040848, 63.52556992, -24.32037354, 30.40046692, -119.43875885, 134.99705505, 62.66652298, 28.70995140, 0.43579766, -0.71515059, -0.38844797, 0.38438022, 0.16222733, 1.01613700, 0.23672141, 100.34500122, 81.89849854, 29.01000023, 0.00000000
1, 0.5251, 58, 0.69323730, -1.33599854, 0.09124756, 44.94548416, 55.38040924, 66.43056488, -24.32037354, 30.40046692, -119.43875885, 135.14585876, 62.23591995, 28.62432480, 0.43456671, -0.71805358, -0.38667083, 0.38214737, 0.19250485, 1.00842166, 0.23761515, 100.34500122, 81.89849854, 29.01000023, 0.00000000
1, 0.5301, 59, 0.63732910, -1.32257080, 0.09326172, 44.45548248, 49.57040787, 69.47557068, -24.32037354, 30.40046692, -119.43875885, 135.23303223, 61.81527710, 28.47132301, 0.43349203, -0.72088891, -0.38468924, 0.38002366, 0.24495904, 0.99098474, 0.24082632, 100.34500122, 81.89849854, 29.01000023, 0.00000000
1, 0.5500, 61, -0.40311706, -0.87952530, 0.06454100, 6.52368832, -7.70342159, 3.27032542, -18.59105492, 19.32183456, -122.68342590, 105.72316742, -19.95094490, -116.17272186, -0.43155727, 0.32627442, -0.72173953, -0.43173546, 0.06174060, -0.02545759, 0.18752414, 100.42400360, 75.27233124, 28.95999908, 0.00000000
1, 0.5550, 62, -0.48909676, -0.85785925, 0.14197601, 7.74713802, -17.84777260, 2.59233046, -18.59105492, 19.32183456, -122.68342590, 105.79437256, -19.93923569, -116.26782227, -0.43093389, 0.32600221, -0.72225833, -0.43169618, 0.14765194, -0.04700005, 0.11096568, 100.42400360, 75.27233124, 28.95999908, 0.00000000
1, 0.5351, 60, 0.55847168, -1.28668213, 0.09838867, 42.28548431, 43.23540497, 73.22056580, -24.37883568, 28.76351929, -118.73721313, 135.24514771, 61.40398026, 28.24473381, 0.43264660, -0.72362852, -0.38249937, 0.37798542, 0.32039708, 0.95080554, 0.24039346, 100.34500122, 81.89849854, 29.01000023, 0.00000000
1, 0.5401, 61, 0.48583984, -1.24542236, 0.08947754, 38.68048096, 38.02040482, 76.89556885, -24.37883568, 28.76351929, -118.73721313, 135.18574524, 60.99823380, 27.95624542, 0.43205523, -0.72626305, -0.38014793, 0.37597585, 0.38961902, 0.90490955, 0.25347978, 100.34500122, 81.89849854, 29.01000023, 0.00000000
1, 0.5600, 63, -0.54598969, -0.82207191, 0.21880503, 8.52394485, -26.38971710, 1.74790132, -18.41566849, 19.11721611, -123.09265900, 105.88391876, -19.91173935, -116.40539551, -0.43001390, 0.32560956, -0.72293985, -0.43176907, 0.20473695, -0.08266728, 0.03543235, 100.42400360, 75.27233124, 28.95999908, 0.00000000
1, 0.5650, 64, -0.58372962, -0.80214894, 0.29404181, 8.51281452, -34.61116791, 0.32525468, -18.41566849, 19.11721611, -123.09265900, 105.98684692, -19.86596298, -116.58287048, -0.42880756, 0.32510552, -0.72375381, -0.43198499, 0.24296704, -0.10249649, -0.03821011, 100.42400360, 75.27233124, 28.95999908, 0.00000000
1, 0.5700, 65, -0.61695671, -0.79274952, 0.33716357, 7.64622593, -37.06443405, -2.28099823, -18.41566849, 19.11721611, -123.09265900, 106.08819580, -19.80399704, -116.76895142, -0.42748573, 0.32462001, -0.72455865, -0.43231085, 0.27703980, -0.11183348, -0.07968812, 100.42400360, 75.27233124, 28.95999908, 0.00000000
1, 0.5651, 62, 0.13946533, -1.04760742, 0.13708496, 44.77048874, 31.30040359, 92.01557159, -23.70651817, 28.93890572, -118.85413361, 134.43437195, 58.93527222, 25.96164703, 0.43040696, -0.73940337, -0.36593509, 0.36622962, 0.71811438, 0.68052399, 0.22319719, 100.34500122, 81.89849854, 29.01000023, 0.00000000
1, 0.5701, 63, 0.16510010, -1.05041504, 0.16961670, 47.01048660, 36.62039948, 93.48557281, -23.50189972, 27.74042702, -118.56182098, 134.34675598, 58.47316742, 25.58405304, 0.42979449, -0.74235541, -0.36285129, 0.36403877, 0.68835938, 0.67784852, 0.19479677, 100.34500122, 81.89849854, 29.01000023, 0.00000000
1, 0.5750, 66, -0.61871666, -0.79082000, 0.34194577, 7.73567963, -33.55848694, -6.12441635, -18.91259766, 19.35106659, -122.85881042, 106.18170929, -19.72811508, -116.93128204, -0.42619979, 0.32432297, -0.72524339, -0.43265522, 0.27997923, -0.11374690, -0.08284414, 100.42400360, 75.27233124, 28.95999908, 0.00000000
1, 0.5800, 67, -0.61495048, -0.79831350, 0.35654628, 8.65697098, -28.26718140, -10.04102421, -18.91259766, 19.35106659, -122.85881042, 106.26844025, -19.64051819, -117.06063080, -0.42499313, 0.32426623, -0.72578990, -0.43296814, 0.27756998, -0.10635337, -0.09592067, 100.42400360, 75.27233124, 28.95999908, 0.00000000
1, 0.5850, 68, -0.63026184, -0.80157876, 0.42298844, 10.85929394, -25.74054909, -12.95321846, -19.52645493, 17.83104324, -122.42034149, 106.36012268, -19.54224777, -117.17257690, -0.42377925, 0.32438973, -0.72628856, -0.43322921, 0.29428768, -0.10332077, -0.16083346, 100.42400360, 75.27233124, 28.95999908, 0.00000000
1, 0.5900, 69, -0.65286285, -0.87007821, 0.55079216, 12.60309982, -26.39596367, -15.51479721, -19.52645493, 17.83104324, -122.42034149, 106.47069550, -19.44039726, -117.28785706, -0.42247820, 0.32457772, -0.72686279, -0.43339604, 0.31826311, -0.03512324, -0.28699327, 100.42400360, 75.27233124, 28.95999908, 0.00000000
1, 0.5950, 70, -0.67558360, -0.91715395, 0.54720128, 10.46994305, -26.89205742, -17.39228630, -19.43876076, 18.82490540, -122.74188995, 106.55954742, -19.31883049, -117.39849091, -0.42114764, 0.32481158, -0.72730935, -0.43376642, 0.34287345, 0.01178677, -0.28178123, 100.42400360, 75.27233124, 28.95999908, 0.00000000
1, 0.5751, 64, 0.17205811, -1.06304932, 0.22381592, 49.00548553, 40.92540741, 94.85057831, -23.50189972, 27.74042702, -118.56182098, 134.29310608, 57.99087524, 25.23276901, 0.42906055, -0.74541694, -0.35976353, 0.36170566, 0.67702711, 0.68501389, 0.14515412, 100.34500122, 81.89849854, 29.01000023, 0.00000000
1, 0.5801, 65, 0.20886230, -1.08489990, 0.29968262, 49.49548721, 44.07540512, 95.30557251, -23.50189972, 27.74042702, -118.56182098, 134.26344299, 57.49584198, 24.90503883, 0.42825752, -0.74852568, -0.35670304, 0.35926017, 0.63565433, 0.70143473, 0.07413726, 100.34500122, 81.89849854, 29.01000023, 0.00000000
1, 0.5851, 66, 0.23559570, -1.11798096, 0.37762451, 48.13048935, 47.15540314, 96.25057983, -22.77112007, 27.91581345, -118.62028503, 134.24456787, 56.98662186, 24.59646225, 0.42745492, -0.75165236, -0.35368142, 0.35666585, 0.60416836, 0.72905636, 0.00122810, 100.34500122, 81.89849854, 29.01000023, 0.00000000
1, 0.5901, 67, 0.28967285, -1.13214111, 0.39630127, 45.61048508, 52.02040863, 97.30057526, -22.77112007, 27.91581345, -118.62028503, 134.23934937, 56.45662689, 24.31745148, 0.42666477, -0.75480384, -0.35074589, 0.35384402, 0.54507756, 0.73766309, -0.01214825, 100.34500122, 81.89849854, 29.01000023, 0.00000000
1, 0.5951, 68, 0.33831787, -1.12933350, 0.42327881, 43.86048508, 53.28041077, 97.72057343, -23.50189972, 26.57117844, -117.83103943, 134.23466492, 55.92069626, 24.04786873, 0.42590788, -0.75792825, -0.34783739, 0.35093650, 0.49125543, 0.72926432, -0.03373133, 100.34500122, 81.89849854, 29.01000023, 0.00000000
1, 0.6001, 69, 0.37097168, -1.11450195, 0.46588135, 39.87048340, 53.17541122, 98.17557526, -23.50189972, 26.57117844, -117.83103943, 134.21182251, 55.38350296, 23.77874565, 0.42527997, -0.76096332, -0.34496364, 0.34795403, 0.45332700, 0.70875472, -0.07104535, 100.34500122, 81.89849854, 29.01000023, 0.00000000
1, 0.6350, 71, -0.39868376, -0.92064774, 0.43875903, -10.86084652, -15.08156013, -26.65385437, -18.76644325, 18.91259766, -123.23881531, 106.44883728, -18.28796005, -117.54750061, -0.41527304, 0.32861283, -0.72556317, -0.43945438, 0.08316827, 0.00954242, -0.17229836, 100.42400360, 75.27233124, 28.95999908, 0.00000000
1, 0.6400, 72, -0.45152295, -0.92664289, 0.41518426, -11.09192657, -13.87243748, -27.77881432, -18.76644325, 18.91259766, -123.23881531, 106.41043091, -18.14264107, -117.57950592, -0.41446495, 0.32899573, -0.72525638, -0.44043589, 0.13853022, 0.01460770, -0.14927500, 100.42400360, 75.27233124, 28.95999908, 0.00000000
1, 0.6051, 70, 0.37518311, -1.08618164, 0.47662354, 36.16048050, 50.97040558, 97.96558380, -22.68342590, 27.36042023, -117.56796265, 134.16500854, 54.85464096, 23.50127029, 0.42479402, -0.76387286, -0.34210321, 0.34498364, 0.44382554, 0.67468023, -0.07676581, 100.34500122, 81.89849854, 29.01000023, 0.00000000
1, 0.6101, 71, 0.39770508, -1.06939697, 0.46063232, 33.29048157, 48.83540344, 97.02057648, -22.68342590, 27.36042023, -117.56796265, 134.10275269, 54.33643723, 23.22069168, 0.42441073, -0.76666391, -0.33926934, 0.34205040, 0.41605887, 0.65216160, -0.05603650, 100.34500122, 81.89849854, 29.01000023, 0.00000000
1, 0.6450, 73, -0.47684476, -0.90953147, 0.40303215, -11.38474083, -10.56675816, -29.20353889, -18.97106171, 19.40952873, -123.09265900, 106.35633850, -17.98779678, -117.58982086, -0.41373268, 0.32950690, -0.72480887, -0.44147772, 0.16637303, -0.00349399, -0.13770682, 100.42400360, 75.27233124, 28.95999908, 0.00000000
1, 0.6500, 74, -0.48276991, -0.92355597, 0.40720844, -10.77484226, -11.20189095, -30.10274315, -18.97106171, 19.40952873, -123.09265900, 106.30587006, -17.82776260, -117.60214233, -0.41295350, 0.33004451, -0.72437006, -0.44252482, 0.17491779, 0.00946276, -0.14251117, 100.42400360, 75.27233124, 28.95999908, 0.00000000
1, 0.6550, 75, -0.46904489, -0.95275283, 0.35993195, -12.05637360, -11.42358971, -31.49380493, -18.97106171, 19.40952873, -123.09265900, 106.24870300, -17.66075134, -117.61368561, -0.41215795, 0.33059779, -0.72388864, -0.44363970, 0.16406691, 0.03763758, -0.09585874, 100.42400360, 75.27233124, 28.95999908, 0.00000000
1, 0.6501, 72, 0.30310059, -1.05493164, 0.26525879, 30.45547867, 16.46039581, 89.84557343, -22.97573853, 25.69424057, -116.60333252, 133.12832642, 50.78379059, 20.44939232, 0.42343259, -0.78543448, -0.31496978, 0.32340607, 0.47271222, 0.59472948, 0.16639549, 100.34500122, 81.89849854, 29.01000023, 0.00000000
1, 0.6551, 73, 0.27478027, -1.06591797, 0.24322510, 30.45547867, 13.59039593, 88.27057648, -23.23881912, 25.13884735, -116.51564026, 132.97427368, 50.41488647, 20.05295944, 0.42344406, -0.78739548, -0.31176332, 0.32172528, 0.49691319, 0.60088003, 0.19062547, 100.34500122, 81.89849854, 29.01000023, 0.00000000
1, 0.6601, 74, 0.24816895, -1.08428955, 0.22918701, 29.96547699, 11.73539448, 86.80057526, -23.23881912, 25.13884735, -116.51564026, 132.82072449, 50.05702209, 19.65829468, 0.42346993, -0.78928816, -0.30857477, 0.32012337, 0.51950908, 0.61453843, 0.20670502, 100.34500122, 81.89849854, 29.01000023, 0.00000000
1, 0.6651, 75, 0.21820068, -1.09197998, 0.18353271, 27.86547661, 11.77039433, 84.56056976, -23.23881912, 25.13884735, -116.51564026, 132.67074585, 49.70656967, 19.28000259, 0.42352977, -0.79109991, -0.30548847, 0.31852826, 0.54552174, 0.61761433, 0.25430614, 100.34500122, 81.89849854, 29.01000023, 0.00000000
1, 0.6701, 76, 0.19445801, -1.10223389, 0.16357422, 26.95547676, 12.82039452, 82.28556824, -23.23881912, 24.61268616, -116.51564026, 132.53436279, 49.36034775, 18.92358780, 0.42356905, -0.79286724, -0.30250823, 0.31692210, 0.56534314, 0.62341058, 0.27623034, 100.34500122, 81.89849854, 29.01000023, 0.00000000
1, 0.6600, 76, -0.42502400, -0.95474207, 0.27743629, -13.33803749, -8.68538666, -32.84935760, -18.62028694, 19.78953552, -123.82344055, 106.18039703, -17.49106598, -117.60967255, -0.41144001, 0.33122295, -0.72331196, -0.44477898, 0.12306592, 0.03859678, -0.01406221, 100.42400360, 75.27233124, 28.95999908, 0.00000000
1, 0.6650, 77, -0.38849372, -0.96272969, 0.25237322, -12.94960594, -5.70115089, -33.69453049, -18.62028694, 19.78953552, -123.82344055, 106.10923004, -17.32143974, -117.58959961, -0.41079310, 0.33193892, -0.72267514, -0.44587708, 0.08942199, 0.04544463, 0.01019242, 100.42400360, 75.27233124, 28.95999908, 0.00000000
1, 0.6700, 78, -0.37428838, -0.97893596, 0.27721512, -12.82138920, -4.70688725, -34.44361496, -19.05875397, 20.11107826, -122.82958221, 106.03701019, -17.14953613, -117.56369019, -0.41015998, 0.33269936, -0.72201008, -0.44696921, 0.07800756, 0.06042551, -0.01554523, 100.42400360, 75.27233124, 28.95999908, 0.00000000
1, 0.6750, 79, -0.38204423, -0.99024343, 0.28625020, -12.70403290, -5.79813385, -35.38247299, -19.05875397, 20.11107826, -122.82958221, 105.96674347, -16.97161293, -117.54218292, -0.40947136, 0.33346909, -0.72135144, -0.44808906, 0.08868083, 0.07052137, -0.02550813, 100.42400360, 75.27233124, 28.95999908, 0.00000000
1, 0.6800, 80, -0.41253465, -1.01241660, 0.27758941, -13.13390350, -8.61008835, -35.93476105, -19.05875397, 20.11107826, -122.82958221, 105.89830780, -16.78716660, -117.53426361, -0.40868869, 0.33419240, -0.72072446, -0.44927204, 0.12224506, 0.09150155, -0.01780394, 100.42400360, 75.27233124, 28.95999908, 0.00000000
1, 0.7250, 81, -0.45136285, -0.96176755, 0.26511329, -12.02942562, 10.20649815, -43.14168930, -18.15258598, 20.54954720, -122.62496185, 105.12758636, -15.07414532, -117.03723145, -0.40352553, 0.34307960, -0.71294516, -0.45953533, 0.18980831, 0.02951512, -0.01551465, 100.42400360, 75.27233124, 28.95999908, 0.00000000
1, 0.7300, 82, -0.42524990, -0.96264958, 0.27266374, -12.96914101, 11.26254749, -43.94581223, -18.15258598, 20.54954720, -122.62496185, 105.03247070, -14.87660408, -116.92217255, -0.40318760, 0.34443960, -0.71182686, -0.46054721, 0.16699119, 0.02911616, -0.02428783, 100.42400360, 75.27233124, 28.95999908, 0.00000000
1, 0.6751, 77, 0.16162109, -1.10333252, 0.15667725, 26.43047714, 14.01039600, 80.85057831, -23.23881912, 24.61268616, -116.51564026, 132.41026306, 49.01486206, 18.58500671, 0.42358482, -0.79461098, -0.29960251, 0.31528974, 0.59424400, 0.62015682, 0.28514487, 100.34500122, 81.89849854, 29.01000023, 0.00000000
1, 0.6801, 78, 0.13018799, -1.10992432, 0.15771484, 26.04547691, 15.62039566, 79.48556519, -23.41420555, 24.40806770, -116.28178406, 132.30020142, 48.66855240, 18.26586342, 0.42356822, -0.79634088, -0.29677498, 0.31361738, 0.62171233, 0.62251306, 0.28621542, 100.34500122, 81.89849854, 29.01000023, 0.00000000
1, 0.6851, 79, 0.09594727, -1.11926270, 0.15295410, 24.82047653, 17.23039818, 78.54058075, -23.41420555, 24.40806770, -116.28178406, 132.19796753, 48.31991959, 17.96364975, 0.42355460, -0.79804707, -0.29402265, 0.31188637, 0.65193379, 0.62767166, 0.29315096, 100.34500122, 81.89849854, 29.01000023, 0.00000000
1, 0.7350, 83, -0.38122228, -0.94888818, 0.27090794, -13.62854195, 12.63774681, -44.88610077, -18.15258598, 21.04647827, -122.77111816, 104.93246460, -14.67611313, -116.79940033, -0.40288174, 0.34584334, -0.71065372, -0.46157348, 0.12634161, 0.01406205, -0.02378446, 100.42400360, 75.27233124, 28.95999908, 0.00000000
1, 0.7400, 84, -0.32987925, -0.95204186, 0.28774586, -13.65262413, 14.46615410, -45.61335754, -18.15258598, 21.04647827, -122.77111816, 104.83229065, -14.47702312, -116.66766357, -0.40262324, 0.34729365, -0.70944911, -0.46256202, 0.07833736, 0.01589863, -0.04191437, 100.42400360, 75.27233124, 28.95999908, 0.00000000
1, 0.7450, 85, -0.26304480, -0.92374635, 0.32495874, -15.61322689, 17.47597694, -46.91875076, -17.68488693, 20.57877731, -122.56649780, 104.71677399, -14.27242088, -116.51908875, -0.40245226, 0.34881964, -0.70811343, -0.46360809, 0.01483689, -0.01379285, -0.08051714, 100.42400360, 75.27233124, 28.95999908, 0.00000000
1, 0.6901, 80, 0.08245850, -1.12084961, 0.14727783, 23.42047691, 19.54039764, 77.28057098, -23.41420555, 24.40806770, -116.28178406, 132.10646057, 47.96789169, 17.68358040, 0.42353728, -0.79973203, -0.29137212, 0.31007612, 0.66134107, 0.62513560, 0.30108315, 100.34500122, 81.89849854, 29.01000023, 0.00000000
1, 0.6951, 81, 0.08044434, -1.11968994, 0.13787842, 22.12547684, 22.65540123, 76.65056610, -23.23881912, 23.70651817, -115.93101501, 132.02673340, 47.60747910, 17.42656326, 0.42351151, -0.80141664, -0.28881484, 0.30814829, 0.65916377, 0.61988568, 0.31286877, 100.34500122, 81.89849854, 29.01000023, 0.00000000
1, 0.7500, 86, -0.19874065, -0.94207835, 0.36386868, -12.67080212, 15.34129429, -46.90192795, -17.68488693, 20.57877731, -122.56649780, 104.61920166, -14.06491184, -116.38170624, -0.40216893, 0.35035196, -0.70687121, -0.46459329, -0.04607429, 0.00318132, -0.12074570, 100.42400360, 75.27233124, 28.95999908, 0.00000000
1, 0.7550, 87, -0.22393584, -0.96263349, 0.36087191, -13.70457745, 9.68577480, -46.74315262, -17.68488693, 20.57877731, -122.56649780, 104.52392578, -13.85089111, -116.27321625, -0.40172848, 0.35174450, -0.70570636, -0.46569148, -0.01727634, 0.02246603, -0.11918294, 100.42400360, 75.27233124, 28.95999908, 0.00000000
1, 0.7600, 88, -0.25661218, -0.95254946, 0.34216580, -14.49457645, 7.25271511, -47.24676514, -17.62642479, 20.75416565, -123.00496674, 104.42793274, -13.63125515, -116.17669678, -0.40121332, 0.35308743, -0.70455730, -0.46685791, 0.01915349, 0.01112550, -0.10188319, 100.42400360, 75.27233124, 28.95999908, 0.00000000
1, 0.7551, 82, 0.21826172, -0.99505615, 0.29479980, 15.19547558, 33.40040588, 70.70056915, -23.15112495, 22.18649483, -114.99561310, 131.66271973, 42.93526459, 15.44644737, 0.42243534, -0.82121146, -0.26258191, 0.27966228, 0.46410182, 0.44899851, 0.19120283, 100.34500122, 81.89849854, 29.01000023, 0.00000000
1, 0.7601, 83, 0.19409180, -0.99304199, 0.30700684, 15.58047485, 30.53040314, 70.63056946, -23.15112495, 22.18649483, -114.99561310, 131.62913513, 42.56993103, 15.28219318, 0.42238656, -0.82267553, -0.26042208, 0.27744335, 0.48356339, 0.44345334, 0.18159662, 100.34500122, 81.89849854, 29.01000023, 0.00000000
1, 0.7651, 84, 0.15332031, -0.98272705, 0.30505371, 15.44047451, 27.24039841, 70.98056793, -23.15112495, 22.18649483, -114.99561310, 131.58416748, 42.21412277, 15.10100365, 0.42237964, -0.82409185, -0.25818786, 0.27533129, 0.51972282, 0.42961854, 0.18594693, 100.34500122, 81.89849854, 29.01000023, 0.00000000
1, 0.7701, 85, 0.11743164, -0.96752930, 0.29052734, 15.89547443, 24.79039955, 71.33057404, -23.26804924, 22.21572685, -115.72639465, 131.53395081, 41.86503220, 14.90732002, 0.42238331, -0.82548147, -0.25588748, 0.27330279, 0.55107415, 0.41092655, 0.20271833, 100.34500122, 81.89849854, 29.01000023, 0.00000000
1, 0.7751, 86, 0.08197021, -0.94757080, 0.27008057, 17.68047523, 23.77540016, 71.64556885, -23.26804924, 22.21572685, -115.72639465, 131.49017334, 41.51799011, 14.70858669, 0.42233297, -0.82688600, -0.25353283, 0.27132183, 0.58201647, 0.38754767, 0.22539243, 100.34500122, 81.89849854, 29.01000023, 0.00000000
1, 0.7650, 89, -0.31866086, -0.92711973, 0.29986566, -14.44530106, 6.10517454, -47.30979538, -17.62642479, 20.75416565, -123.00496674, 104.33399200, -13.40973854, -116.08627319, -0.40065885, 0.35440803, -0.70342505, -0.46803930, 0.08505863, -0.01551020, -0.06102014, 100.42400360, 75.27233124, 28.95999908, 0.00000000
1, 0.7700, 90, -0.35343584, -0.90055954, 0.29236630, -14.18477345, 8.02970028, -47.58271027, -17.07103157, 21.04647827, -122.39111328, 104.23949432, -13.18909073, -115.98638153, -0.40015182, 0.35577935, -0.70225674, -0.46918571, 0.12360420, -0.04331838, -0.05490015, 100.42400360, 75.27233124, 28.95999908, 0.00000000
1, 0.7801, 87, 0.05780029, -0.94360352, 0.28619385, 20.06047630, 23.70539856, 71.75057220, -23.18035698, 21.57263947, -114.55714417, 131.45956421, 41.17068863, 14.51041412, 0.42219391, -0.82832527, -0.25114208, 0.26936463, 0.60164452, 0.38026896, 0.21158570, 100.34500122, 81.89849854, 29.01000023, 0.00000000
1, 0.7851, 88, 0.03790283, -0.94396973, 0.30358887, 22.54547501, 23.91539955, 71.78557587, -23.18035698, 21.57263947, -114.55714417, 131.44366455, 40.82251358, 14.31435108, 0.42195821, -0.82980335, -0.24872167, 0.26742330, 0.61696398, 0.37749112, 0.19666022, 100.34500122, 81.89849854, 29.01000023, 0.00000000
1, 0.7901, 89, 0.03509521, -0.93890381, 0.30041504, 23.56047630, 24.37039948, 71.96057129, -23.18035698, 21.57263947, -114.55714417, 131.43545532, 40.47213364, 14.12089729, 0.42167783, -0.83129746, -0.24628851, 0.26547009, 0.61514825, 0.36934856, 0.20236510, 100.34500122, 81.89849854, 29.01000023, 0.00000000
1, 0.7951, 90, 0.04296875, -0.93164063, 0.28649902, 24.15547562, 25.80540085, 72.20556641, -23.47266769, 21.63110161, -114.93714905, 131.43566895, 40.11608887, 13.93448162, 0.42135817, -0.83281165, -0.24386296, 0.26346350, 0.60255837, 0.35906520, 0.21892153, 100.34500122, 81.89849854, 29.01000023, 0.00000000
1, 0.8001, 91, 0.04742432, -0.92529297, 0.27508545, 24.75047684, 27.41540146, 72.10057068, -23.47266769, 21.63110161, -114.93714905, 131.44569397, 39.75511169, 13.75732803, 0.42099324, -0.83434385, -0.24146093, 0.26140335, 0.59329730, 0.34975517, 0.23307750, 100.34500122, 81.89849854, 29.01000023, 0.00000000
1, 0.8350, 91, -0.13647403, -0.95380235, 0.23064005, -14.52878284, 15.45699883, -49.50442886, -15.60947037, 22.15726280, -121.07570648, 102.92552185, -10.28343773, -114.22534180, -0.39579996, 0.37613183, -0.68452191, -0.48300844, -0.04358149, -0.00531819, -0.01208326, 100.42400360, 75.27233124, 28.95999908, 0.00000000
1, 0.8400, 92, -0.16487478, -0.93455541, 0.19472788, -14.99193192, 15.61691761, -49.07410049, -15.60947037, 22.15726280, -121.07570648, 102.82540894, -10.06185055, -114.09262848, -0.39548308, 0.37765884, -0.68312287, -0.48405588, -0.01127152, -0.02555765, 0.02228653, 100.42400360, 75.27233124, 28.95999908, 0.00000000
1, 0.8450, 93, -0.19614805, -0.90672314, 0.18645246, -15.61366272, 17.13311577, -48.60941696, -15.22946453, 21.39725113, -121.28032684, 102.72271729, -9.84373379, -113.95365906, -0.39522311, 0.37919500, -0.68169373, -0.48508111, 0.02378481, -0.05441373, 0.02896038, 100.42400360, 75.27233124, 28.95999908, 0.00000000
1, 0.8500, 94, -0.19144794, -0.88156211, 0.22787817, -15.74997139, 19.66570282, -48.23184967, -15.22946453, 21.39725113, -121.28032684, 102.61791229, -9.62995625, -113.80305481, -0.39504641, 0.38076931, -0.68022025, -0.48605931, 0.02267849, -0.08065848, -0.01401923, 100.42400360, 75.27233124, 28.95999908, 0.00000000
1, 0.8550, 95, -0.13276371, -0.86935592, 0.23630933, -16.32535553, 20.34096336, -47.54243851, -15.22946453, 21.39725113, -121.28032684, 102.51041412, -9.42001820, -113.65036011, -0.39491183, 0.38232535, -0.67873055, -0.48702872, -0.03239680, -0.09387750, -0.02394781, 100.42400360, 75.27233124, 28.95999908, 0.00000000
1, 0.8601, 92, 0.07476807, -0.88580322, 0.14526367, 26.95547676, 29.65540123, 67.86557770, -22.88804436, 19.49722290, -113.32943726, 131.87388611, 35.47584915, 11.97346592, 0.41525456, -0.85198897, -0.21425354, 0.23616505, 0.50684470, 0.27995393, 0.39757249, 100.34500122, 81.89849854, 29.01000023, 0.00000000
1, 0.8651, 93, 0.07507324, -0.88128662, 0.18164063, 28.18047905, 31.26540375, 67.37556458, -22.94650650, 19.52645493, -113.06635284, 131.93785095, 35.12070847, 11.84033680, 0.41460642, -0.85344654, -0.21202371, 0.23404400, 0.50149584, 0.27335003, 0.36423361, 100.34500122, 81.89849854, 29.01000023, 0.00000000
1, 0.8701, 94, 0.07440186, -0.87841797, 0.22668457, 29.30047607, 32.94540024, 66.18556976, -22.94650650, 19.52645493, -113.06635284, 132.01527405, 34.76451874, 11.71972370, 0.41388389, -0.85492015, -0.20985454, 0.23188944, 0.49707693, 0.26853564, 0.32236296, 100.34500122, 81.89849854, 29.01000023, 0.00000000
1, 0.8751, 95, 0.07067871, -0.88775635, 0.26226807, 29.51047707, 33.85540009, 65.48556519, -22.94650650, 19.52645493, -113.06635284, 132.09826660, 34.40801239, 11.60597706, 0.41313314, -0.85639018, -0.20772330, 0.22971275, 0.49568617, 0.27603573, 0.29002389, 100.34500122, 81.89849854, 29.01000023, 0.00000000
1, 0.8801, 96, 0.09069824, -0.89611816, 0.27667236, 28.98547935, 34.94040298, 65.45056152, -23.26804924, 17.15872574, -113.15404510, 132.18193054, 34.04813766, 11.49708939, 0.41238692, -0.85785091, -0.20561567, 0.22748864, 0.47049317, 0.28258955, 0.27888539, 100.34500122, 81.89849854, 29.01000023, 0.00000000
1, 0.8600, 96, -0.08300581, -0.86322343, 0.19896851, -16.17409134, 19.79841423, -46.64593506, -14.82022762, 22.01110840, -120.98801422, 102.40491486, -9.21358395, -113.50180054, -0.39477548, 0.38384396, -0.67726463, -0.48798448, -0.07849358, -0.10091964, 0.01186519, 100.42400360, 75.27233124, 28.95999908, 0.00000000
1, 0.8650, 97, -0.04792301, -0.86063457, 0.16834877, -15.22980309, 21.22411537, -46.20334625, -14.82022762, 22.01110840, -120.98801422, 102.30370331, -9.01055527, -113.34713745, -0.39467260, 0.38539416, -0.67579806, -0.48887822, -0.10998381, -0.10439017, 0.04097686, 100.42400360, 75.27233124, 28.95999908, 0.00000000
1, 0.8700, 98, -0.02839666, -0.87258732, 0.18815468, -13.98268700, 21.31043625, -44.99034119, -14.52791595, 22.56650162, -121.36801910, 102.20946503, -8.81327057, -113.19376373, -0.39457518, 0.38693011, -0.67437345, -0.48971033, -0.12613194, -0.09335133, 0.01969214, 100.42400360, 75.27233124, 28.95999908, 0.00000000
1, 0.8750, 99, -0.03121110, -0.88205671, 0.21591967, -13.51896954, 18.50200272, -43.90646362, -14.52791595, 22.56650162, -121.36801910, 102.12041473, -8.61810398, -113.05583954, -0.39440858, 0.38838017, -0.67302209, -0.49055493, -0.12001729, -0.08476390, -0.00950748, 100.42400360, 75.27233124, 28.95999908, 0.00000000
1, 0.8800, 100, -0.00964860, -0.90161288, 0.26630586, -13.69003963, 15.36208248, -42.29662323, -14.52791595, 22.56650162, -121.36801910, 102.03359222, -8.42734146, -112.93547821, -0.39418551, 0.38971114, -0.67174548, -0.49142760, -0.13838810, -0.06609276, -0.06123000, 100.42400360, 75.27233124, 28.95999908, 0.00000000
1, 0.8851, 97, 0.09124756, -0.89270020, 0.25042725, 28.00547981, 34.41540146, 66.08056641, -23.26804924, 17.15872574, -113.15404510, 132.25848389, 33.68781662, 11.38316822, 0.41168326, -0.85928416, -0.20348224, 0.22526130, 0.46472383, 0.27733263, 0.30833578, 100.34500122, 81.89849854, 29.01000023, 0.00000000
1, 0.8901, 98, 0.09942627, -0.88574219, 0.21087646, 27.83047676, 33.54040146, 67.65557098, -23.03420067, 18.73721123, -113.03712463, 132.32905579, 33.32473755, 11.25893593, 0.41100448, -0.86070919, -0.20127331, 0.22303417, 0.45128274, 0.26848456, 0.35100427, 100.34500122, 81.89849854, 29.01000023, 0.00000000
1, 0.8951, 99, 0.09979248, -0.88867188, 0.19604492, 28.70547867, 33.92540359, 68.07556915, -23.03420067, 18.73721123, -113.03712463, 132.40466309, 32.95894623, 11.13468266, 0.41028839, -0.86214662, -0.19904450, 0.22078994, 0.44558498, 0.26956213, 0.36898962, 100.34500122, 81.89849854, 29.01000023, 0.00000000
1, 0.9001, 100, 0.10559082, -0.90179443, 0.21496582, 30.00047493, 33.85540390, 68.67057037, -23.03420067, 18.73721123, -113.03712463, 132.48590088, 32.59132767, 11.00764942, 0.40952468, -0.86360055, -0.19677700, 0.21854609, 0.43440369, 0.28090706, 0.35327899, 100.34500122, 81.89849854, 29.01000023, 0.00000000
1, 0.9200, 101, -0.13380226, -0.92629886, 0.23056841, -13.74239731, 14.48828125, -39.26724243, -12.94942951, 22.47880745, -120.75416565, 101.36095428, -6.93198013, -112.28920746, -0.39119738, 0.39838451, -0.66261917, -0.49918965, 0.01176387, -0.04715649, -0.03653750, 100.42400360, 75.27233124, 28.95999908, 0.00000000
1, 0.9250, 102, -0.12322856, -0.93818069, 0.18224803, -13.14819527, 15.30010796, -39.50082779, -12.94942951, 22.47880745, -120.75416565, 101.28109741, -6.75331879, -112.17494965, -0.39100721, 0.39963126, -0.66138285, -0.49998099, 0.00440123, -0.03583646, 0.01049220, 100.42400360, 75.27233124, 28.95999908, 0.00000000
1, 0.9300, 103, -0.14471464, -0.93844116, 0.14179601, -12.41393661, 16.38249588, -39.34416199, -12.94942951, 22.47880745, -120.75416565, 101.20472717, -6.57629538, -112.05577087, -0.39083725, 0.40090835, -0.66014439, -0.50072777, 0.02907317, -0.03612889, 0.04963896, 100.42400360, 75.27233124, 28.95999908, 0.00000000
1, 0.9350, 104, -0.15825909, -0.94539905, 0.11503530, -11.04920006, 21.35614395, -38.54194641, -12.74481106, 23.15112495, -120.57877350, 101.13286591, -6.40782261, -111.91306305, -0.39080253, 0.40229315, -0.65886205, -0.50133264, 0.04564352, -0.02970336, 0.07518883, 100.42400360, 75.27233124, 28.95999908, 0.00000000
1, 0.9400, 105, -0.11292613, -0.95433581, 0.12965243, -10.52509499, 25.27542305, -37.64899826, -12.74481106, 23.15112495, -120.57877350, 101.05892181, -6.24662447, -111.75167847, -0.39089841, 0.40374067, -0.65752029, -0.50185555, 0.00309691, -0.02134178, 0.05949780, 100.42400360, 75.27233124, 28.95999908, 0.00000000
1, 0.9051, 101, 0.10321045, -0.92132568, 0.23211670, 30.35047913, 35.32540131, 69.16056824, -23.20958710, 18.12335587, -112.68634796, 132.57188416, 32.21710968, 10.88495731, 0.40873459, -0.86506790, -0.19451144, 0.21623833, 0.43130487, 0.29871169, 0.33940980, 100.34500122, 81.89849854, 29.01000023, 0.00000000
1, 0.9651, 102, 0.19451904, -0.99029541, 0.12176514, 20.93547630, 56.57041168, 58.27556992, -23.29728127, 15.87255192, -111.48786926, 133.62261963, 27.57796097, 9.90208054, 0.39989445, -0.88129067, -0.17054719, 0.18526991, 0.27002972, 0.34894389, 0.48885694, 100.34500122, 81.89849854, 29.01000023, 0.00000000
1, 0.9701, 103, 0.22290039, -0.98193359, 0.12109375, 21.21547699, 62.80041504, 55.61556625, -23.29728127, 15.87255192, -111.48786926, 133.74681091, 27.15998840, 9.94149971, 0.39905810, -0.88257611, -0.16933165, 0.18204112, 0.23520611, 0.33945316, 0.49319768, 100.34500122, 81.89849854, 29.01000023, 0.00000000
1, 0.9751, 104, 0.23211670, -0.97766113, 0.11480713, 21.91547585, 65.70542145, 54.18056488, -23.29728127, 15.87255192, -111.48786926, 133.88154602, 26.73706436, 9.99704170, 0.39815617, -0.88387334, -0.16821396, 0.17872800, 0.21942779, 0.33418101, 0.50328451, 100.34500122, 81.89849854, 29.01000023, 0.00000000
1, 0.9450, 106, -0.01871394, -0.95383489, 0.12036123, -10.70408344, 28.43091774, -37.11582947, -12.21864891, 22.56650162, -121.07570648, 100.98605347, -6.09148264, -111.57593536, -0.39108846, 0.40524232, -0.65614438, -0.50229788, -0.08837295, -0.02236366, 0.06782115, 100.42400360, 75.27233124, 28.95999908, 0.00000000
1, 0.9500, 107, 0.07803309, -0.95364344, 0.10747153, -10.21865368, 29.63614655, -36.35717773, -12.21864891, 22.56650162, -121.07570648, 100.91557312, -5.94099236, -111.39520264, -0.39131922, 0.40675524, -0.65476906, -0.50268966, -0.18245520, -0.02304369, 0.07978866, 100.42400360, 75.27233124, 28.95999908, 0.00000000
1, 0.9550, 108, 0.11751571, -0.96552801, 0.10115286, -9.87031555, 27.52544403, -35.36036301, -12.21864891, 22.56650162, -121.07570648, 100.84848785, -5.79319811, -111.22604370, -0.39150396, 0.40819776, -0.65345240, -0.50308979, -0.21934734, -0.01163305, 0.08507906, 100.42400360, 75.27233124, 28.95999908, 0.00000000
1, 0.9801, 105, 0.25909424, -0.98529053, 0.10308838, 23.00047684, 67.21041870, 52.85056686, -23.50189972, 14.44022179, -111.25402069, 134.02574158, 26.31358337, 10.06244183, 0.39718506, -0.88517839, -0.16716278, 0.17538527, 0.18584616, 0.34096086, 0.51889539, 100.34500122, 81.89849854, 29.01000023, 0.00000000
1, 0.9851, 106, 0.29437256, -0.99688721, 0.10516357, 24.26047707, 67.73541260, 51.48556519, -23.50189972, 14.44022179, -111.25402069, 134.17843628, 25.89302444, 10.13377190, 0.39614508, -0.88648605, -0.16616125, 0.17205246, 0.14396511, 0.35186338, 0.52077639, 100.34500122, 81.89849854, 29.01000023, 0.00000000
1, 0.9901, 107, 0.33593750, -0.99884033, 0.11334229, 24.75047874, 67.21041107, 49.70056534, -22.91727448, 16.66179466, -111.04940033, 134.33453369, 25.48051834, 10.20841408, 0.39507067, -0.88777226, -0.16521356, 0.16877185, 0.09587747, 0.35326347, 0.51654893, 100.34500122, 81.89849854, 29.01000023, 0.00000000
1, 0.9951, 108, 0.35992432, -1.00744629, 0.12109375, 26.08047867, 65.18040466, 48.40556717, -22.91727448, 16.66179466, -111.04940033, 134.49488831, 25.07955742, 10.27853966, 0.39394429, -0.88904476, -0.16426894, 0.16559944, 0.06552123, 0.36146367, 0.51270372, 100.34500122, 81.89849854, 29.01000023, 0.00000000
1, 0.9600, 109, 0.08889636, -0.96211421, 0.08600681, -9.45001221, 25.37722969, -34.22513962, -12.51096153, 23.73575020, -120.46185303, 100.78514862, -5.64877939, -111.06877899, -0.39164323, 0.40956628, -0.65219945, -0.50349468, -0.18816555, -0.01548262, 0.09910700, 100.42400360, 75.27233124, 28.95999908, 0.00000000
1, 0.9650, 110, 0.06805246, -0.94521236, 0.05968191, -8.09379673, 25.31942558, -32.77158737, -12.51096153, 23.73575020, -120.46185303, 100.72916412, -5.51127577, -110.91333008, -0.39178726, 0.41091421, -0.65100104, -0.50383532, -0.16483347, -0.03276369, 0.12446168, 100.42400360, 75.27233124, 28.95999908, 0.00000000
1, 1.0001, 109, 0.37841797, -1.02941895, 0.13439941, 26.88547707, 63.18541718, 46.65556335, -22.91727448, 16.66179466, -111.04940033, 134.65776062, 24.69165802, 10.34612942, 0.39278305, -0.89029205, -0.16334987, 0.16253804, 0.04085348, 0.38318989, 0.50324953, 100.34500122, 81.89849854, 29.01000023, 0.00000000
1, 1.0150, 111, 0.32028136, -0.99363089, 0.15466006, -0.39102507, 5.83040667, -7.32545328, -11.63402462, 23.67728615, -120.34492493, 100.55050659, -4.68565798, -109.84964752, -0.39268371, 0.42022696, -0.64393646, -0.50453413, -0.40248007, 0.01358240, 0.02702160, 100.42400360, 75.27233124, 28.95999908, 0.00000000
1, 1.0200, 112, 0.31454998, -0.98901641, 0.10817800, -0.95326996, 3.03319907, -4.16016722, -11.45863724, 23.26804924, -120.40338898, 100.54415894, -4.66797638, -109.83090973, -0.39269480, 0.42039394, -0.64378709, -0.50457704, -0.39626312, 0.00899370, 0.07339253, 100.42400360, 75.27233124, 28.95999908, 0.00000000
1, 1.0250, 113, 0.35239950, -0.99517941, 0.10574429, -0.33924705, 3.02646089, -0.73303032, -11.45863724, 23.26804924, -120.40338898, 100.54118347, -4.66711569, -109.81530762, -0.39276972, 0.42047542, -0.64371419, -0.50454372, -0.43401766, 0.01514155, 0.07584657, 100.42400360, 75.27233124, 28.95999908, 0.00000000
1, 1.0300, 114, 0.41480613, -0.99377847, 0.16679841, -0.23274061, 3.65852976, 2.01474953, -11.04940033, 23.67728615, -120.75416565, 100.53871155, -4.68033743, -109.79909515, -0.39292106, 0.42049569, -0.64368325, -0.50444859, -0.49674940, 0.01364682, 0.01490688, 100.42400360, 75.27233124, 28.95999908, 0.00000000
1, 1.0350, 115, 0.47584164, -0.98889184, 0.18710463, 0.08078609, 1.88787031, 4.80778122, -11.04940033, 23.67728615, -120.75416565, 100.53879547, -4.70568943, -109.79415131, -0.39307824, 0.42040408, -0.64374101, -0.50432873, -0.55822372, 0.00875511, -0.00526215, 100.42400360, 75.27233124, 28.95999908, 0.00000000
1, 1.0251, 110, 0.50079346, -1.06726074, 0.17211914, 23.24547768, 51.53040695, 39.06056213, -22.71265602, 15.11254025, -110.55246735, 135.39567566, 22.97010040, 10.61875343, 0.38734350, -0.89578789, -0.15913451, 0.14901474, -0.10926779, 0.42074031, 0.48264560, 100.34500122, 81.89849854, 29.01000023, 0.00000000
1, 1.0301, 111, 0.53033447, -1.07879639, 0.18206787, 20.41047668, 49.22040939, 37.66056061, -22.68342590, 15.28792763, -109.32476044, 135.51390076, 22.66261292, 10.66044140, 0.38644728, -0.89671075, -0.15836100, 0.14659554, -0.14380716, 0.43219689, 0.47558212, 100.34500122, 81.89849854, 29.01000023, 0.00000000
1, 1.0351, 112, 0.56774902, -1.07727051, 0.18316650, 17.82047272, 45.79040146, 35.45555878, -22.68342590, 15.28792763, -109.32476044, 135.61697388, 22.37501907, 10.69692516, 0.38565907, -0.89754593, -0.15763131, 0.14432868, -0.18594848, 0.43051755, 0.47708905, 100.34500122, 81.89849854, 29.01000023, 0.00000000
1, 1.0401, 113, 0.58508301, -1.06927490, 0.19537354, 15.40547276, 41.76540375, 33.63555908, -23.03420067, 14.96638393, -109.67552948, 135.70449829, 22.10812187, 10.72464943, 0.38497913, -0.89829695, -0.15691932, 0.14223260, -0.20770647, 0.42233565, 0.46723890, 100.34500122, 81.89849854, 29.01000023, 0.00000000
1, 1.0451, 114, 0.57373047, -1.05822754, 0.22387695, 11.97547340, 34.97540283, 31.67556000, -23.03420067, 14.96638393, -109.67552948, 135.76786804, 21.87234688, 10.73396397, 0.38446599, -0.89893007, -0.15619060, 0.14041132, -0.20026055, 0.41096169, 0.44062755, 100.34500122, 81.89849854, 29.01000023, 0.00000000
1, 1.0400, 116, 0.48009482, -0.98655248, 0.16071235, -0.77533942, -2.75727797, 9.40495396, -11.04940033, 23.67728615, -120.75416565, 100.53244781, -4.63719130, -109.81320953, -0.39265078, 0.42059845, -0.64357889, -0.50470656, -0.56212878, 0.00642611, 0.02109207, 100.42400360, 75.27233124, 28.95999908, 0.00000000
1, 1.0450, 117, 0.44726172, -0.96664762, 0.11595886, -1.60560548, -9.46532249, 14.33819962, -11.04940033, 22.24495697, -120.02338409, 100.52947235, -4.69914532, -109.87295532, -0.39273044, 0.41996026, -0.64396936, -0.50467771, -0.52918255, -0.01342149, 0.06571221, 100.42400360, 75.27233124, 28.95999908, 0.00000000
1, 1.0500, 118, 0.44288111, -0.96565127, 0.15979104, -1.39647734, -8.13885117, 18.67857361, -11.04940033, 22.24495697, -120.02338409, 100.52745056, -4.78363609, -109.93009186, -0.39293885, 0.41923314, -0.64442098, -0.50454372, -0.52628291, -0.01438508, 0.02181330, 100.42400360, 75.27233124, 28.95999908, 0.00000000
1, 1.0550, 119, 0.46214071, -0.96320426, 0.24111514, -2.54781961, -9.14441204, 22.45489693, -11.37094402, 23.56036186, -120.14031219, 100.52050781, -4.88580656, -109.99562073, -0.39322296, 0.41835770, -0.64493304, -0.50439477, -0.54745489, -0.01684120, -0.05957822, 100.42400360, 75.27233124, 28.95999908, 0.00000000
1, 1.0600, 120, 0.48409200, -0.95869303, 0.24508058, -4.13486481, -15.40219975, 25.76105690, -11.37094402, 23.56036186, -120.14031219, 100.50871277, -4.99860954, -110.09503937, -0.39343244, 0.41722351, -0.64557731, -0.50434667, -0.57133400, -0.02123067, -0.06369391, 100.42400360, 75.27233124, 28.95999908, 0.00000000
1, 1.0501, 115, 0.55810547, -1.05096436, 0.25708008, 9.94547272, 29.37540436, 30.13555717, -23.03420067, 14.96638393, -109.67552948, 135.81536865, 21.66200066, 10.72793770, 0.38405958, -0.89948064, -0.15544014, 0.13882113, -0.18814982, 0.40331757, 0.40901726, 100.34500122, 81.89849854, 29.01000023, 0.00000000
1, 1.0551, 116, 0.53289795, -1.04968262, 0.29858398, 7.56547165, 22.27039909, 28.66555977, -22.97573853, 14.82022762, -110.05553436, 135.84323120, 21.48225975, 10.70082188, 0.38378468, -0.89993554, -0.15464224, 0.13751785, -0.16598630, 0.40157554, 0.36874837, 100.34500122, 81.89849854, 29.01000023, 0.00000000
1, 1.0601, 117, 0.49798584, -1.05084229, 0.34039307, 4.97547102, 15.34039497, 26.91555786, -22.97573853, 14.82022762, -110.05553436, 135.85119629, 21.33349037, 10.65449524, 0.38364697, -0.90029168, -0.15381224, 0.13649824, -0.13361762, 0.40219098, 0.32780364, 100.34500122, 81.89849854, 29.01000023, 0.00000000
1, 1.0651, 118, 0.47058105, -1.05572510, 0.37438965, 2.49047017, 9.39039326, 24.74555588, -23.00496864, 14.73253441, -109.93861389, 135.84182739, 21.21362114, 10.59432793, 0.38363323, -0.90055472, -0.15298241, 0.13573177, -0.10827635, 0.40645236, 0.29432553, 100.34500122, 81.89849854, 29.01000023, 0.00000000
1, 1.0701, 119, 0.43798828, -1.06945801, 0.38916016, 0.18046938, 4.42039156, 22.96055412, -23.00496864, 14.73253441, -109.93861389, 135.81680298, 21.11777306, 10.52254200, 0.38373244, -0.90073681, -0.15215307, 0.13517490, -0.07733746, 0.41948897, 0.27977258, 100.34500122, 81.89849854, 29.01000023, 0.00000000
1, 1.1000, 121, 0.08369045, -1.07036352, 0.22122748, -7.69180441, -28.23874474, 47.16262054, -12.33557415, 23.73575020, -120.90032196, 100.31675720, -6.36346006, -111.38752747, -0.39573681, 0.40271461, -0.65331000, -0.50438017, -0.19417048, 0.09214215, -0.04469893, 100.42400360, 75.27233124, 28.95999908, 0.00000000
1, 1.1050, 122, -0.01589510, -1.08388722, 0.21654987, -8.09069252, -30.06950951, 49.29729080, -12.97866154, 22.33265114, -120.95878601, 100.29866028, -6.57946920, -111.58044434, -0.39610711, 0.40050852, -0.65451777, -0.50428027, -0.09828261, 0.10603015, -0.04066118, 100.42400360, 75.27233124, 28.95999908, 0.00000000
1, 1.1051, 120, -0.04504395, -1.11566162, 0.25927734, -9.44453430, -10.13961315, 22.68055344, -23.76498032, 14.17714119, -109.93861389, 135.34657288, 20.75651741, 9.75254726, 0.38648561, -0.90078837, -0.14553285, 0.13427381, 0.39962006, 0.45877448, 0.40613610, 100.34500122, 81.89849854, 29.01000023, 0.00000000
1, 1.1101, 121, -0.15008545, -1.08288574, 0.27288818, -9.26953506, -8.80961227, 22.71555328, -23.76498032, 14.17714119, -109.93861389, 135.25793457, 20.70793724, 9.63309765, 0.38703871, -0.90072411, -0.14454569, 0.13417804, 0.50390100, 0.42475298, 0.39169875, 100.34500122, 81.89849854, 29.01000023, 0.00000000
1, 1.1151, 122, -0.17919922, -1.06958008, 0.28094482, -8.91953373, -6.07961178, 22.29555511, -23.32651329, 14.23560333, -110.31861877, 135.17538452, 20.65098953, 9.52563572, 0.38755792, -0.90067798, -0.14361891, 0.13398413, 0.53211403, 0.41023502, 0.38291910, 100.34500122, 81.89849854, 29.01000023, 0.00000000
1, 1.1201, 123, -0.16589355, -1.06744385, 0.29736328, -8.63953304, -3.24461079, 21.77055168, -23.32651329, 14.23560333, -110.31861877, 135.09886169, 20.58569527, 9.43097782, 0.38804483, -0.90064889, -0.14275892, 0.13368928, 0.51777488, 0.40692079, 0.36587760, 100.34500122, 81.89849854, 29.01000023, 0.00000000
1, 1.1251, 124, -0.14270020, -1.06286621, 0.30895996, -8.21953297, -1.35460985, 21.00055504, -23.79421234, 14.61560917, -110.23092651, 135.02810669, 20.51632881, 9.34648705, 0.38849854, -0.90063214, -0.14195858, 0.13333568, 0.49346155, 0.40121070, 0.35374528, 100.34500122, 81.89849854, 29.01000023, 0.00000000
1, 1.1100, 123, -0.07593261, -1.09047389, 0.13272692, -10.03522205, -30.71287346, 50.74385452, -12.97866154, 22.33265114, -120.95878601, 100.27212524, -6.80213499, -111.77786255, -0.39652228, 0.39821059, -0.65571499, -0.50421846, -0.04187249, 0.11311764, 0.04250545, 100.42400360, 75.27233124, 28.95999908, 0.00000000
1, 1.1150, 124, -0.12030698, -1.08053005, 0.07536127, -9.92779160, -30.62334061, 51.41061020, -12.97866154, 22.33265114, -120.95878601, 100.24689484, -7.02825451, -111.97538757, -0.39695019, 0.39589471, -0.65692002, -0.50413692, -0.00126322, 0.10364967, 0.09924729, 100.42400360, 75.27233124, 28.95999908, 0.00000000
1, 1.1200, 125, -0.10797934, -1.07811582, 0.09116245, -9.18690205, -24.43154335, 50.56731033, -13.50482273, 23.09266281, -120.92955017, 100.22222137, -7.25574589, -112.14146423, -0.39752138, 0.39374971, -0.65801495, -0.50393891, -0.01756429, 0.10161513, 0.08297610, 100.42400360, 75.27233124, 28.95999908, 0.00000000
1, 1.1301, 125, -0.13647461, -1.07348633, 0.31597900, -6.99453259, 0.29039064, 20.51055527, -23.79421234, 14.61560917, -110.23092651, 134.96644592, 20.44278145, 9.27018070, 0.38889074, -0.90064192, -0.14119813, 0.13293318, 0.48605514, 0.41077670, 0.34629685, 100.34500122, 81.89849854, 29.01000023, 0.00000000
1, 1.1351, 126, -0.15808105, -1.08801270, 0.33013916, -5.55953264, 2.46039152, 20.37055397, -23.79421234, 14.61560917, -110.23092651, 134.91511536, 20.36199570, 9.20271111, 0.38921210, -0.90068704, -0.14047156, 0.13245654, 0.50636983, 0.42433935, 0.33185211, 100.34500122, 81.89849854, 29.01000023, 0.00000000
1, 1.1401, 127, -0.18536377, -1.10083008, 0.33752441, -4.33453178, 4.94539213, 20.16055107, -24.11575508, 15.22946453, -110.49400330, 134.87359619, 20.27313614, 9.14552212, 0.38946846, -0.90076512, -0.13978823, 0.13189317, 0.53223079, 0.43627492, 0.32432878, 100.34500122, 81.89849854, 29.01000023, 0.00000000
1, 1.1451, 128, -0.19152832, -1.12322998, 0.33038330, -3.45953202, 6.52039289, 20.02055359, -24.11575508, 15.22946453, -110.49400330, 134.83879089, 20.17917824, 9.09490585, 0.38967973, -0.90086561, -0.13913199, 0.13127550, 0.53687525, 0.45785877, 0.33144489, 100.34500122, 81.89849854, 29.01000023, 0.00000000
1, 1.1501, 129, -0.17712402, -1.14184570, 0.32965088, -1.25453115, 6.83539295, 19.91555214, -23.67728615, 14.03098488, -110.72785950, 134.81567383, 20.08445740, 9.04595661, 0.38980141, -0.90100390, -0.13847251, 0.13066050, 0.52091599, 0.47576669, 0.33227485, 100.34500122, 81.89849854, 29.01000023, 0.00000000
1, 1.1250, 126, -0.05238436, -1.06278157, 0.15117852, -8.27039146, -17.93738937, 50.25474548, -13.50482273, 23.09266281, -120.92955017, 100.19863892, -7.48745680, -112.27501678, -0.39825365, 0.39177042, -0.65900797, -0.50360560, -0.07729406, 0.08661108, 0.02261593, 100.42400360, 75.27233124, 28.95999908, 0.00000000
1, 1.1300, 127, -0.03373076, -1.07544506, 0.25091520, -5.14032841, -17.66191101, 51.51840210, -13.70944118, 22.88804436, -121.04647827, 100.19121552, -7.72562790, -112.40830994, -0.39896578, 0.38981339, -0.66008270, -0.50315279, -0.10029187, 0.09960817, -0.07739609, 100.42400360, 75.27233124, 28.95999908, 0.00000000
1, 1.1350, 128, -0.06066921, -1.12301457, 0.29495347, -5.57524729, -25.37548065, 53.47826767, -13.70944118, 22.88804436, -121.04647827, 100.18769073, -7.96671677, -112.58173370, -0.39950395, 0.38762033, -0.66131186, -0.50280595, -0.07762423, 0.14765626, -0.12173196, 100.42400360, 75.27233124, 28.95999908, 0.00000000
1, 1.1951, 130, -0.16912842, -1.55889893, 0.41607666, 7.07547140, 0.57039070, 23.94055557, -24.26191139, 14.76176548, -110.61093140, 134.93466187, 19.11963081, 8.46355152, 0.38817802, -0.90365452, -0.13068058, 0.12509586, 0.49700728, 0.89010572, 0.25116464, 100.34500122, 81.89849854, 29.01000023, 0.00000000
1, 1.2001, 131, -0.11999512, -1.56732178, 0.38610840, 6.51547146, -4.67961073, 22.64555550, -24.29114342, 14.20637226, -110.90324402, 134.93385315, 19.05599785, 8.36139965, 0.38807115, -0.90386808, -0.12967278, 0.12493391, 0.44672659, 0.89826030, 0.28142679, 100.34500122, 81.89849854, 29.01000023, 0.00000000
1, 1.1400, 129, -0.10839964, -1.13700938, 0.24313872, -6.99821901, -31.11327934, 54.02560806, -13.70944118, 22.88804436, -121.04647827, 100.18275452, -8.20370388, -112.78431702, -0.39989716, 0.38526922, -0.66261387, -0.50258613, -0.03388736, 0.16229308, -0.07024454, 100.42400360, 75.27233124, 28.95999908, 0.00000000
1, 1.2051, 132, -0.08154297, -1.56842041, 0.36694336, 5.50047159, -9.99961281, 21.42055321, -24.29114342, 14.20637226, -110.90324402, 134.92304993, 19.01548576, 8.24394131, 0.38802731, -0.90402734, -0.12862861, 0.12499665, 0.40750822, 0.89907634, 0.30068308, 100.34500122, 81.89849854, 29.01000023, 0.00000000
1, 1.2101, 133, -0.04010010, -1.56677246, 0.36212158, 4.13547039, -15.00461388, 20.05555534, -24.29114342, 14.20637226, -110.90324402, 134.90103149, 18.99743843, 8.11286640, 0.38805747, -0.90412748, -0.12756082, 0.12527210, 0.36567694, 0.89711118, 0.30537623, 100.34500122, 81.89849854, 29.01000023, 0.00000000
1, 1.2151, 134, -0.00488281, -1.56115723, 0.36547852, 2.28046989, -19.41461372, 18.20055389, -24.58345413, 14.32329750, -110.64015961, 134.86665344, 19.00146294, 7.97220659, 0.38817477, -0.90416068, -0.12650155, 0.12574247, 0.33043858, 0.89112723, 0.30165958, 100.34500122, 81.89849854, 29.01000023, 0.00000000
1, 1.1450, 130, -0.15072362, -1.13606608, 0.19421406, -8.15185452, -26.87558556, 54.10624695, -14.20637226, 22.91727448, -121.33879089, 100.16896057, -8.44662380, -112.96591187, -0.40044397, 0.38297442, -0.66381371, -0.50232136, 0.00439967, 0.16199017, -0.02172135, 100.42400360, 75.27233124, 28.95999908, 0.00000000
1, 1.2201, 135, 0.04296875, -1.56414795, 0.35211182, -0.30953076, -22.77461815, 15.47055149, -24.58345413, 14.32329750, -110.64015961, 134.81848145, 19.02691841, 7.82911110, 0.38839731, -0.90411532, -0.12550710, 0.12637717, 0.28291261, 0.89367574, 0.31442267, 100.34500122, 81.89849854, 29.01000023, 0.00000000
1, 1.2251, 136, 0.09094238, -1.56872559, 0.33666992, -3.84453201, -25.53961754, 12.98555183, -24.99269104, 14.29406548, -111.48786926, 134.75218201, 19.07080269, 7.68483973, 0.38876003, -0.90397972, -0.12458313, 0.12714353, 0.23556255, 0.89772284, 0.32902488, 100.34500122, 81.89849854, 29.01000023, 0.00000000
1, 1.2301, 137, 0.16967773, -1.57568359, 0.30615234, -9.75953388, -30.71961975, 9.34554958, -24.99269104, 14.29406548, -111.48786926, 134.65419006, 19.14563560, 7.53451920, 0.38936335, -0.90369362, -0.12374744, 0.12814353, 0.15795839, 0.90388894, 0.35818630, 100.34500122, 81.89849854, 29.01000023, 0.00000000
1, 1.1950, 131, -0.41375607, -1.47315824, 0.28019360, -6.36613560, -3.69056797, 42.15756226, -16.04793930, 22.53726959, -122.59573364, 100.06771851, -10.70886612, -114.32635498, -0.40687788, 0.36341584, -0.67365599, -0.49856496, 0.22811362, 0.50509667, -0.11174512, 100.42400360, 75.27233124, 28.95999908, 0.00000000
1, 1.2000, 132, -0.32218856, -1.50494659, 0.27525288, -5.17185926, 6.07034683, 40.79766846, -16.04793930, 22.53726959, -122.59573364, 100.04340363, -10.91509914, -114.33185577, -0.40802559, 0.36225945, -0.67408264, -0.49789149, 0.13302566, 0.53748268, -0.10714887, 100.42400360, 75.27233124, 28.95999908, 0.00000000
1, 1.2050, 133, -0.19802305, -1.53685439, 0.21297945, -5.31370592, 5.71954632, 39.38902283, -16.83718109, 22.91727448, -121.89418030, 100.01845551, -11.11408615, -114.33779907, -0.40913332, 0.36113310, -0.67448801, -0.49725139, 0.00555890, 0.57007933, -0.04514566, 100.42400360, 75.27233124, 28.95999908, 0.00000000
1, 1.2100, 134, -0.14653817, -1.52216971, 0.15745696, -5.31654453, 5.67912102, 38.16127396, -16.83718109, 22.91727448, -121.89418030, 99.99332428, -11.30700302, -114.34277344, -0.41021201, 0.36004072, -0.67487270, -0.49663246, -0.04910962, 0.55605376, 0.00997636, 100.42400360, 75.27233124, 28.95999908, 0.00000000
1, 1.2150, 135, -0.06513068, -1.50891089, 0.11590068, -3.61629677, 11.94909096, 37.30761337, -16.83718109, 22.91727448, -121.89418030, 99.97029877, -11.50107479, -114.31542206, -0.41142863, 0.35913906, -0.67516625, -0.49587923, -0.13371617, 0.54344708, 0.05124903, 100.42400360, 75.27233124, 28.95999908, 0.00000000
1, 1.2200, 136, 0.00689128, -1.53526175, 0.12601495, -3.03789926, 14.11429024, 37.28175354, -16.80795097, 20.05261612, -121.83571625, 99.94787598, -11.69686127, -114.27705383, -0.41269803, 0.35829455, -0.67543113, -0.49507397, -0.20910844, 0.57038915, 0.04077780, 100.42400360, 75.27233124, 28.95999908, 0.00000000
1, 1.2250, 137, 0.06061308, -1.54858232, 0.11014448, -3.64212561, 11.11586380, 37.18292618, -16.80795097, 20.05261612, -121.83571625, 99.92533875, -11.88958549, -114.25358582, -0.41388533, 0.35737604, -0.67573345, -0.49433371, -0.26609990, 0.58434558, 0.05625548, 100.42400360, 75.27233124, 28.95999908, 0.00000000
1, 1.2300, 138, 0.12322877, -1.54969335, 0.07383276, -3.69775534, 9.89024830, 37.43483734, -16.74948883, 22.71265602, -121.77725983, 99.90376282, -12.08249569, -114.23640442, -0.41504163, 0.35642156, -0.67605859, -0.49360806, -0.33191338, 0.58613700, 0.09223506, 100.42400360, 75.27233124, 28.95999908, 0.00000000
1, 1.2351, 138, 0.25634766, -1.57061768, 0.26776123, -14.16953659, -35.79462433, 5.95054913, -24.99269104, 14.29406548, -111.48786926, 134.53170776, 19.25010681, 7.37744617, 0.39014795, -0.90328360, -0.12298373, 0.12937720, 0.07288046, 0.89786899, 0.39482266, 100.34500122, 81.89849854, 29.01000023, 0.00000000
1, 1.2401, 139, 0.34814453, -1.55889893, 0.23223877, -17.49453926, -42.58462524, 2.55554748, -25.19731140, 12.30634308, -111.22478485, 134.38781738, 19.39011955, 7.20691919, 0.39107957, -0.90275729, -0.12225656, 0.13091797, -0.01675975, 0.88508546, 0.42818436, 100.34500122, 81.89849854, 29.01000023, 0.00000000
1, 1.2951, 140, 0.53253174, -1.30773926, -0.03326416, -38.70454407, -66.10462952, -60.65447617, -26.92195320, 15.25869656, -112.10172272, 132.10372925, 23.00793457, 5.30283451, 0.40576133, -0.89084989, -0.12229407, 0.16367187, -0.14351059, 0.62480032, 0.65152967, 100.34500122, 81.89849854, 29.01000023, 0.00000000
1, 1.3001, 141, 0.54217529, -1.30310059, -0.01696777, -39.15954208, -54.51962662, -71.04948425, -26.71733475, 14.73253441, -112.77404022, 131.92315674, 23.45437813, 5.34117985, 0.40706250, -0.88938028, -0.12436916, 0.16683899, -0.14590265, 0.62039429, 0.63087010, 100.34500122, 81.89849854, 29.01000023, 0.00000000
1, 1.2800, 139, 0.44951740, -1.38390100, 0.06237205, 6.25979519, 35.63339615, 46.78988266, -17.48026848, 21.30955887, -121.19263458, 99.79584503, -14.27565098, -113.72525787, -0.42898145, 0.34786734, -0.67928654, -0.48325256, -0.69514954, 0.42852908, 0.10141686, 100.42400360, 75.27233124, 28.95999908, 0.00000000
1, 1.2850, 140, 0.42954069, -1.38800204, 0.06478656, 8.65188026, 41.12001038, 48.36240005, -17.48026848, 21.30955887, -121.19263458, 99.79808807, -14.54854012, -113.55807495, -0.43108565, 0.34746811, -0.67943037, -0.48146185, -0.67974240, 0.43377799, 0.09875730, 100.42400360, 75.27233124, 28.95999908, 0.00000000
1, 1.3051, 142, 0.55828857, -1.30847168, 0.03302002, -38.73954010, -34.28961945, -84.73448181, -26.71733475, 14.73253441, -112.77404022, 131.79747009, 23.88435173, 5.51045656, 0.40813088, -0.88797456, -0.12732925, 0.16946307, -0.15510106, 0.62655425, 0.57724613, 100.34500122, 81.89849854, 29.01000023, 0.00000000
1, 1.3101, 143, 0.58416748, -1.32763672, 0.09265137, -38.21454239, -16.85961533, -95.30448914, -26.71733475, 14.73253441, -112.77404022, 131.72021484, 24.29598236, 5.78921509, 0.40899587, -0.88663089, -0.13100286, 0.17159966, -0.17433344, 0.64696813, 0.51457441, 100.34500122, 81.89849854, 29.01000023, 0.00000000
1, 1.3151, 144, 0.63574219, -1.36383057, 0.16931152, -38.21454239, 1.62039101, -104.82449341, -26.95118332, 15.49254608, -113.27097321, 131.69078064, 24.68190765, 6.17903614, 0.40967485, -0.88535148, -0.13537166, 0.17318733, -0.21966618, 0.68484330, 0.43554747, 100.34500122, 81.89849854, 29.01000023, 0.00000000
1, 1.2900, 141, 0.41031039, -1.37017107, 0.03598416, 11.36622524, 46.27723312, 49.25697327, -17.48026848, 21.30955887, -121.19263458, 99.80324554, -14.81863880, -113.36412048, -0.43327200, 0.34725231, -0.67949748, -0.47955662, -0.66506326, 0.41719797, 0.12742901, 100.42400360, 75.27233124, 28.95999908, 0.00000000
1, 1.2950, 142, 0.41354612, -1.34288192, -0.00430755, 15.54783344, 53.82955933, 51.03120422, -18.47413063, 21.74802589, -121.25109863, 99.82221222, -15.11536789, -113.13407898, -0.43569565, 0.34716561, -0.67957377, -0.47731006, -0.67303360, 0.39128280, 0.16778666, 100.42400360, 75.27233124, 28.95999908, 0.00000000
1, 1.3000, 143, 0.42571333, -1.32460189, 0.03100412, 20.64266205, 62.33078003, 52.78138351, -18.47413063, 21.74802589, -121.25109863, 99.85437775, -15.42796993, -112.86191559, -0.43832499, 0.34729761, -0.67961234, -0.47474489, -0.69049156, 0.37442136, 0.13277891, 100.42400360, 75.27233124, 28.95999908, 0.00000000
1, 1.3201, 145, 0.68859863, -1.38867188, 0.26165771, -39.43954086, 18.91039848, -112.66449738, -26.95118332, 15.49254608, -113.27097321, 131.69996643, 25.03965759, 6.66983128, 0.41022927, -0.88411176, -0.14035816, 0.17423549, -0.26674253, 0.71167713, 0.34142873, 100.34500122, 81.89849854, 29.01000023, 0.00000000
1, 1.3251, 146, 0.75769043, -1.43914795, 0.30676270, -43.42954254, 34.24040222, -120.18949890, -26.74656487, 13.97252274, -113.53404999, 131.73126221, 25.37432289, 7.25306654, 0.41077402, -0.88284403, -0.14593540, 0.17479710, -0.33046019, 0.76431757, 0.29496512, 100.34500122, 81.89849854, 29.01000023, 0.00000000
1, 1.3301, 147, 0.86669922, -1.50457764, 0.32745361, -48.60954285, 47.29541016, -126.20951080, -26.74656487, 13.97252274, -113.53404999, 131.77323914, 25.68762589, 7.91428614, 0.41137448, -0.88151276, -0.15201275, 0.17492434, -0.43444958, 0.83194804, 0.27315241, 100.34500122, 81.89849854, 29.01000023, 0.00000000
1, 1.3050, 144, 0.47635463, -1.32845199, 0.08306335, 24.18029594, 67.20097351, 54.32462692, -18.03566170, 21.66033363, -120.81262970, 99.89643097, -15.75242424, -112.56600189, -0.44107029, 0.34754804, -0.67964447, -0.47196478, -0.74667084, 0.37977815, 0.08123234, 100.42400360, 75.27233124, 28.95999908, 0.00000000
1, 1.3100, 145, 0.50394213, -1.37916589, 0.13755089, 27.72134972, 66.22075653, 57.27067184, -18.03566170, 21.66033363, -120.81262970, 99.95662689, -16.09076881, -112.27754211, -0.44378638, 0.34775409, -0.67980242, -0.46903026, -0.78000987, 0.43213236, 0.02737248, 100.42400360, 75.27233124, 28.95999908, 0.00000000
1, 1.3150, 146, 0.47970590, -1.49375474, 0.23340599, 29.35524940, 61.62424850, 62.18782806, -18.03566170, 21.66033363, -120.81262970, 100.03120422, -16.44968033, -112.01696777, -0.44643497, 0.34774667, -0.68014663, -0.46601370, -0.76193535, 0.54846466, -0.06784531, 100.42400360, 75.27233124, 28.95999908, 0.00000000
1, 1.3200, 147, 0.47614321, -1.59070849, 0.28865993, 27.54042244, 57.43095398, 69.40183258, -18.26951218, 18.62028694, -120.63723755, 100.10323334, -16.84084892, -111.78448486, -0.44912598, 0.34739888, -0.68063444, -0.46296510, -0.76483744, 0.64739585, -0.12237255, 100.42400360, 75.27233124, 28.95999908, 0.00000000
1, 1.3250, 148, 0.53951573, -1.67155981, 0.37037590, 21.42864609, 50.91577148, 81.87303162, -18.26951218, 18.62028694, -120.63723755, 100.15634918, -17.28804970, -111.59685516, -0.45196095, 0.34642336, -0.68130380, -0.45994270, -0.83570904, 0.73047352, -0.20349944, 100.42400360, 75.27233124, 28.95999908, 0.00000000
1, 1.3351, 148, 0.97998047, -1.56243896, 0.30694580, -60.05454636, 58.42541122, -131.49450684, -26.74656487, 13.97252274, -113.53404999, 131.79055786, 25.98323059, 8.64304256, 0.41228363, -0.87998825, -0.15857394, 0.17463477, -0.54303324, 0.89177090, 0.29245359, 100.34500122, 81.89849854, 29.01000023, 0.00000000
1, 1.3401, 149, 1.02008057, -1.58666992, 0.22998047, -68.06954956, 55.87040710, -131.07450867, -25.95732307, 15.60947037, -114.20636749, 131.76661682, 26.28580856, 9.36145306, 0.41350231, -0.87826163, -0.16512661, 0.17437202, -0.57843745, 0.91757852, 0.36773694, 100.34500122, 81.89849854, 29.01000023, 0.00000000
1, 1.3950, 149, -1.09900773, -1.49362552, 0.59221798, 14.75996399, -33.91448593, 234.93669128, -23.32651329, 18.15258598, -119.46798706, 103.26755524, -29.26287270, -114.80650330, -0.49039102, 0.27660424, -0.72359908, -0.39926332, 0.61295378, 0.64099002, -0.39780986, 100.42400360, 75.27233124, 28.95999908, 0.00000000
1, 1.4000, 150, -1.18754947, -1.35479951, 0.58857697, 21.71390915, -25.94728661, 237.84226990, -23.32651329, 18.15258598, -119.46798706, 103.60872650, -30.38978004, -115.26824951, -0.49343157, 0.26911232, -0.72736478, -0.39375693, 0.68446434, 0.51272941, -0.39150196, 100.42400360, 75.27233124, 28.95999908, 0.00000000
1, 1.3551, 150, 1.02301025, -1.52075195, 0.04925537, -74.36956024, 12.08539486, -123.12950134, -25.10961723, 14.03098488, -114.93714905, 131.45574951, 27.40623283, 11.13634872, 0.41843998, -0.87202793, -0.18285480, 0.17618062, -0.56439745, 0.85512000, 0.53947580, 100.34500122, 81.89849854, 29.01000023, 0.00000000
1, 1.3601, 151, 0.93823242, -1.52337646, 0.04815674, -68.87455750, -2.71961021, -119.66448975, -24.02806091, 16.51563835, -115.49254608, 131.31307983, 27.86413765, 11.57129860, 0.42015508, -0.86977881, -0.18788427, 0.17791615, -0.47263885, 0.85900354, 0.53650266, 100.34500122, 81.89849854, 29.01000023, 0.00000000
1, 1.3651, 152, 0.79638672, -1.54656982, 0.05828857, -61.62955475, -6.53461170, -111.19449615, -24.02806091, 16.51563835, -115.49254608, 131.18743896, 28.30368614, 11.95895386, 0.42167786, -0.86767334, -0.19245997, 0.17969470, -0.32388473, 0.88362020, 0.52243149, 100.34500122, 81.89849854, 29.01000023, 0.00000000
1, 1.3701, 153, 0.49163818, -1.48974609, 0.06469727, -51.82954788, 0.46539056, -99.60948944, -24.02806091, 16.51563835, -115.49254608, 131.10713196, 28.67722893, 12.33380032, 0.42284986, -0.86587644, -0.19664367, 0.18107276, -0.01310327, 0.82827866, 0.51276493, 100.34500122, 81.89849854, 29.01000023, 0.00000000
1, 1.3751, 154, 0.30255127, -1.46899414, 0.14477539, -37.51454163, 7.01039267, -94.35948944, -23.47266769, 16.63256264, -115.58023834, 131.10493469, 29.00970459, 12.71804714, 0.42345729, -0.86442149, -0.20063233, 0.18222544, 0.18114814, 0.80946076, 0.43059263, 100.34500122, 81.89849854, 29.01000023, 0.00000000
1, 1.4050, 151, -1.27112508, -1.26593077, 0.65810138, 30.55862808, -19.01796341, 238.21028137, -24.49576187, 17.68488693, -119.20491028, 103.98900604, -31.52404213, -115.70484924, -0.49653974, 0.26188940, -0.73105681, -0.38783801, 0.75085688, 0.43487155, -0.45805699, 100.42400360, 75.27233124, 28.95999908, 0.00000000
1, 1.4100, 152, -1.32238066, -1.22035778, 0.68085921, 37.75061417, -5.73689890, 234.54452515, -24.49576187, 17.68488693, -119.20491028, 104.37694550, -32.65407181, -116.07446289, -0.49987239, 0.25513613, -0.73446077, -0.38157642, 0.78527009, 0.40075874, -0.47781897, 100.42400360, 75.27233124, 28.95999908, 0.00000000
1, 1.4150, 153, -1.34174109, -1.21607757, 0.66169059, 43.39502716, 11.51681328, 228.78483582, -24.49576187, 17.68488693, -119.20491028, 104.74716949, -33.77559662, -116.34922791, -0.50354558, 0.24895170, -0.73744029, -0.37502888, 0.78821915, 0.40821034, -0.45601827, 100.42400360, 75.27233124, 28.95999908, 0.00000000
1, 1.4200, 154, -1.34023368, -1.21735144, 0.60328329, 44.82941437, 29.69134331, 222.32952881, -25.86962891, 16.83718109, -119.38029480, 105.06996155, -34.88772202, -116.51943207, -0.50763047, 0.24327911, -0.73989874, -0.36834300, 0.77073991, 0.42135382, -0.39569587, 100.42400360, 75.27233124, 28.95999908, 0.00000000
1, 1.4250, 155, -1.28480816, -1.17216599, 0.47867593, 43.57222748, 46.80838013, 215.42764282, -25.86962891, 16.83718109, -119.38029480, 105.32926941, -35.98811722, -116.58647919, -0.51211989, 0.23805293, -0.74181193, -0.36163393, 0.69987875, 0.38810658, -0.26997221, 100.42400360, 75.27233124, 28.95999908, 0.00000000
1, 1.4300, 156, -1.23009694, -1.11308467, 0.38909289, 42.34613800, 57.98051453, 206.59596252, -26.95118332, 15.78485775, -119.20491028, 105.53880310, -37.06047058, -116.57846069, -0.51679569, 0.23323965, -0.74329507, -0.35501263, 0.63021123, 0.34071612, -0.18015590, 100.42400360, 75.27233124, 28.95999908, 0.00000000
1, 1.3801, 155, 0.15240479, -1.52752686, 0.25872803, -28.79954338, 10.23039436, -95.33948517, -23.47266769, 16.63256264, -115.58023834, 131.15748596, 29.33512306, 13.12127304, 0.42369190, -0.86312789, -0.20464435, 0.18334745, 0.33627248, 0.87048841, 0.31528670, 100.34500122, 81.89849854, 29.01000023, 0.00000000
1, 1.3851, 156, 0.03167725, -1.54614258, 0.36834717, -26.80454063, 11.80539417, -98.90949249, -23.53113174, 16.80795097, -115.84332275, 131.23291016, 29.66838837, 13.54655170, 0.42380032, -0.86183482, -0.20879997, 0.18449022, 0.46202973, 0.89195454, 0.20461813, 100.34500122, 81.89849854, 29.01000023, 0.00000000
1, 1.3901, 157, -0.08990479, -1.54663086, 0.42706299, -26.17453957, 12.54039478, -103.52948761, -23.53113174, 16.80795097, -115.84332275, 131.32498169, 30.01603889, 13.99458218, 0.42383233, -0.86049914, -0.21313344, 0.18569261, 0.58881104, 0.89555287, 0.14494006, 100.34500122, 81.89849854, 29.01000023, 0.00000000
1, 1.4350, 157, -1.14444149, -1.06426597, 0.34433904, 42.91550446, 76.90012360, 199.25808716, -26.95118332, 15.78485775, -119.20491028, 105.67559814, -38.12278748, -116.44699097, -0.52191830, 0.22894922, -0.74421781, -0.34831533, 0.52987838, 0.30342031, -0.13602756, 100.42400360, 75.27233124, 28.95999908, 0.00000000
1, 1.4400, 158, -1.08020079, -1.02821243, 0.34939712, 42.73975372, 84.59373474, 194.99208069, -26.95118332, 15.78485775, -119.20491028, 105.77652740, -39.17613983, -116.26204681, -0.52718246, 0.22488450, -0.74485630, -0.34160626, 0.45119157, 0.27877122, -0.14251943, 100.42400360, 75.27233124, 28.95999908, 0.00000000
1, 1.3951, 158, -0.20397949, -1.59844971, 0.48016357, -25.54454041, 13.24039459, -107.93949890, -23.53113174, 16.80795097, -115.84332275, 131.43379211, 30.37724304, 14.46482563, 0.42378864, -0.85911989, -0.21763539, 0.18695189, 0.70830476, 0.95077467, 0.09094967, 100.34500122, 81.89849854, 29.01000023, 0.00000000
1, 1.4001, 159, -0.32269287, -1.65844727, 0.54437256, -27.88953972, 14.64039612, -111.40449524, -21.60187149, 16.19409561, -116.72025299, 131.54463196, 30.74599457, 14.95706463, 0.42378086, -0.85765487, -0.22230698, 0.18819578, 0.83253729, 1.01432121, 0.02585319, 100.34500122, 81.89849854, 29.01000023, 0.00000000
1, 1.4950, 159, -0.53726125, -0.30414146, 0.06738701, 2.48730922, 30.58988571, 128.42434692, -31.18971062, 12.97866154, -118.21104431, 106.61836243, -49.35493469, -115.29418945, -0.57335812, 0.17918189, -0.74902493, -0.27949253, -0.21983404, -0.32221395, 0.11752696, 100.42400360, 75.27233124, 28.95999908, 0.00000000
1, 1.5000, 160, -0.41202417, -0.25213072, -0.00586337, -0.50120181, 25.15853310, 117.01106262, -31.18971062, 12.97866154, -118.21104431, 106.67156982, -49.95158005, -115.36539459, -0.57560688, 0.17566051, -0.74929249, -0.27637109, -0.35182911, -0.36614665, 0.18942592, 100.42400360, 75.27233124, 28.95999908, 0.00000000
1, 1.4801, 160, -0.30926514, -1.04168701, 0.19311523, -31.70454407, -109.22464752, -141.04949951, -20.46185303, 19.67260933, -120.54954529, 131.62527466, 41.07247543, 20.78862381, 0.43512347, -0.81428927, -0.29549488, 0.24552670, 0.96334726, 0.47650853, 0.30961233, 100.34500122, 81.89849854, 29.01000023, 0.00000000
1, 1.4851, 161, -0.36163330, -0.99786377, 0.16479492, -29.98954010, -113.03964996, -138.70449829, -20.60800934, 19.78953552, -121.68955994, 131.50823975, 41.96635818, 20.83836365, 0.43614742, -0.81069487, -0.29858878, 0.25178188, 1.02739859, 0.43936634, 0.32999977, 100.34500122, 81.89849854, 29.01000023, 0.00000000
1, 1.5050, 161, -0.27696168, -0.19593799, -0.07195604, -1.68561339, 17.58486938, 105.52376556, -32.03741455, 12.59865570, -117.83103943, 106.74447632, -50.48233414, -115.46949768, -0.57746422, 0.17238791, -0.74962980, -0.27362868, -0.49285769, -0.41500032, 0.25455171, 100.42400360, 75.27233124, 28.95999908, 0.00000000
1, 1.5100, 162, -0.17474191, -0.13852283, -0.14259365, -1.22377253, 9.18785763, 94.10104370, -32.03741455, 12.59865570, -117.83103943, 106.85105896, -50.94619751, -115.61357117, -0.57889569, 0.16939566, -0.75008398, -0.27121767, -0.60022748, -0.46577996, 0.32470763, 100.42400360, 75.27233124, 28.95999908, 0.00000000
1, 1.5150, 163, -0.08315308, -0.09858674, -0.21147698, 1.21785879, 1.75175548, 82.53581238, -32.56357574, 12.86173630, -117.86027527, 106.99607849, -51.34373856, -115.79062653, -0.57991993, 0.16675185, -0.75065821, -0.26907060, -0.69618738, -0.49979776, 0.39366737, 100.42400360, 75.27233124, 28.95999908, 0.00000000
1, 1.4901, 162, -0.37335205, -0.99938965, 0.14868164, -26.45454025, -117.79965973, -136.98950195, -20.60800934, 19.78953552, -121.68955994, 131.38682556, 42.86964035, 20.85447693, 0.43709919, -0.80708677, -0.30147386, 0.25820303, 1.05078435, 0.44777632, 0.33793196, 100.34500122, 81.89849854, 29.01000023, 0.00000000
1, 1.4951, 163, -0.33258057, -1.01690674, 0.18304443, -26.31454277, -119.02465057, -135.27450562, -20.60800934, 19.78953552, -121.68955994, 131.25489807, 43.77054977, 20.85398865, 0.43805376, -0.80343914, -0.30425456, 0.26462010, 1.02150464, 0.47228017, 0.29523408, 100.34500122, 81.89849854, 29.01000023, 0.00000000
1, 1.5001, 164, -0.34246826, -1.06359863, 0.23614502, -29.00954056, -118.11465454, -132.29949951, -21.10494041, 20.63723946, -121.95264435, 131.10115051, 44.65726089, 20.84150314, 0.43909761, -0.79973984, -0.30696067, 0.27089611, 1.04258978, 0.52588028, 0.23361468, 100.34500122, 81.89849854, 29.01000023, 0.00000000
1, 1.5200, 164, -0.02929443, -0.06549035, -0.23383974, 5.01527834, -5.89617825, 71.57921600, -32.56357574, 12.86173630, -117.86027527, 107.18908691, -51.67731094, -116.00401306, -0.58053035, 0.16447034, -0.75138259, -0.26712996, -0.75379485, -0.52772164, 0.41669914, 100.42400360, 75.27233124, 28.95999908, 0.00000000
1, 1.5250, 165, -0.01319971, -0.05623878, -0.24464391, 8.71375370, -14.23623276, 60.39705658, -32.56357574, 12.86173630, -117.86027527, 107.43343353, -51.94459534, -116.25847626, -0.58070511, 0.16254938, -0.75227457, -0.26540977, -0.77293229, -0.53249657, 0.42879391, 100.42400360, 75.27233124, 28.95999908, 0.00000000
1, 1.5300, 166, -0.00700344, -0.05799752, -0.25933903, 11.94802380, -22.53392029, 48.73109436, -32.70973206, 12.21864891, -118.24028015, 107.72532654, -52.14301300, -116.55213928, -0.58044529, 0.16099502, -0.75332671, -0.26393706, -0.78141212, -0.52697718, 0.44547948, 100.42400360, 75.27233124, 28.95999908, 0.00000000
1, 1.5350, 167, -0.00589492, -0.06124963, -0.24288411, 14.65723133, -31.40664864, 37.61894226, -32.70973206, 12.21864891, -118.24028015, 108.06600952, -52.27390671, -116.88989258, -0.57974327, 0.15977034, -0.75455308, -0.26271847, -0.78414297, -0.52073973, 0.43174043, 100.42400360, 75.27233124, 28.95999908, 0.00000000
1, 1.5400, 168, -0.05030273, -0.08777039, -0.20954871, 17.38514900, -42.41144180, 23.89692688, -33.76205826, 11.57556248, -118.62028503, 108.44327545, -52.32193756, -117.26553345, -0.57856226, 0.15893501, -0.75592631, -0.26187918, -0.74058688, -0.49208510, 0.40173447, 100.42400360, 75.27233124, 28.95999908, 0.00000000
1, 1.5051, 165, -0.32519531, -1.11126709, 0.26690674, -34.11954117, -112.96965027, -129.14949036, -21.10494041, 20.63723946, -121.95264435, 130.92816162, 45.51519012, 20.83811951, 0.44026172, -0.79599780, -0.30969757, 0.27684760, 1.03602767, 0.58022290, 0.19428253, 100.34500122, 81.89849854, 29.01000023, 0.00000000
1, 1.5101, 166, -0.33599854, -1.14538574, 0.27386475, -40.10454178, -105.44464874, -124.91450500, -21.28032684, 20.95878410, -122.77111816, 130.73747253, 46.33248138, 20.85178566, 0.44155848, -0.79224426, -0.31248680, 0.28235999, 1.05692005, 0.62067258, 0.17883344, 100.34500122, 81.89849854, 29.01000023, 0.00000000
1, 1.5151, 167, -0.38293457, -1.14056396, 0.24041748, -45.98454285, -96.34464264, -121.02948761, -21.28032684, 20.95878410, -122.77111816, 130.53791809, 47.10542679, 20.89349365, 0.44295937, -0.78850162, -0.31537327, 0.28738824, 1.11326742, 0.62182623, 0.20400774, 100.34500122, 81.89849854, 29.01000023, 0.00000000
1, 1.5600, 169, -0.17979543, -0.02984585, -0.08332349, 18.48738480, -87.76049805, -21.11840439, -34.28821945, 12.24788094, -118.38643646, 110.51388550, -51.75377274, -119.41465759, -0.56830460, 0.15816459, -0.76383948, -0.26184574, -0.60607600, -0.54948163, 0.29800019, 100.42400360, 75.27233124, 28.95999908, 0.00000000
1, 1.5650, 170, -0.19809248, -0.00485618, -0.09151574, 15.41435814, -91.98418427, -32.08118820, -34.55130005, 11.75094986, -118.26950836, 111.06177521, -51.44099426, -120.01589203, -0.56476074, 0.15855755, -0.76606917, -0.26275995, -0.58453465, -0.57615101, 0.31325865, 100.42400360, 75.27233124, 28.95999908, 0.00000000
1, 1.5201, 168, -0.43701172, -1.10986328, 0.18920898, -52.56454468, -90.39463806, -117.84450531, -21.28032684, 20.95878410, -122.77111816, 130.31660461, 47.84705734, 20.94978142, 0.44452351, -0.78471190, -0.31833225, 0.29204577, 1.17618799, 0.59675264, 0.24705347, 100.34500122, 81.89849854, 29.01000023, 0.00000000
1, 1.5700, 171, -0.22181210, 0.03076374, -0.13124986, 11.95241547, -93.33357239, -42.47978592, -34.55130005, 11.75094986, -118.26950836, 111.56729889, -51.07394028, -120.58805847, -0.56106550, 0.15919298, -0.76820588, -0.26405117, -0.55686033, -0.61416686, 0.35998058, 100.42400360, 75.27233124, 28.95999908, 0.00000000
1, 1.5750, 172, -0.23805615, 0.05896463, -0.12340906, 9.36708355, -93.69456482, -53.11134338, -34.55130005, 11.75094986, -118.26950836, 112.02767181, -50.65384674, -121.12200928, -0.55724114, 0.16011292, -0.77023166, -0.26568693, -0.53616393, -0.64558923, 0.35900262, 100.42400360, 75.27233124, 28.95999908, 0.00000000
1, 1.5800, 173, -0.22562027, 0.09685411, -0.06985056, 6.07907867, -94.82266998, -63.96254730, -34.96053696, 10.72785759, -117.97719574, 112.44261169, -50.17885971, -121.62195587, -0.55326271, 0.16129947, -0.77215278, -0.26769942, -0.54361582, -0.68754148, 0.31225792, 100.42400360, 75.27233124, 28.95999908, 0.00000000
1, 1.5251, 169, -0.47515869, -1.04791260, 0.11932373, -56.30955124, -80.52463531, -118.64949799, -21.86495209, 20.69570351, -123.99883270, 130.11965942, 48.56003571, 21.06325340, 0.44604784, -0.78092796, -0.32154325, 0.29631549, 1.22274828, 0.54039764, 0.30907869, 100.34500122, 81.89849854, 29.01000023, 0.00000000
1, 1.5850, 174, -0.20585376, 0.13516638, -0.04005964, 1.84260702, -96.80810547, -74.26128387, -34.96053696, 10.72785759, -117.97719574, 112.81303406, -49.65036774, -122.09524536, -0.54911196, 0.16270201, -0.77397954, -0.27011085, -0.55767941, -0.73063052, 0.28917426, 100.42400360, 75.27233124, 28.95999908, 0.00000000
1, 1.5900, 175, -0.20522664, 0.17021012, -0.05097027, -2.45089102, -97.11218262, -84.97488403, -35.16515732, 10.87401295, -117.74334717, 113.12956238, -49.08061981, -122.52960968, -0.54488492, 0.16429606, -0.77566212, -0.27286533, -0.55190748, -0.77107227, 0.30649921, 100.42400360, 75.27233124, 28.95999908, 0.00000000
1, 1.5950, 176, -0.22030962, 0.22020163, -0.09792006, -6.32596302, -94.45044708, -98.67269135, -35.16515732, 10.87401295, -117.74334717, 113.37081909, -48.44135284, -122.89402771, -0.54054737, 0.16634464, -0.77711362, -0.27610254, -0.52963614, -0.82725686, 0.35945076, 100.42400360, 75.27233124, 28.95999908, 0.00000000
1, 1.5501, 170, -0.38085938, -0.90173340, 0.19946289, -56.51954651, -62.84963226, -129.39451599, -21.83572006, 22.53726959, -125.81116486, 129.51612854, 52.08289719, 22.09379005, 0.45213807, -0.76175421, -0.33946851, 0.31632721, 1.16788006, 0.42592213, 0.19321121, 100.34500122, 81.89849854, 29.01000023, 0.00000000
1, 1.5551, 171, -0.34802246, -0.86785889, 0.20635986, -58.47955322, -60.18962860, -130.58450317, -21.83572006, 22.53726959, -125.81116486, 129.46159363, 52.77816010, 22.39386940, 0.45316043, -0.75781816, -0.34342080, 0.32003051, 1.14248252, 0.39907402, 0.17972943, 100.34500122, 81.89849854, 29.01000023, 0.00000000
1, 1.5601, 172, -0.33447266, -0.81671143, 0.20312500, -60.19454575, -58.08963013, -131.21450806, -22.88804436, 23.70651817, -125.92809296, 129.41720581, 53.46934509, 22.71459961, 0.45417845, -0.75383317, -0.34744355, 0.32363638, 1.13621259, 0.35505795, 0.17645426, 100.34500122, 81.89849854, 29.01000023, 0.00000000
1, 1.5651, 173, -0.32983398, -0.77703857, 0.18939209, -60.05455399, -56.16462708, -130.47949219, -22.88804436, 23.70651817, -125.92809296, 129.38638306, 54.15172577, 23.04845047, 0.45515227, -0.74985486, -0.35146242, 0.32715172, 1.13866377, 0.32259870, 0.18379718, 100.34500122, 81.89849854, 29.01000023, 0.00000000
1, 1.5701, 174, -0.33062744, -0.74157715, 0.17315674, -59.56454849, -53.81962967, -129.46450806, -22.88804436, 23.70651817, -125.92809296, 129.37258911, 54.82281876, 23.39739227, 0.45606834, -0.74590176, -0.35547197, 0.33056310, 1.14631653, 0.29440150, 0.19382714, 100.34500122, 81.89849854, 29.01000023, 0.00000000
1, 1.5751, 175, -0.31365967, -0.69097900, 0.15893555, -58.79454803, -51.85962677, -127.78449249, -22.91727448, 24.61268616, -126.71733093, 129.37286377, 55.48121262, 23.75592041, 0.45693332, -0.74198586, -0.35943925, 0.33387476, 1.13597608, 0.25110027, 0.20202750, 100.34500122, 81.89849854, 29.01000023, 0.00000000
1, 1.5801, 176, -0.32025146, -0.63891602, 0.14154053, -57.18454742, -51.19462967, -125.47449493, -22.91727448, 24.61268616, -126.71733093, 129.38150024, 56.12855530, 24.11204529, 0.45775032, -0.73811686, -0.36330643, 0.33713010, 1.14896679, 0.20631346, 0.21353486, 100.34500122, 81.89849854, 29.01000023, 0.00000000
1, 1.6000, 177, -0.24262768, 0.23811260, -0.11407549, -9.88774109, -90.50421143, -109.15409088, -35.16515732, 10.87401295, -117.74334717, 113.54189301, -47.76099396, -123.19200897, -0.53622305, 0.16870528, -0.77832401, -0.27966979, -0.49947453, -0.85227925, 0.38111365, 100.42400360, 75.27233124, 28.95999908, 0.00000000
1, 1.6050, 178, -0.30444884, 0.25314704, -0.15129729, -15.15501022, -84.13016510, -121.27348328, -34.96053696, 10.26015759, -118.12335205, 113.62147522, -47.03737259, -123.40502930, -0.53198397, 0.17142388, -0.77920085, -0.28364268, -0.42914295, -0.87524390, 0.42292488, 100.42400360, 75.27233124, 28.95999908, 0.00000000
1, 1.5851, 177, -0.33868408, -0.57568359, 0.12133789, -55.01454926, -51.05462646, -122.84949493, -23.53113174, 25.81116676, -127.79888916, 129.39665222, 56.76526642, 24.46030998, 0.45851538, -0.73430502, -0.36704525, 0.34034929, 1.17359173, 0.15033545, 0.22794816, 100.34500122, 81.89849854, 29.01000023, 0.00000000
1, 1.6501, 178, -0.38458252, -0.26202393, 0.23535156, -14.09953499, -7.12961197, -85.32949066, -23.53113174, 27.91581345, -129.40660095, 133.36804199, 62.87847519, 30.98730850, 0.45337960, -0.69989675, -0.40824816, 0.37138245, 1.27396417, -0.07092092, 0.07792997, 100.34500122, 81.89849854, 29.01000023, 0.00000000
1, 1.6551, 179, -0.42419434, -0.21032715, 0.23522949, -12.87453556, -5.34461117, -81.05948639, -23.53113174, 27.91581345, -129.40660095, 133.81491089, 63.19047165, 31.56090546, 0.45255151, -0.69810706, -0.41082385, 0.37291753, 1.31610322, -0.11659748, 0.07720771, 100.34500122, 81.89849854, 29.01000023, 0.00000000
1, 1.6550, 179, -0.38758004, 0.29299885, 0.04233142, -28.71821022, -23.20452499, -181.86625671, -32.30049515, 8.15550995, -119.67260742, 112.04970551, -38.67794037, -122.58935547, -0.49413645, 0.21351597, -0.77520770, -0.33059523, -0.24049312, -1.01390886, 0.25049114, 100.42400360, 75.27233124, 28.95999908, 0.00000000
1, 1.6600, 180, -0.40379140, 0.28524375, 0.01471328, -34.65146637, -15.93759918, -186.38462830, -32.30049515, 8.15550995, -119.67260742, 111.66039276, -37.78329468, -122.24392700, -0.49121031, 0.21881792, -0.77328932, -0.33593875, -0.21199967, -1.01705456, 0.27684224, 100.42400360, 75.27233124, 28.95999908, 0.00000000
1, 1.6650, 181, -0.43578720, 0.29637861, -0.03143155, -36.91147614, -9.06599236, -189.06636047, -31.65740967, 9.35398960, -120.16954041, 111.24323273, -36.88680267, -121.86423492, -0.48846370, 0.22424738, -0.77111095, -0.34132737, -0.16749038, -1.03906846, 0.32114276, 100.42400360, 75.27233124, 28.95999908, 0.00000000
1, 1.6700, 182, -0.46307629, 0.31126875, -0.05291532, -37.03843689, -1.91776478, -190.89233398, -31.65740967, 9.35398960, -120.16954041, 110.81066132, -35.99233246, -121.45170593, -0.48589647, 0.22982618, -0.76870537, -0.34666523, -0.12761629, -1.06479204, 0.34033820, 100.42400360, 75.27233124, 28.95999908, 0.00000000
1, 1.6750, 183, -0.47872365, 0.31515300, -0.07167887, -37.14110947, 3.43185830, -191.78001404, -31.65740967, 9.35398960, -120.16954041, 110.37130737, -35.10058594, -121.01947784, -0.48346105, 0.23549704, -0.76612014, -0.35194701, -0.09928270, -1.07935703, 0.35648316, 100.42400360, 75.27233124, 28.95999908, 0.00000000
1, 1.6601, 180, -0.46026611, -0.14978027, 0.24176025, -9.72453403, -0.61960965, -77.20948029, -23.79421234, 28.12043190, -129.69891357, 134.29631042, 63.47005844, 32.15399933, 0.45159987, -0.69651693, -0.41331926, 0.37428463, 1.35443974, -0.17134510, 0.07021688, 100.34500122, 81.89849854, 29.01000023, 0.00000000
1, 1.6651, 181, -0.46350098, -0.12866211, 0.26110840, -5.69953251, 6.69539356, -72.72947693, -23.79421234, 28.12043190, -129.69891357, 134.82962036, 63.70566177, 32.78125763, 0.45046210, -0.69519883, -0.41575241, 0.37540963, 1.35960269, -0.18685719, 0.05105724, 100.34500122, 81.89849854, 29.01000023, 0.00000000
1, 1.6701, 182, -0.40289307, -0.14312744, 0.26849365, -2.93453169, 13.73039627, -68.35447693, -23.53113174, 28.29582024, -129.87429810, 135.40560913, 63.89820480, 33.43951035, 0.44918004, -0.69412303, -0.41814163, 0.37628189, 1.30058908, -0.16704889, 0.04444489, 100.34500122, 81.89849854, 29.01000023, 0.00000000
1, 1.6751, 183, -0.30566406, -0.16046143, 0.25921631, -0.65953094, 21.04539871, -61.45946884, -23.53113174, 28.29582024, -129.87429810, 136.00308228, 64.03749084, 34.10811996, 0.44780514, -0.69333154, -0.42042467, 0.37683550, 1.20449317, -0.14480345, 0.05529612, 100.34500122, 81.89849854, 29.01000023, 0.00000000
1, 1.6801, 184, -0.25946045, -0.17846680, 0.23901367, 0.18046938, 21.78039742, -55.22946930, -23.53113174, 28.29582024, -129.87429810, 136.56990051, 64.14960480, 34.73722458, 0.44649050, -0.69267774, -0.42251667, 0.37725782, 1.15919352, -0.12234099, 0.07720450, 100.34500122, 81.89849854, 29.01000023, 0.00000000
1, 1.6851, 185, -0.23242188, -0.17346191, 0.20947266, 0.35546941, 21.04539871, -49.62947083, -23.29728127, 28.76351929, -129.72814941, 137.09489441, 64.24264526, 35.31838608, 0.44527358, -0.69211417, -0.42441961, 0.37759411, 1.13289618, -0.12333475, 0.10842169, 100.34500122, 81.89849854, 29.01000023, 0.00000000
1, 1.6800, 184, -0.46335155, 0.32515880, -0.10099333, -37.09416962, 5.54498768, -191.27458191, -30.60508537, 8.24320412, -120.54954529, 109.93876648, -34.21218491, -120.58920288, -0.48106846, 0.24116738, -0.76344055, -0.35716942, -0.10185209, -1.09979844, 0.38307631, 100.42400360, 75.27233124, 28.95999908, 0.00000000
1, 1.6850, 185, -0.44230223, 0.31042793, -0.10827951, -35.78624344, 3.76256585, -189.09037781, -30.60508537, 8.24320412, -120.54954529, 109.53321838, -33.32849121, -120.18578339, -0.47860250, 0.24674754, -0.76078731, -0.36229563, -0.11007515, -1.09520960, 0.38769594, 100.42400360, 75.27233124, 28.95999908, 0.00000000
1, 1.6900, 186, -0.42842099, 0.26657960, -0.07675513, -34.02559662, 0.10905020, -185.69464111, -29.40660667, 8.88629055, -121.04647827, 109.16327667, -32.46695709, -119.82154083, -0.47608769, 0.25209987, -0.75823653, -0.36723775, -0.11130378, -1.06108785, 0.35367388, 100.42400360, 75.27233124, 28.95999908, 0.00000000
1, 1.6901, 186, -0.17913818, -0.18914795, 0.16290283, 2.73547029, 20.45039940, -44.44946671, -23.29728127, 28.76351929, -129.72814941, 137.59172058, 64.31804657, 35.85467529, 0.44407895, -0.69167954, -0.42611325, 0.37788996, 1.08021653, -0.10400172, 0.15665950, 100.34500122, 81.89849854, 29.01000023, 0.00000000
1, 1.6951, 187, -0.09246826, -0.19921875, 0.15136719, 5.85047150, 19.33039856, -39.86446762, -23.61882401, 28.99736977, -130.13739014, 138.06372070, 64.38023376, 36.34582520, 0.44288489, -0.69136912, -0.42759371, 0.37818715, 0.99403852, -0.09056054, 0.16987824, 100.34500122, 81.89849854, 29.01000023, 0.00000000
1, 1.6950, 187, -0.42024314, 0.20118786, -0.01957844, -33.36132813, -3.91738558, -181.66293335, -29.40660667, 8.88629055, -121.04647827, 108.82178497, -31.60166359, -119.49653625, -0.47339532, 0.25732878, -0.75576037, -0.37216276, -0.10691947, -1.00504351, 0.29417765, 100.42400360, 75.27233124, 28.95999908, 0.00000000
1, 1.7000, 188, -0.43518287, 0.11980779, 0.04744172, -34.37967682, -10.04171371, -177.90513611, -29.40660667, 8.88629055, -121.04647827, 108.50514221, -30.74287224, -119.22123718, -0.47054359, 0.26229668, -0.75338811, -0.37708813, -0.07933067, -0.93272036, 0.22495337, 100.42400360, 75.27233124, 28.95999908, 0.00000000
1, 1.7401, 188, 0.21801758, -0.51763916, 0.02539063, 17.12047577, 2.60039139, 7.45554924, -22.42034531, 28.55890083, -129.72814941, 140.44076538, 64.32752228, 38.13872910, 0.43440959, -0.69401634, -0.43051478, 0.37985110, 0.68334270, 0.24179205, 0.30846274, 100.34500122, 81.89849854, 29.01000023, 0.00000000
1, 1.7451, 189, 0.22503662, -0.53521729, 0.01489258, 17.19047546, 2.67039156, 11.65555096, -22.91727448, 28.44197655, -130.02046204, 140.45101929, 64.28012085, 38.05469894, 0.43403184, -0.69460505, -0.42992729, 0.37987205, 0.67599386, 0.25903380, 0.31957227, 100.34500122, 81.89849854, 29.01000023, 0.00000000
1, 1.7501, 190, 0.27844238, -0.59350586, -0.04260254, 16.52547455, 3.26539159, 16.83555222, -22.91727448, 28.44197655, -130.02046204, 140.42068481, 64.21390533, 37.92927933, 0.43374857, -0.69528759, -0.42920476, 0.37976408, 0.62211412, 0.31657299, 0.37772384, 100.34500122, 81.89849854, 29.01000023, 0.00000000
