SensorId, TimeStamp (s), FrameNumber, AccX (g), AccY (g), AccZ (g), GyroX (deg/s), GyroY (deg/s), GyroZ (deg/s), MagX (uT), MagY (uT), MagZ (uT), EulerX (deg), EulerY (deg), EulerZ (deg), QuatW, QuatX, QuatY, QuatZ, LinAccX (g), LinAccY (g), LinAccZ (g), Pressure (kPa), Altitude (m), Temperature (degC), HeaveMotion (m)
1, -0.0000, 0, 0.36594564, -1.13716567, 0.33020014, -15.90045452, 19.90517616, -3.64606190, -9.52937698, 12.21864891, -127.30195618, 95.90190887, -16.29046059, -5.10421467, -0.66703737, 0.73012608, -0.12753184, 0.07558271, -0.64790684, 0.18206507, -0.23225276, 100.06500244, 105.41693115, 32.25000000, 0.00000000
1, 0.0700, 1, -1.13416874, -1.69276547, 0.24626787, -15.63369846, 43.41202927, 147.17955017, -15.17100239, 12.48173046, -129.28967285, 96.41248322, -21.78843689, -8.48248768, -0.66306925, 0.72079194, -0.17975606, 0.09212019, 0.76549029, 0.76845074, -0.14738503, 100.06500244, 105.41693115, 32.25000000, 0.00000000
1, 0.0750, 2, -0.97288525, -1.59944725, 0.19929077, -19.00108147, 76.81724548, 156.15074158, -15.17100239, 12.48173046, -129.28967285, 96.19796753, -22.60637474, -8.16134071, -0.66361320, 0.71869779, -0.18250410, 0.09891061, 0.59134912, 0.68006796, -0.10359806, 100.06500244, 105.41693115, 32.25000000, 0.00000000
1, 0.0800, 3, -0.77567548, -1.55768454, 0.32545504, -15.21428585, 96.35678101, 170.72935486, -15.63870239, 12.74481106, -129.28967285, 95.95796967, -23.50577927, -7.73733330, -0.66408575, 0.71646750, -0.18511312, 0.10675955, 0.37961942, 0.64364254, -0.23362161, 100.06500244, 105.41693115, 32.25000000, 0.00000000
1, 0.0850, 4, -0.61028951, -1.62073481, 0.48567122, -11.54636860, 110.98753357, 185.15742493, -15.63870239, 12.74481106, -129.28967285, 95.69797516, -24.48251724, -7.23422050, -0.66443962, 0.71410197, -0.18771522, 0.11550497, 0.19859304, 0.71268880, -0.39826071, 100.06500244, 105.41693115, 32.25000000, 0.00000000
1, 0.0900, 5, -0.55483890, -1.64620996, 0.53187990, -14.54919243, 108.50399017, 194.74075317, -15.63870239, 12.74481106, -129.28967285, 95.41916656, -25.50365639, -6.74073410, -0.66475666, 0.71151817, -0.19068581, 0.12441657, 0.12700735, 0.74501014, -0.44941843, 100.06500244, 105.41693115, 32.25000000, 0.00000000
1, 0.0950, 6, -0.54227316, -1.60754275, 0.52458572, -18.91219330, 103.21382904, 201.75073242, -16.25255775, 11.10786343, -128.90966797, 95.12061310, -26.55508423, -6.27007294, -0.66506213, 0.70870978, -0.19403264, 0.13332003, 0.09803910, 0.71381795, -0.44736648, 100.06500244, 105.41693115, 32.25000000, 0.00000000
1, 0.1000, 7, -0.55304676, -1.55352962, 0.48644879, -21.21592712, 97.65401459, 206.20433044, -16.25255775, 11.10786343, -128.90966797, 94.81661224, -27.62203789, -5.82365036, -0.66528213, 0.70578045, -0.19766666, 0.14213236, 0.09233196, 0.66779995, -0.41462451, 100.06500244, 105.41693115, 32.25000000, 0.00000000
1, 0.1050, 8, -0.56923163, -1.51652348, 0.45042282, -21.76760101, 93.92280579, 209.10185242, -16.42794418, 11.75094986, -128.26658630, 94.50436401, -28.70188141, -5.38712263, -0.66541952, 0.70274103, -0.20148829, 0.15091170, 0.09200414, 0.63921702, -0.38405794, 100.06500244, 105.41693115, 32.25000000, 0.00000000
1, 0.1100, 9, -0.57133931, -1.49023557, 0.41881558, -21.77111053, 91.77890778, 211.36425781, -16.42794418, 11.75094986, -128.26658630, 94.18577576, -29.79007149, -4.95244503, -0.66545582, 0.69962454, -0.20542099, 0.15967587, 0.07760642, 0.62176347, -0.35794786, 100.06500244, 105.41693115, 32.25000000, 0.00000000
1, 0.1150, 10, -0.54841632, -1.47490799, 0.41594547, -21.05959320, 89.26512146, 213.32830811, -16.42794418, 11.75094986, -128.26658630, 93.86535645, -30.88506317, -4.52129364, -0.66536582, 0.69645709, -0.20946068, 0.16841060, 0.03817413, 0.61563069, -0.36049995, 100.06500244, 105.41693115, 32.25000000, 0.00000000
1, 0.1800, 11, -0.48666435, -1.02391481, 0.00054282, -31.37173462, -7.40791607, 189.70338440, -22.30341911, 12.13095570, -126.36656189, 90.95365143, -44.45939636, -2.23433447, -0.65421671, 0.65467769, -0.27809468, 0.25702354, -0.21079488, 0.30739713, 0.00878315, 100.06500244, 105.41693115, 32.25000000, 0.00000000
1, 0.1850, 12, -0.50530249, -0.96998346, 0.02129328, -28.67916679, -16.02194786, 186.72970581, -22.30341911, 12.13095570, -126.36656189, 90.90608215, -45.39214325, -2.36669755, -0.65271419, 0.65175933, -0.28418687, 0.26155668, -0.20382607, 0.26491058, -0.01288880, 100.06500244, 105.41693115, 32.25000000, 0.00000000
1, 0.1900, 13, -0.55845344, -0.88263226, 0.03255324, -27.71233177, -26.29646492, 182.65184021, -22.30341911, 12.13095570, -126.36656189, 90.91872406, -46.30378342, -2.57418966, -0.65105921, 0.64899212, -0.29042634, 0.26567584, -0.16191466, 0.18899538, -0.02434318, 100.06500244, 105.41693115, 32.25000000, 0.00000000
1, 0.1950, 14, -0.57011420, -0.82957149, 0.01778768, -28.56182289, -36.53480911, 177.86181641, -23.73575020, 13.15404797, -126.77579498, 90.98661804, -47.19062805, -2.86022139, -0.64931095, 0.64633793, -0.29681259, 0.26934141, -0.16095886, 0.14729556, -0.00913647, 100.06500244, 105.41693115, 32.25000000, 0.00000000
1, 0.2000, 15, -0.55839300, -0.72736871, -0.00045557, -28.57601166, -48.79267120, 170.41918945, -23.73575020, 13.15404797, -126.77579498, 91.12818909, -48.03262329, -3.24280739, -0.64746904, 0.64389616, -0.30328333, 0.27239826, -0.18271016, 0.05610462, 0.01064703, 100.06500244, 105.41693115, 32.25000000, 0.00000000
1, 0.2050, 16, -0.52878302, -0.64199185, 0.00083374, -26.78922462, -53.81937790, 164.21258545, -25.10961723, 13.70944118, -125.78193665, 91.31803894, -48.84856033, -3.67274809, -0.64552897, 0.64159369, -0.30971864, 0.27518037, -0.22186679, -0.01854680, 0.01140935, 100.06500244, 105.41693115, 32.25000000, 0.00000000
1, 0.2100, 17, -0.49950099, -0.58069623, -0.00491332, -24.15667343, -58.27319717, 157.65838623, -25.10961723, 13.70944118, -125.78193665, 91.55863190, -49.63011169, -4.14721107, -0.64349759, 0.63947076, -0.31604737, 0.27767274, -0.26017794, -0.06935464, 0.01968691, 100.06500244, 105.41693115, 32.25000000, 0.00000000
1, 0.2150, 18, -0.47765905, -0.55035198, -0.01331414, -21.35991859, -61.73577118, 150.49475098, -25.10961723, 13.70944118, -125.78193665, 91.84664917, -50.37389374, -4.66012478, -0.64139336, 0.63753277, -0.32222334, 0.27989057, -0.29048264, -0.08955717, 0.03101912, 100.06500244, 105.41693115, 32.25000000, 0.00000000
1, 0.3100, 19, -0.29461199, -0.03503290, 0.03036554, -14.34216213, -116.95436096, -0.02272547, -33.38205338, 13.82636642, -122.47880554, 103.71495056, -56.04734039, -20.84344864, -0.60305440, 0.63032055, -0.41098014, 0.26479581, -0.53531909, -0.50752604, 0.09930965, 100.06500244, 105.41693115, 32.25000000, 0.00000000
1, 0.3150, 20, -0.29319048, -0.01617091, 0.02526721, -15.19542885, -118.63251495, -7.37776995, -34.43437576, 13.70944118, -122.42034149, 104.47768402, -55.86819839, -21.85569763, -0.60141945, 0.63141072, -0.41407561, 0.26106840, -0.53508675, -0.52694476, 0.11228508, 100.06500244, 105.41693115, 32.25000000, 0.00000000
1, 0.3200, 21, -0.32041854, -0.00733491, 0.00038305, -15.65509510, -120.45225525, -14.49583435, -34.43437576, 13.70944118, -122.42034149, 105.22779846, -55.64488602, -22.85796928, -0.59982872, 0.63262004, -0.41701710, 0.25708795, -0.50571501, -0.53683347, 0.14504001, 100.06500244, 105.41693115, 32.25000000, 0.00000000
1, 0.3250, 22, -0.34630036, -0.00187929, -0.01995578, -15.03513527, -120.41230011, -21.79362679, -34.43437576, 13.70944118, -122.42034149, 105.95461273, -55.37917709, -23.83124733, -0.59828663, 0.63395947, -0.41973752, 0.25292078, -0.47726277, -0.54387701, 0.17327902, 100.06500244, 105.41693115, 32.25000000, 0.00000000
1, 0.3300, 23, -0.37007758, 0.00320218, -0.00216035, -13.69295502, -118.28134155, -28.87551498, -34.69745636, 13.73867321, -121.77725983, 106.64582062, -55.07564163, -24.75647163, -0.59680766, 0.63542175, -0.42218000, 0.24864419, -0.45060724, -0.55111009, 0.16328874, 100.06500244, 105.41693115, 32.25000000, 0.00000000
1, 0.3350, 24, -0.38021100, 0.00307420, 0.02077184, -12.23456287, -116.94919586, -36.01297379, -34.69745636, 13.73867321, -121.77725983, 107.30615997, -54.73366928, -25.63883209, -0.59537351, 0.63702047, -0.42436227, 0.24423762, -0.43720296, -0.55363268, 0.14810827, 100.06500244, 105.41693115, 32.25000000, 0.00000000
1, 0.3400, 25, -0.39395362, -0.00702396, 0.03732239, -11.62957859, -115.78285217, -43.80950546, -35.31131363, 12.59865570, -121.80648804, 107.93011475, -54.35058594, -26.47685051, -0.59401023, 0.63874817, -0.42627913, 0.23966417, -0.41973653, -0.54670089, 0.13920522, 100.06500244, 105.41693115, 32.25000000, 0.00000000
1, 0.3450, 26, -0.40959352, -0.01947579, 0.03518351, -12.92847633, -113.12816620, -51.89685440, -35.31131363, 12.59865570, -121.80648804, 108.49701691, -53.92820358, -27.25685692, -0.59279978, 0.64054549, -0.42790318, 0.23492306, -0.39988187, -0.53795969, 0.14874819, 100.06500244, 105.41693115, 32.25000000, 0.00000000
1, 0.3500, 27, -0.41163343, -0.02318003, 0.00960348, -14.81354713, -109.05139160, -59.94284821, -35.31131363, 12.59865570, -121.80648804, 108.99456024, -53.48386765, -27.96731758, -0.59177619, 0.64232343, -0.42925328, 0.23013760, -0.39321834, -0.53842700, 0.18133742, 100.06500244, 105.41693115, 32.25000000, 0.00000000
1, 0.3550, 28, -0.39838049, -0.01623167, -0.01496558, -15.17360401, -104.64437866, -68.14058685, -35.66208649, 12.24788094, -122.24495697, 109.43035126, -52.99076080, -28.60698128, -0.59091705, 0.64424211, -0.43020177, 0.22515692, -0.40143541, -0.55011851, 0.21257205, 100.06500244, 105.41693115, 32.25000000, 0.00000000
1, 0.3850, 29, -0.55601776, 0.04180758, 0.06506614, -13.69873714, -77.25608826, -110.41043091, -35.54516220, 11.28325081, -122.06957245, 110.91468811, -49.40453720, -31.06037521, -0.58849090, 0.65756166, -0.42866969, 0.19373570, -0.20532766, -0.64782727, 0.16484182, 100.06500244, 105.41693115, 32.25000000, 0.00000000
1, 0.3900, 30, -0.53223997, 0.02076008, 0.09561224, -15.27639103, -71.72221375, -116.63793945, -35.45746994, 8.85705948, -121.95264435, 110.98399353, -48.73206711, -31.25507164, -0.58856624, 0.65993685, -0.42729795, 0.18838690, -0.22157657, -0.63473189, 0.13835122, 100.06500244, 105.41693115, 32.25000000, 0.00000000
1, 0.3950, 31, -0.48535261, -0.00357648, 0.10196152, -17.40964890, -67.24434662, -122.60313416, -35.45746994, 8.85705948, -121.95264435, 111.00293732, -48.03964615, -31.39885139, -0.58881420, 0.66230696, -0.42564154, 0.18296655, -0.26053816, -0.61867410, 0.13563684, 100.06500244, 105.41693115, 32.25000000, 0.00000000
1, 0.4000, 32, -0.44104064, -0.02013591, 0.09012794, -19.61078262, -62.95033264, -128.18627930, -35.45746994, 8.85705948, -121.95264435, 110.98149109, -47.34309006, -31.50084305, -0.58919704, 0.66462159, -0.42378315, 0.17757533, -0.29663134, -0.61060143, 0.15065330, 100.06500244, 105.41693115, 32.25000000, 0.00000000
1, 0.4050, 33, -0.40214983, -0.02544229, 0.08053970, -20.87869072, -59.15709686, -132.88186646, -35.13592529, 9.82168961, -122.71265411, 110.91829681, -46.61716843, -31.55942154, -0.58973032, 0.66697711, -0.42161608, 0.17204544, -0.32701060, -0.61404693, 0.16302371, 100.06500244, 105.41693115, 32.25000000, 0.00000000
1, 0.4100, 34, -0.37517187, -0.03131740, 0.07899798, -21.40686035, -57.56715775, -136.93835449, -35.13592529, 9.82168961, -122.71265411, 110.83698273, -45.87515259, -31.59737778, -0.59031421, 0.66935349, -0.41927654, 0.16644005, -0.34510753, -0.61722004, 0.16707911, 100.06500244, 105.41693115, 32.25000000, 0.00000000
1, 0.4150, 35, -0.36373276, -0.05331457, 0.07384720, -22.23812485, -57.02790451, -139.40362549, -35.07746124, 9.76322746, -122.21572876, 110.74486542, -45.12259674, -31.62658119, -0.59092486, 0.67172027, -0.41683891, 0.16076425, -0.34737951, -0.60437071, 0.17452323, 100.06500244, 105.41693115, 32.25000000, 0.00000000
1, 0.4200, 36, -0.36077058, -0.05355089, 0.06010412, -23.54438972, -55.85680389, -143.70555115, -35.07746124, 9.76322746, -122.21572876, 110.63405609, -44.35203934, -31.63894653, -0.59159845, 0.67409283, -0.41423571, 0.15498047, -0.34084889, -0.61340058, 0.19038242, 100.06500244, 105.41693115, 32.25000000, 0.00000000
1, 0.4250, 37, -0.38428241, -0.05597159, 0.06432520, -23.32359505, -56.85829926, -145.44979858, -35.07746124, 9.76322746, -122.21572876, 110.52706909, -43.57156754, -31.65542793, -0.59223175, 0.67647767, -0.41158623, 0.14911880, -0.30760539, -0.62031710, 0.18816090, 100.06500244, 105.41693115, 32.25000000, 0.00000000
1, 0.4300, 38, -0.42416963, -0.05829418, 0.06246685, -23.21137428, -57.62541199, -146.83656311, -34.22975540, 9.44168377, -123.06343079, 110.42279816, -42.78327179, -31.67532349, -0.59282851, 0.67886281, -0.40889537, 0.14319335, -0.25773534, -0.62728727, 0.19197327, 100.06500244, 105.41693115, 32.25000000, 0.00000000
1, 0.4800, 39, -0.86159438, -0.33756945, 0.17622650, -23.83978844, -43.18181610, -143.64505005, -33.14820099, 7.16164875, -123.67728424, 109.23976135, -34.90346527, -31.69488907, -0.59812623, 0.70081872, -0.37944204, 0.08439193, 0.28629833, -0.43509394, 0.09120943, 100.06500244, 105.41693115, 32.25000000, 0.00000000
1, 0.4850, 40, -0.88388300, -0.33656138, 0.15785311, -23.55532074, -36.82053375, -141.53411865, -33.14820099, 7.16164875, -123.67728424, 109.08097076, -34.17476654, -31.62562752, -0.59875184, 0.70265788, -0.37616497, 0.07917079, 0.31916338, -0.44369832, 0.10982138, 100.06500244, 105.41693115, 32.25000000, 0.00000000
1, 0.4900, 41, -0.90661114, -0.34634504, 0.16520610, -21.24701691, -30.03766823, -138.84301758, -32.68050385, 7.83396673, -123.47266388, 108.91759491, -33.46957016, -31.52601624, -0.59938443, 0.70446199, -0.37276918, 0.07426232, 0.35216278, -0.44125652, 0.10243284, 100.06500244, 105.41693115, 32.25000000, 0.00000000
1, 0.4950, 42, -0.90422940, -0.37982613, 0.18549268, -18.75052643, -23.99672318, -135.64620972, -32.68050385, 7.83396673, -123.47266388, 108.75415802, -32.78897858, -31.40156555, -0.60000533, 0.70623326, -0.36929080, 0.06966083, 0.35974827, -0.41480732, 0.08197023, 100.06500244, 105.41693115, 32.25000000, 0.00000000
1, 0.5000, 43, -0.88633919, -0.42506737, 0.18168272, -17.08671379, -19.64003754, -132.23358154, -32.68050385, 7.83396673, -123.47266388, 108.59456635, -32.16034317, -31.26365852, -0.60061425, 0.70786881, -0.36591384, 0.06550945, 0.35140297, -0.37610456, 0.08546533, 100.06500244, 105.41693115, 32.25000000, 0.00000000
1, 0.5050, 44, -0.85381770, -0.46756241, 0.16159891, -15.58552551, -16.41299820, -128.24993896, -32.91435242, 5.02776957, -124.32037354, 108.43759918, -31.52619362, -31.11683273, -0.60119665, 0.70953482, -0.36242980, 0.06138177, 0.32819307, -0.33980352, 0.10519195, 100.06500244, 105.41693115, 32.25000000, 0.00000000
1, 0.5100, 45, -0.82751393, -0.49407163, 0.15357620, -13.43718815, -13.58233929, -123.47777557, -32.91435242, 5.02776957, -124.32037354, 108.29071045, -30.91878891, -30.96599770, -0.60172558, 0.71115255, -0.35900190, 0.05749909, 0.31106174, -0.31928140, 0.11288345, 100.06500244, 105.41693115, 32.25000000, 0.00000000
1, 0.5150, 46, -0.82723945, -0.51433706, 0.18664512, -10.95391750, -11.87438774, -118.24589539, -32.30049515, 6.54779291, -123.96959686, 108.15895081, -30.33856392, -30.81780052, -0.60217404, 0.71272933, -0.35567439, 0.05384433, 0.31950450, -0.30468544, 0.07948872, 100.06500244, 105.41693115, 32.25000000, 0.00000000
1, 0.5200, 47, -0.86131871, -0.53451741, 0.21381515, -8.69320107, -12.26719475, -112.64063263, -32.30049515, 6.54779291, -123.96959686, 108.04710388, -29.78409767, -30.68406487, -0.60251695, 0.71426147, -0.35251671, 0.05035865, 0.36197639, -0.28977853, 0.05205859, 100.06500244, 105.41693115, 32.25000000, 0.00000000
1, 0.5250, 48, -0.90903467, -0.58413625, 0.23103154, -7.16945076, -13.15419674, -105.56557465, -32.30049515, 6.54779291, -123.96959686, 107.95347595, -29.26171494, -30.56953239, -0.60276902, 0.71571064, -0.34959096, 0.04705417, 0.41771895, -0.24501869, 0.03464662, 100.06500244, 105.41693115, 32.25000000, 0.00000000
1, 0.5500, 49, -0.93409312, -0.68525863, 0.25638670, -3.45164752, -19.34819221, -73.79295349, -32.27126694, 6.63548660, -124.52499390, 107.67965698, -27.09528351, -30.33256912, -0.60312843, 0.72140670, -0.33875409, 0.03246924, 0.47680598, -0.16277066, 0.01041908, 100.06500244, 105.41693115, 32.25000000, 0.00000000
1, 0.5550, 50, -0.93243861, -0.69509327, 0.27872333, -3.16488838, -18.23015976, -67.98634338, -31.92049026, 5.93393755, -123.58959198, 107.65500641, -26.74373436, -30.31493759, -0.60305566, 0.72234589, -0.33710110, 0.03005433, 0.48039800, -0.15565479, -0.01144978, 100.06500244, 105.41693115, 32.25000000, 0.00000000
1, 0.5600, 51, -0.92291600, -0.68654788, 0.26416057, -3.63950539, -16.05867195, -62.81092834, -31.92049026, 5.93393755, -123.58959198, 107.62696075, -26.42012978, -30.29469299, -0.60301745, 0.72318769, -0.33555150, 0.02783718, 0.47606778, -0.16677172, 0.00353373, 100.06500244, 105.41693115, 32.25000000, 0.00000000
1, 0.5650, 52, -0.90621030, -0.66899002, 0.25200021, -3.03701329, -11.88158321, -58.09214783, -31.74510384, 6.78164291, -124.26190948, 107.59588623, -26.12530518, -30.26038170, -0.60301089, 0.72396624, -0.33403713, 0.02588487, 0.46411651, -0.18668461, 0.01601684, 100.06500244, 105.41693115, 32.25000000, 0.00000000
1, 0.5700, 53, -0.88272822, -0.65043247, 0.25885084, -1.79617488, -7.65314198, -53.83594513, -31.74510384, 6.78164291, -124.26190948, 107.56459045, -25.85708618, -30.21101570, -0.60301816, 0.72470653, -0.33254200, 0.02419607, 0.44492391, -0.20740902, 0.00942429, 100.06500244, 105.41693115, 32.25000000, 0.00000000
1, 0.5750, 54, -0.84994227, -0.63406527, 0.26240790, -0.65826076, -3.83334732, -50.00880051, -31.74510384, 6.78164291, -124.26190948, 107.53334045, -25.61281586, -30.14805984, -0.60303742, 0.72541386, -0.33106399, 0.02274525, 0.41605976, -0.22574180, 0.00608002, 100.05800629, 106.00524902, 32.27999878, 0.00000000
1, 0.5800, 55, -1.04377985, -0.50648201, 0.27000803, 0.04518804, -2.19083214, -45.59708023, -31.51125336, 6.86933661, -123.73574829, 107.50542450, -25.39201927, -30.08399773, -0.60305083, 0.72607148, -0.32967991, 0.02147287, 0.61345202, -0.35510823, -0.00172408, 100.05800629, 106.00524902, 32.27999878, 0.00000000
1, 0.5850, 56, -1.34678125, -0.37136915, 0.46442580, 8.37933445, -5.64611816, -30.60793877, -31.51125336, 6.86933661, -123.73574829, 107.53797913, -25.23744583, -30.06305313, -0.60273403, 0.72673506, -0.32885164, 0.02060610, 0.91864121, -0.49165970, -0.19601455, 100.05800629, 106.00524902, 32.27999878, 0.00000000
1, 0.5900, 57, -1.60063708, -0.60496438, 0.85706669, 25.75928497, -26.21435356, 4.15337944, -31.39432907, 6.19701815, -123.06343079, 107.72862244, -25.21745872, -30.20805168, -0.60153627, 0.72737592, -0.32964858, 0.02025340, 1.17252159, -0.25850648, -0.58746910, 100.05800629, 106.00524902, 32.27999878, 0.00000000
1, 0.5950, 58, -2.08438921, -1.25628662, 1.05667484, 68.16650391, -30.97036934, 39.25341415, -31.39432907, 6.19701815, -123.06343079, 108.16786194, -25.35601616, -30.43735886, -0.59888667, 0.72862691, -0.33163956, 0.02128141, 1.65418518, 0.39504373, -0.78386313, 100.05800629, 106.00524902, 32.27999878, 0.00000000
1, 0.6300, 59, 0.29739827, -0.97920871, -0.48226717, -18.41246414, 153.49461365, 6.82588100, -32.00818253, 6.89856768, -121.80648804, 107.45538330, -27.11229706, -28.16236305, -0.60383672, 0.72646409, -0.32519296, 0.04336685, -0.75091839, 0.13089941, 0.75021374, 100.05800629, 106.00524902, 32.27999878, 0.00000000
1, 0.6350, 60, 0.49537039, -0.97647202, -0.10994492, -3.34856153, 148.61518860, 5.08067894, -32.00818253, 6.89856768, -121.80648804, 107.07714844, -27.35595322, -27.37232971, -0.60602951, 0.72601104, -0.32142994, 0.04815699, -0.95370531, 0.12759745, 0.37184635, 100.05800629, 106.00524902, 32.27999878, 0.00000000
1, 0.6400, 61, 0.47411165, -1.08737433, 0.15509076, 1.34831464, 131.00930786, 5.96827984, -31.24817276, 6.51856184, -122.77111816, 106.76253510, -27.57412910, -26.67542076, -0.60780191, 0.72567916, -0.31813955, 0.05247779, -0.93655509, 0.23830542, 0.10124752, 100.05800629, 106.00524902, 32.27999878, 0.00000000
1, 0.6450, 62, 0.20678137, -1.15770745, 0.16107935, -12.02165985, 67.41979980, 12.22911549, -31.24817276, 6.51856184, -122.77111816, 106.54247284, -27.72897530, -26.33037376, -0.60908687, 0.72503483, -0.31676182, 0.05476885, -0.67189574, 0.30885291, 0.09040208, 100.05800629, 106.00524902, 32.27999878, 0.00000000
1, 0.6500, 63, -0.00167360, -1.14229572, 0.12428779, -16.31903076, 27.80118179, 21.50462723, -30.98509216, 6.05086231, -123.38497162, 106.37908173, -27.81037331, -26.20053673, -0.61008382, 0.72429758, -0.31639037, 0.05556925, -0.46511737, 0.29363567, 0.12388210, 100.05800629, 106.00524902, 32.27999878, 0.00000000
1, 0.6550, 64, -0.16492662, -1.05249178, 0.18814036, -16.35064697, -11.67083073, 30.55406761, -30.98509216, 6.05086231, -123.38497162, 106.35003662, -27.94088745, -26.31239128, -0.61036253, 0.72346914, -0.31770635, 0.05579242, -0.30361843, 0.20423113, 0.05849653, 100.05800629, 106.00524902, 32.27999878, 0.00000000
1, 0.6600, 65, -0.34638187, -0.92551708, 0.23547639, -16.41899872, -43.07590866, 35.80030823, -30.98509216, 6.05086231, -123.38497162, 106.40503693, -28.05251694, -26.60344124, -0.61019206, 0.72263891, -0.32002434, 0.05516443, -0.12407912, 0.07825723, 0.01120073, 100.05800629, 106.00524902, 32.27999878, 0.00000000
1, 0.6650, 66, -0.53043491, -0.81503701, 0.20401023, -18.71434784, -56.22568512, 35.72640991, -31.16047859, 6.95702982, -122.71265411, 106.48284149, -28.14500427, -26.96632957, -0.60990590, 0.72177416, -0.32269403, 0.05408796, 0.05855854, -0.03107792, 0.04328157, 100.05800629, 106.00524902, 32.27999878, 0.00000000
1, 0.6700, 67, -0.67695826, -0.71500719, 0.17865250, -20.98613358, -54.42262650, 32.32813644, -31.16047859, 6.95702982, -122.71265411, 106.54269409, -28.22338676, -27.31438255, -0.60971957, 0.72088593, -0.32521150, 0.05294511, 0.20388776, -0.13013180, 0.06922355, 100.05800629, 106.00524902, 32.27999878, 0.00000000
1, 0.6750, 68, -0.76212066, -0.58429539, 0.19488592, -22.79204369, -44.39688873, 27.54258156, -32.30049515, 7.04472351, -122.85881042, 106.56451416, -28.29281425, -27.60044289, -0.60973918, 0.71998900, -0.32731313, 0.05196358, 0.28791374, -0.26016492, 0.05329836, 100.05800629, 106.00524902, 32.27999878, 0.00000000
1, 0.7100, 69, -1.20520890, -0.49542555, 0.13954754, -7.51062584, -32.68825150, 9.47010326, -32.73896408, 7.22011089, -123.20958710, 106.69841766, -28.57924652, -29.08195877, -0.60965663, 0.71557003, -0.33781865, 0.04644336, 0.72647250, -0.34597379, 0.10879995, 100.05800629, 106.00524902, 32.27999878, 0.00000000
1, 0.7150, 70, -1.23178446, -0.91666627, -0.01583377, -15.51139164, -27.47832489, 7.20742607, -32.56357574, 7.71704149, -123.79421234, 106.69831848, -28.57468605, -29.24366951, -0.60972011, 0.71510547, -0.33880788, 0.04555124, 0.75349516, 0.07555684, 0.26366246, 100.05800629, 106.00524902, 32.27999878, 0.00000000
1, 0.7200, 71, -1.21565819, -1.41460836, -0.18994445, -22.94770622, -15.90019608, 5.40482235, -32.56357574, 7.71704149, -123.79421234, 106.62937164, -28.57817650, -29.33930206, -0.61018944, 0.71444517, -0.33944711, 0.04486222, 0.73779273, 0.57355934, 0.43623501, 100.05800629, 106.00524902, 32.27999878, 0.00000000
1, 0.7250, 72, -1.05927610, -1.94101691, -0.19493125, -21.46616936, 7.72253180, 1.28708065, -33.41128159, 8.09704781, -123.56036377, 106.50292969, -28.59553528, -29.29931641, -0.61096996, 0.71383870, -0.33932471, 0.04482032, 0.58119750, 1.09959590, 0.43904585, 100.05800629, 106.00524902, 32.27999878, 0.00000000
1, 0.7300, 73, -0.59599435, -2.17804694, 0.09650356, -11.47802925, 35.10992813, -10.10501766, -33.41128159, 8.09704781, -123.56036377, 106.34584045, -28.59652710, -29.09129524, -0.61186689, 0.71361250, -0.33809540, 0.04547272, 0.11707430, 1.33555245, 0.14613378, 100.05800629, 106.00524902, 32.27999878, 0.00000000
1, 0.7350, 74, -0.04754587, -1.98161292, 0.54610211, -7.92714357, 39.18161392, -20.35850906, -33.41128159, 8.09704781, -123.56036377, 106.18801880, -28.55344009, -28.84478951, -0.61273229, 0.71362120, -0.33643022, 0.04602919, -0.43200946, 1.13744497, -0.30404875, 100.05800629, 106.00524902, 32.27999878, 0.00000000
1, 0.7400, 75, 0.17645040, -1.53217804, 0.86516249, -16.25780106, 13.14727688, -21.29363060, -32.97281647, 7.57088566, -124.20344543, 106.05618286, -28.46947098, -28.73949623, -0.61347502, 0.71347040, -0.33544976, 0.04562931, -0.65564549, 0.68629110, -0.62369728, 100.05800629, 106.00524902, 32.27999878, 0.00000000
1, 0.7450, 76, -0.00793969, -1.05041647, 0.68997401, -23.13642883, -16.57139397, -14.72872734, -32.97281647, 7.57088566, -124.20344543, 105.97255707, -28.37622261, -28.80721664, -0.61398202, 0.71309668, -0.33548397, 0.04438157, -0.46938938, 0.20366134, -0.44939691, 100.05800629, 106.00524902, 32.27999878, 0.00000000
1, 0.7500, 77, -0.55714017, -0.71333146, 0.34904811, -17.89671707, -33.30259705, -6.50128126, -32.50511551, 8.21397209, -123.96959686, 105.98336792, -28.33845520, -28.98840141, -0.61396742, 0.71273386, -0.33643690, 0.04318328, 0.08162241, -0.13345242, -0.10944647, 100.05800629, 106.00524902, 32.27999878, 0.00000000
1, 0.7550, 78, -0.77629262, -0.68746722, 0.17509095, -12.91446781, -41.81595230, -4.10365725, -32.50511551, 8.21397209, -123.96959686, 106.02403259, -28.26158142, -29.21046066, -0.61376166, 0.71252388, -0.33745679, 0.04158564, 0.30202922, -0.15929094, 0.06471048, 100.05800629, 106.00524902, 32.27999878, 0.00000000
1, 0.8000, 79, -0.48724633, -0.90630424, 0.25831145, -5.59834909, -28.26445198, -26.37728691, -33.46974564, 7.86319780, -123.70652008, 106.06233215, -27.24678421, -30.03997421, -0.61326283, 0.71324652, -0.33803955, 0.03029094, 0.02815511, 0.05182185, -0.01521466, 100.05800629, 106.00524902, 32.27999878, 0.00000000
1, 0.8050, 80, -0.63396180, -0.92532432, 0.24183491, -4.69888449, -31.99057007, -26.09197617, -33.46974564, 7.86319780, -123.70652008, 106.09897614, -27.07738304, -30.17243576, -0.61297202, 0.71354407, -0.33809248, 0.02852726, 0.17750472, 0.06973203, 0.00173497, 100.05800629, 106.00524902, 32.27999878, 0.00000000
1, 0.8100, 81, -0.65200120, -0.93474066, 0.20933020, -4.31910658, -31.10936165, -26.39127350, -33.46974564, 7.86319780, -123.70652008, 106.13464355, -26.90765953, -30.29934692, -0.61268079, 0.71385282, -0.33811072, 0.02678839, 0.19825907, 0.07807255, 0.03511536, 100.05800629, 106.00524902, 32.27999878, 0.00000000
1, 0.8150, 82, -0.63525385, -0.89180779, 0.12477676, -5.90547991, -26.79644966, -28.16110039, -33.41128159, 8.82782841, -123.18035889, 106.15021515, -26.73537254, -30.40003777, -0.61250281, 0.71413803, -0.33795950, 0.02511285, 0.18439299, 0.03406946, 0.12046991, 100.05800629, 106.00524902, 32.27999878, 0.00000000
1, 0.8200, 83, -0.62158495, -0.83481300, 0.08716501, -5.97280073, -21.47631645, -29.26026154, -33.41128159, 8.82782841, -123.18035889, 106.15147400, -26.56515694, -30.47024918, -0.61240500, 0.71442986, -0.33763078, 0.02357233, 0.17349139, -0.02413736, 0.15864311, 100.05800629, 106.00524902, 32.27999878, 0.00000000
1, 0.8250, 84, -0.61090398, -0.82258236, 0.13542221, -3.15285492, -13.50809765, -29.35159492, -33.20666504, 8.91552162, -123.26805115, 106.14748383, -26.40547943, -30.49743271, -0.61233532, 0.71478885, -0.33708197, 0.02231870, 0.16522942, -0.03767888, 0.11073533, 100.05800629, 106.00524902, 32.27999878, 0.00000000
1, 0.8300, 85, -0.56673980, -0.85925734, 0.22166038, 0.59719795, -8.88028145, -29.25397682, -33.20666504, 8.91552162, -123.26805115, 106.15119934, -26.25261497, -30.49988937, -0.61221558, 0.71524107, -0.33640760, 0.02126667, 0.12325577, -0.00228528, 0.02489598, 100.05800629, 106.00524902, 32.27999878, 0.00000000
1, 0.8350, 86, -0.50395787, -0.90209460, 0.27752423, 1.54579782, -10.95140171, -29.70099258, -33.20666504, 8.91552162, -123.26805115, 106.16420746, -26.09474754, -30.51273727, -0.61203521, 0.71572554, -0.33577338, 0.02015188, 0.06277795, 0.03935370, -0.03037924, 100.05800629, 106.00524902, 32.27999878, 0.00000000
1, 0.8950, 87, -0.52370661, -0.87677610, 0.22840035, 3.15372920, -19.52839088, -39.00440979, -32.76819611, 8.06781673, -123.41420746, 106.45242310, -23.85919380, -30.88532639, -0.60867000, 0.72246057, -0.32796082, 0.00363371, 0.11778363, -0.00036899, 0.02763902, 100.05800629, 106.00524902, 32.27999878, 0.00000000
1, 0.9000, 88, -0.54869342, -0.87237740, 0.22413537, 4.86625767, -17.13336182, -39.49490738, -32.68050385, 7.77550411, -123.29727936, 106.48249817, -23.66737938, -30.91212845, -0.60833031, 0.72307104, -0.32725766, 0.00225765, 0.14603066, -0.00598950, 0.03275200, 100.05800629, 106.00524902, 32.27999878, 0.00000000
1, 0.9050, 89, -0.53470051, -0.88587272, 0.21792960, 6.20379686, -13.04504204, -39.55469513, -32.68050385, 7.77550411, -123.29727936, 106.51594543, -23.45916748, -30.91942978, -0.60795331, 0.72379780, -0.32635671, 0.00088145, 0.13522938, 0.00632709, 0.03984466, 100.05800629, 106.00524902, 32.27999878, 0.00000000
1, 0.9100, 90, -0.50562102, -0.89716280, 0.21013837, 6.46537066, -11.22327518, -39.90017700, -32.18357086, 8.21397209, -123.85267639, 106.54663086, -23.25187683, -30.91655731, -0.60759205, 0.72453403, -0.32539549, -0.00044276, 0.10948670, 0.01639661, 0.04858191, 100.05800629, 106.00524902, 32.27999878, 0.00000000
1, 0.9150, 91, -0.48966503, -0.87885714, 0.20674273, 5.36867476, -11.87694454, -40.63788986, -32.18357086, 8.21397209, -123.85267639, 106.57267761, -23.04011917, -30.91583061, -0.60725415, 0.72524911, -0.32442710, -0.00182274, 0.09691550, -0.00316540, 0.05287969, 100.05800629, 106.00524902, 32.27999878, 0.00000000
1, 0.9200, 92, -0.49938628, -0.85530424, 0.21853998, 4.58932066, -12.31724262, -41.44466782, -32.18357086, 8.21397209, -123.85267639, 106.59522247, -22.82389450, -30.91608620, -0.60693240, 0.72595221, -0.32344398, -0.00324906, 0.11006896, -0.02803896, 0.04187153, 100.05800629, 106.00524902, 32.27999878, 0.00000000
1, 0.9250, 93, -0.50983649, -0.86561298, 0.24746774, 5.83291721, -6.25379276, -41.10565567, -32.06664658, 6.13855600, -123.73574829, 106.61196136, -22.61788368, -30.88524246, -0.60665482, 0.72668201, -0.32230943, -0.00445710, 0.12381078, -0.01904679, 0.01358667, 100.05800629, 106.00524902, 32.27999878, 0.00000000
1, 0.9300, 94, -0.48189512, -0.89962637, 0.25356632, 6.65732050, -3.90566015, -41.41070557, -32.06664658, 6.13855600, -123.73574829, 106.62806702, -22.41374779, -30.84173012, -0.60638201, 0.72743607, -0.32110202, -0.00558734, 0.09914336, 0.01372145, 0.00814320, 100.05800629, 106.00524902, 32.27999878, 0.00000000
1, 0.9350, 95, -0.45339653, -0.90765822, 0.23666888, 5.11066198, -5.54309797, -41.95582962, -31.54048538, 7.30780458, -123.23881531, 106.63948059, -22.20469856, -30.80587196, -0.60613322, 0.72815371, -0.31991929, -0.00680551, 0.07403535, 0.02052124, 0.02569332, 100.05800629, 106.00524902, 32.27999878, 0.00000000
1, 0.9400, 96, -0.46873045, -0.87817681, 0.21525238, 2.92303133, -7.21103525, -42.91414642, -31.54048538, 7.30780458, -123.23881531, 106.64279938, -21.98870468, -30.77721214, -0.60592818, 0.72882384, -0.31874886, -0.00813237, 0.09288973, -0.01025223, 0.04760814, 100.05800629, 106.00524902, 32.27999878, 0.00000000
1, 0.9650, 97, -0.50322342, -0.93624830, 0.26287383, 0.71913475, 3.52635765, -47.01168442, -30.92663002, 7.92166042, -123.50189972, 106.58019257, -20.96901894, -30.35177612, -0.60547483, 0.73232204, -0.31134182, -0.01307914, 0.14379711, 0.04123724, 0.00082523, 100.05800629, 106.00524902, 32.27999878, 0.00000000
1, 0.9700, 98, -0.52278721, -0.87525272, 0.26548263, 1.00401247, 6.10695171, -48.49609756, -30.92663002, 7.92166042, -123.50189972, 106.54725647, -20.74513245, -30.24687767, -0.60549939, 0.73300606, -0.30963239, -0.01415607, 0.16699699, -0.02124865, -0.00184617, 100.05800629, 106.00524902, 32.27999878, 0.00000000
1, 0.9750, 99, -0.52602243, -0.82997108, 0.29360428, 2.94851995, 9.86674786, -49.16733170, -30.63431740, 8.18474102, -123.44343567, 106.51736450, -20.52327347, -30.12196732, -0.60550940, 0.73374957, -0.30780154, -0.01510443, 0.17379364, -0.06803329, -0.02999052, 100.05800629, 106.00524902, 32.27999878, 0.00000000
1, 0.9800, 100, -0.48620361, -0.86748838, 0.31866866, 5.17281723, 13.94986057, -50.14989090, -30.63431740, 8.18474102, -123.44343567, 106.49134064, -20.30238152, -29.97496414, -0.60549939, 0.73456424, -0.30583093, -0.01591852, 0.13752291, -0.03197374, -0.05505449, 100.05800629, 106.00524902, 32.27999878, 0.00000000
1, 0.9850, 101, -0.46531326, -0.89888895, 0.31931439, 3.55670357, 12.07813835, -51.12033844, -29.96199989, 8.30166626, -123.32650757, 106.46065521, -20.07414818, -29.83640480, -0.60551250, 0.73534375, -0.30387622, -0.01683959, 0.12033583, -0.00202053, -0.05577179, 100.05800629, 106.00524902, 32.27999878, 0.00000000
1, 0.9900, 102, -0.46578366, -0.91113949, 0.29343843, 1.82929611, 10.58835888, -52.08026505, -29.96199989, 8.30166626, -123.32650757, 106.42410278, -19.83915520, -29.70437241, -0.60555720, 0.73608524, -0.30192742, -0.01785658, 0.12469945, 0.00877068, -0.03007779, 100.05800629, 106.00524902, 32.27999878, 0.00000000
1, 0.9950, 103, -0.48242572, -0.89565217, 0.22290923, 1.73336256, 12.67375469, -51.92417908, -29.96199989, 8.30166626, -123.32650757, 106.38417053, -19.60775375, -29.56229782, -0.60562944, 0.73681986, -0.29992667, -0.01880371, 0.14535177, -0.00810480, 0.04021151, 100.05800629, 106.00524902, 32.27999878, 0.00000000
1, 1.0000, 104, -0.42383695, -0.87742686, 0.07892624, 7.26668215, 0.05883329, -48.22924805, -29.11429405, 8.24320412, -123.50189972, 106.39679718, -19.39085579, -29.49061966, -0.60536540, 0.73760664, -0.29845241, -0.01988527, 0.09082489, -0.02739594, 0.18460481, 100.05800629, 106.00524902, 32.27999878, 0.00000000
1, 1.0050, 105, -0.60969657, -1.01083767, 0.23969702, 6.24378633, 46.06492996, -49.74856949, -29.11429405, 8.24320412, -123.50189972, 106.32560730, -19.21654510, -29.18247223, -0.60572094, 0.73845428, -0.29563776, -0.01964150, 0.27926707, 0.10459699, 0.02294273, 100.05800629, 106.00524902, 32.27999878, 0.00000000
1, 1.0100, 106, -0.47334176, -0.98429883, 0.35318604, 0.11015382, 69.46858978, -56.19319153, -28.38351250, 7.74627304, -123.44343567, 106.18257904, -19.04337502, -28.74656487, -0.60656416, 0.73923355, -0.29198763, -0.01889437, 0.14543006, 0.07632542, -0.09198748, 100.05800629, 106.00524902, 32.27999878, 0.00000000
1, 1.0550, 107, -0.27823189, -0.94658625, 0.23926888, -2.56483293, 15.39793682, -50.85812378, -26.24963379, 8.03858471, -123.73574829, 105.67372894, -17.01642799, -27.05565643, -0.60844356, 0.74537575, -0.27125743, -0.02511744, -0.01594324, 0.02587057, 0.01698315, 100.05800629, 106.00524902, 32.27999878, 0.00000000
1, 1.0600, 108, -0.29702148, -0.90417409, 0.18507394, -2.29465461, 25.36675644, -51.04457474, -26.10347748, 8.30166626, -123.58959198, 105.60369873, -16.80454826, -26.85645866, -0.60876358, 0.74594164, -0.26892138, -0.02567984, 0.00658167, -0.01781159, 0.07042260, 100.05800629, 106.00524902, 32.27999878, 0.00000000
1, 1.0650, 109, -0.26777819, -0.87812507, 0.18640454, 0.57545477, 38.06659698, -50.88357162, -26.10347748, 8.30166626, -123.58959198, 105.53054047, -16.61012268, -26.59407234, -0.60913509, 0.74659115, -0.26625374, -0.02579146, -0.01934075, -0.04515543, 0.06829794, 100.05800629, 106.00524902, 32.27999878, 0.00000000
1, 1.0700, 110, -0.21147719, -0.88481867, 0.25509399, 3.19449043, 45.20978928, -50.04560089, -26.10347748, 8.30166626, -123.58959198, 105.46153259, -16.42887688, -26.29742622, -0.60950029, 0.74730259, -0.26342359, -0.02561792, -0.07273629, -0.03977028, -0.00114903, 100.05800629, 106.00524902, 32.27999878, 0.00000000
1, 1.0750, 111, -0.15557164, -0.89899385, 0.31154811, 3.66445899, 44.80681992, -49.04467773, -25.10961723, 8.65244102, -123.47266388, 105.39689636, -16.25159454, -26.00468636, -0.60984135, 0.74800837, -0.26063517, -0.02542521, -0.12580618, -0.02682445, -0.05831587, 100.05800629, 106.00524902, 32.27999878, 0.00000000
1, 1.0800, 112, -0.12561639, -0.90271699, 0.31520259, 3.18234897, 37.84643936, -48.01266479, -25.10961723, 8.65244102, -123.47266388, 105.34096527, -16.06982422, -25.74876785, -0.61011547, 0.74867588, -0.25806332, -0.02543710, -0.15274823, -0.02421403, -0.06261320, 100.05800629, 106.00524902, 32.27999878, 0.00000000
1, 1.0850, 113, -0.14831656, -0.89479613, 0.30468225, 2.32946634, 29.30366325, -46.48788071, -23.99883080, 8.82782841, -123.09265900, 105.29406738, -15.88398457, -25.53821182, -0.61031890, 0.74928910, -0.25576654, -0.02569635, -0.12691253, -0.03319525, -0.05268972, 100.05800629, 106.00524902, 32.27999878, 0.00000000
1, 1.0900, 114, -0.16039678, -0.88626814, 0.29383513, 1.45467389, 25.43642998, -45.30704117, -23.99883080, 8.82782841, -123.09265900, 105.24926758, -15.69864750, -25.34900856, -0.61050576, 0.74985731, -0.25360927, -0.02605979, -0.11169375, -0.04275607, -0.04235516, 100.05800629, 106.00524902, 32.27999878, 0.00000000
1, 1.0950, 115, -0.15364257, -0.86915636, 0.26104504, 1.48274326, 23.45043755, -43.81243896, -23.99883080, 8.82782841, -123.09265900, 105.20855713, -15.51776981, -25.17210388, -0.61066818, 0.75040412, -0.25155264, -0.02644786, -0.11530165, -0.06082890, -0.00997809, 100.05800629, 106.00524902, 32.27999878, 0.00000000
1, 1.1000, 116, -0.15069696, -0.87723744, 0.24745043, 2.19778299, 23.48968887, -42.27831268, -23.91113663, 8.41859055, -123.26805115, 105.17367554, -15.32918167, -24.99759102, -0.61078680, 0.75098610, -0.24947235, -0.02688774, -0.11513466, -0.05370725, 0.00324745, 100.05800629, 106.00524902, 32.27999878, 0.00000000
1, 1.1300, 117, -0.07753689, -0.95281923, 0.20391910, 1.12310565, 37.39242172, -35.55375290, -23.12189484, 6.46009922, -123.00496674, 104.90855408, -14.42640305, -23.80252457, -0.61210674, 0.75390422, -0.23708740, -0.02726439, -0.17262167, 0.01680209, 0.04367748, 100.05800629, 106.00524902, 32.27999878, 0.00000000
1, 1.1350, 118, -0.01617962, -0.95969164, 0.24270120, 0.56658143, 36.87896347, -33.21040726, -22.65419388, 9.35398960, -123.79421234, 104.85444641, -14.31290245, -23.57472420, -0.61243069, 0.75430346, -0.23500937, -0.02693662, -0.23211521, 0.02288947, 0.00428227, 100.05800629, 106.00524902, 32.27999878, 0.00000000
1, 1.1400, 119, 0.05115509, -0.96197176, 0.30725020, -0.33259061, 35.28324890, -30.88850212, -22.65419388, 9.35398960, -123.79421234, 104.79904938, -14.20839977, -23.35815430, -0.61276782, 0.75464976, -0.23304836, -0.02660809, -0.29780412, 0.02438131, -0.06088270, 100.05800629, 106.00524902, 32.27999878, 0.00000000
1, 1.1450, 120, 0.06722709, -0.95259285, 0.33550841, -1.47190320, 33.08023071, -28.01717758, -22.65419388, 9.35398960, -123.79421234, 104.74202728, -14.11480808, -23.15654755, -0.61312068, 0.75493091, -0.23123875, -0.02628648, -0.31232664, 0.01431511, -0.08990952, 100.05800629, 106.00524902, 32.27999878, 0.00000000
1, 1.1500, 121, 0.05207619, -0.91939485, 0.30152971, -0.86617821, 24.73510551, -25.48972511, -21.51417732, 9.58784008, -123.85267639, 104.71098328, -13.96109867, -23.00262260, -0.61324793, 0.75536406, -0.22944672, -0.02657822, -0.29500312, -0.01951159, -0.05645923, 100.05800629, 106.00524902, 32.27999878, 0.00000000
1, 1.1550, 122, 0.02519690, -0.91949534, 0.27440205, 0.05186664, 17.05252838, -22.88035583, -21.51417732, 9.58784008, -123.85267639, 104.68335724, -13.87189484, -22.88791084, -0.61339152, 0.75561237, -0.22823629, -0.02663045, -0.26600504, -0.01996849, -0.02968277, 100.05800629, 106.00524902, 32.27999878, 0.00000000
1, 1.1600, 123, -0.00070727, -0.94203591, 0.27027485, -0.06219608, 15.37915993, -19.93935394, -21.77725792, 9.32475853, -124.14498901, 104.65829468, -13.79476357, -22.78543282, -0.61352444, 0.75582552, -0.22716711, -0.02665992, -0.23872203, 0.00214650, -0.02597564, 100.05800629, 106.00524902, 32.27999878, 0.00000000
1, 1.1650, 124, -0.01377158, -0.96208966, 0.25467351, -0.75841135, 20.54140282, -17.56410599, -21.77725792, 9.32475853, -124.14498901, 104.62451935, -13.73556614, -22.66035843, -0.61373341, 0.75600183, -0.22603653, -0.02646236, -0.22453916, 0.02183475, -0.01088772, 100.05800629, 106.00524902, 32.27999878, 0.00000000
1, 1.1700, 125, -0.01974320, -0.96216655, 0.24047710, -0.16432290, 24.75374794, -15.78876209, -21.77725792, 9.32475853, -124.14498901, 104.58943939, -13.69016171, -22.51666260, -0.61396515, 0.75618041, -0.22485177, -0.02607250, -0.21771340, 0.02158872, 0.00275839, 100.05800629, 106.00524902, 32.27999878, 0.00000000
1, 1.1750, 126, -0.01200636, -0.96706939, 0.26507819, 0.79986763, 24.82501984, -14.04672718, -21.57263947, 8.71090317, -124.05728912, 104.55973816, -13.65319252, -22.37489128, -0.61416686, 0.75636667, -0.22372314, -0.02562405, -0.22484943, 0.02616318, -0.02229840, 100.05800629, 106.00524902, 32.27999878, 0.00000000
1, 1.2150, 127, -0.08324815, -0.95251179, 0.25782585, -2.17517090, 12.64610481, 1.89496315, -20.75416565, 9.70476437, -123.38497162, 104.38341522, -13.53778744, -21.59457207, -0.61541629, 0.75713372, -0.21794969, -0.02256739, -0.15137017, 0.01034710, -0.01797166, 100.05800629, 106.00524902, 32.27999878, 0.00000000
1, 1.2200, 128, -0.08048389, -0.94444847, 0.25001866, -3.08620667, 14.82758522, 3.57095718, -20.52031517, 10.17246437, -123.09265900, 104.35176086, -13.57340622, -21.52519989, -0.61566246, 0.75703168, -0.21766570, -0.02201116, -0.15466821, 0.00230047, -0.01066662, 100.05800629, 106.00524902, 32.27999878, 0.00000000
1, 1.2250, 129, -0.05811487, -0.93189490, 0.26076335, -3.40129018, 20.60841942, 4.97463512, -20.52031517, 10.17246437, -123.09265900, 104.31215668, -13.62289143, -21.42874718, -0.61597461, 0.75691324, -0.21727195, -0.02122940, -0.17784324, -0.01024722, -0.02200390, 100.05800629, 106.00524902, 32.27999878, 0.00000000
1, 1.2300, 130, -0.00689833, -0.94077849, 0.29540834, -3.00173688, 23.25246429, 6.71507597, -20.52031517, 10.17246437, -123.09265900, 104.27183533, -13.68399143, -21.32124329, -0.61629969, 0.75679070, -0.21686459, -0.02030977, -0.23013900, -0.00135644, -0.05726030, 100.05800629, 106.00524902, 32.27999878, 0.00000000
1, 1.2350, 131, 0.05177531, -0.96903181, 0.32508922, -3.55603695, 19.54210663, 8.73682499, -20.14031029, 9.93861389, -123.06343079, 104.23365784, -13.75029755, -21.23473167, -0.61660880, 0.75663024, -0.21662322, -0.01946308, -0.28999296, 0.02694717, -0.08754739, 100.05800629, 106.00524902, 32.27999878, 0.00000000
1, 1.2400, 132, 0.05919891, -1.00353467, 0.33233923, -4.93380165, 13.31874752, 10.67410660, -20.14031029, 9.93861389, -123.06343079, 104.19647980, -13.81835842, -21.18165970, -0.61690575, 0.75640851, -0.21661226, -0.01878226, -0.29858536, 0.06155664, -0.09551535, 100.05800629, 106.00524902, 32.27999878, 0.00000000
1, 1.2450, 133, 0.02310605, -1.00489855, 0.30564216, -6.56658363, 7.45627499, 11.99229622, -20.63723946, 9.82168961, -123.91113281, 104.15848541, -13.88566208, -21.15945435, -0.61720175, 0.75612521, -0.21680145, -0.01827435, -0.26356769, 0.06307878, -0.06960453, 100.05800629, 106.00524902, 32.27999878, 0.00000000
1, 1.2500, 134, -0.02570161, -0.99086881, 0.29004395, -6.12774324, 3.96447372, 13.97155952, -20.63723946, 9.82168961, -123.91113281, 104.14530182, -13.87172318, -21.16121101, -0.61727989, 0.75607586, -0.21674010, -0.01840405, -0.21518728, 0.04908647, -0.05452806, 100.05800629, 106.00524902, 32.27999878, 0.00000000
1, 1.2550, 135, -0.07398839, -0.99552393, 0.29041472, -5.76560974, 3.79003787, 15.57519245, -20.63723946, 9.82168961, -123.91113281, 104.11680603, -13.95193005, -21.16173553, -0.61751717, 0.75577712, -0.21714664, -0.01791261, -0.16750571, 0.05380448, -0.05538787, 100.05800629, 106.00524902, 32.27999878, 0.00000000
1, 1.2600, 136, -0.10785814, -0.99931705, 0.29652593, -7.57633114, 1.04324543, 17.63590240, -19.99415398, 8.79859638, -123.96959686, 104.08322906, -14.03882885, -21.17853355, -0.61778921, 0.75540769, -0.21769385, -0.01747298, -0.13509414, 0.05780349, -0.06220293, 100.05800629, 106.00524902, 32.27999878, 0.00000000
1, 1.3100, 137, -0.21260484, -0.98317981, 0.23316440, -8.10046864, 7.16565037, 22.17002869, -20.31569672, 9.50014591, -124.08652496, 103.71051025, -15.06978321, -21.20996666, -0.62083769, 0.75143909, -0.22309549, -0.01132293, -0.04748940, 0.04461595, -0.00623575, 100.05800629, 106.00524902, 32.27999878, 0.00000000
1, 1.3150, 138, -0.24440904, -0.97204757, 0.23142435, -9.49887562, 2.20814300, 22.13976860, -20.31569672, 9.50014591, -124.08652496, 103.66741943, -15.18009186, -21.22583580, -0.62117988, 0.75096828, -0.22375651, -0.01074098, -0.01758053, 0.03381469, -0.00537444, 100.05800629, 106.00524902, 32.27999878, 0.00000000
1, 1.3200, 139, -0.29860061, -0.92304432, 0.20517692, -11.32846928, 0.39829764, 21.41887856, -21.22186470, 9.50014591, -124.17421722, 103.61735535, -15.28481102, -21.24986839, -0.62156326, 0.75045305, -0.22444209, -0.01025556, 0.03490930, -0.01487207, 0.01990956, 100.05800629, 106.00524902, 32.27999878, 0.00000000
1, 1.3250, 140, -0.32063818, -0.89890671, 0.21016204, -9.07809734, 2.51126623, 21.26533318, -21.22186470, 9.50014591, -124.17421722, 103.57569122, -15.39123917, -21.26296425, -0.62189305, 0.75000060, -0.22506575, -0.00968333, 0.05515283, -0.03871937, 0.01406861, 100.05800629, 106.00524902, 32.27999878, 0.00000000
1, 1.3300, 141, -0.35336953, -0.90557444, 0.21748823, -7.85297728, 4.09458685, 21.04211044, -21.22186470, 9.50014591, -124.17421722, 103.53796387, -15.49841690, -21.26774216, -0.62219733, 0.74958354, -0.22563924, -0.00905344, 0.08606265, -0.03173098, 0.00590875, 100.05800629, 106.00524902, 32.27999878, 0.00000000
1, 1.3350, 142, -0.38982356, -0.91044378, 0.20457308, -7.72640657, 2.30049086, 20.36679840, -21.01724625, 9.67553329, -124.05728912, 103.50305939, -15.60022449, -21.28069115, -0.62247914, 0.74917513, -0.22623932, -0.00849935, 0.12080664, -0.02651106, 0.01802596, 100.05800629, 106.00524902, 32.27999878, 0.00000000
1, 1.3400, 143, -0.43052256, -0.92582500, 0.18970211, -7.53425837, 0.96037704, 19.66641808, -21.01724625, 9.67553329, -124.05728912, 103.47070313, -15.69709110, -21.29951286, -0.62274075, 0.74877745, -0.22685295, -0.00800617, 0.15989968, -0.01078635, 0.03213196, 100.05800629, 106.00524902, 32.27999878, 0.00000000
1, 1.3450, 144, -0.46442425, -0.94308817, 0.18011715, -7.67947865, 3.94153166, 18.75786209, -21.74802589, 9.79245853, -123.85267639, 103.43324280, -15.79298592, -21.30213356, -0.62303573, 0.74838537, -0.22735552, -0.00744194, 0.19221202, 0.00679387, 0.04091253, 100.05800629, 106.00524902, 32.27999878, 0.00000000
1, 1.3500, 145, -0.47071093, -0.94904327, 0.18226756, -6.96850061, 9.58441544, 17.55133057, -21.74802589, 9.79245853, -123.85267639, 103.38053894, -15.93750763, -21.27189636, -0.62345672, 0.74788153, -0.22789051, -0.00639878, 0.19647241, 0.01312119, 0.03784170, 100.05800629, 106.00524902, 32.27999878, 0.00000000
1, 1.3550, 146, -0.45155782, -0.95778298, 0.19733937, -4.90341997, 14.93439579, 15.97005749, -21.74802589, 9.79245853, -123.85267639, 103.34065247, -16.03242111, -21.21537209, -0.62376833, 0.74759436, -0.22800280, -0.00552486, 0.17527691, 0.02221530, 0.02192159, 100.05800629, 106.00524902, 32.27999878, 0.00000000
1, 1.3750, 147, -0.36435136, -0.97683847, 0.27777058, -2.13497066, 28.53723717, 8.89808655, -21.07570839, 9.70476437, -124.02806091, 103.18011475, -16.36233330, -20.77477074, -0.62498778, 0.74695891, -0.22680660, -0.00119956, 0.08225010, 0.04211630, -0.06128178, 100.05800629, 106.00524902, 32.27999878, 0.00000000
1, 1.3800, 148, -0.34419635, -1.01388490, 0.22132702, -2.86429167, 23.85860252, 7.63913059, -21.07570839, 9.70476437, -124.02806091, 103.13424683, -16.42654228, -20.66264915, -0.62531680, 0.74680692, -0.22640333, -0.00024223, 0.06111208, 0.07939892, -0.00568404, 100.05800629, 106.00524902, 32.27999878, 0.00000000
1, 1.3850, 149, -0.35381043, -1.04312587, 0.19283645, -4.48696709, 19.67833519, 7.06941795, -21.36802101, 9.90938282, -124.02806091, 103.08594513, -16.48319626, -20.57100487, -0.62565672, 0.74661523, -0.22609560, 0.00054756, 0.06982552, 0.10878721, 0.02190380, 100.05800629, 106.00524902, 32.27999878, 0.00000000
1, 1.3900, 150, -0.38272735, -1.03897321, 0.16980898, -5.49479866, 23.44832230, 6.36590576, -21.36802101, 9.90938282, -124.02806091, 103.02679443, -16.54057884, -20.45930481, -0.62606609, 0.74640203, -0.22566178, 0.00143078, 0.09784989, 0.10473320, 0.04388519, 100.05800629, 106.00524902, 32.27999878, 0.00000000
1, 1.3950, 151, -0.38617864, -1.02721298, 0.16713743, -4.25594997, 32.63426590, 5.76288700, -21.25109673, 8.65244102, -123.79421234, 102.96016693, -16.60514450, -20.30007362, -0.62652469, 0.74622703, -0.22495630, 0.00260845, 0.10026365, 0.09303430, 0.04543473, 100.05800629, 106.00524902, 32.27999878, 0.00000000
1, 1.4000, 152, -0.37665516, -1.05212629, 0.20287815, -2.19171953, 41.35912323, 5.80436230, -21.25109673, 8.65244102, -123.79421234, 102.88667297, -16.68671417, -20.09515190, -0.62703067, 0.74607021, -0.22404206, 0.00413893, 0.08938636, 0.11799195, 0.00843740, 100.05800629, 106.00524902, 32.27999878, 0.00000000
1, 1.4050, 153, -0.36957595, -1.09731197, 0.23148267, -1.29315090, 43.55781555, 5.95048714, -21.25109673, 8.65244102, -123.79421234, 102.81842041, -16.76383781, -19.88021088, -0.62749594, 0.74596846, -0.22304128, 0.00570564, 0.08088803, 0.16326097, -0.02146845, 100.05800629, 106.00524902, 32.27999878, 0.00000000
1, 1.4100, 154, -0.33803740, -1.17594385, 0.23194766, -3.05273414, 39.05048752, 5.90050411, -20.28646660, 8.38935947, -124.20344543, 102.74768066, -16.83555031, -19.68801498, -0.62797254, 0.74581754, -0.22216249, 0.00710748, 0.04812097, 0.24199617, -0.02319574, 100.05800629, 106.00524902, 32.27999878, 0.00000000
1, 1.4150, 155, -0.28473845, -1.23398638, 0.14411993, -7.61110258, 33.55183411, 5.51199865, -20.28646660, 8.38935947, -124.20344543, 102.66188812, -16.89916420, -19.52326012, -0.62854266, 0.74554509, -0.22142325, 0.00827598, -0.00605851, 0.30020607, 0.06326187, 100.05800629, 106.00524902, 32.27999878, 0.00000000
1, 1.4200, 156, -0.22815306, -1.23782349, 0.05571464, -9.71993732, 28.32954788, 4.64321899, -20.75416565, 10.26015759, -124.34960175, 102.57280731, -16.95266533, -19.38401413, -0.62913007, 0.74522322, -0.22079974, 0.00923075, -0.06335606, 0.30413783, 0.15028343, 100.05800629, 106.00524902, 32.27999878, 0.00000000
1, 1.4600, 157, -0.25500524, -1.24690688, 0.23688993, -9.48227119, 41.95679092, 8.78569412, -19.84799767, 10.37708282, -124.20344543, 101.77890015, -17.54063988, -17.84068680, -0.63424760, 0.74266797, -0.21392982, 0.02020629, -0.04660819, 0.31307328, -0.04445037, 100.05800629, 106.00524902, 32.27999878, 0.00000000
1, 1.4650, 158, -0.26962429, -1.26577902, 0.27112901, -10.08665657, 44.87733459, 8.79289436, -19.84799767, 10.37708282, -124.20344543, 101.66174316, -17.62903404, -17.61945724, -0.63498372, 0.74226683, -0.21297924, 0.02180894, -0.03354108, 0.33195525, -0.08071995, 100.05800629, 106.00524902, 32.27999878, 0.00000000
1, 1.4700, 159, -0.30639184, -1.27609348, 0.28653628, -11.20335197, 45.79924011, 7.70741415, -19.87722778, 9.88015175, -124.61268616, 101.53678131, -17.71261406, -17.39204407, -0.63576305, 0.74184036, -0.21196826, 0.02340093, 0.00176977, 0.34227186, -0.09833948, 100.05800629, 106.00524902, 32.27999878, 0.00000000
1, 1.4750, 160, -0.32906500, -1.28882384, 0.30737713, -10.77954292, 45.70050430, 6.15736961, -19.87722778, 9.88015175, -124.61268616, 101.41320038, -17.78802109, -17.16324425, -0.63652670, 0.74143702, -0.21090852, 0.02495043, 0.02310375, 0.35495988, -0.12136237, 100.05800629, 106.00524902, 32.27999878, 0.00000000
1, 1.4800, 161, -0.33369794, -1.30993426, 0.30861449, -10.79746151, 46.78730774, 4.39584112, -19.87722778, 9.88015175, -124.61268616, 101.28689575, -17.85538292, -16.92678070, -0.63730019, 0.74104488, -0.20976081, 0.02648571, 0.02658833, 0.37601709, -0.12476318, 100.05800629, 106.00524902, 32.27999878, 0.00000000
1, 1.4850, 162, -0.36091810, -1.34073436, 0.32085103, -11.43713188, 52.50673676, 3.87431765, -19.20491028, 9.61707115, -124.40806580, 101.14780426, -17.92517471, -16.66003418, -0.63814425, 0.74062943, -0.20843653, 0.02818514, 0.05262931, 0.40672061, -0.13940141, 100.05800629, 106.00524902, 32.27999878, 0.00000000
1, 1.4900, 163, -0.32119623, -1.39501393, 0.27900597, -12.13704777, 57.13166809, 2.48622084, -19.20491028, 9.61707115, -124.40806580, 100.99703217, -17.99193192, -16.36777306, -0.63905084, 0.74019688, -0.20693827, 0.02998854, 0.01188175, 0.46095836, -0.10000730, 100.05800629, 106.00524902, 32.27999878, 0.00000000
1, 1.4950, 164, -0.27036390, -1.38610923, 0.22343194, -14.28060627, 60.27519226, -0.11058307, -18.85413551, 9.79245853, -124.34960175, 100.82930756, -18.04813004, -16.05641365, -0.64005417, 0.73971868, -0.20526986, 0.03180131, -0.03979240, 0.45193863, -0.04703310, 100.05800629, 106.00524902, 32.27999878, 0.00000000
1, 1.5500, 165, -0.06614285, -1.32374215, 0.09223506, -19.83404732, 110.06603241, -29.06808662, -14.93715286, 10.81555080, -124.26190948, 98.41320801, -17.99960327, -11.06071186, -0.65370005, 0.73441976, -0.17378886, 0.05568937, -0.24348630, 0.38306957, 0.04577534, 100.05800629, 106.00524902, 32.27999878, 0.00000000
1, 1.5550, 166, -0.01911566, -1.28538561, 0.05578437, -20.73761749, 113.69878387, -31.28343964, -14.38175964, 10.55247021, -124.55422211, 98.11948395, -17.92584229, -10.44582176, -0.65529633, 0.73377806, -0.16958871, 0.05827644, -0.28913045, 0.34365088, 0.07764347, 100.05800629, 106.00524902, 32.27999878, 0.00000000
1, 1.5600, 167, 0.04370286, -1.25173128, 0.02945460, -20.61686897, 118.05754089, -32.89863968, -14.38175964, 10.55247021, -124.55422211, 97.82005310, -17.84404182, -9.80776787, -0.65690660, 0.73311990, -0.16520701, 0.06095582, -0.35055447, 0.30892137, 0.09933873, 100.05800629, 106.00524902, 32.27999878, 0.00000000
1, 1.5650, 168, 0.10383070, -1.22483337, 0.02693390, -19.22014809, 122.93397522, -33.85175705, -14.38175964, 10.55247021, -124.55422211, 97.52072144, -17.75753403, -9.14442730, -0.65849000, 0.73247325, -0.16064595, 0.06377159, -0.40925545, 0.28090408, 0.09717923, 100.05800629, 106.00524902, 32.27999878, 0.00000000
1, 1.5700, 169, 0.15494566, -1.20199406, 0.03225957, -17.20011711, 126.31317902, -34.60312271, -13.09558582, 10.55247021, -124.32037354, 97.22722626, -17.66614151, -8.46379185, -0.66001326, 0.73185688, -0.15595256, 0.06668551, -0.45888638, 0.25694481, 0.08721223, 100.05800629, 106.00524902, 32.27999878, 0.00000000
1, 1.5750, 170, 0.17759126, -1.18082178, 0.05836054, -15.73514175, 125.57872772, -35.41042328, -13.09558582, 10.55247021, -124.32037354, 96.94335938, -17.56702423, -7.78731298, -0.66146535, 0.73126596, -0.15124513, 0.06956040, -0.47998327, 0.23462765, 0.05654296, 100.05800629, 106.00524902, 32.27999878, 0.00000000
1, 1.5800, 171, 0.17221412, -1.15494144, 0.08112388, -15.46838570, 120.96939087, -36.29483414, -11.69248772, 11.13709450, -123.79421234, 96.66931915, -17.45768547, -7.13520288, -0.66286027, 0.73067909, -0.14663726, 0.07226241, -0.47288936, 0.20760195, 0.02930131, 100.05800629, 106.00524902, 32.27999878, 0.00000000
1, 1.5850, 172, 0.13698414, -1.12428141, 0.09934210, -14.44012547, 112.28375244, -36.86547470, -11.69248772, 11.13709450, -123.79421234, 96.41535950, -17.33775520, -6.52891731, -0.66414952, 0.73013186, -0.14225528, 0.07467580, -0.43574834, 0.17580432, 0.00682091, 100.05800629, 106.00524902, 32.27999878, 0.00000000
1, 1.5900, 173, 0.05217660, -1.08893514, 0.11569048, -13.65175724, 100.28185272, -35.75949097, -11.69248772, 11.13709450, -123.79421234, 96.18561554, -17.21439362, -5.98667288, -0.66531903, 0.72962177, -0.13825081, 0.07674257, -0.34892225, 0.13935861, -0.01351155, 100.05800629, 106.00524902, 32.27999878, 0.00000000
1, 1.5950, 174, 0.02242351, -1.07757199, 0.12269569, -13.54043293, 88.59950256, -33.69086456, -10.31861973, 10.66939449, -123.76497650, 95.97605896, -17.09323692, -5.50721502, -0.66639441, 0.72912723, -0.13464877, 0.07849732, -0.31716058, 0.12697494, -0.02409677, 100.05800629, 106.00524902, 32.27999878, 0.00000000
1, 1.6450, 175, -0.01890549, -1.22633195, 0.57280970, 8.99775696, -63.88497543, 55.80176163, -9.50014591, 10.75708866, -124.99269104, 95.59743500, -17.39539337, -4.93164968, -0.66821718, 0.72722191, -0.13299157, 0.08335109, -0.28033531, 0.27525759, -0.48238739, 100.05800629, 106.00524902, 32.27999878, 0.00000000
1, 1.6500, 176, -0.11858299, -1.26200914, 0.56435269, 1.82945919, -71.34199524, 67.94850159, -9.50014591, 10.75708866, -124.99269104, 95.74387360, -17.69169426, -5.34275961, -0.66740680, 0.72722185, -0.13719483, 0.08303201, -0.18540370, 0.31268695, -0.47189808, 100.05800629, 106.00524902, 32.27999878, 0.00000000
1, 1.6550, 177, -0.27488759, -1.29889083, 0.46481770, -8.86021137, -72.27777863, 82.88933563, -10.40631390, 10.08477020, -125.13884735, 95.82987213, -18.06833458, -5.76382828, -0.66694105, 0.72672564, -0.14195992, 0.08310783, -0.03479714, 0.35179913, -0.37132919, 100.05800629, 106.00524902, 32.27999878, 0.00000000
1, 1.6600, 178, -0.43367320, -1.24761403, 0.38040084, -12.12641048, -61.36525345, 94.44277191, -10.40631390, 10.08477020, -125.13884735, 95.88691711, -18.50750351, -6.13529444, -0.66658831, 0.72600651, -0.14678143, 0.08384443, 0.11716129, 0.30306494, -0.28643626, 100.05800629, 106.00524902, 32.27999878, 0.00000000
1, 1.6650, 179, -0.47494650, -1.24321532, 0.39617509, -7.60744047, -42.74171448, 99.49108124, -10.40631390, 10.08477020, -125.13884735, 95.93930054, -18.98081207, -6.41309834, -0.66617751, 0.72530180, -0.15119970, 0.08534358, 0.15070575, 0.30131757, -0.30161843, 100.05800629, 106.00524902, 32.27999878, 0.00000000
1, 1.6700, 180, -0.58688217, -1.16712713, 0.43698925, -7.40589046, -18.97451210, 109.30879211, -11.51710033, 10.26015759, -126.33732605, 95.95599365, -19.51491928, -6.57207823, -0.66586453, 0.72443414, -0.15523149, 0.08787957, 0.25399140, 0.22814450, -0.34256494, 100.05800629, 106.00524902, 32.27999878, 0.00000000
1, 1.6750, 181, -0.74470448, -1.24598610, 0.54960418, -4.46836090, -4.54450083, 115.81958008, -11.51710033, 10.26015759, -126.33732605, 95.96447754, -20.08872223, -6.65903091, -0.66551489, 0.72353512, -0.15903376, 0.09107785, 0.40224588, 0.31014591, -0.45579308, 100.05800629, 106.00524902, 32.27999878, 0.00000000
1, 1.6800, 182, -0.93414426, -1.36178136, 0.49557257, -11.70328903, 12.67126560, 121.61491394, -12.24788094, 9.93861389, -127.00964355, 95.90699005, -20.70021629, -6.65785551, -0.66547173, 0.72229820, -0.16254282, 0.09493522, 0.58196497, 0.42957652, -0.40345472, 100.05800629, 106.00524902, 32.27999878, 0.00000000
1, 1.6850, 183, -1.13448834, -1.49628556, 0.36023182, -15.86731052, 34.85108185, 127.76987457, -12.24788094, 9.93861389, -127.00964355, 95.78715515, -21.35350609, -6.54075098, -0.66567039, 0.72078276, -0.16561273, 0.09963752, 0.77216893, 0.56810057, -0.27093592, 100.05800629, 106.00524902, 32.27999878, 0.00000000
1, 1.6900, 184, -1.17249012, -1.53504300, 0.22023790, -19.30244446, 64.98666382, 136.52378845, -12.24788094, 9.93861389, -127.00964355, 95.58996582, -22.06476402, -6.26433182, -0.66613072, 0.71894574, -0.16808923, 0.10551248, 0.79922473, 0.61123627, -0.13440262, 100.05800629, 106.00524902, 32.27999878, 0.00000000
1, 1.7250, 185, -0.32552510, -1.46182382, 0.36602217, -18.53256226, 81.52737427, 205.68063354, -12.59865570, 8.68167210, -126.74656677, 93.54707336, -28.72605324, -2.71412349, -0.66757154, 0.70165551, -0.18656519, 0.16498914, -0.15195307, 0.58384061, -0.31383032, 100.05800629, 106.00524902, 32.27999878, 0.00000000
1, 1.7300, 186, -0.36036164, -1.45595706, 0.40628499, -14.57388401, 76.02807617, 211.31782532, -13.30020428, 8.50628471, -126.10347748, 93.29856110, -29.80310631, -2.34943843, -0.66707051, 0.69894326, -0.19089933, 0.17335767, -0.13356510, 0.58671856, -0.35855824, 100.05800629, 106.00524902, 32.27999878, 0.00000000
1, 1.7350, 187, -0.40381864, -1.47227144, 0.49181807, -15.81124783, 79.13797760, 214.84280396, -13.30020428, 8.50628471, -126.10347748, 93.02448273, -30.89714622, -1.95822823, -0.66654068, 0.69607353, -0.19524100, 0.18189624, -0.10679233, 0.61219233, -0.44876045, 100.05800629, 106.00524902, 32.27999878, 0.00000000
1, 1.7400, 188, -0.39970642, -1.45087409, 0.52788621, -19.44133568, 76.60890961, 215.88031006, -13.30020428, 8.50628471, -126.10347748, 92.72809601, -31.99412346, -1.57123280, -0.66602391, 0.69303972, -0.19969726, 0.19033964, -0.12737630, 0.60040784, -0.48966473, 100.05800629, 106.00524902, 32.27999878, 0.00000000
1, 1.7450, 189, -0.39234433, -1.46370542, 0.52147251, -23.97298050, 65.98720551, 215.61473083, -14.11867905, 7.89242887, -126.57117462, 92.43051147, -33.08579636, -1.23575211, -0.66548735, 0.68989593, -0.20447291, 0.19839647, -0.15085682, 0.62322176, -0.48810676, 100.05800629, 106.00524902, 32.27999878, 0.00000000
1, 1.7500, 190, -0.40656579, -1.45026231, 0.43388587, -29.23463058, 56.64148712, 214.16201782, -14.11867905, 7.89242887, -126.57117462, 92.13241577, -34.15969086, -0.94853282, -0.66495466, 0.68667066, -0.20947079, 0.20601153, -0.15216905, 0.62010145, -0.40531844, 100.05800629, 106.00524902, 32.27999878, 0.00000000
1, 1.7550, 191, -0.37663630, -1.43416822, 0.26547450, -32.07954407, 53.12121201, 211.76580811, -14.76176548, 7.30780458, -126.68810272, 91.81494141, -35.22705078, -0.66793966, -0.66445440, 0.68330741, -0.21453787, 0.21345930, -0.19704573, 0.61464870, -0.24165386, 100.05800629, 106.00524902, 32.27999878, 0.00000000
1, 1.7600, 192, -0.33457211, -1.43976080, 0.15090074, -32.36951447, 53.00469208, 209.24296570, -14.76176548, 7.30780458, -126.68810272, 91.48541260, -36.28046799, -0.37651971, -0.66392446, 0.67989767, -0.21951632, 0.22080810, -0.25383177, 0.63098359, -0.13194896, 100.05800629, 106.00524902, 32.27999878, 0.00000000
1, 1.7650, 193, -0.31412351, -1.44618702, 0.10004371, -33.28596878, 49.02816010, 207.68768311, -14.76176548, 7.30780458, -126.68810272, 91.15486908, -37.32431793, -0.09821638, -0.66333878, 0.67645353, -0.22455333, 0.22796543, -0.28883189, 0.64825296, -0.08595959, 100.05800629, 106.00524902, 32.27999878, 0.00000000
1, 1.7700, 194, -0.30877009, -1.42204654, 0.10439185, -34.98320389, 42.04159927, 206.45613098, -16.48640823, 7.86319780, -126.54194641, 90.83188629, -38.36021042, 0.14737469, -0.66268849, 0.67298228, -0.22975403, 0.23484464, -0.30854923, 0.63506556, -0.09496082, 100.05800629, 106.00524902, 32.27999878, 0.00000000
1, 1.8050, 195, -0.61853921, -0.80654132, -0.09118270, -30.94377327, -26.67735672, 196.00372314, -20.16954041, 7.04472351, -127.82811737, 89.70008087, -45.34898376, -0.20937575, -0.65465569, 0.65024388, -0.27448741, 0.27067611, -0.08962117, 0.10088262, 0.08466687, 100.05800629, 106.00524902, 32.27999878, 0.00000000
1, 1.8100, 196, -0.65923095, -0.76550233, -0.01576102, -25.30202293, -31.81392860, 194.33726501, -20.16954041, 7.04472351, -127.82811737, 89.73315430, -46.32201385, -0.42845061, -0.65266150, 0.64755368, -0.28118658, 0.27502972, -0.06103332, 0.07188371, 0.00948963, 100.05800629, 106.00524902, 32.27999878, 0.00000000
1, 1.8150, 197, -0.65193659, -0.74652910, 0.05086474, -22.51713371, -36.28361130, 191.42616272, -20.16954041, 7.04472351, -127.82811737, 89.81040955, -47.28042603, -0.68560189, -0.65052056, 0.64498389, -0.28787699, 0.27918747, -0.08002798, 0.06497820, -0.05620022, 100.05800629, 106.00524902, 32.27999878, 0.00000000
1, 1.8200, 198, -0.57928807, -0.72871804, 0.08195844, -23.57015800, -45.97298813, 179.60635376, -22.65419388, 8.94475269, -127.74042511, 89.94400787, -48.17961502, -1.02231216, -0.64838606, 0.64260519, -0.29450393, 0.28270400, -0.16356148, 0.05890508, -0.08565834, 100.05800629, 106.00524902, 32.27999878, 0.00000000
1, 1.8250, 199, -0.51252592, -0.71171224, 0.06937910, -26.99866104, -52.65618134, 170.86784363, -22.65419388, 8.94475269, -127.74042511, 90.10874939, -49.03458405, -1.41898024, -0.64632821, 0.64028209, -0.30109942, 0.28572342, -0.24033381, 0.05322519, -0.07106774, 100.05800629, 106.00524902, 32.27999878, 0.00000000
1, 1.8300, 200, -0.44725722, -0.69336510, 0.02159845, -30.00753784, -58.90119171, 161.43342590, -24.46652985, 8.91552162, -128.03273010, 90.30672455, -49.84154510, -1.87437809, -0.64435130, 0.63803679, -0.30762821, 0.28824538, -0.31481862, 0.04578876, -0.02096410, 100.05800629, 106.00524902, 32.27999878, 0.00000000
1, 1.8350, 201, -0.37651667, -0.67318237, -0.03169179, -31.08913612, -62.69716263, 152.24314880, -24.46652985, 8.91552162, -128.03273010, 90.53499603, -50.60134125, -2.37112927, -0.64243352, 0.63589609, -0.31400523, 0.29037240, -0.39407706, 0.03602790, 0.03494344, 100.05800629, 106.00524902, 32.27999878, 0.00000000
1, 1.8400, 202, -0.32821181, -0.66392386, -0.06088665, -30.96264458, -66.31666565, 143.39219666, -26.19117165, 9.41245270, -128.47120667, 90.79969788, -51.31533051, -2.90892196, -0.64054221, 0.63389277, -0.32022116, 0.29213709, -0.45031536, 0.03665395, 0.06698136, 100.05800629, 106.00524902, 32.27999878, 0.00000000
1, 1.8450, 203, -0.29683685, -0.65417886, -0.07525472, -30.78394508, -71.20148468, 135.03625488, -26.19117165, 9.41245270, -128.47120667, 91.11029053, -51.98547363, -3.49901509, -0.63865381, 0.63204277, -0.32632583, 0.29352123, -0.48905537, 0.03627793, 0.08454604, 100.05800629, 106.00524902, 32.27999878, 0.00000000
1, 1.8500, 204, -0.28177524, -0.62594998, -0.08458627, -30.56486320, -76.31318665, 127.44551086, -26.19117165, 9.41245270, -128.47120667, 91.46064758, -52.59701538, -4.13723421, -0.63683218, 0.63036662, -0.33223400, 0.29445431, -0.51084852, 0.01682641, 0.09745511, 100.05800629, 106.00524902, 32.27999878, 0.00000000
1, 1.8900, 205, -0.23494340, -0.23510747, 0.07978491, -16.58658218, -110.58129120, 66.44143677, -33.20666504, 9.47091484, -128.26658630, 96.30828857, -56.13326645, -11.10927200, -0.61983728, 0.62386894, -0.37603593, 0.29186720, -0.59495318, -0.32006297, -0.02134022, 100.05800629, 106.00524902, 32.27999878, 0.00000000
1, 1.8950, 206, -0.22423269, -0.22671047, 0.08155603, -16.48789978, -114.67197418, 58.35077667, -33.20666504, 9.47091484, -128.26658630, 97.12924957, -56.35713196, -12.19491768, -0.61764604, 0.62391508, -0.38093135, 0.29005986, -0.60796762, -0.32415783, -0.01562897, 100.05800629, 106.00524902, 32.27999878, 0.00000000
1, 1.9000, 207, -0.22301923, -0.21427771, 0.07827495, -16.28776360, -118.27937317, 50.48065567, -33.20666504, 9.47091484, -128.26658630, 97.98899841, -56.52611160, -13.32094383, -0.61545551, 0.62415797, -0.38568795, 0.28789952, -0.61094809, -0.33288679, -0.00453262, 100.05800629, 106.00524902, 32.27999878, 0.00000000
1, 1.9050, 208, -0.24135852, -0.19877113, 0.07256787, -16.38050270, -121.19314575, 42.63079834, -34.98976898, 11.83864307, -128.26658630, 98.86343384, -56.64941788, -14.46592236, -0.61331183, 0.62451136, -0.39030629, 0.28547382, -0.59387982, -0.34525996, 0.00918821, 100.05800629, 106.00524902, 32.27999878, 0.00000000
1, 1.9100, 209, -0.27457494, -0.17593978, 0.04202748, -17.19151115, -123.52235413, 34.83907318, -34.98976898, 11.83864307, -128.26658630, 99.74803162, -56.72269440, -15.62677765, -0.61122841, 0.62498420, -0.39477304, 0.28275251, -0.56141037, -0.36546892, 0.04784732, 100.05800629, 106.00524902, 32.27999878, 0.00000000
1, 1.9150, 210, -0.30599228, -0.13741970, 0.01197407, -16.73178673, -125.07184601, 26.94460106, -35.83747482, 12.56942368, -127.36042023, 100.63933563, -56.74588776, -16.79235268, -0.60918385, 0.62560415, -0.39904830, 0.27977678, -0.53025937, -0.40195188, 0.08619069, 100.05800629, 106.00524902, 32.27999878, 0.00000000
1, 1.9200, 211, -0.33001935, -0.10474145, 0.00747624, -14.51872540, -124.45652771, 19.46497917, -35.83747482, 12.56942368, -127.36042023, 101.52651978, -56.72298813, -17.93990707, -0.60716248, 0.62638581, -0.40306395, 0.27664807, -0.50610906, -0.43318760, 0.09906857, 100.05800629, 106.00524902, 32.27999878, 0.00000000
1, 1.9250, 212, -0.34894526, -0.07699260, 0.04471810, -12.57116890, -123.01925659, 9.55467892, -35.83747482, 12.56942368, -127.36042023, 102.39466858, -56.64339828, -19.05378532, -0.60521472, 0.62735718, -0.40673548, 0.27332100, -0.48667735, -0.46018326, 0.07021761, 100.05800629, 106.00524902, 32.27999878, 0.00000000
1, 1.9300, 213, -0.34647599, -0.06295493, 0.06309030, -12.17611313, -122.26000214, 1.22532618, -38.00058365, 14.06021595, -126.98041534, 103.23959351, -56.51488113, -20.13894844, -0.60335177, 0.62845927, -0.41014308, 0.26979300, -0.48807201, -0.47412482, 0.06022634, 100.05800629, 106.00524902, 32.27999878, 0.00000000
1, 1.9350, 214, -0.35724747, -0.04280790, 0.07451984, -13.20987129, -121.52630615, -9.46999454, -38.00058365, 14.06021595, -126.98041534, 104.04663849, -56.32662964, -21.18700790, -0.60163951, 0.62969822, -0.41323930, 0.26597637, -0.47563544, -0.49494660, 0.05705180, 100.05800629, 106.00524902, 32.27999878, 0.00000000
1, 1.9500, 215, -0.36670798, 0.00407727, -0.01642949, -15.90101624, -113.80638123, -36.20685577, -39.08213806, 14.44022179, -127.00964355, 106.15505219, -55.49412155, -24.01599884, -0.59745854, 0.63385236, -0.42076188, 0.25344414, -0.45807391, -0.54754519, 0.17134094, 100.05800629, 106.00524902, 32.27999878, 0.00000000
1, 1.9550, 216, -0.38157031, 0.01542115, -0.02927702, -15.38684273, -111.19349670, -44.80901337, -39.84215164, 14.76176548, -126.22040558, 106.75713348, -55.12268829, -24.84245872, -0.59632903, 0.63548881, -0.42259467, 0.24891645, -0.43968648, -0.56202114, 0.19142058, 100.05800629, 106.00524902, 32.27999878, 0.00000000
1, 1.9600, 217, -0.41141146, 0.02697367, -0.03733282, -15.09871387, -107.50594330, -53.27752304, -39.84215164, 14.76176548, -126.22040558, 107.30274963, -54.71145248, -25.60221672, -0.59533525, 0.63723081, -0.42408240, 0.24426822, -0.40580836, -0.57742405, 0.20645398, 100.05800629, 106.00524902, 32.27999878, 0.00000000
1, 1.9650, 218, -0.44757405, 0.04591285, -0.03957210, -14.21481133, -103.05052185, -61.59509659, -41.18678665, 14.32329750, -125.37269592, 107.79034424, -54.26327896, -26.28946114, -0.59447199, 0.63908434, -0.42520207, 0.23953637, -0.36519945, -0.60080206, 0.21534586, 100.05800629, 106.00524902, 32.27999878, 0.00000000
1, 1.9700, 219, -0.46887249, 0.05846279, -0.02777232, -12.51149178, -98.63098145, -69.57343292, -41.18678665, 14.32329750, -125.37269592, 108.22603607, -53.78072357, -26.90617943, -0.59371024, 0.64106578, -0.42595530, 0.23474459, -0.33908319, -0.61834306, 0.20993863, 100.05800629, 106.00524902, 32.27999878, 0.00000000
1, 1.9750, 220, -0.47643301, 0.05555020, 0.00317549, -11.20187855, -94.00608063, -77.54187775, -41.18678665, 14.32329750, -125.37269592, 108.60781860, -53.26504517, -27.45177841, -0.59306318, 0.64316356, -0.42634058, 0.22989252, -0.32634950, -0.62096775, 0.18509337, 100.05800629, 106.00524902, 32.27999878, 0.00000000
1, 1.9800, 221, -0.46242100, 0.03544330, 0.00625439, -12.02466869, -89.50542450, -85.45107269, -41.65448761, 15.22946453, -125.16807556, 108.92766571, -52.71711731, -27.92890930, -0.59258544, 0.64532310, -0.42638355, 0.22493920, -0.33471531, -0.60687864, 0.18776339, 100.05800629, 106.00524902, 32.27999878, 0.00000000
1, 1.9850, 222, -0.43658903, 0.02483153, -0.01560583, -13.44304180, -86.15195465, -95.13265228, -41.65448761, 15.22946453, -125.16807556, 109.18788147, -52.12743378, -28.34352493, -0.59228760, 0.64757299, -0.42606884, 0.21979572, -0.35432637, -0.60291004, 0.21501528, 100.05800629, 106.00524902, 32.27999878, 0.00000000
1, 1.9900, 223, -0.41510749, 0.01224270, -0.03803757, -13.05296326, -79.12065125, -103.55780792, -42.20988083, 15.55100822, -125.05115509, 109.38008881, -51.50854492, -28.67268944, -0.59217143, 0.64990109, -0.42531717, 0.21463235, -0.36919093, -0.59745741, 0.24238680, 100.05800629, 106.00524902, 32.27999878, 0.00000000
1, 1.9950, 224, -0.40835774, -0.00674625, -0.01693171, -12.54567528, -75.35116577, -109.53844452, -42.20988083, 15.55100822, -125.05115509, 109.53224945, -50.86707306, -28.95018005, -0.59214729, 0.65229619, -0.42427975, 0.20942284, -0.36905974, -0.58609211, 0.22581163, 100.05800629, 106.00524902, 32.27999878, 0.00000000
1, 2.0200, 225, -0.38010255, -0.02022705, 0.03889839, -16.26876450, -63.88954163, -132.87808228, -42.09295654, 15.98947620, -124.43729401, 109.79655457, -47.39490891, -29.78472328, -0.59336370, 0.66458839, -0.41587961, 0.18244448, -0.35820043, -0.61453611, 0.18859699, 100.05800629, 106.00524902, 32.27999878, 0.00000000
1, 2.0250, 226, -0.34948537, -0.02987678, 0.04899394, -16.83081627, -62.28179550, -136.23268127, -42.09295654, 15.98947620, -124.43729401, 109.77909851, -46.64884186, -29.87818146, -0.59379780, 0.66709661, -0.41367924, 0.17679323, -0.38003448, -0.61390823, 0.18163553, 100.05800629, 106.00524902, 32.27999878, 0.00000000
1, 2.0300, 227, -0.33265197, -0.03933947, 0.06035357, -17.65632439, -62.29197311, -139.02658081, -41.88833618, 15.96024513, -123.70652008, 109.75111389, -45.88964462, -29.96404266, -0.59425145, 0.66960424, -0.41138625, 0.17104629, -0.38780811, -0.61356676, 0.17324898, 100.05800629, 106.00524902, 32.27999878, 0.00000000
1, 2.0350, 228, -0.36161178, -0.03961063, 0.05151400, -19.00627327, -63.00807571, -141.62033081, -41.88833618, 15.96024513, -123.70652008, 109.71420288, -45.11708450, -30.04796982, -0.59472376, 0.67209816, -0.40902773, 0.16517910, -0.34944808, -0.62246919, 0.18485861, 100.05800629, 106.00524902, 32.27999878, 0.00000000
1, 2.0400, 229, -0.41237015, -0.03779722, 0.05961429, -19.60835457, -63.78882217, -144.15502930, -41.80064392, 13.41712952, -123.18035889, 109.67259216, -44.33133316, -30.13070297, -0.59519017, 0.67459524, -0.40660048, 0.15920448, -0.28903008, -0.63355279, 0.17941722, 100.05800629, 106.00524902, 32.27999878, 0.00000000
1, 2.0450, 230, -0.47710323, -0.03549885, 0.11090006, -20.60560226, -64.22662354, -146.60641479, -41.80064392, 13.41712952, -123.18035889, 109.62299347, -43.53332520, -30.21032715, -0.59566629, 0.67708004, -0.40409946, 0.15312777, -0.21447355, -0.64522278, 0.13067055, 100.05800629, 106.00524902, 32.27999878, 0.00000000
1, 2.0500, 231, -0.53014302, -0.03456572, 0.12166328, -22.58428955, -62.83561707, -148.68626404, -41.80064392, 13.41712952, -123.18035889, 109.56147003, -42.74868774, -30.28190422, -0.59616774, 0.67945188, -0.40159661, 0.14713773, -0.15139109, -0.65538049, 0.12224641, 100.05800629, 106.00524902, 32.27999878, 0.00000000
1, 2.0550, 232, -0.56485784, -0.03005070, 0.08396154, -23.54181290, -60.59918976, -150.79399109, -41.77141190, 15.49254608, -123.32650757, 109.47391510, -41.93715668, -30.32942390, -0.59676218, 0.68184257, -0.39885682, 0.14099264, -0.10629653, -0.66907066, 0.16206080, 100.05800629, 106.00524902, 32.27999878, 0.00000000
1, 2.1250, 233, -0.99100089, -0.40831250, 0.23095657, -12.82757187, -13.45962715, -121.09905243, -38.64366913, 16.66179466, -120.66647339, 107.45766449, -31.67597198, -29.22396469, -0.60624874, 0.70980120, -0.35190502, 0.06933681, 0.46311468, -0.40244579, 0.02130486, 100.05800629, 106.00524902, 32.27999878, 0.00000000
1, 2.1300, 234, -1.00031328, -0.45534119, 0.21401900, -13.37687969, -11.10304928, -116.40900421, -37.59134674, 16.28178787, -120.66647339, 107.31616211, -31.10388947, -29.08344460, -0.60684246, 0.71125126, -0.34863681, 0.06569836, 0.48107523, -0.36105454, 0.03772840, 100.05800629, 106.00524902, 32.27999878, 0.00000000
1, 2.1350, 235, -0.98487532, -0.48072132, 0.17780749, -13.51555157, -7.35532141, -111.48071289, -37.59134674, 16.28178787, -120.66647339, 107.17010498, -30.56058502, -28.93301201, -0.60746795, 0.71259433, -0.34541342, 0.06230325, 0.47396943, -0.34098420, 0.07333107, 100.05800629, 106.00524902, 32.27999878, 0.00000000
1, 2.1400, 236, -0.97506148, -0.49643400, 0.16853429, -11.73728085, -3.21677017, -106.18192291, -36.48056030, 14.82022762, -120.54954529, 107.02839661, -30.04831123, -28.77104187, -0.60807168, 0.71387768, -0.34223175, 0.05920276, 0.47200537, -0.33028641, 0.08189628, 100.05800629, 106.00524902, 32.27999878, 0.00000000
1, 2.1450, 237, -0.96124405, -0.51714742, 0.21078311, -9.94602585, 0.03154270, -100.06327820, -36.48056030, 14.82022762, -120.54954529, 106.89418030, -29.56969261, -28.60360527, -0.60863990, 0.71509439, -0.33914229, 0.05639162, 0.46545190, -0.31430149, 0.03892027, 100.05800629, 106.00524902, 32.27999878, 0.00000000
1, 2.1500, 238, -0.94585282, -0.55224550, 0.21848105, -9.40538311, 1.30142212, -91.76757050, -36.10055542, 16.69102669, -120.37416077, 106.77313995, -29.18427086, -28.44747734, -0.60916936, 0.71605301, -0.33651519, 0.05420714, 0.45647675, -0.28325248, 0.03042988, 100.05800629, 106.00524902, 32.27999878, 0.00000000
1, 2.1550, 239, -0.95060670, -0.56442940, 0.19790547, -9.35415649, 1.49218655, -85.13881683, -36.10055542, 16.69102669, -120.37416077, 106.65393829, -28.77860641, -28.30016518, -0.60968512, 0.71704036, -0.33384019, 0.05184616, 0.46719384, -0.27470255, 0.05018848, 100.05800629, 106.00524902, 32.27999878, 0.00000000
1, 2.1600, 240, -0.94699520, -0.58301294, 0.19145095, -8.02014542, 1.76875162, -77.26246643, -36.10055542, 16.69102669, -120.37416077, 106.54846191, -28.41081429, -28.16552734, -0.61013710, 0.71793938, -0.33139634, 0.04972267, 0.46934173, -0.25959766, 0.05592219, 100.05800629, 106.00524902, 32.27999878, 0.00000000
1, 2.1650, 241, -0.92930228, -0.59553313, 0.21866269, -7.49655724, 1.00233126, -71.22337341, -35.83747482, 14.44022179, -120.49108124, 106.45348358, -28.07070923, -28.04592514, -0.61054182, 0.71875924, -0.32915723, 0.04774355, 0.45690787, -0.25030011, 0.02811842, 100.05800629, 106.00524902, 32.27999878, 0.00000000
1, 2.1700, 242, -0.92026305, -0.59192765, 0.21439131, -8.17813206, -0.18422170, -65.52947235, -35.83747482, 14.44022179, -120.49108124, 106.36350250, -27.75609779, -27.94280052, -0.61093318, 0.71947551, -0.32712656, 0.04586929, 0.45282924, -0.25681847, 0.03181947, 100.05800629, 106.00524902, 32.27999878, 0.00000000
1, 2.1750, 243, -0.90875787, -0.57424772, 0.18524158, -7.92180729, 0.48347786, -59.83837509, -35.22361755, 16.60333252, -120.40338898, 106.27822113, -27.46958923, -27.84584999, -0.61130965, 0.72011095, -0.32525337, 0.04417145, 0.44593382, -0.27711251, 0.06040995, 100.05800629, 106.00524902, 32.27999878, 0.00000000
1, 2.1850, 244, -0.85679060, -0.55690348, 0.16737206, -5.07280397, 2.61808395, -48.99263000, -35.22361755, 16.60333252, -120.40338898, 106.13505554, -26.97913742, -27.66174126, -0.61193055, 0.72124773, -0.32191756, 0.04137522, 0.40182668, -0.29893959, 0.07736246, 100.05800629, 106.00524902, 32.27999878, 0.00000000
1, 2.1900, 245, -0.88555747, -0.52695918, 0.09200566, -4.68687391, 1.21571934, -44.08861160, -35.07746124, 15.72639561, -120.34492493, 106.07729340, -26.76899338, -27.58705521, -0.61217606, 0.72173524, -0.32050806, 0.04016681, 0.43413091, -0.33065587, 0.15227658, 100.05800629, 106.00524902, 32.27999878, 0.00000000
1, 2.1950, 246, -1.51729524, -0.32755181, 0.06231885, -6.21645117, -7.48191071, -30.46589088, -35.07746124, 15.72639561, -120.34492493, 106.04284668, -26.61232376, -27.58043289, -0.61232173, 0.72200531, -0.31976143, 0.03902854, 1.06866455, -0.53151131, 0.18047976, 100.05800629, 106.00524902, 32.27999878, 0.00000000
1, 2.2000, 247, -1.82862902, -0.34398106, 0.25370243, -2.61711287, -22.27097321, -2.01626778, -34.84361267, 15.87255192, -120.60800934, 106.08513641, -26.59007835, -27.69856453, -0.61208522, 0.72196305, -0.32038963, 0.03836256, 1.38050508, -0.51581240, -0.01136973, 100.05800629, 106.00524902, 32.27999878, 0.00000000
1, 2.2050, 248, -2.01069164, -1.31270862, 1.21671712, 50.88632202, -33.19649506, 44.57299423, -34.84361267, 15.87255192, -120.60800934, 106.45124054, -26.75734711, -27.94625282, -0.60993832, 0.72275388, -0.32258943, 0.03922052, 1.55841124, 0.45336512, -0.97260535, 100.05800629, 106.00524902, 32.27999878, 0.00000000
1, 2.2100, 249, -2.27770209, -1.84712887, 1.33907688, 53.89797974, -25.65133667, 60.83850861, -34.84361267, 15.87255192, -120.60800934, 106.82764435, -27.01174164, -28.18111801, -0.60776597, 0.72337586, -0.32509094, 0.04079108, 1.82120347, 0.99135566, -1.09074831, 100.05800629, 106.00524902, 32.27999878, 0.00000000
1, 2.2150, 250, -2.33984351, -1.84213626, 0.63405669, -18.25174904, -19.89846420, 53.55165100, -34.98976898, 16.42794418, -119.76029968, 106.82540894, -27.23967934, -28.37493515, -0.60795921, 0.72216749, -0.32734036, 0.04133016, 1.88140178, 0.98971522, -0.38513130, 100.05800629, 106.00524902, 32.27999878, 0.00000000
1, 2.2200, 251, -1.77302134, -1.31964600, -0.00994059, -24.57247543, 9.90428257, 46.00005341, -34.98976898, 16.42794418, -119.76029968, 106.71267700, -27.47448921, -28.39587784, -0.60878825, 0.72084075, -0.32856932, 0.04251646, 1.31262553, 0.46956885, 0.25903809, 100.05800629, 106.00524902, 32.27999878, 0.00000000
1, 2.2250, 252, -1.03544271, -1.29742301, -0.17394277, 5.31721592, 66.15868378, 39.24893570, -35.07746124, 15.78485775, -120.11107635, 106.60307312, -27.75681496, -28.10114288, -0.60949177, 0.72029650, -0.32802883, 0.04571585, 0.57127678, 0.44924259, 0.42274407, 100.05800629, 106.00524902, 32.27999878, 0.00000000
1, 2.2300, 253, -0.40786138, -1.43979895, -0.24012454, -6.04096413, 108.21896362, 25.63908005, -35.07746124, 15.78485775, -120.11107635, 106.31744385, -28.03244209, -27.55468178, -0.61117148, 0.71954775, -0.32595930, 0.04970989, -0.06050977, 0.59292984, 0.48619223, 100.05800629, 106.00524902, 32.27999878, 0.00000000
1, 2.2750, 254, -0.80573004, -0.91856384, 0.03490471, -16.23788452, -64.88288116, 31.56269073, -34.20052719, 15.98947620, -120.37416077, 105.00769043, -29.11001587, -26.16431427, -0.61901289, 0.71337563, -0.32282358, 0.06085440, 0.31942478, 0.07437474, 0.18750891, 100.05800629, 106.00524902, 32.27999878, 0.00000000
1, 2.2800, 255, -0.89716589, -0.73613751, 0.05133245, -15.36738300, -35.39094162, 25.03381729, -34.20052719, 15.98947620, -120.37416077, 105.04451752, -29.18553162, -26.39707184, -0.61892343, 0.71270066, -0.32460049, 0.06021697, 0.40968001, -0.10724062, 0.17182413, 100.05800629, 106.00524902, 32.27999878, 0.00000000
1, 2.2850, 256, -0.85685754, -0.53429329, 0.18701582, -15.09372234, -15.47192478, 18.03899574, -34.20052719, 15.98947620, -120.37416077, 105.02410126, -29.25290108, -26.50939751, -0.61912477, 0.71207792, -0.32561961, 0.06001238, 0.36796483, -0.30876407, 0.03628723, 100.05800629, 106.00524902, 32.27999878, 0.00000000
1, 2.2900, 257, -0.76120436, -0.37443730, 0.27964881, -14.69688320, -11.16980839, 13.05391979, -34.43437576, 15.93101406, -120.43261719, 104.99048615, -29.30176735, -26.59058380, -0.61938733, 0.71152449, -0.32636631, 0.05981173, 0.27126211, -0.46845704, -0.05644669, 100.05800629, 106.00524902, 32.27999878, 0.00000000
1, 2.2950, 258, -0.68815762, -0.26221153, 0.28059763, -14.29739285, -18.37777901, 10.17800999, -34.43437576, 15.93101406, -120.43261719, 104.97636414, -29.32751656, -26.70747185, -0.61954182, 0.71104032, -0.32721755, 0.05931530, 0.19772997, -0.58050418, -0.05740746, 100.05800629, 106.00524902, 32.27999878, 0.00000000
1, 2.3000, 259, -0.74508798, -0.15466473, 0.24045348, -12.30012703, -30.99669647, 8.37961483, -34.87284470, 16.42794418, -120.25723267, 105.04978180, -29.44676971, -26.91408539, -0.61922216, 0.71049976, -0.32900861, 0.05922291, 0.25375691, -0.68728256, -0.01679043, 100.05800629, 106.00524902, 32.27999878, 0.00000000
1, 2.3050, 260, -0.90560895, -0.06893848, 0.21971835, -6.90332937, -36.32455063, 7.34267235, -34.87284470, 16.42794418, -120.25723267, 105.11974335, -29.43534851, -27.12648010, -0.61889434, 0.71030003, -0.33023715, 0.05819878, 0.41357204, -0.77223724, 0.00478655, 100.05800629, 106.00524902, 32.27999878, 0.00000000
1, 2.3100, 261, -1.05938804, -0.05836143, 0.23720084, 0.99784857, -34.10055542, 6.03322315, -34.87284470, 16.42794418, -120.25723267, 105.22211456, -29.42012787, -27.32451820, -0.61835551, 0.71032548, -0.33134356, 0.05732117, 0.56752253, -0.78258210, -0.01163307, 100.05800629, 106.00524902, 32.27999878, 0.00000000
1, 2.3150, 262, -1.15868664, -0.21636055, 0.21289533, 5.90521383, -28.89238930, 2.65977955, -34.90207672, 16.86641312, -120.28646088, 105.33219910, -29.39505768, -27.48852158, -0.61774743, 0.71051764, -0.33219132, 0.05658393, 0.66721487, -0.62428486, 0.01383156, 100.05800629, 106.00524902, 32.27999878, 0.00000000
1, 2.3200, 263, -1.16991138, -0.45162332, 0.10397232, 5.40218925, -24.00871849, -3.66701460, -34.90207672, 16.86641312, -120.28646088, 105.42160797, -29.34566879, -27.61583900, -0.61724079, 0.71077472, -0.33271229, 0.05581945, 0.67938232, -0.38883042, 0.12382065, 100.05800629, 106.00524902, 32.27999878, 0.00000000
1, 2.3250, 264, -1.08802283, -0.82934713, -0.07107263, -2.59409285, -7.59720516, -6.78442335, -35.25284958, 16.10640144, -120.28646088, 105.42410278, -29.30293465, -27.64758301, -0.61722773, 0.71082109, -0.33271369, 0.05536335, 0.59861100, -0.01107761, 0.29896092, 100.05800629, 106.00524902, 32.27999878, 0.00000000
1, 2.3300, 265, -0.93578637, -1.10646415, -0.10591672, -8.99396706, 3.31979084, -9.70259762, -35.25284958, 16.10640144, -120.28646088, 105.36286163, -29.26063538, -27.61458588, -0.61757869, 0.71071064, -0.33234605, 0.05507404, 0.44708759, 0.26557431, 0.33315986, 100.05800629, 106.00524902, 32.27999878, 0.00000000
1, 2.3350, 266, -0.71485686, -1.26834714, -0.05445042, -13.79893112, 8.21891212, -15.30826950, -35.25284958, 16.10640144, -120.28646088, 105.26026917, -29.19773674, -27.54617500, -0.61816305, 0.71053940, -0.33168429, 0.05471554, 0.22689314, 0.42652392, 0.28070909, 100.05800629, 106.00524902, 32.27999878, 0.00000000
1, 2.3400, 267, -0.47419032, -1.35956097, 0.09718428, -13.52847672, 5.34267235, -20.21746826, -35.16515732, 16.74948883, -120.37416077, 105.16330719, -29.10728073, -27.48650169, -0.61870879, 0.71045226, -0.33094725, 0.05413897, -0.01287330, 0.51639789, 0.12822826, 100.05800629, 106.00524902, 32.27999878, 0.00000000
1, 2.3450, 268, -0.28008455, -1.38804746, 0.31478786, -12.73629951, -4.86403322, -22.81933022, -35.16515732, 16.74948883, -120.37416077, 105.09596252, -28.99092865, -27.47955322, -0.61908805, 0.71044689, -0.33040339, 0.05318727, -0.20584424, 0.54332769, -0.08980586, 100.05800629, 106.00524902, 32.27999878, 0.00000000
1, 2.3500, 269, -0.21010481, -1.33579171, 0.51253104, -14.49158478, -21.61865807, -23.44170761, -35.34054184, 16.57410049, -121.04647827, 105.07434082, -28.82654953, -27.56918144, -0.61921221, 0.71054876, -0.33021605, 0.05151789, -0.27407354, 0.48940802, -0.28749645, 100.05800629, 106.00524902, 32.27999878, 0.00000000
1, 2.3550, 270, -0.25898629, -1.23656178, 0.60808486, -15.18873692, -40.18272781, -22.29796791, -35.34054184, 16.57410049, -121.04647827, 105.08877563, -28.66709328, -27.75771904, -0.61915398, 0.71054542, -0.33064824, 0.04945156, -0.22287747, 0.38869527, -0.38253975, 100.05800629, 106.00524902, 32.27999878, 0.00000000
1, 2.3600, 271, -0.38105929, -1.14280295, 0.63786209, -12.43706512, -55.84558487, -21.79496765, -35.34054184, 16.57410049, -121.04647827, 105.15784454, -28.48960114, -28.03269005, -0.61877960, 0.71063852, -0.33151191, 0.04695319, -0.09822784, 0.29371426, -0.41126555, 100.05800629, 106.00524902, 32.27999878, 0.00000000
1, 2.4100, 272, -0.49609342, -0.80507612, 0.26326099, -9.67230129, -61.63515854, -38.02205658, -35.80824280, 16.95410728, -120.57877350, 105.87413788, -26.33763695, -30.48309708, -0.61399353, 0.71356368, -0.33673817, 0.02112620, 0.05071558, -0.05695014, -0.02110814, 100.05800629, 106.00524902, 32.27999878, 0.00000000
1, 2.4150, 273, -0.55992883, -0.86366594, 0.22343373, -10.93307590, -66.46028900, -39.17258835, -35.66208649, 17.21718788, -120.72492981, 105.95005035, -26.05874062, -30.77996445, -0.61339188, 0.71389896, -0.33731323, 0.01784695, 0.11897890, -0.00002435, 0.02019297, 100.05800629, 106.00524902, 32.27999878, 0.00000000
1, 2.4200, 274, -0.63410836, -0.91389632, 0.19996458, -9.80860901, -62.62815475, -40.25228119, -35.66208649, 17.21718788, -120.72492981, 106.02013397, -25.77954865, -31.05360222, -0.61280566, 0.71426940, -0.33774737, 0.01467421, 0.19760196, 0.04849971, 0.04506938, 100.05800629, 106.00524902, 32.27999878, 0.00000000
1, 2.4250, 275, -0.67921180, -0.94971442, 0.19606297, -8.69967079, -54.70637894, -41.93534470, -35.86670685, 16.72025681, -120.37416077, 106.07472229, -25.50286674, -31.28142929, -0.61229670, 0.71468222, -0.33791250, 0.01171902, 0.24707708, 0.08256049, 0.05026778, 100.05800629, 106.00524902, 32.27999878, 0.00000000
1, 2.4300, 276, -0.66330588, -0.98400629, 0.21070024, -6.79233170, -48.03826904, -43.34298325, -35.86670685, 16.72025681, -120.37416077, 106.12136841, -25.22842026, -31.47085571, -0.61182213, 0.71515721, -0.33785143, 0.00896163, 0.23546727, 0.11505557, 0.03690299, 100.05800629, 106.00524902, 32.27999878, 0.00000000
1, 2.4350, 277, -0.63451833, -1.00387537, 0.22770676, -5.76491499, -44.81885147, -43.59479904, -35.86670685, 16.72025681, -120.78339386, 106.16466522, -24.95705795, -31.64215279, -0.61135823, 0.71565670, -0.33769333, 0.00631282, 0.21094528, 0.13315228, 0.02118722, 100.05800629, 106.00524902, 32.27999878, 0.00000000
1, 2.4400, 278, -0.58676440, -1.00349748, 0.23047259, -6.37684202, -41.36616516, -43.99543762, -36.48056030, 16.42794418, -120.78339386, 106.19598389, -24.68846512, -31.79398537, -0.61096013, 0.71613967, -0.33742815, 0.00375190, 0.16743802, 0.13102388, 0.01960584, 100.05800629, 106.00524902, 32.27999878, 0.00000000
1, 2.4450, 279, -0.57745647, -0.97527730, 0.19200167, -7.13685465, -40.35501480, -44.31218719, -36.48056030, 16.42794418, -120.78339386, 106.22021484, -24.41969681, -31.93952560, -0.61059654, 0.71660167, -0.33712390, 0.00120288, 0.16248807, 0.10110512, 0.05908306, 100.05800629, 106.00524902, 32.27999878, 0.00000000
1, 2.4500, 280, -0.59374017, -0.93970752, 0.16730711, -6.98950291, -37.84469604, -44.35938644, -36.53902435, 16.48640823, -120.46185303, 106.22654724, -24.17187691, -32.06621933, -0.61035341, 0.71696264, -0.33679682, -0.00115417, 0.18293470, 0.06385428, 0.08452623, 100.05800629, 106.00524902, 32.27999878, 0.00000000
1, 2.4550, 281, -0.59618521, -0.91374731, 0.16108641, -5.18381310, -31.28051758, -44.36611557, -36.53902435, 16.48640823, -120.46185303, 106.23961639, -23.91538811, -32.16324997, -0.61005425, 0.71746898, -0.33624485, -0.00339262, 0.18938178, 0.03622903, 0.09140840, 100.05800629, 106.00524902, 32.27999878, 0.00000000
1, 2.4900, 282, -0.45251372, -0.94170856, 0.20561859, 0.84506500, -18.88011932, -48.03808975, -35.72055054, 16.42794418, -120.84185791, 106.32228088, -22.14132690, -32.43129730, -0.60791624, 0.72203517, -0.32988274, -0.01675107, 0.07407841, 0.05282791, 0.05184551, 100.05800629, 106.00524902, 32.27999878, 0.00000000
1, 2.4950, 283, -0.45207027, -0.94807971, 0.18325786, 1.67791498, -14.36435032, -48.67715073, -35.72055054, 16.42794418, -120.84185791, 106.33042908, -21.88754082, -32.43228149, -0.60762227, 0.72276449, -0.32873321, -0.01847437, 0.07779568, 0.05768806, 0.07483675, 100.05800629, 106.00524902, 32.27999878, 0.00000000
1, 2.5000, 284, -0.49422428, -0.91467261, 0.17591842, 0.99028796, -13.39404869, -48.71537018, -36.01286316, 16.04793930, -120.92955017, 106.31832123, -21.65804482, -32.42262268, -0.60747844, 0.72334790, -0.32762247, -0.02003254, 0.12388163, 0.02276924, 0.08250175, 100.05800629, 106.00524902, 32.27999878, 0.00000000
1, 2.5050, 285, -0.53429562, -0.90400338, 0.20408358, 2.35892677, -11.66210842, -47.81521225, -36.01286316, 16.04793930, -120.92955017, 106.32524872, -21.41217613, -32.41099167, -0.60719681, 0.72407866, -0.32642627, -0.02163814, 0.16772148, 0.01058774, 0.05465282, 100.05800629, 106.00524902, 32.27999878, 0.00000000
1, 2.5100, 286, -0.51739520, -0.94012249, 0.22912972, 4.46880674, -6.54257393, -47.01900101, -35.13592529, 15.63870239, -120.66647339, 106.33364868, -21.17725372, -32.37414169, -0.60691911, 0.72485596, -0.32511953, -0.02303093, 0.15462103, 0.04525667, 0.03015159, 100.05800629, 106.00524902, 32.27999878, 0.00000000
1, 2.5150, 287, -0.42330417, -0.97182894, 0.21950488, 4.40714741, -1.48778665, -47.21319962, -35.13592529, 15.63870239, -120.66647339, 106.33242798, -20.94846725, -32.31103516, -0.60671246, 0.72563636, -0.32367104, -0.02427006, 0.06429466, 0.07559943, 0.04038908, 100.05800629, 106.00524902, 32.27999878, 0.00000000
1, 2.5200, 288, -0.34916070, -0.96413362, 0.22281457, 3.09379888, 1.03040266, -48.11791992, -35.13592529, 15.63870239, -120.66647339, 106.31984711, -20.71887207, -32.23378754, -0.60657918, 0.72639424, -0.32212460, -0.02547195, -0.00611845, 0.06648431, 0.03752354, 100.05800629, 106.00524902, 32.27999878, 0.00000000
1, 2.5250, 289, -0.31458405, -0.91874623, 0.21375847, 2.17112136, 3.68213558, -48.63885498, -35.22361755, 16.63256264, -120.16954041, 106.29791260, -20.49046898, -32.14234543, -0.60650945, 0.72713464, -0.32048884, -0.02661652, -0.03693467, 0.01966675, 0.04682042, 100.05800629, 106.00524902, 32.27999878, 0.00000000
1, 2.5300, 290, -0.31742460, -0.87059379, 0.22182867, 3.92549849, 5.68123913, -48.57848740, -35.22361755, 16.63256264, -120.16954041, 106.28164673, -20.26508331, -32.04095840, -0.60640913, 0.72791988, -0.31880239, -0.02767162, -0.03041277, -0.02990687, 0.03892025, 100.05800629, 106.00524902, 32.27999878, 0.00000000
1, 2.5350, 291, -0.34265873, -0.85618460, 0.27225208, 5.66986227, 5.71405029, -47.86381149, -35.25284958, 16.36948204, -121.01724243, 106.27484131, -20.04314804, -31.94066238, -0.60625207, 0.72873807, -0.31713837, -0.02868244, -0.00165847, -0.04572828, -0.01130764, 100.05800629, 106.00524902, 32.27999878, 0.00000000
1, 2.5650, 292, -0.40511587, -0.89543056, 0.24221897, 4.55468607, 16.06715202, -45.67498016, -34.87284470, 15.90178299, -120.69570160, 106.20466614, -18.78891182, -31.41250420, -0.60555601, 0.73299479, -0.30792445, -0.03468554, 0.08161610, -0.01376875, 0.01954242, 100.05800629, 106.00524902, 32.27999878, 0.00000000
1, 2.5700, 293, -0.34405410, -0.90770054, 0.24845670, 3.36016917, 17.60830879, -46.46429062, -34.87284470, 15.90178299, -120.69570160, 106.17050171, -18.59006310, -31.25522232, -0.60561597, 0.73373014, -0.30597830, -0.03530981, 0.02380972, -0.00272462, 0.01322912, 100.05800629, 106.00524902, 32.27999878, 0.00000000
1, 2.5750, 294, -0.32398555, -0.88368940, 0.27662703, 2.47360444, 17.23417473, -47.16296387, -34.46360779, 15.22946453, -120.78339386, 106.13277435, -18.38725662, -31.09911919, -0.60569543, 0.73444718, -0.30401677, -0.03597618, 0.00701564, -0.02802924, -0.01512687, 100.05800629, 106.00524902, 32.27999878, 0.00000000
1, 2.5800, 295, -0.30037093, -0.86274576, 0.31237891, 2.49043083, 18.80005455, -47.09080505, -34.46360779, 15.22946453, -120.78339386, 106.09333038, -18.18684959, -30.93552589, -0.60579211, 0.73516273, -0.30201465, -0.03659014, -0.01335371, -0.05027336, -0.05110286, 100.05800629, 106.00524902, 32.27999878, 0.00000000
1, 2.5850, 296, -0.25943455, -0.87088764, 0.35685262, 3.32489204, 20.53308296, -46.42918015, -33.99590683, 15.08330917, -120.69570160, 106.05624390, -17.99190331, -30.76444244, -0.60588318, 0.73589075, -0.29998761, -0.03711991, -0.05114345, -0.04340415, -0.09579758, 100.05800629, 106.00524902, 32.27999878, 0.00000000
1, 2.5900, 297, -0.21087924, -0.90214634, 0.40539944, 3.15326095, 20.16756248, -45.76971817, -33.99590683, 15.08330917, -120.69570160, 106.01983643, -17.79951096, -30.59647751, -0.60597283, 0.73660165, -0.29798964, -0.03764595, -0.09662008, -0.01338592, -0.14456233, 100.05800629, 106.00524902, 32.27999878, 0.00000000
1, 2.5950, 298, -0.17502664, -0.91098380, 0.38736832, 0.61391300, 15.41211128, -45.92084503, -33.99590683, 15.08330917, -120.69570160, 105.97859955, -17.59980583, -30.45262337, -0.60607940, 0.73723578, -0.29610741, -0.03836131, -0.12915120, -0.00571074, -0.12680767, 100.05800629, 106.00524902, 32.27999878, 0.00000000
1, 2.6000, 299, -0.20020500, -0.88704252, 0.35226741, -1.86704898, 8.83857727, -45.76552963, -34.05437088, 15.49254608, -121.16339874, 105.95779419, -17.37138367, -30.34925270, -0.60601199, 0.73793650, -0.29435378, -0.03943414, -0.10027487, -0.03083692, -0.09192389, 100.05800629, 106.00524902, 32.27999878, 0.00000000
1, 2.6050, 300, -0.28745517, -0.88877034, 0.30112964, -1.77708983, -1.32030296, -44.78199005, -34.05437088, 15.49254608, -121.16339874, 105.93133545, -17.15420341, -30.29187584, -0.60597658, 0.73845792, -0.29294518, -0.04068717, -0.00914266, -0.03024307, -0.04100500, 100.05800629, 106.00524902, 32.27999878, 0.00000000
1, 2.6100, 301, -0.31426510, -0.93105137, 0.25184458, -1.00066423, -0.57339793, -43.68745041, -33.87898254, 15.25869656, -121.39724731, 105.90837097, -16.94327354, -30.23246002, -0.60592538, 0.73898453, -0.29155219, -0.04187712, 0.02133916, 0.01096214, 0.00807109, 100.05800629, 106.00524902, 32.27999878, 0.00000000
1, 2.6750, 302, -0.24412300, -0.88778555, 0.17921017, -1.36415493, 2.16199017, -34.36384964, -31.30663490, 14.20637226, -122.06957245, 105.35035706, -14.66341591, -28.39153099, -0.60789841, 0.74564922, -0.26843309, -0.04909806, -0.01015249, -0.04522955, 0.07486337, 100.05800629, 106.00524902, 32.27999878, 0.00000000
1, 2.6800, 303, -0.29123992, -0.87808490, 0.16242722, -0.31572551, 6.59920168, -34.55184937, -31.30663490, 14.20637226, -122.06957245, 105.32823944, -14.50541782, -28.31170464, -0.60791332, 0.74605644, -0.26713392, -0.04980659, 0.03970220, -0.05567709, 0.09138187, 100.05800629, 106.00524902, 32.27999878, 0.00000000
1, 2.6850, 304, -0.28097552, -0.88135076, 0.17599657, 0.90724939, 14.36911678, -34.20695496, -32.21280289, 15.11254025, -121.48494720, 105.30296326, -14.35922432, -28.19373703, -0.60797817, 0.74650753, -0.26564124, -0.05023905, 0.03192922, -0.05317247, 0.07760149, 100.05800629, 106.00524902, 32.27999878, 0.00000000
1, 2.6900, 305, -0.24426062, -0.89628863, 0.22065337, 1.67045546, 19.12436104, -33.22702789, -32.21280289, 15.11254025, -121.48494720, 105.27631378, -14.22394276, -28.05358124, -0.60807359, 0.74697596, -0.26405507, -0.05048183, -0.00256944, -0.03899809, 0.03274061, 100.05800629, 106.00524902, 32.27999878, 0.00000000
1, 2.6950, 306, -0.22172603, -0.90269423, 0.28040871, 1.64432144, 18.51394463, -32.47009277, -32.21280289, 15.11254025, -121.48494720, 105.25084686, -14.09146214, -27.91761971, -0.60816306, 0.74743146, -0.26250899, -0.05072447, -0.02300633, -0.03335460, -0.02724534, 100.05800629, 106.00524902, 32.27999878, 0.00000000
1, 2.7000, 307, -0.20708059, -0.90872610, 0.29955825, 1.04952312, 14.87394524, -31.95339394, -31.45279121, 15.20023346, -121.95264435, 105.24053192, -13.94738388, -27.80383873, -0.60813266, 0.74793738, -0.26105610, -0.05112913, -0.03535246, -0.02799774, -0.04649519, 100.05800629, 106.00524902, 32.27999878, 0.00000000
1, 2.7050, 308, -0.18765041, -0.91022170, 0.26271310, 0.60628980, 10.40564251, -31.70373726, -31.45279121, 15.20023346, -121.95264435, 105.22052765, -13.80794907, -27.70946693, -0.60816199, 0.74833494, -0.25974703, -0.05162689, -0.05227028, -0.02708527, -0.00968487, 100.05800629, 106.00524902, 32.27999878, 0.00000000
1, 2.7100, 309, -0.15331547, -0.93719852, 0.21316500, 0.60569316, 7.57746744, -31.42061615, -30.92663002, 14.70330334, -121.60186768, 105.20420074, -13.66615582, -27.62961960, -0.60815871, 0.74872142, -0.25852177, -0.05220927, -0.08408374, -0.00067074, 0.03977816, 100.05800629, 106.00524902, 32.27999878, 0.00000000
1, 2.7150, 310, -0.15508153, -0.94807792, 0.19764735, 1.16391885, 8.54967499, -31.08908081, -30.92663002, 14.70330334, -121.60186768, 105.18985748, -13.52720451, -27.54548836, -0.60814756, 0.74911976, -0.25728229, -0.05274472, -0.07989860, 0.00961077, 0.05518124, 100.05800629, 106.00524902, 32.27999878, 0.00000000
1, 2.7200, 311, -0.17520393, -0.96240699, 0.19329922, 2.40126681, 12.27060699, -30.38520050, -30.92663002, 14.70330334, -121.60186768, 105.17783356, -13.39646149, -27.44389915, -0.60813814, 0.74955022, -0.25596905, -0.05312607, -0.05751637, 0.02337032, 0.05939253, 100.05800629, 106.00524902, 32.27999878, 0.00000000
1, 2.7600, 312, -0.10174630, -1.01504004, 0.26642880, 4.27499723, 35.88949585, -21.04798889, -29.61122513, 11.86787510, -121.39724731, 105.03461456, -12.69264317, -26.11151695, -0.60897440, 0.75309253, -0.24368677, -0.05117372, -0.11886980, 0.07250968, -0.01519544, 100.05800629, 106.00524902, 32.27999878, 0.00000000
1, 2.7650, 313, -0.10123476, -1.02711236, 0.25343132, 5.11239767, 37.56769943, -19.54645538, -29.61122513, 11.86787510, -121.39724731, 105.01348114, -12.64654160, -25.89966011, -0.60916221, 0.75351822, -0.24205549, -0.05040770, -0.11851674, 0.08432375, -0.00253533, 100.05800629, 106.00524902, 32.27999878, 0.00000000
1, 2.7700, 314, -0.08272958, -1.03258896, 0.26899514, 6.27904654, 41.41055679, -18.13772774, -29.23121834, 14.79099655, -121.77725983, 104.99459076, -12.61210632, -25.67069244, -0.60935295, 0.75396591, -0.24036978, -0.04946557, -0.13640483, 0.08954856, -0.01833810, 100.05800629, 106.00524902, 32.27999878, 0.00000000
1, 2.7750, 315, -0.05032001, -1.03131533, 0.31003863, 6.58965158, 48.50814056, -16.21989822, -29.23121834, 14.79099655, -121.77725983, 104.97026825, -12.59596062, -25.40913200, -0.60960919, 0.75441396, -0.23855750, -0.04823564, -0.16858530, 0.08803843, -0.05964471, 100.05800629, 106.00524902, 32.27999878, 0.00000000
1, 2.7800, 316, -0.03087693, -1.00671899, 0.33640021, 5.18094254, 50.55763245, -15.03144550, -29.23121834, 14.79099655, -121.77725983, 104.93709564, -12.58808613, -25.13900757, -0.60993242, 0.75481254, -0.23672561, -0.04692093, -0.18793188, 0.06322588, -0.08642566, 100.05800629, 106.00524902, 32.27999878, 0.00000000
1, 2.7850, 317, -0.00584346, -0.98339379, 0.32809287, 4.88290119, 46.06723785, -13.80269909, -28.38351250, 14.79099655, -121.68955994, 104.90766907, -12.58026123, -24.89274979, -0.61021858, 0.75517756, -0.23505211, -0.04572396, -0.21282032, 0.03975106, -0.07852177, 100.05800629, 106.00524902, 32.27999878, 0.00000000
1, 2.7900, 318, 0.02841365, -0.96180141, 0.17514487, 4.83533335, 35.83808899, -11.38194370, -28.38351250, 14.79099655, -121.68955994, 104.88983154, -12.57096004, -24.70032883, -0.61040378, 0.75549358, -0.23373024, -0.04479926, -0.24653813, 0.01828064, 0.07420036, 100.05800629, 106.00524902, 32.27999878, 0.00000000
1, 2.7950, 319, 0.06789862, -1.09004653, 0.19683430, 4.33255005, 28.19244194, -7.91235304, -28.96813774, 14.79099655, -121.86495209, 104.87875366, -12.56865501, -24.55032921, -0.61053288, 0.75574410, -0.23272529, -0.04403849, -0.28595400, 0.14643259, 0.05228977, 100.05800629, 106.00524902, 32.27999878, 0.00000000
1, 2.8000, 320, -0.31740555, -0.95779121, 0.48124975, 0.29253513, 71.57666016, -5.74022627, -28.96813774, 14.79099655, -121.86495209, 104.81260681, -12.63012314, -24.19075203, -0.61115807, 0.75600439, -0.23063663, -0.04183480, 0.09786785, 0.01362275, -0.23387447, 100.05800629, 106.00524902, 32.27999878, 0.00000000
1, 2.8050, 321, 0.12595572, -0.86989260, 0.33464408, -6.62003756, 69.16647339, -7.95301771, -28.96813774, 14.79099655, -121.86495209, 104.70201874, -12.67929649, -23.83755875, -0.61205560, 0.75603092, -0.22851393, -0.03983486, -0.34610713, -0.07425082, -0.08770102, 100.05800629, 106.00524902, 32.27999878, 0.00000000
1, 2.8500, 322, -0.08724856, -0.98374414, 0.31468648, -1.89983082, 4.88444662, 16.35827065, -28.52966881, 14.32329750, -122.18649292, 104.57376099, -13.15621567, -23.13344574, -0.61351156, 0.75586486, -0.22622770, -0.03306136, -0.14137030, 0.04080072, -0.07171911, 100.05800629, 106.00524902, 32.27999878, 0.00000000
1, 2.8550, 323, -0.11572588, -0.96738684, 0.31200624, -3.25299120, 5.13837242, 16.90732956, -28.52966881, 14.32329750, -122.18649292, 104.55683136, -13.24453354, -23.12960243, -0.61369264, 0.75561929, -0.22664234, -0.03247003, -0.11378071, 0.02465429, -0.06912181, 100.05800629, 106.00524902, 32.27999878, 0.00000000
1, 2.8600, 324, -0.16126981, -0.94107521, 0.32221460, -3.53730297, 8.28207302, 17.89723587, -28.79274940, 14.41099072, -121.74802399, 104.53517151, -13.34156418, -23.11135101, -0.61391503, 0.75536025, -0.22700459, -0.03175141, -0.06986587, -0.00139833, -0.07984305, 100.05800629, 106.00524902, 32.27999878, 0.00000000
1, 2.8650, 325, -0.18702736, -0.94383311, 0.33664179, -2.57701492, 11.59505558, 19.54132652, -28.79274940, 14.41099072, -121.74802399, 104.51494598, -13.45066929, -23.07866669, -0.61414039, 0.75511485, -0.22733314, -0.03087008, -0.04594928, 0.00166350, -0.09478542, 100.05800629, 106.00524902, 32.27999878, 0.00000000
1, 2.8700, 326, -0.20206651, -0.96954823, 0.34511182, -2.41664410, 10.31901646, 20.52538490, -28.64659500, 14.99561501, -122.04033661, 104.49726105, -13.56293201, -23.05354881, -0.61434829, 0.75486147, -0.22772829, -0.03000271, -0.03283538, 0.02772900, -0.10374898, 100.05800629, 106.00524902, 32.27999878, 0.00000000
1, 2.8750, 327, -0.22048187, -0.98351777, 0.29994375, -4.66272545, 7.76270580, 20.28273201, -28.64659500, 14.99561501, -122.04033661, 104.47119904, -13.67086315, -23.04081726, -0.61460400, 0.75454623, -0.22818118, -0.02924812, -0.01616224, 0.04210870, -0.05914001, 100.05800629, 106.00524902, 32.27999878, 0.00000000
1, 2.8800, 328, -0.24988368, -0.96462035, 0.25807482, -6.14066887, 6.27097654, 19.49484253, -28.64659500, 14.99561501, -122.04033661, 104.43923950, -13.77314377, -23.03445625, -0.61489189, 0.75419647, -0.22864629, -0.02857831, 0.01159285, 0.02356018, -0.01793537, 100.05800629, 106.00524902, 32.27999878, 0.00000000
1, 2.8850, 329, -0.29141665, -0.95551836, 0.26051813, -3.98511171, 13.26186752, 19.24846077, -28.61736298, 14.29406548, -121.33879089, 104.40959930, -13.88285542, -22.99284172, -0.61517775, 0.75391501, -0.22891767, -0.02766398, 0.05130001, 0.01476085, -0.02106843, 100.05800629, 106.00524902, 32.27999878, 0.00000000
1, 2.8900, 330, -0.27737236, -0.96129143, 0.24930172, -3.27296710, 19.17883110, 19.69589424, -28.61736298, 14.29406548, -121.33879089, 104.37644196, -14.00201130, -22.92216492, -0.61549902, 0.75365454, -0.22904508, -0.02653615, 0.03530685, 0.02088914, -0.01048392, 100.05800629, 106.00524902, 32.27999878, 0.00000000
1, 2.8950, 331, -0.23759846, -0.98256576, 0.22955348, -2.35578871, 22.89774704, 20.36875153, -28.55890083, 13.62174797, -121.60186768, 104.34339142, -14.12896061, -22.83365822, -0.61582702, 0.75341517, -0.22909513, -0.02525888, -0.00654191, 0.04257121, 0.00865448, 100.05800629, 106.00524902, 32.27999878, 0.00000000
1, 2.9450, 332, -0.29196456, -0.97402120, 0.21708450, -2.62774086, 21.59916878, 19.21959114, -28.35428238, 15.05407715, -121.39724731, 104.02875519, -15.32424355, -22.15185738, -0.61879545, 0.75081372, -0.23059410, -0.01405145, 0.02763581, 0.03788691, 0.01455739, 100.05800629, 106.00524902, 32.27999878, 0.00000000
1, 2.9500, 333, -0.29317880, -0.96813762, 0.24162498, -2.72385907, 20.66421700, 18.95316505, -28.35428238, 15.05407715, -121.39724731, 103.99633789, -15.44596577, -22.07210159, -0.61909038, 0.75056487, -0.23068233, -0.01285498, 0.02677569, 0.03236423, -0.01065247, 100.05800629, 106.00524902, 32.27999878, 0.00000000
1, 2.9550, 334, -0.30031064, -0.97058034, 0.26359022, -3.66074061, 21.63480377, 18.81296158, -28.35428238, 15.05407715, -121.39724731, 103.95540619, -15.56328773, -21.98656464, -0.61943680, 0.75028974, -0.23071019, -0.01167430, 0.03184345, 0.03515567, -0.03339572, 100.05800629, 106.00524902, 32.27999878, 0.00000000
1, 2.9600, 335, -0.29089382, -0.98164392, 0.27014366, -4.24251509, 22.70714188, 18.91603279, -28.52966881, 15.02484608, -121.83571625, 103.90991974, -15.68233013, -21.89558983, -0.61981219, 0.74999708, -0.23071164, -0.01046157, 0.02041753, 0.04656724, -0.04080751, 100.05800629, 106.00524902, 32.27999878, 0.00000000
1, 2.9650, 336, -0.30087602, -1.01786995, 0.27814594, -4.42964268, 23.53513336, 19.18351555, -28.52966881, 15.02484608, -121.83571625, 103.86225128, -15.80358982, -21.80063248, -0.62020099, 0.74969584, -0.23069900, -0.00921646, 0.02834862, 0.08314596, -0.04979389, 100.05800629, 106.00524902, 32.27999878, 0.00000000
1, 2.9700, 337, -0.32004744, -1.05070710, 0.28035322, -5.62509871, 25.20968437, 18.64275932, -27.59427071, 14.11867905, -121.30955505, 103.80583954, -15.92414951, -21.69637489, -0.62064457, 0.74936682, -0.23062247, -0.00794315, 0.04548712, 0.11632048, -0.05312130, 100.05800629, 106.00524902, 32.27999878, 0.00000000
1, 2.9750, 338, -0.34479624, -1.08034945, 0.28124496, -6.76440048, 28.07420921, 17.88428688, -27.59427071, 14.11867905, -121.30955505, 103.73921967, -16.04431343, -21.57651711, -0.62115270, 0.74901402, -0.23044263, -0.00660834, 0.06821373, 0.14626601, -0.05530499, 100.05800629, 106.00524902, 32.27999878, 0.00000000
1, 2.9800, 339, -0.38250926, -1.09759963, 0.27440640, -7.46672201, 32.93862915, 16.67719078, -27.59427071, 14.11867905, -121.30955505, 103.66154480, -16.16419029, -21.43035126, -0.62173080, 0.74865389, -0.23009060, -0.00515461, 0.10393386, 0.16379255, -0.04994384, 100.05800629, 106.00524902, 32.27999878, 0.00000000
1, 3.0150, 340, -0.15122065, -1.25292730, 0.17592528, -7.69414186, 62.54225159, 12.37323952, -27.74042702, 15.60947037, -121.77725983, 102.95274353, -17.00432205, -19.90462494, -0.62671399, 0.74619508, -0.22442533, 0.00746639, -0.14113021, 0.32064617, 0.03654528, 100.05800629, 106.00524902, 32.27999878, 0.00000000
1, 3.0200, 341, -0.18667458, -1.22919548, 0.27753305, -8.00483036, 55.94905853, 12.67572021, -27.33119011, 15.52177715, -121.71879578, 102.83345795, -17.12820625, -19.63398743, -0.62751555, 0.74583310, -0.22330718, 0.00955530, -0.10801946, 0.29691702, -0.06723803, 100.05800629, 106.00524902, 32.27999878, 0.00000000
1, 3.0250, 342, -0.23820412, -1.25297141, 0.34672576, -9.02432442, 46.49716568, 14.28612137, -27.33119011, 15.52177715, -121.71879578, 102.72323608, -17.24905586, -19.41301346, -0.62825382, 0.74542725, -0.22249982, 0.01137137, -0.05868937, 0.32077652, -0.13855410, 100.05800629, 106.00524902, 32.27999878, 0.00000000
1, 3.0300, 343, -0.19868310, -1.29560649, 0.31811163, -13.17599392, 40.09174347, 15.55333042, -27.33119011, 15.52177715, -121.71879578, 102.60182953, -17.36874390, -19.22584152, -0.62906182, 0.74489498, -0.22191101, 0.01297407, -0.10013479, 0.36363524, -0.11195305, 100.05800629, 106.00524902, 32.27999878, 0.00000000
1, 3.0350, 344, -0.14212118, -1.31208634, 0.21742834, -16.61564064, 39.19497299, 15.40048027, -26.16194153, 15.43408298, -121.60186768, 102.46411896, -17.48634911, -19.04268837, -0.62997025, 0.74426752, -0.22134322, 0.01451036, -0.15841797, 0.38039526, -0.01347977, 100.05800629, 106.00524902, 32.27999878, 0.00000000
1, 3.0400, 345, -0.17243899, -1.30737758, 0.20571531, -14.63881969, 43.13830566, 14.34763813, -26.16194153, 15.43408298, -121.60186768, 102.32929993, -17.60256004, -18.83773232, -0.63085103, 0.74369889, -0.22063024, 0.01616432, -0.13000639, 0.37581372, -0.00418083, 100.05800629, 106.00524902, 32.27999878, 0.00000000
1, 3.0450, 346, -0.27996340, -1.29534042, 0.33879566, -11.60969257, 51.23620224, 13.27526665, -27.06810760, 15.69716454, -121.89418030, 102.19615936, -17.72158432, -18.58963394, -0.63170898, 0.74321479, -0.21965583, 0.01808005, -0.02477997, 0.36369798, -0.13980351, 100.05800629, 106.00524902, 32.27999878, 0.00000000
1, 3.0500, 347, -0.32124981, -1.32562459, 0.37818161, -10.43321991, 53.89911270, 13.04334545, -27.06810760, 15.69716454, -121.89418030, 102.06903076, -17.83619881, -18.32869339, -0.63251734, 0.74279422, -0.21857876, 0.02005066, 0.01446359, 0.39406925, -0.18159166, 100.05800629, 106.00524902, 32.27999878, 0.00000000
1, 3.0550, 348, -0.28587106, -1.40932691, 0.33710465, -12.76121807, 52.08900833, 12.15353203, -27.06810760, 15.69716454, -121.45571136, 101.92716217, -17.94954300, -18.07411575, -0.63341445, 0.74227971, -0.21754335, 0.02195198, -0.02269651, 0.47796458, -0.14288551, 100.05800629, 106.00524902, 32.27999878, 0.00000000
1, 3.0600, 349, -0.27420515, -1.41624475, 0.23602976, -17.60406685, 51.93862152, 9.40742111, -27.47734642, 13.59251690, -121.45571136, 101.75977325, -18.04869080, -17.81690216, -0.63446623, 0.74165303, -0.21642704, 0.02372658, -0.03581671, 0.48504001, -0.04452024, 100.05800629, 106.00524902, 32.27999878, 0.00000000
1, 3.0800, 350, -0.23468047, -1.38030171, 0.33811808, -14.28884697, 73.56130981, 3.64131594, -26.48348427, 15.25869656, -121.22186279, 101.03154755, -18.41164398, -16.42995453, -0.63887835, 0.73950577, -0.20954311, 0.03251947, -0.08164902, 0.44850200, -0.15860318, 100.05800629, 106.00524902, 32.27999878, 0.00000000
1, 3.0850, 351, -0.18789469, -1.41433418, 0.30394021, -15.90458012, 74.39353180, 1.75385034, -26.48348427, 15.25869656, -121.22186279, 100.83068848, -18.49038887, -16.04659462, -0.64006585, 0.73893750, -0.20754454, 0.03482106, -0.12970093, 0.48240790, -0.12766939, 100.05800629, 106.00524902, 32.27999878, 0.00000000
1, 3.0900, 352, -0.17930777, -1.42619383, 0.25878561, -18.17395973, 76.05153656, -1.40254247, -26.48348427, 15.25869656, -121.22186279, 100.61415863, -18.55385399, -15.65113926, -0.64133924, 0.73832333, -0.20539938, 0.03706676, -0.13929227, 0.49405158, -0.08603624, 100.05800629, 106.00524902, 32.27999878, 0.00000000
1, 3.0950, 353, -0.21099724, -1.39594889, 0.23634475, -19.00588799, 79.33454895, -4.99418020, -26.04501534, 15.84332085, -120.87108612, 100.38643646, -18.60117149, -15.23482895, -0.64266700, 0.73770362, -0.20304540, 0.03930950, -0.10839552, 0.46343952, -0.06734716, 100.05800629, 106.00524902, 32.27999878, 0.00000000
1, 3.1000, 354, -0.19137189, -1.37403154, 0.24576522, -18.46154404, 83.72210693, -7.66565323, -26.04501534, 15.84332085, -120.87108612, 100.15323639, -18.62510109, -14.79302216, -0.64401102, 0.73712921, -0.20041209, 0.04153900, -0.12857902, 0.44099697, -0.08048451, 100.05800629, 106.00524902, 32.27999878, 0.00000000
1, 3.1050, 355, -0.13391611, -1.36886954, 0.24604248, -18.80573654, 88.09759521, -10.15084076, -26.04501534, 15.84332085, -121.68955994, 99.90980530, -18.65135956, -14.32593250, -0.64540040, 0.73652428, -0.19763999, 0.04391899, -0.18640354, 0.43525773, -0.08456123, 100.05800629, 106.00524902, 32.27999878, 0.00000000
1, 3.1100, 356, -0.05419835, -1.37439179, 0.21602611, -20.58872795, 99.64084625, -12.83244133, -25.84039688, 15.78485775, -121.68955994, 99.63720703, -18.67212868, -13.79623318, -0.64694053, 0.73585695, -0.19445620, 0.04657762, -0.26642025, 0.44020659, -0.05868480, 100.05800629, 106.00524902, 32.27999878, 0.00000000
1, 3.1150, 357, -0.04193122, -1.36879528, 0.19653620, -21.49627304, 103.58854675, -15.11034107, -25.84039688, 15.78485775, -121.68955994, 99.35264587, -18.68245125, -13.24385738, -0.64853460, 0.73515975, -0.19108555, 0.04928976, -0.27885383, 0.43393868, -0.04376698, 100.05800629, 106.00524902, 32.27999878, 0.00000000
1, 3.1200, 358, -0.04990425, -1.36794817, 0.19572882, -21.39025879, 106.20738220, -16.80187988, -24.99269104, 12.77404213, -121.36801910, 99.06368256, -18.68388557, -12.67635727, -0.65013635, 0.73445755, -0.18758200, 0.05203755, -0.27093613, 0.43234438, -0.04767890, 100.05800629, 106.00524902, 32.27999878, 0.00000000
1, 3.1250, 359, -0.02694519, -1.36364901, 0.18413572, -22.58595848, 110.68531799, -18.04695892, -24.99269104, 12.77404213, -121.36801910, 98.76094818, -18.67983627, -12.08449554, -0.65180045, 0.73370397, -0.18390964, 0.05488233, -0.29381865, 0.42727688, -0.04089838, 100.05800629, 106.00524902, 32.27999878, 0.00000000
1, 3.1700, 360, 0.06341913, -1.13037789, 0.10535634, -16.57013893, 92.40518188, -19.08503723, -22.59573174, 16.36948204, -120.43261719, 96.13666534, -18.32938004, -6.57282114, -0.66542143, 0.72713614, -0.14836176, 0.08047531, -0.37833321, 0.18653850, -0.00462043, 100.05800629, 106.00524902, 32.27999878, 0.00000000
1, 3.1750, 361, 0.07259109, -1.13885677, 0.18175913, -12.48232651, 90.78874969, -14.09303761, -22.59573174, 16.36948204, -120.43261719, 95.92219543, -18.30638313, -6.08955908, -0.66645056, 0.72654009, -0.14531833, 0.08286070, -0.38721508, 0.19434716, -0.08462738, 100.05800629, 106.00524902, 32.27999878, 0.00000000
1, 3.1800, 362, 0.16402395, -1.16124952, 0.23920904, -12.25648022, 85.24618530, -7.98873138, -22.09880066, 17.71411896, -120.28646088, 95.71919250, -18.30932808, -5.63865614, -0.66740459, 0.72592115, -0.14262640, 0.08524884, -0.47873074, 0.21627788, -0.14526869, 100.05800629, 106.00524902, 32.27999878, 0.00000000
1, 3.1850, 363, 0.23543584, -1.16087627, 0.31126893, -12.69931316, 70.67092133, -0.19839549, -22.09880066, 17.71411896, -120.28646088, 95.53919220, -18.34259415, -5.26807737, -0.66824430, 0.72528672, -0.14060609, 0.08739968, -0.55073911, 0.21561703, -0.22025098, 100.05800629, 106.00524902, 32.27999878, 0.00000000
1, 3.1900, 364, 0.28411490, -1.18388546, 0.35809553, -13.55439186, 49.17741013, 8.34364510, -22.09880066, 17.71411896, -120.28646088, 95.39152527, -18.40733147, -5.01425409, -0.66894090, 0.72465187, -0.13948572, 0.08911517, -0.60048342, 0.23861606, -0.26958802, 100.05800629, 106.00524902, 32.27999878, 0.00000000
1, 3.1950, 365, 0.40550709, -1.15879452, 0.28292757, -16.04153442, 21.37496185, 16.47566795, -21.92341423, 17.59719276, -121.04647827, 95.27854156, -18.49933815, -4.91000080, -0.66951227, 0.72400069, -0.13944422, 0.09017558, -0.72309625, 0.21392532, -0.19614470, 100.05800629, 106.00524902, 32.27999878, 0.00000000
1, 3.2000, 366, 0.44505391, -1.07757950, 0.23805611, -11.40246487, -9.99815369, 26.46489525, -21.92341423, 17.59719276, -121.04647827, 95.26592255, -18.51436234, -4.98240328, -0.66963881, 0.72381932, -0.13999796, 0.08983326, -0.76354855, 0.13305108, -0.15185022, 100.05800629, 106.00524902, 32.27999878, 0.00000000
1, 3.2050, 367, 0.33475852, -1.07826650, 0.32411906, 0.86361736, -33.44014359, 38.19352722, -21.98187637, 17.50950050, -120.66647339, 95.33259583, -18.68936348, -5.17636299, -0.66925305, 0.72374290, -0.14217696, 0.08990234, -0.65522677, 0.13426812, -0.23736271, 100.05800629, 106.00524902, 32.27999878, 0.00000000
1, 3.2100, 368, 0.14696653, -1.17720270, 0.50325602, 8.45469570, -49.61729431, 50.33008957, -21.98187637, 17.50950050, -120.66647339, 95.46752930, -18.91688728, -5.46188259, -0.66847390, 0.72387165, -0.14518034, 0.08986234, -0.47142479, 0.23429602, -0.41524634, 100.05800629, 106.00524902, 32.27999878, 0.00000000
1, 3.2150, 369, -0.07510325, -1.30825412, 0.58261079, 7.31325674, -62.00166321, 59.47847366, -21.98187637, 17.50950050, -120.66647339, 95.62115479, -19.18339729, -5.81824970, -0.66760778, 0.72394967, -0.14883693, 0.08969100, -0.25384548, 0.36692691, -0.49302372, 100.05800629, 106.00524902, 32.27999878, 0.00000000
1, 3.2500, 370, -0.91606218, -1.40689206, 0.34409061, -19.53337288, 12.08531761, 130.21827698, -24.96346092, 18.03566170, -119.96492004, 95.73564148, -22.77964592, -7.37518597, -0.66568983, 0.71696842, -0.17896348, 0.10385370, 0.53073740, 0.48784709, -0.25606102, 100.05800629, 106.00524902, 32.27999878, 0.00000000
1, 3.2550, 371, -1.08560050, -1.58722067, 0.19966158, -17.93272018, 26.73438835, 143.13081360, -25.46039200, 16.31101990, -119.84799957, 95.62058258, -23.50510788, -7.30626011, -0.66578859, 0.71520281, -0.18273370, 0.10871515, 0.68925464, 0.67304337, -0.11450718, 100.05800629, 106.00524902, 32.27999878, 0.00000000
1, 3.2600, 372, -1.07260692, -1.54271579, 0.18507051, -16.75294685, 53.13690948, 158.18661499, -25.46039200, 16.31101990, -119.84799957, 95.45468903, -24.31786919, -7.09901094, -0.66595751, 0.71319371, -0.18619002, 0.11484201, 0.66366470, 0.63384700, -0.10280636, 100.05800629, 106.00524902, 32.27999878, 0.00000000
1, 3.2650, 373, -0.95277697, -1.46431375, 0.47258544, -7.73837185, 78.60883331, 172.73492432, -25.46039200, 16.31101990, -119.84799957, 95.27408600, -25.21407127, -6.75531960, -0.66593850, 0.71115869, -0.18929932, 0.12224974, 0.52921045, 0.56103265, -0.39332002, 100.05800629, 106.00524902, 32.27999878, 0.00000000
1, 3.2700, 374, -0.84639835, -1.51050282, 0.76369137, -4.55536413, 91.90428162, 186.01565552, -26.68810272, 18.47413063, -119.87722778, 95.07302856, -26.18124199, -6.33880472, -0.66580814, 0.70898366, -0.19240202, 0.13047290, 0.40716034, 0.61355686, -0.68790895, 100.05800629, 106.00524902, 32.27999878, 0.00000000
1, 3.2750, 375, -0.84674448, -1.53841650, 0.74449074, -9.78534126, 84.88806915, 193.52131653, -26.68810272, 18.47413063, -119.87722778, 94.85548401, -27.18154526, -5.95753574, -0.66568053, 0.70657557, -0.19595489, 0.13864376, 0.39201188, 0.64890164, -0.67281091, 100.05800629, 106.00524902, 32.27999878, 0.00000000
1, 3.2800, 376, -0.87089825, -1.53480053, 0.55359519, -15.58501434, 71.70269775, 199.52015686, -27.27272606, 18.41566849, -119.08798218, 94.63497925, -28.20512009, -5.64536524, -0.66552633, 0.70396614, -0.20009430, 0.14652222, 0.40083939, 0.65349066, -0.48603255, 100.05800629, 106.00524902, 32.27999878, 0.00000000
