SensorId, TimeStamp (s), FrameNumber, AccX (g), AccY (g), AccZ (g), GyroX (deg/s), GyroY (deg/s), GyroZ (deg/s), MagX (uT), MagY (uT), MagZ (uT), EulerX (deg), EulerY (deg), EulerZ (deg), QuatW, QuatX, QuatY, QuatZ, LinAccX (g), LinAccY (g), LinAccZ (g), Pressure (kPa), Altitude (m), Temperature (degC), HeaveMotion (m)
4, -0.0002, 0, -0.39546034, -1.00544846, 0.19415778, -5.86768436, -11.44189072, 18.92127037, -9.73399544, -57.76088715, -87.45980835, 100.44544220, -15.47100353, 109.11544037, 0.28335905, -0.51176620, -0.57049108, -0.57649195, 0.12906410, 0.05756480, -0.01937361, 100.32500458, 83.57634735, 32.75000000, 0.00000000
4, 0.0048, 1, -0.40167391, -0.99421936, 0.20082703, -5.60582399, -8.83803177, 20.07996750, -9.73399544, -57.76088715, -87.45980835, 100.43453217, -15.56173801, 109.05144501, 0.28319901, -0.51241881, -0.56979209, -0.57668215, 0.13379036, 0.04671101, -0.02628181, 100.32500458, 83.57634735, 32.75000000, 0.00000000
4, 0.0098, 2, -0.38864318, -0.98485374, 0.18931146, -6.51714277, -5.96705294, 21.65262794, -9.73399544, -57.76088715, -87.45980835, 100.41561890, -15.66281891, 109.00063324, 0.28294808, -0.51302654, -0.56906992, -0.57697803, 0.11910227, 0.03774849, -0.01513051, 100.32500458, 83.57634735, 32.75000000, 0.00000000
2, -0.0001, 0, 0.15724389, -0.94474453, -0.08197881, -5.65408230, -16.77485847, 7.00536871, -69.27798462, 25.57731628, -97.95381165, 79.67531586, -0.48637176, -38.90145111, 0.72493845, -0.60296273, 0.21639317, 0.25312907, -0.16552639, -0.03904969, -0.09713101, 100.30800629, 85.00283051, 0.00000000, 0.00000000
4, 0.0148, 3, -0.37074235, -0.97306061, 0.17862540, -7.12430096, -5.68348074, 23.27620506, -9.47091484, -57.67319489, -87.40134430, 100.39377594, -15.77215576, 108.94976807, 0.28266251, -0.51365930, -0.56829906, -0.57731473, 0.09939526, 0.02638880, -0.00489226, 100.32500458, 83.57634735, 32.75000000, 0.00000000
1, 0.0002, 0, 0.20654525, -0.95458257, 0.52976185, 18.65118790, -99.11934662, 71.26811981, -49.28383636, 8.82782841, -67.72873688, 100.31040192, 3.86345053, -8.60886860, -0.63659763, 0.76680291, -0.03605733, -0.07386960, -0.13933820, -0.02787627, -0.35252729, 100.35100555, 81.39475250, 32.05999756, 0.00000000
2, 0.0049, 1, 0.13987255, -0.95744115, -0.07600482, -3.55933475, -16.51483536, 5.31567717, -69.27798462, 25.57731628, -97.95381165, 79.65820313, -0.52733243, -38.97791672, 0.72493464, -0.60261732, 0.21701601, 0.25342891, -0.14890689, -0.02628425, -0.10344609, 100.30800629, 85.00283051, 0.00000000, 0.00000000
2, 0.0099, 2, 0.12594435, -0.97047931, -0.08401458, -1.28913260, -16.63450623, 3.48208976, -69.27798462, 25.57731628, -97.95381165, 79.65249634, -0.55939817, -39.05660629, 0.72484934, -0.60235947, 0.21761942, 0.25376824, -0.13557738, -0.01321265, -0.09558908, 100.30800629, 85.00283051, 0.00000000, 0.00000000
1, 0.0052, 1, 0.19385080, -1.02885056, 0.48471725, 23.79372406, -95.21578217, 70.10391998, -49.28383636, 8.82782841, -67.72873688, 100.39562225, 3.60359931, -9.14083672, -0.63586348, 0.76704115, -0.04112451, -0.07506269, -0.13108411, 0.04641429, -0.30623108, 100.35100555, 81.39475250, 32.05999756, 0.00000000
1, 0.0102, 2, 0.23623888, -1.07545805, 0.50242513, 22.35012817, -82.47001648, 66.78067017, -49.28383636, 8.82782841, -67.72873688, 100.47989655, 3.34944224, -9.60724926, -0.63517410, 0.76726747, -0.04572052, -0.07592299, -0.17795834, 0.09299615, -0.32237163, 100.35100555, 81.39475250, 32.05999756, 0.00000000
1, 0.0152, 3, 0.29654226, -1.05673420, 0.53309160, 17.20074844, -71.11573029, 67.88802338, -49.63460922, 11.51710033, -67.29026794, 100.54363251, 3.08011317, -10.01896286, -0.63467026, 0.76737058, -0.05002071, -0.07638130, -0.24293377, 0.07418075, -0.35163379, 100.35100555, 81.39475250, 32.05999756, 0.00000000
1, -0.0001, 0, 0.73999023, -0.96569824, 0.36743164, -4.19343901, 6.89172077, 33.93470001, -49.89768982, 0.55539316, -63.75328827, 100.00782776, 27.56928253, 80.29612732, 0.59483886, -0.46997386, -0.59678257, -0.26294878, -0.27649605, 0.09309508, -0.21336548, 100.27300262, 87.94092560, 31.50000000, 0.00000000
1, 0.0049, 1, 0.73303223, -0.94433594, 0.39886475, -0.90343785, -2.41828227, 36.06969833, -49.89768982, 0.55539316, -63.75328827, 99.98085022, 27.39376831, 80.24743652, 0.59450567, -0.47091684, -0.59596908, -0.26385853, -0.27224749, 0.07027603, -0.24492976, 100.27300262, 87.94092560, 31.50000000, 0.00000000
4, 0.0548, 4, -0.24490434, -0.91007537, 0.25301686, -12.65168571, -11.20429516, 24.86455154, -7.98012257, -57.87781143, -86.61209869, 100.08101654, -16.75651932, 108.49742889, 0.28060037, -0.51900715, -0.56074536, -0.58091289, -0.04293348, -0.03278885, -0.08521882, 100.32500458, 83.57634735, 32.75000000, 0.00000000
4, 0.0598, 5, -0.22149514, -0.92539543, 0.29145002, -13.40018368, -10.64208698, 24.12311745, -7.98012257, -57.87781143, -86.61209869, 100.03620911, -16.86599159, 108.42068481, 0.28055254, -0.51970267, -0.55972862, -0.58129460, -0.06818531, -0.01704786, -0.12446020, 100.32500458, 83.57634735, 32.75000000, 0.00000000
4, 0.0648, 6, -0.21849558, -0.92955518, 0.30597708, -14.69013596, -8.83244896, 22.96239662, -7.16164875, -58.11166382, -86.08593750, 99.98205566, -16.97137833, 108.35437775, 0.28051871, -0.52030724, -0.55872679, -0.58173370, -0.07296402, -0.01250685, -0.13993397, 100.32500458, 83.57634735, 32.75000000, 0.00000000
2, 0.0249, 3, 0.11866528, -1.03604710, -0.10270931, 7.10919142, -15.50151157, -1.88444364, -69.39491272, 23.20958710, -97.86611938, 79.73395538, -0.58354574, -39.29763412, 0.72393066, -0.60236013, 0.21921939, 0.25500911, -0.12883005, 0.05213548, -0.07565705, 100.30800629, 85.00283051, 0.00000000, 0.00000000
2, 0.0299, 4, 0.11627638, -1.06492150, -0.10171539, 6.65440941, -13.58148479, -3.77026844, -69.39491272, 23.20958710, -97.86611938, 79.76793671, -0.57707906, -39.36780930, 0.72358370, -0.60245508, 0.21962328, 0.25542146, -0.12638548, 0.08090213, -0.07605879, 100.30800629, 85.00283051, 0.00000000, 0.00000000
2, 0.0349, 5, 0.09884148, -1.08067858, -0.10608569, 7.51636219, -12.63357449, -5.10795021, -69.39491272, 23.20958710, -97.86611938, 79.80618286, -0.56314468, -39.43450165, 0.72320795, -0.60260046, 0.21997160, 0.25584272, -0.10873735, 0.09654347, -0.07105860, 100.30800629, 85.00283051, 0.00000000, 0.00000000
1, 0.0099, 2, 0.72283936, -0.92376709, 0.43414307, 3.12156367, -12.84828568, 38.06470108, -49.89768982, 0.55539316, -63.75328827, 99.94680786, 27.21743774, 80.13917542, 0.59433645, -0.47213483, -0.59488875, -0.26450029, -0.26478672, 0.04822746, -0.28046352, 100.27300262, 87.94092560, 31.50000000, 0.00000000
1, 0.0149, 3, 0.74218750, -0.90954590, 0.47149658, 7.91656494, -22.64829063, 39.95470047, -51.18386459, 1.22771120, -63.95790482, 99.91159821, 27.04017830, 79.97513580, 0.59429884, -0.47363767, -0.59356844, -0.26486382, -0.28688174, 0.03252346, -0.31811005, 100.27300262, 87.94092560, 31.50000000, 0.00000000
1, 0.0199, 4, 0.72180176, -0.93237305, 0.50866699, 14.56656837, -33.98828888, 42.82469940, -51.18386459, 1.22771120, -63.95790482, 99.88061523, 26.85844612, 79.74605560, 0.59438121, -0.47551590, -0.59196866, -0.26489380, -0.26929450, 0.05385796, -0.35554034, 100.27300262, 87.94092560, 31.50000000, 0.00000000
1, 0.0202, 4, 0.29379845, -1.08327246, 0.53342557, 16.48447037, -71.93160248, 75.55410767, -49.63460922, 11.51710033, -67.29026794, 100.60540009, 2.77426958, -10.44184780, -0.63420057, 0.76741976, -0.05459660, -0.07665400, -0.24535030, 0.10064687, -0.35092714, 100.35100555, 81.39475250, 32.05999756, 0.00000000
1, 0.0252, 5, 0.16125393, -1.17320216, 0.48281667, 18.42229271, -80.48871613, 83.07200623, -49.45922089, 11.31248188, -67.11487579, 100.67707062, 2.43981361, -10.91396904, -0.63365519, 0.76745832, -0.05966626, -0.07699804, -0.11843112, 0.19061756, -0.29955384, 100.35100555, 81.39475250, 32.05999756, 0.00000000
1, 0.0302, 6, -0.01888501, -1.18890870, 0.42861032, 29.60135460, -103.18207550, 90.76627350, -49.45922089, 11.31248188, -67.11487579, 100.80284882, 2.08944607, -11.50520802, -0.63268149, 0.76768595, -0.06565659, -0.07785673, 0.05578580, 0.20652427, -0.24389724, 100.35100555, 81.39475250, 32.05999756, 0.00000000
4, 0.0698, 7, -0.20694968, -0.93621010, 0.31212217, -14.90259457, -8.71125126, 21.81750107, -7.16164875, -58.11166382, -86.08593750, 99.92643738, -17.07128906, 108.28978729, 0.28051546, -0.52087736, -0.55774617, -0.58216590, -0.08620073, -0.00550410, -0.14708564, 100.32500458, 83.57634735, 32.75000000, 0.00000000
4, 0.0748, 8, -0.19249648, -0.95728958, 0.29611969, -14.71895599, -9.34949303, 20.75493240, -7.16164875, -58.11166382, -86.08593750, 99.87252045, -17.16547775, 108.22294617, 0.28055009, -0.52143937, -0.55678576, -0.58256525, -0.10225037, 0.01590225, -0.13206483, 100.32500458, 83.57634735, 32.75000000, 0.00000000
4, 0.0798, 9, -0.20506795, -0.99801034, 0.31155357, -14.27377129, -11.60190010, 19.27337456, -6.86933661, -58.57936096, -85.32592773, 99.82396698, -17.25050545, 108.14585876, 0.28066659, -0.52202749, -0.55584204, -0.58288360, -0.09113827, 0.05692560, -0.14839348, 100.32500458, 83.57634735, 32.75000000, 0.00000000
2, 0.0399, 6, 0.08737256, -1.10002100, -0.12147766, 9.83053398, -11.99672508, -6.19988966, -69.89184570, 25.63577843, -98.27536011, 79.85596466, -0.54322177, -39.49901962, 0.72276497, -0.60283613, 0.22029683, 0.25625935, -0.09694508, 0.11573918, -0.05486773, 100.30800629, 85.00283051, 0.00000000, 0.00000000
2, 0.0449, 7, 0.08359776, -1.12432873, -0.13561094, 12.61012936, -11.77782822, -6.91336441, -69.89184570, 25.63577843, -98.27536011, 79.91960907, -0.51953191, -39.56306839, 0.72224247, -0.60316837, 0.22062734, 0.25666586, -0.09277256, 0.13985831, -0.03969894, 100.30800629, 85.00283051, 0.00000000, 0.00000000
2, 0.0499, 8, 0.07257735, -1.14744651, -0.15777782, 14.78930759, -11.80231094, -7.66813660, -70.03800201, 25.57731628, -98.68459320, 79.99413300, -0.49206662, -39.62786102, 0.72165346, -0.60357589, 0.22096299, 0.25707564, -0.08128920, 0.16275245, -0.01629587, 100.30800629, 85.00283051, 0.00000000, 0.00000000
3, 0.0002, 0, 0.53973973, -0.88374865, 0.47691786, 25.64711380, -7.76059246, -60.77030182, 19.93569183, -23.47266769, -92.83834839, 121.05234528, 32.57728195, 124.17094421, -0.43686473, 0.26926181, 0.80301327, 0.30301329, -0.00233754, 0.16088346, -0.04256451, 100.39100647, 78.03938293, 33.20000076, 0.00000000
4, 0.0848, 10, -0.22000267, -1.01597393, 0.32380807, -13.93407631, -13.87909222, 17.16544914, -6.86933661, -58.57936096, -85.32592773, 99.78011322, -17.32326698, 108.05893707, 0.28088385, -0.52262580, -0.55492634, -0.58311522, -0.07745663, 0.07514564, -0.16145036, 100.32500458, 83.57634735, 32.75000000, 0.00000000
4, 0.0898, 11, -0.24279040, -1.04886913, 0.32347542, -12.99610329, -15.57030582, 15.16007137, -6.86933661, -58.98859787, -84.71207428, 99.74313354, -17.38476753, 107.96508789, 0.28117132, -0.52322942, -0.55405879, -0.58326030, -0.05574042, 0.10826112, -0.16180991, 100.32500458, 83.57634735, 32.75000000, 0.00000000
1, 0.0249, 5, 0.79266357, -0.95684814, 0.50543213, 20.83156967, -43.29829407, 46.39470291, -50.62847137, 1.57848585, -63.40251160, 99.85717010, 26.66700363, 79.46265411, 0.59452856, -0.47775301, -0.59012139, -0.26465946, -0.34310681, 0.07679904, -0.35242403, 100.27300262, 87.94092560, 31.50000000, 0.00000000
1, 0.0299, 6, 0.84228516, -0.97625732, 0.47332764, 24.01657104, -52.08329773, 49.22970581, -50.62847137, 1.57848585, -63.40251160, 99.82791138, 26.46899605, 79.12873840, 0.59479725, -0.48024258, -0.58801830, -0.26423094, -0.39579484, 0.09462158, -0.32047492, 100.27300262, 87.94092560, 31.50000000, 0.00000000
1, 0.0349, 7, 0.90783691, -0.99853516, 0.42010498, 27.20157242, -62.16329956, 51.50470352, -50.62847137, 1.57848585, -63.40251160, 99.79035187, 26.26819611, 78.73793030, 0.59522420, -0.48298332, -0.58563524, -0.26356518, -0.46447691, 0.11527218, -0.26753557, 100.27300262, 87.94092560, 31.50000000, 0.00000000
2, 0.0549, 9, 0.06023877, -1.16964972, -0.17631230, 16.61569786, -11.79308319, -8.38933563, -70.03800201, 25.57731628, -98.68459320, 80.07775879, -0.46095580, -39.69319534, 0.72100770, -0.60404742, 0.22129966, 0.25749007, -0.06842379, 0.18470547, 0.00363465, 100.30800629, 85.00283051, 0.00000000, 0.00000000
2, 0.0599, 10, 0.04716134, -1.21230137, -0.18200302, 18.47628021, -11.71394062, -9.17886734, -70.03800201, 25.57731628, -98.56767273, 80.17064667, -0.42578441, -39.75876999, 0.72030407, -0.60458541, 0.22163370, 0.25790903, -0.05475000, 0.22708014, 0.01088568, 100.30800629, 85.00283051, 0.00000000, 0.00000000
1, 0.0352, 7, -0.11770690, -1.19799089, 0.45111093, 37.43828201, -102.30414581, 85.99044800, -49.45922089, 11.31248188, -66.35486603, 100.97151947, 1.76331484, -12.08840942, -0.63140839, 0.76811779, -0.07148646, -0.07879331, 0.14873926, 0.21588963, -0.26390457, 100.35100555, 81.39475250, 32.05999756, 0.00000000
1, 0.0402, 8, -0.10624077, -1.23069513, 0.46846712, 40.97576904, -85.03136444, 77.20848846, -49.22537231, 12.59865570, -66.35486603, 101.16573334, 1.46458709, -12.57963848, -0.63000637, 0.76871949, -0.07656481, -0.07937337, 0.13191254, 0.24904153, -0.27802020, 100.35100555, 81.39475250, 32.05999756, 0.00000000
4, 0.1348, 12, -0.41410136, -1.16310275, 0.26672757, -3.05176449, -11.38281822, 6.82168484, -5.52470016, -58.43320465, -83.89360046, 99.62692261, -17.64576912, 107.22748566, 0.28393671, -0.52750796, -0.54901451, -0.58283663, 0.11107528, 0.22353733, -0.10737896, 100.32500458, 83.57634735, 32.75000000, 0.00000000
4, 0.1398, 13, -0.42556107, -1.15860295, 0.22316089, -2.60493565, -9.59017754, 6.94952202, -5.11546326, -58.90090561, -82.69511414, 99.63079834, -17.67201424, 107.17176056, 0.28404960, -0.52788603, -0.54866940, -0.58276427, 0.12210292, 0.21918416, -0.06376983, 100.32500458, 83.57634735, 32.75000000, 0.00000000
1, 0.0399, 8, 0.92266846, -1.02032471, 0.40161133, 30.31657410, -72.73329926, 53.56970596, -51.18386459, 1.49079216, -63.25635529, 99.74352264, 26.06593704, 78.28798676, 0.59582269, -0.48597184, -0.58296102, -0.26264668, -0.48247075, 0.13540921, -0.24946161, 100.27300262, 87.94092560, 31.50000000, 0.00000000
1, 0.0449, 9, 0.89141846, -1.04156494, 0.38885498, 32.48657227, -81.20330811, 54.61970520, -51.18386459, 1.49079216, -63.25635529, 99.68862152, 25.86526871, 77.79159546, 0.59656733, -0.48913142, -0.58005810, -0.26151574, -0.45437720, 0.15499026, -0.23726565, 100.27300262, 87.94092560, 31.50000000, 0.00000000
2, 0.0649, 11, 0.03874980, -1.25476778, -0.19169676, 19.34621048, -11.53187180, -10.07594490, -70.12569427, 25.75270271, -98.56767273, 80.26786041, -0.38592750, -39.82415009, 0.71956831, -0.60516083, 0.22194791, 0.25834265, -0.04566450, 0.26925486, 0.02223858, 100.30800629, 85.00283051, 0.00000000, 0.00000000
1, 0.0699, 10, 0.77612305, -1.22674561, 0.52435303, 47.08157730, -85.01830292, 37.15469742, -51.47617722, 0.67231804, -61.73633194, 99.59272766, 25.07792854, 75.15909576, 0.60049057, -0.50537765, -0.56573886, -0.25287157, -0.35185325, 0.33385390, -0.37355736, 100.27300262, 87.94092560, 31.50000000, 0.00000000
1, 0.0749, 11, 0.84417725, -1.24884033, 0.51379395, 44.10657501, -78.96330261, 31.20470047, -51.21309662, 2.98158431, -60.91785812, 99.61932373, 24.98997498, 74.70072174, 0.60111755, -0.50817049, -0.56346363, -0.25085694, -0.42139381, 0.35533464, -0.36246124, 100.27300262, 87.94092560, 31.50000000, 0.00000000
1, 0.0602, 9, 0.77507269, -1.56104922, 0.23280032, 6.42050743, -28.99538994, 57.81249619, -49.75153351, 13.56328583, -65.50716400, 101.65773010, 0.40055940, -13.56140041, -0.62689716, 0.77009588, -0.08934180, -0.07726783, -0.76758111, 0.58130944, -0.03145299, 100.35100555, 81.39475250, 32.05999756, 0.00000000
1, 0.0652, 10, 0.79444802, -1.56632221, -0.01496948, 1.70367026, -44.94255829, 57.31716919, -49.75153351, 13.56328583, -65.50716400, 101.66561127, 0.16487890, -13.83901501, -0.62685049, 0.76976776, -0.09250262, -0.07719750, -0.79051757, 0.58700109, 0.21653858, 100.35100555, 81.39475250, 32.05999756, 0.00000000
1, 0.0799, 12, 0.86816406, -1.25250244, 0.45434570, 40.04657364, -73.53830719, 25.11469650, -51.21309662, 2.98158431, -60.91785812, 99.64106750, 24.92768478, 74.27770233, 0.60175830, -0.51063961, -0.56141227, -0.24889866, -0.44647345, 0.35855609, -0.30256784, 100.27300262, 87.94092560, 31.50000000, 0.00000000
1, 0.0849, 13, 0.92639160, -1.24108887, 0.37103271, 35.67157364, -69.47830963, 18.60469437, -51.21309662, 2.98158431, -60.91785812, 99.65315247, 24.89419365, 73.88290405, 0.60245961, -0.51278341, -0.55955744, -0.24696366, -0.50534362, 0.34688723, -0.21897355, 100.27300262, 87.94092560, 31.50000000, 0.00000000
1, 0.0899, 14, 0.95544434, -1.22576904, 0.25183105, 31.64657211, -68.07830048, 12.30469227, -51.27155685, 2.86465931, -60.68400955, 99.65087891, 24.89063263, 73.50160217, 0.60327780, -0.51464647, -0.55783063, -0.24498981, -0.53457224, 0.33149156, -0.09973103, 100.27300262, 87.94092560, 31.50000000, 0.00000000
3, 0.0052, 1, 0.56473237, -0.89059490, 0.46246976, 25.89650726, -8.34970284, -60.74497223, 20.72493362, -23.15112495, -92.86758423, 121.25983429, 32.85880280, 124.31526184, -0.43765432, 0.26773626, 0.80390680, 0.30084863, -0.02319590, 0.17157024, -0.02687837, 100.39100647, 78.03938293, 33.20000076, 0.00000000
3, 0.0102, 2, 0.57455373, -0.89853841, 0.47946823, 25.61164856, -7.69206572, -60.73415375, 20.72493362, -23.15112495, -92.86758423, 121.46920776, 33.13811874, 124.46456909, -0.43842039, 0.26619479, 0.80480236, 0.29869935, -0.02891607, 0.18337354, -0.04264275, 100.39100647, 78.03938293, 33.20000076, 0.00000000
2, 0.0899, 12, -0.06632455, -1.32675433, -0.20020553, 13.10039520, -8.18463516, -14.15883255, -69.95030975, 25.43115997, -99.00613403, 80.68029785, -0.11194690, -40.11051178, 0.71621269, -0.60781604, 0.22268361, 0.26078928, 0.06409255, 0.34000072, 0.03799577, 100.30800629, 85.00283051, 0.00000000, 0.00000000
2, 0.0949, 13, -0.08025165, -1.31212389, -0.19262466, 11.04732227, -8.60119438, -14.55740738, -69.95030975, 25.43115997, -99.00613403, 80.73561859, -0.04705491, -40.16470337, 0.71567017, -0.60820466, 0.22269192, 0.26136488, 0.07914609, 0.32520634, 0.03140415, 100.30800629, 85.00283051, 0.00000000, 0.00000000
2, 0.0999, 14, -0.08943594, -1.29307032, -0.17640415, 10.02489185, -9.01943493, -14.49904251, -70.06723022, 24.87576675, -99.18152618, 80.78575134, 0.01725989, -40.22085190, 0.71515089, -0.60855550, 0.22270302, 0.26195949, 0.08945844, 0.30600813, 0.01606566, 100.30800629, 85.00283051, 0.00000000, 0.00000000
1, 0.0702, 11, 0.77702594, -1.53963399, -0.11109146, 4.52622938, -45.68272018, 58.70073700, -49.75153351, 13.56328583, -65.50716400, 101.68872833, -0.07673080, -14.12169361, -0.62670439, 0.76950067, -0.09573843, -0.07710207, -0.77702135, 0.56052673, 0.31297085, 100.35100555, 81.39475250, 32.05999756, 0.00000000
1, 0.0752, 12, 0.78762025, -1.48372149, 0.02392616, 6.18400860, -43.60727692, 62.83021545, -49.63460922, 14.44022179, -65.41946411, 101.72144318, -0.34049088, -14.39848042, -0.62651777, 0.76926053, -0.09906025, -0.07681622, -0.79244620, 0.50451690, 0.17861316, 100.35100555, 81.39475250, 32.05999756, 0.00000000
1, 0.0802, 13, 0.70600623, -1.38091671, 0.05429583, 4.23020077, -55.85430145, 74.69122314, -49.63460922, 14.44022179, -65.41946411, 101.74653625, -0.64985842, -14.74736691, -0.62637407, 0.76886493, -0.10310748, -0.07662320, -0.71603066, 0.40179700, 0.14867178, 100.35100555, 81.39475250, 32.05999756, 0.00000000
4, 0.1448, 14, -0.43859375, -1.14065742, 0.19343403, -1.85452807, -10.31652641, 7.16443491, -5.11546326, -58.90090561, -82.69511414, 99.63933563, -17.70316887, 107.11241913, 0.28413090, -0.52831179, -0.54831064, -0.58267647, 0.13465746, 0.20140892, -0.03395066, 100.32500458, 83.57634735, 32.75000000, 0.00000000
4, 0.1498, 15, -0.47175264, -1.11850309, 0.17527303, -1.02813029, -11.70014381, 7.50531149, -5.11546326, -58.90090561, -82.69511414, 99.65463257, -17.73036575, 107.04526520, 0.28424364, -0.52877599, -0.54796624, -0.58252424, 0.16732983, 0.17944598, -0.01559041, 100.32500458, 83.57634735, 32.75000000, 0.00000000
4, 0.1548, 16, -0.50493640, -1.08698940, 0.14973226, -0.56026292, -12.64013100, 8.10628128, -4.41391420, -58.95936966, -82.19818878, 99.67395020, -17.75971413, 106.97269440, 0.28435269, -0.52928406, -0.54760808, -0.58234644, 0.20003730, 0.14813288, 0.01022083, 100.32500458, 83.57634735, 32.75000000, 0.00000000
2, 0.1049, 15, -0.08991127, -1.26536584, -0.15911838, 9.78276539, -9.81872845, -14.26875496, -70.06723022, 24.87576675, -99.18152618, 80.83460999, 0.07984667, -40.28071976, 0.71463239, -0.60888696, 0.22274229, 0.26257032, 0.09103476, 0.27816847, -0.00037953, 100.30800629, 85.00283051, 0.00000000, 0.00000000
2, 0.1099, 16, -0.07787143, -1.24527681, -0.14941573, 9.47207451, -10.44629765, -13.86239433, -70.21338654, 24.23267937, -99.76615143, 80.88185120, 0.13998148, -40.34329987, 0.71412015, -0.60919714, 0.22280815, 0.26318797, 0.08005467, 0.25794747, -0.00925259, 100.30800629, 85.00283051, 0.00000000, 0.00000000
2, 0.1149, 17, -0.06145286, -1.21791470, -0.14874274, 8.13361835, -10.58932686, -13.62760067, -70.21338654, 24.23267937, -99.76615143, 80.92233276, 0.19889213, -40.40634537, 0.71364427, -0.60946125, 0.22286914, 0.26381487, 0.06466888, 0.23047137, -0.00919840, 100.30800629, 85.00283051, 0.00000000, 0.00000000
1, 0.0949, 15, 0.95324707, -1.20935059, 0.14807129, 28.49657249, -68.28829956, 7.78969002, -51.27155685, 2.86465931, -60.68400955, 99.63409424, 24.90942574, 73.12330627, 0.60421354, -0.51631343, -0.55615991, -0.24296652, -0.53213656, 0.31514430, 0.00378680, 100.27300262, 87.94092560, 31.50000000, 0.00000000
1, 0.0999, 16, 0.88256836, -1.21154785, 0.04058838, 22.23157120, -70.70330048, -0.96031243, -51.21309662, 3.09850907, -60.33323669, 99.58353424, 24.97317314, 72.73979187, 0.60543543, -0.51762313, -0.55455041, -0.24080755, -0.46065110, 0.31760329, 0.11056896, 100.27300262, 87.94092560, 31.50000000, 0.00000000
1, 0.1049, 17, 0.77209473, -1.22827148, -0.02972412, 18.52156830, -71.68330383, -5.30031395, -51.21309662, 3.09850907, -60.33323669, 99.51327515, 25.05877304, 72.35460663, 0.60680401, -0.51873457, -0.55296820, -0.23859900, -0.34890547, 0.33473992, 0.17976427, 100.27300262, 87.94092560, 31.50000000, 0.00000000
2, 0.1199, 18, -0.04535010, -1.17213571, -0.14566219, 7.00353670, -10.21086407, -13.55786419, -70.21338654, 24.23267937, -99.76615143, 80.95966339, 0.25483355, -40.46736526, 0.71319485, -0.60970277, 0.22293109, 0.26441923, 0.04956419, 0.18459333, -0.01163388, 100.30800629, 85.00283051, 0.00000000, 0.00000000
2, 0.1249, 19, -0.01785477, -1.09726250, -0.13663566, 7.66581678, -9.51251221, -14.06578064, -69.80415344, 24.58345413, -99.41537476, 80.99771118, 0.31683543, -40.52536011, 0.71273577, -0.60996819, 0.22294126, 0.26503533, 0.02310687, 0.10962175, -0.02001027, 100.30800629, 85.00283051, 0.00000000, 0.00000000
2, 0.1299, 20, 0.00034306, -1.06696796, -0.13348758, 8.60856247, -9.43535995, -14.82499695, -69.80415344, 24.58345413, -99.41537476, 81.04039001, 0.38268816, -40.58353424, 0.71224326, -0.61027080, 0.22293961, 0.26566368, 0.00603919, 0.07922053, -0.02244220, 100.30800629, 85.00283051, 0.00000000, 0.00000000
3, 0.0752, 3, 0.60324025, -0.62244433, 0.48172832, 23.23963547, -17.62915230, -65.85920715, 23.99883080, -18.47413063, -93.71528625, 124.00992584, 37.29205704, 126.07669067, -0.45327586, 0.24556512, 0.81375051, 0.26841947, 0.00151542, -0.03811897, -0.03684144, 100.39100647, 78.03938293, 33.20000076, 0.00000000
3, 0.0802, 4, 0.62938219, -0.56974334, 0.48791021, 22.91727638, -18.98194695, -65.34735107, 23.99883080, -18.47413063, -93.71528625, 124.20846558, 37.61763000, 126.21068573, -0.45446503, 0.24391043, 0.81435233, 0.26608223, -0.02012825, -0.08643477, -0.04267164, 100.39100647, 78.03938293, 33.20000076, 0.00000000
1, 0.0852, 14, 0.51206070, -1.37888134, -0.07927340, 4.45289850, -74.56040955, 86.51078033, -50.39462280, 14.70330334, -65.50716400, 101.77646637, -0.99803156, -15.19996452, -0.62616396, 0.76834488, -0.10806169, -0.07673027, -0.52770358, 0.40014958, 0.28219786, 100.35100555, 81.39475250, 32.05999756, 0.00000000
1, 0.0902, 15, 0.14524314, -1.42571890, -0.31632668, 8.82867432, -89.48482513, 98.99855804, -50.39462280, 14.70330334, -65.50716400, 101.82851410, -1.39103401, -15.73793221, -0.62579018, 0.76778978, -0.11384179, -0.07697837, -0.16698402, 0.44767106, 0.51904702, 100.35100555, 81.39475250, 32.05999756, 0.00000000
1, 0.0952, 16, -0.08127014, -1.48842919, -0.33559215, 11.45438004, -84.78673553, 104.51020813, -50.39462280, 14.70330334, -65.50716400, 101.90165710, -1.81597972, -16.25973129, -0.62531817, 0.76729232, -0.11969452, -0.07689689, 0.05228437, 0.51084507, 0.53877586, 100.35100555, 81.39475250, 32.05999756, 0.00000000
2, 0.1699, 21, 0.13128014, -0.85841566, -0.12809515, 6.79822254, -20.53138351, -27.37703705, -70.18415833, 23.76498032, -100.43846893, 81.35689545, 1.14907229, -41.33059311, 0.70724183, -0.61252713, 0.22290325, 0.27374032, -0.11181871, -0.13001817, -0.02230252, 100.31000519, 84.83507538, 0.00000000, 0.00000000
2, 0.1749, 22, 0.14304712, -0.83927071, -0.14156532, 9.42693806, -21.31090927, -28.94059372, -70.18415833, 23.76498032, -100.43846893, 81.40134430, 1.27616632, -41.45766830, 0.70643598, -0.61284411, 0.22289972, 0.27511093, -0.12134130, -0.14922437, -0.00812146, 100.31000519, 84.83507538, 0.00000000, 0.00000000
4, 0.1598, 17, -0.53303564, -1.05336571, 0.11293896, 0.04652927, -13.27715969, 9.19839001, -4.41391420, -58.95936966, -82.19818878, 99.69763184, -17.79388618, 106.89585876, 0.28443503, -0.52984166, -0.54723197, -0.58215272, 0.22758952, 0.11474605, 0.04735984, 100.32500458, 83.57634735, 32.75000000, 0.00000000
4, 0.1648, 18, -0.54334110, -1.01114953, 0.09396552, 0.08632638, -14.02281475, 10.54498196, -4.18006420, -58.95936966, -81.40894318, 99.72312164, -17.83402824, 106.81393433, 0.28449994, -0.53045052, -0.54681623, -0.58195722, 0.23725367, 0.07280235, 0.06670438, 100.32500458, 83.57634735, 32.75000000, 0.00000000
4, 0.1698, 19, -0.55793738, -0.96819091, 0.06090678, 0.45004350, -15.46959591, 12.63959694, -4.18006420, -59.28091049, -81.40894318, 99.75339508, -17.88322830, 106.72261047, 0.28453755, -0.53115028, -0.54634291, -0.58174509, 0.25107509, 0.03017128, 0.10019785, 100.32500458, 83.57634735, 32.75000000, 0.00000000
1, 0.1099, 18, 0.59692383, -1.24542236, -0.07238770, 14.98656750, -72.80329895, -8.73031521, -51.21309662, 3.09850907, -60.33323669, 99.42330933, 25.16171265, 71.96600342, 0.60830909, -0.51967597, -0.55139136, -0.23635711, -0.17217110, 0.35239166, 0.22098345, 100.27300262, 87.94092560, 31.50000000, 0.00000000
1, 0.1149, 19, 0.41754150, -1.25231934, -0.11059570, 11.20656681, -73.15330505, -11.53031635, -50.80385971, 2.86465931, -59.69014740, 99.31379700, 25.27814865, 71.57746887, 0.60993057, -0.52044761, -0.54982382, -0.23412134, 0.00900244, 0.35984886, 0.25741622, 100.27300262, 87.94092560, 31.50000000, 0.00000000
3, 0.0852, 5, 0.65969318, -0.52095157, 0.50062460, 22.91941261, -19.51331520, -64.68948364, 24.46652985, -17.74334908, -94.38760376, 124.40188599, 37.93980408, 126.33934784, -0.45566326, 0.24229169, 0.81491584, 0.26377603, -0.04596168, -0.13085236, -0.05511034, 100.39100647, 78.03938293, 33.20000076, 0.00000000
3, 0.0902, 6, 0.69087815, -0.48970830, 0.52931136, 22.38960075, -18.04250526, -63.89743805, 24.46652985, -17.74334908, -94.38760376, 124.59741974, 38.25419235, 126.47482300, -0.45680138, 0.24067137, 0.81548655, 0.26151752, -0.07279722, -0.15777220, -0.08350568, 100.39100647, 78.03938293, 33.20000076, 0.00000000
3, 0.0952, 7, 0.71601510, -0.47145191, 0.56563956, 21.67881584, -18.09217072, -62.87665939, 25.13884735, -15.84332085, -94.32913971, 124.78871918, 38.56417465, 126.60825348, -0.45793295, 0.23907150, 0.81602997, 0.25930178, -0.09368391, -0.17176080, -0.11956893, 100.39100647, 78.03938293, 33.20000076, 0.00000000
1, 0.1002, 17, -0.19719790, -1.48504651, -0.23709853, 7.74044609, -80.32172394, 105.82063293, -50.89155197, 15.25869656, -65.39023590, 101.95947266, -2.25134373, -16.76164055, -0.62497652, 0.76667541, -0.12545268, -0.07664698, 0.16039529, 0.50777817, 0.44102913, 100.35100555, 81.39475250, 32.05999756, 0.00000000
4, 0.1748, 20, -0.58131874, -0.92429608, 0.03883231, 0.56740439, -17.23505020, 15.22226906, -4.18006420, -59.28091049, -81.40894318, 99.78784943, -17.94361305, 106.61978912, 0.28454870, -0.53195739, -0.54579026, -0.58152080, 0.27350101, -0.01332578, 0.12276416, 100.32500458, 83.57634735, 32.75000000, 0.00000000
4, 0.1798, 21, -0.60607046, -0.88823926, 0.03281840, 0.24072692, -21.25305176, 18.40153122, -4.29698896, -59.25167847, -80.41508484, 99.82812500, -18.01616859, 106.49322510, 0.28458211, -0.53293741, -0.54510498, -0.58124977, 0.29709992, -0.04890436, 0.12935117, 100.32500458, 83.57634735, 32.75000000, 0.00000000
3, 0.1002, 8, 0.73677939, -0.47147638, 0.58096260, 21.17975235, -19.94021988, -61.70457840, 25.13884735, -15.84332085, -94.32913971, 124.97048187, 38.87428284, 126.72956085, -0.45911810, 0.23752218, 0.81651121, 0.25710565, -0.11022365, -0.16752933, -0.13475931, 100.39100647, 78.03938293, 33.20000076, 0.00000000
3, 0.1052, 9, 0.75376654, -0.50556719, 0.55763084, 20.78863525, -22.31386948, -60.19031143, 25.13884735, -15.84332085, -94.32913971, 125.14051819, 39.18472672, 126.83451080, -0.46037087, 0.23604350, 0.81691766, 0.25492692, -0.12299263, -0.12929574, -0.11145665, 100.39100647, 78.03938293, 33.20000076, 0.00000000
3, 0.1102, 10, 0.74896443, -0.52240920, 0.56047809, 19.07465553, -23.11427689, -59.09765625, 26.10347748, -14.90792179, -93.91990662, 125.29817200, 39.49277115, 126.93276978, -0.46165368, 0.23457620, 0.81727076, 0.25282076, -0.11401689, -0.10840678, -0.11448391, 100.39100647, 78.03938293, 33.20000076, 0.00000000
1, 0.1699, 20, -0.77331543, -0.90344238, 0.37927246, -5.52343941, 42.52173615, 9.95969105, -50.24846649, 3.04004669, -60.24554062, 98.64346313, 25.99123764, 69.80078888, 0.61846542, -0.52219015, -0.54301023, -0.22351289, 1.21186733, 0.01490137, -0.24448717, 100.27300262, 87.94092560, 31.50000000, 0.00000000
1, 0.1749, 21, -0.50750732, -0.92169189, 0.42468262, -4.96343946, 81.72175598, 16.78469276, -50.42385101, 2.19234133, -60.36246490, 98.80873871, 25.84630013, 70.23567963, 0.61647445, -0.52165335, -0.54478109, -0.22594394, 0.94407940, 0.03253025, -0.28758603, 100.27300262, 87.94092560, 31.50000000, 0.00000000
2, 0.1799, 23, 0.14834072, -0.83929455, -0.15210417, 12.41677856, -22.37109947, -29.98506355, -70.18415833, 23.76498032, -100.43846893, 81.46030426, 1.40774488, -41.59065628, 0.70552546, -0.61324900, 0.22293629, 0.27651227, -0.12435550, -0.14928886, 0.00335190, 100.31000519, 84.83507538, 0.00000000, 0.00000000
2, 0.1849, 24, 0.14455834, -0.84536380, -0.17260388, 16.82427597, -23.63902664, -30.71288109, -69.92107391, 22.94650650, -100.17538452, 81.54082489, 1.54214811, -41.73030472, 0.70447356, -0.61377937, 0.22304484, 0.27792618, -0.11823387, -0.14335924, 0.02518157, 100.31000519, 84.83507538, 0.00000000, 0.00000000
2, 0.1899, 25, 0.12307546, -0.85370541, -0.18852815, 21.37660980, -23.59366226, -30.96839905, -69.92107391, 22.94650650, -100.17538452, 81.64379120, 1.67807281, -41.86970901, 0.70329458, -0.61445057, 0.22319961, 0.27930143, -0.09438580, -0.13520069, 0.04278550, 100.31000519, 84.83507538, 0.00000000, 0.00000000
1, 0.1052, 18, -0.24166098, -1.39013183, -0.15440142, 1.48668826, -78.27922821, 104.09115601, -50.89155197, 15.25869656, -65.39023590, 101.98931122, -2.68004227, -17.25226212, -0.62482899, 0.76587903, -0.13107274, -0.07640737, 0.19713581, 0.41316369, 0.35894099, 100.35100555, 81.39475250, 32.05999756, 0.00000000
1, 0.1552, 19, -0.82085633, -0.72850657, 0.41437262, 23.72406769, -4.10267115, 57.27419662, -52.11926270, 17.48026848, -64.57176208, 103.00740814, -6.21080971, -19.90619278, -0.61952388, 0.76390874, -0.16828898, -0.06566961, 0.71280795, -0.24104263, -0.19435751, 100.35100555, 81.39475250, 32.05999756, 0.00000000
1, 0.1602, 20, -0.81017041, -0.73390567, 0.49714899, 22.42101860, 8.12266541, 50.99237442, -52.79158020, 18.41566849, -63.98713684, 103.12207794, -6.46811771, -19.92388153, -0.61897677, 0.76416546, -0.16982861, -0.06385373, 0.69737488, -0.23482694, -0.27521640, 100.35100555, 81.39475250, 32.05999756, 0.00000000
1, 0.1652, 21, -0.73815823, -0.74684513, 0.51548666, 19.64152908, 16.01141739, 44.90638733, -52.79158020, 18.41566849, -63.98713684, 103.21768188, -6.70470810, -19.89646912, -0.61856079, 0.76440948, -0.17094366, -0.06196010, 0.62112188, -0.22105663, -0.29181892, 100.35100555, 81.39475250, 32.05999756, 0.00000000
3, 0.1152, 11, 0.74075198, -0.54166037, 0.57918614, 16.04122925, -22.35644913, -57.72773743, 26.10347748, -14.90792179, -93.91990662, 125.44129181, 39.79284668, 127.03138733, -0.46292174, 0.23308645, 0.81758511, 0.25085610, -0.10174006, -0.08528578, -0.13354009, 100.39100647, 78.03938293, 33.20000076, 0.00000000
3, 0.1202, 12, 0.74542308, -0.56804609, 0.59118682, 14.90121365, -23.13363457, -56.36135864, 26.16194153, -13.91405964, -94.50453186, 125.57399750, 40.08942032, 127.12206268, -0.46421066, 0.23162913, 0.81785119, 0.24894993, -0.10243167, -0.05513913, -0.14598970, 100.39100647, 78.03938293, 33.20000076, 0.00000000
2, 0.1949, 26, 0.07970981, -0.86937040, -0.20682314, 28.40109062, -22.26309204, -31.01897621, -69.97953796, 23.67728615, -100.46769714, 81.78177643, 1.81550372, -42.00228882, 0.70193666, -0.61535162, 0.22339688, 0.28057304, -0.04862956, -0.11978920, 0.06330827, 100.31000519, 84.83507538, 0.00000000, 0.00000000
2, 0.1999, 27, 0.02411915, -0.92045707, -0.22004566, 37.12216187, -19.89186287, -30.80245781, -69.97953796, 23.67728615, -100.46769714, 81.96343231, 1.95390010, -42.12259293, 0.70036715, -0.61654371, 0.22363305, 0.28168795, 0.00937333, -0.06904785, 0.07948592, 100.31000519, 84.83507538, 0.00000000, 0.00000000
2, 0.2049, 28, -0.02517579, -1.00566578, -0.21946055, 45.27861786, -17.07208824, -30.47766304, -69.97953796, 23.67728615, -100.46769714, 82.18609619, 2.09305501, -42.22821426, 0.69860572, -0.61801302, 0.22389075, 0.28263587, 0.06109019, 0.01572839, 0.08259312, 100.31000519, 84.83507538, 0.00000000, 0.00000000
4, 0.1998, 22, -0.74780321, -0.85179484, -0.04137559, -1.95881259, -41.67075348, 35.31607437, -4.09237051, -58.66705704, -79.56737518, 100.04635620, -18.47354889, 105.68975067, 0.28497544, -0.53902024, -0.54054129, -0.57970804, 0.43150616, -0.08236904, 0.20658326, 100.32500458, 83.57634735, 32.75000000, 0.00000000
4, 0.2048, 23, -0.74554950, -0.88452160, -0.03509469, -2.77304840, -46.98187637, 39.49425888, -3.65390229, -59.77784348, -79.71353149, 100.12170410, -18.62684441, 105.40932465, 0.28514874, -0.54110366, -0.53895611, -0.57915753, 0.42677999, -0.04861394, 0.20135814, 100.32500458, 83.57634735, 32.75000000, 0.00000000
1, 0.1799, 22, -0.28247070, -0.95947266, 0.47454834, -6.04843950, 96.38674927, 23.22469711, -50.42385101, 2.19234133, -60.36246490, 98.99950409, 25.65698051, 70.74435425, 0.61408621, -0.52108765, -0.54678041, -0.22890417, 0.71624100, 0.06942262, -0.33435959, 100.27300262, 87.94092560, 31.50000000, 0.00000000
1, 0.1849, 23, -0.07080078, -0.99163818, 0.50360107, -8.21844101, 105.55675507, 30.39970016, -50.42385101, 2.19234133, -60.36246490, 99.19596100, 25.42343712, 71.29529572, 0.61144394, -0.52053249, -0.54882914, -0.23231211, 0.50106680, 0.10041595, -0.36010039, 100.27300262, 87.94092560, 31.50000000, 0.00000000
1, 0.1899, 24, 0.12518311, -1.00793457, 0.50201416, -11.12344170, 110.59675598, 36.45470047, -51.56386948, 2.68927217, -60.68400955, 99.38429260, 25.15427589, 71.86632538, 0.60867053, -0.51998091, -0.55083185, -0.23605990, 0.30096573, 0.11527038, -0.35522914, 100.27300262, 87.94092560, 31.50000000, 0.00000000
1, 0.1949, 25, 0.32330322, -1.00921631, 0.47766113, -12.97844124, 111.71675873, 40.54969788, -51.56386948, 2.68927217, -60.68400955, 99.56085205, 24.86235809, 72.43746948, 0.60585397, -0.51945311, -0.55273765, -0.23998018, 0.09830773, 0.11492179, -0.32773021, 100.27300262, 87.94092560, 31.50000000, 0.00000000
1, 0.1999, 26, 0.51397705, -1.01904297, 0.43902588, -12.97844124, 109.40676117, 43.13970184, -52.61619186, 1.95849168, -61.18093872, 99.72752380, 24.55805779, 72.99134827, 0.60304970, -0.51899809, -0.55450886, -0.24391010, -0.09714913, 0.12301788, -0.28608409, 100.27300262, 87.94092560, 31.50000000, 0.00000000
1, 0.2049, 27, 0.77069092, -1.08282471, 0.38568115, -12.59344196, 102.96675873, 43.38470078, -52.61619186, 1.95849168, -61.18093872, 99.87799835, 24.25663948, 73.50788879, 0.60037458, -0.51861435, -0.55609494, -0.24768513, -0.35868174, 0.18505588, -0.22993320, 100.27300262, 87.94092560, 31.50000000, 0.00000000
2, 0.2099, 29, -0.07256298, -1.09954476, -0.20870790, 49.72458267, -14.53504181, -30.34882164, -69.83338165, 22.80035019, -100.02922821, 82.43122864, 2.23370218, -42.32061386, 0.69674617, -0.61964381, 0.22412790, 0.28346616, 0.11092267, 0.10913089, 0.07601495, 100.31000519, 84.83507538, 0.00000000, 0.00000000
2, 0.2149, 30, -0.11403257, -1.18257189, -0.19458669, 51.02988815, -13.11287022, -30.21699715, -69.83338165, 22.80035019, -100.02922821, 82.68297577, 2.37502193, -42.40526962, 0.69486201, -0.62132633, 0.22433995, 0.28423926, 0.15485527, 0.19168277, 0.06624837, 100.31000519, 84.83507538, 0.00000000, 0.00000000
3, 0.1652, 13, 0.72726995, -0.80487937, 0.58228487, -1.31832409, -18.90530396, -45.40548325, 27.38965225, -10.46477604, -95.00145721, 126.31974792, 42.51522064, 127.84667969, -0.47553736, 0.21849737, 0.81886941, 0.23574626, -0.05225061, 0.21033278, -0.14540701, 100.39100647, 78.03938293, 33.20000076, 0.00000000
3, 0.1702, 14, 0.72812730, -0.83474451, 0.57787478, -1.31251454, -19.97479820, -43.77526474, 27.44811440, -9.52937698, -95.35223389, 126.35852814, 42.75071335, 127.91361237, -0.47671273, 0.21711099, 0.81885689, 0.23469391, -0.05007232, 0.24275583, -0.14222607, 100.39100647, 78.03938293, 33.20000076, 0.00000000
1, 0.1702, 22, -0.64463079, -0.78888810, 0.47874841, 16.94537926, 17.22498894, 39.78190994, -52.79158020, 18.41566849, -63.98713684, 103.29828644, -6.91780186, -19.85758400, -0.61822742, 0.76461846, -0.17184727, -0.06018434, 0.52388710, -0.17817976, -0.25359300, 100.35100555, 81.39475250, 32.05999756, 0.00000000
1, 0.1752, 23, -0.53675634, -0.81126618, 0.35105076, 14.14724922, 18.05388260, 34.68462372, -53.14235687, 18.53259277, -64.01636505, 103.36352539, -7.10711813, -19.80903053, -0.61797822, 0.76478904, -0.17255090, -0.05853946, 0.41294938, -0.15491711, -0.12460393, 100.35100555, 81.39475250, 32.05999756, 0.00000000
1, 0.1802, 24, -0.42933491, -0.82512784, 0.25972798, 15.33401203, 21.76788521, 29.81568146, -53.14235687, 18.53259277, -64.01636505, 103.43151093, -7.27706289, -19.73680115, -0.61770344, 0.76503503, -0.17299423, -0.05689333, 0.30273569, -0.14027268, -0.03201220, 100.35100555, 81.39475250, 32.05999756, 0.00000000
4, 0.2098, 24, -0.72657871, -0.94382524, -0.05220666, -3.22008300, -49.51204681, 44.55292892, -3.65390229, -59.77784348, -79.71353149, 100.20145416, -18.80244446, 105.11055756, 0.28526205, -0.54336017, -0.53720444, -0.57861626, 0.40501982, 0.01184747, 0.21958832, 100.32500458, 83.57634735, 32.75000000, 0.00000000
4, 0.2148, 25, -0.68659699, -1.01922715, -0.00588775, -4.72883081, -47.67787552, 48.35302734, -3.65390229, -59.77784348, -79.71353149, 100.27282715, -18.99798584, 104.81717682, 0.28526980, -0.54563600, -0.53534287, -0.57819605, 0.36188900, 0.08852439, 0.17428076, 100.32500458, 83.57634735, 32.75000000, 0.00000000
4, 0.2198, 26, -0.64356118, -1.10812461, 0.00414389, -8.93773746, -45.25757599, 51.83793259, -4.00467682, -60.36246490, -78.69043732, 100.32129669, -19.21254349, 104.53250885, 0.28523076, -0.54787487, -0.53331739, -0.57796985, 0.31539100, 0.17876156, 0.16493493, 100.32500458, 83.57634735, 32.75000000, 0.00000000
2, 0.2199, 31, -0.15549123, -1.24317873, -0.18308359, 49.29724884, -11.97300243, -30.17356873, -69.51184082, 22.53726959, -100.49693298, 82.92555237, 2.51263189, -42.48358154, 0.69304520, -0.62295216, 0.22452202, 0.28497168, 0.19875066, 0.25185069, 0.05900341, 100.31000519, 84.83507538, 0.00000000, 0.00000000
3, 0.1752, 15, 0.72574520, -0.88238579, 0.54664254, -1.13222802, -23.60152626, -41.96731949, 27.44811440, -9.52937698, -95.35223389, 126.38015747, 42.98965454, 127.95375061, -0.47799549, 0.21582916, 0.81875020, 0.23363739, -0.04464931, 0.29286465, -0.11239372, 100.39100647, 78.03938293, 33.20000076, 0.00000000
3, 0.1802, 16, 0.69964254, -0.94244587, 0.51566845, -0.74462050, -29.14652824, -40.84836960, 27.44811440, -9.52937698, -95.35223389, 126.37471771, 43.23506927, 127.95584106, -0.47944319, 0.21467608, 0.81850606, 0.23258603, -0.01542503, 0.35529500, -0.08311884, 100.39100647, 78.03938293, 33.20000076, 0.00000000
3, 0.1852, 17, 0.65429652, -0.98912901, 0.45926648, -0.07539188, -35.09133530, -40.50616837, 27.44811440, -8.59397793, -95.23531342, 126.35430908, 43.50218964, 127.92665863, -0.48110694, 0.21358337, 0.81814837, 0.23141205, 0.03322554, 0.40434721, -0.02875260, 100.39100647, 78.03938293, 33.20000076, 0.00000000
1, 0.2099, 28, 0.85620117, -1.09912109, 0.36413574, -14.69344234, 91.69675446, 41.73970413, -52.61619186, 1.95849168, -61.18093872, 99.99058533, 23.97194290, 73.96321106, 0.59802502, -0.51824647, -0.55738813, -0.25120762, -0.44883299, 0.19964942, -0.20602098, 100.27300262, 87.94092560, 31.50000000, 0.00000000
1, 0.2149, 29, 0.93933105, -1.08410645, 0.32177734, -19.10344505, 70.90674591, 37.71469879, -53.66851807, 3.18620276, -62.35018921, 100.03491974, 23.72459412, 74.30908966, 0.59631515, -0.51788467, -0.55817246, -0.25425810, -0.53603470, 0.18301359, -0.16245839, 100.27300262, 87.94092560, 31.50000000, 0.00000000
4, 0.2248, 27, -0.61923653, -1.16764235, 0.00692023, -14.79920673, -40.10508347, 54.67533493, -4.00467682, -60.36246490, -78.69043732, 100.33367920, -19.44553566, 104.27150726, 0.28513780, -0.54997188, -0.53113550, -0.57803333, 0.28730071, 0.23963904, 0.16227573, 100.32500458, 83.57634735, 32.75000000, 0.00000000
4, 0.2298, 28, -0.57563138, -1.19314563, 0.01254172, -20.30629921, -34.76387405, 56.53139877, -3.77082729, -59.66091537, -78.16427612, 100.31092834, -19.69246674, 104.03625488, 0.28500378, -0.55190367, -0.52883172, -0.57837039, 0.23968998, 0.26649660, 0.15617004, 100.32500458, 83.57634735, 32.75000000, 0.00000000
4, 0.2348, 29, -0.54325002, -1.19097722, -0.00155173, -22.86824417, -25.11123657, 58.78683090, -3.77082729, -59.66091537, -78.16427612, 100.26004028, -19.95925713, 103.84913635, 0.28464922, -0.55360699, -0.52652425, -0.57902193, 0.20301457, 0.26571497, 0.16926643, 100.32500458, 83.57634735, 32.75000000, 0.00000000
1, 0.2549, 30, 0.23736572, -0.85614014, 0.41943359, -4.64843893, -24.29329109, 15.97969437, -54.89622879, 3.36159015, -62.49634552, 99.65759277, 22.74341011, 74.59532166, 0.59437704, -0.51885104, -0.55511373, -0.26335970, 0.14947203, -0.05288640, -0.26442632, 100.27300262, 87.94092560, 31.50000000, 0.00000000
1, 0.2599, 31, 0.18389893, -0.85107422, 0.42657471, -1.60343814, -27.05829048, 16.81969261, -55.07161713, 3.65390229, -63.63636398, 99.58787537, 22.68310547, 74.43547821, 0.59487480, -0.51952732, -0.55401224, -0.26322189, 0.20198208, -0.05854280, -0.27265054, 100.27300262, 87.94092560, 31.50000000, 0.00000000
2, 0.2449, 32, -0.14281753, -1.25412655, -0.13021842, 33.99007034, -12.78072453, -23.79243279, -69.10260010, 21.57263947, -99.97076416, 83.92264557, 3.15218997, -42.85871887, 0.68520993, -0.62964237, 0.22515510, 0.28869194, 0.19733159, 0.26130068, 0.02380437, 100.31000519, 84.83507538, 0.00000000, 0.00000000
2, 0.2499, 33, -0.12096269, -1.24960709, -0.10491358, 29.78837967, -12.84399891, -21.20597267, -69.10260010, 21.57263947, -99.97076416, 84.06739044, 3.25091577, -42.93379593, 0.68399733, -0.63057858, 0.22533144, 0.28938577, 0.17725739, 0.25660279, 0.00111991, 100.31000519, 84.83507538, 0.00000000, 0.00000000
2, 0.2549, 34, -0.08616558, -1.24220979, -0.08478006, 24.74509811, -11.87411690, -18.01708412, -69.10260010, 21.57263947, -99.97076416, 84.18717957, 3.33445358, -43.00218964, 0.68297154, -0.63134360, 0.22550231, 0.29000664, 0.14398482, 0.24906689, -0.01682518, 100.31000519, 84.83507538, 0.00000000, 0.00000000
3, 0.1902, 18, 0.55960113, -1.06324351, 0.41444296, 1.41957593, -39.52458191, -40.25992966, 27.44811440, -8.59397793, -95.23531342, 126.32334137, 43.78144836, 127.87151337, -0.48290971, 0.21257439, 0.81770563, 0.23014721, 0.13142079, 0.48092741, 0.01380377, 100.39100647, 78.03938293, 33.20000076, 0.00000000
3, 0.1952, 19, 0.52603704, -1.10442507, 0.39276457, 2.13243723, -41.64157867, -39.94300461, 27.50657654, -7.57088566, -96.08301544, 126.28627777, 44.06567001, 127.80273438, -0.48477530, 0.21161169, 0.81721759, 0.22884259, 0.16854398, 0.52460372, 0.03310237, 100.39100647, 78.03938293, 33.20000076, 0.00000000
3, 0.2002, 20, 0.49608272, -1.14831793, 0.34944552, 2.81059957, -43.17144012, -39.65374756, 27.50657654, -7.57088566, -96.08301544, 126.24512482, 44.35321426, 127.72354126, -0.48668304, 0.21068752, 0.81669587, 0.22750421, 0.20209712, 0.57100648, 0.07393919, 100.39100647, 78.03938293, 33.20000076, 0.00000000
4, 0.2398, 30, -0.51959354, -1.19130290, 0.04025126, -22.50836182, -17.10776711, 60.98430634, -3.77082729, -59.66091537, -78.16427612, 100.19809723, -20.24413300, 103.70185089, 0.28404409, -0.55515820, -0.52426773, -0.57988083, 0.17475533, 0.26751709, 0.12619451, 100.32500458, 83.57634735, 32.75000000, 0.00000000
4, 0.2448, 31, -0.49591911, -1.20605326, 0.08582924, -20.09316635, -13.11289406, 61.70337296, -3.68313360, -61.61940765, -77.87196350, 100.13964844, -20.53662682, 103.57575989, 0.28327233, -0.55664206, -0.52209121, -0.58079869, 0.14630809, 0.28383267, 0.07933660, 100.32500458, 83.57634735, 32.75000000, 0.00000000
2, 0.2599, 35, -0.05312369, -1.20754397, -0.09382702, 19.74064255, -11.63287449, -14.69980812, -68.92721558, 21.25109673, -100.61385345, 84.28204346, 3.40174270, -43.06755447, 0.68212682, -0.63192892, 0.22569367, 0.29057077, 0.11218396, 0.21429500, -0.00601406, 100.31000519, 84.83507538, 0.00000000, 0.00000000
2, 0.2649, 36, -0.02771210, -1.18464315, -0.08887297, 15.44487190, -12.46439934, -11.39512253, -68.92721558, 21.25109673, -100.61385345, 84.35522461, 3.45227265, -43.13533401, 0.68143332, -0.63234246, 0.22594610, 0.29110134, 0.08772883, 0.19131555, -0.00960681, 100.31000519, 84.83507538, 0.00000000, 0.00000000
2, 0.2699, 37, -0.00506991, -1.16090500, -0.08784687, 11.39809895, -12.74275208, -7.87236834, -68.54721069, 20.90032196, -100.20462036, 84.40986633, 3.48025227, -43.20252991, 0.68089551, -0.63259667, 0.22628598, 0.29154336, 0.06569350, 0.16751362, -0.00961083, 100.31000519, 84.83507538, 0.00000000, 0.00000000
2, 0.2749, 38, 0.00816933, -1.13431001, -0.08892156, 8.23105907, -13.08681965, -4.58973551, -68.54721069, 20.90032196, -100.20462036, 84.44691467, 3.49674392, -43.27000427, 0.68048054, -0.63271987, 0.22665270, 0.29195961, 0.05276793, 0.14086665, -0.00781031, 100.31000519, 84.83507538, 0.00000000, 0.00000000
1, 0.1852, 25, -0.33222315, -0.87375188, 0.27186978, 18.86824417, 25.81500626, 26.43204308, -53.75621033, 19.02952385, -64.07482910, 103.51388550, -7.43526983, -19.64095879, -0.61733109, 0.76540935, -0.17322326, -0.05517717, 0.20281324, -0.09100524, -0.04275282, 100.35100555, 81.39475250, 32.05999756, 0.00000000
1, 0.1902, 26, -0.23517343, -0.97940886, 0.32163846, 21.20228958, 26.63256264, 25.12488747, -53.75621033, 19.02952385, -64.07482910, 103.61007690, -7.59064817, -19.54067993, -0.61686265, 0.76586795, -0.17341185, -0.05343480, 0.10295397, 0.01528763, -0.09097812, 100.35100555, 81.39475250, 32.05999756, 0.00000000
3, 0.2052, 21, 0.48112321, -1.19087648, 0.30118048, 4.91924334, -44.78038025, -39.52065659, 27.50657654, -7.57088566, -96.08301544, 126.20697784, 44.64494324, 127.63404083, -0.48862427, 0.20982750, 0.81615436, 0.22607724, 0.22068082, 0.61614084, 0.11970998, 100.39100647, 78.03938293, 33.20000076, 0.00000000
3, 0.2102, 22, 0.47599390, -1.23497868, 0.26740646, 6.74300385, -45.66198349, -39.41088486, 28.23735809, -6.28471184, -97.01841736, 126.17327881, 44.93878937, 127.53835297, -0.49057570, 0.20901749, 0.81560528, 0.22457801, 0.22944637, 0.66289407, 0.15100893, 100.39100647, 78.03938293, 33.20000076, 0.00000000
1, 0.2502, 27, -0.08830669, -0.98571110, 0.42320442, 15.13584232, 9.18015480, 31.76150894, -54.75007248, 20.72493362, -64.92253876, 104.70280457, -9.50369358, -19.08424759, -0.61116862, 0.76974481, -0.18070309, -0.03622563, -0.07715016, 0.03083958, -0.17499991, 100.35100555, 81.39475250, 32.05999756, 0.00000000
1, 0.2552, 28, -0.14085592, -0.97287726, 0.45187885, 14.83171749, 4.95844650, 31.94517326, -54.75007248, 20.72493362, -64.92253876, 104.78013611, -9.66431618, -19.10083389, -0.61075693, 0.76989800, -0.18166420, -0.03508901, -0.02745922, 0.01874903, -0.20261960, 100.35100555, 81.39475250, 32.05999756, 0.00000000
4, 0.2798, 32, -0.27379704, -1.16193295, 0.22923602, -12.12783146, -14.57546425, 54.83987045, -3.01081562, -61.73633194, -75.76731873, 99.93060303, -22.50045967, 102.67419434, 0.27750435, -0.56713241, -0.50796080, -0.58594191, -0.10786738, 0.25148967, -0.06978746, 100.32500458, 83.57634735, 32.75000000, 0.00000000
4, 0.2848, 33, -0.23056634, -1.16099846, 0.23856057, -11.81888580, -12.83799648, 51.89853668, -3.01081562, -61.73633194, -75.76731873, 99.91649628, -22.74500275, 102.55725098, 0.27675372, -0.56846625, -0.50621754, -0.58651298, -0.15509310, 0.25215325, -0.07960857, 100.32500458, 83.57634735, 32.75000000, 0.00000000
2, 0.2799, 39, 0.01907291, -1.09759533, -0.10004301, 6.32215643, -13.55937195, -2.27648020, -68.54721069, 20.90032196, -100.20462036, 84.47433472, 3.50152850, -43.33871078, 0.68014282, -0.63275725, 0.22707292, 0.29233894, 0.04198136, 0.10411061, 0.00381161, 100.31000519, 84.83507538, 0.00000000, 0.00000000
2, 0.2849, 40, 0.02656541, -1.06950402, -0.12210300, 3.17074609, -15.05427551, 1.92781258, -68.81028748, 20.84185982, -100.64308929, 84.48567200, 3.48469520, -43.41283417, 0.67993051, -0.63264006, 0.22761327, 0.29266587, 0.03430091, 0.07598151, 0.02614392, 100.31000519, 84.83507538, 0.00000000, 0.00000000
1, 0.2649, 32, 0.13531494, -0.85693359, 0.43127441, 2.03656316, -27.82829094, 18.35969543, -55.07161713, 3.65390229, -63.63636398, 99.53443909, 22.61569595, 74.27028656, 0.59528983, -0.52034307, -0.55289650, -0.26301810, 0.24951309, -0.05327184, -0.27819499, 100.27300262, 87.94092560, 31.50000000, 0.00000000
1, 0.2699, 33, 0.09912109, -0.87872314, 0.42962646, 5.64156389, -27.58329201, 20.24969482, -55.07161713, 3.65390229, -63.63636398, 99.49913025, 22.53863525, 74.10485077, 0.59559411, -0.52129412, -0.55178440, -0.26278147, 0.28450486, -0.03208214, -0.27709863, 100.27300262, 87.94092560, 31.50000000, 0.00000000
1, 0.2749, 34, 0.07049561, -0.90295410, 0.42315674, 8.47656536, -26.60329247, 22.27969551, -54.60391617, 3.80005836, -63.40251160, 99.47959137, 22.45068359, 73.94297791, 0.59578562, -0.52235526, -0.55068284, -0.26255101, 0.31175756, -0.00847411, -0.27090353, 100.27300262, 87.94092560, 31.50000000, 0.00000000
3, 0.3252, 23, 0.02060749, 0.02323299, 0.01672787, -38.03290558, -33.99992752, 55.58792877, 29.26045036, 4.41391420, -101.16925049, 123.80495453, 48.50632477, 124.05213928, -0.52144241, 0.20640989, 0.80106300, 0.20926261, 0.72885776, -0.57250333, 0.35286796, 100.39100647, 78.03938293, 33.20000076, 0.00000000
3, 0.3302, 24, -0.00600528, 0.06572299, 0.02537159, -38.81590271, -19.91855621, 65.02539825, 29.26045036, 4.41391420, -101.16925049, 123.32299805, 48.29232407, 123.66239166, -0.52187592, 0.20796628, 0.79968894, 0.21188036, 0.75323713, -0.62029266, 0.34081769, 100.39100647, 78.03938293, 33.20000076, 0.00000000
2, 0.3049, 41, 0.04874630, -1.02562225, -0.16822529, -1.44938481, -19.27414322, 4.20683670, -68.92721558, 20.37415886, -101.19847870, 84.47533417, 3.37097144, -43.76005173, 0.67936653, -0.63163114, 0.23019151, 0.29413483, 0.01018461, 0.03199071, 0.07218666, 100.31000519, 84.83507538, 0.00000000, 0.00000000
2, 0.3099, 42, 0.04609615, -0.98350048, -0.19118258, -1.81072628, -19.58165932, 3.57466578, -68.92721558, 20.37415886, -101.19847870, 84.46066284, 3.34374309, -43.85594177, 0.67926532, -0.63128996, 0.23084715, 0.29458660, 0.01234572, -0.01013336, 0.09486857, 100.31000519, 84.83507538, 0.00000000, 0.00000000
1, 0.2602, 29, -0.19159722, -0.96318090, 0.43863103, 13.12630558, 1.90872240, 32.13955307, -55.65623856, 21.28032684, -65.01023102, 104.85158539, -9.82200336, -19.13286018, -0.61037731, 0.76999760, -0.18271041, -0.03406291, 0.02058977, 0.00984647, -0.18838398, 100.35100555, 81.39475250, 32.05999756, 0.00000000
1, 0.2652, 30, -0.25280744, -0.94510937, 0.40912136, 11.79888821, -0.15119447, 31.86198997, -55.65623856, 21.28032684, -65.01023102, 104.91819763, -9.97570324, -19.17485237, -0.61002409, 0.77005917, -0.18380001, -0.03312367, 0.07921132, -0.00743184, -0.15799463, 100.35100555, 81.39475250, 32.05999756, 0.00000000
1, 0.2702, 31, -0.30602616, -0.93091464, 0.41935807, 11.40590858, -0.20344372, 30.98944092, -55.65623856, 21.28032684, -65.01023102, 104.98281860, -10.12506866, -19.21615410, -0.60968119, 0.77011549, -0.18486078, -0.03221259, 0.12981871, -0.02091374, -0.16737619, 100.35100555, 81.39475250, 32.05999756, 0.00000000
1, 0.2799, 35, 0.05072021, -0.94665527, 0.41003418, 10.99656582, -25.02829170, 25.14969826, -54.60391617, 3.80005836, -63.40251160, 99.47515869, 22.34725189, 73.78707886, 0.59584743, -0.52353144, -0.54958421, -0.26236981, 0.32994136, 0.03455612, -0.25781214, 100.27300262, 87.94092560, 31.50000000, 0.00000000
1, 0.2849, 36, 0.04882813, -0.97540283, 0.40106201, 12.60656643, -22.12328720, 27.87969780, -55.39315796, 3.74159598, -63.28558731, 99.48406982, 22.22797585, 73.64435577, 0.59576994, -0.52478033, -0.54851574, -0.26228663, 0.32996142, 0.06256241, -0.24861328, 100.27300262, 87.94092560, 31.50000000, 0.00000000
1, 0.2899, 37, 0.05969238, -1.00671387, 0.39355469, 13.44656754, -19.56828880, 30.50469780, -55.39315796, 3.74159598, -63.28558731, 99.50175476, 22.09367561, 73.51300049, 0.59558040, -0.52608317, -0.54746175, -0.26230937, 0.31698781, 0.09306687, -0.24071199, 100.27300262, 87.94092560, 31.50000000, 0.00000000
4, 0.2898, 34, -0.20221727, -1.14446974, 0.19464038, -12.57501411, -6.51689053, 49.09868622, -3.01081562, -61.73633194, -75.76731873, 99.88494110, -22.98122978, 102.47660828, 0.27595246, -0.56956416, -0.50459790, -0.58722055, -0.18726596, 0.23713568, -0.03638056, 100.32500458, 83.57634735, 32.75000000, 0.00000000
4, 0.2948, 35, -0.16373821, -1.11086452, 0.16242272, -12.26539898, 3.92785573, 47.43311310, -2.71850324, -60.85939789, -74.33499146, 99.82971954, -23.20377159, 102.45411682, 0.27505052, -0.57029903, -0.50320393, -0.58812588, -0.22942649, 0.20493749, -0.00520596, 100.32500458, 83.57634735, 32.75000000, 0.00000000
4, 0.2998, 36, -0.14042550, -1.06917262, 0.13035852, -11.07154751, 14.56718731, 46.65948868, -2.71850324, -60.85939789, -74.33499146, 99.76050568, -23.44604874, 102.48905945, 0.27380827, -0.57081538, -0.50193232, -0.58929008, -0.25648606, 0.16465148, 0.02553148, 100.32500458, 83.57634735, 32.75000000, 0.00000000
3, 0.3352, 25, 0.01272115, 0.07345052, 0.05579926, -39.66435623, -1.37434149, 73.81704712, 29.23121834, 7.16164875, -101.31540680, 122.89325714, 47.98691177, 123.35169983, -0.52159786, 0.20964979, 0.79861587, 0.21493155, 0.73122466, -0.63390005, 0.30812076, 100.39100647, 78.03938293, 33.20000076, 0.00000000
3, 0.3402, 26, 0.05161716, 0.02811965, 0.02699646, -39.80492783, 12.81279755, 82.86432648, 29.23121834, 7.16164875, -101.31540680, 122.50685120, 47.60364914, 123.09877777, -0.52073413, 0.21150924, 0.79776967, 0.21832009, 0.68806195, -0.59504879, 0.33558053, 100.39100647, 78.03938293, 33.20000076, 0.00000000
3, 0.3452, 27, 0.07429634, -0.09289117, -0.02251082, -40.83643341, 27.89697266, 92.28132629, 29.43583679, 8.18474102, -100.70154572, 122.16258240, 47.13919830, 122.90842438, -0.51925540, 0.21352537, 0.79715443, 0.22209361, 0.66014886, -0.48109818, 0.38461727, 100.39100647, 78.03938293, 33.20000076, 0.00000000
1, 0.2752, 32, -0.33927256, -0.91028845, 0.48529980, 11.51936150, 1.88407302, 29.67072105, -54.86699677, 20.90032196, -63.98713684, 105.04600525, -10.27071476, -19.24568939, -0.60934830, 0.77018666, -0.18582147, -0.03126564, 0.16038333, -0.04093092, -0.23243394, 100.35100555, 81.39475250, 32.05999756, 0.00000000
1, 0.2802, 33, -0.33071259, -0.90514708, 0.50718129, 11.79191589, 2.57966900, 28.35184669, -54.86699677, 20.90032196, -63.98713684, 105.10971069, -10.41085052, -19.27023888, -0.60900915, 0.77027529, -0.18671931, -0.03032824, 0.14933428, -0.04539550, -0.25334066, 100.35100555, 81.39475250, 32.05999756, 0.00000000
1, 0.2852, 34, -0.30950132, -0.90687120, 0.40909359, 9.97958755, -0.84700769, 26.78599739, -55.71470261, 20.66647148, -63.84098053, 105.16710663, -10.53897667, -19.30971909, -0.60869998, 0.77032256, -0.18765336, -0.02956219, 0.12610927, -0.04284325, -0.15432897, 100.35100555, 81.39475250, 32.05999756, 0.00000000
2, 0.3149, 43, 0.04470705, -0.98613256, -0.18058920, 0.79344589, -19.91745949, 2.85206604, -68.92721558, 20.37415886, -101.19847870, 84.45894623, 3.31993365, -43.95385361, 0.67907923, -0.63102847, 0.23152615, 0.29504257, 0.01330454, -0.00751790, 0.08418697, 100.31000519, 84.83507538, 0.00000000, 0.00000000
2, 0.3199, 44, 0.04156798, -0.97420079, -0.17339122, 2.19237447, -20.04540253, 1.84860575, -69.24875641, 20.84185982, -100.78924561, 84.45184326, 3.29851103, -44.05361176, 0.67891204, -0.63073605, 0.23218670, 0.29553309, 0.01606837, -0.01946774, 0.07694958, 100.31000519, 84.83507538, 0.00000000, 0.00000000
2, 0.3249, 45, 0.04103946, -0.96393198, -0.16807303, 2.98748231, -19.96492958, 0.63673121, -69.24875641, 20.84185982, -100.78924561, 84.46106720, 3.28569484, -44.15282440, 0.67863560, -0.63056040, 0.23283410, 0.29603332, 0.01632571, -0.02975566, 0.07166639, 100.31000519, 84.83507538, 0.00000000, 0.00000000
1, 0.2949, 38, 0.08135986, -1.02978516, 0.38848877, 13.09656811, -17.18828583, 33.05969620, -55.39315796, 3.74159598, -63.28558731, 99.52191925, 21.94484711, 73.39211273, 0.59531105, -0.52740920, -0.54640532, -0.26246074, 0.29297030, 0.11525212, -0.23517257, 100.27300262, 87.94092560, 31.50000000, 0.00000000
1, 0.2999, 39, 0.10754395, -1.04266357, 0.37506104, 12.22156620, -15.82328796, 35.57969666, -55.59777832, 3.80005836, -63.08097076, 99.53989410, 21.78250313, 73.27630615, 0.59499860, -0.52875525, -0.54531455, -0.26272899, 0.26421094, 0.12715986, -0.22127306, 100.27300262, 87.94092560, 31.50000000, 0.00000000
4, 0.3048, 37, -0.10003289, -1.02881801, 0.14678793, -9.69459343, 19.99900627, 45.82173157, -2.36772871, -62.64250183, -72.93189240, 99.68590546, -23.68873978, 102.55437469, 0.27243295, -0.57118738, -0.50077951, -0.59054655, -0.30076689, 0.12576295, 0.00764504, 100.32500458, 83.57634735, 32.75000000, 0.00000000
4, 0.3098, 38, -0.08459092, -0.97645837, 0.17006239, -8.86050510, 22.32749939, 44.83426285, -2.36772871, -62.64250183, -72.93189240, 99.60961914, -23.92845154, 102.63361359, 0.27100998, -0.57148492, -0.49969798, -0.59182811, -0.32005367, 0.07486714, -0.01710851, 100.32500458, 83.57634735, 32.75000000, 0.00000000
4, 0.3148, 39, -0.08801349, -0.95669633, 0.18502073, -8.36339283, 22.56814194, 42.76893234, -2.36772871, -62.64250183, -72.93189240, 99.53402710, -24.15807343, 102.71651459, 0.26962149, -0.57173443, -0.49868131, -0.59307760, -0.32032734, 0.05652582, -0.03352898, 100.32500458, 83.57634735, 32.75000000, 0.00000000
2, 0.3299, 46, 0.03766406, -0.94925207, -0.14986435, 4.48803997, -19.43270874, -0.56499946, -69.04413605, 20.25723457, -101.16925049, 84.47794342, 3.27914071, -44.24996185, 0.67830718, -0.63044775, 0.23345184, 0.29653898, 0.01955723, -0.04446719, 0.05369870, 100.31000519, 84.83507538, 0.00000000, 0.00000000
2, 0.3349, 47, 0.03543035, -0.95148170, -0.13787788, 6.49041128, -18.21158218, -1.12818980, -69.04413605, 20.25723457, -101.16925049, 84.50517273, 3.27601647, -44.34128571, 0.67792827, -0.63041544, 0.23404366, 0.29700708, 0.02172226, -0.04228235, 0.04213579, 100.31000519, 84.83507538, 0.00000000, 0.00000000
2, 0.3399, 48, 0.02798807, -0.96054375, -0.12248756, 8.91544151, -15.74316978, -1.56642044, -69.04413605, 20.25723457, -101.16925049, 84.54522705, 3.27629995, -44.42051697, 0.67750180, -0.63049096, 0.23458172, 0.29739532, 0.02915991, -0.03328357, 0.02740109, 100.31000519, 84.83507538, 0.00000000, 0.00000000
1, 0.2902, 35, -0.32961470, -0.91360247, 0.30648705, 7.87657785, -3.81786466, 24.98934555, -55.71470261, 20.66647148, -63.84098053, 105.22045898, -10.67031002, -19.36326408, -0.60841656, 0.77031863, -0.18869610, -0.02885447, 0.14431199, -0.03531371, -0.05100535, 100.35100555, 81.39475250, 32.05999756, 0.00000000
1, 0.2952, 36, -0.33961627, -0.92542982, 0.23976877, 6.33071804, -2.81763339, 23.38541222, -55.71470261, 20.66647148, -63.84098053, 105.26077271, -10.77942085, -19.40818024, -0.60820788, 0.77029181, -0.18956347, -0.02827470, 0.15245198, -0.02280774, 0.01630273, 100.35100555, 81.39475250, 32.05999756, 0.00000000
3, 0.3502, 28, 0.12334013, -0.23312053, -0.02142421, -45.33316803, 45.59781647, 101.80149078, 29.43583679, 8.18474102, -100.70154572, 121.85427856, 46.58674622, 122.79660034, -0.51709819, 0.21559410, 0.79678875, 0.22639883, 0.60479224, -0.34860712, 0.38392860, 100.39100647, 78.03938293, 33.20000076, 0.00000000
3, 0.3552, 29, 0.18719527, -0.36741912, 0.03475380, -47.97930527, 60.08973694, 110.59970856, 29.43583679, 8.18474102, -100.70154572, 121.57762909, 45.95838547, 122.74578094, -0.51435900, 0.21775921, 0.79661638, 0.23112376, 0.53358930, -0.22267231, 0.32891285, 100.39100647, 78.03938293, 33.20000076, 0.00000000
3, 0.3602, 30, 0.21775264, -0.52500015, 0.20079993, -49.32385254, 68.29972839, 117.49224091, 29.81584358, 7.71704149, -99.85384369, 121.31553650, 45.27904510, 122.72414398, -0.51125854, 0.22004290, 0.79651970, 0.23611945, 0.49490169, -0.07389816, 0.16448751, 100.39100647, 78.03938293, 33.20000076, 0.00000000
1, 0.3299, 40, 0.21392822, -1.00256348, 0.23834229, 6.65656471, -14.31828690, 40.96969986, -55.77316666, 3.94621444, -62.73019409, 99.56650543, 20.66814423, 72.57662201, 0.59308052, -0.53696847, -0.53797090, -0.26553285, 0.13980012, 0.08022749, -0.08286895, 100.27300262, 87.94092560, 31.50000000, 0.00000000
1, 0.3349, 41, 0.21893311, -0.98370361, 0.23175049, 5.74656439, -13.23328590, 40.19969940, -56.27009583, 4.41391420, -62.87635040, 99.55821228, 20.48092651, 72.47126770, 0.59278971, -0.53821319, -0.53675222, -0.26612774, 0.13172144, 0.06020636, -0.07620757, 100.27300262, 87.94092560, 31.50000000, 0.00000000
1, 0.3402, 37, -0.20684209, -0.97609353, 0.19489413, 5.26839161, -4.31156921, 18.45602226, -56.47471619, 22.24495697, -64.10406494, 105.54051208, -11.56919575, -19.88366508, -0.60674804, 0.76973802, -0.19682811, -0.02487792, 0.00616436, 0.03181617, 0.06542371, 100.35100555, 81.39475250, 32.05999756, 0.00000000
1, 0.3452, 38, -0.19720595, -0.99477768, 0.19017939, 5.50725079, -0.57781869, 18.26155853, -56.47471619, 22.24495697, -64.10406494, 105.57383728, -11.65635681, -19.91133499, -0.60657650, 0.76972741, -0.19746140, -0.02436551, -0.00493668, 0.05093386, 0.07053277, 100.35100555, 81.39475250, 32.05999756, 0.00000000
4, 0.3198, 40, -0.10782304, -0.93516588, 0.20334218, -7.99870062, 21.63872147, 40.51058197, -1.87079799, -60.68400955, -71.35340118, 99.46099091, -24.37569809, 102.79690552, 0.26830131, -0.57196063, -0.49771723, -0.59426677, -0.30402976, 0.03635893, -0.05326811, 100.32500458, 83.57634735, 32.75000000, 0.00000000
4, 0.3248, 41, -0.17068966, -0.91256744, 0.20852260, -8.31524086, 21.75667572, 37.37861633, -1.87079799, -60.68400955, -71.35340118, 99.38449097, -24.57787895, 102.88118744, 0.26706666, -0.57210994, -0.49682260, -0.59542680, -0.24444818, 0.01503491, -0.05987800, 100.32500458, 83.57634735, 32.75000000, 0.00000000
2, 0.3449, 49, 0.02229798, -0.97722942, -0.11108867, 9.64972019, -13.38435173, -1.70152032, -69.04413605, 20.22800255, -101.16925049, 84.58960724, 3.27843261, -44.48805237, 0.67707711, -0.63061982, 0.23505573, 0.29771498, 0.03487998, -0.01666841, 0.01676041, 100.31000519, 84.83507538, 0.00000000, 0.00000000
2, 0.3499, 50, 0.01484011, -0.98727357, -0.10755691, 9.00856113, -11.30611992, -1.74313366, -69.04413605, 20.22800255, -101.16925049, 84.63138580, 3.28180194, -44.54523849, 0.67669046, -0.63075686, 0.23545872, 0.29798508, 0.04239103, -0.00669158, 0.01397409, 100.31000519, 84.83507538, 0.00000000, 0.00000000
3, 0.3652, 31, 0.22014178, -0.61913699, 0.27923560, -50.78577042, 71.50897217, 124.46691132, 29.81584358, 7.71704149, -99.85384369, 121.04534912, 44.56151199, 122.70112610, -0.50796723, 0.22249416, 0.79637903, 0.24134237, 0.48375666, 0.01101557, 0.08778640, 100.39100647, 78.03938293, 33.20000076, 0.00000000
3, 0.3702, 32, 0.23810929, -0.66700125, 0.32929254, -58.51227570, 71.55078888, 132.34567261, 29.81584358, 7.71704149, -99.85384369, 120.72109222, 43.80995941, 122.65560913, -0.50464267, 0.22503731, 0.79604411, 0.24699733, 0.45653701, 0.04914744, 0.03909770, 100.39100647, 78.03938293, 33.20000076, 0.00000000
1, 0.3399, 42, 0.21636963, -0.96472168, 0.23211670, 4.55656433, -11.97328472, 38.83470154, -56.27009583, 4.41391420, -62.87635040, 99.54708099, 20.29937744, 72.37391663, 0.59251118, -0.53937882, -0.53558266, -0.26674390, 0.13129042, 0.04009581, -0.07655668, 100.27300262, 87.94092560, 31.50000000, 0.00000000
1, 0.3449, 43, 0.21044922, -0.94842529, 0.23229980, 3.33156371, -10.15328503, 37.01469803, -56.27009583, 4.41391420, -62.87635040, 99.53401184, 20.12528038, 72.28788757, 0.59223837, -0.54044735, -0.53448707, -0.26738369, 0.13432921, 0.02271626, -0.07676801, 100.27300262, 87.94092560, 31.50000000, 0.00000000
1, 0.3499, 44, 0.21173096, -0.93304443, 0.23321533, 2.10656309, -7.91328382, 34.98469925, -56.35778809, 4.76468849, -63.25635529, 99.51976013, 19.95931435, 72.21552277, 0.59196430, -0.54140931, -0.53348148, -0.26805165, 0.13029389, 0.00630421, -0.07774507, 100.27300262, 87.94092560, 31.50000000, 0.00000000
3, 0.4252, 33, 0.55843294, -0.68093973, 0.31733638, -81.96536255, 62.36526489, 191.52938843, 32.18357086, 4.12160206, -92.04911041, 115.72859192, 34.03967285, 121.08287811, -0.46595404, 0.26264122, 0.78158909, 0.32097498, 0.00494102, -0.06254080, 0.04297467, 100.39100647, 78.03938293, 33.20000076, 0.00000000
3, 0.4302, 34, 0.61269909, -0.69917822, 0.33122027, -85.14289093, 56.55176163, 195.48002625, 32.18357086, 4.12160206, -92.04911041, 115.19364166, 33.03679657, 120.88496399, -0.46224833, 0.26676762, 0.77927047, 0.32847986, -0.06386688, -0.05638030, 0.02639896, 100.39100647, 78.03938293, 33.20000076, 0.00000000
2, 0.3549, 51, 0.00534992, -0.99257183, -0.10620273, 7.23852491, -9.64604568, -1.76166236, -69.21952820, 20.69570351, -100.81847382, 84.66477966, 3.28607798, -44.59415436, 0.67636913, -0.63086325, 0.23578911, 0.29822814, 0.05195124, -0.00144762, 0.01324074, 100.31000519, 84.83507538, 0.00000000, 0.00000000
1, 0.3502, 39, -0.15699078, -0.99363995, 0.16145787, 5.01185226, 2.07354450, 17.91043472, -55.91932297, 22.18649483, -64.22098541, 105.60202026, -11.74535942, -19.92554474, -0.60644358, 0.76970923, -0.19801205, -0.02377771, -0.04659583, 0.05027927, 0.09975326, 100.35100555, 81.39475250, 32.05999756, 0.00000000
1, 0.3552, 40, -0.10085577, -0.97462618, 0.15405600, 5.83416271, 4.62719440, 17.75052261, -55.91932297, 22.18649483, -64.22098541, 105.63169861, -11.83699131, -19.92701721, -0.60630459, 0.76971608, -0.19849022, -0.02310143, -0.10426238, 0.03172168, 0.10771476, 100.35100555, 81.39475250, 32.05999756, 0.00000000
1, 0.3602, 41, -0.02903670, -0.96139479, 0.21021067, 7.02006912, 6.80589628, 18.83892250, -56.27009583, 21.71879578, -63.98713684, 105.66545105, -11.93677711, -19.91930199, -0.60614508, 0.76974666, -0.19894813, -0.02231298, -0.17787941, 0.01888344, 0.05220129, 100.35100555, 81.39475250, 32.05999756, 0.00000000
4, 0.3848, 42, -0.09174170, -0.87714678, 0.07480068, -20.30804634, 37.87792206, 22.08638000, 0.32154340, -62.02864456, -65.59485626, 97.62118530, -26.71418571, 104.90306854, 0.25265026, -0.56683487, -0.48778215, -0.61395007, -0.35728937, -0.00838012, 0.04441509, 100.32500458, 83.57634735, 32.75000000, 0.00000000
4, 0.3898, 43, -0.07960553, -0.83901697, 0.05738026, -18.47301865, 30.46961975, 19.60834694, 0.32154340, -62.02864456, -65.59485626, 97.45912170, -26.83137321, 105.05782318, 0.25193298, -0.56623149, -0.48713747, -0.61531204, -0.37132379, -0.04591266, 0.05907446, 100.32500458, 83.57634735, 32.75000000, 0.00000000
2, 0.3849, 52, -0.05872015, -0.91926360, -0.13014764, -8.06955814, -5.20227051, -2.11684871, -69.07337189, 20.08184814, -100.93539429, 84.59307098, 3.29402423, -44.80032349, 0.67620671, -0.63003325, 0.23668836, 0.29963529, 0.11614349, -0.07466336, 0.03627751, 100.31000519, 84.83507538, 0.00000000, 0.00000000
2, 0.3899, 53, -0.06734482, -0.89116728, -0.12875895, -9.80152988, -4.37422991, -2.07807374, -69.39491272, 20.16954041, -101.46156311, 84.54275513, 3.30229688, -44.82311630, 0.67640376, -0.62970829, 0.23663214, 0.29991806, 0.12491259, -0.10267052, 0.03403739, 100.31000519, 84.83507538, 0.00000000, 0.00000000
2, 0.3949, 54, -0.07248571, -0.87521815, -0.11926059, -10.82826996, -3.68263483, -2.14224124, -69.39491272, 20.16954041, -101.46156311, 84.48748779, 3.31119823, -44.84249496, 0.67663515, -0.62936252, 0.23654021, 0.30019420, 0.13020584, -0.11852112, 0.02360200, 100.31000519, 84.83507538, 0.00000000, 0.00000000
1, 0.3549, 45, 0.21191406, -0.91894531, 0.23889160, 1.40656292, -6.12828350, 32.14970016, -56.35778809, 4.76468849, -63.25635529, 99.50624847, 19.80583763, 72.15514374, 0.59169716, -0.54226518, -0.53257960, -0.26870430, 0.12754954, -0.00874764, -0.08348963, 100.27300262, 87.94092560, 31.50000000, 0.00000000
1, 0.3599, 46, 0.22491455, -0.90875244, 0.25476074, 0.04156243, -0.66828173, 28.92969704, -56.82548904, 5.05700064, -62.35018921, 99.49669647, 19.66373634, 72.12626648, 0.59137213, -0.54294586, -0.53187788, -0.26943418, 0.11215727, -0.01981768, -0.09939130, 100.27300262, 87.94092560, 31.50000000, 0.00000000
1, 0.3649, 47, 0.24389648, -0.90313721, 0.27008057, -0.55343777, 2.72671938, 26.16469383, -56.82548904, 5.05700064, -62.35018921, 99.49102783, 19.53245544, 72.11763000, 0.59101403, -0.54350638, -0.53132153, -0.27018660, 0.09097218, -0.02622572, -0.11468712, 100.27300262, 87.94092560, 31.50000000, 0.00000000
4, 0.3948, 44, -0.05270577, -0.80718118, 0.05093171, -15.50526714, 23.18197823, 18.36455536, -0.08769365, -61.61940765, -65.41946411, 97.32572174, -26.91610718, 105.17432404, 0.25146782, -0.56574196, -0.48660484, -0.61637312, -0.39973962, -0.07726616, 0.06328589, 100.32500458, 83.57634735, 32.75000000, 0.00000000
4, 0.3998, 45, -0.04482383, -0.78614718, 0.07561639, -13.10674953, 16.02214241, 17.69371223, -0.08769365, -61.61940765, -65.41946411, 97.22546387, -27.01401711, 105.25090790, 0.25097507, -0.56554246, -0.48599094, -0.61724061, -0.40901136, -0.09781656, 0.03681811, 100.32500458, 83.57634735, 32.75000000, 0.00000000
4, 0.4048, 46, -0.05023048, -0.76383549, 0.08670245, -10.93876553, 6.65908670, 16.70839119, -0.08769365, -61.61940765, -65.41946411, 97.15924072, -27.10107803, 105.27625275, 0.25065365, -0.56559747, -0.48535675, -0.61781961, -0.40500531, -0.11956602, 0.02448291, 100.32500458, 83.57634735, 32.75000000, 0.00000000
1, 0.3652, 42, -0.00588536, -0.96790719, 0.24997635, 7.62632561, 6.98677063, 20.23760414, -56.27009583, 21.71879578, -63.98713684, 105.70246124, -12.04353333, -19.91267014, -0.60596758, 0.76978076, -0.19944845, -0.02147613, -0.20292595, 0.02586477, 0.01297741, 100.35100555, 81.39475250, 32.05999756, 0.00000000
1, 0.3702, 43, 0.01317857, -0.98555529, 0.27131113, 6.97944117, 5.08333731, 22.40875435, -56.18240356, 21.71879578, -63.98713684, 105.73885345, -12.15819550, -19.91847420, -0.60579652, 0.76977634, -0.20007129, -0.02065112, -0.22397532, 0.04404726, -0.00784097, 100.35100555, 81.39475250, 32.05999756, 0.00000000
1, 0.3752, 44, 0.00964156, -0.98621964, 0.23522642, 6.11341715, 3.53860497, 24.06546402, -56.18240356, 22.77112007, -63.98713684, 105.77305603, -12.27875710, -19.93426132, -0.60564172, 0.76973242, -0.20078978, -0.01984148, -0.22237478, 0.04535184, 0.02868173, 100.35100555, 81.39475250, 32.05999756, 0.00000000
2, 0.3999, 55, -0.06739511, -0.86111677, -0.10191571, -12.24223900, -2.68103862, -2.06457353, -69.39491272, 20.16954041, -101.46156311, 84.42545319, 3.32017827, -44.85686111, 0.67691648, -0.62898713, 0.23640224, 0.30045506, 0.12527086, -0.13251297, 0.00521870, 100.31000519, 84.83507538, 0.00000000, 0.00000000
2, 0.4049, 56, -0.05850815, -0.85362089, -0.08330306, -13.93710899, -1.54248333, -1.84714150, -68.98567963, 20.14031029, -101.87079620, 84.35527039, 3.32861924, -44.86544800, 0.67725873, -0.62857425, 0.23621432, 0.30069566, 0.11653670, -0.13988394, -0.01457924, 100.31000519, 84.83507538, 0.00000000, 0.00000000
2, 0.4099, 57, -0.04629048, -0.85139096, -0.05979227, -15.76893520, -0.37202957, -1.31697404, -68.98567963, 20.14031029, -101.87079620, 84.27626801, 3.33498883, -44.86795425, 0.67766994, -0.62811679, 0.23598222, 0.30090722, 0.10443961, -0.14197469, -0.03942087, 100.31000519, 84.83507538, 0.00000000, 0.00000000
4, 0.4098, 47, -0.05398018, -0.73705256, 0.09601896, -8.48469162, -2.93863630, 15.32875252, 0.14615609, -61.67787170, -65.18561554, 97.12918091, -27.17531204, 105.24915314, 0.25051194, -0.56590849, -0.48471746, -0.61809427, -0.40245897, -0.14581303, 0.01448723, 100.32500458, 83.57634735, 32.75000000, 0.00000000
4, 0.4148, 48, -0.06073765, -0.71985042, 0.08489327, -5.79647446, -10.81925488, 14.46402645, 0.14615609, -61.67787170, -65.18561554, 97.13242340, -27.24035835, 105.17870331, 0.25049368, -0.56644267, -0.48408553, -0.61810756, -0.39674172, -0.16249421, 0.02547368, 100.32500458, 83.57634735, 32.75000000, 0.00000000
4, 0.4198, 49, -0.06800111, -0.70913869, 0.06758155, -3.52149200, -15.84401035, 14.00931931, 0.35077462, -62.14557266, -63.84098053, 97.15982056, -27.30001450, 105.08046722, 0.25053737, -0.56712711, -0.48347089, -0.61794317, -0.39042258, -0.17268074, 0.04306186, 100.32500458, 83.57634735, 32.75000000, 0.00000000
1, 0.3802, 45, 0.00977376, -0.97237051, 0.21600071, 6.66883326, 5.09983778, 25.98842621, -56.18240356, 22.77112007, -63.98713684, 105.80903625, -12.41067696, -19.94510269, -0.60548270, 0.76968682, -0.20153166, -0.01892364, -0.22465400, 0.03215988, 0.04838226, 100.35100555, 81.39475250, 32.05999756, 0.00000000
1, 0.3852, 46, 0.02082672, -0.95740569, 0.23989086, 7.59879637, 8.05607510, 27.97492027, -56.82548904, 23.29728127, -64.04560089, 105.84716797, -12.55614853, -19.94421577, -0.60531908, 0.76964957, -0.20226221, -0.01784587, -0.23819073, 0.01784480, 0.02501217, 100.35100555, 81.39475250, 32.05999756, 0.00000000
2, 0.4149, 58, -0.03608117, -0.85640711, -0.03748230, -17.80718040, 0.96795332, -0.36804548, -68.92721558, 20.28646660, -101.98772430, 84.18750000, 3.33730459, -44.86331558, 0.67816299, -0.62760657, 0.23570964, 0.30107486, 0.09429035, -0.13680491, -0.06322270, 100.31000519, 84.83507538, 0.00000000, 0.00000000
2, 0.4199, 59, -0.02694522, -0.85682213, -0.01983251, -20.37195969, 2.37430954, 0.82271647, -68.92721558, 20.28646660, -101.98772430, 84.09518433, 3.32526159, -44.85053635, 0.67873091, -0.62705833, 0.23546994, 0.30112478, 0.08504856, -0.13623004, -0.08249696, 100.31000519, 84.83507538, 0.00000000, 0.00000000
2, 0.4249, 60, -0.01837730, -0.85014045, -0.00357838, -22.79181290, 3.67505312, 2.25598288, -68.92721558, 20.28646660, -101.98772430, 83.98234558, 3.31595540, -44.83105469, 0.67942154, -0.62640816, 0.23512323, 0.30119148, 0.07626586, -0.14273423, -0.10057838, 100.31000519, 84.83507538, 0.00000000, 0.00000000
4, 0.4248, 50, -0.07868892, -0.69098192, 0.06201583, -1.89430392, -19.69773483, 13.58990765, 0.35077462, -62.14557266, -63.84098053, 97.20523834, -27.35511971, 104.96091461, 0.25063318, -0.56792390, -0.48286793, -0.61764395, -0.38060501, -0.19031173, 0.04920769, 100.32500458, 83.57634735, 32.75000000, 0.00000000
4, 0.4298, 51, -0.08118469, -0.68222153, 0.07554905, -1.24339914, -21.16919136, 12.92087650, 0.35077462, -62.14557266, -63.84098053, 97.25761414, -27.40589333, 104.83350372, 0.25076163, -0.56875271, -0.48228240, -0.61728656, -0.37890977, -0.19856080, 0.03641425, 100.32500458, 83.57634735, 32.75000000, 0.00000000
3, 0.4352, 35, 0.65831053, -0.71401083, 0.33263856, -87.72116852, 47.22304535, 199.06819153, 32.00818253, 2.92312193, -90.49985504, 114.62427521, 32.03458023, 120.64171600, -0.45878860, 0.27107808, 0.77661198, 0.33601132, -0.12418930, -0.05361290, 0.02154319, 100.39100647, 78.03938293, 33.20000076, 0.00000000
3, 0.4402, 36, 0.67950737, -0.72240347, 0.32945806, -90.08993530, 35.72273254, 202.52363586, 32.00818253, 2.92312193, -90.49985504, 114.01780701, 31.03825188, 120.34336090, -0.45565236, 0.27560103, 0.77357376, 0.34352422, -0.16018833, -0.05723921, 0.02045761, 100.39100647, 78.03938293, 33.20000076, 0.00000000
3, 0.4452, 37, 0.67984849, -0.72263992, 0.32442063, -92.60363770, 24.57973862, 205.46051025, 32.00818253, 2.92312193, -90.49985504, 113.37760925, 30.04816437, 119.99460602, -0.45283419, 0.28031334, 0.77016592, 0.35101303, -0.17539537, -0.06893818, 0.02040774, 100.39100647, 78.03938293, 33.20000076, 0.00000000
1, 0.4152, 47, 0.05508878, -0.93060052, 0.24966364, 9.07020950, 10.32440567, 42.94248581, -57.20549393, 23.96959877, -64.22098541, 106.09592438, -13.65042686, -19.99306870, -0.60431045, 0.76902801, -0.20809449, -0.01008409, -0.29074234, -0.00375319, 0.01822602, 100.35100555, 81.39475250, 32.05999756, 0.00000000
1, 0.4202, 48, 0.06669076, -0.92950833, 0.25225908, 9.37557220, 9.27972603, 45.96324158, -57.55627060, 24.20344925, -64.27944946, 106.14800262, -13.88400841, -20.01245880, -0.60409576, 0.76886374, -0.20939258, -0.00847308, -0.30626628, -0.00369259, 0.01622516, 100.35100555, 81.39475250, 32.05999756, 0.00000000
3, 0.4502, 38, 0.66533083, -0.71813601, 0.32308960, -94.21336365, 16.93665314, 208.81340027, 31.71587181, 1.90002918, -89.76907349, 112.71896362, 29.05428886, 119.61430359, -0.45019650, 0.28519535, 0.76646501, 0.35849425, -0.17590758, -0.08527189, 0.01599087, 100.39100647, 78.03938293, 33.20000076, 0.00000000
3, 0.4552, 39, 0.63374048, -0.70765644, 0.32118756, -95.94445801, 3.23158813, 211.88642883, 31.71587181, 1.90002918, -89.76907349, 112.02784729, 28.06845856, 119.17218781, -0.44794485, 0.29033151, 0.76235157, 0.36588672, -0.15942314, -0.10742840, 0.01142976, 100.39100647, 78.03938293, 33.20000076, 0.00000000
3, 0.4602, 40, 0.59369391, -0.69165492, 0.30854988, -96.76604462, -5.91912317, 216.05200195, 31.51125336, -0.14615609, -88.42443848, 111.32134247, 27.07548714, 118.69106293, -0.44589433, 0.29570606, 0.75791359, 0.37323347, -0.13467413, -0.13494988, 0.01702498, 100.39100647, 78.03938293, 33.20000076, 0.00000000
4, 0.4648, 52, 0.01965917, -0.64503288, 0.15573837, 6.37802553, -57.87423325, -7.84046602, -0.26308095, -62.78865814, -63.75328827, 98.14376068, -27.31696892, 103.17971802, 0.25570568, -0.57734329, -0.47917056, -0.60965967, -0.47890052, -0.23441762, -0.03058338, 100.32500458, 83.57634735, 32.75000000, 0.00000000
4, 0.4698, 53, -0.00951192, -0.63016391, 0.17530537, 4.29564810, -58.64648056, -11.61384964, -0.26308095, -62.78865814, -63.75328827, 98.31054688, -27.21752930, 102.86257172, 0.25713170, -0.57870650, -0.47892153, -0.60796076, -0.44826168, -0.24965942, -0.04742359, 100.32500458, 83.57634735, 32.75000000, 0.00000000
1, 0.3699, 48, 0.27264404, -0.89508057, 0.28149414, -1.32343793, 6.33172083, 23.11969376, -56.82548904, 5.05700064, -62.35018921, 99.48871613, 19.41321182, 72.13053131, 0.59062570, -0.54393333, -0.53092057, -0.27096349, 0.06021257, -0.03499434, -0.12603688, 100.27300262, 87.94092560, 31.50000000, 0.00000000
1, 0.3749, 49, 0.30676270, -0.88928223, 0.29064941, -1.95343816, 9.97172070, 20.07469368, -57.35165024, 4.20929527, -62.78865814, 99.49040985, 19.30599022, 72.16511536, 0.59020346, -0.54422987, -0.53067774, -0.27176264, 0.02428134, -0.04142013, -0.13507697, 100.27300262, 87.94092560, 31.50000000, 0.00000000
2, 0.4499, 61, 0.01261256, -0.77532351, 0.08276869, -35.15662766, 7.07409096, 7.60148859, -69.13182831, 20.49108505, -102.86465454, 83.23482513, 3.18461752, -44.65369034, 0.68427265, -0.62201744, 0.23299102, 0.30096599, 0.04308954, -0.21626127, -0.19962896, 100.31000519, 84.83507538, 0.00000000, 0.00000000
2, 0.4549, 62, 0.01094985, -0.77415323, 0.08966896, -36.00050354, 6.65507793, 7.79977894, -68.48874664, 20.57877731, -103.80005646, 83.05691528, 3.14986920, -44.61594391, 0.68541884, -0.62094986, 0.23253094, 0.30091807, 0.04415054, -0.21709862, -0.20959875, 100.31000519, 84.83507538, 0.00000000, 0.00000000
2, 0.4599, 63, 0.01149189, -0.77329433, 0.08888066, -36.42426682, 5.92751122, 7.68257046, -68.48874664, 20.57877731, -103.80005646, 82.87666321, 3.11537766, -44.58177567, 0.68656582, -0.61985964, 0.23208326, 0.30089688, 0.04300361, -0.21761015, -0.21191791, 100.31000519, 84.83507538, 0.00000000, 0.00000000
3, 0.4652, 41, 0.56189972, -0.68012416, 0.30163252, -96.94076538, -11.60806274, 219.30757141, 31.51125336, -0.14615609, -88.42443848, 110.61328125, 26.07231712, 118.19176483, -0.44393292, 0.30124536, 0.75323808, 0.38053557, -0.11846167, -0.15780759, 0.01649663, 100.39100647, 78.03938293, 33.20000076, 0.00000000
4, 0.4748, 54, -0.04208187, -0.60596055, 0.19346717, 2.03384519, -54.69621277, -15.19244289, -0.64308679, -62.81789017, -63.75328827, 98.45384979, -27.10250473, 102.57092285, 0.25862554, -0.57986099, -0.47874406, -0.60636479, -0.41396290, -0.27440438, -0.06315804, 100.32500458, 83.57634735, 32.75000000, 0.00000000
4, 0.4798, 55, -0.06334088, -0.57216221, 0.17931369, 1.68208122, -50.09075165, -18.52089691, -0.64308679, -62.81789017, -63.75328827, 98.58168030, -26.97382355, 102.30824280, 0.26011860, -0.58081675, -0.47869062, -0.60485160, -0.39075470, -0.30888754, -0.04684432, 100.32500458, 83.57634735, 32.75000000, 0.00000000
4, 0.4848, 56, -0.09968075, -0.54440939, 0.14823040, 3.13065910, -44.41650391, -21.58930969, -0.52616191, -62.52557755, -64.39637756, 98.70051575, -26.83374023, 102.08022308, 0.26153612, -0.58157229, -0.47881520, -0.60341418, -0.35227692, -0.33743337, -0.01374165, 100.32500458, 83.57634735, 32.75000000, 0.00000000
1, 0.4252, 49, 0.07047907, -0.92047989, 0.24519657, 9.31718063, 6.12468386, 49.70946884, -57.55627060, 24.20344925, -64.27944946, 106.20503998, -14.13119888, -20.05306625, -0.60385251, 0.76865911, -0.21089850, -0.00686921, -0.31417692, -0.01145732, 0.02393860, 100.35100555, 81.39475250, 32.05999756, 0.00000000
1, 0.4302, 50, 0.05613221, -0.90789378, 0.25114250, 9.70361233, 4.21458912, 52.53330231, -57.55627060, 24.20344925, -64.27944946, 106.26760864, -14.38924503, -20.10748482, -0.60357636, 0.76843423, -0.21254832, -0.00525112, -0.30416590, -0.02271462, 0.01866554, 100.35100555, 81.39475250, 32.05999756, 0.00000000
1, 0.4352, 51, 0.04190331, -0.89661348, 0.25341743, 9.95825768, 1.33858812, 54.91516113, -58.31628036, 25.02192307, -64.04560089, 106.33626556, -14.65466118, -20.17998695, -0.60326195, 0.76818913, -0.21435280, -0.00366409, -0.29440290, -0.03257655, 0.01714091, 100.35100555, 81.39475250, 32.05999756, 0.00000000
2, 0.4649, 64, 0.00855633, -0.77188998, 0.08761493, -36.99601746, 5.82637978, 7.19154024, -68.98567963, 21.45571518, -104.41390991, 82.69348907, 3.08336067, -44.54830933, 0.68771887, -0.61875415, 0.23161718, 0.30089805, 0.04536917, -0.21864802, -0.21381357, 100.31000519, 84.83507538, 0.00000000, 0.00000000
2, 0.4699, 65, 0.00648356, -0.76809251, 0.08834244, -37.28674698, 5.76125145, 6.59809589, -68.98567963, 21.45571518, -104.41390991, 82.52075958, 3.05226803, -44.51490021, 0.68881136, -0.61771137, 0.23117374, 0.30088255, 0.04690273, -0.22207618, -0.21763015, 100.31000519, 84.83507538, 0.00000000, 0.00000000
2, 0.4749, 66, 0.00767673, -0.76146221, 0.08591494, -37.05353928, 5.70042562, 5.59001637, -68.98567963, 21.45571518, -104.41390991, 82.33718872, 3.02831793, -44.48291016, 0.68994004, -0.61661536, 0.23066628, 0.30093423, 0.04525049, -0.22832420, -0.21828189, 100.31000519, 84.83507538, 0.00000000, 0.00000000
3, 0.4702, 42, 0.53096068, -0.65456986, 0.29796237, -97.04429626, -15.93890858, 221.91424561, 31.51125336, -0.14615609, -88.42443848, 109.90848541, 25.05899239, 117.68296051, -0.44202274, 0.30690682, 0.74835902, 0.38779247, -0.10340080, -0.19443209, 0.01245818, 100.39100647, 78.03938293, 33.20000076, 0.00000000
1, 0.3999, 50, 0.46307373, -0.78961182, 0.32617188, -4.15843868, 22.36172676, 3.09968901, -57.11780167, 4.94007587, -63.13943100, 99.55054474, 18.97830009, 72.60056305, 0.58785468, -0.54388916, -0.53163308, -0.27564079, -0.13773781, -0.14289232, -0.16935152, 100.27300262, 87.94092560, 31.50000000, 0.00000000
1, 0.4049, 51, 0.47357178, -0.76599121, 0.32568359, -3.73843884, 23.02672577, 0.26468793, -57.11780167, 4.94007587, -63.13943100, 99.57080078, 18.95787239, 72.72039032, 0.58740574, -0.54352212, -0.53217214, -0.27628058, -0.14862961, -0.16659364, -0.16852753, 100.27300262, 87.94092560, 31.50000000, 0.00000000
1, 0.4402, 52, 0.01141752, -0.88834488, 0.25252753, 9.51828861, -2.93526554, 57.23749924, -58.31628036, 25.02192307, -64.04560089, 106.40895844, -14.91103363, -20.27691078, -0.60291433, 0.76792926, -0.21627268, -0.00225866, -0.26834100, -0.03938638, 0.01880591, 100.35100555, 81.39475250, 32.05999756, 0.00000000
1, 0.4452, 53, -0.02500382, -0.87533939, 0.24433996, 9.09169292, -5.36393356, 59.60363770, -58.81321335, 25.60654831, -63.84098053, 106.48464203, -15.18933201, -20.39041710, -0.60255879, 0.76760691, -0.21840805, -0.00078030, -0.23643434, -0.05085761, 0.02778915, 100.35100555, 81.39475250, 32.05999756, 0.00000000
1, 0.4502, 54, -0.07481549, -0.86534488, 0.22435217, 9.32079506, -6.11659527, 62.03643036, -58.81321335, 25.60654831, -63.84098053, 106.56409454, -15.47808838, -20.51176262, -0.60218406, 0.76726174, -0.22064297, 0.00073926, -0.19139023, -0.05918301, 0.04856528, 100.35100555, 81.39475250, 32.05999756, 0.00000000
2, 0.4799, 67, -0.00272300, -0.75945526, 0.07104986, -35.84077072, 6.16585970, 4.00344324, -68.16719818, 21.57263947, -105.11546326, 82.15973663, 3.01264143, -44.44961548, 0.69101810, -0.61557627, 0.23011747, 0.30100816, 0.05533656, -0.22992826, -0.20651706, 100.31000519, 84.83507538, 0.00000000, 0.00000000
2, 0.4849, 68, -0.01554422, -0.76676440, 0.04730196, -32.99367142, 7.47947168, 0.73373699, -68.16719818, 21.57263947, -105.11546326, 81.99674988, 3.01417184, -44.41202164, 0.69198823, -0.61467171, 0.22947806, 0.30111617, 0.06808674, -0.22222236, -0.18566419, 100.31000519, 84.83507538, 0.00000000, 0.00000000
2, 0.4899, 69, -0.01591085, -0.77362812, 0.03635598, -30.63780975, 8.40965366, -2.37021661, -68.37181854, 22.18649483, -105.29084778, 81.84567261, 3.03181529, -44.37201309, 0.69286227, -0.61388022, 0.22875781, 0.30126870, 0.06868818, -0.21497148, -0.17737031, 100.31000519, 84.83507538, 0.00000000, 0.00000000
3, 0.5052, 43, 0.41474819, -0.67069244, 0.39654791, -93.67819214, -12.77938747, 221.04133606, 29.93276787, -6.28471184, -86.84594727, 105.41989136, 17.72489357, 114.55826569, -0.42669988, 0.34638593, 0.71179420, 0.43737072, -0.10596977, -0.24554577, -0.14132890, 100.39100647, 78.03938293, 33.20000076, 0.00000000
3, 0.5102, 44, 0.41238979, -0.68681353, 0.39939743, -91.61676788, -10.23149872, 217.09918213, 28.93890572, -7.57088566, -87.07980347, 104.85868835, 16.69044685, 114.20980072, -0.42423680, 0.35159945, 0.70653647, 0.44408029, -0.12088445, -0.23716137, -0.15187080, 100.39100647, 78.03938293, 33.20000076, 0.00000000
3, 0.5152, 45, 0.42274010, -0.72133863, 0.40494430, -89.44850159, -6.63836384, 212.60894775, 28.93890572, -7.57088566, -87.07980347, 104.32438660, 15.67006969, 113.89752197, -0.42167270, 0.35660860, 0.70138294, 0.45064899, -0.14837576, -0.20982873, -0.16488817, 100.39100647, 78.03938293, 33.20000076, 0.00000000
4, 0.4898, 57, -0.13506836, -0.52366233, 0.12608375, 4.86655283, -39.22881699, -24.39358139, -0.52616191, -62.52557755, -64.39637756, 98.81323242, -26.68333244, 101.88391113, 0.26287392, -0.58214986, -0.47911370, -0.60203743, -0.31458518, -0.35906079, 0.01033829, 100.32500458, 83.57634735, 32.75000000, 0.00000000
4, 0.4948, 58, -0.19342253, -0.50522029, 0.08912327, 6.44153357, -36.22571564, -26.50141144, -0.52616191, -62.52557755, -64.39637756, 98.92520142, -26.52310181, 101.70639801, 0.26417056, -0.58261728, -0.47954684, -0.60067117, -0.25377321, -0.37845355, 0.04920861, 100.32500458, 83.57634735, 32.75000000, 0.00000000
4, 0.4998, 59, -0.27017090, -0.47844905, 0.11307292, 9.34116840, -34.81200409, -28.28282356, 0.14615609, -61.94095230, -64.74714661, 99.04641724, -26.35624313, 101.53904724, 0.26540226, -0.58304441, -0.48010841, -0.59926355, -0.17444047, -0.40620947, 0.02728144, 100.32500458, 83.57634735, 32.75000000, 0.00000000
1, 0.4552, 55, -0.13644864, -0.86014128, 0.18657058, 9.82330132, -6.05444336, 63.99443436, -58.81321335, 25.60654831, -63.84098053, 106.64754486, -15.77614403, -20.63629913, -0.60178816, 0.76690519, -0.22294004, 0.00231723, -0.13464126, -0.06260172, 0.08713314, 100.35100555, 81.39475250, 32.05999756, 0.00000000
1, 0.4602, 56, -0.19217518, -0.85524607, 0.16133788, 10.48937130, -5.02751589, 64.99189758, -59.13475418, 26.07424736, -63.98713684, 106.73415375, -16.08026314, -20.75783157, -0.60137475, 0.76655006, -0.22524139, 0.00396228, -0.08393089, -0.06565987, 0.11320384, 100.35100555, 81.39475250, 32.05999756, 0.00000000
2, 0.4949, 70, -0.00423008, -0.78182781, 0.03149778, -27.97490501, 8.23915672, -6.42787552, -68.37181854, 22.18649483, -105.29084778, 81.70773315, 3.06952190, -44.33578873, 0.69360870, -0.61320645, 0.22796862, 0.30152133, 0.05759744, -0.20639232, -0.17492928, 100.31000519, 84.83507538, 0.00000000, 0.00000000
2, 0.4999, 71, 0.00731774, -0.78633505, 0.03504761, -25.71948624, 7.26268482, -9.45646191, -68.69336700, 22.09880066, -105.81700897, 81.58070374, 3.12158179, -44.30668640, 0.69424421, -0.61261725, 0.22715726, 0.30186886, 0.04689589, -0.20151123, -0.18071973, 100.31000519, 84.83507538, 0.00000000, 0.00000000
4, 0.5048, 60, -0.33691782, -0.46428484, 0.16370595, 15.43209171, -33.17797089, -30.51264000, 0.14615609, -61.94095230, -64.74714661, 99.19248199, -26.17931557, 101.38335419, 0.26650199, -0.58345026, -0.48090291, -0.59774160, -0.10496792, -0.42136121, -0.02099230, 100.32500458, 83.57634735, 32.75000000, 0.00000000
1, 0.5102, 57, -0.18620007, -0.78617990, 0.21966580, 14.80332851, -0.57388574, 75.52375031, -60.83016586, 27.50657654, -64.13329315, 107.75577545, -19.49058151, -21.58545494, -0.59632784, 0.76333863, -0.24709621, 0.02551368, -0.14651737, -0.11261979, 0.06575994, 100.35100555, 81.39475250, 32.05999756, 0.00000000
1, 0.5152, 58, -0.18818261, -0.76001346, 0.30602485, 15.82796097, 0.24401979, 76.65187073, -60.83016586, 27.50657654, -64.13329315, 107.87714386, -19.85583496, -21.70805550, -0.59570956, 0.76292449, -0.24961904, 0.02769195, -0.15073189, -0.13629322, -0.01931565, 100.35100555, 81.39475250, 32.05999756, 0.00000000
3, 0.5202, 46, 0.43402714, -0.76180577, 0.40627205, -88.03434753, -4.27940607, 208.11230469, 28.93890572, -7.57088566, -87.07980347, 103.81000519, 14.66592884, 113.61396790, -0.41906095, 0.36142451, 0.69630086, 0.45708355, -0.17662881, -0.17603880, -0.17352760, 100.39100647, 78.03938293, 33.20000076, 0.00000000
3, 0.5252, 47, 0.44549140, -0.80794108, 0.41023910, -87.33497620, -2.71804309, 204.13827515, 28.23735809, -10.14323330, -86.23209381, 103.30953979, 13.67688084, 113.35350800, -0.41643000, 0.36606687, 0.69125748, 0.46340519, -0.20487352, -0.13610986, -0.18474430, 100.39100647, 78.03938293, 33.20000076, 0.00000000
3, 0.5302, 48, 0.46963888, -0.79848963, 0.41193402, -87.85200500, -0.55495203, 199.97473145, 28.23735809, -10.14323330, -86.23209381, 102.81986237, 12.70750046, 113.11911774, -0.41379645, 0.37048560, 0.68626964, 0.46962428, -0.24557921, -0.15132250, -0.19368535, 100.39100647, 78.03938293, 33.20000076, 0.00000000
2, 0.5049, 72, 0.00752357, -0.78873587, 0.03801377, -22.04824257, 5.56041622, -12.38474751, -68.69336700, 22.09880066, -105.81700897, 81.47147369, 3.18692636, -44.28829193, 0.69472510, -0.61214495, 0.22636724, 0.30231375, 0.04777101, -0.19876054, -0.18563902, 100.31000519, 84.83507538, 0.00000000, 0.00000000
1, 0.4099, 52, 0.48388672, -0.75061035, 0.32055664, -3.03843856, 23.30672836, -2.36031294, -58.05319977, 5.11546326, -63.92867661, 99.59574890, 18.95010757, 72.84394836, 0.58696479, -0.54310828, -0.53278857, -0.27684325, -0.15912397, -0.18196985, -0.16300249, 100.27300262, 87.94092560, 31.50000000, 0.00000000
1, 0.4149, 53, 0.49615479, -0.73693848, 0.32208252, -2.61843848, 23.44672585, -4.91531420, -58.05319977, 5.11546326, -63.92867661, 99.62375641, 18.95477104, 72.97050476, 0.58654082, -0.54264337, -0.53347361, -0.27733371, -0.17136616, -0.19555756, -0.16408405, 100.27300262, 87.94092560, 31.50000000, 0.00000000
1, 0.4199, 54, 0.50640869, -0.72216797, 0.32781982, -2.33843851, 23.09672546, -7.50531483, -58.05319977, 5.11546326, -63.92867661, 99.65334320, 18.97242737, 73.09753418, 0.58614910, -0.54212904, -0.53421384, -0.27774280, -0.18138334, -0.21016723, -0.16935915, 100.27300262, 87.94092560, 31.50000000, 0.00000000
3, 0.5352, 49, 0.50411487, -0.79531884, 0.40809631, -88.00986481, 1.49467981, 196.12055969, 27.33119011, -12.10172462, -85.96901703, 102.33511353, 11.74880695, 112.90808868, -0.41113755, 0.37472224, 0.68129271, 0.47580406, -0.29639995, -0.15983564, -0.19711626, 100.39100647, 78.03938293, 33.20000076, 0.00000000
3, 0.5402, 50, 0.54455227, -0.82703638, 0.41121066, -84.82238007, 2.16678119, 189.10311890, 27.33119011, -12.10172462, -85.96901703, 101.87355042, 10.82204914, 112.71672058, -0.40851727, 0.37876168, 0.67645097, 0.48173374, -0.35282272, -0.13299517, -0.20735067, 100.39100647, 78.03938293, 33.20000076, 0.00000000
4, 0.5098, 61, -0.37733665, -0.50474089, 0.20668963, 21.72673988, -30.29092598, -33.42193604, -0.67231804, -64.13329315, -64.63022614, 99.36111450, -25.98997688, 101.24691772, 0.26745549, -0.58379024, -0.48196703, -0.59612447, -0.06163677, -0.38190091, -0.06119938, 100.32500458, 83.57634735, 32.75000000, 0.00000000
1, 0.5202, 59, -0.19260065, -0.72403526, 0.36081597, 14.87094593, -2.68567538, 77.92620850, -61.32709503, 29.40660667, -64.57176208, 108.00067902, -20.22243118, -21.84869766, -0.59508240, 0.76246631, -0.25225884, 0.02979541, -0.15246770, -0.16966741, -0.07282565, 100.35100555, 81.39475250, 32.05999756, 0.00000000
1, 0.5252, 60, -0.25827330, -0.70663905, 0.32474706, 15.23788166, -11.99515247, 79.90792847, -61.32709503, 29.40660667, -64.57176208, 108.14493561, -20.58376694, -22.04108429, -0.59433049, 0.76199830, -0.25520301, 0.03164476, -0.09263875, -0.18421383, -0.03541497, 100.35100555, 81.39475250, 32.05999756, 0.00000000
1, 0.5302, 61, -0.32579297, -0.72912514, 0.29809985, 16.20168877, -14.65930367, 82.42601776, -61.32709503, 29.40660667, -64.57176208, 108.30197906, -20.95243454, -22.25265884, -0.59350544, 0.76152080, -0.25829515, 0.03348139, -0.03104209, -0.15874670, -0.00727302, 100.35100555, 81.39475250, 32.05999756, 0.00000000
2, 0.5399, 73, 0.07143808, -0.88268268, -0.09606951, -12.80190086, 3.93173289, -23.21234703, -68.60566711, 20.98801422, -106.25547791, 81.03768158, 3.88106775, -44.31351852, 0.69535559, -0.61108452, 0.22104678, 0.30691159, -0.00426880, -0.10292205, -0.05907987, 100.31000519, 84.83507538, 0.00000000, 0.00000000
2, 0.5449, 74, 0.06900790, -0.88080406, -0.12232587, -13.29896736, 5.83561134, -23.08202362, -68.60566711, 20.98801422, -106.25547791, 80.97192383, 3.99962139, -44.30271149, 0.69545686, -0.61098135, 0.22007601, 0.30758435, 0.00022802, -0.10448237, -0.03393270, 100.31000519, 84.83507538, 0.00000000, 0.00000000
2, 0.5499, 75, 0.05341485, -0.87672698, -0.13875514, -13.79030704, 7.11334276, -22.64809990, -68.37181854, 21.71879578, -106.54779053, 80.90419769, 4.11705542, -44.28538132, 0.69558835, -0.61087543, 0.21907112, 0.30821419, 0.01787079, -0.10823287, -0.01863659, 100.31000519, 84.83507538, 0.00000000, 0.00000000
3, 0.6002, 51, 0.42679924, -0.87739778, 0.17591313, -50.86257172, -42.04926300, 156.86131287, 21.92341423, -19.90645981, -84.85823059, 97.36766052, 0.99469650, 110.20865631, -0.38303101, 0.42496309, 0.61928540, 0.53775400, -0.40618175, -0.11398561, -0.04659929, 100.39100647, 78.03938293, 33.20000076, 0.00000000
3, 0.6052, 52, 0.40843377, -0.89165235, 0.17412187, -46.80279160, -45.37667465, 154.26158142, 21.92341423, -19.90645981, -84.85823059, 97.13014221, 0.25817186, 109.88626862, -0.38149497, 0.42940256, 0.61455208, 0.54074097, -0.40073138, -0.10045373, -0.04900266, 100.39100647, 78.03938293, 33.20000076, 0.00000000
4, 0.5548, 62, -0.37674943, -0.77691627, 0.13935816, 11.02884197, -1.83385038, -56.40391159, 1.14001751, -61.12247849, -64.83484650, 100.07154083, -23.71454048, 100.91124725, 0.27877560, -0.57933760, -0.49439186, -0.58500332, -0.02654665, -0.12407562, 0.02053083, 100.32500458, 83.57634735, 32.75000000, 0.00000000
4, 0.5598, 63, -0.39962396, -0.80854481, 0.15295024, 11.18393421, 5.71206284, -58.01439667, 1.95849168, -60.71324158, -64.71791840, 100.09304810, -23.43395424, 100.99732208, 0.27984950, -0.57807451, -0.49621171, -0.58419877, 0.00080770, -0.09430609, 0.00768731, 100.32500458, 83.57634735, 32.75000000, 0.00000000
4, 0.5648, 64, -0.41907871, -0.84036893, 0.15458682, 10.55941296, 13.15217590, -59.57518768, 1.95849168, -60.71324158, -64.71791840, 100.09549713, -23.15221786, 101.12465668, 0.28081590, -0.57657617, -0.49814233, -0.58357227, 0.02477257, -0.06437922, 0.00650928, 100.32500458, 83.57634735, 32.75000000, 0.00000000
1, 0.4249, 55, 0.52008057, -0.71417236, 0.32128906, -2.75843859, 23.16672516, -10.06031513, -58.14089203, 4.61853266, -64.27944946, 99.68173218, 19.00256157, 73.22721863, 0.58579594, -0.54154289, -0.53501046, -0.27809763, -0.19460651, -0.21793067, -0.16238450, 100.27300262, 87.94092560, 31.50000000, 0.00000000
1, 0.4299, 56, 0.53149414, -0.68493652, 0.31091309, -3.63343859, 23.48172569, -13.21031570, -58.14089203, 4.61853266, -64.27944946, 99.70730591, 19.04789734, 73.36139679, 0.58549356, -0.54085636, -0.53587830, -0.27839947, -0.20532276, -0.24685702, -0.15162414, 100.27300262, 87.94092560, 31.50000000, 0.00000000
1, 0.4349, 57, 0.52685547, -0.67419434, 0.29260254, -2.16343832, 19.70172501, -15.73031712, -56.79625702, 4.41391420, -64.27944946, 99.73465729, 19.10878754, 73.47817993, 0.58527470, -0.54019350, -0.53672618, -0.27851295, -0.19975498, -0.25720796, -0.13293123, 100.27300262, 87.94092560, 31.50000000, 0.00000000
2, 0.5549, 76, 0.03099432, -0.87416458, -0.15583506, -14.17025661, 7.90371704, -21.90798950, -68.37181854, 21.71879578, -106.54779053, 80.83493042, 4.23147917, -44.26368713, 0.69574648, -0.61076069, 0.21805657, 0.30880368, 0.04229672, -0.11046176, -0.00271845, 100.31000519, 84.83507538, 0.00000000, 0.00000000
2, 0.5599, 77, 0.01076498, -0.87629670, -0.17436817, -14.62412071, 8.62659740, -21.41262436, -68.37181854, 21.71879578, -106.54779053, 80.76373291, 4.34406471, -44.23815536, 0.69592917, -0.61063623, 0.21702683, 0.30936274, 0.06449281, -0.10798895, 0.01462546, 100.31000519, 84.83507538, 0.00000000, 0.00000000
2, 0.5649, 78, -0.00504982, -0.87062901, -0.19636476, -15.60776329, 9.10622883, -20.95821571, -67.96258545, 21.71879578, -106.78163910, 80.68784332, 4.45482922, -44.21002960, 0.69614786, -0.61048329, 0.21598105, 0.30990413, 0.08224195, -0.11330175, 0.03536392, 100.31000519, 84.83507538, 0.00000000, 0.00000000
1, 0.5352, 62, -0.30539307, -0.79338944, 0.31741369, 17.19012260, -2.03274798, 83.52058411, -60.97632217, 29.66968727, -64.36714172, 108.44333649, -21.34558105, -22.40337563, -0.59277999, 0.76102799, -0.26109099, 0.03577611, -0.05778404, -0.09146921, -0.02515584, 100.35100555, 81.39475250, 32.05999756, 0.00000000
1, 0.5402, 63, -0.27186233, -0.86747229, 0.35841918, 18.28314972, -1.16105092, 83.87798309, -60.97632217, 29.66968727, -64.36714172, 108.59307098, -21.73713303, -22.55292702, -0.59199929, 0.76056898, -0.26385775, 0.03809093, -0.09781410, -0.01431740, -0.06474143, 100.35100555, 81.39475250, 32.05999756, 0.00000000
1, 0.5452, 64, -0.24618080, -0.96289647, 0.34721139, 18.15681458, -2.39063549, 84.27090454, -61.06401443, 28.52966881, -64.95176697, 108.74348450, -22.13251114, -22.70974159, -0.59121966, 0.76007205, -0.26667866, 0.04040310, -0.12983477, 0.08432724, -0.05211446, 100.35100555, 81.39475250, 32.05999756, 0.00000000
2, 0.5699, 79, -0.01714201, -0.85952890, -0.22563362, -16.20427704, 9.55276680, -20.60673904, -67.96258545, 21.71879578, -106.78163910, 80.60164642, 4.55665779, -44.17993546, 0.69644761, -0.61024982, 0.21495171, 0.31040573, 0.09617797, -0.12402883, 0.06325392, 100.31000519, 84.83507538, 0.00000000, 0.00000000
2, 0.5749, 80, -0.03229610, -0.83671242, -0.24528423, -16.37799835, 10.03529930, -20.32222557, -67.69950104, 20.75416565, -107.74626923, 80.52241516, 4.66512585, -44.14699936, 0.69670206, -0.61007822, 0.21388365, 0.31090948, 0.11315721, -0.14646403, 0.08150080, 100.31000519, 84.83507538, 0.00000000, 0.00000000
2, 0.5799, 81, -0.04409584, -0.80950320, -0.25429565, -15.80957603, 10.55358410, -19.99882889, -67.69950104, 20.75416565, -107.74626923, 80.44629669, 4.77247095, -44.11136627, 0.69694954, -0.60992700, 0.21281582, 0.31138381, 0.12682797, -0.17330039, 0.08921357, 100.31000519, 84.83507538, 0.00000000, 0.00000000
4, 0.5698, 65, -0.44021702, -0.87359178, 0.12558119, 9.29545689, 20.69262123, -61.01570129, 1.95849168, -60.71324158, -64.71791840, 100.07603455, -22.86998367, 101.29338074, 0.28168467, -0.57483464, -0.50016558, -0.58314079, 0.05044289, -0.03309644, 0.03563665, 100.32500458, 83.57634735, 32.75000000, 0.00000000
4, 0.5748, 66, -0.44329134, -0.89850897, 0.10011780, 6.54453373, 27.80974197, -62.04811859, 2.77696586, -60.36246490, -64.33791351, 100.02873230, -22.58878136, 101.50054169, 0.28249103, -0.57285088, -0.50222802, -0.58293033, 0.05804741, -0.01016620, 0.06080135, 100.32500458, 83.57634735, 32.75000000, 0.00000000
4, 0.5798, 67, -0.44646049, -0.91025853, 0.06494576, 2.14528918, 32.46684647, -62.60147095, 2.77696586, -60.36246490, -64.33791351, 99.95098114, -22.30868149, 101.73226929, 0.28331682, -0.57067698, -0.50424516, -0.58292037, 0.06573563, -0.00045919, 0.09517980, 100.32500458, 83.57634735, 32.75000000, 0.00000000
4, 0.5848, 68, -0.44719717, -0.90592551, 0.02077684, -3.00852513, 33.80548477, -62.81533813, 2.83542824, -59.89476776, -64.22098541, 99.84608459, -22.02833748, 101.97038269, 0.28424424, -0.56839508, -0.50614822, -0.58304906, 0.07099809, -0.00688785, 0.13810770, 100.32500458, 83.57634735, 32.75000000, 0.00000000
3, 0.6102, 53, 0.36869714, -0.91150784, 0.17420214, -42.99637604, -48.44546127, 150.96852112, 20.40339088, -20.25723457, -85.17977142, 96.91576385, -0.46139300, 109.55358124, -0.38002768, 0.43386701, 0.60988700, 0.54348522, -0.37362999, -0.08108929, -0.05289162, 100.39100647, 78.03938293, 33.20000076, 0.00000000
3, 0.6152, 54, 0.31612709, -0.92766047, 0.16838524, -39.08808899, -52.22193146, 146.86207581, 20.40339088, -20.25723457, -85.17977142, 96.72525024, -1.15950596, 109.20709229, -0.37866512, 0.43835482, 0.60529912, 0.54595858, -0.33334219, -0.06521270, -0.05050008, 100.39100647, 78.03938293, 33.20000076, 0.00000000
3, 0.6202, 55, 0.23412813, -0.95462197, 0.15505122, -34.86750793, -56.93286896, 141.16824341, 20.40339088, -20.25723457, -85.17977142, 96.56044769, -1.82769012, 108.84257507, -0.37746382, 0.44285333, 0.60081387, 0.54811013, -0.26315838, -0.03832785, -0.04016294, 100.39100647, 78.03938293, 33.20000076, 0.00000000
4, 0.5898, 69, -0.46476516, -0.88621628, -0.02204609, -8.35258865, 32.24134445, -62.72913361, 2.83542824, -59.89476776, -64.22098541, 99.71907806, -21.74665451, 102.19901276, 0.28533381, -0.56608319, -0.50788885, -0.58325243, 0.09311827, -0.02874216, 0.17929661, 100.32500458, 83.57634735, 32.75000000, 0.00000000
2, 0.6199, 82, 0.06097754, -0.71325970, -0.19419229, -16.68661880, 14.33523464, -16.43496513, -67.31949615, 22.01110840, -109.47091675, 79.79370117, 5.56950331, -43.70727158, 0.69962734, -0.60848600, 0.20387836, 0.31416574, 0.03567618, -0.26637211, 0.01818255, 100.31000519, 84.83507538, 0.00000000, 0.00000000
2, 0.6249, 83, 0.07969955, -0.70957738, -0.19138899, -14.06567478, 13.92075062, -15.97651863, -65.68254852, 21.71879578, -110.02630615, 79.72870636, 5.66049051, -43.65271378, 0.69990522, -0.60838914, 0.20283622, 0.31440878, 0.01854103, -0.26968500, 0.01420573, 100.31000519, 84.83507538, 0.00000000, 0.00000000
2, 0.6299, 84, 0.09305830, -0.71320999, -0.18100622, -10.95438004, 13.61334133, -15.79225922, -65.68254852, 21.71879578, -110.02630615, 79.67921448, 5.75034761, -43.59959030, 0.70009941, -0.60838085, 0.20185088, 0.31462646, 0.00674690, -0.26573372, 0.00293882, 100.31000519, 84.83507538, 0.00000000, 0.00000000
3, 0.6252, 56, 0.18809195, -0.97038770, 0.14964053, -31.14562035, -61.78836823, 136.00241089, 19.20491028, -22.97573853, -85.64746857, 96.41919708, -2.46845222, 108.45851135, -0.37642390, 0.44737381, 0.59641045, 0.54996020, -0.22843868, -0.02246824, -0.03738362, 100.39100647, 78.03938293, 33.20000076, 0.00000000
3, 0.6302, 57, 0.11218593, -0.99635881, 0.14612173, -26.57933235, -67.73687744, 128.36776733, 19.20491028, -22.97573853, -85.64746857, 96.30669403, -3.06600261, 108.05010223, -0.37563065, 0.45188430, 0.59215444, 0.55141217, -0.16311592, 0.00375563, -0.03594746, 100.39100647, 78.03938293, 33.20000076, 0.00000000
3, 0.6352, 58, 0.06571399, -1.00554311, 0.14712106, -24.68030357, -67.74768829, 121.60083771, 17.94796753, -22.59573174, -86.31978607, 96.20687866, -3.63346887, 107.64643097, -0.37493482, 0.45624307, 0.58804142, 0.55269653, -0.12665284, 0.01330167, -0.03878143, 100.39100647, 78.03938293, 33.20000076, 0.00000000
1, 0.5502, 65, -0.21190241, -1.03945601, 0.32158753, 18.27385521, 0.10913794, 86.11666107, -61.06401443, 28.52966881, -64.95176697, 108.89245605, -22.54026985, -22.85853004, -0.59045345, 0.75954127, -0.26949209, 0.04284658, -0.17057297, 0.16422956, -0.02510718, 100.35100555, 81.39475250, 32.05999756, 0.00000000
1, 0.5552, 66, -0.15061970, -1.12297893, 0.32860044, 18.48251915, 4.02034283, 88.69593048, -61.06401443, 28.52966881, -64.95176697, 109.03813171, -22.96618652, -22.99337959, -0.58971220, 0.75896716, -0.27228549, 0.04548790, -0.23865966, 0.25118953, -0.03077837, 100.35100555, 81.39475250, 32.05999756, 0.00000000
1, 0.4399, 58, 0.51843262, -0.67016602, 0.29199219, -0.58843774, 16.27172470, -17.09531975, -56.79625702, 4.41391420, -64.27944946, 99.76456451, 19.17925072, 73.57838440, 0.58511496, -0.53958011, -0.53753722, -0.27847359, -0.19020472, -0.26076978, -0.13191459, 100.27300262, 87.94092560, 31.50000000, 0.00000000
2, 0.6349, 85, 0.11245817, -0.72359401, -0.18019080, -7.31810045, 13.96716404, -15.83897972, -66.26717377, 21.80648994, -110.58170319, 79.64817047, 5.84079027, -43.54482269, 0.70019889, -0.60848832, 0.20090322, 0.31480387, -0.01108816, -0.25508133, 0.00153267, 100.31000519, 84.83507538, 0.00000000, 0.00000000
2, 0.6399, 86, 0.14130731, -0.73305488, -0.18792659, -4.18315125, 14.32393074, -16.37483978, -66.26717377, 21.80648994, -110.58170319, 79.63299561, 5.93420792, -43.48879623, 0.70021027, -0.60870051, 0.19997329, 0.31496036, -0.03832642, -0.24540219, 0.00899489, 100.31000519, 84.83507538, 0.00000000, 0.00000000
2, 0.6449, 87, 0.16246453, -0.74781710, -0.18959230, 3.57758808, 14.55157280, -16.99462700, -66.26717377, 21.80648994, -110.58170319, 79.65678406, 6.03087854, -43.43218613, 0.70000833, -0.60915774, 0.19912636, 0.31506175, -0.05782199, -0.23050904, 0.01090892, 100.31000519, 84.83507538, 0.00000000, 0.00000000
4, 0.6598, 70, -0.45591253, -0.84471369, 0.09343389, -16.93642044, 24.65371323, -42.09288025, 6.54779291, -58.37474442, -63.89944458, 98.04129791, -18.33260918, 104.20043182, 0.30279630, -0.54026163, -0.52393764, -0.58474022, 0.14058875, -0.09486087, 0.03986939, 100.32500458, 83.57634735, 32.75000000, 0.00000000
4, 0.6648, 71, -0.45448998, -0.83308434, 0.02843997, -18.02741623, 18.75324631, -39.94365311, 6.43086815, -56.79625702, -63.25635529, 97.91143036, -18.14783096, 104.32738495, 0.30381098, -0.53863066, -0.52466595, -0.58506536, 0.14225405, -0.10780357, 0.10285255, 100.32500458, 83.57634735, 32.75000000, 0.00000000
1, 0.6102, 67, -0.42439902, -0.90272164, 0.32718283, 12.20931053, -17.19971657, 120.34275055, -63.16866302, 35.66208649, -65.01023102, 110.83502197, -28.43237877, -25.43877983, -0.58122575, 0.74782109, -0.31169137, 0.07608438, -0.05049273, 0.07897331, -0.01735044, 100.35100555, 81.39475250, 32.05999756, 0.00000000
1, 0.6152, 68, -0.48773396, -0.92044401, 0.28913510, 12.75236034, -14.91061211, 120.95122528, -63.16866302, 35.66208649, -65.01023102, 111.05624390, -28.97083473, -25.76356697, -0.58019000, 0.74654537, -0.31596309, 0.07884787, 0.00471625, 0.10215580, 0.02210082, 100.35100555, 81.39475250, 32.05999756, 0.00000000
1, 0.4449, 59, 0.51080322, -0.67858887, 0.27484131, 1.51156306, 13.19172287, -17.76031876, -56.79625702, 4.41391420, -64.27944946, 99.80004120, 19.25555611, 73.66320038, 0.58498549, -0.53904158, -0.53831029, -0.27829516, -0.18133791, -0.25182754, -0.11428633, 100.27300262, 87.94092560, 31.50000000, 0.00000000
3, 0.6402, 59, 0.02615963, -1.00796878, 0.14783633, -23.52707672, -64.95768738, 114.80503845, 17.94796753, -22.59573174, -86.31978607, 96.11547089, -4.16932535, 107.26101685, -0.37429485, 0.46036255, 0.58411586, 0.55387574, -0.09656480, 0.01617157, -0.04117774, 100.39100647, 78.03938293, 33.20000076, 0.00000000
3, 0.6452, 60, -0.01406455, -1.00588918, 0.13316321, -23.23041344, -61.92599869, 108.37086487, 17.94796753, -22.59573174, -86.31978607, 96.02756500, -4.67537975, 106.89472198, -0.37371507, 0.46423468, 0.58035737, 0.55498528, -0.06527630, 0.01459482, -0.02811293, 100.39100647, 78.03938293, 33.20000076, 0.00000000
4, 0.6698, 72, -0.45357212, -0.84819096, -0.02336463, -17.41971588, 13.22111130, -36.88190842, 6.43086815, -56.79625702, -63.25635529, 97.79476166, -17.97418976, 104.42276001, 0.30485871, -0.53721702, -0.52526242, -0.58528495, 0.14427218, -0.09392188, 0.15281084, 100.32500458, 83.57634735, 32.75000000, 0.00000000
4, 0.6748, 73, -0.47135606, -0.86788589, -0.03980580, -17.28682137, 9.48944187, -34.30057144, 7.86319780, -56.15317154, -63.40251160, 97.68569183, -17.81063843, 104.49642944, 0.30592197, -0.53595781, -0.52575046, -0.58544648, 0.16481715, -0.07536120, 0.16754851, 100.32500458, 83.57634735, 32.75000000, 0.00000000
4, 0.6798, 74, -0.48478353, -0.87498581, -0.03789882, -17.12943459, 7.09780884, -31.38120270, 7.86319780, -56.15317154, -63.40251160, 97.58213806, -17.65983009, 104.55524445, 0.30696094, -0.53482729, -0.52614087, -0.58558571, 0.18080649, -0.06930719, 0.16402632, 100.32500458, 83.57634735, 32.75000000, 0.00000000
2, 0.6499, 88, 0.17188124, -0.77090621, -0.18989712, 7.98194551, 14.53124332, -17.73860550, -65.62408447, 22.04033852, -110.87401581, 79.70261383, 6.13115358, -43.37627792, 0.69967818, -0.60975510, 0.19832066, 0.31514779, -0.06551681, -0.20736611, 0.01193738, 100.31000519, 84.83507538, 0.00000000, 0.00000000
2, 0.6549, 89, 0.16841459, -0.79849684, -0.18569511, 11.39689255, 14.71695328, -18.48428535, -65.62408447, 22.04033852, -110.87401581, 79.76564789, 6.23520899, -43.32002640, 0.69924772, -0.61046487, 0.19753614, 0.31522176, -0.06025934, -0.17976819, 0.00877793, 100.31000519, 84.83507538, 0.00000000, 0.00000000
2, 0.6599, 90, 0.16756709, -0.82416010, -0.17200023, 14.28177166, 14.10588169, -19.38348198, -65.50716400, 21.04647827, -110.81555176, 79.84281921, 6.34308195, -43.26744461, 0.69872171, -0.61126125, 0.19678573, 0.31531408, -0.05755812, -0.15413159, -0.00362185, 100.31000519, 84.83507538, 0.00000000, 0.00000000
1, 0.6202, 69, -0.50742221, -0.93005347, 0.27601004, 13.39868736, -6.54984283, 121.14229584, -64.39637756, 37.24057388, -64.80561066, 111.26371765, -29.52414131, -26.04804802, -0.57923144, 0.74523354, -0.32001761, 0.08189487, 0.01606057, 0.11729649, 0.03648235, 100.35100555, 81.39475250, 32.05999756, 0.00000000
1, 0.6252, 70, -0.49301749, -0.93937528, 0.31994042, 15.03826046, 2.02864814, 121.32588196, -64.39637756, 37.24057388, -64.80561066, 111.46101379, -30.09297371, -26.29068947, -0.57832223, 0.74390900, -0.32384589, 0.08524562, -0.00702523, 0.13219580, -0.00638178, 100.35100555, 81.39475250, 32.05999756, 0.00000000
1, 0.6302, 71, -0.46428689, -0.94091046, 0.36974865, 15.13225079, 5.93934870, 120.96221161, -64.39637756, 37.24057388, -64.80561066, 111.65164185, -30.66653252, -26.51507759, -0.57745016, 0.74255639, -0.32755369, 0.08871283, -0.04452509, 0.13939691, -0.05527985, 100.35100555, 81.39475250, 32.05999756, 0.00000000
1, 0.4949, 60, 0.35162354, -0.92712402, 0.25286865, 5.53656435, -23.90828896, -10.23531532, -58.46243668, 4.47237635, -64.71791840, 100.20616913, 20.04556274, 73.59323120, 0.58575737, -0.53810817, -0.54191107, -0.27140424, -0.00914118, 0.00247648, -0.08633724, 100.27300262, 87.94092560, 31.50000000, 0.00000000
1, 0.4999, 61, 0.33319092, -0.93200684, 0.24554443, 4.52156353, -25.58829117, -8.62531471, -58.17012405, 3.80005836, -64.71791840, 100.18553925, 20.11065292, 73.46728516, 0.58635801, -0.53832245, -0.54151279, -0.27047592, 0.01038355, 0.00769821, -0.07938170, 100.27300262, 87.94092560, 31.50000000, 0.00000000
1, 0.5049, 62, 0.30743408, -0.91571045, 0.25726318, 2.03656316, -26.53329086, -6.56031466, -58.17012405, 3.80005836, -64.71791840, 100.14996338, 20.16635895, 73.33437347, 0.58701408, -0.53853226, -0.54101169, -0.26963654, 0.03708986, -0.00834766, -0.09167379, 100.27300262, 87.94092560, 31.50000000, 0.00000000
4, 0.6848, 75, -0.51189041, -0.88278174, -0.03479370, -16.97990799, 5.66845274, -28.23469925, 7.86319780, -56.15317154, -63.40251160, 97.48246765, -17.52358627, 104.60413361, 0.30794820, -0.53380626, -0.52644134, -0.58572900, 0.21023954, -0.06246421, 0.15935893, 100.32500458, 83.57634735, 32.75000000, 0.00000000
4, 0.6898, 76, -0.51644582, -0.88323927, -0.03279095, -17.01241302, 4.86329126, -25.31718063, 7.36626720, -55.48085403, -62.67173386, 97.38466644, -17.40120316, 104.64659119, 0.30887949, -0.53287125, -0.52666104, -0.58589232, 0.21688937, -0.06287400, 0.15581691, 100.32500458, 83.57634735, 32.75000000, 0.00000000
4, 0.6948, 77, -0.52988273, -0.87899572, -0.03207651, -16.50098991, 2.53923488, -22.26458168, 7.36626720, -55.48085403, -62.67173386, 97.27749634, -17.31997299, 104.68058014, 0.30966336, -0.53210855, -0.52661735, -0.58621103, 0.23196527, -0.06784169, 0.15350056, 100.32500458, 83.57634735, 32.75000000, 0.00000000
3, 0.7152, 61, -0.06234502, -0.97628731, -0.12782294, -10.40439415, -4.41323900, 14.49660110, 12.71557999, -25.16807938, -86.40748596, 95.13180542, -8.52011299, 104.13937378, -0.37037599, 0.49196461, 0.54972774, 0.56443942, -0.08557685, -0.00872904, 0.21649079, 100.39100647, 78.03938293, 33.20000076, 0.00000000
3, 0.7202, 62, -0.06494181, -0.96793449, -0.07717655, -9.54484940, -0.57884562, 5.75878954, 12.71557999, -25.16807938, -86.40748596, 95.08489990, -8.54852676, 104.13386536, -0.37045291, 0.49196264, 0.54935968, 0.56474894, -0.08362060, -0.01705903, 0.16502319, 100.39100647, 78.03938293, 33.20000076, 0.00000000
2, 0.6649, 91, 0.15618056, -0.84635144, -0.15695542, 16.88401604, 13.52892971, -20.28353310, -65.50716400, 21.04647827, -110.81555176, 79.93271637, 6.45480442, -43.21835327, 0.69810796, -0.61213589, 0.19606444, 0.31542647, -0.04424782, -0.13199295, -0.01715054, 100.31000519, 84.83507538, 0.00000000, 0.00000000
4, 0.6998, 78, -0.54326856, -0.86771458, -0.03383131, -15.52163124, -0.64644819, -19.20286942, 7.54165459, -55.07161713, -62.46711349, 97.19711304, -17.22431755, 104.68990326, 0.31052956, -0.53147376, -0.52665716, -0.58629292, 0.24676996, -0.07975329, 0.15380165, 100.32500458, 83.57634735, 32.75000000, 0.00000000
4, 0.7048, 79, -0.53689283, -0.86433101, -0.02292271, -14.05097580, -3.13907480, -16.27864838, 7.54165459, -55.07161713, -62.46711349, 97.12853241, -17.14160347, 104.68421936, 0.31134382, -0.53098935, -0.52663237, -0.58632219, 0.24182640, -0.08372638, 0.14176182, 100.32500458, 83.57634735, 32.75000000, 0.00000000
3, 0.7252, 63, -0.06990494, -0.95905846, -0.03663877, -8.97338963, -1.77960622, -1.21758246, 12.21864891, -24.72961044, -86.52440643, 95.04128265, -8.54168034, 104.12544250, -0.37071818, 0.49183223, 0.54913586, 0.56490612, -0.07869066, -0.02599841, 0.12371492, 100.39100647, 78.03938293, 33.20000076, 0.00000000
3, 0.7302, 64, -0.08555420, -0.95097733, -0.00929150, -7.39701509, -3.03754139, -7.57626820, 12.21864891, -24.72961044, -86.52440643, 94.98709869, -8.49108982, 104.11468506, -0.37127337, 0.49148872, 0.54902452, 0.56494880, -0.06240185, -0.03424579, 0.09557207, 100.39100647, 78.03938293, 33.20000076, 0.00000000
3, 0.7352, 65, -0.09707955, -0.95352995, 0.01981482, -6.31487417, -1.95413530, -13.55248737, 12.21864891, -24.72961044, -86.52440643, 94.95609283, -8.42272854, 104.11078644, -0.37178963, 0.49110976, 0.54912770, 0.56483847, -0.04972153, -0.03192616, 0.06577475, 100.39100647, 78.03938293, 33.20000076, 0.00000000
1, 0.5099, 63, 0.29187012, -0.89770508, 0.26672363, 0.42656258, -28.66829109, -5.89531422, -57.96550751, 4.20929527, -65.06869507, 100.10208893, 20.22058487, 73.18954468, 0.58774972, -0.53874081, -0.54042047, -0.26880157, 0.05354325, -0.02615962, -0.10191014, 100.27300262, 87.94092560, 31.50000000, 0.00000000
1, 0.5149, 64, 0.26348877, -0.86450195, 0.26763916, -1.39343810, -31.95829201, -5.54531431, -57.96550751, 4.20929527, -65.06869507, 100.03889465, 20.27581978, 73.02702332, 0.58860046, -0.53894866, -0.53971440, -0.26794070, 0.08282414, -0.05920595, -0.10383749, 100.27300262, 87.94092560, 31.50000000, 0.00000000
1, 0.5199, 65, 0.24487305, -0.82690430, 0.24853516, -3.03843856, -34.72329330, -5.02031374, -57.05933762, 4.41391420, -64.36714172, 99.96205902, 20.33068275, 72.84935760, 0.58954757, -0.53915781, -0.53890449, -0.26706645, 0.10234188, -0.09668645, -0.08598756, 100.27300262, 87.94092560, 31.50000000, 0.00000000
1, 0.6352, 72, -0.43486539, -0.95804656, 0.38711095, 15.07200813, 4.97073936, 120.65949249, -64.54253387, 38.32212830, -65.56562042, 111.84815216, -31.23623085, -26.74766159, -0.57655084, 0.74118954, -0.33126715, 0.09213767, -0.08254656, 0.16232453, -0.07177268, 100.35100555, 81.39475250, 32.05999756, 0.00000000
1, 0.6402, 73, -0.43204612, -0.98963416, 0.36053747, 13.98118019, 3.95563555, 120.47390747, -64.54253387, 38.32212830, -65.56562042, 112.04449463, -31.79782677, -26.98823738, -0.57566273, 0.73979121, -0.33497187, 0.09547406, -0.09371242, 0.19981290, -0.04442760, 100.35100555, 81.39475250, 32.05999756, 0.00000000
1, 0.6452, 74, -0.44549343, -0.98141575, 0.35424474, 13.71109581, 5.69552898, 120.44871521, -64.95176697, 39.78368759, -65.41946411, 112.23965454, -32.36656189, -27.22384262, -0.57478714, 0.73834825, -0.33864754, 0.09889197, -0.08861467, 0.19752669, -0.03743203, 100.35100555, 81.39475250, 32.05999756, 0.00000000
2, 0.6699, 92, 0.15442565, -0.87197018, -0.14223015, 19.02947044, 12.29226017, -21.12609673, -65.50716400, 21.04647827, -110.81555176, 80.03387451, 6.57380486, -43.17586136, 0.69739681, -0.61308151, 0.19536327, 0.31559783, -0.04047919, -0.10644653, -0.03015483, 100.31000519, 84.83507538, 0.00000000, 0.00000000
2, 0.6749, 93, 0.15985896, -0.89003253, -0.12625423, 20.08522987, 10.42767620, -21.70513535, -65.56562042, 21.45571518, -111.66325378, 80.13809204, 6.68968487, -43.14297104, 0.69664896, -0.61402071, 0.19474173, 0.31580788, -0.04387140, -0.08846326, -0.04431059, 100.31000519, 84.83507538, 0.00000000, 0.00000000
1, 0.5249, 66, 0.23187256, -0.79516602, 0.25500488, -2.89843869, -35.07329178, -4.42531395, -57.05933762, 4.41391420, -64.36714172, 99.88488770, 20.38269806, 72.66917419, 0.59049135, -0.53938723, -0.53807193, -0.26619536, 0.11620705, -0.12832847, -0.09376467, 100.27300262, 87.94092560, 31.50000000, 0.00000000
1, 0.5299, 67, 0.22515869, -0.75939941, 0.27624512, -3.52843881, -32.58829117, -4.07531357, -57.05933762, 4.41391420, -64.36714172, 99.80879974, 20.43064499, 72.50160217, 0.59138632, -0.53957856, -0.53728670, -0.26540598, 0.12372068, -0.16401574, -0.11628444, 100.27300262, 87.94092560, 31.50000000, 0.00000000
