time,ax,ay,az,aT
0.004000,-0.4528,0.3146,-0.6692,0.867
0.005000,-0.5767,0.3315,-0.4770,0.819
0.009000,-0.7268,0.3897,-0.2950,0.876
0.011000,-0.8397,0.4578,-0.1660,0.971
0.018000,-0.8494,0.4952,-0.0757,0.986
0.023000,-0.7827,0.4516,0.0239,0.904
0.027000,-0.6607,0.3770,0.1306,0.772
0.031000,-0.4895,0.2566,0.1945,0.586
0.040000,-0.3497,0.1187,0.2327,0.437
0.043000,-0.2304,0.0182,0.2405,0.334
0.047000,-0.1300,-0.0353,0.1581,0.208
0.092000,-0.0499,-0.0466,-0.0312,0.075
0.093000,-0.0567,-0.0032,-0.2869,0.292
0.094000,-0.0615,0.0833,-0.5378,0.548
0.094000,-0.0473,0.1726,-0.7337,0.755
0.095000,-0.0738,0.2051,-0.8653,0.892
0.096000,-0.1626,0.1667,-0.9377,0.966
0.097000,-0.2728,0.0910,-0.9892,1.030
0.097000,-0.3859,0.0450,-1.0077,1.080
0.098000,-0.4453,0.0237,-0.9957,1.091
0.099000,-0.4970,0.0175,-0.9889,1.107
0.103000,-0.5697,-0.0143,-1.0161,1.165
0.112000,-0.6470,-0.0619,-1.0750,1.256
0.113000,-0.6744,-0.0843,-1.1849,1.366
0.117000,-0.6504,-0.0885,-1.2477,1.410
0.124000,-0.6203,-0.1318,-1.2947,1.442
0.127000,-0.5940,-0.1711,-1.3306,1.467
0.132000,-0.5642,-0.2063,-1.3173,1.448
0.148000,-0.5041,-0.2305,-1.2954,1.409
0.148000,-0.4518,-0.2462,-1.3246,1.421
0.149000,-0.4167,-0.2846,-1.3807,1.470
0.154000,-0.3698,-0.3264,-1.4591,1.540
0.157000,-0.3004,-0.3287,-1.4496,1.516
0.164000,-0.2406,-0.2888,-1.3599,1.411
0.167000,-0.2235,-0.2094,-1.1993,1.238
0.194000,-0.2738,-0.1104,-0.9340,0.980
0.195000,-0.3563,-0.0188,-0.6234,0.718
0.195000,-0.4741,0.0645,-0.3197,0.575
0.196000,-0.5992,0.1368,-0.0895,0.621
0.196000,-0.7153,0.1932,0.0386,0.742
0.196000,-0.8349,0.2193,0.0312,0.864
0.206000,-0.9323,0.2229,-0.0758,0.962
0.207000,-1.0097,0.2334,-0.2399,1.064
0.219000,-1.0141,0.2633,-0.4039,1.123
0.219000,-0.9404,0.3443,-0.5179,1.127
0.231000,-0.7958,0.4668,-0.5344,1.066
0.232000,-0.6498,0.6116,-0.4269,0.989
0.232000,-0.5258,0.7279,-0.2336,0.928
0.239000,-0.4377,0.8124,-0.0090,0.923
0.242000,-0.3946,0.8694,0.1681,0.969
0.247000,-0.3697,0.9109,0.2452,1.013
0.264000,-0.3652,0.9271,0.2442,1.026
0.265000,-0.3353,0.9304,0.1816,1.006
0.265000,-0.2728,0.9401,0.0646,0.981
0.267000,-0.1511,0.9541,-0.0473,0.967
0.272000,-0.0250,0.9610,-0.1039,0.967
0.277000,0.0773,0.9631,-0.0625,0.968
0.283000,0.1367,0.9723,0.0340,0.982
0.339000,0.1222,0.9858,0.1689,1.008
0.340000,0.0614,1.0151,0.3353,1.071
0.340000,-0.0008,1.0596,0.5048,1.174
0.340000,-0.0915,1.0951,0.6322,1.268
0.340000,-0.2037,1.1096,0.6935,1.324
0.341000,-0.3116,1.1035,0.6791,1.333
0.342000,-0.4017,1.0864,0.6058,1.307
0.343000,-0.4577,1.0468,0.4901,1.243
0.343000,-0.4655,1.0093,0.3437,1.163
0.344000,-0.4535,0.9360,0.1807,1.056
0.345000,-0.4121,0.8419,0.0080,0.937
0.345000,-0.3365,0.7582,-0.1506,0.843
0.350000,-0.2504,0.6731,-0.2688,0.767
0.363000,-0.1486,0.6107,-0.3397,0.714
0.364000,-0.0311,0.5541,-0.3632,0.663
0.364000,-0.0267,0.5269,-0.3487,0.632
0.368000,0.1209,0.5215,-0.3296,0.629
0.384000,0.1653,0.5542,-0.2770,0.641
0.384000,0.1833,0.6008,-0.2122,0.663
0.384000,0.1847,0.6322,-0.1543,0.676
0.468000,0.1555,0.6244,-0.1485,0.660
0.469000,0.0864,0.6038,-0.1995,0.642
0.470000,0.0082,0.5728,-0.3051,0.649
0.470000,0.0019,0.5891,-0.4125,0.719
0.470000,0.0459,0.6169,-0.4838,0.785
0.471000,0.0905,0.6276,-0.5547,0.843
0.472000,0.1337,0.6215,-0.6040,0.877
0.472000,0.1375,0.5819,-0.6770,0.903
0.472000,0.1474,0.5520,-0.7476,0.941
0.472000,0.1638,0.5319,-0.7894,0.966
0.473000,0.2367,0.5622,-0.8049,1.010
0.473000,0.3376,0.5926,-0.8156,1.063
0.473000,0.4116,0.5943,-0.7784,1.062
0.474000,0.4328,0.5841,-0.7626,1.054
0.474000,0.4108,0.5573,-0.7611,1.029
0.474000,0.3743,0.5401,-0.7476,0.995
0.474000,0.3274,0.5135,-0.7173,0.941
0.475000,0.2986,0.5013,-0.6892,0.903
0.478000,0.2992,0.4794,-0.6491,0.861
0.483000,0.3310,0.4552,-0.6208,0.838
0.491000,0.3912,0.4237,-0.5902,0.825
0.493000,0.4748,0.4041,-0.5378,0.823
0.497000,0.5248,0.3842,-0.4399,0.785
0.502000,0.5413,0.3447,-0.3537,0.733
0.544000,0.5097,0.2950,-0.3197,0.670
0.544000,0.4682,0.2611,-0.3068,0.618
0.544000,0.4626,0.2386,-0.3197,0.611
0.544000,0.4836,0.2323,-0.3681,0.651
0.545000,0.5264,0.2470,-0.3898,0.700
0.545000,0.5527,0.2664,-0.3778,0.721
0.545000,0.5631,0.2688,-0.3488,0.715
0.545000,0.5215,0.2448,-0.2885,0.644
0.556000,0.3822,0.1344,-0.2280,0.465
0.557000,0.2262,-0.0098,-0.1506,0.272
0.557000,0.1868,-0.0395,-0.0682,0.203
0.570000,0.3002,0.0575,-0.0168,0.306
0.570000,0.4926,0.2025,-0.0063,0.533
0.583000,0.7084,0.3313,0.0351,0.783
0.584000,0.7348,0.4151,0.1406,0.856
0.584000,1.0070,0.4515,0.2984,1.143
0.588000,1.1802,0.3636,0.4392,1.311
0.593000,1.2426,0.2496,0.5798,1.394
0.597000,1.2138,0.1425,0.6535,1.386
0.602000,1.1729,0.0973,0.6653,1.352
0.649000,1.2010,0.1232,0.5936,1.345
0.650000,1.3201,0.2440,0.4577,1.418
0.650000,1.5509,0.3951,0.2957,1.627
0.650000,1.8350,0.5191,0.1146,1.910
0.651000,2.1127,0.5996,-0.1025,2.199
0.651000,2.3131,0.5799,-0.3294,2.407
0.651000,2.4035,0.4582,-0.5759,2.514
0.651000,2.3634,0.2350,-0.8444,2.521
0.651000,2.2577,0.0061,-1.1206,2.521
0.657000,2.1729,-0.1516,-1.3711,2.574
0.658000,2.1359,-0.1998,-1.5911,2.671
0.664000,2.1326,-0.1697,-1.7735,2.779
0.670000,2.0748,-0.1497,-1.8728,2.799
0.675000,2.0872,-0.0230,-1.9154,2.833
0.678000,2.1790,0.0977,-2.0830,3.016
0.683000,2.3114,0.2028,-2.0358,3.087
0.695000,2.3565,0.3136,-1.8885,3.036
0.696000,2.3136,0.4395,-1.7940,2.960
0.697000,2.2284,0.5730,-1.7020,2.862
0.704000,2.0291,0.6061,-1.5666,2.634
0.710000,1.7002,0.5167,-1.3782,2.249
0.713000,1.5283,0.4716,-1.2537,2.032
0.718000,1.4051,0.5041,-0.9683,1.779
0.765000,1.2793,0.5069,-0.8689,1.627
0.766000,1.2126,0.5525,-0.8600,1.586
0.766000,1.2598,0.6871,-0.7771,1.632
0.766000,1.4926,0.8347,-0.6921,1.845
0.767000,1.7358,0.9549,-0.6891,2.097
0.767000,1.8757,1.0099,-0.6750,2.235
0.767000,1.9185,1.0094,-0.5855,2.245
0.767000,1.8659,0.9366,-0.4447,2.135
0.768000,1.7148,0.8222,-0.3315,1.930
0.768000,1.5146,0.6806,-0.2532,1.680
0.773000,1.3101,0.5374,-0.1951,1.429
0.779000,1.1681,0.4404,-0.1812,1.261
0.783000,1.0935,0.3511,-0.1946,1.165
0.788000,1.0844,0.3293,-0.2877,1.169
0.793000,1.1508,0.3489,-0.3768,1.260
0.797000,1.2813,0.3882,-0.4736,1.420
0.810000,1.4287,0.4475,-0.5303,1.588
0.810000,1.5988,0.4812,-0.5660,1.763
0.813000,1.7585,0.4941,-0.5971,1.922
0.818000,1.9056,0.4624,-0.6094,2.053
0.824000,2.0096,0.4261,-0.5666,2.131
0.828000,2.0689,0.3902,-0.5094,2.166
0.833000,2.1078,0.3780,-0.4662,2.192
0.870000,2.1338,0.3752,-0.4273,2.208
0.871000,2.1255,0.3981,-0.3687,2.194
0.871000,2.1187,0.4443,-0.3096,2.187
0.872000,2.1084,0.5157,-0.2737,2.188
0.873000,2.0658,0.6002,-0.2585,2.167
0.873000,1.9522,0.6715,-0.3073,2.087
0.874000,1.7960,0.7133,-0.4153,1.977
0.874000,1.6684,0.7260,-0.5421,1.899
0.878000,1.5621,0.7386,-0.6807,1.857
0.884000,1.5106,0.7708,-0.7907,1.871
0.889000,1.4970,0.8087,-0.8793,1.915
0.895000,1.5118,0.8358,-0.9109,1.953
0.899000,1.5142,0.8329,-0.8952,1.946
0.914000,1.5042,0.8236,-0.8510,1.914
0.914000,1.5006,0.8173,-0.8096,1.891
0.915000,1.5034,0.8188,-0.7924,1.886
0.920000,1.4551,0.7966,-0.8351,1.857
0.923000,1.3558,0.7465,-0.9234,1.802
0.928000,1.2015,0.7044,-1.0024,1.716
0.933000,1.0358,0.6394,-1.0551,1.611
0.964000,0.9309,0.5970,-1.1629,1.605
0.964000,0.7771,0.6349,-1.0388,1.444
0.964000,0.6066,0.7453,-0.8405,1.277
0.965000,0.4743,0.8918,-0.6972,1.227
0.965000,0.3955,1.0135,-0.6684,1.277
0.965000,0.2842,1.0627,-0.7709,1.343
0.969000,0.1105,1.0299,-0.8925,1.367
0.976000,-0.0787,0.9869,-0.9758,1.390
0.978000,-0.2137,0.9628,-1.0737,1.458
0.983000,-0.2825,0.9699,-1.2386,1.598
0.989000,-0.2299,0.9730,-1.4853,1.790
0.993000,-0.0062,0.9373,-1.9645,2.177
0.998000,0.0798,0.9285,-2.0690,2.269
1.005000,0.0571,0.9350,-2.1050,2.304
1.009000,-0.0041,0.9548,-2.2376,2.433
1.013000,-0.0965,0.9828,-2.3469,2.546
1.018000,-0.2321,0.9806,-2.3874,2.591
1.070000,-0.4108,0.8974,-2.3830,2.579
1.071000,-0.6277,0.7520,-2.3405,2.537
1.071000,-0.8896,0.5200,-2.1834,2.414
1.072000,-1.1546,0.2911,-1.9663,2.299
1.072000,-1.3549,0.0917,-1.7225,2.193
1.072000,-1.4094,-0.0215,-1.4640,2.032
1.073000,-1.2693,-0.0245,-1.2961,1.814
1.073000,-0.9541,0.0807,-1.1905,1.528
1.073000,-0.6170,0.2389,-1.1281,1.308
1.074000,-0.3150,0.3502,-1.1188,1.214
1.074000,-0.0399,0.3893,-1.1221,1.188
1.078000,0.2548,0.3164,-1.3007,1.363
1.084000,0.5312,0.1352,-1.6619,1.750
1.090000,0.6282,-0.0235,-1.6507,1.766
1.095000,0.6301,-0.2009,-1.7379,1.860
1.099000,0.5330,-0.3891,-2.0382,2.142
1.107000,0.3309,-0.5997,-2.4481,2.542
1.110000,0.1439,-0.8059,-2.8689,2.983
1.114000,0.4290,-0.9236,-3.1615,3.321
1.174000,0.7502,-0.9668,-3.6642,3.863
1.175000,1.0352,-0.9228,-4.3570,4.572
1.176000,1.2338,-0.8058,-5.0805,5.290
1.176000,1.4024,-0.7110,-5.7637,5.974
1.176000,1.4286,-0.7417,-6.3552,6.556
1.177000,1.1235,-0.9045,-6.4042,6.565
1.177000,0.3714,-1.1579,-5.3535,5.490
1.178000,-0.5650,-1.4446,-3.9072,4.204
1.178000,-1.5657,-1.7857,-2.6780,3.579
1.178000,-2.4575,-2.1377,-1.5765,3.619
1.179000,-3.0836,-2.3834,-0.6047,3.944
1.179000,-3.4103,-2.4255,-0.0532,4.185
1.179000,-3.4920,-2.2553,0.0871,4.158
1.185000,-3.3938,-1.9645,-0.1245,3.923
1.189000,-3.2219,-1.7037,-0.5116,3.680
1.195000,-3.0583,-1.4961,-0.9736,3.541
1.199000,-2.9819,-1.4377,-1.4473,3.613
1.204000,-3.0157,-1.5268,-1.7601,3.811
1.210000,-3.0899,-1.6385,-1.6855,3.882
1.214000,-3.1888,-1.7308,-1.2705,3.844
1.222000,-3.3071,-1.8317,-0.5236,3.817
1.227000,-3.3724,-1.9070,0.4411,3.899
1.229000,-3.4448,-1.9968,1.1422,4.142
1.234000,-3.3320,-1.9726,1.9716,4.345
1.280000,-2.9892,-1.8175,2.8906,4.538
1.281000,-2.3800,-1.5627,3.6837,4.656
1.282000,-1.5917,-1.3601,3.8024,4.341
1.282000,-0.8916,-1.3616,3.1512,3.547
1.283000,-0.5168,-1.6144,2.2685,2.832
1.284000,-0.3671,-2.0201,1.4109,2.491
1.284000,-0.3800,-2.4326,0.5404,2.521
1.284000,-0.6655,-2.9062,-0.3588,3.003
1.285000,-1.2434,-3.4465,-1.1063,3.827
1.285000,-2.0156,-3.9055,-1.5292,4.653
1.290000,-2.9254,-4.1797,-1.6424,5.360
1.295000,-3.8344,-4.2045,-1.5635,5.901
1.300000,-4.5178,-3.9485,-1.7065,6.238
1.306000,-4.9369,-3.5046,-1.6696,6.280
1.310000,-5.0891,-3.0294,-1.4139,6.089
1.314000,-4.8172,-2.5850,-1.1998,5.597
1.322000,-4.0435,-2.2447,-1.0330,4.739
1.325000,-3.0112,-2.1442,-0.7951,3.781
1.329000,-2.1058,-2.3370,-0.4611,3.179
1.334000,-1.4948,-2.6737,-0.1643,3.068
1.384000,-1.1133,-2.9722,0.0764,3.175
1.385000,-0.8926,-3.1538,0.2997,3.291
1.385000,-0.7065,-3.1899,0.4961,3.305
1.386000,-0.4832,-3.1259,0.6347,3.226
1.386000,-0.2954,-3.0779,0.7379,3.179
1.386000,-0.1400,-3.1173,0.8709,3.240
1.387000,-0.2032,-3.2538,1.0343,3.420
1.387000,-0.7272,-3.4793,0.8219,3.648
1.387000,-1.6490,-3.8782,0.8085,4.291
1.388000,-2.7628,-4.3045,0.7828,5.174
1.390000,-3.8279,-4.6642,0.7158,6.076
1.395000,-4.5966,-4.8818,0.8086,6.754
1.400000,-5.0130,-4.9313,1.0944,7.117
1.406000,-5.0990,-4.8470,1.4885,7.191
1.409000,-4.8977,-4.6608,1.9450,7.035
1.414000,-4.4954,-4.4855,2.4533,6.808
1.421000,-3.9263,-4.3604,2.9335,6.560
1.424000,-3.2866,-4.3175,3.2464,6.323
1.429000,-2.6409,-4.2992,3.2461,6.000
1.434000,-2.0400,-4.1180,3.0412,5.511
1.441000,-1.4057,-3.8705,2.8303,4.997
1.445000,-0.8301,-3.6179,2.5655,4.512
1.449000,-0.2724,-3.4320,2.3450,4.166
1.496000,0.4524,-3.0903,2.1282,3.779
1.497000,1.3850,-2.5234,2.3356,3.707
1.497000,2.3142,-2.1364,2.3967,3.958
1.498000,2.9279,-1.8886,1.8288,3.935
1.498000,3.4706,-1.7640,1.9798,4.368
1.498000,3.5919,-1.7578,1.9197,4.436
1.499000,3.5231,-1.8504,1.5482,4.270
1.499000,3.3939,-1.7823,1.0078,3.964
1.499000,3.3046,-1.6751,0.7629,3.783
1.500000,3.4608,-1.5114,0.6173,3.827
1.508000,3.7542,-1.3028,0.3823,3.992
1.510000,4.0850,-1.0926,0.1541,4.231
1.514000,4.3734,-0.8924,-0.0259,4.464
1.520000,4.5387,-0.7047,-0.0687,4.594
1.525000,4.6764,-0.5158,-0.0081,4.705
1.530000,4.5469,-0.2008,-0.6733,4.601
1.537000,4.5792,-0.0126,-0.3876,4.596
1.541000,4.2372,0.1196,-0.4832,4.266
1.545000,3.7455,0.1157,-0.1967,3.752
1.550000,3.2951,-0.0062,0.2322,3.303
1.556000,3.1812,-0.0208,0.9195,3.311
1.560000,3.4170,0.7116,2.1729,4.111
1.564000,3.5414,1.3445,2.5785,4.582
1.618000,3.4361,1.7468,3.1809,4.998
1.619000,3.3923,1.8759,3.5877,5.282
1.619000,3.6054,1.8623,3.4035,5.296
1.620000,3.8403,1.8005,3.3645,5.414
1.620000,3.8813,1.7039,3.2411,5.336
1.620000,3.8429,1.6981,2.9906,5.157
1.621000,3.8399,1.8487,2.4851,4.933
1.621000,3.8501,2.0895,1.8098,4.740
1.622000,3.9170,2.3685,1.1870,4.729
1.622000,4.1266,2.6094,0.5920,4.918
1.622000,4.2835,2.8021,0.2829,5.126
1.625000,4.2253,2.9292,0.3438,5.153
1.629000,3.9806,3.0863,0.1870,5.040
1.636000,3.6903,3.2519,-0.0192,4.919
1.641000,3.3896,3.3299,-0.1500,4.754
1.646000,3.0861,3.3992,-0.2007,4.596
1.649000,2.7611,3.4935,-0.2193,4.458
1.657000,2.4789,3.5787,-0.2267,4.359
1.661000,2.5335,3.6813,-0.2371,4.475
1.664000,3.0022,3.8408,-0.3366,4.887
1.720000,3.6137,4.0989,-0.5599,5.493
1.721000,4.1053,4.4137,-0.7934,6.080
1.721000,4.3300,4.7201,-0.9882,6.481
1.722000,4.3458,4.9534,-1.1937,6.697
1.722000,4.2251,5.0924,-1.2423,6.733
1.722000,4.0890,5.0675,-1.1877,6.619
1.723000,4.0104,4.9411,-1.0095,6.443
1.723000,3.7693,4.8660,-0.7014,6.195
1.723000,3.2038,4.9114,-0.3908,5.877
1.724000,2.3338,5.0700,0.0752,5.582
1.724000,1.1584,5.3429,0.2964,5.475
1.724000,0.5380,5.4516,0.4677,5.498
1.731000,0.3634,5.3665,0.3330,5.389
1.736000,0.5171,5.1254,-0.2459,5.157
1.740000,0.8920,4.8035,-0.9019,4.968
1.746000,1.3272,4.5185,-1.5125,4.946
1.751000,1.7441,4.3012,-1.8877,5.011
1.755000,2.0287,4.1748,-1.9832,5.048
1.762000,2.2222,4.2103,-2.0235,5.173
1.764000,2.2261,4.1384,-1.7467,5.013
1.814000,2.1237,3.9139,-1.2716,4.631
1.815000,2.0987,3.6928,-0.9883,4.361
1.816000,2.2131,3.5661,-0.8826,4.289
1.816000,2.4995,3.5239,-1.0082,4.436
1.817000,2.9069,3.5755,-1.3185,4.793
1.817000,3.5001,3.8949,-1.6671,5.495
1.817000,4.1003,4.0763,-1.7342,6.036
1.818000,4.7664,4.5328,-1.9983,6.874
1.818000,5.2136,4.8821,-2.0337,7.426
1.819000,5.3267,4.9438,-1.9774,7.532
1.829000,5.0036,4.8784,-1.9392,7.252
1.830000,4.2782,4.7892,-2.2038,6.789
1.830000,3.7218,4.9254,-2.8388,6.795
1.836000,3.6296,4.8508,-2.6526,6.614
1.841000,4.1669,4.5170,-2.0589,6.481
1.845000,5.0796,3.7689,-1.0034,6.404
1.850000,6.0503,2.5597,0.6105,6.598
1.856000,6.8537,1.1573,1.9518,7.220
1.861000,6.7856,-0.2218,2.5182,7.241
1.865000,6.5267,-1.6045,2.6611,7.229
1.873000,5.8912,-3.0292,2.4482,7.062
1.878000,4.8530,-4.2172,2.0521,6.749
1.880000,4.1132,-4.2392,0.9338,5.980
1.885000,3.8408,-3.2562,-0.6174,5.073
1.921000,4.4965,-1.9292,-1.8578,5.234
1.922000,5.8807,-0.5219,-2.7044,6.494
1.922000,7.7359,0.9285,-3.2821,8.454
1.923000,9.7663,2.3291,-3.4517,10.617
1.923000,11.4667,3.4924,-3.4753,12.480
1.924000,12.4275,4.3908,-3.3097,13.590
1.924000,12.4573,4.9899,-3.2869,13.816
1.927000,11.9335,5.2862,-2.9271,13.376
1.933000,11.2466,5.4118,-2.0299,12.645
1.936000,10.4106,5.4597,-0.9032,11.790
1.941000,9.6207,5.3236,0.2474,10.998
1.946000,9.0947,5.0279,1.1741,10.458
1.950000,8.9758,4.5988,1.7130,10.230
1.956000,8.9587,4.0520,1.8992,10.014
1.961000,8.6323,3.4351,1.8403,9.471
1.965000,8.0939,2.7590,1.4903,8.680
1.972000,7.7397,2.0325,0.8485,8.047
1.976000,7.6827,1.2152,0.0745,7.779
1.981000,7.8445,0.3470,-0.8199,7.895
1.990000,8.0336,-0.5487,-1.7609,8.243
1.993000,8.2692,-1.3282,-2.8018,8.831
1.996000,8.1928,-1.9076,-4.0785,9.349
2.002000,7.8961,-2.4567,-5.1794,9.758
2.046000,7.4863,-2.9366,-5.9744,10.018
2.047000,6.9233,-3.3777,-6.6163,10.155
2.047000,6.2579,-3.7983,-7.0021,10.130
2.048000,5.4977,-4.1761,-7.2061,9.980
2.048000,4.6907,-4.4511,-7.1908,9.671
2.048000,3.8738,-4.5929,-7.0253,9.244
2.049000,3.1213,-4.5653,-6.6829,8.674
2.049000,2.4785,-4.4043,-6.1710,7.976
2.050000,1.9693,-4.1072,-5.6012,7.219
2.050000,1.7053,-3.6843,-4.9638,6.413
2.058000,1.6375,-3.2117,-4.3333,5.637
2.060000,1.6315,-2.7639,-3.7364,4.926
2.066000,1.6123,-2.3594,-3.1352,4.242
2.072000,1.5555,-2.0254,-2.5333,3.597
2.077000,1.4585,-1.7435,-1.9608,3.002
2.082000,1.3307,-1.5266,-1.4619,2.498
2.086000,1.1677,-1.3428,-1.0559,2.069
2.091000,1.0101,-1.1976,-0.7025,1.717
2.095000,0.8435,-1.0815,-0.4016,1.429
2.101000,0.6729,-1.0302,-0.1601,1.241
2.108000,0.5462,-1.0130,0.0194,1.151
2.111000,0.4569,-1.0618,0.1165,1.162
2.115000,0.3833,-1.1530,0.2052,1.232
2.170000,0.3497,-1.2791,0.2716,1.354
2.171000,0.3607,-1.4186,0.3113,1.496
2.171000,0.4045,-1.5503,0.3178,1.633
2.172000,0.4425,-1.6845,0.2626,1.761
2.172000,0.4609,-1.8344,0.1546,1.898
2.172000,0.4523,-1.9814,-0.0178,2.032
2.173000,0.4144,-2.1398,-0.2031,2.189
2.173000,0.3759,-2.3121,-0.3621,2.370
2.173000,0.3293,-2.4966,-0.5493,2.577
2.173000,0.2461,-2.6943,-0.7294,2.802
2.174000,0.1476,-2.9085,-0.8783,3.042
2.176000,0.0435,-3.1414,-0.9937,3.295
2.184000,-0.0352,-3.3689,-1.0972,3.543
2.187000,-0.0789,-3.5991,-1.1987,3.794
2.190000,-0.1138,-3.8446,-1.3189,4.066
2.196000,-0.1831,-4.1085,-1.4578,4.363
2.202000,-0.2605,-4.3690,-1.6224,4.668
2.207000,-0.3340,-4.6403,-1.8143,4.994
2.211000,-0.4302,-4.8935,-2.0330,5.316
2.216000,-0.5349,-5.1246,-2.2613,5.627
2.223000,-0.6625,-5.3556,-2.4574,5.930
2.226000,-0.8132,-5.5658,-2.6285,6.209
2.231000,-0.9725,-5.7600,-2.7698,6.465
2.290000,-1.1191,-5.9546,-2.8789,6.708
2.295000,-1.2648,-6.1339,-2.9537,6.924
2.297000,-1.4312,-6.3173,-2.9990,7.138
2.299000,-1.6038,-6.5007,-3.0300,7.349
2.306000,-1.7608,-6.6574,-3.0519,7.532
2.307000,-1.9239,-6.7898,-3.0579,7.691
2.307000,-2.0857,-6.9057,-3.0529,7.833
2.308000,-2.2608,-7.0156,-3.0369,7.972
2.308000,-2.4418,-7.1534,-3.0388,8.147
2.309000,-2.6287,-7.3167,-3.0350,8.346
2.309000,-2.8121,-7.4858,-3.0183,8.547
2.310000,-2.9728,-7.6772,-2.9986,8.762
2.311000,-3.1202,-7.8917,-2.9713,8.991
2.311000,-3.2474,-8.1247,-2.9274,9.226
2.312000,-3.3782,-8.3722,-2.8935,9.480
2.313000,-3.4792,-8.6289,-2.8555,9.732
2.316000,-3.5433,-8.8518,-2.8041,9.938
2.330000,-3.5729,-9.0607,-2.7729,10.127
2.334000,-3.6016,-9.2688,-2.7482,10.317
2.335000,-3.6771,-9.4862,-2.7206,10.531
2.335000,-3.7924,-9.6840,-2.7142,10.748
2.385000,-3.9593,-9.8501,-2.7436,10.965
2.386000,-4.1803,-9.9657,-2.7895,11.161
2.386000,-4.4509,-10.0484,-2.8379,11.351
2.387000,-4.7711,-10.1010,-2.9151,11.545
2.387000,-5.1460,-10.1084,-3.0016,11.733
2.387000,-5.5592,-10.0631,-3.0853,11.903
2.388000,-5.9821,-9.9837,-3.1684,12.062
2.388000,-6.3983,-9.8678,-3.2317,12.197
2.389000,-6.7867,-9.7215,-3.2442,12.292
2.389000,-7.0973,-9.6140,-3.1803,12.366
2.393000,-7.2942,-9.5788,-3.0335,12.416
2.396000,-7.3945,-9.6272,-2.8192,12.462
2.403000,-7.3838,-9.7977,-2.5834,12.538
2.406000,-7.3177,-10.0390,-2.3598,12.645
2.412000,-7.2228,-10.2821,-2.1548,12.749
2.416000,-7.1278,-10.4625,-1.9632,12.811
2.423000,-7.0688,-10.5400,-1.8012,12.818
2.427000,-7.0577,-10.5102,-1.6538,12.768
2.431000,-7.0968,-10.3810,-1.5346,12.668
2.486000,-7.1596,-10.2340,-1.4411,12.573
2.487000,-7.2485,-10.1340,-1.3302,12.530
2.487000,-7.3562,-10.1335,-1.1712,12.577
2.488000,-7.4564,-10.2413,-0.9695,12.705
2.488000,-7.5709,-10.4469,-0.7418,12.923
2.488000,-7.6613,-10.7307,-0.5415,13.196
2.489000,-7.7470,-11.0148,-0.4212,13.473
2.489000,-7.8308,-11.2216,-0.4309,13.691
2.490000,-7.8672,-11.3504,-0.5439,13.821
2.490000,-7.8184,-11.3881,-0.7595,13.834
2.490000,-7.6671,-11.3568,-1.0396,13.742
2.491000,-7.3942,-11.2774,-1.3477,13.553
2.498000,-6.9731,-11.1406,-1.6456,13.246
2.503000,-6.3842,-10.9349,-1.9212,12.807
2.507000,-5.6558,-10.6516,-2.1986,12.259
2.513000,-4.8401,-10.3246,-2.4585,11.665
2.517000,-3.9359,-9.9857,-2.7183,11.072
2.523000,-2.9691,-9.6596,-2.9254,10.521
2.527000,-1.9678,-9.3524,-3.0658,10.037
2.532000,-0.9770,-9.1277,-3.1282,9.698
2.538000,-0.0778,-8.9759,-3.1343,9.508
2.543000,0.6636,-8.8832,-3.0698,9.422
2.546000,1.2400,-8.8487,-2.9604,9.413
2.551000,1.2237,-8.8244,-2.7488,9.323
2.618000,1.9880,-8.8074,-2.4615,9.359
2.619000,2.2289,-8.8081,-2.1422,9.335
2.620000,2.3921,-8.8424,-1.7577,9.327
2.620000,2.5185,-8.9060,-1.3278,9.350
2.621000,2.6230,-9.0125,-0.8934,9.429
2.621000,2.7944,-9.0917,-0.4429,9.522
2.621000,3.0857,-9.0671,-0.0317,9.578
2.622000,3.1027,-8.8995,0.2802,9.429
2.622000,4.0653,-8.6259,0.5051,9.549
2.622000,4.6838,-8.2485,0.6916,9.511
2.623000,5.3437,-7.7731,0.8447,9.470
2.623000,6.0280,-7.1867,0.9818,9.431
2.623000,6.7465,-6.4822,1.1130,9.422
2.624000,7.4647,-5.6588,1.2174,9.446
2.627000,8.0939,-4.7576,1.3075,9.479
2.633000,8.5858,-3.8278,1.4126,9.506
2.637000,8.9014,-2.9231,1.5744,9.500
2.643000,9.0575,-2.0647,1.8313,9.469
2.647000,9.0624,-1.2816,2.1645,9.405
2.655000,8.9544,-0.5443,2.5260,9.320
2.657000,8.7811,0.1304,2.9011,9.249
2.662000,8.5614,0.7499,3.2631,9.193
2.666000,8.3165,1.2879,3.5593,9.137
2.717000,8.0514,1.7767,3.7869,9.073
2.718000,7.8103,2.2765,3.8931,9.019
2.718000,7.6100,2.7594,3.8899,8.981
2.718000,7.4593,3.2321,3.7817,8.966
2.719000,7.3460,3.6372,3.5637,8.938
2.719000,7.2603,3.9873,3.2667,8.904
2.720000,7.1600,4.2686,2.8958,8.824
2.720000,7.0047,4.4988,2.4720,8.684
2.721000,6.8040,4.6687,1.9856,8.487
2.721000,6.5888,4.8219,1.5012,8.302
2.723000,6.3807,4.9396,1.0093,8.132
2.728000,6.1922,5.0063,0.4739,7.977
2.731000,6.0275,5.0647,-0.0737,7.873
2.737000,5.8748,5.1250,-0.6116,7.820
2.742000,5.6936,5.1950,-1.1226,7.789
2.747000,5.4602,5.3231,-1.5633,7.784
2.755000,5.2038,5.4886,-1.9121,7.801
2.758000,4.9506,5.6745,-2.1354,7.827
2.762000,4.7178,5.8649,-2.2355,7.852
2.766000,4.5413,6.0386,-2.2342,7.879
2.832000,4.4283,6.1886,-2.1697,7.913
2.833000,4.3553,6.3106,-2.0802,7.945
2.834000,4.3046,6.3993,-1.9464,7.954
2.834000,4.2720,6.4768,-1.8038,7.966
2.834000,4.2166,6.5528,-1.6592,7.967
2.835000,4.1096,6.6274,-1.4637,7.934
2.835000,3.9872,6.7249,-1.1672,7.905
2.835000,3.8704,6.8277,-0.8060,7.890
2.836000,3.7617,6.9525,-0.4121,7.916
2.836000,3.6559,7.0417,0.0069,7.934
2.836000,3.5460,7.0734,0.4473,7.925
2.837000,3.4391,7.0333,0.8579,7.876
2.837000,3.3286,6.9217,1.2020,7.774
2.837000,3.2310,6.7434,1.4383,7.615
2.843000,3.1732,6.5610,1.5713,7.456
2.848000,3.1676,6.3823,1.5939,7.301
2.853000,3.2285,6.2002,1.5158,7.153
2.859000,3.3444,6.0105,1.3635,7.012
2.862000,3.4959,5.8227,1.1638,6.891
2.867000,3.7192,5.6371,0.9556,6.821
2.872000,4.0237,5.4756,0.7415,6.835
2.878000,4.3950,5.3714,0.5389,6.961
2.882000,4.7778,5.3055,0.3551,7.149
2.936000,5.1477,5.3155,0.2169,7.403
2.937000,5.4707,5.4130,0.1032,7.697
2.938000,5.7131,5.5545,0.0525,7.968
2.938000,5.9058,5.7399,0.0625,8.236
2.938000,6.0773,5.9640,0.1518,8.516
2.939000,6.2419,6.1357,0.3607,8.760
2.939000,6.4569,6.1830,0.7477,8.971
2.939000,6.7295,6.0413,1.2559,9.130
2.940000,7.0454,5.7751,1.7068,9.268
2.940000,7.3638,5.4729,1.9805,9.386
2.941000,7.6580,5.1799,2.1086,9.483
2.942000,7.9087,4.9198,2.1204,9.552
2.948000,8.0704,4.6591,2.0022,9.531
2.953000,8.1240,4.4121,1.7741,9.413
2.958000,8.1104,4.1983,1.4298,9.244
2.963000,8.0635,4.0178,0.9939,9.064
2.969000,8.0549,3.8782,0.5201,8.955
2.974000,8.0896,3.7365,0.0301,8.911
2.979000,8.1893,3.5809,-0.4515,8.949
2.984000,8.3301,3.3758,-0.9175,9.035
2.991000,8.4667,3.1216,-1.3556,9.125
2.993000,8.6015,2.8590,-1.7439,9.230
2.999000,8.7754,2.6027,-2.0534,9.381
3.003000,8.9716,2.3837,-2.3370,9.572
3.061000,9.1732,2.2019,-2.5948,9.784
3.062000,9.3873,2.0403,-2.8102,10.009
3.062000,9.6159,1.8838,-2.9932,10.246
3.063000,9.8425,1.7137,-3.1344,10.471
3.063000,10.0454,1.5152,-3.2247,10.659
3.064000,10.2176,1.2931,-3.2932,10.813
3.064000,10.3662,1.0544,-3.3162,10.935
3.064000,10.4844,0.8254,-3.2963,11.021
3.065000,10.5384,0.6084,-3.2578,11.047
3.065000,10.5411,0.4229,-3.1864,11.020
3.065000,10.4996,0.2618,-3.0820,10.946
3.066000,10.4284,0.1440,-2.9376,10.835
3.072000,10.3252,0.0409,-2.7698,10.690
3.073000,10.2017,-0.0336,-2.5548,10.517
3.079000,10.0678,-0.0697,-2.3332,10.335
3.084000,9.9209,-0.0631,-2.0953,10.140
3.089000,9.7249,-0.0310,-1.8604,9.901
3.093000,9.4939,0.0141,-1.6211,9.631
3.098000,9.1942,0.0764,-1.3964,9.300
3.109000,8.8405,0.1492,-1.1931,8.922
3.113000,8.4182,0.2222,-1.0084,8.481
3.114000,7.9418,0.2905,-0.8231,7.990
3.118000,7.4258,0.3181,-0.6492,7.461
3.161000,6.9036,0.3282,-0.4892,6.929
3.162000,6.3617,0.2935,-0.3410,6.378
3.162000,5.8505,0.2086,-0.2120,5.858
3.163000,5.3965,0.0856,-0.1073,5.398
3.163000,5.0335,-0.0515,-0.0249,5.034
3.163000,4.7712,-0.2218,0.0132,4.776
3.164000,4.5880,-0.4281,-0.0362,4.608
3.164000,4.4656,-0.6209,-0.1820,4.512
3.164000,4.3607,-0.7914,-0.4002,4.450
3.174000,4.2423,-0.9272,-0.6397,4.389
3.174000,4.0865,-1.0454,-0.8308,4.299
3.182000,3.8811,-1.1636,-0.9396,4.159
3.183000,3.6150,-1.3086,-0.9565,3.962
3.193000,3.3265,-1.4695,-0.9033,3.747
3.194000,3.0085,-1.6389,-0.8497,3.530
3.198000,2.6686,-1.8120,-0.8148,3.327
3.203000,2.3234,-2.0206,-0.8269,3.188
3.257000,1.9711,-2.2482,-0.8831,3.118
3.258000,1.5997,-2.4642,-0.9662,3.093
3.258000,1.2403,-2.6851,-0.9968,3.121
3.258000,0.8954,-2.9274,-0.9986,3.220
3.259000,0.5532,-3.1765,-1.0290,3.385
3.259000,0.2399,-3.4474,-1.0659,3.616
3.259000,-0.0466,-3.7230,-1.1190,3.888
3.259000,-0.3062,-4.0068,-1.1569,4.182
3.260000,-0.5463,-4.3007,-1.2225,4.504
3.260000,-0.7476,-4.5852,-1.3038,4.825
3.260000,-0.9079,-4.8638,-1.4272,5.150
3.267000,-1.0483,-5.1317,-1.5522,5.463
3.268000,-1.1977,-5.4185,-1.6529,5.790
3.273000,-1.3487,-5.7240,-1.7035,6.123
3.278000,-1.4916,-6.0622,-1.7047,6.472
3.283000,-1.6406,-6.4185,-1.6714,6.832
3.288000,-1.8220,-6.8003,-1.6113,7.222
3.293000,-2.0142,-7.1570,-1.5630,7.598
3.298000,-2.1813,-7.4584,-1.5221,7.918
3.305000,-2.3524,-7.7350,-1.4956,8.222
3.309000,-2.5155,-7.9745,-1.4669,8.490
3.313000,-2.6541,-8.1661,-1.4337,8.705
3.318000,-2.7804,-8.3052,-1.3962,8.869
3.349000,-2.8944,-8.4265,-1.3448,9.011
3.350000,-3.0084,-8.5541,-1.2867,9.158
3.350000,-3.0889,-8.7116,-1.1981,9.320
3.350000,-3.1385,-8.9023,-1.0478,9.497
3.351000,-3.1671,-9.1243,-0.8770,9.698
3.351000,-3.1819,-9.3759,-0.7381,9.929
3.353000,-3.1928,-9.6331,-0.6095,10.167
3.359000,-3.2071,-9.8983,-0.5054,10.417
3.364000,-3.2299,-10.2024,-0.4063,10.709
3.369000,-3.2826,-10.5221,-0.3214,11.027
3.373000,-3.3707,-10.8365,-0.2649,11.352
3.379000,-3.4871,-11.1221,-0.2319,11.658
3.383000,-3.6438,-11.3548,-0.2103,11.927
3.388000,-3.8410,-11.5299,-0.1978,12.154
3.393000,-4.0644,-11.6692,-0.1918,12.358
3.397000,-4.3170,-11.7690,-0.1708,12.537
3.403000,-4.5796,-11.8369,-0.1588,12.693
3.408000,-4.8452,-11.8656,-0.1605,12.818
3.412000,-5.1188,-11.8382,-0.2023,12.899
3.418000,-5.4053,-11.7410,-0.2840,12.929
3.450000,-5.7050,-11.5921,-0.3605,12.925
3.451000,-6.0154,-11.3994,-0.4198,12.896
3.451000,-6.3439,-11.1773,-0.4833,12.861
3.452000,-6.6546,-10.9734,-0.5726,12.846
3.452000,-6.9145,-10.8162,-0.6755,12.855
3.452000,-7.1021,-10.7653,-0.7874,12.921
3.453000,-7.1581,-10.8507,-0.8228,13.025
3.459000,-7.0828,-11.0194,-0.7676,13.122
3.464000,-6.9409,-11.2257,-0.6922,13.216
3.468000,-6.7945,-11.3814,-0.6709,13.272
3.473000,-6.6987,-11.4724,-0.7225,13.305
3.478000,-6.6676,-11.5254,-0.7706,13.337
3.484000,-6.7394,-11.5738,-0.7647,13.415
3.491000,-6.8829,-11.6271,-0.6932,13.529
3.494000,-7.0791,-11.7062,-0.5851,13.693
3.499000,-7.3183,-11.7865,-0.4670,13.882
3.505000,-7.5432,-11.8462,-0.3492,14.048
3.509000,-7.7537,-11.8631,-0.2679,14.175
3.513000,-7.9404,-11.8629,-0.2114,14.277
3.566000,-8.0913,-11.8448,-0.1918,14.346
3.568000,-8.1920,-11.8035,-0.2163,14.369
3.569000,-8.2307,-11.7281,-0.3065,14.331
3.569000,-8.1471,-11.5811,-0.4551,14.167
3.570000,-7.8979,-11.3666,-0.6549,13.857
3.571000,-7.4064,-11.0726,-0.8795,13.350
3.571000,-6.7318,-10.7146,-1.0834,12.700
3.572000,-5.8568,-10.3167,-1.2309,11.927
3.573000,-4.7971,-9.9018,-1.3557,11.086
3.573000,-3.6814,-9.4827,-1.4648,10.277
3.574000,-2.5498,-9.0779,-1.5245,9.552
3.574000,-1.4543,-8.7177,-1.5176,8.968
3.579000,-0.4377,-8.3978,-1.4508,8.533
3.584000,0.4525,-8.1620,-1.3061,8.278
3.588000,1.1901,-8.0247,-1.0761,8.183
3.594000,1.7514,-7.9600,-0.7794,8.188
3.599000,2.1125,-7.9825,-0.4156,8.268
3.604000,2.2736,-8.1063,0.0342,8.419
3.609000,2.3044,-8.3008,0.5235,8.631
3.613000,2.2674,-8.5480,0.9802,8.898
3.621000,2.2035,-8.8620,1.4112,9.240
3.624000,2.1464,-9.2131,1.8159,9.633
3.628000,2.1301,-9.5522,2.1823,10.027
3.634000,2.1717,-9.8098,2.4674,10.346
3.687000,2.2738,-9.9376,2.6887,10.543
3.688000,2.4514,-9.9100,2.8583,10.601
3.688000,2.7144,-9.7223,2.9480,10.516
3.689000,3.0678,-9.4038,3.0017,10.337
3.689000,3.5984,-8.9325,3.0269,10.095
3.689000,4.3172,-8.3197,3.0153,9.846
3.690000,5.1381,-7.5636,2.9720,9.615
3.690000,5.9936,-6.7071,2.9218,9.458
3.691000,6.8061,-5.8122,2.8780,9.401
3.691000,7.4839,-4.9169,2.8632,9.401
3.691000,7.9882,-4.0668,2.8947,9.420
3.696000,8.3029,-3.2441,2.9083,9.377
3.700000,8.4784,-2.4172,2.8846,9.276
3.704000,8.5739,-1.5531,2.8734,9.175
3.709000,8.6678,-0.6573,2.8569,9.150
3.715000,8.7410,0.2491,2.8222,9.189
3.719000,8.7722,1.1605,2.7805,9.275
3.724000,8.7493,2.0270,2.7164,9.383
3.729000,8.6044,2.8098,2.6221,9.424
3.744000,8.3392,3.4654,2.4707,9.362
3.745000,7.9797,3.9823,2.2473,9.197
3.747000,7.5622,4.3832,1.9444,8.954
3.750000,7.1333,4.7200,1.5402,8.691
3.816000,6.6887,4.9560,1.0661,8.393
3.817000,6.2906,5.1350,0.5534,8.139
3.819000,5.9245,5.2651,0.0123,7.926
3.821000,5.6435,5.3380,-0.5380,7.787
3.821000,5.4516,5.3772,-1.0945,7.735
3.823000,5.3490,5.3913,-1.6807,7.778
3.824000,5.3236,5.4452,-2.2527,7.941
3.824000,5.2893,5.5037,-2.7455,8.112
3.825000,5.2226,5.5388,-3.1562,8.241
3.825000,5.1018,5.5579,-3.4607,8.300
3.826000,4.9108,5.5835,-3.6471,8.282
3.827000,4.6646,5.6136,-3.7083,8.187
3.827000,4.3854,5.6155,-3.6450,8.003
3.828000,4.0931,5.6303,-3.5178,7.799
3.829000,3.8260,5.6317,-3.3105,7.571
3.829000,3.5534,5.6032,-3.0622,7.308
3.836000,3.2615,5.5284,-2.8236,7.012
3.840000,2.9604,5.3936,-2.5611,6.664
3.845000,2.6695,5.2375,-2.2558,6.296
3.850000,2.4013,5.1252,-1.9290,5.980
3.857000,2.1821,5.0518,-1.6385,5.742
3.860000,2.0047,5.0270,-1.3862,5.587
3.865000,1.9004,5.0414,-1.1337,5.506
3.933000,1.8475,5.0445,-0.8668,5.442
3.934000,1.8820,5.0797,-0.6047,5.451
3.934000,1.9769,5.1006,-0.3717,5.483
3.934000,2.1157,5.0982,-0.1388,5.521
3.934000,2.3220,5.0888,0.0988,5.594
3.935000,2.6028,5.0629,0.3436,5.703
3.935000,2.9220,5.0253,0.5838,5.842
3.935000,3.2742,4.9919,0.8168,6.026
3.936000,3.6496,4.9772,1.0644,6.263
3.936000,4.0429,4.9663,1.3313,6.541
3.937000,4.4540,4.9710,1.5695,6.857
3.937000,4.8370,4.9550,1.7596,7.145
3.937000,5.1539,4.9043,1.8874,7.360
3.938000,5.3733,4.8352,2.0197,7.505
3.941000,5.5343,4.7795,2.1231,7.614
3.945000,5.6442,4.7972,2.2048,7.729
3.949000,5.7417,4.8763,2.2815,7.871
3.955000,5.8891,5.0171,2.3914,8.098
3.960000,6.1675,5.1496,2.6195,8.451
3.964000,6.6554,5.1515,3.0051,8.937
3.972000,7.3166,4.9340,3.4985,9.493
3.975000,8.0741,4.4801,3.9233,10.033
3.979000,8.8463,3.9308,4.1544,10.534
3.985000,9.5918,3.4436,4.1539,11.005
4.041000,10.2460,3.0783,3.9253,11.396
4.042000,10.7989,2.9135,3.4870,11.716
4.043000,11.2380,2.9609,2.8889,11.975
4.043000,11.5315,3.1914,2.2097,12.167
4.044000,11.6600,3.5664,1.5564,12.292
4.044000,11.6779,4.0044,1.0234,12.388
4.044000,11.6115,4.4379,0.6658,12.448
4.045000,11.5059,4.7903,0.5047,12.473
4.045000,11.4039,4.9558,0.5175,12.445
4.045000,11.2860,4.9244,0.6169,12.329
4.046000,11.1522,4.7606,0.7088,12.146
4.046000,10.9880,4.5023,0.7448,11.898
4.050000,10.7817,4.1618,0.6937,11.578
4.055000,10.5530,3.7247,0.5678,11.205
4.061000,10.3311,3.1678,0.3625,10.812
4.066000,10.1510,2.5354,0.1122,10.463
4.073000,10.0206,1.8617,-0.1137,10.193
4.076000,9.9741,1.1833,-0.2889,10.048
4.080000,9.9907,0.5245,-0.4902,10.016
4.155000,10.0229,-0.1119,-0.7368,10.051
4.156000,10.0243,-0.7127,-0.9616,10.096
4.157000,9.9881,-1.2371,-1.1940,10.135
4.157000,9.9555,-1.6727,-1.4506,10.199
4.158000,9.9217,-1.9694,-1.7361,10.263
4.160000,9.8862,-2.1588,-2.0263,10.320
4.161000,9.8590,-2.2309,-2.2919,10.365
4.162000,9.8130,-2.2153,-2.5378,10.375
4.162000,9.7192,-2.1435,-2.7230,10.318
4.163000,9.5629,-2.0256,-2.8567,10.184
4.166000,9.3370,-1.8402,-2.9795,9.972
4.169000,9.0670,-1.5739,-3.0599,9.698
4.171000,8.7462,-1.2768,-3.0786,9.360
4.171000,8.3858,-0.9975,-3.0185,8.968
4.172000,8.0072,-0.7414,-2.9156,8.554
4.173000,7.5981,-0.5354,-2.7698,8.105
4.174000,7.1461,-0.3638,-2.6052,7.615
4.174000,6.6640,-0.2401,-2.4337,7.099
4.175000,6.1157,-0.1745,-2.2723,6.527
4.182000,5.5137,-0.1693,-2.1116,5.907
4.186000,4.8871,-0.2172,-1.9832,5.279
4.191000,4.2844,-0.2866,-1.8897,4.691
4.197000,3.7106,-0.3992,-1.8171,4.151
4.202000,3.1718,-0.5219,-1.7731,3.671
4.249000,2.6728,-0.6621,-1.7365,3.255
4.250000,2.2165,-0.8100,-1.7152,2.917
4.250000,1.8007,-0.9722,-1.6975,2.659
4.251000,1.4611,-1.1183,-1.6646,2.481
4.251000,1.1580,-1.2727,-1.6292,2.370
4.252000,0.9009,-1.4361,-1.5966,2.329
4.252000,0.6491,-1.6395,-1.5649,2.358
4.252000,0.3718,-1.8775,-1.5413,2.457
4.253000,0.0738,-2.1284,-1.5018,2.606
4.253000,-0.2090,-2.3471,-1.4440,2.764
4.255000,-0.4426,-2.5316,-1.3630,2.909
4.262000,-0.6154,-2.6997,-1.2612,3.043
4.270000,-0.7299,-2.8610,-1.1794,3.179
4.271000,-0.7957,-3.0176,-1.1079,3.312
4.276000,-0.8156,-3.1636,-1.0418,3.429
4.282000,-0.8011,-3.2755,-0.9831,3.512
4.286000,-0.8007,-3.3739,-0.9336,3.591
4.291000,-0.8287,-3.4515,-0.8667,3.654
4.296000,-0.8827,-3.5326,-0.7699,3.722
4.302000,-0.9629,-3.6326,-0.6121,3.808
4.310000,-1.0355,-3.7233,-0.4196,3.887
4.312000,-1.1101,-3.8297,-0.2284,3.994
4.315000,-1.1866,-3.9733,-0.0602,4.147
4.370000,-1.2842,-4.1395,0.0832,4.335
4.372000,-1.3933,-4.3209,0.2043,4.545
4.372000,-1.5378,-4.5328,0.2797,4.795
4.373000,-1.6938,-4.7487,0.2817,5.050
4.373000,-1.8280,-4.9810,0.2348,5.311
4.373000,-1.9429,-5.2223,0.1421,5.574
4.374000,-2.0316,-5.4673,0.0281,5.833
4.374000,-2.0846,-5.7218,-0.0975,6.090
4.375000,-2.1021,-5.9643,-0.2223,6.328
4.375000,-2.0722,-6.2127,-0.3201,6.557
4.375000,-1.9856,-6.4788,-0.4270,6.790
4.376000,-1.8758,-6.7412,-0.5547,7.019
4.380000,-1.7310,-7.0047,-0.6576,7.245
4.386000,-1.5942,-7.2943,-0.7695,7.506
4.392000,-1.4967,-7.5771,-0.8615,7.771
4.395000,-1.4575,-7.8515,-0.9362,8.040
4.401000,-1.4574,-8.1222,-0.9963,8.312
4.407000,-1.4868,-8.3987,-1.0299,8.591
4.410000,-1.5169,-8.6769,-1.0160,8.867
4.415000,-1.5285,-8.9665,-0.9626,9.147
4.455000,-1.5336,-9.2612,-0.8777,9.428
4.456000,-1.5679,-9.5607,-0.7879,9.720
4.456000,-1.6148,-9.8720,-0.6890,10.027
4.457000,-1.6908,-10.1883,-0.5882,10.344
4.457000,-1.8061,-10.4741,-0.4810,10.640
4.457000,-1.9534,-10.7348,-0.3625,10.917
4.457000,-2.1329,-10.9866,-0.2828,11.195
4.458000,-2.3475,-11.2436,-0.2320,11.488
4.461000,-2.6093,-11.4859,-0.2529,11.781
4.465000,-2.8996,-11.6635,-0.3327,12.023
4.471000,-3.2360,-11.7578,-0.4348,12.203
4.475000,-3.6185,-11.7670,-0.5658,12.324
4.481000,-4.0357,-11.7030,-0.7422,12.402
4.485000,-4.4662,-11.5800,-0.9227,12.446
4.490000,-4.9007,-11.4223,-1.0856,12.477
4.498000,-5.3277,-11.2527,-1.2333,12.511
4.501000,-5.7378,-11.0500,-1.3731,12.526
4.506000,-6.1263,-10.8094,-1.5195,12.517
4.510000,-6.4719,-10.5428,-1.6819,12.485
4.515000,-6.7244,-10.2936,-1.8055,12.427
4.547000,-6.8481,-10.1379,-1.8625,12.375
4.548000,-6.8573,-10.1355,-1.7960,12.368
4.548000,-6.7832,-10.2840,-1.6763,12.433
4.549000,-6.6663,-10.5260,-1.5684,12.558
4.549000,-6.5666,-10.8038,-1.5205,12.734
4.549000,-6.5152,-11.0409,-1.5010,12.907
4.550000,-6.5479,-11.2205,-1.4862,13.076
4.559000,-6.6789,-11.3688,-1.4377,13.264
4.561000,-6.9131,-11.4832,-1.3558,13.472
4.569000,-7.2168,-11.5654,-1.2599,13.690
4.572000,-7.5090,-11.6314,-1.1314,13.891
4.576000,-7.7295,-11.7121,-0.9691,14.066
4.581000,-7.8521,-11.8380,-0.7685,14.226
4.586000,-7.8984,-12.0348,-0.5495,14.406
4.597000,-7.8707,-12.2567,-0.3817,14.571
4.597000,-7.7904,-12.4508,-0.3107,14.690
4.601000,-7.6742,-12.5684,-0.3197,14.730
4.606000,-7.4927,-12.5699,-0.3732,14.638
4.612000,-7.2098,-12.4715,-0.4786,14.413
4.617000,-6.7631,-12.2542,-0.6359,14.011
4.624000,-6.1592,-11.9763,-0.8355,13.493
4.626000,-5.4648,-11.7237,-0.9841,12.972
4.631000,-4.6716,-11.5302,-1.1224,12.491
4.636000,-3.8247,-11.3743,-1.2408,12.064
4.687000,-2.9332,-11.2236,-1.3893,11.683
4.689000,-2.0516,-11.0741,-1.5652,11.371
4.689000,-1.1940,-10.9137,-1.7706,11.121
4.690000,-0.3765,-10.7525,-1.9925,10.942
4.690000,0.3843,-10.5830,-2.2087,10.818
4.691000,1.0719,-10.3987,-2.4233,10.731
4.691000,1.6816,-10.2192,-2.6117,10.681
4.692000,2.2207,-10.0392,-2.7517,10.644
4.692000,2.6464,-9.8946,-2.8498,10.631
4.693000,2.9396,-9.7649,-2.8794,10.596
4.693000,3.1079,-9.6498,-2.7975,10.517
4.696000,3.1992,-9.5249,-2.5991,10.379
4.701000,3.2857,-9.3875,-2.2938,10.207
4.707000,3.3990,-9.2266,-1.9516,10.025
4.712000,3.5748,-9.0517,-1.5435,9.854
4.717000,3.8446,-8.8689,-1.0846,9.727
4.722000,4.2016,-8.6257,-0.6522,9.617
4.731000,4.6292,-8.2919,-0.2701,9.500
4.732000,5.0917,-7.8502,0.0519,9.357
4.796000,5.5814,-7.3066,0.3623,9.202
4.797000,6.0600,-6.6847,0.6513,9.046
4.798000,6.5276,-5.9925,0.9383,8.911
4.799000,6.9884,-5.2216,1.2593,8.814
4.799000,7.4259,-4.4053,1.5834,8.778
4.800000,7.8025,-3.5475,1.8967,8.778
4.800000,8.1252,-2.6909,2.2019,8.838
4.800000,8.3454,-1.8340,2.5592,8.920
4.801000,8.4601,-0.9943,2.9688,9.021
4.801000,8.4662,-0.2082,3.4142,9.131
4.801000,8.3613,0.5154,3.8548,9.222
4.802000,8.1699,1.1981,4.2765,9.299
4.802000,7.9016,1.8432,4.6769,9.365
4.802000,7.5729,2.4342,5.0437,9.419
4.809000,7.2242,2.9451,5.3455,9.457
4.811000,6.8608,3.3771,5.5819,9.467
4.817000,6.4840,3.7244,5.7092,9.408
4.822000,6.1494,4.0074,5.7034,9.295
4.826000,5.9022,4.2624,5.6263,9.201
4.831000,5.7706,4.5177,5.4440,9.129
4.839000,5.7159,4.7636,5.1794,9.066
4.847000,5.7139,4.9859,4.7863,8.968
4.847000,5.7296,5.1783,4.2503,8.815
4.851000,5.7439,5.3103,3.6408,8.628
4.908000,5.7589,5.3872,2.9677,8.426
4.910000,5.7485,5.4407,2.2577,8.231
4.910000,5.7272,5.4835,1.5546,8.080
4.910000,5.6658,5.5250,0.8899,7.964
4.911000,5.5457,5.5447,0.2975,7.848
4.911000,5.3698,5.5482,-0.1910,7.724
4.911000,5.1768,5.5265,-0.5709,7.594
4.912000,4.9746,5.5523,-0.8250,7.500
4.912000,4.7653,5.5846,-0.9874,7.407
4.912000,4.5736,5.6530,-1.0677,7.349
4.913000,4.3832,5.7482,-1.0977,7.312
4.913000,4.2255,5.8299,-1.0917,7.283
4.916000,4.1245,5.9340,-1.0811,7.307
4.922000,4.0373,6.0418,-1.0537,7.343
4.927000,3.9706,6.1551,-0.9858,7.391
4.932000,3.9700,6.2886,-0.8701,7.488
4.937000,4.0090,6.4277,-0.7332,7.611
4.942000,4.0585,6.5673,-0.5896,7.743
4.947000,4.1018,6.6741,-0.4300,7.846
4.951000,4.1476,6.7162,-0.2451,7.897
5.004000,4.1579,6.6963,-0.0519,7.882
5.005000,4.1518,6.6168,0.1040,7.812
5.005000,4.1510,6.4923,0.2104,7.709
5.006000,4.1555,6.3324,0.2508,7.578
5.006000,4.1970,6.1497,0.2470,7.449
5.006000,4.2609,5.9444,0.1993,7.316
5.007000,4.3406,5.7072,0.1609,7.172
5.007000,4.4339,5.4577,0.1200,7.033
5.007000,4.5459,5.2203,0.0867,6.923
5.008000,4.6722,5.0071,0.0681,6.849
5.014000,5.0329,4.7346,0.0380,6.910
5.014000,5.0492,4.7475,0.0397,6.931
5.016000,5.3169,4.7224,0.0902,7.112
5.021000,5.6801,4.6952,0.2467,7.374
5.026000,6.1456,4.5987,0.5513,7.695
5.033000,6.6771,4.3748,0.9288,8.036
5.036000,7.2313,4.0188,1.3443,8.382
5.041000,7.8201,3.6237,1.7082,8.787
5.046000,8.3860,3.2301,1.8934,9.184
5.051000,8.9193,2.9575,1.8597,9.579
5.057000,9.4608,2.8179,1.6775,10.013
5.062000,9.9714,2.8036,1.4102,10.454
5.067000,10.4388,2.8856,1.0804,10.884
5.128000,10.8074,3.0780,0.7085,11.259
5.128000,11.0813,3.3540,0.3531,11.583
5.129000,11.2530,3.7061,0.1056,11.848
5.129000,11.3316,4.0932,0.0186,12.048
5.130000,11.3649,4.4455,0.0960,12.204
5.130000,11.3716,4.7121,0.3149,12.313
5.130000,11.3871,4.8400,0.5855,12.387
5.131000,11.4564,4.8118,0.8850,12.457
5.131000,11.5716,4.6075,1.1547,12.509
5.131000,11.6848,4.2079,1.3368,12.491
5.132000,11.7553,3.6657,1.3617,12.389
5.132000,11.7862,3.0098,1.1893,12.222
5.133000,11.7566,2.2960,0.9066,12.013
5.141000,11.7292,1.5747,0.5145,11.846
5.142000,11.6816,0.8643,0.0578,11.714
5.148000,11.5830,0.2103,-0.4267,11.593
5.152000,11.4341,-0.3672,-0.9067,11.476
5.157000,11.2550,-0.8511,-1.3626,11.369
5.162000,11.0294,-1.2119,-1.8008,11.241
5.166000,10.7478,-1.4547,-2.1803,11.063
5.173000,10.4330,-1.5998,-2.4743,10.841
5.177000,10.0658,-1.6523,-2.6854,10.548
5.181000,9.6918,-1.6242,-2.8210,10.224
5.252000,9.3061,-1.5276,-2.8766,9.860
5.253000,8.9109,-1.3679,-2.8693,9.461
5.253000,8.5165,-1.1731,-2.7947,9.040
5.253000,8.1367,-0.9824,-2.6510,8.614
5.254000,7.7475,-0.8128,-2.4386,8.163
5.254000,7.3344,-0.6409,-2.1700,7.675
5.254000,6.9112,-0.4676,-1.8865,7.179
5.255000,6.4690,-0.2853,-1.6032,6.671
5.255000,5.9861,-0.1283,-1.3300,6.133
5.255000,5.5317,0.0008,-1.0794,5.636
5.256000,5.1109,0.0802,-0.8592,5.183
5.256000,4.7550,0.1052,-0.6846,4.805
5.257000,4.4493,0.0631,-0.5486,4.483
5.257000,4.1734,-0.0304,-0.4611,4.199
5.257000,3.9415,-0.1493,-0.4271,3.967
5.263000,3.7369,-0.2841,-0.4247,3.772
5.268000,3.5406,-0.4202,-0.4323,3.592
5.273000,3.3453,-0.5870,-0.4045,3.420
5.277000,3.1665,-0.7803,-0.3579,3.281
5.282000,2.9823,-0.9913,-0.2880,3.156
5.289000,2.8001,-1.1909,-0.2113,3.050
5.292000,2.6201,-1.3864,-0.1326,2.967
5.297000,2.4109,-1.5738,-0.0496,2.880
5.344000,2.1663,-1.7584,0.0242,2.790
5.345000,1.8836,-1.9503,0.0840,2.713
5.345000,1.5370,-2.1945,0.1399,2.683
5.346000,1.1673,-2.4685,0.2067,2.738
5.346000,0.8225,-2.7309,0.2493,2.863
5.346000,0.5308,-3.0016,0.3042,3.063
5.346000,0.3262,-3.2234,0.3479,3.258
5.347000,0.2130,-3.4094,0.3688,3.436
5.347000,0.1790,-3.5765,0.3718,3.600
5.347000,0.1832,-3.7198,0.3430,3.740
5.353000,0.1799,-3.8527,0.2824,3.867
5.357000,0.1693,-3.9683,0.2148,3.978
5.364000,0.1250,-4.0895,0.1641,4.095
5.368000,0.0586,-4.2307,0.1568,4.234
5.373000,-0.0223,-4.3465,0.1685,4.350
5.377000,-0.1251,-4.4740,0.2012,4.480
5.383000,-0.2255,-4.6282,0.2504,4.640
5.460000,-0.3282,-4.8146,0.2988,4.835
5.460000,-0.4620,-5.0406,0.2961,5.070
5.461000,-0.6149,-5.2768,0.2237,5.317
5.461000,-0.7916,-5.5253,0.1156,5.583
5.461000,-0.9875,-5.7867,-0.0061,5.870
5.462000,-1.1858,-6.0488,-0.1506,6.166
5.462000,-1.3771,-6.2957,-0.2866,6.451
5.462000,-1.5807,-6.5247,-0.4116,6.726
5.463000,-1.7725,-6.7287,-0.5470,6.980
5.463000,-1.9360,-6.9230,-0.6711,7.220
5.463000,-2.0736,-7.1414,-0.7868,7.478
5.464000,-2.1852,-7.3871,-0.8895,7.755
5.464000,-2.2588,-7.6601,-0.9653,8.044
5.465000,-2.3040,-7.9673,-1.0221,8.357
5.465000,-2.3445,-8.2976,-1.0862,8.691
5.465000,-2.4021,-8.6582,-1.1561,9.059
5.467000,-2.5032,-9.0258,-1.1980,9.443
5.473000,-2.6262,-9.3832,-1.1712,9.814
5.477000,-2.7785,-9.7395,-1.1001,10.188
5.482000,-2.9626,-10.0487,-1.0062,10.524
5.489000,-3.1643,-10.3330,-0.9179,10.846
5.493000,-3.3530,-10.6094,-0.8279,11.157
5.499000,-3.5265,-10.9120,-0.7093,11.490
5.502000,-3.6947,-11.2095,-0.5287,11.815
5.550000,-3.8721,-11.4873,-0.3535,12.128
5.551000,-4.0872,-11.6983,-0.2219,12.394
5.551000,-4.3287,-11.8405,-0.1202,12.608
5.552000,-4.5917,-11.9364,-0.0387,12.789
5.552000,-4.8908,-11.9810,0.0440,12.941
5.553000,-5.2165,-11.9787,0.0965,13.066
5.553000,-5.5786,-11.9390,0.1020,13.178
5.554000,-5.9963,-11.8501,0.0388,13.281
5.554000,-6.4175,-11.7295,-0.0673,13.371
5.554000,-6.8567,-11.5631,-0.1920,13.445
5.558000,-7.2663,-11.3769,-0.3092,13.503
5.564000,-7.5987,-11.1781,-0.4118,13.523
5.569000,-7.8110,-11.0219,-0.4494,13.517
5.573000,-7.9177,-10.9727,-0.4205,13.538
5.578000,-7.9142,-11.0832,-0.3277,13.623
5.583000,-7.8556,-11.3197,-0.2409,13.781
5.588000,-7.7995,-11.6390,-0.1793,14.012
5.593000,-7.8274,-11.9354,-0.1812,14.274
5.602000,-7.9296,-12.1436,-0.2450,14.505
5.603000,-8.0871,-12.2469,-0.2912,14.679
5.608000,-8.3024,-12.2952,-0.2892,14.839
5.614000,-8.5299,-12.3361,-0.2444,15.000
5.619000,-8.7288,-12.3499,-0.1648,15.124
5.696000,-8.8730,-12.3147,-0.0819,15.179
5.697000,-8.9453,-12.2096,-0.0164,15.136
5.698000,-8.9216,-12.0248,-0.0145,14.973
5.698000,-8.7730,-11.7537,-0.1152,14.667
5.698000,-8.5279,-11.4780,-0.3358,14.303
5.699000,-8.2172,-11.2166,-0.6642,13.920
5.699000,-7.8403,-10.9539,-1.0454,13.511
5.700000,-7.3756,-10.6537,-1.4095,13.034
5.700000,-6.8276,-10.3307,-1.7748,12.510
5.701000,-6.2245,-10.0169,-2.1262,11.983
5.701000,-5.5684,-9.7264,-2.4440,11.471
5.702000,-4.8777,-9.4426,-2.7297,10.973
5.702000,-4.1427,-9.2013,-2.9878,10.524
5.703000,-3.3558,-8.9697,-3.1724,10.089
5.703000,-2.5310,-8.7706,-3.2521,9.690
5.703000,-1.6656,-8.6406,-3.2460,9.379
5.704000,-0.7883,-8.5772,-3.1423,9.169
5.708000,0.0774,-8.6119,-2.9527,9.104
5.715000,0.8503,-8.7468,-2.6849,9.189
5.719000,1.4541,-8.9796,-2.3296,9.390
5.726000,1.9178,-9.2571,-1.9517,9.653
5.728000,2.2775,-9.5133,-1.5708,9.907
5.732000,2.5621,-9.7640,-1.1547,10.160
5.790000,2.7695,-10.0122,-0.6723,10.410
5.792000,2.9336,-10.2619,-0.1165,10.674
5.795000,3.0403,-10.4813,0.4624,10.923
5.796000,3.1262,-10.6588,1.0499,11.157
5.796000,3.2535,-10.7459,1.5804,11.338
5.797000,3.4419,-10.7002,2.0279,11.422
5.797000,3.6773,-10.4671,2.3623,11.343
5.797000,3.9694,-10.0517,2.6092,11.118
5.798000,4.3252,-9.4646,2.8010,10.776
5.798000,4.7162,-8.7200,2.9462,10.342
5.798000,5.1316,-7.8674,3.0828,9.886
5.798000,5.5639,-6.9215,3.2331,9.451
5.800000,5.9957,-5.9295,3.4003,9.092
5.804000,6.3759,-4.9241,3.5969,8.823
5.808000,6.7139,-3.9464,3.7987,8.665
5.813000,7.0029,-2.9858,4.0275,8.613
5.818000,7.2141,-2.0732,4.2585,8.630
5.823000,7.3133,-1.1858,4.4743,8.655
5.828000,7.3069,-0.3624,4.6817,8.686
5.833000,7.1998,0.3736,4.8631,8.696
5.839000,7.0022,1.0387,4.9818,8.656
5.844000,6.7168,1.6172,4.9937,8.525
5.847000,6.4056,2.1141,4.8909,8.332
5.923000,6.1018,2.5392,4.6701,8.093
5.925000,5.8317,2.8735,4.3568,7.826
5.926000,5.6026,3.1157,3.9526,7.531
5.929000,5.4399,3.2696,3.4378,7.218
5.930000,5.3298,3.3368,2.8051,6.885
5.931000,5.2672,3.3419,2.0982,6.581
5.934000,5.2212,3.3480,1.3582,6.349
5.935000,5.1707,3.4066,0.6388,6.225
5.938000,5.0862,3.4885,-0.0427,6.168
5.941000,4.9754,3.5520,-0.6188,6.144
5.941000,4.8579,3.6454,-1.0823,6.169
5.943000,4.7601,3.7860,-1.4284,6.248
5.944000,4.6873,3.9290,-1.6263,6.329
5.944000,4.6319,4.1143,-1.7316,6.433
5.945000,4.5490,4.3189,-1.7830,6.521
5.945000,4.4866,4.5594,-1.7639,6.635
5.946000,4.3897,4.8094,-1.6559,6.719
5.947000,4.2870,5.0331,-1.4644,6.772
5.947000,4.1574,5.2305,-1.2090,6.790
5.948000,4.0264,5.3843,-0.8907,6.782
5.954000,3.8849,5.4995,-0.5576,6.756
5.959000,3.7424,5.5881,-0.2078,6.729
5.965000,3.6110,5.6333,0.1128,6.692
5.969000,3.4933,5.6547,0.3850,6.658
5.974000,3.3745,5.6424,0.5872,6.601
5.978000,3.2622,5.6042,0.7006,6.522
5.984000,3.1685,5.5451,0.7234,6.427
6.049000,3.1057,5.4657,0.6608,6.321
6.053000,3.0692,5.3689,0.5473,6.208
6.054000,3.1064,5.2617,0.4505,6.127
6.055000,3.2126,5.1540,0.3419,6.083
6.056000,3.3687,5.0651,0.2409,6.088
6.057000,3.5551,4.9636,0.1574,6.107
6.058000,3.7788,4.8854,0.0983,6.177
6.059000,4.0494,4.8136,0.0469,6.291
6.060000,4.3374,4.7452,0.0028,6.429
6.061000,4.6071,4.6566,-0.0337,6.551
6.062000,4.8608,4.5501,-0.0628,6.658
6.063000,5.0604,4.3901,-0.0483,6.699
6.064000,5.2256,4.2104,-0.0309,6.711
6.065000,5.3753,4.0781,-0.0655,6.748
6.066000,5.4910,4.0126,-0.1279,6.802
6.067000,5.5873,4.0119,-0.1915,6.881
6.071000,5.6764,4.0974,-0.2512,7.005
6.074000,5.7391,4.2811,-0.2735,7.165
6.080000,5.7894,4.5483,-0.2583,7.367
6.086000,5.8463,4.8794,-0.2130,7.618
6.091000,5.9262,5.2169,-0.1140,7.896
6.095000,6.0529,5.5484,0.0764,8.211
6.098000,6.3118,5.7920,0.3928,8.576
6.169000,6.7602,5.8517,0.8002,8.977
6.170000,7.3443,5.6526,1.1964,9.345
6.171000,7.9632,5.2281,1.4396,9.634
6.171000,8.5519,4.6810,1.4557,9.857
6.172000,9.0766,4.1263,1.3270,10.058
6.172000,9.4633,3.6263,0.9805,10.182
6.173000,9.7695,3.1814,0.5449,10.289
6.173000,10.0076,2.7684,0.1029,10.384
6.173000,10.2236,2.3901,-0.3207,10.504
6.174000,10.4731,2.0113,-0.6845,10.686
6.174000,10.7849,1.6538,-0.9782,10.955
6.174000,11.1422,1.3202,-1.1921,11.283
6.175000,11.4589,1.0439,-1.3568,11.586
6.175000,11.7229,0.8727,-1.4985,11.850
6.176000,11.9221,0.8875,-1.5955,12.061
6.180000,12.0468,1.0642,-1.6120,12.201
6.185000,12.0846,1.3253,-1.5125,12.251
6.190000,12.0736,1.6296,-1.2816,12.250
6.195000,12.0444,1.8997,-0.9348,12.229
6.199000,12.0112,2.0944,-0.5240,12.204
6.206000,11.9879,2.2034,-0.1081,12.189
6.210000,11.9381,2.2260,0.2569,12.147
6.217000,11.8430,2.1910,0.5341,12.056
6.219000,11.6857,2.1194,0.7210,11.898
6.289000,11.4518,1.9777,0.8297,11.651
6.291000,11.1587,1.7852,0.8745,11.334
6.291000,10.8261,1.5399,0.8891,10.971
6.292000,10.4852,1.2346,0.8669,10.593
6.292000,10.1301,0.8801,0.8202,10.201
6.295000,9.7252,0.5099,0.7067,9.764
6.295000,9.3214,0.1918,0.5012,9.337
6.296000,8.9310,-0.0380,0.2502,8.935
6.296000,8.5439,-0.2228,-0.0452,8.547
6.297000,8.1566,-0.3615,-0.3264,8.171
6.297000,7.7713,-0.4350,-0.5690,7.804
6.299000,7.3927,-0.4552,-0.7844,7.448
6.299000,7.0019,-0.3958,-0.9601,7.078
6.300000,6.6053,-0.2695,-1.0484,6.693
6.300000,6.2018,-0.1041,-1.0568,6.292
6.301000,5.8004,0.1139,-1.0100,5.889
6.305000,5.4059,0.3506,-0.9255,5.496
6.311000,5.0328,0.6031,-0.8279,5.136
6.315000,4.6808,0.8208,-0.6898,4.802
6.319000,4.3473,0.9931,-0.5335,4.491
6.325000,4.0188,1.0896,-0.3767,4.181
6.329000,3.6926,1.1216,-0.1965,3.864
6.335000,3.3930,1.0984,-0.0271,3.566
6.397000,3.1296,0.9937,0.1070,3.285
6.398000,2.9144,0.8046,0.2124,3.031
6.398000,2.7749,0.5257,0.2438,2.835
6.399000,2.6845,0.1949,0.2017,2.699
6.399000,2.6050,-0.1515,0.1040,2.611
6.399000,2.5102,-0.4535,-0.0054,2.551
6.400000,2.4261,-0.6688,-0.1091,2.519
6.400000,2.3007,-0.8534,-0.1871,2.461
6.400000,2.1219,-1.0775,-0.2201,2.390
6.401000,1.8708,-1.3720,-0.1935,2.328
6.401000,1.5812,-1.7268,-0.1336,2.345
6.401000,1.2343,-2.1105,-0.0854,2.446
6.402000,0.8945,-2.4825,-0.0608,2.639
6.404000,0.6155,-2.8335,0.0056,2.900
6.411000,0.4543,-3.1904,0.0989,3.224
6.414000,0.4083,-3.5436,0.0757,3.568
6.422000,0.4679,-3.8930,-0.0008,3.921
6.425000,0.5413,-4.2378,-0.1041,4.273
6.429000,0.5431,-4.5519,-0.2478,4.591
6.434000,0.4468,-4.8077,-0.4125,4.846
6.500000,0.2572,-5.0529,-0.5430,5.089
6.501000,-0.0014,-5.2779,-0.6517,5.318
6.501000,-0.3073,-5.5217,-0.7391,5.579
6.501000,-0.6241,-5.7675,-0.8084,5.857
6.502000,-0.9515,-6.0089,-0.8770,6.147
6.502000,-1.2465,-6.2288,-0.9407,6.422
6.503000,-1.5280,-6.4299,-1.0095,6.686
6.503000,-1.8033,-6.6454,-1.0742,6.969
6.504000,-2.0890,-6.8863,-1.1521,7.288
6.504000,-2.3945,-7.1760,-1.1953,7.659
6.504000,-2.7197,-7.5199,-1.2255,8.090
6.505000,-3.0456,-7.8816,-1.2429,8.541
6.505000,-3.3793,-8.2772,-1.2594,9.029
6.508000,-3.7114,-8.6687,-1.2558,9.513
6.509000,-4.0563,-9.0650,-1.2490,10.009
6.515000,-4.4262,-9.4470,-1.2367,10.506
6.521000,-4.7805,-9.7969,-1.2142,10.968
6.524000,-5.0982,-10.0829,-1.1862,11.361
6.532000,-5.3603,-10.3337,-1.1550,11.698
6.536000,-5.5388,-10.5254,-1.1132,11.946
6.544000,-5.6486,-10.6707,-1.0416,12.118
6.546000,-5.6708,-10.7696,-0.9520,12.209
6.550000,-5.6179,-10.8201,-0.8420,12.221
6.603000,-5.4996,-10.8566,-0.7328,12.192
6.605000,-5.3502,-10.8737,-0.6331,12.135
6.607000,-5.1650,-10.8629,-0.5760,12.042
6.608000,-4.9683,-10.8298,-0.5487,11.928
6.609000,-4.7937,-10.8034,-0.5436,11.832
6.610000,-4.6487,-10.7725,-0.5554,11.746
6.612000,-4.5669,-10.7232,-0.6312,11.672
6.613000,-4.5510,-10.6714,-0.7726,11.627
6.614000,-4.6179,-10.6126,-0.9575,11.613
6.615000,-4.7416,-10.5181,-1.1493,11.595
6.617000,-4.9031,-10.3828,-1.3909,11.566
6.621000,-5.1143,-10.1785,-1.6436,11.509
6.623000,-5.3253,-9.9332,-1.9025,11.430
6.624000,-5.5239,-9.6904,-2.1226,11.354
6.625000,-5.6862,-9.4982,-2.3114,11.309
6.630000,-5.7689,-9.4039,-2.4316,11.297
6.636000,-5.7649,-9.4505,-2.4817,11.345
6.643000,-5.6861,-9.6783,-2.4433,11.488
6.646000,-5.5849,-10.0195,-2.3705,11.713
6.651000,-5.5092,-10.4118,-2.2708,11.996
6.715000,-5.5354,-10.7519,-2.1686,12.286
6.716000,-5.6658,-10.9726,-2.0356,12.516
6.716000,-5.8500,-11.0903,-1.8747,12.678
6.717000,-6.0662,-11.1167,-1.6989,12.778
6.717000,-6.2690,-11.1112,-1.5325,12.849
6.718000,-6.4629,-11.0735,-1.4073,12.899
6.718000,-6.6120,-11.0010,-1.2786,12.899
6.718000,-6.6875,-10.9004,-1.1300,12.838
6.719000,-6.6867,-10.7843,-1.0032,12.729
6.719000,-6.6621,-10.6642,-0.9317,12.609
6.720000,-6.6232,-10.5183,-0.9610,12.467
6.720000,-6.5460,-10.3083,-1.0905,12.260
6.721000,-6.3705,-10.0122,-1.2818,11.936
6.721000,-6.0179,-9.6563,-1.4888,11.475
6.725000,-5.5237,-9.2782,-1.6630,10.925
6.731000,-4.9022,-8.9455,-1.7776,10.354
6.736000,-4.1818,-8.6734,-1.8351,9.802
6.741000,-3.3624,-8.4607,-1.8351,9.287
6.745000,-2.4916,-8.2910,-1.7918,8.841
6.749000,-1.6002,-8.1695,-1.7216,8.501
6.798000,-0.7338,-8.1035,-1.6315,8.299
6.799000,0.0361,-8.1058,-1.5071,8.245
6.800000,0.6954,-8.2029,-1.3480,8.342
6.804000,1.2227,-8.4060,-1.1402,8.571
6.806000,1.6516,-8.6711,-0.9145,8.874
6.807000,2.0231,-8.9465,-0.7121,9.200
6.807000,2.3350,-9.1982,-0.5496,9.506
6.808000,2.5852,-9.3850,-0.4126,9.743
6.808000,2.7525,-9.5061,-0.2938,9.901
6.809000,2.8324,-9.5053,-0.1572,9.920
6.809000,2.8561,-9.3863,-0.0116,9.811
6.810000,2.8337,-9.1480,0.1335,9.578
6.816000,2.8156,-8.7879,0.2951,9.233
6.828000,2.8236,-8.2944,0.4524,8.774
6.829000,2.8723,-7.6933,0.5864,8.233
6.833000,2.9945,-6.9994,0.7223,7.647
6.902000,3.1759,-6.2344,0.8343,7.046
6.903000,3.3800,-5.4259,0.9328,6.460
6.904000,3.5970,-4.5561,1.0276,5.895
6.904000,3.8072,-3.6907,1.1410,5.424
6.905000,3.9961,-2.8440,1.2537,5.063
6.905000,4.1527,-2.0410,1.3829,4.829
6.906000,4.2722,-1.2933,1.5116,4.713
6.906000,4.3757,-0.6040,1.6492,4.715
6.907000,4.4411,0.0214,1.7593,4.777
6.907000,4.4611,0.6050,1.8537,4.869
6.907000,4.4347,1.1229,1.9296,4.965
6.908000,4.3523,1.5737,1.9744,5.032
6.908000,4.2043,1.9551,1.9856,5.044
6.908000,4.0169,2.2507,1.9482,5.000
6.909000,3.8195,2.5144,1.8789,4.944
6.912000,3.6494,2.7499,1.7961,4.910
6.917000,3.4880,2.9534,1.6564,4.861
6.924000,3.3140,3.1469,1.4739,4.802
6.927000,3.1321,3.3000,1.2559,4.720
6.931000,2.9573,3.4233,1.0742,4.650
6.939000,2.8105,3.5280,0.9548,4.611
6.942000,2.7233,3.6198,0.8638,4.611
6.946000,2.6815,3.7252,0.7697,4.654
6.950000,2.6707,3.8589,0.6559,4.739
7.017000,2.6791,3.9974,0.5295,4.841
7.018000,2.7180,4.1541,0.4360,4.983
7.018000,2.7565,4.2841,0.3706,5.108
7.018000,2.7585,4.4257,0.3120,5.224
7.019000,2.7625,4.5720,0.2602,5.348
7.019000,2.7587,4.7157,0.2559,5.469
7.019000,2.7308,4.8551,0.2682,5.577
7.020000,2.6900,4.9799,0.2851,5.667
7.020000,2.6558,5.1098,0.3356,5.768
7.021000,2.6353,5.2328,0.4316,5.875
7.021000,2.6571,5.3202,0.5443,5.972
7.021000,2.6951,5.4059,0.6591,6.076
7.022000,2.7582,5.4652,0.7567,6.168
7.022000,2.8036,5.5200,0.8323,6.247
7.027000,2.8312,5.5297,0.8932,6.276
7.032000,2.9203,5.5784,0.9180,6.363
7.036000,3.0205,5.6017,0.9236,6.431
7.043000,3.1433,5.6040,0.9673,6.498
7.046000,3.2676,5.5831,1.0179,6.549
7.051000,3.4195,5.5463,1.0874,6.606
7.056000,3.5823,5.5034,1.1806,6.672
7.061000,3.7516,5.4115,1.2971,6.711
7.066000,3.9362,5.2987,1.4129,6.750
7.143000,4.1390,5.1822,1.5062,6.801
7.144000,4.3765,5.0787,1.5699,6.886
7.144000,4.6513,4.9500,1.6135,6.981
7.145000,4.9487,4.8368,1.6492,7.114
7.145000,5.2571,4.7060,1.6702,7.251
7.145000,5.5400,4.5642,1.6860,7.373
7.146000,5.8266,4.4552,1.6993,7.529
7.146000,6.1073,4.3979,1.7055,7.717
7.147000,6.3819,4.3779,1.7263,7.929
7.147000,6.6363,4.4170,1.7785,8.168
7.147000,6.8435,4.5096,1.8118,8.394
7.148000,6.9773,4.6727,1.8167,8.592
7.148000,7.0637,4.9058,1.8247,8.792
7.148000,7.1172,5.1875,1.8308,8.995
7.149000,7.1830,5.4888,1.8829,9.234
7.149000,7.3276,5.7159,2.0806,9.523
7.153000,7.6081,5.7847,2.4776,9.873
7.157000,8.0264,5.5729,2.9906,10.219
7.162000,8.5151,5.0991,3.4242,10.499
7.168000,8.9737,4.4903,3.5722,10.651
7.172000,9.3112,3.9285,3.3878,10.659
7.176000,9.5276,3.5192,2.9065,10.564
7.181000,9.6137,3.2893,2.1929,10.395
7.231000,9.6202,3.1798,1.3956,10.228
7.232000,9.6120,3.1865,0.6744,10.149
7.233000,9.6300,3.2524,0.1834,10.166
7.233000,9.7077,3.3178,-0.0514,10.259
7.233000,9.8403,3.3729,-0.1170,10.403
7.234000,9.9964,3.3934,-0.0525,10.557
7.234000,10.1231,3.3789,0.1414,10.673
7.235000,10.2174,3.3262,0.4467,10.754
7.235000,10.2721,3.1798,0.8475,10.786
7.235000,10.2705,2.9057,1.2661,10.748
7.239000,10.2415,2.4945,1.5935,10.661
7.242000,10.2193,1.9848,1.7746,10.560
7.247000,10.2549,1.4323,1.8262,10.514
7.253000,10.3414,0.8733,1.7607,10.527
7.258000,10.4722,0.3516,1.6462,10.607
7.264000,10.6135,-0.1211,1.5141,10.722
7.268000,10.7610,-0.5155,1.3553,10.858
7.274000,10.8860,-0.8317,1.2086,10.984
7.276000,10.9982,-1.0720,1.1435,11.109
7.282000,11.0960,-1.2000,1.1408,11.219
7.359000,11.1361,-1.1778,1.1623,11.258
7.360000,11.1494,-0.9699,1.2272,11.259
7.360000,11.0637,-0.6392,1.3258,11.161
7.361000,10.8760,-0.2464,1.5035,10.982
7.361000,10.5794,0.2009,1.7663,10.728
7.362000,10.2069,0.6684,2.0658,10.435
7.362000,9.7704,1.1434,2.3820,10.121
7.362000,9.2934,1.5894,2.6739,9.800
7.363000,8.8048,1.9774,2.9244,9.486
7.363000,8.3112,2.2995,3.1022,9.164
7.364000,7.8205,2.5421,3.1840,8.818
7.364000,7.2965,2.7213,3.1819,8.412
7.364000,6.7898,2.8804,3.0984,8.000
7.365000,6.3123,3.0095,2.9076,7.573
7.365000,5.8517,3.0771,2.6339,7.117
7.365000,5.4377,3.0458,2.3159,6.649
7.368000,5.0629,2.9201,1.9538,6.163
7.373000,4.7563,2.7193,1.5430,5.692
7.377000,4.4751,2.4628,1.0816,5.221
7.383000,4.2025,2.1622,0.6106,4.765
7.391000,3.9254,1.8124,0.1715,4.327
7.392000,3.6413,1.4392,-0.2068,3.921
7.397000,3.3484,1.0816,-0.5075,3.555
7.401000,3.0684,0.7230,-0.7332,3.237
7.457000,2.8307,0.3807,-0.8840,2.990
7.458000,2.6111,0.0299,-0.9821,2.790
7.458000,2.3747,-0.3178,-1.0344,2.610
7.458000,2.1190,-0.6681,-1.0388,2.453
7.458000,1.8416,-0.9851,-0.9953,2.314
7.459000,1.5356,-1.3094,-0.9208,2.218
7.459000,1.2055,-1.6251,-0.8415,2.191
7.460000,0.8641,-1.9277,-0.7761,2.251
7.460000,0.5159,-2.2230,-0.7507,2.402
7.460000,0.1801,-2.5154,-0.7459,2.630
7.461000,-0.1410,-2.8191,-0.7518,2.921
7.461000,-0.4376,-3.1362,-0.7848,3.262
7.468000,-0.7151,-3.4317,-0.8397,3.605
7.473000,-0.9896,-3.7417,-0.9085,3.976
7.477000,-1.2925,-4.0404,-0.9937,4.357
7.482000,-1.6118,-4.3395,-1.0541,4.748
7.489000,-1.9306,-4.6264,-1.0755,5.127
7.492000,-2.2299,-4.9066,-1.0699,5.495
7.497000,-2.5307,-5.1942,-1.0520,5.873
7.501000,-2.7901,-5.4994,-1.0101,6.249
7.554000,-3.0151,-5.7856,-0.9758,6.597
7.555000,-3.1701,-6.0526,-0.9467,6.898
7.555000,-3.2767,-6.3131,-0.9424,7.175
7.555000,-3.2940,-6.5576,-0.9633,7.401
7.556000,-3.2487,-6.7894,-0.9976,7.592
7.556000,-3.1241,-6.9822,-1.0790,7.725
7.557000,-2.9493,-7.1552,-1.1908,7.830
7.557000,-2.7603,-7.3313,-1.2852,7.938
7.557000,-2.5715,-7.5090,-1.3529,8.052
7.558000,-2.3781,-7.7061,-1.3677,8.180
7.558000,-2.1803,-7.9375,-1.3776,8.346
7.564000,-1.9877,-8.2058,-1.3590,8.552
7.567000,-1.7930,-8.5088,-1.3333,8.797
7.573000,-1.6297,-8.8715,-1.3080,9.114
7.577000,-1.5099,-9.2731,-1.2710,9.481
7.583000,-1.4574,-9.6782,-1.2341,9.865
7.591000,-1.4794,-10.0844,-1.1808,10.260
7.596000,-1.5687,-10.4913,-1.1372,10.669
7.597000,-1.7325,-10.9041,-1.0982,11.095
7.603000,-1.9471,-11.2941,-1.0565,11.509
7.667000,-2.1985,-11.6641,-0.9971,11.911
7.668000,-2.5013,-12.0110,-0.9795,12.308
7.669000,-2.8175,-12.2769,-1.0175,12.637
7.669000,-3.1428,-12.4647,-1.1362,12.905
7.670000,-3.5066,-12.5365,-1.3088,13.083
7.670000,-3.9305,-12.5143,-1.5179,13.205
7.671000,-4.3742,-12.3885,-1.7248,13.251
7.671000,-4.8547,-12.1973,-1.8889,13.263
7.671000,-5.2834,-12.0169,-1.9816,13.276
7.672000,-5.6128,-11.9339,-1.9672,13.334
7.672000,-5.8048,-12.0375,-1.8448,13.491
7.673000,-5.8452,-12.3752,-1.6366,13.784
7.673000,-5.7581,-12.8578,-1.3913,14.157
7.674000,-5.6275,-13.3413,-1.2222,14.531
7.679000,-5.5444,-13.7110,-1.1001,14.830
7.683000,-5.5854,-13.8995,-1.0353,15.015
7.688000,-5.7910,-13.8882,-0.9749,15.079
7.692000,-6.1181,-13.7272,-0.8883,15.055
7.697000,-6.4636,-13.5243,-0.7423,15.008
7.702000,-6.7463,-13.4324,-0.5278,15.041
7.708000,-6.9206,-13.4892,-0.3013,15.164
7.714000,-6.9866,-13.6629,-0.1374,15.346
7.719000,-6.9683,-13.8382,-0.1159,15.494
7.726000,-6.8943,-13.8616,-0.3116,15.485
7.728000,-6.7526,-13.6687,-0.6647,15.260
7.732000,-6.5934,-13.2836,-1.1802,14.877
7.779000,-6.4306,-12.7981,-1.7932,14.435
7.780000,-6.2379,-12.3172,-2.4220,14.017
7.781000,-5.9792,-11.8981,-2.9945,13.649
7.781000,-5.6068,-11.5310,-3.5060,13.293
7.782000,-5.1203,-11.2110,-3.9563,12.944
7.782000,-4.4595,-10.9014,-4.3475,12.555
7.783000,-3.6529,-10.5573,-4.6989,12.119
7.783000,-2.7504,-10.1656,-5.0314,11.671
7.784000,-1.7852,-9.7398,-5.3062,11.234
7.784000,-0.8097,-9.3169,-5.4536,10.826
7.787000,0.1861,-8.9191,-5.4447,10.451
7.793000,1.1450,-8.5831,-5.2628,10.133
7.799000,2.0145,-8.3250,-4.9244,9.880
7.804000,2.6799,-8.1677,-4.5063,9.706
7.810000,3.0674,-8.1474,-3.9320,9.552
7.813000,3.2059,-8.1962,-3.2028,9.365
7.818000,3.1054,-8.2596,-2.4868,9.168
7.823000,2.7543,-8.3597,-1.7771,8.979
7.828000,2.2413,-8.4829,-1.0570,8.837
7.832000,1.6623,-8.5755,-0.3383,8.742
7.898000,1.0678,-8.5899,0.3695,8.664
7.899000,0.4698,-8.5340,1.0459,8.611
7.899000,-0.1123,-8.3776,1.6340,8.536
7.900000,-0.6378,-8.1202,2.1393,8.421
7.900000,-1.0992,-7.7519,2.5694,8.240
7.901000,-1.4651,-7.3003,2.8938,7.988
7.901000,-1.7119,-6.7818,3.1349,7.665
7.901000,-1.8369,-6.2270,3.2766,7.272
7.902000,-1.8020,-5.6460,3.3654,6.815
7.902000,-1.6218,-5.0491,3.3947,6.297
7.903000,-1.2941,-4.4544,3.3557,5.725
7.903000,-0.8310,-3.8478,3.2704,5.118
7.903000,-0.2841,-3.2426,3.1323,4.517
7.903000,0.3203,-2.6513,2.9652,3.991
7.909000,0.9360,-2.0872,2.7473,3.575
7.913000,1.5053,-1.5609,2.5240,3.328
7.919000,2.0210,-1.0603,2.2828,3.228
7.924000,2.4746,-0.6191,2.0306,3.260
7.928000,2.8735,-0.2394,1.7647,3.381
7.933000,3.2174,0.1052,1.4534,3.532
8.002000,3.4678,0.4121,1.0990,3.661
8.003000,3.6081,0.6752,0.7493,3.746
8.004000,3.6257,0.8455,0.4473,3.750
8.004000,3.5190,0.9390,0.2024,3.648
8.004000,3.3265,0.9786,0.0337,3.468
8.004000,3.3934,0.9795,-0.0493,3.532
8.005000,2.8803,0.9787,-0.0612,3.043
8.005000,2.7717,1.0349,-0.0263,2.959
8.005000,2.7507,1.1440,0.0379,2.979
8.006000,2.8203,1.2759,0.1310,3.098
8.006000,2.9755,1.4326,0.2214,3.310
8.006000,3.1756,1.5995,0.3377,3.572
8.007000,3.3992,1.7796,0.4344,3.861
8.007000,3.6213,1.9904,0.4898,4.161
8.015000,3.8303,2.2325,0.5164,4.463
8.016000,4.0593,2.5296,0.5646,4.816
8.019000,4.2770,2.8456,0.6179,5.174
8.024000,4.5122,3.1689,0.6623,5.553
8.028000,4.7706,3.4835,0.6952,5.948
8.033000,5.0548,3.7782,0.7604,6.356
8.039000,5.3285,4.0575,0.8220,6.748
8.044000,5.5605,4.3383,0.9019,7.110
8.048000,5.7408,4.6156,1.0554,7.441
8.118000,5.8746,4.8781,1.2708,7.741
8.119000,5.9921,5.1225,1.5309,8.030
8.120000,6.1534,5.3730,1.8666,8.380
8.121000,6.3628,5.6175,2.2725,8.787
8.123000,6.6007,5.8436,2.6904,9.217
8.123000,6.8482,6.0323,3.1005,9.638
8.124000,7.1066,6.1755,3.4755,10.036
8.125000,7.3688,6.3142,3.7865,10.417
8.126000,7.6083,6.4340,4.0305,10.748
8.127000,7.8276,6.5351,4.2172,11.035
8.128000,8.0145,6.6079,4.3537,11.263
8.129000,8.1766,6.6506,4.4710,11.449
8.130000,8.2201,6.6603,4.5472,11.515
8.130000,8.4611,6.6496,4.5730,11.693
8.131000,8.5768,6.6043,4.5579,11.745
8.133000,8.6679,6.5511,4.4949,11.758
8.133000,8.7273,6.5477,4.3773,11.756
8.139000,8.7523,6.6007,4.2456,11.756
8.145000,8.7546,6.7031,4.0977,11.763
8.149000,8.7414,6.8189,3.9194,11.759
8.153000,8.6887,6.9312,3.7202,11.721
8.159000,8.6133,7.0259,3.5096,11.656
8.163000,8.5364,7.0788,3.3189,11.576
8.169000,8.5130,7.0996,3.1791,11.532
8.252000,8.5764,7.0308,3.1259,11.522
8.254000,8.7408,6.7720,3.1703,11.503
8.256000,8.9775,6.2395,3.2542,11.407
8.257000,9.2273,5.4795,3.2672,11.218
8.259000,9.4713,4.6527,3.0976,10.998
8.260000,9.6526,3.9225,2.7179,10.768
8.261000,9.7787,3.3658,2.1564,10.564
8.262000,9.8334,2.9809,1.4992,10.384
8.264000,9.8171,2.7824,0.8578,10.240
8.265000,9.7924,2.7757,0.3009,10.183
8.265000,9.7878,2.9439,-0.0800,10.221
8.266000,9.8103,3.2172,-0.2470,10.327
8.267000,9.8809,3.4779,-0.1413,10.476
8.269000,9.9824,3.6605,0.2067,10.634
8.271000,10.0642,3.6879,0.7063,10.742
8.271000,10.1186,3.5761,1.2527,10.805
8.273000,10.1096,3.3988,1.7417,10.807
8.274000,10.0325,3.1627,2.0693,10.721
8.274000,9.8730,2.8631,2.1973,10.512
8.274000,9.6173,2.5026,2.1286,10.163
8.275000,9.3385,2.0945,1.9332,9.764
8.279000,9.0780,1.6729,1.6862,9.384
8.285000,8.9008,1.2935,1.4194,9.106
8.290000,8.8311,0.9996,1.1358,8.960
8.293000,8.8085,0.7836,0.8216,8.881
8.299000,8.7999,0.6484,0.5177,8.839
8.358000,8.7998,0.5907,0.2744,8.824
8.359000,8.7388,0.5672,0.0746,8.757
8.360000,8.6215,0.5610,-0.0697,8.640
8.360000,8.4838,0.5645,-0.1828,8.504
8.361000,8.3502,0.5424,-0.2600,8.372
8.361000,8.2014,0.5089,-0.3299,8.224
8.361000,8.0517,0.5188,-0.3634,8.077
8.362000,7.8912,0.5456,-0.3986,7.920
8.362000,7.6884,0.5936,-0.4234,7.723
8.362000,7.4633,0.6657,-0.3873,7.503
8.363000,7.2009,0.7398,-0.3384,7.247
8.363000,6.9109,0.8395,-0.2628,6.967
8.364000,6.6199,0.9240,-0.1874,6.687
8.370000,6.2991,0.9977,-0.1199,6.379
8.374000,5.9558,1.0484,-0.0775,6.048
8.379000,5.6149,1.0770,-0.0795,5.718
8.385000,5.2835,1.0784,-0.0856,5.393
8.389000,4.9761,1.0503,-0.0698,5.086
8.393000,4.7100,1.0000,-0.0469,4.815
8.399000,4.4919,0.9415,-0.0269,4.590
8.453000,4.3373,0.8448,0.0286,4.419
8.454000,4.2720,0.7525,0.1168,4.339
8.455000,4.2793,0.6428,0.2330,4.334
8.455000,4.3254,0.5299,0.3485,4.372
8.455000,4.3504,0.3988,0.4707,4.394
8.456000,4.3012,0.2870,0.5947,4.352
8.456000,4.1907,0.2024,0.7545,4.263
8.456000,4.0087,0.1417,0.9501,4.122
8.457000,3.7795,-0.0055,1.1625,3.954
8.457000,3.4910,-0.2439,1.3564,3.753
8.457000,3.1481,-0.5811,1.4869,3.530
8.460000,2.7755,-0.9648,1.4840,3.292
8.465000,2.4089,-1.3687,1.3681,3.090
8.471000,2.0697,-1.7708,1.1836,2.970
8.474000,1.8225,-2.1707,0.9842,3.000
8.479000,1.6763,-2.5621,0.7606,3.155
8.484000,1.5381,-2.9314,0.4975,3.348
8.490000,1.4074,-3.2844,0.2314,3.581
8.495000,1.2482,-3.6622,-0.0562,3.870
8.499000,1.0102,-4.0384,-0.3644,4.179
8.569000,0.6889,-4.4268,-0.6307,4.524
8.570000,0.2653,-4.8374,-0.8524,4.919
8.571000,-0.2114,-5.2673,-1.0044,5.366
8.571000,-0.7097,-5.6807,-1.0970,5.829
8.571000,-1.2004,-6.0767,-1.1530,6.300
8.572000,-1.6495,-6.4451,-1.1949,6.759
8.572000,-2.0427,-6.7840,-1.2379,7.192
8.573000,-2.3816,-7.0981,-1.2814,7.596
8.573000,-2.6781,-7.3977,-1.3145,7.977
8.573000,-2.9153,-7.6487,-1.3650,8.298
8.574000,-3.0930,-7.8558,-1.4245,8.562
8.574000,-3.2044,-8.0173,-1.5251,8.768
8.574000,-3.2419,-8.1457,-1.6324,8.918
8.575000,-3.2058,-8.2686,-1.7444,9.038
8.575000,-3.1419,-8.4197,-1.8710,9.179
8.580000,-3.0958,-8.6040,-1.9859,9.357
8.585000,-3.0509,-8.7893,-2.0673,9.531
8.589000,-3.0504,-8.9691,-2.0917,9.702
8.596000,-3.1039,-9.1588,-2.0663,9.889
8.600000,-3.1970,-9.3821,-2.0009,10.112
8.607000,-3.3179,-9.6505,-1.9216,10.384
8.610000,-3.4453,-9.9515,-1.8374,10.690
8.614000,-3.5841,-10.2496,-1.8027,11.007
8.690000,-3.7517,-10.5090,-1.7970,11.302
8.692000,-3.9437,-10.7112,-1.7643,11.550
8.692000,-4.1843,-10.8632,-1.7085,11.766
8.692000,-4.4451,-10.9838,-1.6264,11.960
8.693000,-4.7335,-11.0494,-1.5321,12.118
8.693000,-5.0167,-11.0583,-1.4391,12.228
8.694000,-5.2924,-11.0016,-1.3636,12.284
8.694000,-5.5682,-10.9009,-1.3078,12.310
8.694000,-5.8443,-10.7323,-1.2735,12.287
8.695000,-6.1282,-10.5173,-1.2650,12.238
8.695000,-6.4009,-10.2923,-1.2727,12.187
8.696000,-6.6579,-10.0468,-1.2986,12.122
8.696000,-6.8923,-9.8123,-1.3477,12.067
8.697000,-7.0275,-9.5862,-1.3722,11.965
8.697000,-7.0327,-9.4714,-1.3176,11.870
8.697000,-6.8838,-9.5113,-1.1631,11.798
8.703000,-6.6338,-9.7385,-0.9551,11.822
8.705000,-6.3877,-10.0721,-0.7348,11.949
8.709000,-6.1815,-10.3995,-0.5669,12.111
8.716000,-6.0724,-10.6445,-0.4800,12.264
8.724000,-6.1156,-10.7880,-0.4736,12.410
8.725000,-6.2703,-10.8367,-0.5048,12.530
8.730000,-6.4408,-10.8165,-0.5591,12.601
8.735000,-6.5649,-10.8274,-0.5698,12.675
8.798000,-6.6356,-10.9387,-0.5326,12.805
8.802000,-6.6192,-11.1591,-0.4386,12.982
8.805000,-6.5446,-11.4139,-0.3720,13.162
8.809000,-6.4330,-11.5951,-0.4149,13.267
8.812000,-6.2798,-11.6381,-0.5166,13.234
8.813000,-6.0873,-11.5790,-0.6675,13.099
8.815000,-5.8409,-11.4035,-0.8438,12.840
8.817000,-5.5477,-11.1811,-1.0213,12.523
8.820000,-5.1955,-10.9605,-1.2289,12.192
8.822000,-4.7435,-10.7773,-1.4497,11.864
8.824000,-4.2345,-10.6269,-1.6431,11.557
8.824000,-4.2423,-10.4976,-1.8404,11.471
8.825000,-2.9652,-10.3488,-2.0580,10.960
8.826000,-2.2602,-10.1990,-2.2431,10.685
8.826000,-1.5284,-10.0414,-2.3885,10.434
8.827000,-0.7719,-9.8811,-2.4969,10.221
8.828000,-0.0217,-9.6951,-2.5586,10.027
8.828000,0.6916,-9.4987,-2.5715,9.865
8.831000,1.3921,-9.3083,-2.5407,9.749
8.847000,2.0321,-9.1218,-2.4495,9.661
8.849000,2.5521,-8.9412,-2.2911,9.576
8.850000,2.9189,-8.7789,-2.0965,9.486
8.851000,3.1636,-8.6324,-1.9182,9.392
8.914000,3.2842,-8.5032,-1.7679,9.285
8.915000,3.2782,-8.3639,-1.5967,9.124
8.915000,3.2245,-8.1798,-1.4090,8.905
8.916000,3.1162,-7.9389,-1.2424,8.619
8.916000,2.9723,-7.6457,-1.0915,8.275
8.916000,2.7955,-7.3256,-0.9388,7.897
8.917000,2.5996,-6.9827,-0.7762,7.491
8.917000,2.4232,-6.5920,-0.6344,7.052
8.918000,2.2710,-6.1394,-0.5247,6.567
8.918000,2.1813,-5.6296,-0.4802,6.057
8.918000,2.1494,-5.0622,-0.4671,5.519
8.919000,2.1846,-4.4492,-0.4475,4.977
8.919000,2.2629,-3.8167,-0.4045,4.456
8.926000,2.3746,-3.1898,-0.3360,3.991
8.927000,2.4577,-2.5609,-0.3115,3.563
8.931000,2.5473,-1.9495,-0.3051,3.222
8.936000,2.6650,-1.3265,-0.3027,2.992
8.942000,2.7508,-0.7475,-0.3095,2.867
8.945000,2.8072,-0.2437,-0.3118,2.835
8.950000,2.8581,0.2230,-0.3194,2.884
9.015000,2.9011,0.6608,-0.3275,2.993
9.018000,2.9716,1.1036,-0.2864,3.183
9.019000,3.0695,1.5520,-0.2467,3.448
9.020000,3.1634,2.0225,-0.1748,3.759
9.021000,3.2531,2.4478,-0.0255,4.071
9.022000,3.3600,2.8349,0.1361,4.398
9.023000,3.4792,3.2225,0.3195,4.753
9.024000,3.5785,3.5991,0.5334,5.103
9.025000,3.6722,3.9173,0.8041,5.429
9.027000,3.7122,4.1887,1.0809,5.700
9.028000,3.6720,4.4253,1.3346,5.903
9.029000,3.5542,4.6134,1.5578,6.028
9.030000,3.3775,4.7663,1.7090,6.087
9.032000,3.1398,4.8613,1.8002,6.061
9.033000,2.8487,4.9111,1.8434,5.969
9.034000,2.5547,4.9235,1.8269,5.840
9.040000,2.2919,4.9235,1.7914,5.719
9.043000,2.0894,4.9119,1.7252,5.610
9.047000,1.9372,4.9290,1.6044,5.534
9.052000,1.8453,4.9470,1.4580,5.478
9.060000,1.8042,4.9779,1.3078,5.454
9.064000,1.8495,5.0266,1.1517,5.479
9.065000,1.9744,5.1081,0.9806,5.563
9.147000,2.1633,5.2139,0.8162,5.704
9.150000,2.4067,5.3370,0.6684,5.893
9.152000,2.6182,5.4485,0.5491,6.070
9.154000,2.8165,5.5434,0.4610,6.235
9.155000,2.9921,5.6481,0.4160,6.405
9.157000,3.1451,5.7244,0.4575,6.548
9.158000,3.2748,5.7552,0.5515,6.645
9.159000,3.3555,5.7504,0.6885,6.693
9.160000,3.4207,5.6984,0.8684,6.703
9.161000,3.4970,5.6235,1.0838,6.710
9.162000,3.6087,5.5403,1.2821,6.735
9.163000,3.7601,5.4508,1.4702,6.783
9.164000,3.9372,5.3317,1.6218,6.823
9.164000,4.1352,5.2262,1.7492,6.890
9.164000,4.3232,5.1271,1.8716,6.963
9.165000,4.5466,5.0322,1.9916,7.068
9.166000,4.7818,4.9370,2.0949,7.185
9.166000,5.0451,4.8604,2.1981,7.342
9.167000,5.3559,4.8048,2.2986,7.554
9.167000,5.6878,4.7797,2.3581,7.795
9.171000,6.0095,4.7994,2.3862,8.052
9.177000,6.3355,4.8664,2.3904,8.339
9.182000,6.6554,5.0230,2.3972,8.676
9.187000,6.9379,5.2736,2.4068,9.041
9.191000,7.1827,5.5821,2.4192,9.413
9.197000,7.4202,5.8904,2.4818,9.794
9.200000,7.6791,6.1482,2.6277,10.182
9.276000,8.0780,6.2447,2.9390,10.625
9.277000,8.6934,6.0648,3.4377,11.143
9.278000,9.4696,5.5344,3.9350,11.653
9.278000,10.2222,4.7205,4.1644,12.005
9.278000,10.9177,3.8962,3.9930,12.261
9.279000,11.4844,3.2530,3.5018,12.439
9.279000,11.9147,2.8147,2.8014,12.559
9.280000,12.1970,2.5434,2.0543,12.628
9.280000,12.3198,2.3726,1.2888,12.612
9.280000,12.3388,2.3269,0.5542,12.568
9.281000,12.3212,2.3945,-0.0617,12.552
9.281000,12.2290,2.5781,-0.5440,12.510
9.282000,12.1907,2.8581,-0.8706,12.552
9.282000,12.1148,3.1594,-0.9917,12.559
9.282000,12.0076,3.4236,-0.8654,12.516
9.283000,11.8636,3.6496,-0.5153,12.423
9.288000,11.6941,3.7910,-0.0701,12.293
9.291000,11.4657,3.7994,0.3821,12.085
9.296000,11.2142,3.6456,0.7492,11.816
9.303000,10.9280,3.3012,1.0064,11.460
9.314000,10.6245,2.7999,1.1054,11.043
9.315000,10.2924,2.1949,1.0561,10.577
9.317000,9.9093,1.5234,0.8803,10.064
9.399000,9.4781,0.8313,0.6434,9.536
9.401000,9.0190,0.1577,0.3463,9.027
9.403000,8.5544,-0.4869,0.0395,8.568
9.404000,8.0991,-1.0688,-0.2600,8.173
9.406000,7.6664,-1.5793,-0.5714,7.848
9.407000,7.2447,-1.9898,-0.8754,7.564
9.408000,6.8726,-2.3162,-1.1696,7.346
9.409000,6.5170,-2.5394,-1.4515,7.143
9.411000,6.1827,-2.6804,-1.7111,6.953
9.412000,5.8553,-2.7301,-1.9220,6.740
9.412000,5.5690,-2.6753,-2.0558,6.511
9.415000,5.3140,-2.5524,-2.0910,6.255
9.417000,5.1067,-2.3567,-2.0402,5.983
9.418000,4.9137,-2.0791,-1.9111,5.667
9.421000,4.7246,-1.7297,-1.6921,5.308
9.423000,4.5064,-1.3420,-1.3670,4.897
9.424000,4.2631,-0.9026,-0.9202,4.454
9.424000,4.0111,-0.4363,-0.4028,4.055
9.424000,3.7237,-0.0013,0.1481,3.727
9.425000,3.4294,0.4039,0.6883,3.521
9.426000,3.1477,0.7608,1.1765,3.445
9.426000,2.9212,1.0877,1.5550,3.483
9.435000,2.7215,1.3725,1.8240,3.552
9.437000,2.5960,1.6009,1.9530,3.622
9.443000,2.5209,1.7654,1.9811,3.660
9.447000,2.4765,1.8510,1.9211,3.640
9.452000,2.4707,1.8806,1.7866,3.582
9.517000,2.4981,1.8367,1.6262,3.501
9.519000,2.5446,1.7362,1.4648,3.411
9.520000,2.6293,1.5865,1.2884,3.330
9.522000,2.7518,1.4202,1.0881,3.282
9.523000,2.8721,1.2314,0.8937,3.250
9.524000,2.9656,1.0212,0.7149,3.217
9.525000,3.0013,0.7892,0.5832,3.158
9.526000,2.9529,0.5303,0.5013,3.042
9.527000,2.7965,0.2267,0.4380,2.840
9.528000,2.5401,-0.1075,0.3869,2.572
9.529000,2.2248,-0.5086,0.3387,2.307
9.531000,1.9081,-0.9544,0.2745,2.151
9.532000,1.6120,-1.4131,0.1924,2.152
9.533000,1.3390,-1.8913,0.0786,2.319
9.536000,1.0986,-2.3728,-0.0494,2.615
9.537000,0.8960,-2.8455,-0.1839,2.989
9.539000,0.7167,-3.3197,-0.3172,3.411
9.542000,0.5488,-3.8022,-0.4634,3.869
9.552000,0.3828,-4.2735,-0.6269,4.336
9.554000,0.2209,-4.7295,-0.7766,4.798
9.557000,0.0447,-5.1749,-0.9225,5.257
9.561000,-0.1386,-5.5889,-1.0674,5.692
9.567000,-0.3625,-5.9998,-1.2022,6.130
9.618000,-0.5835,-6.3810,-1.3589,6.550
9.621000,-0.7754,-6.7238,-1.5089,6.934
9.623000,-0.9474,-7.0309,-1.6297,7.279
9.624000,-1.1283,-7.3059,-1.6862,7.582
9.626000,-1.3417,-7.5850,-1.6843,7.885
9.627000,-1.5875,-7.8731,-1.6010,8.190
9.629000,-1.8967,-8.1558,-1.4688,8.501
9.630000,-2.2355,-8.4410,-1.2453,8.820
9.631000,-2.5727,-8.6930,-0.9705,9.117
9.633000,-2.8987,-8.9505,-0.6619,9.431
9.633000,-3.1921,-9.2013,-0.3514,9.746
9.636000,-3.4720,-9.4784,-0.0558,10.094
9.640000,-3.7316,-9.7678,0.2415,10.459
9.642000,-3.9638,-10.0361,0.5022,10.802
9.644000,-4.1810,-10.2791,0.6886,11.118
9.652000,-4.3930,-10.5252,0.7921,11.433
9.658000,-4.6146,-10.7500,0.8450,11.729
9.660000,-4.8508,-10.9422,0.8573,12.000
9.661000,-5.0805,-11.1021,0.8369,12.238
9.666000,-5.3111,-11.2614,0.7656,12.475
9.724000,-5.5599,-11.4316,0.6367,12.728
9.726000,-5.8032,-11.5856,0.5105,12.968
9.727000,-6.0557,-11.6635,0.3227,13.146
9.728000,-6.3536,-11.6804,0.0598,13.297
9.729000,-6.6782,-11.6153,-0.2203,13.400
9.730000,-7.0059,-11.4831,-0.5510,13.463
9.731000,-7.3249,-11.2979,-0.8553,13.492
9.732000,-7.6453,-11.0620,-1.1356,13.495
9.733000,-7.9334,-10.8045,-1.3822,13.475
9.734000,-8.1396,-10.5509,-1.5693,13.418
9.735000,-8.2376,-10.3902,-1.6686,13.364
9.736000,-8.1821,-10.3938,-1.6644,13.332
9.739000,-7.9471,-10.6281,-1.5718,13.364
9.740000,-7.5926,-11.0140,-1.4300,13.454
9.754000,-7.2431,-11.4250,-1.2893,13.589
9.757000,-6.9630,-11.7465,-1.1471,13.703
9.758000,-6.8025,-11.9411,-1.0125,13.780
9.761000,-6.8330,-12.0092,-0.8449,13.843
9.763000,-7.0471,-12.0131,-0.6271,13.942
9.769000,-7.3564,-12.0120,-0.3855,14.091
9.829000,-7.6913,-12.0245,-0.1873,14.275
9.831000,-7.9899,-12.0930,-0.0472,14.494
9.833000,-8.2234,-12.1615,0.0676,14.681
9.834000,-8.3488,-12.2195,0.0416,14.799
9.835000,-8.3736,-12.2376,-0.0364,14.828
9.838000,-8.2663,-12.2019,-0.1474,14.739
9.840000,-8.0124,-12.0953,-0.3565,14.513
9.843000,-7.6263,-11.8987,-0.6542,14.148
9.844000,-7.0836,-11.6172,-1.0119,13.644
9.844000,-6.3767,-11.2611,-1.3459,13.011
9.845000,-6.3902,-10.8885,-1.6327,12.730
9.846000,-4.6354,-10.5502,-1.9316,11.684
9.847000,-3.7109,-10.2682,-2.1733,11.132
9.847000,-2.7591,-10.0628,-2.3409,10.694
9.848000,-1.8014,-9.9302,-2.4178,10.378
9.848000,-0.8469,-9.8611,-2.4354,10.193
9.858000,0.0616,-9.8604,-2.4271,10.155
9.861000,0.8741,-9.9230,-2.4001,10.246
9.862000,1.5429,-10.0230,-2.3135,10.402
9.867000,2.0325,-10.1271,-2.1555,10.552
9.936000,2.3408,-10.2172,-1.9626,10.664
9.938000,2.4703,-10.2683,-1.7411,10.704
9.938000,2.4718,-10.2808,-1.4840,10.677
9.939000,2.3623,-10.2804,-1.1721,10.613
9.939000,2.2259,-10.2781,-0.8078,10.547
9.939000,2.0848,-10.2122,-0.4249,10.431
9.940000,1.9892,-10.0795,-0.0151,10.274
9.940000,1.9610,-9.8934,0.3834,10.093
9.941000,2.0124,-9.6227,0.7427,9.859
9.941000,2.1770,-9.2747,1.0686,9.587
9.941000,2.4670,-8.8500,1.3403,9.285
9.942000,2.8297,-8.3338,1.5396,8.935
9.942000,3.2764,-7.7319,1.6587,8.560
9.943000,3.8454,-7.0179,1.7345,8.188
9.943000,4.4808,-6.2271,1.7989,7.880
9.948000,5.1272,-5.3921,1.8833,7.675
9.953000,5.7486,-4.5490,1.9927,7.597
9.958000,6.2812,-3.7091,2.1537,7.606
9.963000,6.7223,-2.9154,2.3467,7.694
9.967000,7.0284,-2.1830,2.5572,7.791
10.037000,7.2471,-1.4862,2.7725,7.900
10.038000,7.3855,-0.8053,2.9681,8.000
10.040000,7.4519,-0.1454,3.1602,8.096
10.041000,7.4510,0.5064,3.3147,8.171
10.043000,7.3563,1.1405,3.3927,8.181
10.044000,7.2227,1.7471,3.4463,8.191
10.045000,7.0378,2.3241,3.4729,8.185
10.046000,6.8092,2.8510,3.4628,8.154
10.048000,6.5714,3.3406,3.4825,8.153
10.050000,6.3178,3.8131,3.4956,8.165
10.053000,6.0790,4.2806,3.5018,8.218
10.054000,5.8310,4.7168,3.4983,8.276
10.055000,5.5787,5.0984,3.4774,8.319
10.056000,5.3594,5.4218,3.4337,8.361
10.057000,5.1423,5.6761,3.3236,8.349
10.058000,4.9441,5.8759,3.1375,8.295
10.059000,4.7410,6.0146,2.8708,8.179
10.061000,4.5428,6.0977,2.5405,8.017
10.065000,4.3344,6.1464,2.1636,7.826
10.068000,4.1474,6.1569,1.7694,7.631
10.080000,3.9726,6.1442,1.3535,7.441
10.084000,3.8053,6.1041,0.9617,7.257
10.085000,3.6769,6.0445,0.5991,7.100
10.138000,3.5713,5.9590,0.2947,6.953
10.139000,3.5071,5.9000,0.0654,6.864
10.140000,3.4919,5.8441,-0.0673,6.808
10.140000,3.4898,5.8104,-0.1897,6.781
10.141000,3.5080,5.7896,-0.2206,6.773
10.141000,3.5467,5.7674,-0.2151,6.774
10.141000,3.5817,5.7220,-0.1522,6.752
10.142000,3.6110,5.6562,-0.0966,6.711
10.142000,3.6349,5.5704,-0.0314,6.652
10.142000,3.6536,5.4625,0.0269,6.572
10.142000,3.6868,5.3522,0.0739,6.500
10.143000,3.7341,5.2348,0.1770,6.433
10.148000,3.7747,5.1442,0.3100,6.388
10.152000,3.8490,5.0948,0.5115,6.406
10.159000,3.9739,5.0792,0.8095,6.500
10.162000,4.1443,5.0829,1.1295,6.655
10.167000,4.3580,5.1223,1.4544,6.881
10.232000,4.6116,5.1800,1.7616,7.156
10.233000,4.8645,5.2414,2.0561,7.441
10.234000,5.1260,5.2944,2.3397,7.732
10.234000,5.3673,5.3484,2.5979,8.010
10.234000,5.5983,5.4060,2.8234,8.279
10.235000,5.7798,5.4905,3.0162,8.524
10.235000,5.9268,5.5878,3.1811,8.745
10.235000,6.0605,5.7217,3.3322,8.976
10.236000,6.1953,5.9039,3.4477,9.226
10.236000,6.3406,6.1152,3.5277,9.489
10.236000,6.4645,6.3359,3.5625,9.728
10.237000,6.5504,6.5946,3.5496,9.950
10.237000,6.6337,6.8622,3.5059,10.168
10.246000,6.6948,7.1146,3.4456,10.359
10.247000,6.7718,7.3277,3.4332,10.552
10.248000,6.9196,7.4126,3.5301,10.737
10.256000,7.1929,7.3000,3.7353,10.908
10.257000,7.6273,6.9441,3.9686,11.052
10.263000,8.1413,6.3451,4.1001,11.106
10.267000,8.6417,5.6156,3.9936,11.053
10.328000,9.1042,4.8897,3.6027,10.944
10.329000,9.5098,4.2684,2.9469,10.832
10.329000,9.8149,3.7566,2.1151,10.720
10.330000,10.0126,3.3669,1.2842,10.641
10.330000,10.1320,3.0855,0.5326,10.605
10.330000,10.1733,2.8960,-0.1461,10.578
10.331000,10.1874,2.7706,-0.6600,10.578
10.331000,10.2274,2.6279,-0.9184,10.599
10.331000,10.2814,2.4442,-0.9607,10.612
10.332000,10.3568,2.2311,-0.8168,10.626
10.332000,10.4272,2.0073,-0.5577,10.633
10.333000,10.4590,1.7674,-0.2518,10.610
10.333000,10.4527,1.5422,0.0156,10.566
10.339000,10.4346,1.3434,0.1721,10.522
10.344000,10.3832,1.1657,0.1960,10.450
10.350000,10.2914,1.0045,0.0849,10.341
10.354000,10.1809,0.8431,-0.1150,10.216
10.359000,10.0738,0.7084,-0.3887,10.106
10.363000,9.9317,0.6124,-0.6829,9.974
10.369000,9.7545,0.5597,-0.9158,9.813
10.446000,9.5305,0.5098,-1.0995,9.607
10.446000,9.2458,0.4388,-1.2558,9.341
10.447000,8.9552,0.3633,-1.3465,9.063
10.447000,8.7075,0.2865,-1.3601,8.818
10.448000,8.4952,0.2100,-1.3066,8.598
10.448000,8.3014,0.1243,-1.2364,8.394
10.448000,8.1167,-0.0089,-1.1569,8.199
10.449000,7.9407,-0.1709,-1.0535,8.012
10.449000,7.7669,-0.3535,-0.9423,7.832
10.450000,7.5663,-0.4995,-0.7994,7.625
10.450000,7.3631,-0.5996,-0.6366,7.415
10.451000,7.1403,-0.6586,-0.4827,7.187
10.451000,6.8812,-0.6795,-0.3260,6.922
10.451000,6.6055,-0.6855,-0.1595,6.643
10.452000,6.3227,-0.6628,0.0258,6.357
10.452000,6.0281,-0.6117,0.1984,6.062
10.453000,5.7266,-0.5301,0.3555,5.762
10.459000,5.4297,-0.4498,0.4941,5.471
10.465000,5.1504,-0.3796,0.6044,5.200
10.470000,4.9171,-0.3319,0.6810,4.975
10.475000,4.7419,-0.3141,0.7142,4.806
10.479000,4.6200,-0.3048,0.6967,4.682
10.483000,4.5464,-0.3137,0.6311,4.601
10.557000,4.4872,-0.3300,0.5416,4.532
10.558000,4.4144,-0.3523,0.4622,4.453
10.558000,4.3205,-0.4127,0.4408,4.362
10.559000,4.2150,-0.5186,0.4750,4.273
10.559000,4.0840,-0.6938,0.5597,4.180
10.560000,3.9465,-0.8985,0.6542,4.100
10.560000,3.8129,-1.1332,0.7347,4.045
10.560000,3.6521,-1.3965,0.8445,4.000
10.561000,3.4592,-1.6691,0.8716,3.938
10.561000,3.2561,-1.9605,0.9051,3.907
10.561000,3.0425,-2.3192,0.9289,3.937
10.562000,2.7928,-2.7095,0.9438,4.004
10.562000,2.5548,-3.1534,0.9624,4.171
10.562000,2.3453,-3.6146,0.9560,4.414
10.563000,2.1168,-4.0519,0.8009,4.641
10.565000,1.8785,-4.4698,0.6274,4.889
10.570000,1.6615,-4.8761,0.4575,5.172
10.575000,1.4472,-5.2586,0.2367,5.459
10.578000,1.2663,-5.6086,0.0182,5.750
10.584000,1.1068,-5.8996,-0.1856,6.005
10.590000,0.9327,-6.1773,-0.3890,6.259
10.594000,0.7152,-6.4449,-0.5802,6.510
10.598000,0.4552,-6.6953,-0.7644,6.754
10.662000,0.1406,-6.9291,-0.9157,6.991
10.663000,-0.2045,-7.1725,-1.0179,7.247
10.663000,-0.5557,-7.4225,-1.0764,7.521
10.663000,-0.9130,-7.6537,-1.0799,7.783
10.664000,-1.2521,-7.8494,-1.0223,8.014
10.664000,-1.5755,-8.0322,-0.9448,8.240
10.665000,-1.8925,-8.2307,-0.8647,8.490
10.665000,-2.2007,-8.4257,-0.7994,8.745
10.665000,-2.4762,-8.6169,-0.7418,8.996
10.666000,-2.7285,-8.8028,-0.7210,9.244
10.666000,-2.9603,-9.0260,-0.7662,9.530
10.666000,-3.1715,-9.2727,-0.8676,9.838
10.667000,-3.3674,-9.5542,-0.9627,10.176
10.670000,-3.5099,-9.8340,-1.0731,10.497
10.674000,-3.6327,-10.0937,-1.1604,10.790
10.680000,-3.7554,-10.3191,-1.1889,11.045
10.685000,-3.8805,-10.5281,-1.1778,11.282
10.690000,-4.0224,-10.7112,-1.1153,11.496
10.695000,-4.2004,-10.8973,-1.0065,11.722
10.698000,-4.4144,-11.1040,-0.8492,11.979
10.767000,-4.6553,-11.3316,-0.6649,12.269
10.772000,-4.9137,-11.5328,-0.4800,12.545
10.775000,-5.2065,-11.7099,-0.3184,12.819
10.776000,-5.5293,-11.8433,-0.2013,13.072
10.778000,-5.8704,-11.9280,-0.1306,13.295
10.780000,-6.2158,-11.9810,-0.1108,13.498
10.781000,-6.5399,-11.9574,-0.1537,13.630
10.783000,-6.8476,-11.8628,-0.2613,13.700
10.784000,-7.1560,-11.6900,-0.4019,13.712
10.785000,-7.4200,-11.4441,-0.5491,13.650
10.786000,-7.6515,-11.1568,-0.7600,13.550
10.788000,-7.8440,-10.8654,-0.9795,13.437
10.789000,-7.9592,-10.6303,-1.1433,13.329
10.790000,-7.9567,-10.5396,-1.2062,13.261
10.791000,-7.8246,-10.6169,-1.1859,13.242
10.792000,-7.5968,-10.8454,-1.1018,13.287
10.794000,-7.3210,-11.1416,-0.9924,13.368
10.795000,-7.0884,-11.4480,-0.8523,13.492
10.795000,-6.9946,-11.6912,-0.7697,13.646
10.800000,-7.1207,-11.8615,-0.8211,13.859
10.810000,-7.4335,-11.9653,-0.8960,14.115
10.811000,-7.8209,-12.0284,-0.9003,14.376
10.815000,-8.1542,-12.1406,-0.8128,14.647
10.894000,-8.4238,-12.3543,-0.6697,14.968
10.897000,-8.5869,-12.6685,-0.5075,15.313
10.899000,-8.6701,-12.9939,-0.3938,15.626
10.901000,-8.6998,-13.2677,-0.3672,15.870
10.903000,-8.6999,-13.4562,-0.4086,16.029
10.904000,-8.6177,-13.5829,-0.4658,16.093
10.906000,-8.5034,-13.6687,-0.5992,16.109
10.907000,-8.2994,-13.7128,-0.7638,16.047
10.908000,-7.9242,-13.7241,-0.9291,15.875
10.908000,-7.3944,-13.7089,-1.0551,15.612
10.909000,-6.6829,-13.6969,-1.2303,15.290
10.910000,-5.8158,-13.6564,-1.4859,14.917
10.910000,-4.7925,-13.5590,-1.7928,14.492
10.911000,-3.6290,-13.3986,-2.0838,14.037
10.911000,-2.3294,-13.1800,-2.3422,13.588
10.912000,-0.9091,-12.8949,-2.5727,13.180
10.912000,0.6062,-12.5725,-2.8253,12.900
10.914000,2.1620,-12.1956,-3.0562,12.757
10.914000,3.7063,-11.8070,-3.2360,12.791
10.915000,5.1438,-11.3812,-3.3261,12.925
10.926000,6.3603,-10.9418,-3.3904,13.102
10.927000,7.3056,-10.4891,-3.3828,13.223
10.929000,7.9679,-10.0649,-3.2525,13.243
10.935000,8.3186,-9.6939,-3.0230,13.127
11.005000,8.3842,-9.3782,-2.7757,12.882
11.006000,8.2270,-9.1185,-2.4293,12.519
11.007000,7.8926,-8.8564,-2.0843,12.045
11.007000,7.5083,-8.5947,-1.7319,11.543
11.007000,7.1507,-8.2750,-1.4585,11.033
11.008000,6.8751,-7.8395,-1.2762,10.505
11.008000,6.7009,-7.3108,-1.1611,9.985
11.009000,6.5964,-6.7081,-1.0931,9.471
11.009000,6.5306,-6.0521,-1.0190,8.962
11.010000,6.5125,-5.3458,-0.9112,8.475
11.010000,6.5274,-4.5924,-0.7545,8.017
11.010000,6.5702,-3.8444,-0.5117,7.629
11.011000,6.6323,-3.0980,-0.1872,7.323
11.011000,6.6562,-2.3984,0.2025,7.078
11.011000,6.6222,-1.7393,0.6790,6.880
11.022000,6.5537,-1.1261,1.1945,6.756
11.023000,6.4502,-0.5474,1.7465,6.705
11.024000,6.3142,-0.0075,2.2965,6.719
11.030000,6.1588,0.5198,2.8392,6.802
11.035000,5.9817,1.0256,3.3240,6.920
11.041000,5.7657,1.5002,3.7743,7.053
11.045000,5.5418,1.9458,4.1678,7.202
11.050000,5.2936,2.3776,4.4897,7.337
11.131000,5.0608,2.7648,4.7554,7.475
11.132000,4.8246,3.1351,4.9283,7.576
11.133000,4.5777,3.4739,5.0198,7.630
11.137000,4.3536,3.7530,5.0198,7.631
11.138000,4.1145,4.0116,4.9043,7.555
11.138000,3.8668,4.2416,4.6819,7.407
11.140000,3.6299,4.4463,4.3530,7.204
11.141000,3.3967,4.6287,3.9249,6.955
11.142000,3.1842,4.7916,3.4502,6.708
11.145000,2.9731,4.9283,2.9362,6.461
11.146000,2.7733,5.0492,2.4381,6.255
11.146000,2.5987,5.1394,1.9750,6.088
11.147000,2.4639,5.2020,1.5804,5.969
11.147000,2.3834,5.2517,1.2588,5.903
11.147000,2.3069,5.2983,0.9576,5.858
11.148000,2.2228,5.3425,0.6889,5.827
11.149000,2.1473,5.3694,0.4646,5.801
11.149000,2.0928,5.3795,0.2654,5.778
11.150000,2.0475,5.3684,0.1270,5.747
11.150000,2.0283,5.2958,0.0566,5.671
11.155000,2.0429,5.1695,0.0155,5.559
11.161000,2.0766,5.0036,-0.0273,5.417
11.165000,2.1585,4.8275,-0.0621,5.288
11.170000,2.2600,4.6486,-0.0908,5.170
11.175000,2.3930,4.4576,-0.1036,5.060
11.181000,2.5408,4.2545,-0.1077,4.957
11.185000,2.7111,4.0422,-0.1026,4.868
11.261000,2.8865,3.8230,-0.0834,4.791
11.263000,3.0581,3.6260,-0.0759,4.744
11.263000,3.2380,3.4825,-0.0796,4.756
11.264000,3.4358,3.3858,-0.0651,4.824
11.264000,3.6518,3.3408,-0.0224,4.949
11.265000,3.9069,3.3470,0.0921,5.145
11.265000,4.2133,3.4165,0.2784,5.432
11.266000,4.5657,3.5681,0.5175,5.818
11.266000,4.9279,3.7677,0.7829,6.252
11.267000,5.2807,4.0294,1.0934,6.732
11.267000,5.6230,4.3400,1.4435,7.248
11.268000,5.9212,4.6802,1.8378,7.768
11.269000,6.1725,5.0161,2.2539,8.267
11.271000,6.4102,5.3758,2.6578,8.778
11.272000,6.6363,5.7302,3.0418,9.281
11.272000,6.8602,6.0627,3.3936,9.764
11.272000,7.0976,6.3578,3.7146,10.227
11.326000,7.3178,6.6206,3.9900,10.644
11.327000,7.5993,6.7840,4.2817,11.050
11.327000,7.9728,6.7832,4.6246,11.444
11.328000,8.4384,6.5537,4.9933,11.794
11.328000,8.9453,6.1194,5.2673,12.050
11.328000,9.4626,5.5857,5.3434,12.219
11.329000,9.9520,5.0655,5.1627,12.303
11.329000,10.4350,4.6450,4.7148,12.357
11.329000,10.8727,4.3481,4.1122,12.411
11.330000,11.2456,4.1629,3.4551,12.479
11.330000,11.6019,4.1234,2.8193,12.632
11.331000,11.9079,4.2223,2.2493,12.833
11.337000,12.1322,4.4381,1.8369,13.048
11.341000,12.2751,4.7540,1.5606,13.256
11.347000,12.3315,5.1314,1.4206,13.432
11.351000,12.3444,5.5221,1.3881,13.594
11.356000,12.3203,5.8516,1.5967,13.732
11.363000,12.2520,6.0545,2.0016,13.812
11.365000,12.1438,6.1064,2.5867,13.837
11.438000,11.9939,5.9710,3.3275,13.805
11.439000,11.8143,5.6360,4.1376,13.728
11.440000,11.6102,5.1393,4.8517,13.592
11.440000,11.4136,4.5216,5.3629,13.397
11.440000,11.2633,3.8504,5.6279,13.167
11.441000,11.1904,3.1707,5.6589,12.935
11.441000,11.0909,2.4453,5.4787,12.610
11.442000,10.9674,1.7247,5.1700,12.247
11.442000,10.8183,1.0072,4.7603,11.862
11.442000,10.6400,0.3438,4.3417,11.497
11.443000,10.4401,-0.2290,3.8526,11.131
11.443000,10.2230,-0.6924,3.2616,10.753
11.443000,10.0030,-1.0343,2.6608,10.402
11.444000,9.8211,-1.2491,2.0468,10.110
11.444000,9.6675,-1.3340,1.4477,9.866
11.447000,9.5393,-1.3036,0.9151,9.671
11.452000,9.4186,-1.1899,0.5239,9.508
11.457000,9.2239,-1.0259,0.2991,9.286
11.461000,8.9399,-0.7796,0.2450,8.977
11.466000,8.5712,-0.5092,0.3772,8.595
11.472000,8.1751,-0.2516,0.6175,8.202
11.476000,7.7442,-0.0345,0.8324,7.789
11.481000,7.3273,0.1455,0.9756,7.393
11.485000,6.9312,0.2489,1.0776,7.019
11.554000,6.5726,0.2851,1.1500,6.679
11.555000,6.2134,0.2582,1.1758,6.329
11.556000,5.8391,0.1730,1.1285,5.950
11.556000,5.4593,0.0501,1.0346,5.557
11.556000,5.0682,-0.0990,0.9063,5.150
11.557000,4.6967,-0.2748,0.7579,4.765
11.557000,4.3334,-0.4744,0.6157,4.403
11.557000,4.0173,-0.6853,0.4771,4.103
11.558000,3.7457,-0.9177,0.3347,3.871
11.558000,3.5127,-1.1431,0.1866,3.699
11.558000,3.2940,-1.3884,0.0592,3.575
11.559000,3.0826,-1.6392,-0.0305,3.491
11.559000,2.8786,-1.8929,-0.0896,3.446
11.559000,2.6746,-2.1455,-0.0991,3.430
11.562000,2.4450,-2.4334,-0.0869,3.451
11.567000,2.2042,-2.7212,-0.0726,3.503
11.570000,1.9618,-3.0180,-0.0559,3.600
11.575000,1.7610,-3.3119,-0.0151,3.751
11.582000,1.5802,-3.6050,0.0331,3.936
11.586000,1.4027,-3.9077,0.0145,4.152
11.591000,1.2311,-4.2005,-0.0409,4.377
11.596000,1.1010,-4.4652,-0.0877,4.600
11.602000,0.9906,-4.6971,-0.1492,4.803
11.673000,0.8831,-4.8819,-0.2249,4.966
11.674000,0.7662,-5.0688,-0.3171,5.136
11.674000,0.6545,-5.2576,-0.4038,5.314
11.675000,0.5432,-5.4327,-0.5188,5.484
11.675000,0.4441,-5.6228,-0.6186,5.674
11.675000,0.3164,-5.8399,-0.7339,5.894
11.676000,0.1505,-6.0863,-0.8406,6.146
11.676000,-0.0250,-6.3460,-0.9649,6.419
11.677000,-0.1907,-6.5900,-1.0897,6.682
11.677000,-0.3229,-6.7980,-1.1983,6.910
11.677000,-0.4384,-7.0084,-1.3026,7.142
11.678000,-0.5634,-7.2334,-1.3788,7.385
11.678000,-0.7122,-7.4884,-1.4558,7.662
11.678000,-0.8798,-7.7708,-1.5294,7.969
11.679000,-1.0803,-8.0910,-1.6047,8.319
11.682000,-1.2873,-8.4392,-1.6701,8.699
11.687000,-1.5126,-8.8099,-1.7286,9.104
11.691000,-1.8111,-9.2251,-1.7898,9.570
11.697000,-2.1470,-9.6742,-1.8406,10.079
11.701000,-2.5034,-10.1266,-1.8696,10.598
11.711000,-2.8204,-10.5503,-1.9064,11.086
11.712000,-3.0838,-10.9618,-1.9426,11.552
11.716000,-3.2841,-11.3319,-2.0051,11.967
11.797000,-3.4309,-11.7236,-2.1160,12.397
11.798000,-3.6156,-12.1442,-2.2378,12.867
11.798000,-3.8405,-12.5534,-2.3831,13.342
11.799000,-4.1203,-12.8908,-2.5354,13.769
11.799000,-4.4075,-13.1440,-2.6783,14.120
11.800000,-4.7070,-13.3446,-2.8000,14.425
11.800000,-4.9933,-13.4859,-2.9269,14.675
11.801000,-5.2163,-13.5352,-3.0710,14.827
11.802000,-5.4074,-13.5143,-3.2032,14.904
11.803000,-5.6005,-13.4116,-3.3661,14.919
11.804000,-5.8124,-13.2254,-3.5475,14.875
11.805000,-6.0630,-12.9931,-3.7439,14.819
11.806000,-6.3407,-12.7132,-3.9210,14.738
11.807000,-6.6554,-12.4023,-4.1090,14.663
11.808000,-6.9407,-12.0556,-4.2830,14.555
11.809000,-7.1636,-11.6971,-4.4351,14.416
11.809000,-7.2861,-11.3846,-4.5195,14.252
11.810000,-7.2659,-11.1629,-4.5189,14.065
11.812000,-7.1005,-11.0781,-4.4290,13.884
11.817000,-6.8474,-11.1492,-4.2713,13.764
11.827000,-6.5882,-11.2882,-4.1101,13.701
11.829000,-6.4353,-11.4045,-4.0095,13.695
11.831000,-6.4464,-11.4190,-3.9708,13.701
11.836000,-6.5787,-11.3438,-3.9791,13.704
11.908000,-6.8035,-11.2313,-3.9578,13.715
11.909000,-7.0849,-11.1337,-3.9213,13.767
11.909000,-7.3537,-11.0598,-3.8245,13.821
11.910000,-7.3516,-11.0308,-3.7372,13.773
11.910000,-7.5882,-11.0293,-3.6143,13.867
11.911000,-7.4774,-11.1055,-3.3911,13.811
11.911000,-7.2655,-11.2186,-3.1686,13.736
11.912000,-6.9908,-11.3304,-3.0397,13.656
11.912000,-6.6367,-11.3638,-2.9826,13.494
11.913000,-6.1907,-11.2815,-2.9876,13.211
11.913000,-5.6933,-11.0787,-3.0618,12.827
11.913000,-5.1731,-10.8345,-3.1763,12.419
11.914000,-4.6417,-10.6112,-3.2831,12.038
11.914000,-4.0701,-10.4370,-3.3439,11.691
11.915000,-3.4622,-10.3157,-3.3355,11.381
11.918000,-2.7816,-10.2015,-3.2703,11.068
11.923000,-2.0181,-10.0638,-3.1898,10.748
11.927000,-1.2405,-9.8963,-3.0870,10.441
11.932000,-0.4818,-9.7087,-2.9983,10.173
11.937000,0.2567,-9.5368,-2.8762,9.964
11.943000,0.9250,-9.3757,-2.7236,9.807
11.947000,1.5043,-9.2644,-2.5598,9.729
11.951000,2.0214,-9.1696,-2.4063,9.693
12.030000,2.4478,-9.1157,-2.2678,9.707
12.031000,2.7427,-9.1159,-2.1106,9.751
12.032000,2.9067,-9.1626,-1.9395,9.806
12.032000,2.9567,-9.2302,-1.7184,9.843
12.032000,2.9240,-9.2968,-1.4526,9.853
12.033000,2.8640,-9.3452,-1.1829,9.845
12.033000,2.7866,-9.3688,-0.9191,9.818
12.034000,2.7401,-9.3670,-0.6544,9.781
12.034000,2.7368,-9.3169,-0.3937,9.719
12.034000,2.7960,-9.2184,-0.1561,9.634
12.034000,2.9159,-9.0667,0.0750,9.524
12.035000,3.1014,-8.8559,0.3094,9.388
12.035000,3.3384,-8.5603,0.5181,9.203
12.035000,3.6417,-8.1717,0.7013,8.974
12.036000,4.0328,-7.6600,0.8425,8.698
12.036000,4.4902,-7.0643,0.9326,8.422
12.041000,5.0112,-6.4074,1.0178,8.198
12.043000,5.5528,-5.6987,1.1109,8.034
12.049000,6.1497,-4.9542,1.2412,7.994
12.054000,6.7510,-4.1599,1.4524,8.062
12.059000,7.3250,-3.3533,1.6945,8.232
12.065000,7.8232,-2.5260,1.9438,8.448
12.068000,8.2239,-1.7088,2.2365,8.692
12.152000,8.4798,-0.9242,2.5488,8.903
12.153000,8.6315,-0.1882,2.8714,9.098
12.153000,8.6281,0.5014,3.2594,9.237
12.154000,8.5146,1.1368,3.7415,9.370
12.154000,8.2927,1.7033,4.2716,9.482
12.154000,7.9771,2.2258,4.7850,9.565
12.155000,7.6145,2.6832,5.2394,9.625
12.155000,7.2244,3.0985,5.6106,9.658
12.156000,6.8285,3.4816,5.8500,9.642
12.156000,6.4482,3.8254,5.9713,9.585
12.156000,6.1055,4.1409,5.9575,9.482
12.157000,5.7849,4.4290,5.8009,9.313
12.157000,5.5513,4.6884,5.5470,9.141
12.157000,5.3852,4.8931,5.2029,8.945
12.158000,5.3081,5.0504,4.7754,8.746
12.158000,5.2821,5.1949,4.2575,8.545
12.158000,5.2654,5.3352,3.6204,8.324
12.159000,5.2463,5.4940,2.8891,8.127
12.163000,5.2201,5.6455,2.1723,7.990
12.167000,5.1910,5.8232,1.5234,7.948
12.173000,5.1758,5.9966,0.9957,7.984
12.177000,5.1388,6.1543,0.5705,8.038
12.182000,5.0577,6.3028,0.2784,8.086
12.256000,4.9403,6.4332,0.1170,8.112
12.257000,4.7723,6.5143,0.0642,8.076
12.257000,4.5683,6.5777,0.0693,8.009
12.258000,4.3432,6.5976,0.1225,7.900
12.258000,4.1210,6.5882,0.2468,7.775
12.258000,3.9307,6.5476,0.3846,7.647
12.258000,3.8085,6.5095,0.5332,7.561
12.259000,3.7399,6.4620,0.6900,7.498
12.259000,3.6893,6.4055,0.8241,7.438
12.260000,3.6302,6.3063,0.9472,7.338
12.260000,3.5677,6.1770,1.0619,7.212
12.260000,3.4902,6.0443,1.1781,7.078
12.260000,3.4316,5.8918,1.2838,6.938
12.261000,3.3757,5.7250,1.3696,6.786
12.261000,3.3845,5.5604,1.4451,6.668
12.263000,3.4609,5.4393,1.5178,6.623
12.268000,3.5926,5.3353,1.6023,6.629
12.273000,3.7676,5.2603,1.6988,6.690
12.277000,3.9643,5.2166,1.8193,6.800
12.282000,4.1730,5.1827,1.9881,6.945
12.350000,4.3885,5.2013,2.1929,7.150
12.351000,4.6011,5.2626,2.3909,7.388
12.351000,4.8107,5.3902,2.6055,7.680
12.352000,4.9906,5.5671,2.8271,7.993
12.352000,5.1455,5.7786,3.0673,8.323
12.353000,5.2654,6.0097,3.3111,8.649
12.353000,5.3310,6.2508,3.5727,8.959
12.354000,5.3924,6.4609,3.8420,9.251
12.354000,5.4711,6.6471,4.1209,9.545
12.354000,5.5979,6.7302,4.4493,9.820
12.354000,5.8230,6.6599,4.8260,10.077
12.355000,6.1535,6.3787,5.1926,10.272
12.355000,6.5843,5.9082,5.4956,10.414
12.355000,7.0675,5.2940,5.6057,10.459
12.359000,7.5099,4.6296,5.4659,10.378
12.364000,7.8976,4.0137,5.0899,10.217
12.368000,8.2117,3.5020,4.5131,10.003
12.373000,8.5317,3.1118,3.8791,9.875
12.377000,8.9147,2.8289,3.4070,9.954
12.382000,9.3559,2.6079,3.0326,10.175
12.390000,9.8311,2.4702,2.7895,10.514
12.392000,10.2924,2.4179,2.6131,10.891
12.397000,10.6964,2.4938,2.4409,11.251
12.402000,11.0404,2.6973,2.3544,11.606
12.480000,11.3046,2.9749,2.3746,11.928
12.481000,11.4740,3.2445,2.5606,12.196
12.481000,11.5341,3.3833,2.9209,12.370
12.481000,11.4917,3.3690,3.3554,12.437
12.482000,11.3757,3.2517,3.7239,12.403
12.482000,11.2364,3.0644,3.9583,12.301
12.483000,11.0929,2.8019,3.9674,12.110
12.483000,10.9433,2.4456,3.7664,11.829
12.483000,10.7661,1.9909,3.3922,11.462
12.484000,10.5955,1.4815,2.9036,11.086
12.484000,10.4149,0.9542,2.3310,10.715
12.484000,10.2415,0.4525,1.7524,10.400
12.485000,10.1256,0.0269,1.2021,10.197
12.485000,10.0483,-0.3506,0.6625,10.076
12.486000,9.9210,-0.6802,0.1579,9.946
12.486000,9.7584,-0.9495,-0.3016,9.809
12.490000,9.5537,-1.1605,-0.7037,9.650
12.494000,9.3142,-1.3205,-1.0387,9.465
12.497000,9.0268,-1.4017,-1.2944,9.226
12.502000,8.6984,-1.4188,-1.4471,8.931
12.550000,8.3178,-1.3621,-1.4568,8.554
12.550000,7.9328,-1.2198,-1.3006,8.131
12.551000,7.5481,-1.0145,-1.0015,7.682
12.551000,7.1788,-0.7914,-0.6021,7.247
12.552000,6.8244,-0.5781,-0.1561,6.851
12.552000,6.4607,-0.3993,0.2584,6.478
12.552000,6.0951,-0.2507,0.5927,6.129
12.553000,5.6965,-0.1113,0.8224,5.757
12.553000,5.2790,0.0042,0.9380,5.362
12.553000,4.8294,0.1136,0.9806,4.929
12.558000,4.3855,0.1927,0.9601,4.494
12.564000,3.9668,0.2250,0.8961,4.073
12.569000,3.5588,0.2297,0.8275,3.661
12.573000,3.1876,0.1704,0.7594,3.281
12.577000,2.8542,0.0727,0.7040,2.941
12.583000,2.5676,-0.0472,0.6592,2.651
12.651000,2.3326,-0.2086,0.6393,2.428
12.653000,2.1374,-0.4164,0.6326,2.268
12.653000,1.9795,-0.6655,0.6273,2.181
12.653000,1.8276,-0.9422,0.5591,2.131
12.654000,1.6752,-1.2087,0.4246,2.109
12.654000,1.4980,-1.4555,0.2747,2.107
12.654000,1.2937,-1.6609,0.1557,2.111
12.655000,1.0884,-1.8439,0.0969,2.143
12.655000,0.8654,-2.0459,0.1076,2.224
12.656000,0.6562,-2.2387,0.1546,2.338
12.656000,0.4846,-2.4447,0.2278,2.503
12.656000,0.3699,-2.6640,0.3005,2.706
12.657000,0.3097,-2.8920,0.3319,2.927
12.657000,0.2677,-3.1035,0.2955,3.129
12.660000,0.2302,-3.3086,0.2204,3.324
12.665000,0.1490,-3.5392,0.1115,3.544
12.669000,0.0339,-3.7784,-0.0093,3.779
12.674000,-0.1102,-4.0424,-0.1253,4.046
12.678000,-0.2666,-4.3096,-0.2649,4.326
12.683000,-0.4400,-4.5616,-0.3804,4.599
12.689000,-0.6015,-4.8106,-0.5149,4.875
12.693000,-0.7391,-5.0409,-0.6539,5.137
12.698000,-0.8649,-5.2764,-0.8166,5.409
12.768000,-0.9789,-5.5290,-0.9742,5.699
12.769000,-1.1194,-5.7924,-1.1409,6.009
12.769000,-1.3005,-6.0762,-1.3075,6.350
12.770000,-1.4862,-6.3451,-1.5051,6.688
12.770000,-1.6958,-6.6132,-1.6976,7.035
12.771000,-1.9077,-6.8898,-1.8682,7.389
12.771000,-2.1268,-7.1803,-2.0240,7.757
12.771000,-2.3507,-7.4729,-2.1487,8.123
12.772000,-2.5840,-7.7560,-2.2498,8.479
12.772000,-2.8077,-8.0343,-2.3110,8.819
12.773000,-3.0433,-8.3075,-2.3400,9.152
12.773000,-3.2859,-8.5634,-2.3371,9.465
12.774000,-3.5450,-8.8003,-2.3149,9.766
12.774000,-3.8066,-9.0235,-2.2309,10.044
12.774000,-4.0441,-9.2289,-2.0903,10.291
12.779000,-4.2528,-9.4380,-1.9491,10.534
12.785000,-4.4497,-9.6818,-1.7764,10.802
12.788000,-4.6370,-9.9251,-1.5602,11.065
12.794000,-4.8080,-10.1777,-1.3324,11.335
12.799000,-4.9461,-10.4092,-1.1338,11.580
12.806000,-5.0658,-10.6241,-0.9715,11.810
12.809000,-5.1890,-10.8123,-0.8646,12.024
12.813000,-5.3014,-10.9720,-0.7915,12.211
12.818000,-5.4180,-11.0944,-0.7423,12.369
12.891000,-5.5511,-11.1847,-0.6877,12.505
12.892000,-5.6961,-11.2356,-0.6177,12.612
12.893000,-5.8700,-11.2185,-0.5561,12.674
12.893000,-6.0683,-11.1669,-0.5313,12.720
12.894000,-6.2815,-11.0860,-0.5093,12.752
12.894000,-6.5314,-10.9747,-0.6031,12.785
12.895000,-6.7537,-10.8859,-0.7281,12.831
12.895000,-6.9033,-10.8674,-0.7574,12.897
12.895000,-6.9301,-10.9691,-0.6932,12.993
12.896000,-6.8751,-11.2080,-0.5404,13.160
12.897000,-6.7817,-11.5570,-0.3540,13.405
12.897000,-6.7289,-11.9134,-0.2273,13.684
12.897000,-6.7812,-12.2171,-0.2108,13.975
12.898000,-6.9652,-12.4343,-0.2895,14.255
12.898000,-7.2835,-12.5931,-0.4178,14.554
12.899000,-7.6549,-12.7090,-0.5503,14.847
12.906000,-8.0485,-12.7837,-0.6704,15.121
12.908000,-8.4311,-12.8163,-0.7712,15.360
12.915000,-8.7335,-12.8202,-0.8749,15.537
12.920000,-8.8574,-12.7473,-1.0034,15.555
12.925000,-8.7815,-12.6307,-1.1834,15.429
12.929000,-8.5101,-12.4662,-1.4421,15.163
12.934000,-8.0884,-12.2658,-1.7509,14.797
12.999000,-7.5497,-11.9963,-2.1079,14.330
13.000000,-6.8909,-11.6608,-2.5322,13.779
13.000000,-6.1215,-11.2975,-2.9953,13.194
13.001000,-5.2789,-10.9635,-3.4246,12.641
13.001000,-4.3772,-10.6541,-3.7624,12.117
13.002000,-3.3706,-10.3607,-4.0038,11.608
13.002000,-2.1939,-10.0631,-4.1031,11.087
13.003000,-0.8731,-9.8053,-4.0583,10.648
13.003000,0.5065,-9.5551,-3.9510,10.352
13.003000,1.8851,-9.3254,-3.8049,10.247
13.004000,3.1173,-9.1467,-3.7109,10.351
13.004000,4.1552,-8.9794,-3.6586,10.549
13.005000,4.9393,-8.8866,-3.4756,10.745
13.005000,5.3932,-8.8768,-3.1481,10.853
13.009000,5.5389,-8.9224,-2.6956,10.842
13.015000,5.4653,-8.9620,-2.1549,10.716
13.020000,5.2159,-9.0134,-1.6271,10.540
13.028000,4.8458,-9.0877,-1.0908,10.357
13.030000,4.3842,-9.1611,-0.5582,10.171
13.033000,3.9003,-9.2227,-0.0379,10.014
13.119000,3.4208,-9.2444,0.4802,9.869
13.121000,2.9887,-9.1708,0.9106,9.688
13.122000,2.5921,-8.9990,1.2472,9.448
13.123000,2.2335,-8.7231,1.4812,9.126
13.124000,1.9343,-8.3305,1.6430,8.709
13.124000,1.7423,-7.8588,1.7573,8.239
13.125000,1.6573,-7.2917,1.8275,7.698
13.125000,1.6960,-6.6801,1.8854,7.145
13.126000,1.8892,-6.0175,1.9221,6.594
13.126000,2.1892,-5.3233,1.9091,6.064
13.127000,2.5540,-4.5988,1.9094,5.596
13.127000,2.9214,-3.8922,1.9062,5.227
13.128000,3.2598,-3.2095,1.9115,4.958
13.128000,3.6047,-2.5423,1.9082,4.806
13.129000,3.9204,-1.8760,1.9032,4.745
13.129000,4.1984,-1.2114,1.8645,4.751
13.130000,4.5035,-0.5504,1.8253,4.890
13.130000,4.7826,0.0921,1.7420,5.091
13.131000,5.0327,0.7058,1.6933,5.357
13.137000,5.1916,1.2674,1.6526,5.594
13.140000,5.2584,1.7652,1.6357,5.783
13.144000,5.2117,2.1956,1.6233,5.884
13.150000,5.1042,2.5685,1.6603,5.950
13.158000,4.9647,2.8652,1.7509,5.994
13.163000,4.7623,3.0957,1.8394,5.970
13.164000,4.5455,3.3165,1.9447,5.953
13.168000,4.3519,3.5167,2.0634,5.964
13.229000,4.1746,3.7044,2.1764,5.990
13.229000,3.9656,3.8367,2.2616,5.963
13.230000,3.7706,3.9021,2.3452,5.911
13.230000,3.5878,3.9255,2.3861,5.829
13.230000,3.4092,3.9181,2.3840,5.715
13.231000,3.2453,3.9074,2.2863,5.570
13.231000,3.1439,3.9249,2.0909,5.446
13.231000,3.1146,3.9902,1.8078,5.375
13.232000,3.1602,4.0824,1.4881,5.373
13.232000,3.2843,4.1553,1.2016,5.431
13.232000,3.3436,4.2573,0.8889,5.486
13.232000,3.5915,4.3719,0.6011,5.690
13.234000,3.7454,4.4991,0.4514,5.871
13.240000,3.8914,4.6532,0.3798,6.078
13.244000,4.0296,4.8345,0.3745,6.305
13.250000,4.1497,5.0254,0.4759,6.535
13.255000,4.2496,5.2022,0.5954,6.744
13.259000,4.3243,5.3817,0.7520,6.945
13.264000,4.4168,5.5733,0.9601,7.176
13.269000,4.5008,5.7462,1.1983,7.397
13.327000,4.5658,5.8754,1.4278,7.577
13.328000,4.6338,5.9638,1.7657,7.756
13.328000,4.7024,5.9923,2.1346,7.911
13.329000,4.7861,5.9945,2.4791,8.061
13.329000,4.8968,5.9824,2.7892,8.219
13.329000,5.0325,5.9755,3.0480,8.386
13.330000,5.1640,5.9756,3.2144,8.527
13.330000,5.2915,5.9832,3.3296,8.654
13.330000,5.4510,5.9888,3.4558,8.805
13.331000,5.6425,5.9735,3.5786,8.963
13.331000,5.7994,5.9352,3.6909,9.082
13.331000,5.9476,5.8856,3.8212,9.199
13.335000,6.1114,5.8679,3.9836,9.362
13.340000,6.2763,5.8894,4.1469,9.554
13.345000,6.4256,5.9666,4.2700,9.753
13.350000,6.5522,6.0924,4.3719,9.958
13.357000,6.6509,6.2519,4.4549,10.157
13.359000,6.7098,6.4523,4.5066,10.342
13.364000,6.7310,6.6815,4.4891,10.493
13.369000,6.7766,6.9154,4.4859,10.671
13.434000,6.8917,7.1034,4.5758,10.904
13.434000,7.1357,7.1281,4.7741,11.159
13.435000,7.4674,6.8767,5.0674,11.346
13.435000,7.9060,6.3637,5.2628,11.432
13.435000,8.4012,5.6946,5.2239,11.415
13.436000,8.9524,4.9816,4.9396,11.374
13.436000,9.4734,4.3328,4.4642,11.333
13.437000,9.9279,3.7958,3.8141,11.292
13.437000,10.2969,3.3688,3.0947,11.267
13.437000,10.5902,3.0305,2.4394,11.282
13.438000,10.8057,2.7385,1.8451,11.299
13.438000,10.9391,2.5124,1.3269,11.302
13.438000,10.9955,2.3908,0.8931,11.288
13.439000,10.9893,2.3952,0.6108,11.264
13.445000,10.9156,2.4798,0.5227,11.206
13.450000,10.7930,2.6221,0.6181,11.124
13.454000,10.6120,2.7428,0.8427,10.993
13.460000,10.3726,2.7935,1.0178,10.790
13.465000,10.1399,2.7432,1.2310,10.576
13.470000,9.9469,2.5339,1.4982,10.373
13.475000,9.8369,2.1872,1.7605,10.230
13.479000,9.8195,1.7340,1.9717,10.165
13.485000,9.8660,1.2222,2.0598,10.153
13.557000,9.9031,0.7124,1.9462,10.118
13.558000,9.9336,0.2791,1.6683,10.077
13.559000,9.9430,-0.0344,1.3371,10.033
13.559000,9.9054,-0.2758,1.0185,9.961
13.559000,9.8280,-0.4904,0.7245,9.867
13.560000,9.7026,-0.6724,0.5153,9.739
13.560000,9.5673,-0.7788,0.4054,9.607
13.561000,9.4391,-0.8143,0.3899,9.482
13.561000,9.3275,-0.7672,0.4564,9.370
13.561000,9.2033,-0.6526,0.6094,9.247
13.562000,9.0562,-0.4669,0.8291,9.106
13.562000,8.8124,-0.2817,1.0721,8.882
13.562000,8.4908,-0.1027,1.2446,8.582
13.563000,8.1272,0.0342,1.4352,8.253
13.563000,7.7266,0.1145,1.6463,7.901
13.565000,7.3201,0.1786,1.7246,7.523
13.570000,6.9705,0.2608,1.7570,7.193
13.574000,6.6581,0.3485,1.7728,6.899
13.580000,6.3253,0.4198,1.6596,6.553
13.585000,5.9599,0.4695,1.4659,6.155
13.589000,5.5568,0.4991,1.2518,5.718
13.594000,5.0859,0.4931,0.9481,5.197
13.600000,4.5807,0.4510,0.5908,4.641
13.666000,4.1016,0.3758,0.2469,4.126
13.666000,3.6777,0.2368,-0.0504,3.686
13.667000,3.3237,0.0175,-0.2987,3.337
13.667000,3.0540,-0.2488,-0.5369,3.111
13.668000,2.8532,-0.5526,-0.7626,3.005
13.668000,2.7233,-0.8659,-0.9521,3.012
13.668000,2.6358,-1.1595,-1.1221,3.090
13.669000,2.5405,-1.4000,-1.2465,3.157
13.669000,2.3869,-1.5907,-1.3302,3.162
13.669000,2.1688,-1.7277,-1.3373,3.078
13.670000,1.8884,-1.8429,-1.2586,2.923
13.670000,1.5697,-1.9795,-1.0874,2.750
13.670000,1.2631,-2.1423,-0.8648,2.633
13.671000,0.9877,-2.3632,-0.6128,2.634
13.678000,0.7968,-2.6427,-0.4005,2.789
13.680000,0.6397,-2.9456,-0.2520,3.025
13.687000,0.4615,-3.2668,-0.1737,3.304
13.690000,0.2694,-3.5343,-0.1625,3.548
13.695000,0.0487,-3.7671,-0.1695,3.771
13.700000,-0.1576,-3.9923,-0.1678,3.999
13.760000,-0.3421,-4.2581,-0.1259,4.274
13.761000,-0.5313,-4.5774,-0.1130,4.609
13.762000,-0.7468,-4.8950,-0.1238,4.953
13.762000,-0.9480,-5.2062,-0.1222,5.293
13.762000,-1.1924,-5.5191,-0.1564,5.649
13.763000,-1.5011,-5.7903,-0.2207,5.986
13.763000,-1.8240,-6.0373,-0.2167,6.311
13.764000,-1.8478,-6.2910,-0.2263,6.561
13.764000,-2.4407,-6.5582,-0.2283,7.001
13.764000,-2.7102,-6.8206,-0.2419,7.343
13.765000,-2.9840,-7.0733,-0.2746,7.682
13.765000,-3.2287,-7.3097,-0.3173,7.997
13.766000,-3.4610,-7.5315,-0.3607,8.296
13.771000,-3.6282,-7.7143,-0.3910,8.534
13.776000,-3.7497,-7.8748,-0.3921,8.731
13.782000,-3.8159,-8.0184,-0.3453,8.887
13.787000,-3.7910,-8.1626,-0.2662,9.004
13.791000,-3.6893,-8.3037,-0.1719,9.088
13.795000,-3.5350,-8.4397,-0.0989,9.151
13.801000,-3.3665,-8.5639,-0.0494,9.202
13.868000,-3.2245,-8.7208,-0.0161,9.298
13.868000,-3.1497,-8.8967,0.0035,9.438
13.869000,-3.1399,-9.1094,0.0435,9.635
13.869000,-3.2047,-9.3754,0.0634,9.908
13.870000,-3.3273,-9.6463,0.0947,10.204
13.870000,-3.5031,-9.9344,0.0850,10.534
13.871000,-3.7469,-10.2038,0.0634,10.870
13.871000,-4.0157,-10.4572,0.0425,11.202
13.871000,-4.2836,-10.6797,0.0539,11.507
13.872000,-4.5677,-10.8684,0.0691,11.789
13.872000,-4.8539,-11.0375,0.0957,12.058
13.873000,-5.1926,-11.1443,0.0530,12.295
13.873000,-5.5770,-11.1610,-0.0302,12.477
13.874000,-6.0025,-11.0951,-0.1323,12.615
13.877000,-6.4812,-10.9989,-0.3301,12.771
13.883000,-6.9583,-10.8336,-0.5253,12.886
13.886000,-7.4125,-10.6306,-0.6913,12.978
13.891000,-7.8584,-10.4198,-0.8529,13.079
13.897000,-8.2914,-10.1846,-1.0369,13.174
13.901000,-8.6731,-9.9367,-1.2318,13.247
13.910000,-8.9751,-9.6640,-1.4048,13.263
13.911000,-9.1853,-9.4196,-1.5443,13.247
13.919000,-9.2920,-9.2508,-1.6326,13.213
14.023000,-9.2664,-9.2130,-1.6175,13.167
14.024000,-9.1302,-9.3587,-1.5045,13.161
14.025000,-8.9623,-9.7258,-1.3565,13.295
14.025000,-8.8322,-10.1583,-1.2549,13.519
14.026000,-8.8238,-10.4811,-1.2449,13.757
14.027000,-8.9129,-10.5577,-1.2789,13.876
14.027000,-9.0038,-10.4623,-1.3045,13.865
14.028000,-9.0341,-10.3118,-1.2602,13.767
14.028000,-8.9511,-10.1996,-1.1925,13.623
14.029000,-8.7187,-10.1061,-1.1237,13.394
14.030000,-8.3246,-10.0252,-1.0925,13.077
14.030000,-7.7663,-9.9191,-1.0966,12.645
14.031000,-7.1441,-9.8077,-1.1137,12.185
14.031000,-6.5700,-9.7400,-1.1192,11.802
14.032000,-6.0940,-9.7277,-1.0745,11.529
14.032000,-5.5983,-9.7291,-1.0245,11.271
14.033000,-5.0878,-9.7508,-0.9854,11.042
14.033000,-4.5717,-9.7955,-0.9567,10.852
14.034000,-4.0188,-9.8248,-0.9857,10.661
14.034000,-3.4481,-9.8847,-1.0354,10.520
14.035000,-2.8285,-9.9483,-1.0600,10.397
14.035000,-2.2052,-10.0800,-1.0298,10.370
14.036000,-1.6090,-10.2932,-0.9665,10.463
14.037000,-1.0421,-10.5566,-0.8989,10.646
14.041000,-0.5259,-10.8175,-0.8461,10.863
14.046000,-0.0646,-11.0124,-0.8130,11.043
14.050000,0.3563,-11.1360,-0.8112,11.171
14.058000,0.7204,-11.1797,-0.8600,11.236
14.062000,1.0523,-11.1455,-0.9376,11.234
14.066000,1.4046,-11.0239,-1.0199,11.160
14.147000,1.8019,-10.8094,-1.0660,11.010
14.148000,2.2489,-10.4857,-1.0943,10.780
14.148000,2.7194,-10.0837,-1.0834,10.500
14.149000,3.1825,-9.6237,-1.0302,10.189
14.149000,3.6404,-9.1189,-0.9321,9.863
14.149000,4.0621,-8.5773,-0.8176,9.526
14.150000,4.4406,-8.0180,-0.7059,9.193
14.150000,4.7535,-7.4731,-0.5722,8.875
14.150000,5.0082,-6.9491,-0.4408,8.577
14.151000,5.2284,-6.4632,-0.3208,8.319
14.151000,5.3878,-6.0012,-0.1980,8.067
14.152000,5.5008,-5.5694,-0.0722,7.828
14.152000,5.6001,-5.1799,0.0544,7.629
14.152000,5.6907,-4.8194,0.1126,7.458
14.153000,5.7652,-4.4880,0.1862,7.308
14.153000,5.8380,-4.1662,0.2347,7.176
14.153000,5.9240,-3.8360,0.2463,7.062
14.159000,6.0459,-3.4757,0.2476,6.978
14.163000,6.2158,-3.0844,0.2773,6.945
14.167000,6.4430,-2.6383,0.3546,6.971
14.171000,6.7393,-2.1212,0.4841,7.082
14.177000,7.0248,-1.5602,0.7282,7.233
14.182000,7.2735,-0.9478,1.0577,7.411
14.186000,7.4718,-0.3345,1.3955,7.608
14.193000,7.5984,0.2806,1.7749,7.808
14.196000,7.6696,0.8992,2.1767,8.023
14.202000,7.6538,1.5138,2.6098,8.227
14.288000,7.5845,2.1175,3.0599,8.448
14.288000,7.4528,2.7009,3.5280,8.677
14.289000,7.2830,3.2457,3.9752,8.909
14.292000,7.0868,3.7610,4.3576,9.130
14.293000,6.8783,4.2448,4.6338,9.317
14.294000,6.6701,4.6956,4.7772,9.453
14.297000,6.4586,5.1218,4.7801,9.529
14.298000,6.2706,5.5127,4.6667,9.565
14.299000,6.1419,5.9091,4.4610,9.620
14.300000,6.0578,6.2849,4.2324,9.701
14.301000,6.0014,6.6163,3.9783,9.779
14.303000,5.9608,6.9088,3.6798,9.839
14.306000,5.9327,7.1472,3.3415,9.871
14.306000,5.9267,7.3633,2.9874,9.913
14.307000,5.9211,7.5308,2.6107,9.929
14.307000,5.8918,7.6405,2.2546,9.908
14.308000,5.8462,7.6762,1.9053,9.835
14.308000,5.7765,7.6759,1.6178,9.742
14.309000,5.6689,7.6021,1.4117,9.588
14.309000,5.5070,7.4839,1.2679,9.378
14.310000,5.2985,7.3435,1.1602,9.129
14.313000,5.0680,7.1792,1.1390,8.861
14.317000,4.8754,7.0148,1.2059,8.627
14.326000,4.7190,6.8748,1.2959,8.439
14.329000,4.6157,6.7544,1.3607,8.293
14.332000,4.5324,6.6228,1.3860,8.144
14.337000,4.4551,6.4805,1.4007,7.988
14.412000,4.3865,6.3062,1.4001,7.808
14.413000,4.3004,6.1409,1.3819,7.623
14.415000,4.2236,5.9775,1.3797,7.448
14.417000,4.1587,5.8044,1.4055,7.277
14.418000,4.1322,5.6432,1.4377,7.141
14.420000,4.1395,5.5085,1.4737,7.046
14.422000,4.1972,5.4096,1.4919,7.008
14.423000,4.2885,5.3394,1.4758,7.006
14.424000,4.3966,5.3124,1.4498,7.046
14.425000,4.5379,5.3067,1.4215,7.126
14.425000,4.6882,5.3224,1.4462,7.239
14.426000,4.8451,5.3090,1.5623,7.355
14.427000,5.1087,5.2640,1.7760,7.547
14.427000,5.5218,5.0532,2.1413,7.785
14.428000,6.0147,4.5878,2.6067,8.001
14.428000,6.5420,3.8897,3.0275,8.191
14.429000,7.0824,3.0715,3.2743,8.385
14.429000,7.6600,2.2794,3.3115,8.651
14.433000,8.2487,1.5999,3.1261,8.965
14.442000,8.8487,1.0765,2.7891,9.340
14.443000,9.4717,0.7785,2.4267,9.809
14.448000,10.0390,0.6989,2.0260,10.265
14.452000,10.5335,0.8424,1.5669,10.683
14.541000,10.9670,1.2162,1.1636,11.095
14.543000,11.2984,1.8052,0.9794,11.484
14.544000,11.4982,2.5704,0.9731,11.822
14.545000,11.6089,3.4319,1.1202,12.157
14.546000,11.6555,4.2258,1.5343,12.492
14.548000,11.6419,4.8168,2.2004,12.790
14.549000,11.6272,5.1775,3.0361,13.085
14.550000,11.6826,5.3119,3.8949,13.412
14.552000,11.7860,5.2478,4.6066,13.699
14.554000,11.9581,4.9823,5.0741,13.913
14.555000,12.1656,4.5009,5.2064,13.977
14.556000,12.3391,3.7966,5.0979,13.880
14.557000,12.3836,2.9467,4.6976,13.569
14.559000,12.3125,2.1176,4.0636,13.137
14.560000,12.2008,1.3726,3.3641,12.730
14.561000,12.0204,0.7097,2.6944,12.339
14.562000,11.7420,0.1379,2.1233,11.933
14.563000,11.4094,-0.3449,1.6774,11.537
14.564000,11.0214,-0.7283,1.3090,11.123
14.564000,10.6074,-0.9903,1.0035,10.701
14.565000,10.2057,-1.1071,0.7848,10.296
14.565000,9.8245,-1.0997,0.6786,9.909
14.569000,9.5153,-0.9765,0.6938,9.590
14.573000,9.2442,-0.8054,0.8050,9.314
14.578000,8.9865,-0.6307,0.9466,9.058
14.583000,8.7199,-0.4774,1.0628,8.797
14.592000,8.3856,-0.3476,1.1389,8.470
14.594000,8.0045,-0.2347,1.1508,8.090
14.602000,7.5651,-0.1341,1.1013,7.646
14.603000,7.0699,-0.0695,1.0336,7.145
14.681000,6.5667,-0.0438,0.9694,6.638
14.682000,6.0975,-0.0772,0.9257,6.168
14.682000,5.6930,-0.1272,0.8854,5.763
14.682000,5.3366,-0.2225,0.8724,5.412
14.683000,5.0452,-0.3706,0.8791,5.135
14.683000,4.8309,-0.5593,0.8745,4.941
14.683000,4.6599,-0.7966,0.8443,4.802
14.684000,4.4949,-1.0424,0.7824,4.680
14.684000,4.3285,-1.2615,0.7297,4.567
14.684000,4.1344,-1.4753,0.7086,4.447
14.685000,3.8912,-1.6766,0.7124,4.296
14.685000,3.6154,-1.9259,0.7534,4.165
14.685000,3.3152,-2.2331,0.8227,4.081
14.686000,3.0287,-2.5632,0.9129,4.071
14.686000,2.7586,-2.9422,0.9834,4.151
14.687000,2.4979,-3.3219,0.9744,4.269
14.691000,2.2823,-3.6983,0.9147,4.441
14.692000,2.1080,-4.0643,0.8691,4.660
14.698000,1.9220,-4.4280,0.7397,4.884
14.703000,1.6981,-4.7725,0.5891,5.100
14.751000,1.4558,-5.1234,0.4174,5.343
14.752000,1.1595,-5.4608,0.2247,5.587
14.752000,0.8520,-5.7614,0.0303,5.824
14.752000,0.5700,-6.0177,-0.1585,6.047
14.753000,0.3227,-6.2258,-0.3489,6.244
14.753000,0.1053,-6.3905,-0.5580,6.416
14.753000,-0.1038,-6.5502,-0.7258,6.591
14.753000,-0.3216,-6.7226,-0.8717,6.787
14.754000,-0.5594,-6.9507,-1.0416,7.050
14.754000,-0.7911,-7.1679,-1.2334,7.316
14.758000,-0.9881,-7.3693,-1.3943,7.565
14.763000,-1.1719,-7.5071,-1.5367,7.752
14.768000,-1.3689,-7.6089,-1.6775,7.911
14.773000,-1.3853,-7.6914,-1.8147,8.023
14.778000,-1.7714,-7.7820,-1.9293,8.211
14.784000,-1.9385,-7.8785,-1.9762,8.351
14.787000,-2.0949,-7.9976,-1.9868,8.503
14.793000,-2.2456,-8.1693,-1.9850,8.702
14.798000,-2.4022,-8.3743,-1.9713,8.932
14.803000,-2.5818,-8.5896,-1.9412,9.177
14.878000,-2.7771,-8.7955,-1.8948,9.416
14.879000,-2.9667,-8.9728,-1.8299,9.626
14.880000,-3.1410,-9.1450,-1.7326,9.823
14.880000,-3.2929,-9.3201,-1.5887,10.012
14.881000,-3.4228,-9.4937,-1.4176,10.191
14.881000,-3.5283,-9.6760,-1.2050,10.369
14.881000,-3.6431,-9.8693,-0.9937,10.567
14.882000,-3.7316,-10.0570,-0.7764,10.755
14.882000,-3.8250,-10.2517,-0.5694,10.957
14.883000,-3.9095,-10.4538,-0.3556,11.167
14.883000,-3.9924,-10.6761,-0.1561,11.399
14.884000,-4.0740,-10.8898,0.0200,11.627
14.884000,-4.1427,-11.1019,0.1777,11.851
14.884000,-4.2272,-11.2764,0.3004,12.046
14.885000,-4.3396,-11.4427,0.3956,12.244
14.885000,-4.5044,-11.5774,0.4539,12.431
14.890000,-4.7097,-11.6980,0.4900,12.620
14.894000,-4.9726,-11.7635,0.4897,12.781
14.899000,-5.2907,-11.7737,0.4389,12.915
14.903000,-5.6548,-11.7170,0.3405,13.015
14.913000,-6.0460,-11.6088,0.2231,13.091
14.914000,-6.4311,-11.4568,0.0676,13.139
14.918000,-6.8295,-11.3016,-0.1162,13.205
14.994000,-7.1958,-11.1523,-0.2902,13.275
14.995000,-7.5565,-11.0497,-0.4712,13.395
14.995000,-7.8333,-10.9995,-0.6839,13.521
14.996000,-7.9999,-11.0497,-0.8759,13.670
14.996000,-8.0665,-11.1901,-1.0309,13.833
14.997000,-8.0211,-11.4109,-1.1277,13.994
14.997000,-7.9596,-11.7339,-1.1879,14.228
14.998000,-7.9493,-12.0892,-1.2832,14.525
14.998000,-8.0548,-12.3922,-1.4314,14.849
14.999000,-8.2858,-12.5950,-1.5794,15.159
14.999000,-8.5923,-12.7254,-1.7206,15.451
15.000000,-8.9098,-12.7828,-1.8318,15.689
15.000000,-9.1834,-12.7904,-1.8949,15.859
15.001000,-9.3245,-12.7934,-1.8969,15.944
15.001000,-9.3163,-12.8081,-1.8130,15.941
15.001000,-9.1611,-12.8106,-1.6827,15.839
15.010000,-8.9087,-12.7914,-1.5842,15.668
15.011000,-8.6164,-12.7164,-1.5780,15.441
15.014000,-8.2619,-12.5482,-1.6770,15.117
15.018000,-7.8045,-12.2625,-1.8357,14.651
15.024000,-7.2221,-11.8860,-1.9868,14.049
15.031000,-6.5500,-11.4744,-2.1204,13.381
15.035000,-5.7230,-11.0741,-2.2838,12.673
15.119000,-4.7502,-10.7307,-2.4383,11.986
15.120000,-3.6426,-10.4089,-2.5586,11.321
15.121000,-2.4571,-10.1093,-2.6584,10.738
15.121000,-1.2625,-9.7882,-2.7938,10.257
15.121000,-0.0680,-9.4615,-2.9540,9.912
15.122000,1.0476,-9.1536,-3.0805,9.715
15.122000,2.0490,-8.8658,-3.1212,9.620
15.122000,2.9314,-8.6125,-3.0852,9.607
15.122000,3.6492,-8.4401,-2.9811,9.666
15.123000,4.1619,-8.3849,-2.7796,9.765
15.123000,4.4430,-8.4384,-2.5191,9.864
15.123000,4.4640,-8.5852,-2.1796,9.919
15.124000,4.2658,-8.7895,-1.7810,9.931
15.124000,3.9297,-9.0022,-1.3522,9.915
15.124000,3.5040,-9.1522,-0.9771,9.849
15.125000,3.0798,-9.2547,-0.6629,9.776
15.125000,2.7052,-9.2742,-0.3857,9.668
15.125000,2.4280,-9.2408,-0.0896,9.555
15.129000,2.2560,-9.1220,0.1965,9.399
15.134000,2.2298,-8.8843,0.4754,9.172
15.139000,2.3330,-8.5448,0.7401,8.888
15.144000,2.5491,-8.0745,1.0100,8.527
15.147000,2.9184,-7.4913,1.3383,8.150
15.229000,3.4075,-6.8264,1.6745,7.811
15.230000,3.9685,-6.1151,1.9801,7.554
15.230000,4.5625,-5.3398,2.2918,7.388
15.230000,5.1152,-4.5609,2.6334,7.342
15.230000,5.5441,-3.8137,2.9718,7.356
15.231000,5.8394,-3.1194,3.3211,7.407
15.231000,6.0057,-2.4955,3.6693,7.467
15.231000,6.0739,-1.9424,4.0085,7.532
15.232000,6.0681,-1.4376,4.2930,7.571
15.232000,5.9824,-0.9976,4.5249,7.567
15.233000,5.8578,-0.5830,4.6776,7.519
15.233000,5.6966,-0.1863,4.7677,7.431
15.233000,5.5275,0.1737,4.7950,7.320
15.234000,5.3599,0.5306,4.7643,7.191
15.234000,5.2207,0.8499,4.6800,7.063
15.234000,5.1446,1.1442,4.5226,6.945
15.235000,5.1442,1.4268,4.3064,6.859
15.241000,5.2263,1.7144,4.0360,6.822
15.244000,5.3763,2.0238,3.7162,6.842
15.248000,5.5705,2.3508,3.3521,6.913
15.299000,5.7667,2.7034,2.9963,7.039
15.300000,5.9960,3.0726,2.6802,7.251
15.300000,6.2364,3.4605,2.3966,7.524
15.301000,6.4779,3.8645,2.1047,7.831
15.301000,6.7155,4.2629,1.8285,8.162
15.301000,6.9060,4.6542,1.5637,8.473
15.302000,7.0387,5.0538,1.3484,8.769
15.302000,7.1022,5.4507,1.1637,9.028
15.302000,7.1154,5.8307,1.0240,9.256
15.302000,7.1022,6.2037,0.9533,9.478
15.306000,7.0657,6.5321,0.9564,9.670
15.310000,7.0238,6.8628,1.0421,9.875
15.313000,6.9772,7.1558,1.1839,10.064
15.318000,6.9685,7.4397,1.3622,10.284
15.367000,7.0047,7.7047,1.5887,10.533
15.368000,7.0617,7.9487,1.8536,10.793
15.368000,7.1431,8.1513,2.1104,11.042
15.368000,7.2202,8.3224,2.3565,11.267
15.369000,7.2855,8.4092,2.5773,11.421
15.369000,7.3458,8.4261,2.7630,11.515
15.370000,7.4082,8.3829,2.9088,11.559
15.370000,7.4419,8.2464,3.0076,11.508
15.370000,7.4417,8.0430,3.0547,11.375
15.371000,7.4034,7.7807,3.0579,11.167
15.374000,7.3132,7.4935,3.0582,10.908
15.380000,7.2027,7.1821,3.0776,10.627
15.385000,7.1011,6.8732,3.0828,10.352
15.389000,7.0541,6.5767,3.1167,10.135
15.396000,7.0332,6.2976,3.1866,9.964
15.399000,7.0507,6.0337,3.2494,9.832
15.407000,7.0756,5.8067,3.3123,9.734
15.410000,7.0911,5.6310,3.4113,9.676
15.417000,7.0710,5.5277,3.5720,9.660
15.418000,6.9771,5.5065,3.6794,9.620
15.507000,6.8099,5.5842,3.7573,9.575
15.508000,6.5695,5.7320,3.8272,9.522
15.508000,6.2873,5.9187,3.9247,9.485
15.508000,6.0301,6.1275,4.0231,9.492
15.509000,5.7431,6.3104,4.1839,9.503
15.509000,5.5459,6.4291,4.4158,9.570
15.510000,5.4909,6.4521,4.7583,9.717
15.510000,5.5826,6.2358,5.1790,9.842
15.511000,5.8542,5.7560,5.5472,9.908
15.511000,6.2099,5.0393,5.7068,9.825
15.511000,6.5876,4.2416,5.5870,9.623
15.512000,6.9349,3.5572,5.1942,9.366
15.512000,7.2160,3.0486,4.6123,9.091
15.512000,7.4406,2.7163,3.9539,8.853
15.513000,7.6258,2.5011,3.3554,8.699
15.513000,7.8170,2.3481,2.9398,8.675
15.514000,8.0476,2.1977,2.7911,8.797
15.514000,8.3031,2.1117,2.7768,9.006
15.514000,8.5329,2.0609,2.8773,9.238
15.520000,8.6960,2.0733,3.0293,9.439
15.525000,8.8189,2.1296,3.3034,9.655
15.529000,8.8727,2.1811,3.5478,9.801
15.534000,8.8789,2.1941,3.7952,9.902
15.540000,8.8613,2.1371,4.0231,9.964
15.545000,8.8344,1.9883,4.1736,9.971
15.549000,8.8200,1.7671,4.2393,9.944
15.644000,8.8181,1.5332,4.2321,9.901
15.645000,8.8072,1.2483,4.1905,9.833
15.645000,8.7661,0.9675,4.0690,9.713
15.646000,8.6924,0.7338,3.8680,9.542
15.646000,8.6252,0.5456,3.5785,9.354
15.646000,8.5834,0.3859,3.2061,9.171
15.647000,8.5527,0.2070,2.8206,9.008
15.647000,8.5189,-0.0077,2.4892,8.875
15.648000,8.5541,-0.1910,2.1496,8.822
15.648000,8.5719,-0.3695,1.7424,8.755
15.648000,8.5751,-0.5398,1.3143,8.692
15.648000,8.5372,-0.6757,0.8755,8.609
15.649000,8.4488,-0.7746,0.4555,8.496
15.649000,8.2837,-0.8385,0.0574,8.326
15.650000,8.0609,-0.8365,-0.2637,8.108
15.650000,7.8217,-0.7463,-0.4760,7.872
15.651000,7.6038,-0.6093,-0.5327,7.647
15.651000,7.3905,-0.4574,-0.4730,7.420
15.651000,7.1959,-0.3177,-0.3483,7.211
15.652000,6.9789,-0.2272,-0.1980,6.985
15.656000,6.7497,-0.1545,-0.0704,6.752
15.660000,6.5058,-0.1002,0.0173,6.507
15.666000,6.2352,-0.0647,0.0480,6.236
