time,ax,ay,az,aT
0.006000,0.6085,0.1619,-0.9822,1.167
0.007000,0.6293,0.1052,-0.7604,0.993
0.008000,0.5341,0.0319,-0.5007,0.733
0.008000,0.3575,-0.0297,-0.3032,0.470
0.008000,0.1915,-0.0752,-0.1939,0.283
0.009000,0.0773,-0.1119,-0.1704,0.218
0.009000,0.0237,-0.1393,-0.2353,0.274
0.021000,0.0277,-0.1401,-0.3337,0.363
0.022000,0.0479,-0.0993,-0.3871,0.402
0.022000,0.0122,-0.0241,-0.3238,0.325
0.078000,-0.1184,0.0685,-0.1726,0.220
0.079000,-0.2820,0.1778,0.0117,0.334
0.079000,-0.4449,0.2867,0.2103,0.570
0.079000,-0.6213,0.3852,0.4017,0.834
0.079000,-0.7073,0.4372,0.5048,0.973
0.079000,-0.6255,0.4735,0.4770,0.918
0.079000,-0.3718,0.4632,0.4115,0.723
0.080000,-0.0661,0.3896,0.3755,0.545
0.080000,0.2076,0.2718,0.3402,0.482
0.080000,0.3929,0.1457,0.2867,0.508
0.080000,0.4735,0.0470,0.1933,0.514
0.090000,0.4850,0.0073,0.0289,0.486
0.090000,0.4451,0.0008,-0.1972,0.487
0.104000,0.3809,0.0283,-0.4497,0.590
0.105000,0.2906,0.0668,-0.6666,0.730
0.105000,0.1896,0.0808,-0.8125,0.838
0.110000,0.1988,0.0801,-0.8566,0.883
0.113000,-0.0334,0.0480,-0.8036,0.806
0.117000,-0.1289,-0.0017,-0.6726,0.685
0.154000,-0.2142,-0.0406,-0.5065,0.551
0.155000,-0.2626,-0.0790,-0.3481,0.443
0.155000,-0.2569,-0.0791,-0.2091,0.341
0.155000,-0.2060,-0.0529,-0.1060,0.238
0.155000,-0.1453,-0.0055,-0.0388,0.150
0.156000,-0.0888,0.0440,0.0093,0.100
0.156000,-0.0506,0.1004,0.0719,0.133
0.167000,-0.0400,0.1392,0.1707,0.224
0.168000,-0.0714,0.1652,0.2746,0.328
0.168000,-0.1255,0.1877,0.3430,0.411
0.178000,-0.1909,0.1948,0.3738,0.463
0.179000,-0.2486,0.1842,0.3571,0.472
0.184000,-0.2924,0.1608,0.2643,0.426
0.201000,-0.2941,0.1348,0.1407,0.353
0.202000,-0.2513,0.1183,0.0269,0.279
0.202000,-0.1929,0.1381,-0.0512,0.243
0.202000,-0.1472,0.1561,-0.0961,0.235
0.215000,-0.1265,0.1624,-0.1195,0.238
0.216000,-0.1019,0.1667,-0.1240,0.231
0.217000,-0.0806,0.1521,-0.0999,0.199
0.224000,-0.0860,0.1543,-0.0855,0.196
0.230000,-0.1153,0.1278,-0.0735,0.187
0.232000,-0.1398,0.1300,-0.0758,0.205
0.278000,-0.1425,0.1250,-0.0876,0.209
0.279000,-0.1209,0.1177,-0.0780,0.186
0.279000,-0.0726,0.1320,-0.0636,0.163
0.280000,-0.0071,0.1534,-0.0420,0.159
0.280000,0.0589,0.1604,-0.0012,0.171
0.280000,0.1088,0.1385,0.0611,0.186
0.280000,0.1329,0.1211,0.1403,0.228
0.280000,0.1287,0.0962,0.2124,0.266
0.281000,0.1294,0.0923,0.2607,0.305
0.289000,0.1322,0.0998,0.2878,0.332
0.290000,0.1154,0.0949,0.2839,0.321
0.302000,0.0787,0.0851,0.2490,0.275
0.303000,0.0555,0.0701,0.1952,0.215
0.303000,0.0458,0.0432,0.1294,0.144
0.307000,0.0498,0.0165,0.0661,0.084
0.314000,0.0772,0.0018,0.0099,0.078
0.319000,0.1044,-0.0292,-0.0344,0.114
0.335000,0.1006,-0.0505,-0.0548,0.125
0.338000,0.0970,-0.0669,-0.0512,0.129
0.339000,0.0865,-0.0761,-0.0478,0.125
0.340000,0.0644,-0.0852,-0.0323,0.112
0.345000,0.0475,-0.0850,-0.0335,0.103
0.348000,0.0284,-0.0848,-0.0490,0.102
0.352000,-0.0074,-0.0919,-0.0980,0.135
0.386000,-0.0668,-0.0989,-0.1827,0.218
0.387000,-0.1403,-0.1031,-0.2700,0.321
0.387000,-0.2350,-0.0924,-0.3669,0.445
0.387000,-0.3437,-0.0572,-0.4569,0.575
0.387000,-0.4261,-0.0213,-0.5303,0.681
0.388000,-0.4535,0.0032,-0.5992,0.751
0.398000,-0.3757,0.0166,-0.6947,0.790
0.399000,-0.1999,0.0093,-0.7953,0.820
0.399000,-0.1219,-0.0470,-0.9274,0.937
0.413000,-0.1586,-0.1349,-1.0387,1.059
0.413000,-0.2669,-0.2303,-1.1316,1.185
0.414000,-0.3851,-0.2806,-1.2899,1.375
0.418000,-0.3804,-0.2687,-1.5520,1.620
0.432000,0.0716,-0.2225,-2.7026,2.713
0.433000,0.2139,-0.0745,-3.0394,3.048
0.433000,0.1481,-0.0339,-3.1665,3.170
0.495000,0.1283,-0.2867,-3.9164,3.929
0.496000,0.2941,-0.2280,-4.4128,4.428
0.496000,0.2728,-0.3504,-4.4433,4.465
0.497000,0.0517,-0.6274,-4.2424,4.289
0.497000,-0.0938,-0.6882,-3.6425,3.708
0.497000,-0.2353,-0.7987,-2.8518,2.971
0.498000,-0.3922,-0.9289,-2.1798,2.402
0.498000,-0.5806,-1.2292,-1.8453,2.292
0.498000,-0.6752,-1.4739,-1.6080,2.283
0.499000,-0.6203,-1.6691,-1.5292,2.347
0.499000,-0.4176,-1.7002,-1.4434,2.269
0.499000,-0.1705,-1.7135,-1.5299,2.303
0.499000,0.0759,-1.6997,-1.8058,2.481
0.506000,0.1811,-1.8198,-2.3550,2.982
0.518000,0.2895,-1.9241,-3.0433,3.612
0.519000,0.2581,-2.1042,-3.6555,4.226
0.519000,0.1671,-2.2074,-3.7152,4.325
0.524000,0.0897,-2.2533,-3.4571,4.128
0.528000,-0.0083,-2.3055,-3.2470,3.982
0.533000,-0.1316,-2.3364,-3.0914,3.877
0.575000,-0.2724,-2.3679,-2.8440,3.711
0.576000,-0.5042,-2.4811,-2.6318,3.652
0.576000,-0.6856,-2.5339,-2.4236,3.573
0.576000,-0.8308,-2.5712,-2.2076,3.489
0.577000,-0.8593,-2.5142,-1.9887,3.319
0.577000,-0.8324,-2.4778,-1.9803,3.279
0.577000,-0.7616,-2.4368,-2.0455,3.271
0.578000,-0.6136,-2.3974,-2.0069,3.186
0.578000,-0.3524,-2.2902,-1.8808,2.984
0.587000,-0.0225,-2.1851,-1.8748,2.879
0.588000,0.4434,-2.0388,-1.9282,2.841
0.598000,0.9177,-1.9438,-2.0122,2.944
0.599000,1.2471,-1.8920,-2.1195,3.103
0.604000,1.4948,-1.8332,-2.2717,3.280
0.608000,1.5853,-1.7600,-2.4354,3.397
0.614000,1.6053,-1.6379,-2.6058,3.471
0.619000,1.6113,-1.4632,-2.6576,3.435
0.629000,1.7216,-1.2142,-2.5175,3.283
0.630000,1.9663,-0.9177,-2.3131,3.172
0.633000,2.2452,-0.6801,-2.1598,3.189
0.652000,2.4876,-0.5060,-2.0953,3.292
0.654000,2.6729,-0.3852,-2.0702,3.403
0.654000,2.6589,-0.3430,-1.8639,3.265
0.655000,2.4012,-0.3175,-1.5396,2.870
0.658000,1.9222,-0.2680,-1.2128,2.289
0.666000,1.3660,-0.1681,-0.8984,1.644
0.668000,1.0051,0.1766,-0.5463,1.158
0.676000,0.6973,0.5918,-0.3349,0.974
0.678000,0.4583,1.0379,-0.2566,1.163
0.683000,0.2969,1.4552,-0.1700,1.495
0.713000,0.0932,1.7699,-0.0296,1.773
0.715000,-0.1506,1.9780,0.0973,1.986
0.715000,-0.3878,2.1094,0.2671,2.161
0.715000,-0.6375,2.1957,0.5080,2.342
0.716000,-0.9413,2.2273,0.8067,2.549
0.716000,-1.1102,2.2185,1.0436,2.691
0.719000,-1.0627,2.1955,1.1831,2.711
0.723000,-0.8201,2.1780,1.0620,2.558
0.729000,-0.4102,2.1355,0.7847,2.312
0.734000,0.1438,2.0989,0.3387,2.131
0.744000,0.8173,2.1528,-0.1276,2.306
0.745000,1.2817,2.2763,-0.3537,2.636
0.749000,1.3639,2.4619,-0.4191,2.846
0.754000,1.3391,2.4460,-0.4960,2.832
0.759000,1.2851,2.2670,-0.3715,2.632
0.763000,1.1957,2.0594,-0.0015,2.381
0.768000,1.0529,1.8395,0.4204,2.161
0.799000,0.9984,1.7242,0.7711,2.136
0.800000,1.1780,1.8073,1.0898,2.417
0.801000,1.4295,2.0430,1.2182,2.775
0.801000,1.6179,2.2611,1.2293,3.040
0.801000,1.6757,2.3969,1.1006,3.125
0.801000,1.6092,2.3824,0.9344,3.023
0.811000,1.3794,2.1535,0.7418,2.663
0.812000,0.8943,1.8935,0.5897,2.176
0.815000,0.3353,1.6315,0.4815,1.734
0.819000,-0.0324,1.4569,0.5165,1.546
0.823000,-0.1332,1.4391,0.8465,1.675
0.828000,-0.0938,1.5504,1.4200,2.105
0.836000,-0.1075,1.5920,1.9081,2.487
0.840000,0.1224,1.9703,2.5651,3.237
0.845000,0.5229,2.2638,3.2967,4.033
0.849000,0.8843,2.2266,3.7364,4.438
0.858000,1.1885,2.0228,3.9105,4.560
0.859000,1.5949,1.8785,3.8708,4.589
0.864000,2.2149,1.8674,3.7138,4.710
0.868000,3.0134,1.9480,3.4819,5.000
0.900000,3.9311,2.0527,3.3320,5.547
0.901000,4.7985,2.1948,3.2521,6.198
0.902000,5.5554,2.5935,3.0654,6.855
0.902000,5.9422,2.7882,2.8999,7.176
0.902000,6.0849,2.6522,2.8738,7.233
0.903000,6.1297,2.4655,2.7426,7.154
0.906000,6.0586,2.4215,2.5122,6.992
0.910000,5.7907,2.3791,2.2924,6.667
0.915000,5.3117,2.2838,1.9187,6.092
0.918000,4.6813,2.1083,1.6050,5.379
0.924000,4.0851,1.9695,1.4562,4.763
0.929000,3.6050,1.9522,1.4387,4.345
0.934000,3.3077,2.0281,1.5622,4.183
0.939000,3.1320,2.1770,1.7171,4.183
0.944000,3.1375,2.5046,1.8807,4.433
0.948000,3.0604,2.7549,2.0137,4.584
0.956000,2.7684,2.6880,2.0617,4.375
0.959000,2.4540,2.5112,1.9243,4.004
0.964000,2.1506,2.2665,1.7269,3.570
0.969000,1.9158,2.0317,1.5489,3.193
1.011000,1.7574,1.8463,1.2852,2.855
1.012000,1.5769,1.6944,0.9321,2.495
1.013000,1.4441,1.5988,0.5545,2.225
1.013000,1.4376,1.7416,-0.1267,2.262
1.013000,1.6175,2.1648,-0.5343,2.755
1.013000,1.8811,2.4742,-0.3788,3.131
1.014000,1.9503,2.5140,0.0116,3.182
1.014000,1.7500,2.2679,0.2961,2.880
1.019000,1.0338,2.2256,-0.9724,2.640
1.020000,0.4504,2.4188,-2.4971,3.506
1.024000,-0.2338,2.2992,-2.8250,3.650
1.030000,-0.9807,1.7987,-2.7002,3.389
1.035000,-1.6469,1.0921,-2.4888,3.178
1.042000,-2.0870,0.4780,-2.1983,3.069
1.044000,-2.4323,-0.0464,-1.8497,3.056
1.049000,-2.6637,-0.4986,-1.3655,3.035
1.054000,-2.7792,-0.7754,-0.9856,3.049
1.059000,-2.7391,-0.9902,-0.4204,2.943
1.064000,-2.5334,-1.1056,0.4091,2.794
1.069000,-2.2217,-1.0477,1.1470,2.711
1.075000,-2.0009,-0.8279,1.5371,2.655
1.080000,-1.8621,-0.5380,1.7767,2.629
1.085000,-1.8255,-0.1903,1.6258,2.452
1.104000,-1.7127,0.1558,1.2923,2.151
1.107000,-1.5038,0.5916,0.8265,1.815
1.108000,-1.1294,1.0516,0.4561,1.609
1.117000,-0.7685,1.3550,0.2355,1.575
1.117000,-0.5220,1.4055,0.2842,1.526
1.118000,-0.4222,1.2923,0.3235,1.397
1.119000,-0.4378,1.1380,0.3224,1.261
1.152000,-0.5998,0.9739,0.3338,1.192
1.153000,-0.8712,0.8030,0.4430,1.265
1.154000,-1.2248,0.6089,0.5627,1.479
1.154000,-1.5568,0.3801,0.7471,1.768
1.155000,-1.7617,0.1217,1.0075,2.033
1.155000,-1.9488,-0.0895,1.2639,2.324
1.155000,-2.0798,-0.2627,1.4804,2.566
1.159000,-2.1193,-0.3604,1.6620,2.717
1.164000,-2.0646,-0.3805,1.8441,2.794
1.171000,-1.9590,-0.3768,2.0475,2.859
1.174000,-1.7524,-0.3212,2.3198,2.925
1.180000,-1.4499,-0.2228,2.6390,3.019
1.186000,-1.1118,-0.1263,2.9254,3.132
1.190000,-0.8046,-0.1140,3.1258,3.230
1.194000,-0.5066,-0.2055,3.1941,3.241
1.200000,-0.3110,-0.3669,3.0258,3.064
1.242000,-0.2779,-0.5969,2.6849,2.764
1.243000,-0.4265,-0.9057,2.2281,2.443
1.244000,-0.8440,-1.4291,1.6911,2.369
1.244000,-1.2050,-1.8383,0.9582,2.398
1.244000,-1.3828,-1.9538,0.1144,2.396
1.244000,-1.4771,-1.9020,-0.7280,2.516
1.245000,-1.5106,-1.8283,-1.4019,2.755
1.245000,-1.5245,-1.7588,-1.9622,3.044
1.245000,-1.4967,-1.7182,-2.4451,3.342
1.251000,-1.3797,-1.6603,-2.9270,3.637
1.255000,-1.1598,-1.5661,-3.3327,3.861
1.260000,-0.8812,-1.4387,-3.6419,4.014
1.266000,-0.6409,-1.3343,-3.8362,4.112
1.269000,-0.4521,-1.2853,-3.9070,4.138
1.274000,-0.3128,-1.2908,-3.7392,3.968
1.279000,-0.1794,-1.3355,-3.3818,3.640
1.286000,-0.0948,-1.3949,-3.0418,3.348
1.290000,-0.0710,-1.4965,-2.7071,3.094
1.294000,-0.1097,-1.5940,-2.4197,2.900
1.300000,-0.2177,-1.6760,-2.1682,2.749
1.342000,-0.4518,-1.7954,-1.9296,2.674
1.343000,-0.7248,-2.0288,-1.7869,2.799
1.344000,-0.9957,-2.1221,-2.0554,3.118
1.344000,-1.1764,-2.2430,-2.2273,3.373
1.345000,-1.3771,-2.3411,-2.2447,3.524
1.345000,-1.6356,-2.4186,-2.1202,3.608
1.346000,-2.0571,-2.4132,-1.9851,3.741
1.346000,-2.5246,-2.5301,-1.7067,3.961
1.347000,-2.8834,-2.8209,-1.3786,4.263
1.349000,-3.2024,-3.3469,-0.9657,4.732
1.356000,-3.4540,-3.9984,-0.6882,5.328
1.361000,-3.6187,-4.6498,-0.6273,5.925
1.366000,-3.7828,-5.3192,-0.4350,6.542
1.371000,-3.8911,-5.9120,-0.2025,7.080
1.375000,-3.9620,-6.4088,-0.0959,7.535
1.380000,-3.8379,-6.7849,0.0727,7.795
1.384000,-3.7254,-6.9752,0.0239,7.908
1.390000,-4.0418,-6.9962,-0.1479,8.081
1.395000,-4.5780,-6.9704,-0.0752,8.340
1.399000,-5.1206,-6.9313,0.4769,8.631
1.406000,-5.6285,-6.9978,1.4590,9.098
1.410000,-5.8340,-7.1826,2.7424,9.651
1.415000,-5.3536,-7.4085,4.2710,10.089
1.451000,-4.4320,-7.5385,5.7613,10.472
1.452000,-3.5202,-7.3064,6.3263,10.286
1.453000,-2.7630,-6.5764,5.3407,8.911
1.453000,-1.8759,-5.6177,3.5035,6.881
1.454000,-0.7539,-4.6848,1.4894,4.973
1.454000,0.5389,-3.8354,-0.3057,3.885
1.455000,1.8375,-3.0629,-1.6612,3.939
1.455000,2.9115,-2.4303,-2.4719,4.527
1.460000,3.6244,-1.9797,-2.7715,4.974
1.465000,4.0055,-1.6281,-2.7334,5.115
1.471000,4.1825,-1.2937,-2.5183,5.051
1.476000,4.1691,-1.0548,-2.2045,4.833
1.481000,4.0451,-0.8261,-2.0603,4.614
1.486000,3.8895,-0.5761,-2.0109,4.416
1.490000,3.7716,-0.3308,-2.0489,4.305
1.497000,3.7586,-0.1324,-2.0879,4.302
1.501000,3.8279,0.0010,-2.0419,4.338
1.547000,4.0054,0.0603,-1.9871,4.472
1.549000,4.2236,0.0642,-1.8920,4.628
1.550000,4.3671,0.0484,-1.7349,4.699
1.550000,4.4192,0.0132,-1.5803,4.693
1.551000,4.4152,-0.0469,-1.4209,4.638
1.552000,4.3504,-0.1075,-1.2544,4.529
1.553000,4.1824,-0.1990,-1.1312,4.337
1.553000,3.9162,-0.2993,-1.0271,4.060
1.554000,3.6008,-0.4119,-0.9712,3.752
1.554000,3.3033,-0.4935,-0.9491,3.472
1.559000,3.0387,-0.5457,-0.9077,3.218
1.561000,2.7926,-0.5827,-0.8471,2.976
1.565000,2.5124,-0.6687,-0.7618,2.709
1.571000,2.7053,-0.8416,-0.7351,2.927
1.575000,2.9745,-1.1119,-0.7063,3.253
1.580000,2.4227,-1.1765,-0.7041,2.784
1.585000,1.6128,-0.9712,-0.6381,1.988
1.591000,0.9849,-0.6310,-0.5589,1.296
1.595000,0.5923,-0.3060,-0.5583,0.870
1.600000,0.5015,-0.0537,-0.7412,0.897
1.611000,0.6008,0.1368,-1.0441,1.212
1.612000,0.9059,0.3580,-1.4341,1.734
1.619000,1.3699,0.6307,-1.8317,2.373
1.674000,1.7504,0.9392,-2.1440,2.923
1.675000,2.0950,1.2212,-2.4046,3.415
1.675000,2.2358,1.4807,-2.6237,3.752
1.675000,2.2763,1.7062,-2.8023,3.993
1.676000,2.2362,1.9364,-3.0414,4.243
1.676000,2.2090,2.1643,-3.2279,4.470
1.676000,2.2543,2.3567,-3.2966,4.637
1.677000,2.3670,2.5323,-3.2646,4.762
1.677000,2.5012,2.7052,-3.2180,4.892
1.677000,2.5726,2.8367,-2.9911,4.859
1.678000,2.6554,2.9244,-2.7475,4.812
1.678000,2.7349,2.9990,-2.5731,4.806
1.682000,2.7322,3.0748,-2.3510,4.738
1.687000,2.6497,3.1805,-2.1656,4.672
1.691000,2.7168,3.7700,-2.4085,5.234
1.696000,2.7171,4.1463,-2.3189,5.473
1.700000,2.6296,4.2331,-1.8236,5.307
1.706000,2.3332,4.1191,-1.4055,4.938
1.711000,1.9214,3.8166,-1.1251,4.419
1.716000,1.5096,3.5225,-0.8328,3.922
1.724000,1.1822,3.3095,-0.4623,3.545
1.726000,0.9372,3.1397,-0.0108,3.277
1.730000,0.7011,2.9970,0.3442,3.097
1.737000,0.4599,2.9227,0.6441,3.028
1.787000,0.1706,2.8784,0.8940,3.019
1.788000,-0.1950,2.7734,1.0939,2.988
1.788000,-0.5832,2.6427,1.1981,2.960
1.789000,-0.9568,2.4516,1.2376,2.908
1.789000,-1.3355,2.2122,1.1669,2.835
1.789000,-1.6680,1.9834,0.9488,2.760
1.790000,-1.9011,1.8498,0.6976,2.743
1.790000,-1.9060,1.8977,0.4986,2.735
1.790000,-1.7074,2.1334,0.3907,2.760
1.790000,-1.2564,2.5294,0.3902,2.851
1.792000,-0.7622,2.9501,0.4215,3.076
1.795000,-0.3836,3.2891,0.3854,3.334
1.800000,-0.1282,3.5386,0.2963,3.553
1.805000,0.0684,3.7246,0.2047,3.731
1.811000,0.2846,3.8587,0.1277,3.871
1.817000,0.5105,3.9836,0.0681,4.017
1.825000,0.6789,4.0703,0.0213,4.127
1.826000,0.7966,4.1567,-0.0129,4.232
1.831000,0.8709,4.2498,-0.0202,4.338
1.874000,0.9228,4.3684,-0.0084,4.465
1.875000,0.9668,4.5122,0.0079,4.615
1.875000,0.9906,4.6378,0.0454,4.743
1.875000,0.9748,4.7212,0.0707,4.821
1.876000,0.9005,4.7791,0.0789,4.864
1.876000,0.7845,4.7974,0.1014,4.862
1.876000,0.6366,4.7835,0.1476,4.828
1.876000,0.5026,4.7712,0.2435,4.804
1.877000,0.4235,4.7705,0.3483,4.802
1.883000,0.3969,4.7933,0.5099,4.837
1.886000,0.4179,4.8300,0.7542,4.906
1.891000,0.4814,4.8732,1.0311,5.004
1.896000,0.5007,4.8672,1.3549,5.077
1.901000,0.4760,4.8003,1.6537,5.099
1.907000,0.4698,4.6750,1.9225,5.077
1.911000,0.5205,4.4917,2.0936,4.983
1.917000,0.6596,4.3012,2.1220,4.841
1.926000,1.0068,4.3047,1.9438,4.829
1.928000,1.3480,4.2594,1.8402,4.832
1.931000,1.5852,4.1010,1.6390,4.692
1.978000,1.6519,3.8348,1.3049,4.375
1.979000,1.5944,3.5265,0.9178,3.978
1.979000,1.4879,3.2680,0.5259,3.629
1.979000,1.4834,3.1554,0.1274,3.489
1.980000,1.6143,3.1409,-0.2080,3.538
1.980000,1.9188,3.1814,-0.4848,3.747
1.981000,2.3793,3.3289,-0.6406,4.142
1.981000,2.9618,3.5922,-0.6516,4.701
1.981000,4.1450,4.6293,-0.5258,6.236
1.982000,4.8140,4.7381,-0.2119,6.758
1.987000,5.1661,4.4611,0.2545,6.830
1.991000,5.3553,4.0308,0.8600,6.758
1.996000,5.2911,3.4043,1.4953,6.467
2.002000,5.0586,2.7119,2.0503,6.095
2.007000,4.8577,2.0889,2.4281,5.819
2.013000,5.4275,2.7189,2.4161,6.534
2.017000,5.4099,2.9823,2.4472,6.645
2.026000,6.4274,2.6504,2.8968,7.532
2.027000,6.7909,2.1643,3.0362,7.747
2.031000,7.1274,1.6121,2.7285,7.800
2.036000,7.3578,1.0300,2.1988,7.748
2.073000,7.5183,0.6360,1.6262,7.718
2.074000,7.5452,0.5458,1.0385,7.636
2.075000,7.2620,0.6353,0.3942,7.300
2.075000,6.7202,0.6880,-0.2483,6.760
2.075000,6.3033,0.9996,-0.6384,6.414
2.076000,6.0302,1.3427,-0.5905,6.206
2.076000,5.5640,1.6482,-0.2570,5.809
2.076000,4.9985,1.9189,0.4819,5.376
2.083000,4.5960,2.1411,1.3623,5.250
2.087000,4.5024,2.2640,2.0896,5.456
2.091000,4.7429,2.1663,2.5657,5.811
2.097000,5.2230,1.8159,2.8261,6.210
2.103000,5.7864,1.3459,2.7939,6.565
2.109000,6.4634,0.8341,2.4462,6.961
2.113000,7.1599,0.4929,2.2457,7.520
2.117000,7.5501,0.2740,2.0768,7.835
2.122000,7.5230,0.0205,1.9696,7.777
2.127000,7.4623,-0.3984,1.7555,7.676
2.132000,7.5931,-0.8387,1.3759,7.762
2.146000,7.7521,-1.2573,0.8278,7.897
2.148000,7.8865,-1.6260,0.2489,8.056
2.148000,7.9226,-1.9146,-0.4334,8.162
2.152000,7.8201,-2.1157,-1.1802,8.187
2.206000,7.5769,-2.2548,-1.8805,8.126
2.207000,7.2173,-2.3266,-2.4834,7.979
2.207000,6.8424,-2.3207,-2.9726,7.813
2.208000,6.5024,-2.2086,-3.3513,7.641
2.208000,6.2098,-1.9917,-3.6533,7.475
2.209000,5.9500,-1.7353,-3.8795,7.312
2.210000,5.7088,-1.4658,-4.0214,7.135
2.211000,5.4838,-1.2122,-4.0748,6.939
2.212000,5.2914,-0.9586,-4.0358,6.724
2.213000,5.1675,-0.6809,-3.9280,6.527
2.213000,5.0854,-0.4231,-3.8027,6.364
2.214000,5.0306,-0.1977,-3.6407,6.213
2.218000,4.9740,0.0068,-3.4322,6.043
2.222000,4.8817,0.1844,-3.1992,5.840
2.228000,4.7421,0.3380,-2.9674,5.604
2.232000,4.5332,0.3951,-2.6985,5.290
2.238000,4.2573,0.3720,-2.3850,4.894
2.244000,3.9195,0.2953,-2.0510,4.434
2.246000,3.5630,0.1860,-1.7281,3.964
2.253000,3.2670,0.0668,-1.4631,3.580
2.259000,3.0287,-0.0632,-1.2824,3.290
2.263000,2.7930,-0.2183,-1.1780,3.039
2.267000,2.5596,-0.3839,-1.1178,2.819
2.274000,2.3332,-0.5702,-1.1136,2.647
2.278000,2.0923,-0.7542,-1.1758,2.516
2.282000,1.8391,-0.9410,-1.3064,2.444
2.286000,1.5591,-1.1110,-1.5070,2.436
2.334000,1.2261,-1.2779,-1.7267,2.473
2.336000,0.8687,-1.4750,-1.9101,2.565
2.336000,0.4872,-1.6834,-2.0014,2.660
2.337000,0.1222,-1.9130,-2.0180,2.783
2.337000,-0.2427,-2.1682,-1.9698,2.939
2.338000,-0.6435,-2.3985,-1.8927,3.122
2.338000,-1.0253,-2.5895,-1.8848,3.363
2.338000,-1.3620,-2.7415,-1.8498,3.577
2.339000,-1.6152,-2.8654,-1.7807,3.740
2.339000,-1.7732,-2.9906,-1.6681,3.856
2.342000,-1.8694,-3.1058,-1.5010,3.923
2.347000,-1.9155,-3.2210,-1.3400,3.980
2.353000,-1.9424,-3.3375,-1.1574,4.031
2.357000,-1.9637,-3.4495,-0.9834,4.089
2.364000,-1.9577,-3.5678,-0.9022,4.168
2.368000,-1.9338,-3.6566,-0.9216,4.238
2.375000,-1.4899,-3.2814,-0.9681,3.732
2.378000,-1.3081,-3.3133,-1.1904,3.756
2.383000,-1.4399,-3.6706,-1.2658,4.141
2.388000,-1.7673,-4.1228,-1.5330,4.740
2.418000,-2.1301,-4.5751,-2.0074,5.431
2.420000,-2.4333,-4.9882,-2.4001,6.047
2.421000,-2.6364,-5.3190,-2.6582,6.504
2.421000,-2.7347,-5.5678,-2.7968,6.804
2.422000,-2.7495,-5.7516,-2.9193,7.012
2.423000,-2.6836,-5.8440,-3.0955,7.137
2.423000,-2.6208,-5.8978,-3.3341,7.264
2.428000,-2.6263,-5.9829,-3.5795,7.450
2.433000,-2.5831,-6.0524,-3.7210,7.560
2.438000,-2.5318,-6.1455,-3.7758,7.644
2.444000,-2.5781,-6.3697,-3.8128,7.859
2.448000,-2.6213,-6.6412,-3.8106,8.093
2.453000,-2.6234,-6.9268,-3.7000,8.280
2.457000,-2.5507,-7.1538,-3.4911,8.359
2.463000,-2.4895,-7.3449,-3.3157,8.434
2.467000,-2.5021,-7.5362,-3.2330,8.574
2.475000,-2.5815,-7.7111,-3.1899,8.735
2.480000,-2.7132,-7.8915,-3.1122,8.906
2.482000,-2.8567,-8.0738,-3.0099,9.078
2.531000,-3.0069,-8.2606,-2.8928,9.255
2.533000,-3.1402,-8.4516,-2.7585,9.429
2.533000,-3.2709,-8.6013,-2.6074,9.565
2.534000,-3.4132,-8.7504,-2.4875,9.716
2.534000,-3.5602,-8.8848,-2.3531,9.857
2.535000,-3.7118,-8.9536,-2.2071,9.941
2.535000,-3.8823,-8.9838,-2.0637,10.002
2.536000,-4.0982,-8.9731,-1.9779,10.061
2.536000,-4.3833,-8.9333,-1.9592,10.142
2.537000,-4.7162,-8.8738,-1.9928,10.245
2.538000,-5.0758,-8.7863,-2.0690,10.356
2.544000,-5.4598,-8.6659,-2.1947,10.475
2.547000,-5.8469,-8.5121,-2.3288,10.586
2.554000,-6.2040,-8.3173,-2.4735,10.667
2.557000,-6.5192,-8.1390,-2.6048,10.748
2.564000,-6.6946,-8.0239,-2.6729,10.786
2.569000,-6.6969,-8.0148,-2.6711,10.781
2.574000,-6.5621,-8.1141,-2.6287,10.761
2.579000,-6.3859,-8.2667,-2.5505,10.753
2.583000,-6.2066,-8.4516,-2.4553,10.769
2.630000,-6.0911,-8.6093,-2.3242,10.799
2.631000,-6.0967,-8.7353,-2.1785,10.873
2.631000,-6.2015,-8.8199,-2.0425,10.974
2.632000,-6.3745,-8.8627,-1.9473,11.089
2.632000,-6.5988,-8.9060,-1.8718,11.241
2.633000,-6.8095,-8.9421,-1.8045,11.384
2.633000,-6.9232,-8.9749,-1.7599,11.471
2.633000,-6.9134,-8.9943,-1.7814,11.483
2.634000,-6.8065,-9.0215,-1.8499,11.452
2.634000,-6.5882,-9.0271,-1.9392,11.343
2.642000,-6.2413,-9.0143,-2.0092,11.147
2.643000,-5.8158,-8.9638,-2.0937,10.888
2.648000,-5.3211,-8.8639,-2.2047,10.571
2.654000,-4.7689,-8.6961,-2.3276,10.187
2.657000,-4.1639,-8.4778,-2.4641,9.761
2.662000,-3.5228,-8.2235,-2.5946,9.315
2.667000,-2.8453,-7.9738,-2.6993,8.886
2.674000,-2.1314,-7.7696,-2.7275,8.506
2.678000,-1.3617,-7.6426,-2.6887,8.215
2.683000,-0.5673,-7.5984,-2.5950,8.049
2.690000,0.1612,-7.6557,-2.4748,8.047
2.694000,0.8025,-7.7902,-2.3161,8.167
2.697000,1.3566,-7.9723,-2.1191,8.360
2.702000,1.8264,-8.1421,-1.9051,8.559
2.748000,2.2214,-8.2806,-1.7006,8.740
2.751000,2.5635,-8.3772,-1.5145,8.891
2.754000,2.8478,-8.4287,-1.2894,8.990
2.756000,3.0988,-8.4248,-1.0307,9.036
2.760000,3.3335,-8.3749,-0.7721,9.047
2.761000,3.5904,-8.2598,-0.5137,9.021
2.763000,3.8578,-8.0502,-0.2889,8.932
2.764000,4.1451,-7.7271,-0.0907,8.769
2.765000,4.4597,-7.3140,0.0689,8.567
2.765000,4.7850,-6.8214,0.1898,8.334
2.766000,5.0776,-6.2694,0.2912,8.073
2.766000,5.3159,-5.6732,0.3853,7.784
2.768000,5.4927,-5.0755,0.5132,7.496
2.774000,5.6240,-4.4483,0.6465,7.200
2.779000,5.7311,-3.8151,0.7615,6.927
2.785000,5.7873,-3.1764,0.8370,6.655
2.790000,5.7780,-2.5471,0.9019,6.379
2.794000,5.6912,-1.9194,0.9161,6.076
2.799000,5.5379,-1.3217,0.9298,5.769
2.804000,5.3159,-0.7745,0.9527,5.456
2.809000,5.0728,-0.2754,0.9847,5.175
2.813000,4.8422,0.1566,1.0255,4.952
2.818000,4.6577,0.5724,1.0556,4.810
2.829000,4.5305,0.9755,1.0769,4.758
2.831000,4.4272,1.3592,1.0774,4.755
2.833000,4.3093,1.7092,1.0687,4.757
2.844000,4.1718,2.0325,1.0940,4.768
2.845000,4.0246,2.3015,1.1172,4.769
2.889000,3.8695,2.5007,1.1403,4.746
2.890000,3.6973,2.6550,1.1370,4.692
2.890000,3.5056,2.7769,1.1383,4.615
2.890000,3.3234,2.8907,1.1298,4.547
2.891000,3.1533,3.0068,1.0924,4.492
2.891000,2.9925,3.1555,1.0333,4.470
2.891000,2.8724,3.3232,0.9694,4.498
2.892000,2.8142,3.4954,0.9078,4.578
2.892000,2.7821,3.6604,0.8435,4.674
2.902000,2.7764,3.7946,0.7814,4.766
2.903000,2.7724,3.9091,0.7115,4.845
2.903000,2.7656,4.0404,0.6342,4.937
2.915000,2.7441,4.2077,0.5638,5.055
2.916000,2.7459,4.3870,0.5101,5.201
2.920000,2.7617,4.5812,0.4515,5.368
2.933000,2.7742,4.7943,0.4097,5.554
2.934000,2.7929,5.0002,0.4209,5.743
2.935000,2.8248,5.1916,0.4874,5.930
3.014000,2.8624,5.3684,0.5900,6.112
3.015000,2.8699,5.5044,0.7265,6.250
3.015000,2.8275,5.6250,0.8967,6.359
3.015000,2.7642,5.7068,1.0713,6.431
3.016000,2.6776,5.7641,1.2646,6.480
3.016000,2.5943,5.7900,1.4211,6.502
3.016000,2.5504,5.7895,1.5552,6.515
3.017000,2.5458,5.7581,1.6502,6.508
3.017000,2.5347,5.6884,1.6991,6.455
3.018000,2.5127,5.6143,1.7095,6.384
3.019000,2.4510,5.5337,1.6935,6.285
3.019000,2.3786,5.4443,1.6800,6.174
3.020000,2.2983,5.3659,1.6690,6.071
3.020000,2.2413,5.2769,1.6599,5.969
3.021000,2.2320,5.2112,1.6428,5.902
3.021000,2.3017,5.1377,1.6006,5.853
3.022000,2.4453,5.0805,1.5453,5.846
3.026000,2.6201,5.0420,1.4911,5.875
3.028000,2.8350,5.0146,1.4382,5.937
3.034000,3.0447,5.0055,1.4056,6.025
3.039000,3.2418,5.0027,1.3934,6.122
3.045000,3.4334,4.9845,1.4111,6.215
3.049000,3.6509,4.9776,1.4540,6.342
3.054000,3.8819,4.9862,1.5073,6.496
3.068000,4.0907,5.0201,1.5329,6.655
3.069000,4.2579,5.0697,1.5575,6.801
3.070000,4.3908,5.1635,1.6052,6.965
3.074000,4.4747,5.2799,1.6784,7.122
3.078000,4.5238,5.4160,1.7938,7.281
3.083000,4.5762,5.5334,1.9346,7.437
3.130000,4.6269,5.6009,2.1029,7.563
3.131000,4.6926,5.5680,2.3197,7.642
3.131000,4.7972,5.4011,2.5628,7.665
3.131000,4.9358,5.0597,2.7886,7.599
3.132000,5.0872,4.5485,2.9389,7.430
3.132000,5.2731,3.9517,2.9369,7.214
3.132000,5.5367,3.3701,2.6706,7.010
3.133000,5.8566,2.8711,2.1535,6.869
3.133000,6.1992,2.4838,1.4710,6.838
3.133000,6.5190,2.2136,0.7402,6.924
3.142000,6.8303,2.0917,0.0316,7.143
3.145000,7.1616,2.1087,-0.6059,7.490
3.150000,7.5151,2.2167,-1.1166,7.914
3.162000,7.8975,2.3867,-1.4358,8.374
3.164000,8.2870,2.5752,-1.5541,8.816
3.164000,8.6375,2.7191,-1.4821,9.176
3.169000,8.8841,2.8105,-1.2303,9.399
3.221000,9.0101,2.8657,-0.8720,9.495
3.222000,9.0346,2.8599,-0.4279,9.486
3.222000,8.9652,2.7954,0.0171,9.391
3.222000,8.8358,2.6483,0.3928,9.233
3.223000,8.6539,2.4259,0.6560,9.011
3.223000,8.4344,2.1479,0.8162,8.742
3.223000,8.2445,1.8289,0.8859,8.491
3.224000,8.1087,1.5392,0.8510,8.297
3.224000,8.0177,1.3100,0.7098,8.155
3.224000,8.0000,1.1511,0.5083,8.098
3.224000,7.9980,1.0504,0.3071,8.073
3.230000,8.0113,0.9955,0.1303,8.074
3.235000,8.0259,0.9415,0.0070,8.081
3.240000,8.0270,0.8925,-0.0748,8.077
3.244000,8.0241,0.8460,-0.1199,8.069
3.249000,8.0171,0.8065,-0.1404,8.059
3.256000,7.9721,0.7877,-0.1578,8.013
3.259000,7.8992,0.7448,-0.1622,7.936
3.263000,7.7694,0.7082,-0.1582,7.803
3.268000,7.5921,0.6802,-0.1553,7.624
3.311000,7.3484,0.6322,-0.1438,7.377
3.312000,7.0790,0.5636,-0.1213,7.102
3.312000,6.7869,0.5016,-0.1025,6.806
3.312000,6.4628,0.4434,-0.1235,6.479
3.312000,6.1091,0.3916,-0.1557,6.124
3.313000,5.7454,0.3318,-0.2400,5.760
3.313000,5.3954,0.2612,-0.3599,5.414
3.314000,5.0650,0.1714,-0.5275,5.095
3.314000,4.7588,0.0717,-0.7405,4.817
3.321000,4.4554,-0.0355,-0.9680,4.559
3.327000,4.1310,-0.1478,-1.1743,4.297
3.328000,3.8122,-0.2794,-1.3404,4.051
3.334000,3.4941,-0.4214,-1.4693,3.814
3.339000,3.1730,-0.5985,-1.5832,3.596
3.345000,2.8728,-0.8087,-1.6918,3.431
3.348000,2.6056,-1.0468,-1.7979,3.334
3.357000,2.4338,-1.2932,-1.9038,3.350
3.360000,2.3499,-1.5270,-2.0141,3.451
3.363000,2.3184,-1.7488,-2.1042,3.586
3.405000,2.2599,-1.9403,-2.1520,3.675
3.406000,2.1287,-2.0824,-2.0896,3.638
3.407000,1.9342,-2.1778,-1.9049,3.480
3.407000,1.6667,-2.2465,-1.6195,3.232
3.408000,1.3627,-2.2848,-1.2934,2.958
3.408000,1.0196,-2.3275,-0.9558,2.715
3.408000,0.6137,-2.3674,-0.6547,2.532
3.409000,0.1833,-2.4306,-0.4114,2.472
3.409000,-0.2837,-2.5010,-0.2280,2.527
3.414000,-0.7532,-2.5694,-0.0751,2.679
3.420000,-1.2352,-2.6553,0.0597,2.929
3.426000,-1.6864,-2.7391,0.1672,3.221
3.430000,-2.0998,-2.8397,0.2715,3.542
3.435000,-2.4180,-2.9622,0.3415,3.839
3.440000,-2.6433,-3.1118,0.3820,4.101
3.444000,-2.7711,-3.2461,0.3502,4.282
3.449000,-2.8375,-3.4058,0.2482,4.440
3.456000,-2.8401,-3.5500,0.0738,4.547
3.461000,-2.8078,-3.6908,-0.1300,4.639
3.464000,-2.7741,-3.8241,-0.3561,4.738
3.469000,-2.7627,-3.9459,-0.5642,4.850
3.526000,-2.7832,-4.0446,-0.7403,4.965
3.527000,-2.8115,-4.1443,-0.8849,5.086
3.527000,-2.8236,-4.2183,-0.9938,5.172
3.528000,-2.8171,-4.3178,-1.0557,5.263
3.528000,-2.7799,-4.4318,-1.0831,5.342
3.529000,-2.7191,-4.5732,-1.1052,5.434
3.529000,-2.6421,-4.7086,-1.1148,5.513
3.529000,-2.5776,-4.8646,-1.1218,5.618
3.530000,-2.5231,-5.0442,-1.1427,5.755
3.530000,-2.5004,-5.2387,-1.1556,5.919
3.530000,-2.5191,-5.4607,-1.1364,6.120
3.531000,-2.5719,-5.7147,-1.0851,6.360
3.535000,-2.6471,-5.9814,-0.9968,6.616
3.540000,-2.7445,-6.2612,-0.8835,6.893
3.544000,-2.8523,-6.5453,-0.7333,7.177
3.549000,-2.9704,-6.8607,-0.5967,7.500
3.554000,-3.0799,-7.1589,-0.4760,7.808
3.559000,-3.1832,-7.4516,-0.3831,8.112
3.566000,-3.2805,-7.7439,-0.3179,8.416
3.571000,-3.3672,-8.0056,-0.3014,8.690
3.574000,-3.4460,-8.2488,-0.3093,8.945
3.580000,-3.5075,-8.4519,-0.3365,9.157
3.584000,-3.5712,-8.5861,-0.3684,9.306
3.644000,-3.6346,-8.6562,-0.4095,9.397
3.645000,-3.7364,-8.6892,-0.4619,9.470
3.645000,-3.8527,-8.6723,-0.5299,9.504
3.646000,-4.0245,-8.6061,-0.5916,9.519
3.646000,-4.2039,-8.4740,-0.6587,9.482
3.647000,-4.4294,-8.3359,-0.7165,9.467
3.647000,-4.6676,-8.1706,-0.7861,9.443
3.647000,-4.8996,-7.9991,-0.8864,9.422
3.648000,-5.1328,-7.8263,-0.9954,9.412
3.648000,-5.3792,-7.6834,-1.1128,9.445
3.649000,-5.6104,-7.5466,-1.2120,9.481
3.649000,-5.8167,-7.4756,-1.2522,9.554
3.649000,-5.9648,-7.5030,-1.2175,9.662
3.655000,-6.0258,-7.6715,-1.0943,9.816
3.660000,-5.9853,-7.9712,-0.9362,10.012
3.667000,-5.8911,-8.3514,-0.7798,10.250
3.671000,-5.8390,-8.7595,-0.6708,10.549
3.674000,-5.8670,-9.1232,-0.6259,10.865
3.679000,-6.0039,-9.4064,-0.6333,11.177
3.685000,-6.2351,-9.6038,-0.6693,11.470
3.690000,-6.4745,-9.7526,-0.7013,11.727
3.695000,-6.6668,-9.8736,-0.7442,11.937
3.699000,-6.7904,-9.9567,-0.8109,12.079
3.704000,-6.7950,-9.9726,-0.9020,12.101
3.710000,-6.6470,-9.9380,-1.0203,11.999
3.715000,-6.3678,-9.8532,-1.1636,11.789
3.762000,-5.9693,-9.7517,-1.3488,11.513
3.763000,-5.4943,-9.5965,-1.5373,11.164
3.763000,-4.9403,-9.4020,-1.7193,10.759
3.764000,-4.2904,-9.1427,-1.8634,10.270
3.764000,-3.5614,-8.8314,-1.9859,9.727
3.765000,-2.7817,-8.4903,-2.0982,9.177
3.765000,-1.9873,-8.1361,-2.1949,8.658
3.765000,-1.2019,-7.8221,-2.2371,8.224
3.766000,-0.4423,-7.5732,-2.2052,7.900
3.767000,0.2773,-7.3951,-2.1231,7.699
3.774000,0.9594,-7.2829,-2.0101,7.616
3.775000,1.5564,-7.2243,-1.8948,7.629
3.780000,2.0347,-7.2164,-1.7678,7.703
3.785000,2.3565,-7.2617,-1.6389,7.808
3.789000,2.5098,-7.3692,-1.5319,7.934
3.794000,2.5404,-7.4807,-1.4158,8.026
3.800000,2.5036,-7.5562,-1.3004,8.066
3.808000,2.4236,-7.5631,-1.1832,8.030
3.810000,2.3458,-7.4930,-1.0548,7.922
3.815000,2.2611,-7.3529,-0.9317,7.749
3.862000,2.1980,-7.1404,-0.7755,7.511
3.862000,2.1281,-6.8622,-0.5909,7.209
3.863000,2.0871,-6.5300,-0.3607,6.865
3.863000,2.0535,-6.1771,-0.1353,6.511
3.863000,2.0321,-5.7966,0.0567,6.143
3.863000,2.0181,-5.4032,0.1630,5.770
3.864000,2.0379,-4.9702,0.2079,5.376
3.864000,2.0932,-4.5020,0.1895,4.968
3.864000,2.1601,-4.0295,0.1252,4.574
3.869000,2.2382,-3.5506,0.0396,4.197
3.873000,2.3223,-3.0826,-0.0404,3.860
3.876000,2.4054,-2.6250,-0.0861,3.561
3.879000,2.4962,-2.1801,-0.0975,3.316
3.885000,2.5398,-1.7688,-0.0892,3.096
3.890000,2.5482,-1.3796,-0.0805,2.899
3.895000,2.5285,-0.9839,-0.0647,2.714
3.900000,2.4713,-0.6146,-0.0706,2.548
3.906000,2.4240,-0.2637,-0.0965,2.440
3.910000,2.3942,0.0602,-0.1474,2.399
3.915000,2.3675,0.3644,-0.2262,2.406
3.920000,2.3536,0.6563,-0.3114,2.463
3.943000,2.3671,0.9439,-0.3886,2.578
3.944000,2.3905,1.2259,-0.4317,2.721
3.944000,2.4361,1.5363,-0.4600,2.917
3.944000,2.4989,1.8415,-0.4572,3.138
3.946000,2.5528,2.1247,-0.4333,3.349
3.950000,2.6076,2.3985,-0.4003,3.565
3.955000,2.6601,2.6712,-0.3634,3.787
3.960000,2.7297,2.9216,-0.3441,4.013
3.965000,2.7586,3.1666,-0.3350,4.213
3.971000,2.7468,3.4179,-0.3120,4.396
3.976000,2.7112,3.6761,-0.2630,4.575
3.980000,2.6869,3.9257,-0.2073,4.762
3.986000,2.6573,4.1862,-0.1307,4.960
3.990000,2.6150,4.4314,-0.0451,5.146
3.995000,2.5769,4.6326,0.0281,5.301
4.000000,2.5524,4.8092,0.0986,5.445
4.010000,2.5224,4.9592,0.1498,5.566
4.011000,2.5052,5.0963,0.1823,5.682
4.015000,2.4746,5.2304,0.2084,5.790
4.073000,2.4399,5.3496,0.2308,5.884
4.074000,2.4178,5.4849,0.2853,6.001
4.074000,2.3846,5.6199,0.3522,6.115
4.074000,2.3686,5.7442,0.4167,6.227
4.075000,2.3533,5.8464,0.4643,6.319
4.075000,2.3365,5.9027,0.5114,6.369
4.075000,2.3015,5.9204,0.5506,6.376
4.076000,2.2681,5.9146,0.5795,6.361
4.076000,2.2454,5.9018,0.5930,6.342
4.076000,2.2196,5.8704,0.5985,6.304
4.076000,2.2245,5.8449,0.5957,6.282
4.077000,2.2745,5.8469,0.5801,6.300
4.081000,2.3530,5.8600,0.5708,6.341
4.086000,2.4548,5.8981,0.5944,6.416
4.091000,2.5917,5.9396,0.6577,6.514
4.097000,2.7828,5.9700,0.7584,6.630
4.101000,3.0086,5.9796,0.8768,6.751
4.105000,3.2740,5.9586,0.9841,6.870
4.111000,3.5519,5.9306,1.0517,6.992
4.115000,3.8041,5.8765,1.0823,7.083
4.122000,4.0543,5.8059,1.1049,7.167
4.125000,4.2499,5.7071,1.1129,7.202
4.131000,4.3909,5.5970,1.1376,7.204
4.136000,4.5112,5.4736,1.1576,7.187
4.184000,4.6105,5.3725,1.1778,7.177
4.185000,4.7224,5.3298,1.1864,7.219
4.186000,4.8230,5.3262,1.2097,7.287
4.187000,4.9385,5.3712,1.2284,7.399
4.187000,5.0760,5.4502,1.2112,7.546
4.188000,5.2469,5.5461,1.1966,7.728
4.188000,5.4511,5.6204,1.2394,7.927
4.189000,5.6717,5.5915,1.3802,8.083
4.190000,5.9419,5.3851,1.6370,8.184
4.190000,6.2572,4.9677,1.9754,8.230
4.191000,6.5867,4.3201,2.3006,8.206
4.195000,6.9428,3.5169,2.4421,8.157
4.201000,7.3620,2.7071,2.3476,8.188
4.206000,7.8134,1.9798,2.0181,8.309
4.212000,8.2899,1.3832,1.5078,8.539
4.216000,8.7579,0.9135,0.9530,8.857
4.220000,9.2080,0.5567,0.4482,9.236
4.226000,9.6258,0.3466,-0.0076,9.632
4.230000,10.0037,0.3261,-0.3733,10.016
4.236000,10.3487,0.4733,-0.6198,10.378
4.271000,10.5742,0.7660,-0.6708,10.623
4.272000,10.5984,1.0761,-0.4746,10.663
4.272000,10.4352,1.3259,-0.0515,10.519
4.273000,10.1160,1.4884,0.4507,10.235
4.273000,10.0786,1.6205,0.8703,10.245
4.273000,9.2492,1.7169,1.1229,9.474
4.274000,8.8200,1.7808,1.2302,9.082
4.277000,8.4415,1.7617,1.2189,8.709
4.282000,8.1661,1.6051,1.1043,8.395
4.286000,7.9987,1.3211,0.9206,8.159
4.291000,7.9153,0.9531,0.6829,8.002
4.296000,7.8856,0.5454,0.3988,7.915
4.302000,7.8786,0.1607,0.0739,7.881
4.307000,7.8966,-0.1555,-0.2603,7.902
4.313000,7.8993,-0.3860,-0.6084,7.932
4.316000,7.8436,-0.5480,-0.9512,7.920
4.324000,7.7470,-0.6382,-1.2747,7.877
4.326000,7.6337,-0.6807,-1.5745,7.824
4.331000,7.5136,-0.6704,-1.8651,7.771
4.336000,7.4059,-0.6291,-2.1062,7.725
4.380000,7.2984,-0.5619,-2.3005,7.673
4.381000,7.1964,-0.4731,-2.4340,7.612
4.382000,7.1091,-0.3706,-2.5071,7.547
4.382000,7.0243,-0.2907,-2.5226,7.469
4.382000,6.9443,-0.2124,-2.4904,7.380
4.383000,6.8614,-0.1245,-2.4347,7.282
4.383000,6.7426,-0.0364,-2.3439,7.138
4.384000,6.5680,0.0486,-2.2158,6.932
4.384000,6.3236,0.1228,-2.0484,6.648
4.386000,5.9685,0.1691,-1.8660,6.256
4.392000,5.4981,0.2038,-1.6783,5.752
4.396000,4.9611,0.2277,-1.4810,5.182
4.403000,4.3695,0.2430,-1.2837,4.561
4.407000,3.7427,0.2354,-1.0961,3.907
4.412000,3.1145,0.2054,-0.9206,3.254
4.417000,2.4923,0.1555,-0.7284,2.601
4.421000,1.9261,0.0829,-0.5508,2.005
4.427000,1.4503,0.0106,-0.3757,1.498
4.431000,1.0692,-0.0834,-0.2319,1.097
4.437000,0.7686,-0.2157,-0.1333,0.809
4.444000,0.5171,-0.3811,-0.0939,0.649
4.447000,0.2883,-0.5492,-0.1082,0.630
4.453000,0.0730,-0.7086,-0.1540,0.729
4.512000,-0.1506,-0.8790,-0.1949,0.913
4.512000,-0.3919,-1.0504,-0.2188,1.142
4.512000,-0.6579,-1.2438,-0.2207,1.424
4.513000,-0.9439,-1.4477,-0.2082,1.741
4.514000,-1.1919,-1.6389,-0.1690,2.033
4.514000,-1.4378,-1.8226,-0.1276,2.325
4.515000,-1.6411,-1.9867,-0.0986,2.579
4.516000,-1.8184,-2.1122,-0.0965,2.789
4.517000,-1.9507,-2.2308,-0.1001,2.965
4.517000,-2.0566,-2.3575,-0.1238,3.131
4.518000,-2.1294,-2.4907,-0.1486,3.280
4.518000,-2.1713,-2.6183,-0.1819,3.406
4.519000,-2.2017,-2.7523,-0.2020,3.530
4.522000,-2.2492,-2.8649,-0.2140,3.649
4.527000,-2.3042,-2.9595,-0.2106,3.757
4.532000,-2.3835,-3.0226,-0.1848,3.854
4.537000,-2.4679,-3.0855,-0.1631,3.954
4.541000,-2.5670,-3.1530,-0.1622,4.069
4.547000,-2.6762,-3.2569,-0.1652,4.219
4.552000,-2.7833,-3.3720,-0.1741,4.376
4.556000,-2.8694,-3.4890,-0.2079,4.522
4.561000,-2.8963,-3.6272,-0.2712,4.650
4.566000,-2.8977,-3.7839,-0.3636,4.780
4.603000,-2.8762,-3.9544,-0.4509,4.910
4.605000,-2.8702,-4.1392,-0.5449,5.066
4.606000,-2.8871,-4.3105,-0.6353,5.227
4.607000,-2.9006,-4.4666,-0.7004,5.372
4.607000,-2.9229,-4.6192,-0.7472,5.517
4.608000,-2.9203,-4.7828,-0.7640,5.656
4.609000,-2.9051,-4.9579,-0.7890,5.800
4.611000,-2.8795,-5.1649,-0.8198,5.970
4.612000,-2.8341,-5.3756,-0.8539,6.137
4.617000,-2.8049,-5.6210,-0.9080,6.347
4.622000,-2.8207,-5.8891,-0.9628,6.600
4.627000,-2.8550,-6.1825,-1.0159,6.885
4.631000,-2.9057,-6.4807,-1.0742,7.183
4.639000,-2.9584,-6.7577,-1.1235,7.462
4.642000,-3.0156,-7.0540,-1.1542,7.758
4.646000,-3.0797,-7.3502,-1.1643,8.054
4.651000,-3.1386,-7.6636,-1.1491,8.361
4.694000,-3.1758,-8.0022,-1.1253,8.683
4.695000,-3.1890,-8.3474,-1.1193,9.006
4.695000,-3.1759,-8.6679,-1.1429,9.302
4.696000,-3.1584,-8.9517,-1.1862,9.566
4.696000,-3.1772,-9.1755,-1.2393,9.789
4.696000,-3.2612,-9.3596,-1.3066,9.997
4.697000,-3.4273,-9.4853,-1.3878,10.181
4.697000,-3.6828,-9.5620,-1.4875,10.354
4.698000,-4.0133,-9.5606,-1.6128,10.493
4.702000,-4.3639,-9.4930,-1.7611,10.595
4.707000,-4.7155,-9.3916,-1.9325,10.685
4.712000,-5.0421,-9.2444,-2.1293,10.743
4.718000,-5.3294,-9.0537,-2.3275,10.761
4.722000,-5.5606,-8.8408,-2.5345,10.747
4.728000,-5.7287,-8.6298,-2.7338,10.713
4.732000,-5.8142,-8.4128,-2.8932,10.628
4.738000,-5.8099,-8.2666,-3.0013,10.540
4.742000,-5.7395,-8.2316,-3.0519,10.489
4.747000,-5.5789,-8.3311,-2.9889,10.463
4.753000,-5.3302,-8.5171,-2.8446,10.442
4.758000,-5.0626,-8.7278,-2.6627,10.435
4.762000,-4.8405,-8.8797,-2.4700,10.411
4.768000,-4.6734,-8.9254,-2.2999,10.334
4.820000,-4.5850,-8.8608,-2.1739,10.211
4.821000,-4.5657,-8.6909,-2.0823,10.036
4.821000,-4.6058,-8.5020,-2.0035,9.875
4.822000,-4.6477,-8.3636,-1.9544,9.766
4.822000,-4.6076,-8.2871,-1.9277,9.676
4.823000,-4.4571,-8.2867,-1.9520,9.610
4.824000,-4.2178,-8.3237,-2.0221,9.548
4.824000,-3.9019,-8.3404,-2.1469,9.455
4.824000,-3.5718,-8.3092,-2.2702,9.325
4.825000,-3.2587,-8.2300,-2.3648,9.162
4.825000,-2.9725,-8.1198,-2.4134,8.977
4.828000,-2.7008,-7.9884,-2.4444,8.780
4.832000,-2.4702,-7.8597,-2.4406,8.593
4.837000,-2.2565,-7.7587,-2.3975,8.428
4.842000,-2.0475,-7.6995,-2.3315,8.301
4.847000,-1.8502,-7.7179,-2.2407,8.247
4.852000,-1.6693,-7.7803,-2.1348,8.239
4.861000,-1.4614,-7.8622,-2.0215,8.248
4.863000,-1.2501,-7.9815,-1.9182,8.303
4.867000,-1.0302,-8.0872,-1.8590,8.362
4.922000,-0.7848,-8.1602,-1.8464,8.403
4.924000,-0.5495,-8.2123,-1.8857,8.444
4.925000,-0.2834,-8.2260,-1.9671,8.463
4.925000,0.0112,-8.2220,-2.0597,8.476
4.926000,0.3105,-8.1826,-2.1442,8.465
4.927000,0.6362,-8.1033,-2.2157,8.425
4.928000,0.9742,-7.9888,-2.2717,8.362
4.928000,1.3413,-7.8363,-2.3071,8.278
4.929000,1.7204,-7.6381,-2.3405,8.172
4.929000,2.0975,-7.3937,-2.3476,8.036
4.929000,2.4268,-7.1085,-2.3134,7.860
4.930000,2.7228,-6.7853,-2.2253,7.642
4.932000,2.9805,-6.4246,-2.0879,7.384
4.938000,3.2098,-6.0282,-1.9344,7.098
4.942000,3.4245,-5.6057,-1.7552,6.799
4.948000,3.6225,-5.1472,-1.5668,6.486
4.953000,3.8035,-4.6555,-1.3860,6.169
4.957000,3.9652,-4.1458,-1.1963,5.860
4.963000,4.0958,-3.6198,-1.0047,5.558
4.967000,4.1849,-3.1042,-0.8043,5.272
4.973000,4.2374,-2.5958,-0.5854,5.004
4.977000,4.2533,-2.1165,-0.3649,4.765
4.982000,4.2370,-1.6571,-0.1403,4.552
4.987000,4.2008,-1.2001,0.0788,4.370
5.044000,4.1556,-0.7522,0.2755,4.232
5.044000,4.0921,-0.3225,0.4547,4.130
5.045000,4.0387,0.1059,0.6405,4.091
5.045000,3.9903,0.5326,0.8233,4.109
5.045000,3.9280,0.9534,0.9936,4.162
5.046000,3.8745,1.3499,1.1585,4.263
5.046000,3.8158,1.7178,1.2914,4.379
5.046000,3.7516,2.0431,1.4115,4.499
5.047000,3.6795,2.3521,1.4948,4.616
5.047000,3.5778,2.6495,1.5486,4.714
5.047000,3.4659,2.9362,1.5995,4.816
5.048000,3.3430,3.2202,1.6514,4.927
5.053000,3.2189,3.4786,1.6974,5.034
5.059000,3.0865,3.7305,1.7322,5.142
5.062000,2.9485,3.9545,1.7601,5.237
5.067000,2.8171,4.1540,1.7692,5.322
5.073000,2.6894,4.3374,1.7849,5.407
5.077000,2.5946,4.5201,1.7738,5.505
5.082000,2.5110,4.6995,1.7525,5.609
5.089000,2.4292,4.8902,1.7209,5.725
5.092000,2.3565,5.0617,1.6840,5.832
5.097000,2.2949,5.2014,1.6679,5.925
5.104000,2.2516,5.3193,1.6605,6.010
5.133000,2.2102,5.4254,1.6668,6.091
5.134000,2.1850,5.5220,1.6652,6.168
5.134000,2.1905,5.6265,1.6847,6.269
5.135000,2.2140,5.7357,1.6890,6.376
5.135000,2.2415,5.8475,1.6976,6.488
5.135000,2.2776,5.9165,1.7392,6.574
5.146000,2.3007,5.9548,1.7945,6.631
5.147000,2.3136,5.9533,1.8614,6.653
5.147000,2.3231,5.9331,1.9419,6.661
5.153000,2.3606,5.9115,2.0244,6.680
5.158000,2.4044,5.8980,2.1185,6.712
5.163000,2.4498,5.8783,2.2243,6.746
5.168000,2.5018,5.8505,2.3299,6.776
5.174000,2.5339,5.8475,2.4132,6.815
5.179000,2.6993,5.8315,2.4983,6.895
5.183000,2.8664,5.7928,2.5995,6.966
5.195000,3.0971,5.7361,2.7045,7.058
5.196000,3.3748,5.6759,2.7942,7.170
5.201000,3.6773,5.5997,2.8634,7.285
5.205000,3.9906,5.5364,2.9291,7.427
5.208000,4.2904,5.4837,2.9866,7.576
5.212000,4.5838,5.4463,3.0387,7.740
5.219000,4.8734,5.4313,3.1261,7.939
5.265000,5.1250,5.4145,3.2510,8.133
5.267000,5.3553,5.4100,3.4136,8.343
5.268000,5.5572,5.4250,3.6108,8.565
5.270000,5.7281,5.4353,3.8468,8.784
5.271000,5.8727,5.4024,4.1165,8.979
5.272000,6.0440,5.2931,4.4121,9.166
5.274000,6.2443,5.0618,4.7326,9.328
5.275000,6.4881,4.6945,5.0415,9.463
5.276000,7.1202,3.6344,5.4555,9.678
5.277000,7.1214,3.6375,5.4433,9.673
5.278000,7.4543,3.0743,5.4285,9.720
5.279000,7.7813,2.5675,5.2492,9.731
5.283000,8.1098,2.1796,4.9326,9.739
5.290000,8.4469,1.9343,4.4679,9.749
5.293000,8.7681,1.8458,3.8995,9.772
5.298000,9.0516,1.9233,3.2814,9.818
5.304000,9.3037,2.1686,2.6892,9.924
5.345000,9.5093,2.5142,2.2311,10.086
5.346000,9.6248,2.8779,1.9760,10.238
5.346000,9.6572,3.1682,1.8944,10.339
5.347000,9.5919,3.3800,1.9368,10.353
5.347000,9.4940,3.5178,2.0133,10.323
5.348000,9.3537,3.5669,2.0821,10.225
5.348000,9.1567,3.5268,2.0995,10.035
5.348000,8.9246,3.3619,2.0274,9.750
5.349000,8.6314,3.0554,1.8610,9.343
5.354000,8.3116,2.6276,1.6300,8.868
5.358000,8.0302,2.1007,1.3563,8.411
5.364000,7.8167,1.5113,1.0428,8.030
5.369000,7.7098,0.9031,0.6615,7.791
5.374000,7.7095,0.2955,0.2394,7.719
5.379000,7.7540,-0.2746,-0.1885,7.761
5.384000,7.8241,-0.8071,-0.6171,7.890
5.388000,7.8817,-1.2848,-1.0503,8.055
5.393000,7.9030,-1.6909,-1.4804,8.216
5.398000,7.8833,-2.0081,-1.8779,8.349
5.404000,7.8249,-2.2249,-2.2453,8.439
5.409000,7.7069,-2.3594,-2.5529,8.455
5.414000,7.5482,-2.4119,-2.8177,8.410
5.421000,7.3323,-2.4015,-3.0155,8.284
5.424000,7.0830,-2.3140,-3.1250,8.080
5.433000,6.7834,-2.1522,-3.1418,7.779
5.435000,6.4197,-1.9110,-3.0546,7.362
5.508000,6.0230,-1.6315,-2.8640,6.866
5.509000,5.6294,-1.3475,-2.5690,6.333
5.509000,5.2461,-1.0378,-2.2471,5.801
5.510000,4.9088,-0.7056,-1.9302,5.322
5.510000,4.5843,-0.3602,-1.6454,4.884
5.510000,4.2796,-0.0239,-1.3934,4.501
5.511000,3.9610,0.2647,-1.1554,4.135
5.511000,3.6574,0.5247,-0.9250,3.809
5.512000,3.3663,0.7434,-0.7217,3.522
5.512000,3.1024,0.9121,-0.5384,3.278
5.512000,2.8632,1.0565,-0.3706,3.074
5.513000,2.6702,1.1574,-0.2113,2.918
5.514000,2.5066,1.2075,-0.0655,2.783
5.514000,2.3721,1.2205,0.0811,2.669
5.514000,2.2647,1.2212,0.2050,2.581
5.515000,2.1843,1.2019,0.3016,2.511
5.518000,2.1115,1.1527,0.3830,2.436
5.524000,2.0318,1.0854,0.4499,2.347
5.529000,1.9234,1.0210,0.5169,2.238
5.534000,1.8035,0.9220,0.6113,2.116
5.540000,1.6479,0.7759,0.7045,1.953
5.543000,1.4685,0.5658,0.7802,1.756
5.550000,1.2558,0.2824,0.8631,1.550
5.601000,1.0049,-0.0219,0.9057,1.353
5.604000,0.7452,-0.3454,0.8708,1.197
5.604000,0.4910,-0.6235,0.7423,1.087
5.607000,0.2539,-0.8872,0.5642,1.082
5.607000,0.0244,-1.1552,0.3589,1.210
5.609000,-0.1591,-1.4197,0.1530,1.437
5.610000,-0.2968,-1.6814,-0.0392,1.708
5.610000,-0.4194,-1.9336,-0.2150,1.990
5.611000,-0.5151,-2.1914,-0.3578,2.279
5.612000,-0.5885,-2.4452,-0.4919,2.563
5.612000,-0.6468,-2.6904,-0.6079,2.833
5.615000,-0.7116,-2.9230,-0.7302,3.096
5.615000,-0.7749,-3.1485,-0.8641,3.356
5.618000,-0.8680,-3.3893,-1.0004,3.639
5.624000,-0.9906,-3.6283,-1.1444,3.931
5.628000,-1.1399,-3.8726,-1.2486,4.226
5.634000,-1.3231,-4.1442,-1.3255,4.548
5.678000,-1.5109,-4.4219,-1.3850,4.874
5.678000,-1.7130,-4.6919,-1.4465,5.200
5.679000,-1.9293,-4.9565,-1.5054,5.528
5.679000,-2.1572,-5.2032,-1.5619,5.845
5.680000,-2.3921,-5.4471,-1.5996,6.161
5.680000,-2.6289,-5.6861,-1.6401,6.476
5.680000,-2.8461,-5.8991,-1.7006,6.767
5.681000,-3.0366,-6.0884,-1.7739,7.031
5.681000,-3.1983,-6.2587,-1.8431,7.266
5.684000,-3.3120,-6.4247,-1.9180,7.478
5.689000,-3.4089,-6.5872,-1.9818,7.677
5.693000,-3.4990,-6.7587,-2.0437,7.880
5.699000,-3.5632,-6.9510,-2.0991,8.088
5.704000,-3.6065,-7.1760,-2.1355,8.310
5.709000,-3.6483,-7.4318,-2.1647,8.557
5.713000,-3.6912,-7.6907,-2.1580,8.799
5.718000,-3.7162,-7.9245,-2.1533,9.014
5.724000,-3.7283,-8.1574,-2.1099,9.214
5.729000,-3.7587,-8.4132,-2.0636,9.443
5.733000,-3.8170,-8.6638,-2.0002,9.676
5.741000,-3.9058,-8.9219,-1.9388,9.930
5.744000,-4.0204,-9.1780,-1.8913,10.197
5.749000,-4.1489,-9.4346,-1.8361,10.469
5.802000,-4.2939,-9.6433,-1.7708,10.704
5.803000,-4.4677,-9.8041,-1.7142,10.910
5.804000,-4.6678,-9.9028,-1.6781,11.076
5.804000,-4.8827,-9.9146,-1.6743,11.178
5.805000,-5.1148,-9.8593,-1.7002,11.236
5.806000,-5.3787,-9.7440,-1.7721,11.270
5.806000,-5.6483,-9.6093,-1.8681,11.302
5.807000,-5.9069,-9.4342,-1.9782,11.305
5.807000,-6.1379,-9.2488,-2.1289,11.303
5.808000,-6.3129,-9.0917,-2.2771,11.300
5.808000,-6.3983,-9.0556,-2.3872,11.342
5.809000,-6.3871,-9.1760,-2.4191,11.439
5.814000,-6.2722,-9.4618,-2.3757,11.598
5.819000,-6.0822,-9.8503,-2.3080,11.805
5.826000,-5.8795,-10.2051,-2.2332,11.987
5.829000,-5.7141,-10.4522,-2.1701,12.108
5.834000,-5.6579,-10.5492,-2.1092,12.155
5.841000,-5.7200,-10.5132,-2.0455,12.142
5.844000,-5.9026,-10.3992,-1.9941,12.123
5.849000,-6.1482,-10.2738,-1.9405,12.129
5.893000,-6.3753,-10.1747,-1.8638,12.151
5.895000,-6.5094,-10.1158,-1.7935,12.162
5.897000,-6.5148,-10.0747,-1.7493,12.124
5.899000,-6.3647,-10.0520,-1.7704,12.029
5.901000,-6.0927,-9.9897,-1.8809,11.851
5.902000,-5.7322,-9.8619,-2.0589,11.591
5.904000,-5.3073,-9.6476,-2.2751,11.244
5.905000,-5.3129,-9.3730,-2.4999,11.060
5.906000,-4.2968,-9.0831,-2.6970,10.404
5.907000,-3.7403,-8.8233,-2.8470,9.997
5.909000,-3.1764,-8.6516,-2.9520,9.678
5.914000,-2.5859,-8.5804,-3.0238,9.458
5.916000,-1.9709,-8.5764,-3.0598,9.317
5.920000,-1.3100,-8.6366,-3.0645,9.257
5.925000,-0.6053,-8.7462,-2.9995,9.266
5.930000,0.0978,-8.8857,-2.8769,9.340
5.934000,0.7827,-9.0483,-2.6847,9.471
5.940000,1.3897,-9.2178,-2.4258,9.632
5.944000,1.8620,-9.3841,-2.1268,9.801
5.949000,2.2380,-9.5129,-1.7907,9.935
6.010000,2.5110,-9.5558,-1.4492,9.986
6.011000,2.7006,-9.4982,-1.1458,9.941
6.012000,2.7903,-9.3477,-0.8927,9.796
6.012000,2.8092,-9.1152,-0.6711,9.562
6.013000,2.7644,-8.7979,-0.4735,9.234
6.013000,2.7017,-8.3976,-0.2615,8.825
6.014000,2.6116,-7.9265,-0.0614,8.346
6.015000,2.5108,-7.4089,0.1176,7.824
6.015000,2.4092,-6.8586,0.2565,7.274
6.016000,2.3324,-6.2732,0.3562,6.702
6.016000,2.3138,-5.6523,0.3815,6.119
6.017000,2.3292,-5.0108,0.3547,5.537
6.017000,2.3613,-4.3563,0.2673,4.962
6.020000,2.3814,-3.7435,0.1749,4.440
6.025000,2.4148,-3.1364,0.0950,3.959
6.029000,2.4494,-2.5777,0.0375,3.556
6.035000,2.4540,-2.0699,0.0049,3.210
6.039000,2.4280,-1.6183,0.0093,2.918
6.044000,2.3576,-1.2029,0.0335,2.647
6.050000,2.2707,-0.8304,0.0458,2.418
6.057000,2.1774,-0.5045,0.0244,2.235
6.059000,2.0633,-0.2320,-0.0288,2.077
6.064000,1.9502,0.0067,-0.0803,1.952
6.070000,1.8670,0.2336,-0.1400,1.887
6.111000,1.8331,0.4712,-0.1982,1.903
6.112000,1.8382,0.7203,-0.2386,1.989
6.112000,1.8683,0.9816,-0.2373,2.124
6.113000,1.9064,1.2310,-0.1877,2.277
6.113000,1.9266,1.4497,-0.1212,2.414
6.114000,1.9364,1.6432,-0.0425,2.540
6.114000,1.9877,1.8245,0.0479,2.699
6.114000,2.0711,2.0279,0.1332,2.902
6.116000,2.1938,2.2649,0.2133,3.160
6.121000,2.3577,2.5042,0.3025,3.453
6.125000,2.5249,2.7224,0.3793,3.732
6.130000,2.7301,2.9253,0.4580,4.027
6.135000,2.9448,3.1205,0.5267,4.323
6.140000,3.1639,3.3151,0.6312,4.626
6.146000,3.3679,3.5256,0.7332,4.931
6.151000,3.5283,3.7380,0.8474,5.210
6.156000,3.6201,3.8889,0.9878,5.404
6.159000,3.6701,4.0198,1.1164,5.557
6.164000,3.6880,4.1166,1.2380,5.664
6.169000,3.6762,4.2128,1.3596,5.754
6.216000,3.6566,4.3141,1.4839,5.847
6.218000,3.6288,4.4102,1.6058,5.933
6.218000,3.6196,4.5112,1.7206,6.034
6.218000,3.6553,4.6294,1.8090,6.170
6.219000,3.7238,4.7551,1.8877,6.328
6.219000,3.8518,4.8863,1.9616,6.524
6.220000,4.0335,5.0294,2.0016,6.751
6.221000,4.2356,5.1822,2.0344,6.995
6.222000,4.4433,5.3206,2.0791,7.237
6.223000,4.6207,5.4516,2.1355,7.459
6.228000,4.7942,5.5804,2.2061,7.681
6.231000,4.9558,5.6967,2.3026,7.894
6.236000,5.1082,5.7791,2.4152,8.082
6.241000,5.2488,5.8348,2.5412,8.249
6.245000,5.3800,5.8399,2.6542,8.372
6.250000,5.4183,5.8235,2.7349,8.411
6.255000,5.5793,5.8097,2.7999,8.528
6.260000,5.6831,5.7789,2.8444,8.590
6.268000,5.8138,5.7437,2.8587,8.658
6.271000,5.9736,5.6991,2.8598,8.737
6.275000,6.1577,5.6502,2.8501,8.830
6.280000,6.3518,5.6064,2.8346,8.934
6.286000,6.5148,5.5748,2.8132,9.024
6.330000,6.6374,5.5938,2.8005,9.121
6.331000,6.7291,5.6586,2.7773,9.220
6.332000,6.7900,5.7524,2.7530,9.315
6.332000,6.8225,5.8990,2.7132,9.418
6.332000,6.8357,6.0933,2.6365,9.529
6.333000,6.8390,6.3135,2.5493,9.650
6.333000,6.8226,6.5475,2.4684,9.773
6.334000,6.8123,6.7687,2.4106,9.901
6.334000,6.7957,6.9216,2.3852,9.989
6.335000,6.7632,6.9753,2.4158,10.012
6.342000,6.7629,6.8698,2.4898,9.956
6.345000,6.8304,6.5574,2.6016,9.819
6.351000,6.9753,6.0167,2.7052,9.601
6.356000,7.0999,5.2909,2.6589,9.245
6.361000,7.1760,4.4671,2.3823,8.782
6.366000,7.1804,3.6681,1.8769,8.279
6.373000,7.1545,2.9641,1.2333,7.842
6.375000,7.1178,2.4014,0.5373,7.531
6.380000,7.1017,1.9733,-0.1355,7.372
6.385000,7.1402,1.6566,-0.7024,7.363
6.435000,7.2335,1.4107,-1.1277,7.456
6.436000,7.4222,1.2189,-1.3635,7.644
6.436000,7.6657,1.0310,-1.4370,7.867
6.436000,7.9735,0.8754,-1.3968,8.142
6.437000,8.2998,0.7851,-1.2867,8.436
6.437000,8.5799,0.7694,-1.1289,8.688
6.437000,8.7633,0.8132,-0.9001,8.847
6.438000,8.8476,0.8779,-0.5987,8.911
6.438000,8.8542,0.9488,-0.2398,8.908
6.438000,8.8381,1.0254,0.1422,8.899
6.441000,8.8426,1.0837,0.4960,8.923
6.446000,8.8768,1.1399,0.7519,8.981
6.451000,8.9381,1.2200,0.9263,9.068
6.455000,8.9758,1.3020,1.0387,9.129
6.461000,8.9752,1.3568,1.1323,9.148
6.466000,8.9244,1.3989,1.2436,9.119
6.471000,8.8137,1.3899,1.3821,9.029
6.475000,8.6768,1.3440,1.5406,8.914
6.482000,8.5232,1.2564,1.6685,8.775
6.486000,8.3696,1.1293,1.7563,8.626
6.490000,8.1857,0.9657,1.7922,8.435
6.495000,7.9716,0.7705,1.7883,8.206
6.500000,7.7301,0.5728,1.7546,7.947
6.543000,7.5237,0.4113,1.6940,7.723
6.544000,7.3353,0.2807,1.6163,7.517
6.544000,7.1538,0.1868,1.5482,7.322
6.544000,6.9812,0.1171,1.4848,7.138
6.545000,6.7912,0.0881,1.4260,6.940
6.545000,6.5766,0.0733,1.3690,6.718
6.545000,6.3324,0.0791,1.3135,6.468
6.546000,6.0452,0.0706,1.2640,6.176
6.546000,5.7267,0.0448,1.2200,5.855
6.552000,5.3820,-0.0174,1.1738,5.509
6.556000,5.0403,-0.1110,1.1083,5.162
6.561000,4.7378,-0.2046,1.0016,4.847
6.565000,4.5006,-0.2938,0.8870,4.597
6.571000,4.3654,-0.3895,0.7814,4.452
6.576000,4.3510,-0.4753,0.7132,4.435
6.581000,4.4140,-0.5395,0.6564,4.495
6.586000,4.4585,-0.5754,0.5970,4.535
6.591000,4.4267,-0.5456,0.5567,4.495
6.596000,4.2710,-0.4734,0.6036,4.339
6.602000,3.9913,-0.4099,0.7498,4.082
6.610000,3.6664,-0.3914,0.9495,3.808
6.611000,3.3301,-0.4538,1.1907,3.566
6.616000,3.0347,-0.6220,1.4040,3.401
6.676000,2.7691,-0.8748,1.5090,3.273
6.676000,2.5401,-1.1913,1.4752,3.170
6.677000,2.3189,-1.5110,1.2948,3.056
6.677000,2.0909,-1.8170,1.0578,2.965
6.677000,1.8676,-2.0715,0.8132,2.905
6.678000,1.6421,-2.3113,0.5960,2.897
6.678000,1.3899,-2.5399,0.3948,2.922
6.678000,1.1300,-2.8197,0.2290,3.046
6.678000,0.8411,-3.1796,0.0582,3.290
6.679000,0.5252,-3.5582,-0.1556,3.600
6.679000,0.1355,-3.9675,-0.4097,3.991
6.679000,-0.3400,-4.3552,-0.7206,4.427
6.682000,-0.8935,-4.7109,-1.0569,4.910
6.687000,-1.4624,-5.0359,-1.3831,5.423
6.694000,-2.0319,-5.3276,-1.7042,5.951
6.697000,-2.5437,-5.5828,-2.0071,6.455
6.702000,-2.9712,-5.8041,-2.2829,6.908
6.706000,-3.2975,-6.0051,-2.5280,7.302
6.711000,-3.5082,-6.1804,-2.7771,7.630
6.716000,-3.6222,-6.3249,-2.9882,7.877
6.766000,-3.6423,-6.4110,-3.1908,8.034
6.767000,-3.5775,-6.4466,-3.3702,8.107
6.767000,-3.4186,-6.4499,-3.5512,8.118
6.768000,-3.1801,-6.4382,-3.7105,8.083
6.768000,-2.9316,-6.4392,-3.8010,8.031
6.769000,-2.7283,-6.4951,-3.8112,8.010
6.769000,-2.6439,-6.5908,-3.7139,8.014
6.770000,-2.7190,-6.7563,-3.5072,8.083
6.770000,-2.9462,-6.9913,-3.1989,8.234
6.771000,-3.2917,-7.2547,-2.8159,8.450
6.772000,-3.6957,-7.5470,-2.4010,8.740
6.777000,-4.1080,-7.8395,-2.0214,9.078
6.782000,-4.5120,-8.1346,-1.6883,9.454
6.787000,-4.8887,-8.4127,-1.4061,9.831
6.792000,-5.2697,-8.6682,-1.1528,10.210
6.798000,-5.6095,-8.8963,-0.9254,10.558
6.803000,-5.9254,-9.1045,-0.7064,10.886
6.806000,-6.1987,-9.2643,-0.4736,11.157
6.811000,-6.4154,-9.3729,-0.2624,11.361
6.816000,-6.5759,-9.4375,-0.0719,11.503
6.870000,-6.6589,-9.4586,0.0479,11.568
6.871000,-6.6698,-9.4208,0.0863,11.543
6.871000,-6.6161,-9.3251,0.0321,11.434
6.872000,-6.5222,-9.1863,-0.1017,11.267
6.872000,-6.4504,-9.0171,-0.3000,11.091
6.872000,-6.4223,-8.8253,-0.5290,10.928
6.873000,-6.4623,-8.6318,-0.7832,10.811
6.873000,-6.5654,-8.4441,-1.0528,10.748
6.873000,-6.7104,-8.2740,-1.3111,10.734
6.874000,-6.8423,-8.1214,-1.5484,10.732
6.874000,-6.9253,-8.0365,-1.7315,10.749
6.877000,-6.9618,-8.1021,-1.8106,10.835
6.883000,-6.9282,-8.3921,-1.7409,11.021
6.886000,-6.8195,-8.8841,-1.5022,11.300
6.893000,-6.6405,-9.4793,-1.1528,11.631
6.897000,-6.4582,-10.0270,-0.8344,11.956
6.902000,-6.3468,-10.4269,-0.5540,12.219
6.907000,-6.3134,-10.6627,-0.3211,12.396
6.911000,-6.3769,-10.7156,-0.1215,12.470
6.916000,-6.5491,-10.7197,0.0518,12.562
6.923000,-6.7628,-10.7675,0.1744,12.716
6.928000,-6.9632,-10.8990,0.2339,12.936
6.931000,-7.0879,-11.1226,0.2947,13.192
6.937000,-7.1395,-11.3396,0.3227,13.404
6.985000,-7.1585,-11.4825,0.3151,13.535
6.986000,-7.1448,-11.4939,0.2192,13.535
6.987000,-7.0960,-11.3853,0.0349,13.416
6.988000,-6.9590,-11.2003,-0.2305,13.188
6.989000,-6.6766,-10.9506,-0.5983,12.839
6.990000,-6.2297,-10.6603,-1.0366,12.391
6.990000,-5.6277,-10.3565,-1.4779,11.879
6.991000,-4.9542,-10.0992,-1.9006,11.408
6.992000,-4.2280,-9.8759,-2.2998,10.986
6.992000,-3.4822,-9.7012,-2.7376,10.665
6.993000,-2.7001,-9.5540,-3.1995,10.431
6.997000,-1.8525,-9.4061,-3.6494,10.258
7.003000,-0.9538,-9.2648,-4.0656,10.162
7.006000,-0.0587,-9.1136,-4.4456,10.140
7.012000,0.7849,-8.9692,-4.7625,10.186
7.020000,1.5316,-8.8876,-4.9611,10.293
7.021000,2.1841,-8.8596,-5.0200,10.415
7.026000,2.7117,-8.8918,-4.9135,10.515
7.031000,3.0763,-8.9739,-4.6642,10.571
7.037000,3.2452,-9.0475,-4.2972,10.529
7.042000,3.2595,-9.0954,-3.8276,10.392
7.046000,3.1963,-9.0906,-3.3496,10.202
7.051000,3.1159,-9.0325,-2.9329,9.995
7.057000,3.0761,-8.8934,-2.5248,9.743
7.062000,3.1056,-8.6848,-2.0890,9.457
7.066000,3.1829,-8.4058,-1.6301,9.135
7.114000,3.2771,-8.0570,-1.1599,8.775
7.114000,3.3979,-7.6173,-0.7018,8.370
7.115000,3.5477,-7.0841,-0.2528,7.927
7.115000,3.7159,-6.4700,0.1862,7.463
7.115000,3.8666,-5.7918,0.6087,6.990
7.115000,4.0087,-5.1008,0.9966,6.564
7.116000,4.1012,-4.4169,1.3365,6.174
7.116000,4.1846,-3.7419,1.6097,5.840
7.116000,4.2503,-3.1004,1.8414,5.574
7.119000,4.3053,-2.4843,2.0391,5.373
7.124000,4.3252,-1.9157,2.2080,5.220
7.127000,4.3215,-1.3829,2.3462,5.108
7.133000,4.2941,-0.8948,2.4443,5.021
7.137000,4.2611,-0.4367,2.5022,4.961
7.142000,4.2726,0.0065,2.5390,4.970
7.147000,4.2902,0.4083,2.5302,4.997
7.152000,4.3422,0.7779,2.4776,5.060
7.156000,4.4434,1.1140,2.3570,5.152
7.162000,4.5714,1.4103,2.1796,5.257
7.166000,4.6760,1.7202,1.9620,5.355
7.213000,4.7309,2.0127,1.7183,5.421
7.213000,4.7217,2.3118,1.4867,5.463
7.214000,4.6562,2.5826,1.2981,5.480
7.214000,4.5552,2.8481,1.1300,5.490
7.214000,4.4625,3.0946,0.9770,5.518
7.215000,4.4069,3.3488,0.8437,5.599
7.215000,4.3762,3.6179,0.7321,5.725
7.215000,4.3392,3.8923,0.6113,5.861
7.215000,4.2649,4.1486,0.5272,5.973
7.217000,4.1357,4.3835,0.4891,6.046
7.225000,3.9665,4.6193,0.4922,6.108
7.227000,3.7788,4.8512,0.5051,6.170
7.231000,3.5943,5.0724,0.5394,6.240
7.238000,3.4374,5.2715,0.5905,6.321
7.242000,3.2931,5.4549,0.6433,6.404
7.247000,3.1449,5.6257,0.7053,6.484
7.252000,3.0096,5.7885,0.7811,6.571
7.257000,2.8848,5.9103,0.8707,6.634
7.262000,2.7588,5.9938,0.9598,6.668
7.269000,2.6170,6.0291,1.0527,6.656
7.272000,2.4741,6.0503,1.1449,6.636
7.277000,2.3687,6.0386,1.2363,6.603
7.282000,2.3030,6.0109,1.3366,6.574
7.314000,2.2870,5.9795,1.4124,6.556
7.314000,2.3154,5.9297,1.4657,6.532
7.314000,2.3742,5.8596,1.5160,6.502
7.315000,2.4824,5.7812,1.5682,6.484
7.315000,2.6042,5.6851,1.6632,6.471
7.315000,2.7205,5.6001,1.7795,6.475
7.318000,2.8525,5.4899,1.9189,6.478
7.327000,2.9598,5.3406,2.0766,6.449
7.328000,3.0739,5.1596,2.2548,6.415
7.333000,3.2116,4.9590,2.4293,6.388
7.340000,3.3781,4.7678,2.5663,6.382
7.342000,3.5809,4.6033,2.6663,6.413
7.347000,3.8172,4.4603,2.7889,6.499
7.352000,4.0561,4.3485,2.9465,6.636
7.357000,4.3309,4.2773,3.1461,6.852
7.362000,4.6224,4.2635,3.3469,7.124
7.367000,4.9448,4.2996,3.5560,7.455
7.372000,5.2927,4.4137,3.7727,7.857
7.377000,5.6561,4.5981,3.9777,8.304
7.382000,6.0203,4.8740,4.1782,8.801
7.407000,6.3413,5.2094,4.3856,9.305
7.408000,6.5638,5.5777,4.5787,9.755
7.408000,6.6918,5.9374,4.7591,10.133
7.408000,6.7300,6.2405,4.9556,10.430
7.408000,6.7213,6.4342,5.2056,10.662
7.413000,6.7114,6.4325,5.4820,10.792
7.418000,6.7366,6.1619,5.7482,10.788
7.422000,6.8044,5.6371,5.8837,10.616
7.429000,6.9129,4.9666,5.7982,10.299
7.432000,7.0481,4.2751,5.4544,9.884
7.437000,7.1721,3.6757,4.8752,9.419
7.442000,7.2754,3.2092,4.1369,8.963
7.447000,7.4181,2.8713,3.3496,8.631
7.452000,7.6169,2.6527,2.5938,8.472
7.457000,7.8379,2.5437,1.9471,8.467
7.462000,8.0954,2.4745,1.4693,8.592
7.467000,8.3410,2.3924,1.1864,8.758
7.473000,8.5389,2.2660,1.0688,8.899
7.477000,8.7007,2.1140,1.0581,9.016
7.483000,8.7980,1.9555,1.1412,9.085
7.512000,8.8118,1.7377,1.3074,9.076
7.513000,8.7473,1.4606,1.5101,8.996
7.514000,8.6603,1.1320,1.6748,8.893
7.514000,8.5968,0.7904,1.7750,8.814
7.514000,8.5641,0.4769,1.8128,8.767
7.514000,8.6105,0.1916,1.7694,8.792
7.517000,8.7551,-0.0389,1.6451,8.908
7.525000,8.9787,-0.2172,1.4762,9.102
7.528000,9.2499,-0.3240,1.2755,9.343
7.532000,9.5349,-0.3646,1.0888,9.604
7.538000,9.7567,-0.3631,0.9309,9.808
7.544000,9.9056,-0.3319,0.8619,9.949
7.547000,10.0243,-0.2616,0.8506,10.064
7.553000,10.1297,-0.1427,0.8928,10.170
7.558000,10.1972,0.0048,0.9787,10.244
7.563000,10.2288,0.1758,1.1109,10.290
7.567000,10.2171,0.3242,1.2723,10.301
7.573000,10.1423,0.4589,1.4363,10.254
7.581000,9.9882,0.5657,1.5745,10.127
7.584000,9.7497,0.6656,1.6891,9.917
7.589000,9.4509,0.7466,1.7514,9.641
7.626000,9.1040,0.8180,1.7782,9.312
7.628000,8.7112,0.8651,1.7693,8.931
7.629000,8.2949,0.8864,1.6985,8.513
7.629000,7.8577,0.8716,1.5725,8.061
7.629000,7.4117,0.8162,1.3979,7.586
7.630000,6.9454,0.7249,1.1388,7.075
7.630000,6.4852,0.6286,0.8475,6.571
7.631000,6.0443,0.5000,0.5434,6.089
7.633000,5.6131,0.3220,0.2381,5.627
7.639000,5.2256,0.1142,-0.0495,5.227
7.643000,4.8796,-0.1183,-0.3316,4.892
7.654000,4.5584,-0.3690,-0.5820,4.610
7.654000,4.2390,-0.6266,-0.7984,4.359
7.660000,3.9165,-0.8771,-0.9999,4.136
7.666000,3.5913,-1.0871,-1.1914,3.937
7.670000,3.2825,-1.2753,-1.3847,3.784
7.672000,3.0044,-1.4257,-1.5392,3.664
7.682000,2.7240,-1.5511,-1.6348,3.535
7.686000,2.4650,-1.6545,-1.6813,3.412
7.689000,2.1891,-1.7506,-1.6664,3.261
7.693000,1.9034,-1.8583,-1.6117,3.110
7.698000,1.5815,-1.9904,-1.5389,2.972
7.734000,1.2717,-2.1284,-1.4610,2.878
7.735000,0.9618,-2.2943,-1.3948,2.852
7.736000,0.6492,-2.4762,-1.3637,2.900
7.737000,0.3243,-2.6690,-1.3430,3.005
7.737000,0.0059,-2.8879,-1.3015,3.168
7.738000,-0.2890,-3.1331,-1.2618,3.390
7.738000,-0.5367,-3.3838,-1.2454,3.645
7.739000,-0.7445,-3.6131,-1.2926,3.909
7.743000,-0.9173,-3.8112,-1.3886,4.159
7.748000,-1.0768,-3.9636,-1.5115,4.377
7.756000,-1.2185,-4.0832,-1.6182,4.558
7.760000,-1.3397,-4.1873,-1.6774,4.706
7.764000,-1.4405,-4.3056,-1.7112,4.852
7.769000,-1.5115,-4.4791,-1.6959,5.022
7.774000,-1.5596,-4.6982,-1.6535,5.219
7.778000,-1.6018,-4.9687,-1.6345,5.470
7.783000,-1.6423,-5.2576,-1.6514,5.750
7.789000,-1.6861,-5.5178,-1.7280,6.023
7.793000,-1.7568,-5.7637,-1.8406,6.300
7.798000,-1.8571,-6.0007,-1.9723,6.584
7.847000,-1.9842,-6.2459,-2.0991,6.882
7.848000,-2.1192,-6.5120,-2.2307,7.202
7.848000,-2.2762,-6.7650,-2.3648,7.519
7.849000,-2.4385,-6.9974,-2.4870,7.816
7.849000,-2.6015,-7.2147,-2.6046,8.100
7.849000,-2.7720,-7.4148,-2.6919,8.361
7.850000,-2.9429,-7.5864,-2.7372,8.585
7.850000,-3.0807,-7.7725,-2.7312,8.796
7.851000,-3.1926,-7.9729,-2.6841,8.998
7.851000,-3.2689,-8.2137,-2.6036,9.216
7.854000,-3.3192,-8.4501,-2.5140,9.420
7.859000,-3.3316,-8.6827,-2.4133,9.608
7.864000,-3.3253,-8.8910,-2.2969,9.766
7.868000,-3.3148,-9.0917,-2.1601,9.915
7.873000,-3.2978,-9.2991,-2.0197,10.071
7.878000,-3.2578,-9.5140,-1.8631,10.227
7.883000,-3.2165,-9.7324,-1.7169,10.393
7.889000,-3.1694,-9.9481,-1.6043,10.563
7.894000,-3.1646,-10.1681,-1.5127,10.756
7.899000,-3.1976,-10.3662,-1.4919,10.950
7.906000,-3.2874,-10.5068,-1.5606,11.119
7.910000,-3.4442,-10.6029,-1.6754,11.273
7.914000,-3.6726,-10.6451,-1.8146,11.406
7.919000,-3.9657,-10.6499,-1.9754,11.535
7.966000,-4.2998,-10.6000,-2.1696,11.643
7.967000,-4.6583,-10.5215,-2.3730,11.749
7.967000,-5.0153,-10.4001,-2.5804,11.831
7.968000,-5.3685,-10.2776,-2.7661,11.921
7.968000,-5.6820,-10.1828,-2.9182,12.020
7.969000,-5.9226,-10.1798,-2.9777,12.148
7.969000,-6.0831,-10.3113,-2.9354,12.326
7.969000,-6.1588,-10.5914,-2.7968,12.567
7.970000,-6.1667,-10.9999,-2.5605,12.868
7.970000,-6.1331,-11.4293,-2.3203,13.177
7.977000,-6.1584,-11.7911,-2.1101,13.469
7.979000,-6.3118,-12.0374,-1.9589,13.732
7.985000,-6.5718,-12.1134,-1.8712,13.908
7.988000,-6.9383,-12.0688,-1.8239,14.040
7.994000,-7.3872,-11.9153,-1.7908,14.133
7.999000,-7.8566,-11.7146,-1.7361,14.212
8.004000,-8.2696,-11.5191,-1.6577,14.277
8.009000,-8.5740,-11.3231,-1.5511,14.288
8.014000,-8.7338,-11.1555,-1.4551,14.242
8.019000,-8.7178,-11.0039,-1.4032,14.109
8.062000,-8.5762,-10.8278,-1.4484,13.889
8.062000,-8.3186,-10.5939,-1.6312,13.568
8.063000,-7.9471,-10.3193,-1.9438,13.169
8.063000,-7.4883,-9.9891,-2.3353,12.701
8.064000,-6.9250,-9.6314,-2.7234,12.171
8.064000,-6.3051,-9.2675,-3.0958,11.629
8.064000,-5.6042,-8.9319,-3.4042,11.080
8.065000,-4.8198,-8.6301,-3.6245,10.528
8.065000,-3.9827,-8.3480,-3.7213,9.970
8.070000,-3.0992,-8.1243,-3.7210,9.458
8.074000,-2.2123,-7.9474,-3.6026,9.002
8.079000,-1.3815,-7.8545,-3.3735,8.659
8.084000,-0.6732,-7.8370,-3.0650,8.442
8.089000,-0.1567,-7.9211,-2.6849,8.365
8.094000,-0.1590,-8.0918,-2.2668,8.405
8.099000,0.2029,-8.3311,-1.8376,8.534
8.106000,0.1635,-8.5735,-1.4192,8.692
8.109000,0.0417,-8.8324,-1.0839,8.899
8.114000,-0.1218,-9.0747,-0.8072,9.111
8.119000,-0.3076,-9.3159,-0.5671,9.338
8.124000,-0.5034,-9.5298,-0.3513,9.550
8.131000,-0.6683,-9.7037,-0.1331,9.728
8.136000,-0.7589,-9.8104,0.0668,9.840
8.207000,-0.7317,-9.8290,0.2606,9.860
8.209000,-0.5747,-9.7401,0.4444,9.767
8.210000,-0.2422,-9.5142,0.6093,9.537
8.210000,0.2779,-9.1425,0.7800,9.180
8.211000,0.9733,-8.6505,0.9696,8.759
8.211000,1.7772,-8.0744,1.1546,8.348
8.212000,2.6237,-7.4330,1.3408,7.996
8.212000,3.4769,-6.7387,1.5646,7.743
8.213000,4.2619,-6.0030,1.8050,7.580
8.213000,4.9469,-5.2347,2.0817,7.497
8.214000,5.5242,-4.4806,2.3827,7.501
8.214000,5.9793,-3.7263,2.6626,7.532
8.215000,6.3179,-3.0085,2.9427,7.591
8.215000,6.5641,-2.3314,3.2054,7.668
8.216000,6.6960,-1.6929,3.4239,7.709
8.216000,6.7303,-1.0811,3.6025,7.710
8.219000,6.7033,-0.5093,3.7382,7.692
8.224000,6.6400,0.0231,3.8523,7.677
8.230000,6.5910,0.5413,3.9564,7.706
8.235000,6.5822,1.0285,4.0456,7.794
8.240000,6.6299,1.4893,4.1272,7.950
8.245000,6.6765,1.9173,4.1625,8.098
8.249000,6.7326,2.3225,4.1440,8.240
8.309000,6.7744,2.7082,4.0809,8.359
8.310000,6.7733,3.0460,3.9465,8.410
8.310000,6.7459,3.3651,3.7454,8.418
8.311000,6.7217,3.6784,3.4656,8.410
8.311000,6.7164,3.9756,3.1500,8.417
8.312000,6.7398,4.2719,2.8753,8.482
8.313000,6.7728,4.5698,2.6196,8.580
8.314000,6.7696,4.8645,2.3754,8.668
8.315000,6.7571,5.1782,2.1260,8.775
8.316000,6.7535,5.4983,1.8903,8.911
8.317000,6.7375,5.7893,1.6923,9.043
8.318000,6.7304,6.0370,1.5393,9.171
8.319000,6.7176,6.2416,1.4169,9.278
8.322000,6.6773,6.4221,1.3133,9.357
8.325000,6.5641,6.5623,1.2291,9.363
8.329000,6.3534,6.6736,1.1880,9.291
8.334000,6.0528,6.7278,1.1759,9.126
8.339000,5.6723,6.7446,1.1808,8.891
8.344000,5.2625,6.7028,1.2120,8.608
8.349000,4.8839,6.6439,1.2505,8.340
8.356000,4.5294,6.5726,1.2741,8.083
8.359000,4.2281,6.4632,1.2495,7.824
8.364000,3.9662,6.3163,1.2009,7.554
8.370000,3.7271,6.1370,1.1694,7.275
8.374000,3.5231,5.9380,1.1291,6.996
8.380000,3.3448,5.7503,1.0773,6.739
8.385000,3.2092,5.5958,1.0715,6.539
8.447000,3.1235,5.4602,1.0901,6.384
8.448000,3.0928,5.3221,1.1423,6.261
8.448000,3.1196,5.1840,1.2182,6.172
8.449000,3.1918,5.0385,1.3053,6.106
8.449000,3.2951,4.8952,1.4083,6.067
8.449000,3.4055,4.7662,1.5080,6.049
8.450000,3.5112,4.6394,1.6162,6.039
8.450000,3.6147,4.5175,1.7330,6.040
8.450000,3.6972,4.4103,1.8323,6.040
8.451000,3.8327,4.3510,1.9499,6.117
8.451000,3.9949,4.3399,2.0836,6.256
8.451000,4.1813,4.3983,2.2361,6.467
8.452000,4.3724,4.5116,2.4123,6.730
8.454000,4.5633,4.6676,2.6815,7.057
8.461000,4.7463,4.8658,2.9972,7.429
8.465000,4.9452,5.0890,3.3210,7.835
8.469000,5.1451,5.2747,3.7119,8.251
8.475000,5.3626,5.3555,4.1739,8.652
8.479000,5.6216,5.2384,4.7109,9.013
8.484000,5.9413,4.8944,5.2304,9.307
8.548000,6.3101,4.3289,5.6192,9.494
8.550000,6.6974,3.6763,5.7741,9.577
8.551000,7.1370,3.0544,5.6244,9.586
8.551000,7.6697,2.5783,5.2219,9.630
8.552000,8.2588,2.2479,4.6839,9.757
8.553000,8.8802,2.0608,4.1079,9.999
8.555000,9.5286,2.0168,3.5718,10.374
8.556000,10.1723,2.1397,3.0984,10.847
8.556000,10.7845,2.4075,2.7503,11.387
8.557000,11.3116,2.7833,2.5804,11.931
8.557000,11.7479,3.2400,2.5977,12.460
8.558000,12.0163,3.7239,2.7795,12.883
8.558000,12.1304,4.1695,3.0815,13.192
8.559000,12.0946,4.5281,3.4827,13.376
8.559000,11.9183,4.7294,3.9383,13.414
8.564000,11.6353,4.7304,4.3418,13.289
8.571000,11.3035,4.5454,4.6037,13.024
8.574000,10.9521,4.1867,4.6545,12.615
8.579000,10.5889,3.7075,4.4734,12.078
8.584000,10.2074,3.1323,4.0952,11.436
8.639000,9.8543,2.5464,3.5792,10.789
8.639000,9.5800,1.9909,2.9843,10.230
8.640000,9.3466,1.4902,2.3981,9.764
8.640000,9.1137,1.0136,1.8785,9.360
8.641000,8.8765,0.5705,1.4326,9.009
8.641000,8.6243,0.1548,1.0438,8.689
8.641000,8.3837,-0.2408,0.6993,8.416
8.642000,8.1384,-0.6110,0.3389,8.168
8.642000,7.9250,-0.9293,-0.0637,7.980
8.642000,7.7717,-1.1792,-0.4967,7.876
8.643000,7.7152,-1.3430,-0.9954,7.894
8.646000,7.6974,-1.4334,-1.5041,7.973
8.649000,7.6866,-1.4482,-1.9842,8.070
8.655000,7.6301,-1.4162,-2.3945,8.121
8.662000,7.4940,-1.3670,-2.7136,8.087
8.666000,7.3003,-1.2856,-2.9271,7.970
8.670000,7.0105,-1.2252,-3.0236,7.732
8.675000,6.6321,-1.1790,-3.0015,7.375
8.680000,6.1605,-1.1494,-2.8616,6.889
8.686000,5.6053,-1.1610,-2.6291,6.299
8.690000,5.0230,-1.1768,-2.3431,5.666
8.695000,4.4254,-1.2091,-2.0356,5.019
8.701000,3.8658,-1.2192,-1.7456,4.413
8.759000,3.3636,-1.2070,-1.4949,3.874
8.760000,2.9260,-1.1938,-1.2670,3.405
8.760000,2.5482,-1.1848,-1.0285,2.992
8.761000,2.2689,-1.1594,-0.7813,2.665
8.761000,2.0472,-1.1041,-0.5448,2.389
8.762000,1.8707,-1.0309,-0.3044,2.158
8.762000,1.7179,-0.9547,-0.0411,1.966
8.762000,1.5907,-0.8930,0.2353,1.839
8.763000,1.4537,-0.8569,0.5062,1.762
8.763000,1.3184,-0.8616,0.7405,1.740
8.763000,1.1704,-0.9000,0.9006,1.729
8.764000,0.9998,-0.9698,0.9969,1.713
8.766000,0.8205,-1.0479,1.0229,1.679
8.771000,0.6473,-1.1449,1.0040,1.655
8.775000,0.4749,-1.2778,0.9240,1.647
8.781000,0.3296,-1.4300,0.8051,1.674
8.785000,0.2017,-1.6129,0.6553,1.753
8.791000,0.1196,-1.8131,0.4746,1.878
8.795000,0.0764,-2.0287,0.2713,2.048
8.800000,0.0623,-2.2578,0.0597,2.259
8.848000,0.0655,-2.5099,-0.1579,2.516
8.850000,0.0714,-2.7539,-0.3835,2.781
8.852000,0.0585,-2.9926,-0.6003,3.053
8.853000,-0.0040,-3.1932,-0.7912,3.290
8.855000,-0.0801,-3.3806,-0.9281,3.507
8.856000,-0.1578,-3.5620,-1.0279,3.711
8.857000,-0.2225,-3.7351,-1.0700,3.892
8.858000,-0.2716,-3.9416,-1.0931,4.099
8.859000,-0.3263,-4.1751,-1.1287,4.337
8.861000,-0.4129,-4.4412,-1.1768,4.613
8.862000,-0.5289,-4.7444,-1.2616,4.938
8.862000,-0.6550,-5.0512,-1.3635,5.273
8.865000,-0.8104,-5.3729,-1.4728,5.630
8.871000,-0.9521,-5.7223,-1.5703,6.010
8.875000,-1.1276,-6.0420,-1.6917,6.375
8.881000,-1.3061,-6.3663,-1.8057,6.745
8.886000,-1.4899,-6.6829,-1.8763,7.099
8.891000,-1.6813,-6.9963,-1.9276,7.449
8.895000,-1.6916,-7.3168,-1.9930,7.770
8.901000,-2.0350,-7.6278,-2.0537,8.157
8.907000,-2.1945,-7.9586,-2.0974,8.518
8.910000,-2.3498,-8.2897,-2.1438,8.879
8.915000,-2.3527,-8.6064,-2.1976,9.189
8.921000,-2.6171,-8.9333,-2.2373,9.574
8.976000,-2.7241,-9.2228,-2.2850,9.884
8.977000,-2.8463,-9.4827,-2.3218,10.169
8.978000,-2.9764,-9.7201,-2.3476,10.433
8.980000,-3.1219,-9.9393,-2.3556,10.681
8.983000,-3.2803,-10.1363,-2.3503,10.910
8.985000,-3.4495,-10.3166,-2.3299,11.125
8.986000,-3.6223,-10.4662,-2.3038,11.312
8.989000,-3.8372,-10.5685,-2.2746,11.471
8.992000,-4.0798,-10.6087,-2.2784,11.592
8.993000,-4.3623,-10.5947,-2.3173,11.690
8.996000,-4.6705,-10.5035,-2.3942,11.742
8.998000,-5.0116,-10.3595,-2.4848,11.773
8.999000,-5.3690,-10.1723,-2.5510,11.782
9.001000,-5.7381,-9.9634,-2.6167,11.792
9.002000,-6.1285,-9.7426,-2.7131,11.825
9.004000,-6.4855,-9.5446,-2.7854,11.871
9.005000,-6.8210,-9.3793,-2.8291,11.937
9.011000,-7.0515,-9.3154,-2.8327,12.022
9.018000,-7.1821,-9.4312,-2.7777,12.176
9.023000,-7.1842,-9.7123,-2.6189,12.361
9.025000,-7.0796,-10.0786,-2.4028,12.549
9.030000,-6.9688,-10.4468,-2.2034,12.750
9.037000,-6.9311,-10.6738,-2.0680,12.894
9.096000,-7.0118,-10.7601,-1.9649,12.993
9.097000,-7.2134,-10.7345,-1.8795,13.069
9.098000,-7.4807,-10.6449,-1.8189,13.137
9.098000,-7.7826,-10.5432,-1.7669,13.223
9.099000,-8.0545,-10.4531,-1.7358,13.310
9.099000,-8.2775,-10.3713,-1.7115,13.379
9.100000,-8.2770,-10.2926,-1.6753,13.314
9.100000,-8.3472,-10.2333,-1.6325,13.306
9.101000,-8.1793,-10.1793,-1.6412,13.161
9.102000,-7.9122,-10.0802,-1.7351,12.931
9.102000,-7.5624,-9.9220,-1.9210,12.622
9.103000,-7.1395,-9.6909,-2.1673,12.230
9.103000,-6.6268,-9.4255,-2.4083,11.771
9.106000,-6.0767,-9.1679,-2.6029,11.303
9.111000,-5.5081,-8.9471,-2.7294,10.855
9.118000,-4.8970,-8.7924,-2.8188,10.451
9.123000,-4.2573,-8.7209,-2.8831,10.124
9.130000,-3.6200,-8.7301,-2.9273,9.894
9.131000,-2.9703,-8.8050,-2.9297,9.743
9.136000,-2.3465,-8.9166,-2.9095,9.668
9.197000,-1.7768,-9.0486,-2.8501,9.652
9.198000,-1.2875,-9.2321,-2.7612,9.722
9.199000,-0.8924,-9.4208,-2.6337,9.823
9.201000,-0.5912,-9.5994,-2.5325,9.945
9.202000,-0.3669,-9.7454,-2.4532,10.056
9.205000,-0.2190,-9.8271,-2.3791,10.113
9.207000,-0.1138,-9.8251,-2.2624,10.083
9.208000,-0.0390,-9.7815,-2.1105,10.007
9.209000,0.0486,-9.6833,-1.9207,9.872
9.210000,0.1471,-9.5464,-1.7195,9.701
9.211000,0.2686,-9.3686,-1.4875,9.490
9.212000,0.4277,-9.1597,-1.2529,9.255
9.213000,0.5764,-8.9029,-1.0267,8.980
9.214000,0.7245,-8.5691,-0.8201,8.639
9.216000,0.8885,-8.1843,-0.5956,8.254
9.217000,1.0827,-7.7507,-0.3668,7.835
9.221000,1.3403,-7.2330,-0.1689,7.358
9.227000,1.6612,-6.6799,0.0231,6.883
9.232000,2.0166,-6.1154,0.2167,6.443
9.241000,2.3911,-5.5497,0.3793,6.055
9.243000,2.7514,-4.9753,0.5183,5.709
9.250000,3.0827,-4.3907,0.6769,5.407
9.251000,3.3875,-3.8051,0.8074,5.158
9.322000,3.6432,-3.2260,0.9240,4.953
9.323000,3.8550,-2.6815,1.0673,4.816
9.323000,4.0227,-2.1815,1.1864,4.727
9.324000,4.1558,-1.7046,1.2856,4.672
9.324000,4.2592,-1.2554,1.3791,4.650
9.324000,4.3812,-0.8018,1.4879,4.696
9.325000,4.5232,-0.3459,1.6425,4.825
9.325000,4.6996,0.1344,1.8430,5.050
9.326000,4.9006,0.6219,2.1462,5.386
9.326000,5.0637,1.0852,2.5108,5.755
9.326000,5.1723,1.5152,2.9222,6.131
9.327000,5.2014,1.8812,3.3055,6.444
9.327000,5.1800,2.2247,3.6700,6.727
9.328000,5.1559,2.5649,3.9985,7.011
9.328000,5.1144,2.9065,4.2858,7.278
9.332000,5.0512,3.2453,4.5272,7.519
9.337000,4.9557,3.5585,4.7120,7.709
9.341000,4.8548,3.8688,4.8116,7.854
9.347000,4.7676,4.1740,4.8164,7.959
9.352000,4.7321,4.4957,4.7673,8.083
9.357000,4.7676,4.8248,4.6764,8.239
9.362000,4.8348,5.1341,4.5337,8.384
9.367000,4.9266,5.4095,4.3681,8.521
9.443000,5.0305,5.6345,4.2084,8.647
9.443000,5.1347,5.8281,4.0663,8.767
9.444000,5.2365,5.9666,3.9103,8.849
9.444000,5.3552,6.0744,3.7504,8.924
9.444000,5.4636,6.1770,3.6029,8.999
9.445000,5.5524,6.2320,3.4445,9.030
9.445000,5.5976,6.2205,3.2946,8.993
9.446000,5.6376,6.1668,3.1700,8.937
9.446000,5.6653,6.1120,3.0422,8.872
9.446000,5.7089,6.0508,2.8992,8.810
9.447000,5.7352,5.9980,2.7482,8.742
9.447000,5.7394,5.9371,2.5896,8.654
9.447000,5.7146,5.8707,2.4187,8.542
9.448000,5.6441,5.7921,2.2621,8.398
9.448000,5.5543,5.7083,2.1318,8.245
9.448000,5.4478,5.5933,2.0444,8.071
9.453000,5.3441,5.4571,1.9686,7.888
9.457000,5.2554,5.3071,1.9425,7.717
9.462000,5.1990,5.1293,1.9299,7.554
9.467000,5.1842,4.9309,1.9237,7.409
9.473000,5.1849,4.7242,1.9141,7.271
9.477000,5.1968,4.5141,1.8965,7.140
9.481000,5.2172,4.3032,1.8686,7.016
9.486000,5.2730,4.1061,1.8424,6.932
9.531000,5.3662,3.9156,1.7679,6.874
9.532000,5.4491,3.7844,1.6310,6.832
9.533000,5.5192,3.7436,1.4612,6.827
9.533000,5.5836,3.7861,1.2611,6.863
9.533000,5.6468,3.9019,1.0983,6.951
9.534000,5.7373,3.9953,1.0781,7.074
9.534000,5.8812,3.9488,1.2549,7.194
9.534000,6.0928,3.7074,1.5916,7.308
9.535000,6.3677,3.2331,2.0008,7.416
9.536000,6.6607,2.6168,2.3643,7.537
9.542000,6.9673,2.0051,2.5740,7.693
9.546000,7.2613,1.5078,2.5875,7.855
9.551000,7.5569,1.1610,2.4703,8.035
9.556000,7.8016,0.9528,2.2188,8.167
9.561000,8.0170,0.8763,1.9013,8.286
9.566000,8.2388,0.9172,1.5717,8.437
9.622000,8.4690,1.0682,1.3264,8.639
9.623000,8.7023,1.3096,1.2185,8.884
9.623000,8.9116,1.5806,1.3022,9.144
9.624000,9.0297,1.8376,1.5428,9.343
9.624000,9.0466,2.0748,1.8311,9.460
9.624000,8.9648,2.2726,2.1106,9.486
9.625000,8.8083,2.3806,2.3758,9.429
9.625000,8.5797,2.3651,2.6117,9.275
9.625000,8.3249,2.2122,2.7699,9.048
9.626000,8.0826,1.9463,2.8052,8.774
9.626000,7.8559,1.5968,2.7177,8.465
9.626000,7.6692,1.2002,2.5247,8.163
9.633000,7.5347,0.8217,2.2389,7.903
9.637000,7.4741,0.5070,1.8754,7.722
9.641000,7.4659,0.2612,1.4686,7.613
9.648000,7.5097,0.0985,1.0934,7.590
9.652000,7.6058,0.0239,0.7047,7.638
9.657000,7.7081,0.0204,0.3580,7.716
9.662000,7.7926,0.0853,0.0580,7.793
9.666000,7.8452,0.2042,-0.1833,7.850
9.726000,7.8678,0.3529,-0.3610,7.884
9.729000,7.8751,0.5291,-0.4439,7.905
9.730000,7.8307,0.7539,-0.4058,7.877
9.732000,7.6986,1.0027,-0.2401,7.767
9.733000,7.4139,1.2201,0.0387,7.514
9.734000,7.0343,1.4438,0.3841,7.191
9.735000,6.6153,1.6696,0.7215,6.861
9.738000,6.1931,1.9114,1.0191,6.561
9.740000,5.7748,2.1476,1.2769,6.292
9.742000,5.3891,2.3852,1.4828,6.077
9.743000,5.0284,2.5997,1.6345,5.892
9.744000,4.7077,2.7894,1.7299,5.739
9.745000,4.3978,2.9657,1.7737,5.593
9.745000,4.0988,3.1165,1.7517,5.439
9.745000,3.8153,3.2321,1.6975,5.281
9.748000,3.5565,3.3212,1.5992,5.122
9.752000,3.2968,3.3583,1.4761,4.932
9.757000,3.0263,3.3357,1.3089,4.690
9.762000,2.7405,3.2390,1.1170,4.387
9.767000,2.4731,3.0828,0.9410,4.063
9.773000,2.2192,2.8572,0.7329,3.691
9.777000,1.9680,2.5996,0.5172,3.301
9.782000,1.7457,2.3003,0.2749,2.901
9.854000,1.5476,1.9742,0.0543,2.509
9.858000,1.3812,1.6572,-0.1418,2.162
9.859000,1.2412,1.3655,-0.3088,1.871
9.860000,1.1095,1.0695,-0.4533,1.606
9.862000,0.9665,0.7733,-0.5829,1.368
9.865000,0.8030,0.4580,-0.6998,1.159
9.865000,0.6550,0.1311,-0.8109,1.051
9.865000,0.5127,-0.2082,-0.9115,1.066
9.866000,0.3722,-0.5339,-0.9940,1.188
9.866000,0.2307,-0.8516,-1.0611,1.380
9.867000,0.0909,-1.1610,-1.1126,1.611
9.868000,-0.0520,-1.4837,-1.1607,1.884
9.868000,-0.1740,-1.8025,-1.2052,2.175
9.869000,-0.2631,-2.1134,-1.2417,2.465
9.869000,-0.3381,-2.4266,-1.2723,2.761
9.870000,-0.3897,-2.7357,-1.2946,3.052
9.870000,-0.4226,-3.0121,-1.2873,3.303
9.874000,-0.5014,-3.3159,-1.2647,3.584
9.878000,-0.6023,-3.6238,-1.2417,3.878
9.884000,-0.7342,-3.9628,-1.2109,4.208
9.888000,-0.9139,-4.3262,-1.1989,4.581
9.892000,-1.1344,-4.7113,-1.1863,4.989
9.898000,-1.3547,-5.1056,-1.1728,5.411
9.904000,-1.5774,-5.4979,-1.1537,5.835
9.977000,-1.7903,-5.8811,-1.1457,6.253
9.979000,-1.9814,-6.2486,-1.1610,6.657
9.980000,-2.1843,-6.5878,-1.1899,7.042
9.982000,-2.3893,-6.8959,-1.2302,7.401
9.985000,-2.5992,-7.1735,-1.2651,7.734
9.987000,-2.7850,-7.4542,-1.2872,8.061
9.988000,-2.9638,-7.7385,-1.3012,8.388
9.989000,-3.1502,-8.0192,-1.3262,8.717
9.989000,-3.3442,-8.2529,-1.3336,9.004
9.993000,-3.5436,-8.4522,-1.3498,9.264
9.995000,-3.7603,-8.6224,-1.3701,9.506
9.995000,-3.9587,-8.7714,-1.3896,9.723
9.997000,-4.1558,-8.8920,-1.4038,9.915
9.998000,-4.3539,-9.0079,-1.4078,10.103
9.999000,-4.5604,-9.0951,-1.4092,10.271
9.999000,-4.7633,-9.1899,-1.3983,10.445
10.000000,-4.9654,-9.2765,-1.3897,10.613
10.001000,-5.1904,-9.3577,-1.3716,10.788
10.003000,-5.4124,-9.4165,-1.3630,10.946
10.006000,-5.6267,-9.4526,-1.3665,11.085
10.011000,-5.8477,-9.4450,-1.3771,11.194
10.013000,-6.0733,-9.4116,-1.3946,11.288
10.019000,-6.2559,-9.3696,-1.4166,11.355
10.024000,-6.4075,-9.2999,-1.4620,11.388
10.029000,-6.5236,-9.1976,-1.5451,11.382
10.032000,-6.6140,-9.0440,-1.6629,11.327
10.089000,-6.6981,-8.8292,-1.7985,11.227
10.090000,-6.7591,-8.5491,-1.9349,11.069
10.091000,-6.7996,-8.3017,-2.0527,10.925
10.093000,-6.8004,-8.1495,-2.1066,10.821
10.095000,-6.7162,-8.1541,-2.1042,10.771
10.096000,-6.4775,-8.2934,-2.0297,10.717
10.098000,-6.1367,-8.5267,-1.9270,10.681
10.099000,-5.7561,-8.7441,-1.8062,10.623
10.100000,-5.4024,-8.8961,-1.7035,10.546
10.101000,-5.1138,-8.9830,-1.5877,10.458
10.102000,-4.9164,-9.0368,-1.4684,10.392
10.103000,-4.8531,-9.1146,-1.3432,10.413
10.104000,-4.8664,-9.1995,-1.2362,10.481
10.105000,-4.8988,-9.2720,-1.1733,10.552
10.109000,-4.8929,-9.3314,-1.1687,10.601
10.113000,-4.8917,-9.3805,-1.2172,10.649
10.119000,-4.6466,-9.4474,-1.3092,10.609
10.125000,-4.4086,-9.5153,-1.4808,10.591
10.129000,-4.1227,-9.5100,-1.7414,10.510
10.134000,-3.8510,-9.4024,-2.0550,10.366
10.211000,-3.5289,-9.1603,-2.4043,10.107
10.214000,-3.1777,-8.8412,-2.7175,9.780
10.216000,-2.7997,-8.5126,-2.9899,9.447
10.219000,-2.3805,-8.2393,-3.2073,9.156
10.221000,-1.8912,-7.9825,-3.3937,8.878
10.222000,-1.3221,-7.7728,-3.5086,8.630
10.223000,-0.6972,-7.6149,-3.5356,8.425
10.225000,-0.0497,-7.4784,-3.4990,8.257
10.226000,0.5941,-7.3786,-3.3751,8.136
10.227000,0.6030,-7.2587,-3.3749,8.028
10.228000,1.1832,-7.2095,-3.1710,7.964
10.229000,1.9490,-7.4310,-2.5703,8.101
10.231000,2.1232,-7.5417,-2.2408,8.149
10.232000,2.2184,-7.6393,-1.9310,8.186
10.233000,2.2635,-7.7139,-1.6097,8.199
10.235000,2.2635,-7.7450,-1.3105,8.175
10.235000,2.2448,-7.7409,-1.0472,8.128
10.236000,2.1740,-7.6598,-0.8001,8.002
10.238000,2.0656,-7.5134,-0.5756,7.813
10.239000,1.9649,-7.2586,-0.3657,7.529
10.240000,1.8864,-6.9116,-0.1719,7.166
10.246000,1.8055,-6.4694,0.0140,6.717
10.249000,1.7583,-5.9747,0.2092,6.232
10.255000,1.8019,-5.4207,0.3785,5.725
10.263000,1.7782,-4.8416,0.4960,5.182
10.265000,1.8879,-4.2235,0.5673,4.661
10.269000,2.0304,-3.5663,0.5975,4.147
10.343000,2.1975,-2.8940,0.6203,3.686
10.344000,2.3629,-2.2159,0.6433,3.303
10.344000,2.5384,-1.5375,0.6780,3.044
10.345000,2.7119,-0.8762,0.7241,2.940
10.345000,2.8856,-0.2246,0.8147,3.007
10.346000,3.0302,0.4052,0.8962,3.186
10.346000,3.1553,0.9848,0.9825,3.448
10.347000,3.2415,1.5113,1.0896,3.739
10.347000,3.2816,1.9773,1.1951,4.013
10.347000,3.2664,2.3787,1.2985,4.244
10.348000,3.2024,2.7308,1.3682,4.425
10.348000,3.0803,3.0181,1.4232,4.541
10.349000,2.9337,3.2767,1.4898,4.644
10.349000,2.7626,3.5235,1.5751,4.746
10.349000,2.5954,3.7392,1.6787,4.851
10.349000,2.4304,3.9535,1.7932,4.975
10.354000,2.2668,4.1344,1.8942,5.081
10.359000,2.1052,4.2588,1.9888,5.150
10.365000,1.9432,4.3392,2.0387,5.173
10.368000,1.7904,4.3758,2.0656,5.159
10.374000,1.6640,4.3959,2.0745,5.138
10.378000,1.5682,4.4201,2.0391,5.114
10.383000,1.5151,4.4350,1.9813,5.088
10.458000,1.4688,4.4548,1.9130,5.066
10.459000,1.4198,4.4560,1.8202,5.018
10.459000,1.3922,4.4559,1.7177,4.974
10.459000,1.3712,4.4682,1.5935,4.938
10.460000,1.3714,4.4839,1.4598,4.911
10.460000,1.3952,4.5365,1.3310,4.929
10.461000,1.4138,4.6165,1.1882,4.972
10.461000,1.4587,4.6957,1.0673,5.032
10.461000,1.4981,4.8021,0.9899,5.127
10.462000,1.6112,4.9119,0.9724,5.260
10.462000,1.7284,5.0346,0.9812,5.413
10.462000,1.8328,5.1557,0.9948,5.562
10.463000,1.9271,5.2658,1.0058,5.697
10.463000,2.0320,5.3978,1.0405,5.861
10.463000,2.1167,5.5375,1.0774,6.025
10.464000,2.1859,5.6921,1.1670,6.208
10.470000,2.2467,5.8305,1.2854,6.379
10.475000,2.3134,5.9288,1.4155,6.520
10.479000,2.3981,5.9944,1.5550,6.641
10.485000,2.4813,6.0388,1.7057,6.748
10.495000,2.5751,6.0525,1.8270,6.827
10.498000,2.6482,6.0405,1.9357,6.874
10.499000,2.7224,5.9789,2.0604,6.885
10.569000,2.7717,5.8705,2.1700,6.845
10.570000,2.8054,5.7345,2.2621,6.773
10.570000,2.8647,5.5759,2.3439,6.693
10.570000,2.9640,5.4094,2.4055,6.621
10.571000,3.1322,5.2303,2.4565,6.573
10.571000,3.3741,5.0436,2.4682,6.551
10.571000,3.6606,4.8705,2.4481,6.566
10.572000,3.9820,4.6920,2.4107,6.609
10.572000,4.2689,4.5391,2.3754,6.669
10.572000,4.5596,4.4312,2.3591,6.782
10.573000,4.8421,4.3943,2.3595,6.952
10.573000,5.1065,4.4233,2.3501,7.153
10.574000,5.3262,4.4941,2.3386,7.351
10.574000,5.4869,4.6042,2.3536,7.540
10.577000,5.6268,4.7367,2.4120,7.740
10.580000,5.8102,4.8627,2.6045,8.012
10.584000,6.0894,4.8502,2.9831,8.337
10.589000,6.4692,4.6084,3.5175,8.687
10.594000,6.9088,4.1323,4.0104,8.994
10.599000,7.3698,3.5248,4.3871,9.273
10.608000,7.7685,2.8913,4.5469,9.454
10.609000,8.0737,2.3513,4.4933,9.534
10.614000,8.2690,1.9147,4.2131,9.476
10.619000,8.3689,1.5988,3.7321,9.302
10.685000,8.4265,1.4304,3.1379,9.105
10.686000,8.4539,1.3930,2.5300,8.934
10.686000,8.4823,1.4798,1.9836,8.836
10.687000,8.5187,1.6429,1.5853,8.819
10.687000,8.6016,1.8344,1.4184,8.909
10.688000,8.7446,2.0031,1.4935,9.095
10.688000,8.9045,2.1102,1.7347,9.314
10.689000,9.0139,2.1379,2.0252,9.483
10.689000,9.0490,2.1076,2.2966,9.571
10.690000,9.0124,1.9925,2.5169,9.567
10.690000,8.9142,1.8265,2.6331,9.473
10.690000,8.8003,1.6388,2.6454,9.334
10.691000,8.7234,1.4606,2.5948,9.218
10.691000,8.7032,1.3046,2.5491,9.162
10.694000,8.7034,1.1562,2.5777,9.150
10.702000,8.6834,0.9912,2.6711,9.139
10.706000,8.6529,0.8339,2.7837,9.128
10.711000,8.6070,0.6503,2.8985,9.105
10.716000,8.5508,0.4911,2.9821,9.069
10.720000,8.4770,0.3606,3.0010,9.000
10.724000,8.3449,0.2658,2.9432,8.853
10.729000,8.1714,0.2044,2.8259,8.649
10.734000,7.9517,0.1740,2.6616,8.387
10.795000,7.7486,0.1656,2.4773,8.137
10.796000,7.5927,0.1814,2.2614,7.924
10.797000,7.4626,0.1976,2.0361,7.738
10.798000,7.3601,0.2353,1.8234,7.586
10.800000,7.2491,0.2820,1.6255,7.434
10.801000,7.0986,0.3261,1.4261,7.248
10.801000,6.8772,0.3764,1.2491,7.000
10.802000,6.5757,0.3778,1.0845,6.675
10.803000,6.2135,0.3400,0.9247,6.291
10.805000,5.8290,0.2653,0.7574,5.884
10.805000,5.4545,0.1572,0.5873,5.488
10.807000,5.0948,0.0422,0.4092,5.111
10.809000,4.7504,-0.0509,0.2324,4.756
10.810000,4.4622,-0.1193,0.0833,4.465
10.811000,4.2302,-0.1535,-0.0169,4.233
10.816000,4.0588,-0.1613,-0.0852,4.063
10.821000,3.9079,-0.1445,-0.1238,3.913
10.833000,3.7460,-0.1182,-0.1092,3.749
10.838000,3.5418,-0.1165,-0.0583,3.544
10.839000,3.2883,-0.1205,0.0144,3.291
10.842000,2.9973,-0.1597,0.1275,3.004
10.844000,2.6838,-0.2330,0.2266,2.703
10.850000,2.3739,-0.3507,0.2590,2.414
10.915000,2.0793,-0.5344,0.2064,2.157
10.916000,1.8433,-0.7884,0.0909,2.007
10.917000,1.6271,-1.0583,-0.1251,1.945
10.918000,1.3998,-1.3111,-0.4135,1.962
10.921000,1.1757,-1.5375,-0.7473,2.075
10.922000,0.9256,-1.7398,-1.0991,2.256
10.923000,0.6973,-1.9271,-1.4226,2.495
10.926000,0.5023,-2.1530,-1.7176,2.800
10.927000,0.3554,-2.3727,-1.9787,3.110
10.928000,0.2131,-2.6061,-2.2299,3.437
10.929000,0.0777,-2.8701,-2.4639,3.783
10.931000,-0.0792,-3.1265,-2.6999,4.132
10.932000,-0.2747,-3.3712,-2.9380,4.480
10.933000,-0.5104,-3.6168,-3.2066,4.860
10.935000,-0.8031,-3.8589,-3.4628,5.247
10.936000,-1.1261,-4.0947,-3.6950,5.629
10.937000,-1.4575,-4.3284,-3.8963,6.003
10.943000,-1.7995,-4.5580,-4.0626,6.365
10.946000,-2.1299,-4.7980,-4.1896,6.716
10.950000,-2.4247,-5.0129,-4.2542,7.008
10.958000,-2.6836,-5.2120,-4.2572,7.245
10.961000,-2.8943,-5.4120,-4.1830,7.427
10.965000,-3.0519,-5.6225,-4.0444,7.569
10.970000,-3.1754,-5.8683,-3.8448,7.701
11.041000,-3.2834,-6.1499,-3.5922,7.843
11.042000,-3.4072,-6.4849,-3.3233,8.044
11.042000,-3.5369,-6.8180,-3.0456,8.263
11.042000,-3.6678,-7.1776,-2.7596,8.520
11.043000,-3.8022,-7.5568,-2.4940,8.819
11.043000,-3.9260,-7.9152,-2.2702,9.122
11.044000,-3.9915,-8.2246,-2.0879,9.377
11.045000,-4.0113,-8.5348,-1.9561,9.631
11.045000,-3.9761,-8.8075,-1.8621,9.841
11.046000,-3.8720,-9.0433,-1.8316,10.006
11.046000,-3.7189,-9.2457,-1.8562,10.137
11.046000,-3.5530,-9.4301,-1.8924,10.253
11.047000,-3.4081,-9.6016,-1.9155,10.367
11.047000,-3.3227,-9.7461,-1.9324,10.477
11.048000,-3.3064,-9.8644,-1.9334,10.582
11.050000,-3.3738,-9.9479,-1.9014,10.675
11.058000,-3.5392,-10.0237,-1.8294,10.786
11.061000,-3.7764,-10.0940,-1.7028,10.911
11.065000,-4.0661,-10.1586,-1.5600,11.053
11.069000,-4.3702,-10.1721,-1.4370,11.164
11.138000,-4.6889,-10.1645,-1.3481,11.275
11.139000,-5.0080,-10.0907,-1.2980,11.340
11.139000,-5.3420,-9.9721,-1.3005,11.387
11.139000,-5.6816,-9.8349,-1.3076,11.433
11.140000,-6.0198,-9.6695,-1.3644,11.472
11.140000,-6.3306,-9.5012,-1.4399,11.507
11.141000,-6.5782,-9.3277,-1.5315,11.516
11.141000,-6.7532,-9.1725,-1.6277,11.506
11.142000,-6.8103,-9.1333,-1.6880,11.517
11.142000,-6.7735,-9.2409,-1.6601,11.577
11.142000,-6.6285,-9.4830,-1.5518,11.674
11.143000,-6.4327,-9.8255,-1.4189,11.829
11.143000,-6.2410,-10.1539,-1.3524,11.995
11.144000,-6.1420,-10.3798,-1.3663,12.138
11.146000,-6.1644,-10.4579,-1.4511,12.226
11.151000,-6.2912,-10.4099,-1.5871,12.266
11.155000,-6.4478,-10.3144,-1.7181,12.285
11.161000,-6.5744,-10.2519,-1.8473,12.318
11.165000,-6.6300,-10.2363,-2.0065,12.360
11.170000,-6.5714,-10.2862,-2.1393,12.392
11.175000,-6.3890,-10.3386,-2.2627,12.362
11.180000,-6.1184,-10.3704,-2.3777,12.273
11.185000,-5.7930,-10.3480,-2.4867,12.117
11.274000,-5.4509,-10.2549,-2.6400,11.910
11.276000,-5.0728,-10.1156,-2.8109,11.660
11.276000,-4.6753,-9.9275,-3.0136,11.380
11.277000,-4.2416,-9.7350,-3.1879,11.087
11.277000,-3.7475,-9.5524,-3.3336,10.789
11.277000,-3.2313,-9.4065,-3.4145,10.516
11.278000,-2.7214,-9.3334,-3.4258,10.308
11.278000,-2.2177,-9.2968,-3.3840,10.139
11.279000,-1.7197,-9.2912,-3.2583,9.995
11.279000,-1.2537,-9.2996,-3.0654,9.872
11.279000,-0.8455,-9.3126,-2.8437,9.774
11.279000,-0.4686,-9.2969,-2.5910,9.663
11.280000,-0.1178,-9.2666,-2.2619,9.539
11.280000,0.2261,-9.2213,-1.8588,9.409
11.281000,0.5038,-9.1888,-1.5374,9.330
11.281000,0.7512,-9.1688,-1.3020,9.291
11.281000,1.0141,-9.1110,-1.0661,9.229
11.282000,1.2853,-9.0104,-0.8439,9.141
11.282000,1.5533,-8.8617,-0.6133,9.018
11.286000,1.7961,-8.6722,-0.3497,8.863
11.291000,1.9926,-8.4076,-0.0767,8.641
11.296000,2.1691,-8.1190,0.1964,8.406
11.300000,2.3353,-7.7729,0.4341,8.128
11.358000,2.5251,-7.3949,0.6196,7.839
11.358000,2.7499,-6.9736,0.7702,7.536
11.359000,2.9810,-6.5178,0.8959,7.223
11.359000,3.1800,-6.0309,1.0043,6.892
11.359000,3.3778,-5.5275,1.0744,6.566
11.360000,3.5817,-5.0118,1.1521,6.267
11.360000,3.7739,-4.4936,1.2450,5.999
11.360000,3.9830,-3.9462,1.3463,5.766
11.361000,4.2040,-3.3941,1.3892,5.579
11.361000,4.4340,-2.8162,1.4529,5.450
11.361000,4.6660,-2.2146,1.5899,5.404
11.361000,4.8891,-1.6281,1.7062,5.428
11.366000,5.0725,-1.0511,1.7848,5.479
11.371000,5.2494,-0.4625,1.8444,5.583
11.376000,5.3906,0.1060,1.8922,5.714
11.381000,5.4653,0.6552,1.9590,5.843
11.386000,5.4771,1.1737,2.0204,5.955
11.463000,5.4764,1.6550,2.1074,6.097
11.464000,5.4392,2.1161,2.2200,6.244
11.465000,5.3724,2.5523,2.3434,6.393
11.465000,5.3051,2.9882,2.4657,6.569
11.466000,5.2215,3.4053,2.5577,6.738
11.467000,5.1292,3.7924,2.6479,6.907
11.467000,5.0254,4.1590,2.7168,7.066
11.468000,4.9243,4.5004,2.7546,7.217
11.468000,4.8026,4.8055,2.7371,7.325
11.469000,4.6548,5.0735,2.6830,7.390
11.469000,4.5125,5.3078,2.5731,7.427
11.470000,4.3951,5.5282,2.4243,7.467
11.471000,4.3026,5.7564,2.2632,7.535
11.471000,4.2542,5.9975,2.1016,7.648
11.471000,4.2212,6.2402,1.9641,7.786
11.472000,4.2006,6.4740,1.8739,7.942
11.472000,4.2046,6.6924,1.8024,8.107
11.476000,4.2809,6.9120,1.7806,8.323
11.481000,4.4002,7.1324,1.8152,8.575
11.486000,4.5026,7.3202,1.8895,8.799
11.491000,4.5970,7.4412,1.9717,8.966
11.496000,4.6669,7.5078,2.0234,9.069
11.501000,4.7050,7.5130,2.0735,9.104
11.584000,4.7280,7.4715,2.1391,9.097
11.586000,4.7242,7.4003,2.1916,9.049
11.587000,4.7030,7.2897,2.2262,8.956
11.588000,4.6337,7.1453,2.2358,8.805
11.589000,4.5718,6.9888,2.2300,8.644
11.590000,4.5106,6.8422,2.2038,8.486
11.591000,4.4790,6.6940,2.1813,8.344
11.592000,4.4556,6.5655,2.1742,8.227
11.593000,4.4455,6.4213,2.1727,8.107
11.594000,4.4680,6.2783,2.1817,8.009
11.595000,4.5138,6.1366,2.2010,7.929
11.596000,4.5830,6.0084,2.2282,7.878
11.597000,4.7041,5.9174,2.2439,7.885
11.598000,4.8629,5.8445,2.2341,7.924
11.599000,5.0445,5.8064,2.2013,8.000
11.600000,5.2176,5.8003,2.1722,8.099
11.601000,5.3629,5.8072,2.1400,8.189
11.602000,5.4726,5.8650,2.1218,8.298
11.603000,5.5204,5.8898,2.1127,8.344
11.605000,5.5110,5.9245,2.0888,8.357
11.610000,5.5330,5.9524,2.0858,8.390
11.613000,5.6126,5.9184,2.1394,8.432
11.618000,5.7808,5.7052,2.3161,8.446
11.625000,6.0208,5.2078,2.5842,8.370
11.628000,6.2972,4.4098,2.8445,8.197
11.631000,6.5750,3.4673,2.9574,8.000
11.637000,6.9410,2.5821,2.8107,7.921
11.716000,7.4385,1.8789,2.3819,8.033
11.717000,8.0003,1.3751,1.8261,8.320
11.717000,8.5758,1.0469,1.2459,8.729
11.718000,9.1482,0.8825,0.7143,9.218
11.718000,9.7173,0.8774,0.2610,9.760
11.718000,10.2254,1.0241,-0.0465,10.277
11.719000,10.7151,1.3893,-0.2320,10.807
11.719000,11.0732,1.9501,-0.3100,11.248
11.719000,11.2365,2.6288,-0.2188,11.542
11.720000,11.1875,3.3021,0.1124,11.665
11.720000,10.9449,3.8299,0.6913,11.616
11.721000,10.5854,4.1541,1.3936,11.456
11.721000,10.1812,4.2911,2.0663,11.240
11.721000,9.7926,4.2455,2.6005,10.986
11.722000,9.4749,4.0222,2.9456,10.706
11.722000,9.2469,3.6357,3.0662,10.398
11.723000,9.1233,3.0796,3.0164,10.090
11.726000,9.0562,2.3951,2.8355,9.787
11.733000,9.0153,1.6381,2.4812,9.493
11.737000,9.0251,0.9152,1.9765,9.284
11.807000,9.1072,0.2888,1.3922,9.218
11.808000,9.2145,-0.2397,0.8377,9.256
11.808000,9.3180,-0.6534,0.3494,9.347
11.809000,9.4108,-0.9572,-0.0224,9.459
11.809000,9.4432,-1.1318,-0.2997,9.515
11.809000,9.4297,-1.2035,-0.5000,9.519
11.810000,9.3537,-1.1587,-0.6285,9.446
11.810000,9.2492,-0.9802,-0.6692,9.325
11.810000,9.1203,-0.6983,-0.5916,9.166
11.810000,8.9281,-0.3904,-0.3725,8.944
11.811000,8.6366,-0.1223,-0.0534,8.638
11.811000,8.2429,0.0790,0.3123,8.249
11.811000,7.7577,0.2068,0.6620,7.789
11.811000,7.2598,0.2823,0.9476,7.327
11.812000,6.7878,0.3295,1.1498,6.892
11.818000,6.3369,0.3580,1.2618,6.471
11.825000,5.8972,0.3483,1.3057,6.050
11.828000,5.4384,0.3014,1.2964,5.599
11.832000,4.9747,0.2052,1.2126,5.124
11.837000,4.4777,0.0932,1.0640,4.603
11.911000,3.9788,-0.0269,0.8650,4.072
11.912000,3.4924,-0.1389,0.6253,3.551
11.912000,3.0385,-0.2556,0.3830,3.073
11.913000,2.6076,-0.3677,0.1452,2.637
11.913000,2.1831,-0.4773,-0.0999,2.237
11.914000,1.7934,-0.6348,-0.2945,1.925
11.914000,1.4388,-0.8545,-0.4171,1.725
11.914000,1.1166,-1.1368,-0.5376,1.682
11.915000,0.8446,-1.4799,-0.6990,1.842
11.915000,0.6393,-1.8287,-0.9348,2.151
11.915000,0.5201,-2.1396,-1.2613,2.538
11.916000,0.4341,-2.4003,-1.6276,2.932
11.916000,0.3165,-2.5946,-1.9328,3.251
11.916000,0.1511,-2.7517,-2.1097,3.471
11.917000,-0.0840,-2.8918,-2.1106,3.581
11.917000,-0.3503,-3.0101,-1.9316,3.594
11.925000,-0.6379,-3.1451,-1.6241,3.597
11.929000,-0.9183,-3.2620,-1.2631,3.617
11.933000,-1.2196,-3.3499,-0.9448,3.688
11.941000,-1.5420,-3.4196,-0.6933,3.815
11.946000,-1.8927,-3.4734,-0.5014,3.987
11.947000,-2.2502,-3.5229,-0.3566,4.195
11.952000,-2.5931,-3.6024,-0.2348,4.445
12.026000,-2.9115,-3.7051,-0.1142,4.714
12.027000,-3.1791,-3.8598,-0.0116,5.001
12.027000,-3.3890,-4.0257,0.0587,5.263
12.028000,-3.5509,-4.2001,0.1307,5.501
12.028000,-3.6841,-4.3622,0.2116,5.714
12.028000,-3.8243,-4.4912,0.2610,5.905
12.029000,-3.9599,-4.6018,0.2836,6.078
12.029000,-4.0501,-4.7011,0.2797,6.211
12.029000,-4.0713,-4.8055,0.2638,6.304
12.030000,-4.0071,-4.9257,0.2243,6.354
12.031000,-3.8673,-5.0651,0.1522,6.374
12.031000,-3.7095,-5.1960,0.0453,6.384
12.032000,-3.5556,-5.3427,-0.0841,6.418
12.032000,-3.4365,-5.5244,-0.2167,6.510
12.032000,-3.3692,-5.7418,-0.3382,6.666
12.033000,-3.3535,-5.9790,-0.4247,6.868
12.040000,-3.3894,-6.2389,-0.4809,7.116
12.045000,-3.4603,-6.5072,-0.4852,7.386
12.049000,-3.5731,-6.8075,-0.4333,7.700
12.055000,-3.7134,-7.1188,-0.3423,8.036
12.060000,-3.8859,-7.4607,-0.2509,8.416
12.064000,-4.0595,-7.7880,-0.1761,8.784
12.155000,-4.2247,-8.1047,-0.1249,9.141
12.157000,-4.3627,-8.3769,-0.0972,9.445
12.158000,-4.4639,-8.6003,-0.0713,9.690
12.159000,-4.5551,-8.7904,-0.0328,9.901
12.159000,-4.6411,-8.9478,0.0017,10.080
12.160000,-4.7245,-9.0820,0.0252,10.237
12.161000,-4.8126,-9.1906,0.0164,10.374
12.162000,-4.9248,-9.2455,-0.0386,10.475
12.163000,-5.0899,-9.2839,-0.1782,10.589
12.164000,-5.3033,-9.2679,-0.3371,10.683
12.164000,-5.5271,-9.2115,-0.4761,10.753
12.165000,-5.7925,-9.1247,-0.6358,10.827
12.165000,-6.0757,-9.0241,-0.8543,10.912
12.166000,-6.3434,-8.9207,-1.0788,10.999
12.166000,-6.5408,-8.8550,-1.2807,11.083
12.167000,-6.6653,-8.9080,-1.4484,11.220
12.167000,-6.6957,-9.1078,-1.5539,11.410
12.168000,-6.6390,-9.4559,-1.6007,11.664
12.170000,-6.5334,-9.8626,-1.6140,11.940
12.170000,-6.4099,-10.2296,-1.6135,12.179
12.171000,-6.3475,-10.4950,-1.5921,12.368
12.179000,-6.3700,-10.6373,-1.4998,12.489
12.185000,-6.4556,-10.6785,-1.3606,12.552
12.185000,-6.5466,-10.6664,-1.1970,12.572
12.244000,-6.5688,-10.6464,-1.0858,12.557
12.245000,-6.4671,-10.6303,-1.0560,12.488
12.247000,-6.2390,-10.6470,-1.1389,12.393
12.248000,-5.9110,-10.6457,-1.3247,12.248
12.250000,-5.5355,-10.6009,-1.6062,12.067
12.251000,-5.1532,-10.4814,-1.8849,11.831
12.253000,-4.7568,-10.2421,-2.1896,11.503
12.255000,-4.3819,-9.9530,-2.4673,11.151
12.256000,-4.0093,-9.6692,-2.6604,10.800
12.259000,-3.5910,-9.3957,-2.8023,10.442
12.261000,-3.1003,-9.1457,-2.9314,10.092
12.263000,-2.4966,-8.9100,-3.0189,9.733
12.264000,-1.7941,-8.6990,-3.0864,9.403
12.265000,-1.0405,-8.5279,-3.1195,9.140
12.266000,-0.2668,-8.4019,-3.1115,8.963
12.266000,0.5033,-8.3420,-3.0553,8.898
12.276000,1.2197,-8.3367,-2.9417,8.924
12.280000,1.8227,-8.3529,-2.8116,9.000
12.280000,2.2791,-8.4195,-2.6580,9.118
12.283000,2.5438,-8.4925,-2.4862,9.207
12.358000,2.6241,-8.5872,-2.3248,9.275
12.359000,2.5756,-8.6852,-2.1310,9.306
12.359000,2.4560,-8.7782,-1.8741,9.306
12.360000,2.3136,-8.8366,-1.5878,9.271
12.360000,2.1917,-8.8303,-1.3247,9.194
12.360000,2.1212,-8.7680,-1.0643,9.084
12.361000,2.1499,-8.6204,-0.7557,8.917
12.361000,2.1317,-8.3976,-0.4220,8.674
12.362000,2.1621,-8.0836,-0.1079,8.368
12.362000,2.1983,-7.6996,0.1390,8.009
12.362000,2.2228,-7.2575,0.3321,7.598
12.363000,2.2452,-6.7590,0.4505,7.136
12.363000,2.2413,-6.2191,0.5070,6.630
12.363000,2.2108,-5.6430,0.5122,6.082
12.364000,2.1657,-5.0374,0.4833,5.504
12.364000,2.1074,-4.4116,0.4164,4.907
12.370000,2.0672,-3.7701,0.3307,4.312
12.375000,2.0258,-3.1296,0.2166,3.734
12.378000,2.0119,-2.5026,0.0739,3.212
12.384000,2.0065,-1.9102,-0.0833,2.772
12.426000,2.0160,-1.3594,-0.2169,2.441
12.428000,2.0405,-0.8780,-0.3609,2.250
12.430000,2.0513,-0.4590,-0.4937,2.159
12.433000,2.0605,-0.0996,-0.6180,2.153
12.434000,2.0443,0.2004,-0.7366,2.182
12.435000,2.0800,0.4712,-0.8564,2.298
12.437000,2.1717,0.7569,-0.9541,2.490
12.438000,2.3627,1.0701,-0.9938,2.778
12.438000,2.6027,1.4127,-0.9829,3.120
12.440000,2.8553,1.7844,-0.9025,3.486
12.442000,3.1327,2.1685,-0.6643,3.868
12.446000,3.4576,2.5578,-0.3246,4.313
12.450000,3.7175,2.9140,0.0657,4.724
12.454000,3.9219,3.2151,0.4219,5.089
12.460000,4.0517,3.5138,0.7216,5.411
12.464000,4.1218,3.7964,0.9981,5.692
12.468000,4.1217,4.0613,1.2292,5.916
12.545000,4.0612,4.3071,1.4365,6.092
12.546000,3.9907,4.5364,1.6202,6.255
12.546000,3.9196,4.7445,1.8114,6.415
12.546000,3.8722,4.9348,2.0079,6.586
12.547000,3.8524,5.1276,2.1997,6.780
12.547000,3.8747,5.3116,2.3726,6.990
12.547000,3.9315,5.4867,2.5171,7.204
12.548000,3.9963,5.6479,2.6259,7.400
12.548000,4.0691,5.7885,2.6898,7.570
12.549000,4.1273,5.9052,2.6947,7.692
12.549000,4.1854,5.9867,2.6337,7.765
12.549000,4.2480,6.0497,2.5410,7.817
12.549000,4.3174,6.0946,2.4166,7.850
12.550000,4.3771,6.1217,2.2513,7.855
12.550000,4.4311,6.1210,2.0453,7.828
12.551000,4.4631,6.0836,1.8375,7.766
12.554000,4.4610,6.0169,1.6494,7.670
12.558000,4.4252,5.9213,1.4717,7.537
12.564000,4.3753,5.8117,1.3380,7.397
12.571000,4.3039,5.6881,1.2219,7.237
12.576000,4.2357,5.5534,1.1520,7.079
12.580000,4.1804,5.4031,1.1186,6.922
12.584000,4.1722,5.2640,1.1260,6.811
12.635000,4.1963,5.1335,1.1528,6.730
12.635000,4.2867,5.0262,1.1938,6.713
12.636000,4.4072,4.9470,1.2373,6.740
12.636000,4.5532,4.8740,1.3140,6.798
12.636000,4.7125,4.7955,1.4263,6.873
12.636000,4.8421,4.7231,1.5665,6.943
12.637000,4.9637,4.6641,1.6911,7.018
12.637000,5.0631,4.6209,1.7832,7.083
12.638000,5.1379,4.6294,1.8429,7.157
12.638000,5.2167,4.7134,1.8707,7.275
12.639000,5.3114,4.8849,1.8834,7.458
12.645000,5.3762,5.1003,1.9076,7.652
12.649000,5.4226,5.3213,1.9577,7.846
12.654000,5.4745,5.4711,2.1054,8.021
12.659000,5.5942,5.4588,2.3810,8.171
12.664000,5.8104,5.2199,2.7354,8.276
12.668000,6.0919,4.7927,3.0268,8.321
12.674000,6.4436,4.2706,3.1950,8.365
12.679000,6.8078,3.7853,3.1996,8.421
12.684000,7.1845,3.3917,3.0076,8.495
12.766000,7.5447,3.0899,2.6683,8.578
12.767000,7.8670,2.8419,2.2859,8.671
12.767000,8.1561,2.6289,1.8737,8.772
12.768000,8.4383,2.4895,1.4637,8.919
12.768000,8.7756,2.4211,1.1405,9.175
12.769000,9.1412,2.4069,0.9688,9.502
12.769000,9.4655,2.4081,0.9170,9.810
12.769000,9.7125,2.4029,0.9776,10.053
12.770000,9.8701,2.4458,1.1162,10.230
12.770000,9.9380,2.5387,1.3416,10.344
12.770000,9.9187,2.6092,1.6505,10.388
12.771000,9.8218,2.6139,1.9748,10.354
12.771000,9.6599,2.5076,2.2513,10.231
12.772000,9.4717,2.2977,2.4486,10.049
12.772000,9.3174,2.0322,2.5591,9.874
12.772000,9.2237,1.7257,2.5710,9.730
12.773000,9.2049,1.3881,2.4894,9.636
12.776000,9.2329,1.0464,2.3630,9.588
12.780000,9.2716,0.7268,2.2663,9.572
12.784000,9.3542,0.4339,2.2042,9.620
12.791000,9.4591,0.1604,2.1841,9.709
12.795000,9.5028,-0.1248,2.1267,9.739
12.799000,9.5018,-0.3934,2.0058,9.719
12.876000,9.4760,-0.6446,1.8217,9.671
12.877000,9.3942,-0.8380,1.5773,9.562
12.878000,9.2923,-0.9781,1.2662,9.429
12.878000,9.1535,-1.0433,0.9373,9.260
12.878000,8.9894,-1.0221,0.6175,9.068
12.879000,8.7933,-0.9163,0.3553,8.848
12.879000,8.5742,-0.7360,0.1792,8.608
12.879000,8.3155,-0.5390,0.0630,8.333
12.880000,8.0313,-0.3065,0.0134,8.037
12.880000,7.7287,-0.0680,0.0203,7.729
12.881000,7.3888,0.1599,0.0596,7.391
12.882000,7.0139,0.3648,0.1163,7.024
12.883000,6.6020,0.5416,0.1802,6.627
12.883000,6.1531,0.6733,0.2222,6.194
12.884000,5.6864,0.7739,0.2444,5.744
12.885000,5.2006,0.8444,0.2558,5.275
12.885000,4.7149,0.8724,0.2442,4.801
12.891000,4.2678,0.8532,0.2022,4.357
12.895000,3.8786,0.7918,0.1583,3.962
12.900000,3.5592,0.6758,0.1100,3.624
12.909000,3.3010,0.5066,0.0692,3.340
12.910000,3.0893,0.2884,0.0141,3.103
12.914000,2.9148,0.0599,-0.0810,2.917
12.919000,2.7511,-0.1620,-0.1897,2.762
12.980000,2.6007,-0.3654,-0.2541,2.639
12.981000,2.4466,-0.5462,-0.2549,2.520
12.981000,2.2797,-0.7150,-0.1893,2.397
12.981000,2.0784,-0.9109,-0.0859,2.271
12.982000,1.8618,-1.1532,0.0338,2.190
12.982000,1.5988,-1.4202,0.1125,2.141
12.983000,1.3013,-1.7388,0.1556,2.177
12.983000,0.9607,-2.0660,0.1734,2.285
12.983000,0.6196,-2.3904,0.1350,2.473
12.984000,0.2926,-2.6827,0.0796,2.700
12.984000,0.0107,-2.9497,0.0216,2.950
12.984000,-0.2574,-3.2090,-0.1104,3.221
12.985000,-0.4970,-3.4271,-0.2775,3.474
12.989000,-0.6891,-3.6122,-0.4103,3.700
12.996000,-0.8601,-3.8071,-0.5279,3.939
13.000000,-1.0196,-4.0166,-0.6281,4.191
13.005000,-1.1510,-4.2248,-0.7183,4.437
13.009000,-1.2706,-4.4444,-0.8059,4.692
13.015000,-1.3855,-4.6807,-0.8913,4.962
13.020000,-1.5174,-4.9006,-0.9675,5.221
13.076000,-1.6754,-5.0918,-1.0376,5.460
13.077000,-1.8669,-5.2913,-1.0921,5.716
13.077000,-2.0626,-5.4920,-1.1268,5.974
13.078000,-2.2865,-5.7141,-1.1610,6.263
13.078000,-2.5362,-5.9737,-1.1779,6.596
13.078000,-2.7709,-6.2540,-1.1706,6.940
13.079000,-3.0027,-6.5530,-1.1725,7.303
13.079000,-3.2196,-6.8586,-1.1959,7.670
13.079000,-3.4216,-7.1522,-1.2336,8.024
13.080000,-3.6016,-7.4236,-1.2763,8.349
13.080000,-3.7478,-7.6677,-1.3263,8.637
13.080000,-3.8533,-7.8770,-1.3550,8.873
13.086000,-3.9183,-8.0882,-1.3601,9.090
13.091000,-3.9309,-8.2874,-1.3608,9.273
13.096000,-3.9345,-8.4921,-1.3688,9.459
13.101000,-3.9175,-8.6690,-1.3695,9.611
13.107000,-3.9183,-8.8324,-1.3533,9.757
13.111000,-3.9418,-8.9926,-1.3223,9.907
13.115000,-3.9643,-9.1503,-1.2692,10.053
13.203000,-4.0052,-9.3088,-1.1966,10.204
13.204000,-4.0550,-9.4678,-1.1283,10.361
13.204000,-4.1041,-9.6011,-1.0741,10.497
13.205000,-4.1742,-9.7163,-1.0386,10.626
13.205000,-4.2680,-9.7645,-1.0288,10.706
13.205000,-4.4119,-9.7657,-1.0349,10.766
13.206000,-4.5988,-9.7342,-1.0352,10.815
13.206000,-4.8551,-9.6509,-1.0605,10.855
13.206000,-5.1497,-9.5357,-1.1299,10.896
13.207000,-5.4852,-9.3994,-1.1955,10.948
13.207000,-5.8496,-9.2708,-1.3437,11.044
13.208000,-6.2217,-9.1090,-1.5379,11.138
13.208000,-6.5324,-8.9400,-1.6992,11.202
13.208000,-6.7600,-8.8523,-1.8472,11.290
13.209000,-6.8882,-8.8686,-1.9992,11.406
13.209000,-6.9076,-9.0271,-2.0643,11.553
13.210000,-6.8064,-9.2818,-2.0646,11.694
13.210000,-6.6708,-9.6018,-2.0296,11.866
13.210000,-6.5701,-9.9058,-1.9974,12.053
13.216000,-6.5880,-10.1647,-1.9493,12.269
13.221000,-6.7006,-10.3118,-1.9019,12.444
13.226000,-6.9149,-10.3660,-1.8530,12.598
13.231000,-7.1711,-10.3390,-1.7865,12.709
13.236000,-7.4546,-10.2856,-1.7240,12.819
13.241000,-7.6675,-10.2531,-1.6374,12.907
13.246000,-7.7788,-10.2890,-1.5054,12.986
13.250000,-7.7763,-10.3878,-1.3408,13.045
13.336000,-7.6602,-10.4825,-1.1777,13.036
13.337000,-7.4805,-10.5248,-1.0930,12.959
13.338000,-7.2418,-10.4605,-1.1056,12.771
13.338000,-6.9441,-10.3231,-1.1866,12.498
13.339000,-6.5802,-10.1321,-1.3162,12.153
13.339000,-6.1500,-9.9716,-1.4915,11.810
13.339000,-5.6271,-9.8224,-1.6831,11.445
13.340000,-5.0404,-9.7106,-1.8428,11.095
13.340000,-4.4181,-9.6375,-1.9270,10.776
13.341000,-3.7411,-9.5648,-1.9905,10.462
13.341000,-3.0594,-9.5192,-2.0090,10.199
13.341000,-2.3536,-9.4416,-1.9847,9.931
13.342000,-1.6522,-9.3366,-1.9179,9.674
13.342000,-1.0144,-9.1995,-1.8420,9.437
13.343000,-0.4639,-9.0518,-1.7403,9.229
13.343000,-0.0243,-8.9205,-1.5772,9.059
13.343000,0.3097,-8.8465,-1.3387,8.953
13.344000,0.5479,-8.8362,-1.0421,8.914
13.347000,0.7052,-8.8795,-0.7594,8.940
13.351000,0.8223,-8.9559,-0.5242,9.009
13.356000,0.8805,-9.0222,-0.3821,9.073
13.364000,0.9230,-9.0658,-0.3253,9.119
13.367000,0.9428,-9.0424,-0.3417,9.098
13.374000,0.9686,-8.9917,-0.4088,9.053
13.375000,1.0270,-8.8957,-0.5048,8.969
13.382000,1.1493,-8.7299,-0.6509,8.829
13.385000,1.3522,-8.4729,-0.8008,8.617
13.465000,1.6649,-8.1575,-0.9015,8.374
13.467000,2.1034,-7.7505,-0.9596,8.088
13.468000,2.6176,-7.2638,-0.9602,7.781
13.468000,3.1593,-6.7082,-0.9099,7.471
13.469000,3.6877,-6.1256,-0.8084,7.196
13.473000,4.1473,-5.5363,-0.6890,6.952
13.474000,4.5577,-4.9593,-0.5160,6.755
13.476000,4.9467,-4.3927,-0.3087,6.623
13.476000,5.2881,-3.8480,-0.1081,6.541
13.477000,5.5578,-3.3258,0.1217,6.478
13.478000,5.7889,-2.8146,0.3758,6.448
13.478000,5.9673,-2.2897,0.6089,6.420
13.479000,6.1110,-1.7559,0.8879,6.420
13.479000,6.2130,-1.2053,1.1912,6.440
13.481000,6.2990,-0.6289,1.5188,6.510
13.481000,6.3473,-0.0437,1.8823,6.621
13.482000,6.3460,0.5484,2.2840,6.767
13.483000,6.3079,1.1305,2.7162,6.960
13.484000,6.2377,1.6817,3.1333,7.180
13.494000,6.0968,2.1705,3.5018,7.358
13.498000,5.9161,2.5948,3.8236,7.507
13.498000,5.6910,3.0031,4.0985,7.629
13.501000,5.4494,3.3822,4.2901,7.716
13.581000,5.1965,3.7382,4.4008,7.768
13.582000,4.9755,4.0857,4.4016,7.799
13.582000,4.8099,4.4082,4.3384,7.835
13.582000,4.7120,4.7161,4.2184,7.889
13.583000,4.6592,5.0082,4.0172,7.933
13.583000,4.6520,5.2640,3.7851,7.980
13.584000,4.6855,5.4717,3.5292,8.022
13.584000,4.7454,5.6653,3.2326,8.066
13.584000,4.8122,5.8566,2.9436,8.132
13.585000,4.8862,6.0151,2.6934,8.204
13.585000,4.9257,6.1592,2.4913,8.271
13.586000,4.9215,6.2844,2.3540,8.322
13.586000,4.8903,6.3933,2.2574,8.360
13.586000,4.8273,6.4812,2.2322,8.384
13.587000,4.7067,6.5461,2.2352,8.367
13.587000,4.5210,6.5542,2.2324,8.269
13.587000,4.3042,6.5372,2.2501,8.144
13.634000,4.0519,6.4812,2.2882,7.979
13.634000,3.7835,6.4057,2.3370,7.798
13.635000,3.5210,6.2898,2.3800,7.591
13.635000,3.3195,6.1646,2.4406,7.415
13.635000,3.1720,6.0375,2.4830,7.258
13.636000,3.0714,5.8994,2.4811,7.099
13.636000,2.9819,5.7624,2.4735,6.944
13.636000,2.9397,5.6268,2.4628,6.809
13.636000,2.9061,5.4996,2.4560,6.688
13.637000,2.8887,5.3549,2.4509,6.559
13.643000,2.8898,5.2047,2.4357,6.432
13.647000,2.9097,5.0517,2.4249,6.314
13.651000,2.9487,4.9058,2.4017,6.207
13.709000,3.0281,4.7692,2.3878,6.133
13.710000,3.1407,4.6541,2.3858,6.101
13.711000,3.2771,4.5653,2.3957,6.109
13.711000,3.4323,4.5196,2.4297,6.173
13.711000,3.5945,4.5073,2.4974,6.283
13.711000,3.7419,4.5569,2.6058,6.446
13.712000,3.8743,4.6657,2.7331,6.652
13.712000,3.9653,4.8240,2.8481,6.863
13.712000,4.0243,5.0121,2.9794,7.085
13.713000,4.0559,5.2156,3.1096,7.302
13.713000,4.0794,5.3936,3.2480,7.502
13.714000,4.1448,5.4932,3.4393,7.693
13.717000,4.3193,5.4285,3.7303,7.877
13.722000,4.6005,5.1182,4.0771,7.999
13.727000,4.9741,4.6008,4.3425,8.048
13.732000,5.3900,3.9675,4.4377,8.030
13.737000,5.8122,3.3404,4.3322,7.982
13.742000,6.2026,2.7940,4.0797,7.932
13.747000,6.6447,2.3357,3.7390,7.974
13.751000,7.1218,1.9368,3.3806,8.118
13.829000,7.5788,1.5858,3.0196,8.311
13.830000,8.0207,1.3235,2.6045,8.536
13.831000,8.4328,1.1859,2.1650,8.787
13.831000,8.8007,1.1969,1.7333,9.049
13.831000,9.1240,1.3754,1.3988,9.332
13.832000,9.3949,1.6826,1.2195,9.622
13.832000,9.5627,2.0509,1.2526,9.860
13.832000,9.6316,2.4243,1.5472,10.052
13.833000,9.5894,2.7397,2.1014,10.192
13.833000,9.4983,2.9510,2.8054,10.334
13.833000,9.3965,3.0406,3.5277,10.487
13.834000,9.3202,3.0156,4.1372,10.634
13.834000,9.2789,2.8828,4.5568,10.732
13.834000,9.2772,2.6515,4.7599,10.759
13.835000,9.2600,2.3098,4.7331,10.653
13.835000,9.2203,1.8725,4.5176,10.437
13.838000,9.1304,1.3621,4.1746,10.131
13.842000,9.0409,0.8128,3.7552,9.823
13.847000,8.9690,0.2610,3.3153,9.566
13.852000,8.9366,-0.2782,2.8962,9.398
13.857000,8.9866,-0.7668,2.4816,9.354
13.863000,9.0811,-1.2063,2.0773,9.393
13.866000,9.1861,-1.5708,1.7078,9.475
13.938000,9.2540,-1.8650,1.3421,9.535
13.939000,9.2276,-2.0791,0.9353,9.505
13.939000,9.1046,-2.1913,0.4999,9.378
13.940000,8.9147,-2.1598,0.0947,9.173
13.940000,8.6574,-1.9849,-0.2416,8.885
13.940000,8.3231,-1.6621,-0.4493,8.499
13.941000,7.9333,-1.2303,-0.4570,8.041
13.941000,7.5068,-0.7674,-0.2569,7.550
13.941000,7.0272,-0.3309,0.0729,7.035
13.942000,6.5162,0.0256,0.4303,6.530
13.942000,6.0123,0.3137,0.7422,6.066
13.942000,5.5373,0.5644,0.9720,5.650
13.943000,5.1055,0.7894,1.0859,5.279
13.943000,4.7383,0.9929,1.0887,4.962
13.944000,4.3859,1.1518,1.0195,4.648
13.948000,4.0478,1.2442,0.9264,4.335
13.953000,3.7361,1.2698,0.8287,4.032
13.958000,3.4508,1.2528,0.7338,3.744
13.963000,3.2037,1.1732,0.6224,3.468
13.967000,2.9740,1.0469,0.4831,3.190
13.975000,2.7306,0.8807,0.2970,2.884
13.979000,2.4975,0.7013,0.1002,2.596
13.982000,2.2727,0.5162,-0.0781,2.332
13.986000,2.0988,0.3224,-0.2065,2.133
14.051000,1.9381,0.1381,-0.2915,1.965
14.052000,1.7735,-0.0733,-0.3354,1.806
14.052000,1.5883,-0.3167,-0.3522,1.657
14.052000,1.3707,-0.6109,-0.3444,1.540
14.053000,1.1398,-0.9374,-0.3598,1.519
14.053000,0.9275,-1.2869,-0.3930,1.634
14.054000,0.7548,-1.6314,-0.4245,1.847
14.054000,0.6217,-1.9637,-0.4658,2.112
14.054000,0.4970,-2.3291,-0.5168,2.437
14.055000,0.3639,-2.7161,-0.5702,2.799
14.055000,0.2324,-3.1157,-0.6036,3.182
14.056000,0.0928,-3.5067,-0.6485,3.567
14.056000,-0.0404,-3.8794,-0.7072,3.944
14.058000,-0.1504,-4.2362,-0.7749,4.309
14.063000,-0.2873,-4.5624,-0.8566,4.651
14.068000,-0.4296,-4.8709,-0.9502,4.981
14.073000,-0.5696,-5.1570,-1.0485,5.293
14.078000,-0.7337,-5.4504,-1.1447,5.617
14.083000,-0.9122,-5.7316,-1.2459,5.936
14.091000,-1.0882,-5.9979,-1.3477,6.243
14.093000,-1.2832,-6.2429,-1.4194,6.530
14.097000,-1.4969,-6.4667,-1.4874,6.802
14.101000,-1.7317,-6.6414,-1.5401,7.034
14.172000,-1.9589,-6.7885,-1.5753,7.239
14.174000,-2.1928,-6.9196,-1.5882,7.431
14.175000,-2.4073,-7.0430,-1.6005,7.613
14.175000,-2.6216,-7.1614,-1.5976,7.792
14.178000,-2.7975,-7.2805,-1.5939,7.961
14.179000,-2.9400,-7.4097,-1.6037,8.131
14.181000,-3.0755,-7.5654,-1.6412,8.330
14.181000,-3.1733,-7.7341,-1.6868,8.528
14.182000,-3.2671,-7.8896,-1.7594,8.719
14.183000,-3.3571,-8.0378,-1.8227,8.899
14.185000,-3.4245,-8.1664,-1.8740,9.052
14.186000,-3.5077,-8.3283,-1.9252,9.240
14.187000,-3.6044,-8.4952,-1.9832,9.439
14.188000,-3.7029,-8.6821,-2.0505,9.659
14.189000,-3.8152,-8.8751,-2.1057,9.887
14.189000,-3.9246,-9.0883,-2.1633,10.133
14.191000,-4.0575,-9.3045,-2.2115,10.389
14.194000,-4.1709,-9.4853,-2.2483,10.603
14.198000,-4.3079,-9.6599,-2.2714,10.818
14.202000,-4.4495,-9.8243,-2.2551,11.018
14.208000,-4.6219,-9.9529,-2.2093,11.194
14.212000,-4.8156,-10.0790,-2.1581,11.377
14.217000,-5.0116,-10.1931,-2.1042,11.552
14.292000,-5.2194,-10.2858,-2.0618,11.717
14.295000,-5.4513,-10.3300,-2.0579,11.860
14.298000,-5.6856,-10.3090,-2.0756,11.955
14.299000,-5.9202,-10.2328,-2.1127,12.009
14.301000,-6.1957,-10.1323,-2.1763,12.074
14.302000,-6.4692,-9.9860,-2.2785,12.114
14.305000,-6.7528,-9.8337,-2.4148,12.171
14.306000,-7.0395,-9.6590,-2.5563,12.222
14.307000,-7.3078,-9.4882,-2.6647,12.269
14.308000,-7.5293,-9.3572,-2.7351,12.318
14.308000,-7.6824,-9.3614,-2.7391,12.416
14.309000,-7.7698,-9.5119,-2.6870,12.572
14.309000,-7.7678,-9.7984,-2.5957,12.771
14.310000,-7.7196,-10.1464,-2.4871,12.989
14.311000,-7.6445,-10.4862,-2.3896,13.195
14.311000,-7.5690,-10.7271,-2.2813,13.325
14.312000,-7.5408,-10.8766,-2.1529,13.409
14.313000,-7.5836,-10.9658,-2.0237,13.485
14.313000,-7.7020,-11.0041,-1.9203,13.568
14.317000,-7.8600,-11.0148,-1.8769,13.661
14.325000,-8.0266,-10.9851,-1.8553,13.731
14.328000,-8.1585,-10.9167,-1.8894,13.759
14.332000,-8.2173,-10.8434,-1.9435,13.743
14.338000,-8.2436,-10.8333,-2.0133,13.761
14.415000,-8.0986,-10.7664,-2.0696,13.630
14.417000,-7.8562,-10.6886,-2.1437,13.437
14.419000,-7.4829,-10.5346,-2.2666,13.119
14.420000,-6.9422,-10.2941,-2.4522,12.656
14.422000,-6.2460,-9.9961,-2.6927,12.091
14.423000,-5.4636,-9.6507,-2.9252,11.469
14.425000,-4.6230,-9.2949,-3.1042,10.835
14.427000,-3.6595,-8.9287,-3.2679,10.188
14.428000,-2.5748,-8.5841,-3.3872,9.581
14.429000,-1.4168,-8.2640,-3.4550,9.069
14.430000,-0.2495,-7.9626,-3.4858,8.696
14.431000,0.9103,-7.7078,-3.5007,8.514
14.433000,1.9838,-7.5645,-3.4852,8.562
14.434000,2.8993,-7.5164,-3.4721,8.773
14.435000,3.5755,-7.6013,-3.4374,9.076
14.436000,3.9958,-7.8139,-3.3499,9.394
14.436000,4.1702,-8.1247,-3.1335,9.655
14.438000,4.1926,-8.4582,-2.8200,9.852
14.439000,4.1497,-8.7454,-2.4959,9.997
14.441000,4.1394,-8.9754,-2.1679,10.119
14.446000,4.1669,-9.2017,-1.7884,10.258
14.447000,4.1872,-9.4093,-1.3670,10.389
14.454000,4.2222,-9.5426,-0.9683,10.480
14.465000,4.3085,-9.5573,-0.5806,10.500
14.469000,4.4696,-9.4292,-0.2028,10.437
14.469000,4.7060,-9.1765,0.1368,10.314
14.525000,5.0223,-8.7809,0.4489,10.126
14.525000,5.4326,-8.2406,0.7799,9.901
14.526000,5.9035,-7.5438,1.1497,9.648
14.526000,6.4024,-6.7235,1.5046,9.405
14.527000,6.8858,-5.8136,1.8834,9.206
14.527000,7.2835,-4.8443,2.2557,9.034
14.527000,7.5782,-3.8505,2.6411,8.901
14.528000,7.7885,-2.8395,3.0736,8.841
14.529000,7.9102,-1.8269,3.5625,8.866
14.529000,7.9743,-0.8006,4.0189,8.966
14.529000,7.9991,0.2143,4.4658,9.164
14.530000,7.9456,1.1954,4.8595,9.390
14.533000,7.8448,2.1073,5.1994,9.644
14.538000,7.7120,2.9452,5.4913,9.915
14.542000,7.5542,3.6930,5.7633,10.194
14.547000,7.3473,4.3460,5.9401,10.400
14.552000,7.1028,4.9234,6.0115,10.527
14.598000,6.8210,5.3688,5.9654,10.533
14.599000,6.4890,5.7076,5.8107,10.414
14.599000,6.1386,5.9128,5.5351,10.163
14.600000,5.7869,6.0307,5.1126,9.798
14.600000,5.4510,6.0748,4.5652,9.352
14.600000,5.1434,6.0485,3.9866,8.884
14.601000,4.8841,6.0206,3.4353,8.480
14.601000,4.9210,6.0001,2.9566,8.304
14.601000,4.5133,5.9954,2.5697,7.932
14.603000,4.3552,6.0282,2.2503,7.770
14.610000,4.2292,6.0699,2.0027,7.664
14.614000,4.1042,6.1042,1.8313,7.580
14.618000,3.9776,6.1136,1.7421,7.499
14.624000,3.8233,6.0984,1.6703,7.389
14.629000,3.6465,6.0662,1.6086,7.258
14.632000,3.4614,6.0315,1.5473,7.124
14.722000,3.2876,5.9877,1.4894,6.991
14.723000,3.1150,5.9319,1.4443,6.854
14.723000,2.9487,5.8624,1.4245,6.715
14.723000,2.7887,5.7840,1.4183,6.576
14.724000,2.6374,5.7044,1.4596,6.452
14.724000,2.4832,5.6382,1.5392,6.350
14.724000,2.3354,5.5613,1.6474,6.253
14.725000,2.2110,5.4765,1.7990,6.174
14.725000,2.1317,5.3816,1.9625,6.112
14.725000,2.0736,5.2982,2.1355,6.077
14.726000,2.0345,5.2193,2.2918,6.052
14.726000,2.0214,5.1469,2.4285,6.039
14.726000,2.0178,5.0767,2.5599,6.033
14.727000,2.0165,5.0086,2.6623,6.020
14.727000,2.0272,4.9357,2.7476,6.002
14.727000,2.0743,4.8653,2.8327,6.000
14.728000,2.1764,4.7997,2.8956,6.013
14.728000,2.3123,4.7580,2.9554,6.060
14.729000,2.4842,4.7330,3.0122,6.136
14.734000,2.6801,4.7319,3.0921,6.256
14.739000,2.8901,4.7518,3.2070,6.420
14.743000,3.0904,4.7643,3.3496,6.593
14.749000,3.2661,4.7925,3.4644,6.756
14.754000,3.3912,4.8321,3.5731,6.900
14.760000,3.5256,4.9259,3.7302,7.114
14.763000,3.6309,5.0332,3.8327,7.294
14.768000,3.7122,5.1803,3.9260,7.485
14.830000,3.7903,5.3451,4.0148,7.685
14.831000,3.8677,5.5421,4.0846,7.897
14.831000,3.9489,5.7279,4.1472,8.099
14.831000,4.0602,5.8831,4.2026,8.292
14.832000,4.2013,5.9290,4.3151,8.451
14.832000,4.3936,5.7960,4.5035,8.554
14.832000,4.6780,5.4437,4.7551,8.610
14.833000,5.0758,4.8916,5.0000,8.642
14.833000,5.5252,4.2092,5.1301,8.635
14.834000,6.0286,3.5285,5.0164,8.600
14.834000,6.5879,2.9976,4.6128,8.583
14.834000,7.1716,2.6141,4.0839,8.657
14.835000,7.6982,2.3495,3.5034,8.778
14.840000,8.1723,2.1655,2.9636,8.959
14.844000,8.6444,2.0338,2.5610,9.242
14.848000,9.1047,1.9663,2.3343,9.603
14.854000,9.5529,1.9460,2.2592,10.007
14.861000,9.9530,1.9748,2.3398,10.413
14.864000,10.2639,2.0426,2.5541,10.772
14.869000,10.4710,2.1487,2.9125,11.079
14.939000,10.6052,2.2826,3.3803,11.362
14.940000,10.6542,2.3577,3.9033,11.589
14.940000,10.6253,2.3471,4.3797,11.730
14.940000,10.5354,2.2507,4.7034,11.755
14.941000,10.4136,2.1043,4.8336,11.672
14.941000,10.2981,1.9654,4.7634,11.515
14.941000,10.1703,1.8250,4.5277,11.281
14.942000,10.0443,1.6734,4.1871,11.010
14.942000,9.9178,1.5108,3.8217,10.736
14.942000,9.7645,1.3230,3.4678,10.446
14.942000,9.6131,1.0811,3.1638,10.178
14.943000,9.4618,0.8001,2.9100,9.931
14.943000,9.3561,0.5063,2.6824,9.746
14.945000,9.2624,0.1851,2.4762,9.589
14.946000,9.1688,-0.1348,2.2962,9.453
14.950000,9.0276,-0.4776,2.0442,9.268
14.954000,8.8255,-0.8202,1.7477,9.034
14.960000,8.5889,-1.1050,1.4074,8.773
14.964000,8.3255,-1.3029,1.0670,8.494
14.970000,8.0498,-1.4087,0.7318,8.205
14.975000,7.7472,-1.4325,0.4714,7.893
14.982000,7.4159,-1.3472,0.3099,7.544
14.983000,7.0462,-1.2038,0.2487,7.153
15.060000,6.6642,-1.0318,0.2512,6.748
15.061000,6.2727,-0.8697,0.2900,6.339
15.062000,5.8570,-0.7304,0.3160,5.911
15.062000,5.4424,-0.6174,0.2906,5.485
15.062000,5.0644,-0.4956,0.2016,5.093
15.063000,4.7062,-0.3603,0.0778,4.721
15.063000,4.3822,-0.2211,-0.0399,4.388
15.064000,4.0849,-0.1217,-0.1468,4.089
15.064000,3.8415,-0.0443,-0.1951,3.847
15.064000,3.6586,-0.0087,-0.1828,3.663
15.065000,3.5051,-0.0463,-0.1217,3.508
15.065000,3.3356,-0.1596,-0.0143,3.339
15.065000,3.1114,-0.3518,0.1277,3.134
15.066000,2.8406,-0.5686,0.2692,2.909
15.066000,2.5467,-0.7940,0.3695,2.693
15.067000,2.2134,-1.0325,0.4006,2.475
15.070000,1.8596,-1.2718,0.3750,2.284
15.075000,1.5024,-1.5547,0.3651,2.193
15.080000,1.1463,-1.8602,0.2946,2.205
15.084000,0.8133,-2.1933,0.2101,2.349
15.091000,0.5153,-2.5234,0.0781,2.577
15.095000,0.2667,-2.8213,-0.1130,2.836
15.099000,0.0220,-3.0989,-0.3293,3.116
15.104000,-0.2048,-3.3542,-0.5489,3.405
15.161000,-0.4418,-3.6116,-0.7809,3.721
15.162000,-0.6702,-3.8621,-0.9939,4.044
15.162000,-0.8901,-4.1007,-1.1902,4.362
15.163000,-1.1254,-4.3272,-1.3721,4.677
15.163000,-1.3713,-4.5351,-1.5328,4.980
15.163000,-1.6127,-4.7083,-1.6774,5.252
15.164000,-1.8643,-4.8763,-1.7754,5.514
15.164000,-2.1281,-5.0270,-1.8465,5.763
15.165000,-2.3870,-5.2008,-1.8845,6.025
15.165000,-2.6219,-5.3746,-1.9068,6.277
15.165000,-2.8249,-5.5558,-1.9284,6.524
15.166000,-2.9893,-5.7404,-1.9520,6.760
15.170000,-3.1507,-5.9331,-1.9732,7.002
15.174000,-3.3068,-6.1171,-1.9877,7.232
15.180000,-3.4479,-6.3027,-1.9862,7.454
15.183000,-3.5787,-6.4903,-1.9505,7.664
15.191000,-3.7062,-6.6902,-1.9119,7.884
15.194000,-3.8378,-6.9046,-1.8660,8.117
15.199000,-3.9519,-7.1022,-1.8057,8.326
15.203000,-4.0894,-7.2981,-1.7525,8.547
15.274000,-4.2455,-7.4714,-1.7016,8.760
15.275000,-4.4205,-7.6586,-1.6505,8.996
15.275000,-4.5760,-7.8522,-1.6017,9.228
15.276000,-4.7196,-8.0588,-1.5909,9.474
15.276000,-4.8466,-8.2884,-1.6058,9.735
15.277000,-4.8308,-8.5127,-1.6576,9.927
15.277000,-5.0601,-8.7059,-1.7200,10.215
15.277000,-5.1326,-8.8583,-1.8017,10.395
15.278000,-5.1781,-8.9889,-1.8689,10.541
15.278000,-5.2041,-9.1096,-1.9070,10.663
15.278000,-5.1988,-9.2282,-1.9204,10.764
15.279000,-5.2008,-9.3411,-1.9302,10.864
15.279000,-5.1937,-9.4083,-1.9533,10.923
15.280000,-5.2061,-9.4301,-1.9846,10.953
15.280000,-5.2551,-9.4137,-2.0215,10.969
15.286000,-5.3311,-9.3333,-2.0731,10.947
15.289000,-5.4296,-9.1929,-2.1851,10.898
15.295000,-5.5602,-9.0313,-2.2711,10.846
15.299000,-5.6727,-8.8106,-2.3043,10.729
15.309000,-5.7958,-8.6027,-2.3305,10.632
15.310000,-5.8985,-8.4821,-2.2950,10.583
15.315000,-5.9041,-8.5531,-2.1506,10.613
15.319000,-5.8628,-8.8513,-1.8767,10.781
15.393000,-5.7842,-9.3090,-1.5650,11.071
15.394000,-5.7352,-9.7776,-1.2949,11.409
15.395000,-5.7374,-10.1375,-1.1763,11.708
15.395000,-5.8198,-10.3310,-1.1772,11.916
15.396000,-6.0231,-10.4059,-1.1847,12.082
15.396000,-6.2922,-10.3762,-1.1776,12.192
15.396000,-6.5815,-10.3134,-1.1729,12.291
15.397000,-6.8265,-10.2865,-1.1398,12.398
15.397000,-6.9769,-10.3358,-1.0645,12.516
15.398000,-7.0423,-10.4583,-0.9569,12.645
15.398000,-7.0488,-10.6130,-0.9253,12.774
15.398000,-6.9917,-10.7183,-1.0081,12.837
15.399000,-6.8878,-10.7281,-1.1933,12.805
15.399000,-6.7177,-10.6120,-1.4710,12.645
15.400000,-6.4432,-10.4175,-1.7908,12.379
15.400000,-6.0476,-10.1832,-2.1235,12.032
15.405000,-5.5284,-9.9478,-2.4162,11.634
15.410000,-4.9333,-9.7352,-2.6162,11.223
15.416000,-4.2642,-9.5400,-2.6786,10.788
15.420000,-3.4945,-9.3508,-2.6947,10.340
15.426000,-2.7218,-9.2142,-2.6652,9.971
15.430000,-1.9410,-9.1619,-2.6023,9.720
15.435000,-1.1805,-9.1878,-2.5113,9.598
15.518000,-0.4711,-9.2987,-2.4329,9.623
15.519000,0.1539,-9.4581,-2.3956,9.758
15.520000,0.6731,-9.6534,-2.3537,9.959
15.520000,1.0509,-9.8580,-2.3050,10.178
15.520000,1.2997,-10.0499,-2.2666,10.384
15.521000,1.4175,-10.1698,-2.2218,10.506
15.521000,1.4643,-10.1999,-2.1750,10.531
15.522000,1.4810,-10.1555,-2.1065,10.477
15.522000,1.5060,-10.0413,-1.9846,10.346
15.522000,1.5323,-9.8909,-1.8041,10.170
15.522000,1.5817,-9.6965,-1.5623,9.948
15.523000,1.6252,-9.4628,-1.3087,9.690
15.523000,1.7181,-9.1723,-1.0644,9.392
15.523000,1.8174,-8.8110,-0.8956,9.041
15.524000,1.9394,-8.3507,-0.7938,8.610
15.525000,2.0891,-7.8098,-0.7172,8.116
15.525000,2.2512,-7.2103,-0.6691,7.583
15.525000,2.3013,-6.5972,-0.6010,7.013
15.531000,2.6149,-5.9566,-0.4719,6.522
15.538000,2.8304,-5.3014,-0.3101,6.018
15.540000,3.0414,-4.6454,-0.1420,5.554
15.546000,3.2492,-3.9943,0.0395,5.149
15.550000,3.4518,-3.3501,0.2125,4.815
15.558000,3.7063,-2.7163,0.4145,4.614
15.560000,3.9574,-2.1126,0.6020,4.526
15.565000,4.1810,-1.5183,0.7980,4.519
15.569000,4.3725,-0.9665,0.9948,4.587
15.643000,4.4855,-0.4690,1.1939,4.665
15.644000,4.5372,-0.0155,1.3708,4.740
15.644000,4.5489,0.3991,1.5231,4.814
15.644000,4.5327,0.7821,1.6645,4.892
15.645000,4.5199,1.1513,1.8073,5.002
15.645000,4.5216,1.5098,1.9796,5.162
15.646000,4.5090,1.8298,2.2414,5.358
15.646000,4.4847,2.1280,2.5467,5.579
15.646000,4.4579,2.4142,2.8428,5.812
15.646000,4.4262,2.6647,3.1753,6.064
15.647000,4.3528,2.8877,3.5361,6.308
15.647000,4.2452,3.0817,3.8579,6.512
15.648000,4.1254,3.2399,4.1285,6.675
15.648000,4.0149,3.3797,4.3669,6.827
15.648000,3.9598,3.5236,4.5398,6.979
15.651000,3.9519,3.6847,4.6589,7.134
15.656000,3.9916,3.8879,4.7247,7.306
15.660000,4.0738,4.1067,4.7658,7.495
15.666000,4.2079,4.3578,4.8038,7.731
15.670000,4.3653,4.6274,4.8149,7.978
15.675000,4.5019,4.8999,4.8130,8.212
15.680000,4.6203,5.1638,4.8175,8.439
15.685000,4.7297,5.4143,4.8547,8.675
15.759000,4.8469,5.7039,4.8693,8.930
15.761000,4.9479,5.9612,4.8877,9.160
15.763000,5.0721,6.2184,4.9283,9.417
15.765000,5.1552,6.4497,4.9479,9.626
15.766000,5.2259,6.6552,4.9250,9.791
15.767000,5.2432,6.7942,4.9026,9.884
15.768000,5.2382,6.9077,4.8976,9.957
15.769000,5.1995,6.9673,4.8620,9.961
15.772000,5.1408,6.9656,4.8121,9.905
15.773000,5.0702,6.9034,4.7338,9.786
15.774000,4.9855,6.7859,4.6247,9.607
15.776000,4.9302,6.6256,4.4634,9.388
15.777000,4.9072,6.4615,4.2744,9.171
15.778000,4.9352,6.2956,4.0817,8.981
15.779000,5.0146,6.1332,3.9071,8.833
15.781000,5.1501,6.0054,3.7817,8.769
15.783000,5.3415,5.9027,3.6578,8.761
15.784000,5.5843,5.8180,3.5475,8.810
