time,ax,ay,az,aT
0.002000,-0.2132,0.4877,-0.4442,0.693
0.002000,-0.2823,0.5000,-0.5409,0.789
0.002000,-0.3175,0.4794,-0.6332,0.855
0.002000,-0.3933,0.4809,-0.6156,0.875
0.003000,-0.4140,0.4662,-0.5983,0.864
0.012000,-0.3722,0.4571,-0.6629,0.887
0.013000,-0.3922,0.4799,-0.7015,0.936
0.018000,-0.4860,0.5535,-0.8290,1.109
0.024000,-0.4874,0.5002,-0.8357,1.089
0.028000,-0.5040,0.5187,-0.5306,0.897
0.034000,-0.5129,0.5119,-0.5971,0.939
0.040000,-0.4481,0.5459,-0.7688,1.044
0.051000,-0.4230,0.5747,-0.7008,1.000
0.052000,-0.4424,0.6267,-0.4555,0.892
0.054000,-0.4966,0.6221,-0.3147,0.856
0.059000,-0.5423,0.5919,-0.3286,0.867
0.064000,-0.6216,0.4623,-0.3726,0.860
0.068000,-0.6914,0.4016,-0.2250,0.831
0.095000,-0.7227,0.3691,-0.1322,0.822
0.096000,-0.7988,0.2766,-0.0753,0.849
0.096000,-0.9271,0.1459,-0.0089,0.939
0.096000,-1.0707,-0.0843,0.0020,1.074
0.096000,-0.9037,-0.0738,0.2799,0.949
0.104000,-0.8593,-0.0033,0.1434,0.871
0.104000,-0.8445,0.0576,-0.0958,0.852
0.116000,-0.8819,0.1303,-0.2295,0.921
0.116000,-0.7951,0.2576,-0.3604,0.910
0.119000,-0.7782,0.3749,-0.4383,0.969
0.122000,-0.7759,0.4205,-0.5043,1.016
0.138000,-0.8049,0.4354,-0.5250,1.055
0.139000,-0.9055,0.4125,-0.6272,1.176
0.139000,-0.9030,0.3783,-0.7679,1.244
0.149000,-0.8906,0.3549,-0.8277,1.267
0.150000,-0.9498,0.2681,-0.7733,1.254
0.152000,-0.9488,0.2303,-0.7411,1.226
0.168000,-0.9761,0.1552,-0.7716,1.254
0.169000,-0.9871,0.1287,-0.6923,1.212
0.169000,-0.9771,0.0782,-0.6632,1.184
0.172000,-0.9421,0.0442,-0.6483,1.144
0.177000,-0.8295,0.0811,-0.6496,1.057
0.182000,-0.8260,0.1673,-0.6503,1.065
0.187000,-0.9457,0.1640,-0.6289,1.148
0.222000,-1.0254,0.1079,-0.4830,1.139
0.223000,-0.9951,0.1455,-0.2107,1.028
0.223000,-0.8946,0.2022,-0.0967,0.922
0.224000,-0.8776,0.2039,-0.1071,0.907
0.224000,-0.7788,0.2199,-0.0411,0.810
0.224000,-0.6701,0.3053,-0.0421,0.738
0.224000,-0.6117,0.3403,0.0120,0.700
0.238000,-0.6083,0.3632,0.1043,0.716
0.239000,-0.5664,0.3861,0.0244,0.686
0.239000,-0.5670,0.4039,0.0594,0.699
0.249000,-0.5667,0.4430,0.1662,0.738
0.250000,-0.4769,0.4245,0.2322,0.679
0.253000,-0.3358,0.3911,0.2363,0.567
0.269000,-0.2742,0.4085,-0.0542,0.495
0.269000,-0.5292,0.3152,0.2215,0.655
0.270000,-0.5691,0.2156,0.2861,0.672
0.272000,-0.4161,0.1304,0.1116,0.450
0.319000,-0.3119,0.0451,0.0284,0.316
0.319000,-0.2448,-0.0906,0.0268,0.262
0.320000,-0.3749,-0.1028,0.0879,0.399
0.320000,-0.4987,-0.0707,0.1353,0.522
0.320000,-0.4081,0.0028,0.2671,0.488
0.320000,-0.1818,0.1336,0.4024,0.461
0.320000,-0.0558,0.2328,0.3643,0.436
0.321000,-0.1194,0.1793,0.2840,0.356
0.321000,-0.1456,0.1056,0.1947,0.265
0.321000,-0.0943,0.0724,0.0889,0.148
0.329000,-0.0156,0.0896,0.3442,0.356
0.336000,-0.0239,0.1263,0.4840,0.501
0.338000,0.0193,0.1369,0.3198,0.348
0.342000,-0.0733,0.1410,0.2034,0.258
0.346000,-0.0602,0.1241,0.2231,0.262
0.352000,-0.0323,0.1457,0.2355,0.279
0.357000,-0.0442,0.1293,0.1137,0.178
0.362000,-0.1511,0.0821,0.0327,0.175
0.366000,-0.1738,0.0308,-0.0486,0.183
0.372000,-0.0837,0.0325,-0.1443,0.170
0.385000,-0.0386,0.0371,-0.3357,0.340
0.385000,0.0040,0.0828,-0.5032,0.510
0.386000,0.1810,0.1438,-0.7451,0.780
0.393000,-0.0107,0.0727,-0.7366,0.740
0.396000,-0.1796,-0.0014,-0.3798,0.420
0.400000,-0.0403,-0.0692,-0.4712,0.478
0.406000,0.2576,-0.1539,-0.7596,0.817
0.450000,0.2468,-0.2853,-0.5639,0.678
0.450000,0.1269,-0.1938,-0.3075,0.385
0.450000,0.1815,-0.0570,-0.1719,0.256
0.451000,-0.0214,-0.0165,0.0512,0.058
0.451000,-0.4145,0.0537,0.1517,0.445
0.451000,-0.6051,0.1603,0.3908,0.738
0.451000,-0.3464,0.3712,0.7521,0.907
0.451000,0.2224,0.4184,0.3269,0.576
0.452000,0.4056,0.2386,-0.0833,0.478
0.457000,0.2094,0.1196,0.0711,0.251
0.467000,0.4754,0.1471,-0.0927,0.506
0.467000,0.5859,0.0964,-0.2277,0.636
0.469000,0.4872,0.0200,-0.1952,0.525
0.484000,0.2799,-0.0489,-0.2583,0.384
0.485000,0.2969,-0.0102,-0.3020,0.424
0.485000,0.4700,0.1240,-0.3574,0.603
0.545000,0.5753,0.3604,-0.3024,0.743
0.546000,0.4526,0.5525,-0.2829,0.768
0.546000,0.4990,0.1907,-0.6455,0.838
0.547000,2.4473,1.0730,-1.9964,3.336
0.547000,2.0398,1.0373,-1.3446,2.654
0.547000,0.2455,0.0304,-0.3944,0.466
0.548000,0.2340,-0.2937,-0.8418,0.922
0.548000,0.3702,-0.4486,0.0566,0.584
0.548000,0.3799,-0.4252,0.2448,0.621
0.548000,0.3660,-0.2764,-0.0946,0.468
0.548000,0.1858,-0.2433,0.2103,0.371
0.549000,0.3317,0.0745,0.1300,0.364
0.555000,1.1827,1.2067,-1.1592,2.049
0.556000,0.7756,0.5157,-0.4028,1.015
0.567000,0.3356,0.0064,0.1828,0.382
0.568000,0.3715,-0.0851,-0.5224,0.647
0.569000,0.7194,-0.2271,-0.9359,1.202
0.574000,1.0674,-0.2882,-0.5631,1.241
0.585000,1.1169,-0.3211,-0.6578,1.335
0.586000,1.0616,-0.3493,-0.7126,1.325
0.590000,0.8879,-0.5055,-0.1735,1.036
0.604000,0.6970,-0.6739,-0.3043,1.016
0.605000,1.0363,-0.4128,-1.7073,2.039
0.605000,1.8038,0.0727,-0.9725,2.051
0.650000,2.1557,0.5227,0.3639,2.248
0.651000,2.0212,0.7060,0.0277,2.141
0.652000,0.9148,0.6986,0.0265,1.151
0.652000,0.6395,0.8396,0.2742,1.091
0.652000,0.8413,1.1265,0.4763,1.484
0.653000,1.1066,1.2646,0.2218,1.695
0.653000,1.2206,1.2091,-0.3552,1.754
0.653000,1.1475,1.1236,-0.4679,1.673
0.654000,1.0102,1.1323,-0.2960,1.546
0.654000,0.7696,1.1467,-0.1462,1.389
0.659000,0.5729,1.0928,-0.1692,1.245
0.664000,0.6000,1.0522,-0.2739,1.242
0.669000,0.7373,0.9847,-0.6950,1.413
0.675000,0.8749,1.0154,-0.6790,1.503
0.678000,1.3233,1.1941,-1.0752,2.082
0.683000,0.9490,1.2552,-0.6965,1.721
0.690000,0.6890,1.3342,-0.0786,1.504
0.694000,1.0252,1.2972,0.8835,1.875
0.699000,1.0035,1.1100,1.8662,2.392
0.704000,0.6170,1.0127,0.7414,1.399
0.720000,-0.0348,0.7090,0.4477,0.839
0.721000,-0.3759,0.3887,1.0060,1.142
0.722000,-0.1365,0.2848,0.9883,1.038
0.728000,0.9599,0.2393,0.1634,1.003
0.729000,1.7856,0.1872,-0.8037,1.967
0.734000,1.4470,0.1612,-0.8922,1.708
0.738000,1.0594,0.2331,-1.1289,1.566
0.778000,0.9594,0.4655,-1.0975,1.530
0.779000,0.9983,0.6716,-1.0854,1.620
0.779000,0.9959,0.7839,-1.2094,1.752
0.779000,1.0158,0.8598,-1.2900,1.853
0.779000,1.0072,0.9665,-1.1812,1.829
0.780000,1.0303,1.0705,-1.1083,1.854
0.780000,1.0047,1.0719,-1.1143,1.844
0.780000,1.0166,1.0974,-1.1491,1.886
0.783000,1.0953,1.0161,-1.2056,1.920
0.788000,1.1839,0.9529,-1.3150,2.010
0.794000,1.3086,0.9128,-1.5181,2.202
0.797000,1.3645,0.9013,-1.6810,2.345
0.803000,1.0958,0.6962,-1.9044,2.305
0.813000,0.2224,-0.1123,-2.2554,2.269
0.815000,-0.3087,-0.3776,-2.3465,2.397
0.817000,0.0195,0.2060,-2.1232,2.133
0.822000,0.2625,0.7508,-1.9041,2.064
0.851000,0.3748,1.1936,-1.4832,1.940
0.852000,0.5597,1.4448,-1.1448,1.926
0.852000,0.7214,1.5680,-0.8764,1.936
0.852000,0.8434,1.5932,-0.6345,1.911
0.853000,0.9042,1.5324,-0.4597,1.838
0.853000,0.8893,1.4014,-0.2966,1.686
0.861000,0.8325,1.2044,-0.0973,1.467
0.862000,0.7093,1.0273,0.0524,1.249
0.867000,0.5339,0.8383,0.1908,1.012
0.873000,0.3545,0.7660,0.3850,0.928
0.878000,0.1927,0.7479,0.5465,0.946
0.882000,0.1323,0.7571,0.6802,1.026
0.887000,0.0698,0.8124,0.8005,1.143
0.892000,-0.0073,0.8323,0.8454,1.186
0.898000,-0.0532,0.8716,0.7910,1.178
0.901000,-0.0994,0.9300,0.6830,1.158
0.908000,-0.0602,0.9861,0.6934,1.207
0.912000,-0.0179,1.1073,0.6070,1.263
0.917000,-0.0376,1.1716,0.5339,1.288
0.922000,-0.0258,1.2246,0.4260,1.297
0.927000,0.0052,1.2621,0.3002,1.297
0.932000,-0.0238,1.2867,0.1899,1.301
0.936000,0.0599,1.3326,0.1140,1.339
0.950000,0.1130,1.3643,0.1178,1.374
0.951000,0.1982,1.3774,0.1270,1.397
0.952000,0.2323,1.4010,0.1700,1.430
1.010000,0.2590,1.4400,0.2063,1.478
1.011000,0.2621,1.3776,0.2045,1.417
1.011000,0.2344,1.2978,0.1312,1.325
1.011000,0.0871,1.1911,0.0558,1.196
1.012000,-0.0918,1.0842,0.0477,1.089
1.012000,-0.2593,1.0366,0.1165,1.075
1.012000,-0.4009,1.0268,0.1686,1.115
1.012000,-0.5043,1.0046,0.2185,1.145
1.012000,-0.5192,1.0271,0.2997,1.189
1.013000,-0.5169,1.0372,0.3141,1.201
1.013000,-0.4638,1.0682,0.3692,1.222
1.013000,-0.3764,1.1398,0.3980,1.265
1.019000,-0.2426,1.1995,0.4985,1.321
1.021000,-0.0718,1.2830,0.6682,1.448
1.028000,0.1227,1.3856,0.8567,1.634
1.031000,0.2578,1.4497,1.0401,1.803
1.036000,0.3531,1.4560,1.1371,1.881
1.044000,0.3991,1.4881,1.1168,1.903
1.046000,0.3717,1.4138,1.0298,1.788
1.050000,0.3232,1.3480,0.9240,1.666
1.057000,0.2335,1.3005,0.7661,1.527
1.091000,0.1305,1.2706,0.5682,1.398
1.092000,-0.0113,1.2752,0.3833,1.332
1.092000,-0.0757,1.3196,0.2254,1.341
1.092000,-0.1377,1.4065,0.1375,1.420
1.093000,-0.3053,1.4931,0.1649,1.533
1.093000,-0.4895,1.5440,0.2810,1.644
1.093000,-0.5823,1.6099,0.3754,1.753
1.096000,-0.6246,1.6664,0.5129,1.852
1.101000,-0.7120,1.6469,0.7292,1.937
1.108000,-0.7510,1.5612,0.9547,1.978
1.110000,-0.8636,1.4397,1.1085,2.012
1.115000,-0.9508,1.2325,1.3961,2.091
1.120000,-0.9810,1.0517,1.7075,2.232
1.125000,-1.0226,0.8566,1.8800,2.305
1.130000,-1.2237,0.5155,1.9736,2.379
1.135000,-1.3905,0.0953,1.9382,2.387
1.149000,-1.3778,-0.0404,1.9511,2.389
1.151000,-1.1540,0.1793,2.0266,2.339
1.152000,-0.7809,0.4122,2.0714,2.252
1.155000,-0.3992,0.5322,1.9704,2.080
1.195000,-0.0492,0.5850,1.6997,1.798
1.196000,0.2690,0.5902,1.2668,1.423
1.196000,0.5665,0.5725,0.8268,1.154
1.196000,0.8024,0.5758,0.4059,1.068
1.197000,0.8857,0.5888,0.0346,1.064
1.197000,0.7141,0.6192,-0.2010,0.966
1.197000,0.3374,0.5145,-0.3159,0.692
1.197000,-0.0796,0.3842,-0.3148,0.503
1.199000,-0.4467,0.2333,-0.2192,0.550
1.205000,-0.6569,0.0159,-0.1559,0.675
1.210000,-0.7535,-0.1274,-0.0360,0.765
1.214000,-0.8105,-0.3070,0.0830,0.871
1.219000,-0.7799,-0.4706,0.1868,0.930
1.225000,-0.7285,-0.5944,0.3236,0.994
1.229000,-0.7298,-0.6620,0.5003,1.105
1.235000,-0.7571,-0.7000,0.6478,1.218
1.246000,-0.8167,-0.7184,0.6346,1.259
1.247000,-0.8512,-0.7170,0.5470,1.240
1.249000,-0.9107,-0.7149,0.6241,1.315
1.253000,-0.9471,-0.7435,0.6650,1.376
1.295000,-1.0678,-0.7621,0.5956,1.441
1.296000,-1.1774,-0.8208,0.4614,1.508
1.297000,-1.2787,-0.8431,0.3200,1.565
1.297000,-1.3964,-0.9393,0.2170,1.697
1.297000,-1.5218,-1.0112,0.1116,1.831
1.297000,-1.6245,-1.1212,0.0303,1.974
1.298000,-1.6878,-1.1352,-0.1370,2.039
1.298000,-1.7246,-1.1084,-0.2036,2.060
1.299000,-1.7183,-1.0956,-0.2822,2.057
1.304000,-1.6621,-1.0537,-0.3249,1.995
1.310000,-1.5965,-0.9900,-0.3197,1.906
1.314000,-1.4832,-0.9668,-0.2955,1.795
1.318000,-1.3889,-0.9502,-0.3743,1.724
1.324000,-1.2852,-0.9257,-0.3600,1.624
1.328000,-1.0611,-0.8097,-0.1905,1.348
1.336000,-0.8711,-0.7557,-0.0978,1.157
1.341000,-0.6644,-0.7182,-0.0389,0.979
1.344000,-0.4858,-0.6951,0.0032,0.848
1.349000,-0.3399,-0.6842,-0.0240,0.764
1.353000,-0.2529,-0.6546,-0.1252,0.713
1.359000,-0.1934,-0.6421,-0.2334,0.710
1.364000,-0.1210,-0.5416,-0.2862,0.624
1.368000,-0.0548,-0.4605,-0.3749,0.596
1.384000,-0.0332,-0.3748,-0.4036,0.552
1.385000,0.0921,-0.3659,-0.4706,0.603
1.385000,0.1514,-0.3714,-0.5637,0.692
1.435000,0.1686,-0.3914,-0.7142,0.832
1.436000,0.1910,-0.4282,-0.9576,1.066
1.437000,0.1365,-0.4885,-1.1747,1.279
1.438000,0.0311,-0.5194,-1.2195,1.326
1.438000,-0.0653,-0.5662,-1.2861,1.407
1.439000,-0.2342,-0.5596,-1.3266,1.459
1.439000,-0.3129,-0.5689,-1.2885,1.443
1.439000,-0.3231,-0.5779,-1.1979,1.369
1.439000,-0.3272,-0.6317,-1.2367,1.427
1.440000,-0.2603,-0.5745,-0.8144,1.030
1.440000,-0.1737,-0.5987,-0.4978,0.798
1.446000,-0.0591,-0.6045,-0.3703,0.711
1.448000,0.0497,-0.6233,-0.3334,0.709
1.453000,0.1073,-0.6630,-0.3676,0.766
1.460000,0.0989,-0.6426,-0.4295,0.779
1.463000,0.0361,-0.6411,-0.5742,0.861
1.468000,-0.1559,-0.6252,-0.9114,1.116
1.481000,-0.3105,-0.6017,-1.2592,1.430
1.482000,-0.5504,-0.5959,-1.5678,1.765
1.482000,-0.6963,-0.6050,-1.8972,2.110
1.487000,-0.7607,-0.5734,-2.1903,2.388
1.528000,-0.8225,-0.5317,-2.4209,2.611
1.529000,-0.8105,-0.5010,-2.5702,2.741
1.529000,-0.7438,-0.4048,-2.5953,2.730
1.530000,-0.6605,-0.2908,-2.5179,2.619
1.530000,-0.5220,-0.1997,-2.3285,2.395
1.530000,-0.3854,-0.1437,-2.1110,2.151
1.530000,-0.1951,-0.0872,-1.9010,1.913
1.531000,-0.0105,-0.0493,-1.7034,1.704
1.532000,0.1909,-0.0686,-1.4201,1.435
1.536000,0.2307,-0.0734,-1.2353,1.259
1.541000,0.2286,-0.1236,-1.1989,1.227
1.547000,0.2637,-0.1310,-1.2009,1.236
1.552000,0.1948,-0.1766,-1.2889,1.315
1.558000,0.0890,-0.1480,-1.4057,1.416
1.562000,-0.0017,-0.1766,-1.5654,1.575
1.568000,-0.1656,-0.1758,-1.6942,1.711
1.572000,-0.2289,-0.1839,-1.7921,1.816
1.578000,-0.3187,-0.1410,-1.7920,1.826
1.584000,-0.2937,-0.0829,-1.8234,1.849
1.587000,-0.2740,-0.0217,-1.7882,1.809
1.596000,-0.2049,0.0425,-1.6455,1.659
1.597000,-0.0718,0.1358,-1.4004,1.409
1.601000,0.0255,0.2340,-1.1771,1.200
1.606000,0.1612,0.3105,-0.9566,1.019
1.651000,0.2185,0.3508,-0.7816,0.884
1.652000,0.2098,0.3522,-0.6355,0.756
1.652000,0.1710,0.3578,-0.5777,0.701
1.653000,0.1450,0.3961,-0.6059,0.738
1.653000,0.0932,0.4194,-0.6648,0.792
1.653000,0.0466,0.4876,-0.7713,0.914
1.653000,-0.0068,0.5506,-0.8345,1.000
1.654000,-0.0935,0.6112,-0.8690,1.067
1.654000,-0.1419,0.6911,-0.8748,1.124
1.664000,-0.1684,0.7114,-0.9238,1.178
1.665000,-0.1234,0.7682,-0.9969,1.265
1.666000,-0.1550,0.7708,-1.0105,1.280
1.672000,-0.1484,0.7339,-0.9361,1.199
1.678000,-0.1539,0.7271,-0.8528,1.131
1.682000,-0.1447,0.7097,-0.6171,0.952
1.687000,-0.0820,0.6867,-0.4112,0.805
1.691000,-0.0137,0.6435,-0.1057,0.652
1.696000,0.0703,0.5725,0.2251,0.619
1.700000,0.1513,0.5358,0.4570,0.720
1.705000,0.1627,0.4611,0.6165,0.787
1.745000,0.1623,0.3628,0.8018,0.895
1.746000,0.1144,0.2454,0.8695,0.911
1.747000,0.0739,0.0803,0.7359,0.744
1.747000,-0.0409,0.0186,0.7647,0.766
1.747000,-0.1507,-0.0263,0.9009,0.914
1.747000,-0.2886,-0.0094,1.0225,1.062
1.748000,-0.4339,0.0949,0.9600,1.058
1.748000,-0.5565,0.1358,0.8813,1.051
1.750000,-0.7147,0.1776,0.8129,1.097
1.756000,-0.8305,0.2821,0.7980,1.186
1.761000,-0.9261,0.4469,0.8941,1.363
1.766000,-0.9730,0.5164,0.9575,1.460
1.771000,-1.0120,0.5864,0.9835,1.528
1.777000,-1.0458,0.6377,0.9507,1.551
1.780000,-1.0507,0.6489,0.8877,1.521
1.785000,-1.0533,0.7017,0.6990,1.446
1.791000,-0.9846,0.7965,0.5422,1.378
1.795000,-0.8427,0.8357,0.4196,1.259
1.800000,-0.6492,0.9588,0.2998,1.196
1.805000,-0.4348,1.0825,0.2351,1.190
1.815000,-0.2064,1.1573,0.0935,1.179
1.816000,0.1060,1.2103,0.0638,1.217
1.820000,0.3900,1.3020,0.1407,1.366
1.867000,0.7060,1.3203,0.2713,1.522
1.868000,1.0188,1.3230,0.4602,1.732
1.868000,1.3617,1.2935,0.7358,2.017
1.869000,1.6534,1.2387,1.2130,2.396
1.869000,1.8368,1.1442,1.8559,2.851
1.869000,2.0202,1.0304,2.5091,3.382
1.870000,2.1395,0.8816,3.1396,3.900
1.870000,2.1613,0.7282,3.6499,4.304
1.870000,2.1268,0.5764,4.1383,4.688
1.871000,2.0336,0.4060,4.3877,4.853
1.878000,1.8688,0.2982,4.3318,4.727
1.879000,1.7125,0.2842,4.7787,5.084
1.884000,1.6095,0.2964,4.9245,5.189
1.890000,1.5532,0.2766,4.8294,5.081
1.896000,1.4980,0.3180,4.7043,4.947
1.900000,1.4151,0.3083,4.4104,4.642
1.905000,1.2514,0.2622,3.9503,4.152
1.910000,1.0805,0.1975,3.3573,3.532
1.915000,0.8777,0.1681,2.7413,2.883
1.918000,0.7125,0.1247,2.2118,2.327
1.954000,0.6632,0.1594,1.8042,1.929
1.955000,0.7108,0.1819,1.4177,1.596
1.955000,0.7714,0.1831,1.1787,1.421
1.955000,0.8637,0.1964,1.0968,1.410
1.955000,0.9397,0.1715,1.0165,1.395
1.955000,0.9824,0.1056,1.1100,1.486
1.956000,0.9798,0.0529,1.2891,1.620
1.967000,0.8960,-0.0040,1.4701,1.722
1.967000,0.8126,-0.0971,1.6582,1.849
1.970000,0.6766,-0.2273,1.8061,1.942
1.976000,0.5934,-0.3112,1.8420,1.960
1.978000,0.4576,-0.4383,1.8693,1.974
1.983000,0.3627,-0.5250,1.8140,1.923
1.989000,0.2893,-0.5982,1.5448,1.682
1.994000,0.1865,-0.6074,1.2533,1.405
1.999000,0.2128,-0.6076,1.1140,1.287
2.003000,0.2490,-0.5417,0.9330,1.107
2.008000,0.3216,-0.4914,0.5072,0.776
2.013000,0.3411,-0.4637,-0.0219,0.576
2.018000,0.3283,-0.4291,-0.4320,0.692
2.024000,0.3097,-0.4254,-0.8263,0.980
2.028000,0.2856,-0.4087,-1.2098,1.309
2.034000,0.3278,-0.3694,-1.5468,1.624
2.038000,0.3670,-0.3403,-1.7659,1.835
2.086000,0.4585,-0.3327,-1.8746,1.958
2.088000,0.5432,-0.3493,-1.9782,2.081
2.088000,0.5732,-0.3944,-2.0578,2.172
2.088000,0.5513,-0.4589,-2.1755,2.291
2.089000,0.4679,-0.5114,-2.3024,2.405
2.089000,0.3564,-0.5615,-2.4484,2.537
2.089000,0.1880,-0.5757,-2.6108,2.680
2.090000,0.0650,-0.5682,-2.8064,2.864
2.091000,-0.0510,-0.5749,-2.8750,2.932
2.091000,-0.0931,-0.6118,-2.9222,2.987
2.094000,-0.1211,-0.5569,-2.8645,2.921
2.097000,-0.1033,-0.5230,-2.8453,2.895
2.103000,-0.1115,-0.5383,-2.9102,2.962
2.108000,-0.1435,-0.5603,-2.9679,3.024
2.113000,-0.1853,-0.5670,-2.9781,3.037
2.117000,-0.2465,-0.5631,-3.0556,3.117
2.122000,-0.3179,-0.5823,-3.2170,3.285
2.128000,-0.4551,-0.5427,-3.4336,3.506
2.132000,-0.6152,-0.4608,-3.5549,3.637
2.136000,-0.7441,-0.4296,-3.3993,3.506
2.178000,-0.7509,-0.3965,-3.0797,3.195
2.179000,-0.7099,-0.3332,-2.5720,2.689
2.180000,-0.6156,-0.3097,-2.0174,2.132
2.180000,-0.3939,-0.3147,-1.2172,1.317
2.180000,-0.1252,-0.3615,-0.4246,0.572
2.181000,0.0774,-0.4863,-0.0197,0.493
2.181000,0.1907,-0.6136,0.1610,0.662
2.181000,0.2646,-0.7050,0.0245,0.753
2.182000,0.2580,-0.7531,-0.2567,0.836
2.187000,0.1514,-0.7572,-0.5535,0.950
2.192000,0.0878,-0.6833,-0.7180,0.995
2.197000,0.0480,-0.6079,-0.8628,1.056
2.202000,0.0482,-0.4898,-1.0860,1.192
2.209000,0.0932,-0.4529,-1.3208,1.399
2.212000,0.1685,-0.4396,-1.6965,1.761
2.217000,0.2550,-0.3962,-1.9409,1.997
2.221000,0.3385,-0.3558,-2.0279,2.086
2.228000,0.4000,-0.3160,-1.8908,1.958
2.231000,0.3677,-0.3132,-1.5967,1.668
2.236000,0.2902,-0.2475,-1.2123,1.271
2.247000,0.2156,-0.2465,-0.8907,0.949
2.247000,0.1182,-0.2653,-0.6958,0.754
2.251000,0.0461,-0.2561,-0.4770,0.543
2.256000,-0.0156,-0.2172,-0.4683,0.516
2.293000,-0.0622,-0.1366,-0.5929,0.612
2.296000,-0.0992,-0.0668,-0.7310,0.741
2.296000,-0.1316,-0.0363,-1.0333,1.042
2.296000,-0.2343,-0.0180,-1.2705,1.292
2.296000,-0.3384,-0.0090,-1.3926,1.433
2.297000,-0.4157,0.0364,-1.5218,1.578
2.298000,-0.3850,0.1067,-1.5388,1.590
2.299000,-0.3426,0.1204,-1.3263,1.375
2.301000,-0.2721,0.1997,-1.0068,1.062
2.308000,-0.0852,0.3061,-0.6400,0.715
2.311000,0.1254,0.3840,-0.0321,0.405
2.316000,0.3748,0.4232,0.7261,0.920
2.321000,0.5800,0.3963,1.3958,1.563
2.327000,0.7633,0.1573,1.6139,1.792
2.331000,0.8241,0.0747,2.0741,2.233
2.336000,0.7309,0.1547,2.5567,2.664
2.342000,0.6361,0.2482,2.6767,2.762
2.346000,0.4576,0.4191,2.6622,2.734
2.351000,0.2204,0.5883,2.5711,2.647
2.356000,-0.0543,0.6944,2.3696,2.470
2.366000,-0.3405,0.7655,1.9723,2.143
2.368000,-0.5798,0.8127,1.5867,1.875
2.372000,-0.6863,0.8512,1.1838,1.611
2.421000,-0.8370,0.9133,0.7056,1.426
2.423000,-0.9726,0.9737,0.3117,1.411
2.423000,-1.1558,1.0593,-0.0053,1.568
2.423000,-1.3055,1.1903,-0.2654,1.787
2.424000,-1.3985,1.3522,-0.4901,2.006
2.424000,-1.3924,1.6368,-0.6296,2.239
2.425000,-1.3424,1.8344,-0.6775,2.372
2.425000,-1.2161,2.0188,-0.6144,2.436
2.426000,-0.9700,2.1430,-0.3573,2.379
2.427000,-0.5890,2.2478,0.0026,2.324
2.427000,-0.1868,2.2328,0.4887,2.293
2.430000,0.2856,2.2368,1.0147,2.473
2.435000,0.7026,2.2640,1.5665,2.841
2.440000,1.0664,2.2351,2.1820,3.301
2.445000,1.3973,2.2118,2.7465,3.793
2.450000,1.6011,2.2365,3.2076,4.225
2.457000,1.7655,2.2295,3.6420,4.621
2.467000,1.7570,2.1881,3.8634,4.775
2.472000,1.6458,2.1120,3.8983,4.729
2.473000,1.4152,2.1134,3.6970,4.487
2.520000,1.0621,2.0657,3.4295,4.142
2.525000,0.6718,1.9619,3.1055,3.734
2.526000,0.2577,1.8767,2.7561,3.344
2.526000,-0.0856,1.7266,2.3885,2.948
2.527000,-0.3831,1.5936,2.1222,2.681
2.527000,-0.5476,1.4203,1.9693,2.489
2.528000,-0.5895,1.3332,1.6885,2.231
2.528000,-0.6240,1.1965,1.5330,2.042
2.529000,-0.5558,1.0434,1.5126,1.920
2.529000,-0.5332,0.9741,1.6394,1.980
2.529000,-0.4842,0.8279,1.8821,2.112
2.530000,-0.3540,0.6686,2.2413,2.366
2.534000,-0.2180,0.4960,2.7120,2.766
2.541000,-0.0201,0.3210,2.7780,2.797
2.545000,0.1085,0.1026,2.5762,2.581
2.550000,0.0773,-0.1083,2.4151,2.419
2.555000,-0.0204,-0.2981,2.4481,2.466
2.560000,-0.1097,-0.4838,2.4980,2.547
2.565000,-0.3321,-0.6755,2.5222,2.632
2.570000,-0.5924,-0.9650,2.4209,2.673
2.577000,-0.8216,-1.2447,2.2637,2.711
2.580000,-1.0510,-1.4239,1.9718,2.650
2.584000,-1.2327,-1.6102,1.6148,2.592
2.589000,-1.3626,-1.7536,1.2455,2.546
2.626000,-1.4520,-1.7875,0.7996,2.438
2.627000,-1.5537,-1.8506,0.3132,2.437
2.628000,-1.6260,-1.9284,-0.2688,2.537
2.628000,-1.6433,-1.9702,-0.7958,2.686
2.629000,-1.6374,-2.0358,-1.2390,2.892
2.629000,-1.5705,-2.0291,-1.3622,2.905
2.629000,-1.4258,-2.0008,-1.5171,2.887
2.630000,-1.2563,-1.9533,-1.7825,2.928
2.634000,-1.1119,-1.9319,-2.0103,3.002
2.639000,-0.9854,-1.9077,-2.2794,3.131
2.644000,-0.9154,-1.8783,-2.4799,3.243
2.650000,-0.8206,-1.9011,-2.5161,3.259
2.654000,-0.7269,-1.8660,-2.5199,3.219
2.659000,-0.6317,-1.8354,-2.5844,3.232
2.664000,-0.5517,-1.8282,-2.7242,3.327
2.668000,-0.4797,-1.8346,-2.8841,3.452
2.677000,-0.4201,-1.8158,-2.9090,3.455
2.679000,-0.4177,-1.8218,-2.9260,3.472
2.683000,-0.3722,-1.7953,-3.0378,3.548
2.688000,-0.3765,-1.7768,-3.0795,3.575
2.729000,-0.3851,-1.7037,-3.1254,3.580
2.730000,-0.3000,-1.6979,-3.1493,3.590
2.731000,-0.2929,-1.6513,-3.1897,3.604
2.731000,-0.3062,-1.6333,-3.1965,3.603
2.732000,-0.3634,-1.6077,-3.2009,3.600
2.732000,-0.4259,-1.6006,-3.1744,3.581
2.732000,-0.5393,-1.5952,-3.1505,3.572
2.733000,-0.5692,-1.6080,-3.1150,3.551
2.733000,-0.6115,-1.6031,-3.1063,3.549
2.739000,-0.6085,-1.5993,-3.0862,3.529
2.744000,-0.5622,-1.5533,-2.9402,3.373
2.749000,-0.4851,-1.5133,-2.7807,3.203
2.755000,-0.3788,-1.4504,-2.5408,2.950
2.757000,-0.2648,-1.3484,-2.2850,2.666
2.762000,-0.2219,-1.2603,-2.0586,2.424
2.767000,-0.1446,-1.2316,-1.9070,2.275
2.774000,-0.0929,-1.2077,-1.8824,2.238
2.778000,-0.0884,-1.1334,-1.7814,2.113
2.782000,-0.1410,-1.0710,-1.6901,2.006
2.787000,-0.1955,-1.0037,-1.5705,1.874
2.794000,-0.2012,-0.9600,-1.3508,1.669
2.799000,-0.1916,-0.9282,-1.0838,1.440
2.802000,-0.1277,-0.8699,-0.7767,1.173
2.848000,-0.0833,-0.8144,-0.5371,0.979
2.849000,-0.0488,-0.7452,-0.4174,0.856
2.849000,-0.0412,-0.6864,-0.3933,0.792
2.849000,-0.0847,-0.5926,-0.5028,0.782
2.850000,-0.1724,-0.5187,-0.7076,0.894
2.850000,-0.3553,-0.4091,-1.0173,1.153
2.850000,-0.5262,-0.3135,-1.1955,1.343
2.850000,-0.6499,-0.2528,-1.3715,1.539
2.851000,-0.6555,-0.1740,-1.5071,1.653
2.852000,-0.5290,-0.1293,-1.4498,1.549
2.859000,-0.2993,-0.1423,-1.2213,1.265
2.863000,-0.0144,-0.1416,-0.8527,0.865
2.867000,0.3147,-0.0819,-0.4424,0.549
2.873000,0.5928,-0.0258,0.1628,0.615
2.878000,0.8569,-0.0264,0.8624,1.216
2.882000,1.0007,-0.0919,1.4749,1.785
2.886000,1.0371,-0.1962,2.0483,2.304
2.893000,0.9166,-0.3471,2.4800,2.667
2.897000,0.6516,-0.4612,2.8710,2.980
2.901000,0.3906,-0.5441,3.1499,3.220
2.939000,0.0353,-0.5529,3.2501,3.297
2.940000,-0.3454,-0.5357,3.2245,3.287
2.941000,-0.6232,-0.5018,3.0589,3.162
2.942000,-0.8198,-0.4604,2.8276,2.980
2.942000,-0.9161,-0.4062,2.5136,2.706
2.942000,-0.9989,-0.3410,2.0232,2.282
2.943000,-1.0641,-0.1972,1.5599,1.899
2.943000,-1.0023,0.0236,1.2499,1.602
2.947000,-0.9358,0.3332,0.9972,1.408
2.951000,-0.8556,0.6529,0.8282,1.358
2.956000,-0.7695,0.8991,0.6566,1.353
2.962000,-0.6632,1.0791,0.4514,1.345
2.966000,-0.5563,1.2624,0.2818,1.408
2.971000,-0.4302,1.4614,0.0951,1.526
2.976000,-0.1971,1.7483,-0.1042,1.762
2.981000,0.0513,2.0254,-0.3282,2.052
2.985000,0.3646,2.2506,-0.4386,2.322
2.994000,0.8020,2.4457,-0.3999,2.605
2.996000,1.3583,2.6094,-0.2558,2.953
3.001000,2.0170,2.7326,0.1367,3.399
3.006000,2.6308,2.7437,0.7579,3.876
3.055000,3.2246,2.6523,1.6028,4.472
3.057000,3.7432,2.4933,2.6977,5.245
3.058000,4.1237,2.2038,3.8419,6.052
3.059000,4.3509,1.8181,4.8758,6.783
3.060000,4.4221,1.3822,5.8148,7.435
3.061000,4.3456,1.0336,6.5903,7.961
3.061000,4.0701,0.6274,7.0883,8.198
3.062000,3.6537,0.2275,7.1898,8.068
3.062000,3.1087,-0.1596,7.0415,7.699
3.063000,2.4682,-0.5314,6.5745,7.043
3.063000,1.8207,-0.8035,5.6739,6.013
3.065000,1.1766,-0.9966,4.7920,5.034
3.070000,0.6170,-1.0764,3.7919,3.990
3.077000,0.1188,-1.0468,2.7119,2.909
3.080000,-0.2628,-1.0074,1.7406,2.028
3.086000,-0.6361,-0.9502,0.7963,1.393
3.091000,-1.0147,-0.8533,0.0965,1.329
3.095000,-1.2727,-0.7400,-0.5649,1.577
3.100000,-1.4385,-0.5722,-1.1566,1.932
3.104000,-1.4986,-0.3947,-1.5044,2.160
3.111000,-1.4133,-0.2533,-1.5917,2.144
3.115000,-1.1562,-0.0906,-1.5623,1.946
3.119000,-0.6987,0.0427,-1.3229,1.497
3.131000,-0.0928,0.1456,-0.9425,0.958
3.132000,0.5305,0.1765,-0.4998,0.750
3.135000,1.0430,0.1419,-0.1238,1.060
3.196000,1.3673,0.1170,0.0906,1.375
3.196000,1.4711,0.0013,0.1650,1.480
3.196000,1.4219,-0.1363,0.1429,1.436
3.197000,1.1893,-0.2242,0.0436,1.211
3.197000,0.9073,-0.3101,-0.1761,0.975
3.197000,0.6044,-0.3864,-0.5136,0.882
3.197000,0.3116,-0.4577,-0.8137,0.984
3.197000,0.1220,-0.4734,-1.0933,1.198
3.198000,-0.0246,-0.4546,-1.3741,1.448
3.198000,-0.1618,-0.4537,-1.6204,1.690
3.198000,-0.2874,-0.5014,-1.8611,1.949
3.198000,-0.3678,-0.5450,-2.0939,2.195
3.199000,-0.4031,-0.5578,-2.2927,2.394
3.204000,-0.4914,-0.5538,-2.5295,2.636
3.209000,-0.4985,-0.4991,-2.7327,2.822
3.214000,-0.4845,-0.4415,-2.8906,2.964
3.220000,-0.4277,-0.3258,-2.9553,3.004
3.227000,-0.3737,-0.2405,-2.8530,2.887
3.230000,-0.2956,-0.1833,-2.7585,2.780
3.234000,-0.2553,-0.1091,-2.6404,2.655
3.239000,-0.1713,-0.0997,-2.5463,2.554
3.271000,-0.1251,-0.0762,-2.4906,2.495
3.272000,-0.1331,-0.0606,-2.5207,2.525
3.272000,-0.2197,-0.1027,-2.6105,2.622
3.272000,-0.3062,-0.0471,-2.7381,2.756
3.272000,-0.4740,-0.0273,-2.8609,2.900
3.273000,-0.6203,-0.0717,-2.9168,2.983
3.273000,-0.6900,-0.0557,-2.9394,3.020
3.280000,-0.7050,-0.0412,-2.8525,2.939
3.285000,-0.7727,-0.0306,-2.6896,2.799
3.290000,-0.7877,-0.0264,-2.4317,2.556
3.294000,-0.7785,-0.0456,-2.1505,2.288
3.300000,-0.8286,-0.1030,-1.7765,1.963
3.305000,-0.7727,-0.1198,-1.4748,1.669
3.310000,-0.7304,-0.1683,-1.2927,1.494
3.313000,-0.7183,-0.2605,-1.2468,1.462
3.318000,-0.7439,-0.2863,-1.2724,1.501
3.326000,-0.8074,-0.3127,-1.3120,1.572
3.331000,-0.8087,-0.3202,-1.3586,1.613
3.333000,-0.8099,-0.2944,-1.3357,1.590
3.338000,-0.7514,-0.1538,-1.2698,1.483
3.375000,-0.6546,-0.0636,-1.1226,1.301
3.376000,-0.5149,0.0024,-0.9445,1.076
3.378000,-0.3823,0.0727,-0.8118,0.900
3.378000,-0.2158,0.0708,-0.5786,0.622
3.378000,-0.0510,0.0826,-0.3431,0.357
3.379000,0.0025,0.0934,-0.1577,0.183
3.379000,0.0912,0.0864,-0.0701,0.144
3.379000,0.1076,0.1069,-0.1041,0.184
3.383000,0.0154,0.1405,-0.1351,0.196
3.387000,-0.1115,0.2065,-0.2421,0.337
3.393000,-0.3144,0.2738,-0.4487,0.613
3.398000,-0.5220,0.3450,-0.6188,0.880
3.402000,-0.7235,0.3774,-0.7762,1.126
3.409000,-0.9312,0.3854,-0.8015,1.288
3.414000,-0.9733,0.3884,-0.7451,1.286
3.418000,-0.9363,0.4128,-0.6311,1.202
3.425000,-0.8178,0.4321,-0.4858,1.045
3.429000,-0.6657,0.4870,-0.2711,0.868
3.433000,-0.4869,0.5654,-0.1758,0.767
3.438000,-0.3436,0.6412,-0.0851,0.732
3.443000,-0.2381,0.7360,0.0535,0.775
3.448000,-0.1103,0.7803,0.2734,0.834
3.453000,-0.0247,0.8364,0.5411,0.996
3.469000,0.1272,0.8517,0.8396,1.203
3.474000,0.2908,0.8212,1.2050,1.487
3.475000,0.5117,0.7999,1.5582,1.825
3.476000,0.7017,0.7947,1.9018,2.177
3.519000,0.8207,0.7955,2.3412,2.605
3.524000,0.9004,0.8638,2.7309,3.002
3.525000,0.9343,0.8606,2.9586,3.220
3.525000,0.8870,0.8719,3.0079,3.255
3.527000,0.8301,0.8590,2.8577,3.097
3.528000,0.6628,0.8395,2.6131,2.824
3.528000,0.4829,0.8566,2.1595,2.373
3.529000,0.2541,0.8511,1.7238,1.939
3.529000,0.0759,0.8694,1.3343,1.594
3.529000,-0.1312,0.9403,0.9598,1.350
3.530000,-0.3177,1.0025,0.6428,1.233
3.532000,-0.4267,1.0799,0.4790,1.256
3.538000,-0.4756,1.1681,0.4247,1.331
3.542000,-0.4239,1.2095,0.4777,1.368
3.548000,-0.3652,1.1587,0.6928,1.399
3.553000,-0.2344,1.0874,0.9718,1.477
3.561000,-0.0717,1.0427,1.2361,1.619
3.563000,0.0687,1.0367,1.4953,1.821
3.568000,0.2062,1.1813,1.6705,2.056
3.571000,0.3153,1.3180,1.7216,2.191
3.632000,0.3655,1.4373,1.7275,2.277
3.633000,0.4675,1.5611,1.5781,2.268
3.633000,0.4636,1.6296,1.2831,2.125
3.634000,0.4424,1.6582,0.9447,1.959
3.634000,0.3608,1.6732,0.5273,1.791
3.634000,0.1559,1.6610,0.1596,1.676
3.635000,-0.1248,1.6009,-0.2499,1.625
3.635000,-0.3814,1.5937,-0.5148,1.718
3.635000,-0.6748,1.5944,-0.6355,1.844
3.635000,-0.9264,1.6558,-0.6721,2.013
3.636000,-1.2589,1.6510,-0.6032,2.162
3.636000,-1.5488,1.6253,-0.3353,2.270
3.637000,-1.7945,1.6021,0.0431,2.406
3.641000,-1.9489,1.5427,0.4008,2.518
3.646000,-1.9547,1.4281,0.8049,2.551
3.651000,-1.8647,1.3248,1.1527,2.561
3.658000,-1.6568,1.1900,1.4608,2.509
3.661000,-1.3092,1.0911,1.7530,2.445
3.665000,-0.8878,1.0427,2.0458,2.462
3.670000,-0.4296,1.0090,2.3509,2.594
3.679000,0.0334,1.0400,2.7353,2.927
3.680000,0.4353,1.0328,3.1629,3.356
3.685000,0.7846,0.9942,3.7032,3.914
3.719000,1.0732,0.9185,4.2849,4.512
3.721000,1.2734,0.7598,4.7670,4.992
3.721000,1.3219,0.5214,5.0668,5.262
3.721000,1.2956,0.1907,5.1205,5.285
3.722000,1.1541,-0.1372,5.0318,5.164
3.722000,0.8802,-0.5465,4.5904,4.706
3.723000,0.5378,-0.8574,3.9787,4.105
3.726000,0.1569,-1.0893,3.2186,3.402
3.730000,-0.1712,-1.2919,2.4510,2.776
3.735000,-0.4931,-1.4743,1.7547,2.344
3.740000,-0.6906,-1.6242,1.1558,2.110
3.746000,-0.7413,-1.7222,0.6901,1.998
3.751000,-0.7268,-1.8162,0.2376,1.971
3.756000,-0.6795,-1.9206,-0.0842,2.039
3.761000,-0.5731,-1.9231,-0.3042,2.030
3.767000,-0.4318,-1.9363,-0.3771,2.019
3.771000,-0.3106,-1.9628,-0.4272,2.033
3.816000,-0.1587,-1.9935,-0.4399,2.048
3.817000,-0.0452,-2.0452,-0.4392,2.092
3.817000,0.0376,-2.0753,-0.4776,2.130
3.818000,0.1046,-2.0812,-0.6124,2.172
3.818000,0.1176,-2.1660,-0.7860,2.307
3.819000,0.0747,-2.2029,-1.0007,2.421
3.819000,0.0455,-2.2373,-1.2686,2.572
3.820000,0.0251,-2.2855,-1.5181,2.744
3.820000,0.0133,-2.3306,-1.7588,2.920
3.821000,0.0052,-2.3413,-2.0171,3.090
3.824000,0.0107,-2.3461,-2.2526,3.252
3.829000,0.0200,-2.3468,-2.4441,3.388
3.836000,0.0330,-2.3676,-2.6679,3.567
3.840000,0.0685,-2.3866,-2.8837,3.744
3.845000,0.0792,-2.4031,-3.1014,3.924
3.849000,0.1051,-2.4220,-3.2971,4.092
3.854000,0.1564,-2.3899,-3.4712,4.217
3.859000,0.2879,-2.3547,-3.5594,4.277
3.865000,0.3687,-2.3090,-3.5953,4.289
3.870000,0.4373,-2.2146,-3.6174,4.264
3.882000,0.5415,-2.1362,-3.6422,4.257
3.884000,0.6048,-2.1383,-3.6318,4.258
3.885000,0.6707,-2.1104,-3.5455,4.180
3.889000,0.7398,-2.0625,-3.4051,4.049
3.933000,0.7838,-2.0473,-3.3301,3.987
3.935000,0.8271,-2.0957,-3.3111,4.005
3.935000,0.7814,-2.0763,-3.3382,4.008
3.936000,0.7853,-2.0586,-3.3826,4.037
3.936000,0.7212,-2.1021,-3.4447,4.099
3.937000,0.6488,-2.1015,-3.5194,4.150
3.938000,0.5752,-2.0855,-3.5328,4.143
3.939000,0.4741,-2.1089,-3.5257,4.136
3.940000,0.3645,-2.0379,-3.4430,4.017
3.941000,0.2892,-1.9919,-3.3328,3.893
3.945000,0.2243,-1.9472,-3.2620,3.806
3.949000,0.1361,-1.8202,-3.1777,3.665
3.954000,0.1177,-1.7762,-3.1062,3.580
3.958000,0.0636,-1.6834,-3.0929,3.522
3.963000,-0.0979,-1.6210,-3.0517,3.457
3.969000,-0.2043,-1.5193,-3.0255,3.392
3.981000,-0.2104,-1.3641,-2.9261,3.235
3.982000,-0.2384,-1.2226,-2.8346,3.096
3.983000,-0.2430,-1.0491,-2.7678,2.970
3.988000,-0.1935,-0.9058,-2.7257,2.879
4.030000,-0.1668,-0.7662,-2.7083,2.820
4.031000,-0.1222,-0.6659,-2.6441,2.729
4.032000,-0.0452,-0.5279,-2.5144,2.570
4.032000,0.1263,-0.4120,-2.2833,2.324
4.032000,0.2703,-0.3035,-1.8891,1.932
4.033000,0.4112,-0.1789,-1.3579,1.430
4.033000,0.5211,-0.0408,-0.7473,0.912
4.033000,0.6580,0.0931,-0.1310,0.677
4.034000,0.6979,0.2107,0.4195,0.841
4.038000,0.6702,0.3234,0.9188,1.182
4.043000,0.5325,0.4069,1.3673,1.523
4.048000,0.2974,0.4637,1.6286,1.719
4.053000,-0.0154,0.5341,1.7891,1.867
4.057000,-0.2510,0.6688,1.7198,1.862
4.063000,-0.4386,0.8127,1.5667,1.819
4.069000,-0.5935,0.9564,1.3706,1.774
4.072000,-0.6299,1.1124,0.9758,1.608
4.078000,-0.5611,1.3027,0.4231,1.480
4.082000,-0.2763,1.4664,-0.2283,1.510
4.087000,0.1365,1.6645,-0.8593,1.878
4.130000,0.6018,1.9224,-1.2748,2.384
4.131000,1.1029,2.2370,-1.1820,2.760
4.132000,1.5931,2.3460,-0.6514,2.910
4.132000,2.0740,2.3367,0.2989,3.139
4.133000,2.5188,2.2423,1.6185,3.741
4.133000,2.9756,2.0521,3.1619,4.802
4.133000,3.3529,1.7060,4.7255,6.040
4.134000,3.5314,1.3257,6.2562,7.305
4.134000,3.5705,0.9273,7.6229,8.469
4.138000,3.4256,0.4607,8.2222,8.919
4.142000,3.0340,0.0280,8.8424,9.349
4.147000,2.3935,-0.2780,9.5985,9.896
4.153000,1.7320,-0.5537,9.7004,9.869
4.157000,0.9790,-0.7254,9.3719,9.451
4.163000,0.2227,-0.7851,8.9088,8.946
4.167000,-0.4366,-0.8513,8.3788,8.433
4.174000,-0.9764,-0.7877,7.7106,7.812
4.177000,-1.2953,-0.6296,6.6446,6.799
4.183000,-1.5549,-0.5125,5.1233,5.379
4.187000,-1.8056,-0.3966,3.8474,4.268
4.192000,-1.9997,-0.2305,2.8371,3.479
4.197000,-2.0368,-0.0892,2.0122,2.864
4.202000,-1.8775,0.0881,1.3765,2.330
4.216000,-1.5502,0.2426,1.0534,1.890
4.219000,-1.0884,0.3816,1.0017,1.528
4.220000,-0.5031,0.4839,1.0750,1.282
4.222000,0.1601,0.5210,1.3231,1.431
4.264000,0.7622,0.5142,1.6503,1.889
4.265000,1.2026,0.4370,1.9132,2.302
4.265000,1.5167,0.3752,2.0712,2.594
4.265000,1.6991,0.2974,2.0912,2.711
4.266000,1.7099,0.2348,1.9876,2.632
4.266000,1.6263,0.2209,1.7940,2.431
4.266000,1.5015,0.1789,1.5105,2.137
4.266000,1.3614,0.1740,1.2447,1.853
4.266000,1.2706,0.1607,0.9320,1.584
4.273000,1.2360,0.1127,0.6130,1.384
4.278000,1.2597,0.1256,0.2758,1.296
4.282000,1.2697,0.0562,-0.0891,1.274
4.287000,1.2943,-0.0453,-0.3216,1.334
4.291000,1.3023,-0.1217,-0.6155,1.446
4.297000,1.3052,-0.1778,-0.9082,1.600
4.302000,1.2983,-0.2425,-1.2718,1.834
4.306000,1.2474,-0.2727,-1.6222,2.064
4.311000,1.2215,-0.2709,-1.9356,2.305
4.316000,1.2017,-0.2702,-2.1596,2.486
4.320000,1.1691,-0.2370,-2.4235,2.701
4.326000,1.1974,-0.2288,-2.5861,2.859
4.331000,1.1962,-0.2452,-2.7458,3.005
4.335000,1.0679,-0.3145,-2.9123,3.118
4.372000,0.9831,-0.3622,-3.0666,3.241
4.374000,0.9086,-0.4118,-3.1827,3.335
4.375000,0.8187,-0.4702,-3.2177,3.353
4.375000,0.7136,-0.5156,-3.2005,3.319
4.375000,0.5797,-0.5481,-3.1335,3.233
4.376000,0.4480,-0.6277,-3.1531,3.246
4.376000,0.2418,-0.6994,-3.1969,3.281
4.377000,0.0610,-0.7419,-3.2672,3.351
4.380000,-0.0923,-0.7861,-3.4405,3.530
4.385000,-0.2641,-0.7867,-3.5540,3.650
4.394000,-0.4238,-0.7959,-3.6081,3.719
4.395000,-0.5430,-0.7995,-3.6242,3.751
4.400000,-0.6245,-0.7519,-3.5595,3.691
4.405000,-0.7114,-0.7537,-3.4473,3.600
4.411000,-0.8039,-0.8147,-3.2758,3.470
4.415000,-1.0742,-0.8752,-3.1669,3.457
4.420000,-1.8808,-1.2818,-2.9914,3.759
4.430000,-1.9079,-1.0947,-2.8210,3.577
4.432000,-1.4383,-0.5703,-2.6198,3.043
4.435000,-1.0870,-0.2855,-2.6509,2.879
4.439000,-0.7325,-0.1374,-2.7967,2.894
4.471000,-0.3996,-0.1210,-2.7391,2.771
4.474000,-0.1910,-0.1694,-2.5164,2.529
4.474000,-0.0483,-0.2612,-2.2650,2.281
4.475000,0.0367,-0.2553,-2.0185,2.035
4.476000,0.0456,-0.1473,-1.7912,1.798
4.476000,0.0436,0.0438,-1.5233,1.525
4.477000,0.0460,0.1720,-1.3679,1.379
4.480000,0.1390,0.2613,-1.3081,1.341
4.484000,0.2316,0.3189,-1.2794,1.339
4.489000,0.3090,0.3760,-1.2767,1.366
4.495000,0.3130,0.4085,-1.2284,1.332
4.499000,0.1930,0.4331,-1.1416,1.236
4.504000,-0.0250,0.4304,-1.0257,1.113
4.509000,-0.2478,0.4100,-0.8688,0.992
4.515000,-0.5114,0.4146,-0.7187,0.975
4.519000,-0.7417,0.4155,-0.6398,1.064
4.530000,-0.8643,0.4559,-0.6729,1.186
4.531000,-0.9660,0.4524,-0.7700,1.316
4.534000,-1.0470,0.5248,-0.8572,1.451
4.538000,-1.0286,0.5944,-0.8580,1.465
4.571000,-1.0356,0.6138,-0.7464,1.416
4.572000,-1.0698,0.6239,-0.5776,1.367
4.572000,-1.0640,0.6749,-0.3207,1.300
4.573000,-1.1231,0.6637,-0.1047,1.309
4.573000,-1.1369,0.5737,0.0870,1.276
4.575000,-1.1250,0.5100,0.2953,1.270
4.576000,-1.0996,0.4869,0.5513,1.323
4.579000,-0.9915,0.4302,0.8047,1.348
4.584000,-0.8894,0.3946,1.1609,1.515
4.588000,-0.7997,0.4256,1.5407,1.787
4.594000,-0.6980,0.3961,2.0113,2.166
4.599000,-0.6639,0.3968,2.7831,2.889
4.603000,-0.4497,0.6373,3.0048,3.104
4.610000,-0.3591,0.8556,3.2132,3.344
4.614000,-0.5205,0.9438,3.4038,3.570
4.618000,-0.7365,1.0284,3.1535,3.398
4.625000,-0.9753,1.1025,2.6615,3.041
4.629000,-1.2620,1.1768,2.1832,2.783
4.634000,-1.5063,1.2376,1.7925,2.648
4.638000,-1.7640,1.2552,1.4599,2.611
4.647000,-1.8824,1.3283,1.1946,2.595
4.649000,-1.9314,1.4241,1.0439,2.617
4.653000,-1.8949,1.5385,0.9546,2.621
4.693000,-1.8214,1.6045,0.9961,2.624
4.694000,-1.7541,1.6679,1.2253,2.713
4.695000,-1.5800,1.6761,1.4722,2.734
4.695000,-1.3134,1.7558,1.7488,2.805
4.696000,-1.0372,1.7754,2.1100,2.946
4.696000,-0.7867,1.8040,2.4746,3.162
4.696000,-0.5967,1.7865,2.7398,3.325
4.697000,-0.4448,1.7203,2.9967,3.484
4.699000,-0.3715,1.6176,3.1903,3.596
4.703000,-0.3832,1.5142,3.3205,3.670
4.711000,-0.4343,1.4126,3.4663,3.768
4.713000,-0.4864,1.2579,3.6469,3.888
4.718000,-0.6251,1.1215,3.7976,4.009
4.724000,-0.7552,1.0008,3.9404,4.135
4.728000,-0.9053,0.8858,3.9916,4.188
4.733000,-1.0401,0.7739,4.0208,4.225
4.738000,-1.1648,0.6935,4.0404,4.262
4.748000,-1.2939,0.5939,4.0097,4.255
4.750000,-1.3153,0.5251,3.9459,4.192
4.753000,-1.3036,0.4918,3.8274,4.073
4.806000,-1.2472,0.4269,3.6377,3.869
4.807000,-1.1558,0.3642,3.4772,3.682
4.808000,-1.0461,0.2796,3.2429,3.419
4.809000,-0.8561,0.2596,3.0689,3.197
4.809000,-0.6598,0.2349,2.8928,2.976
4.810000,-0.4877,0.1460,2.6640,2.712
4.810000,-0.3609,0.1180,2.4589,2.488
4.810000,-0.2382,0.0361,2.2988,2.311
4.811000,-0.1501,-0.0229,2.1932,2.198
4.811000,-0.0845,-0.1164,2.1586,2.163
4.811000,0.0261,-0.2709,2.0827,2.100
4.814000,0.0764,-0.4530,2.0517,2.102
4.816000,0.1340,-0.6103,1.9317,2.030
4.821000,0.1487,-0.8169,1.8281,2.008
4.827000,0.1349,-0.9801,1.7173,1.982
4.832000,0.0712,-1.1552,1.5802,1.959
4.836000,-0.0020,-1.2875,1.4148,1.913
4.841000,-0.0731,-1.4111,1.2406,1.880
4.847000,-0.1421,-1.5502,1.0122,1.857
4.851000,-0.1981,-1.6526,0.7253,1.816
4.867000,-0.2245,-1.7449,0.3417,1.792
4.871000,-0.2436,-1.8919,-0.0472,1.908
4.872000,-0.2459,-1.9907,-0.4105,2.047
4.873000,-0.2993,-2.0415,-0.7887,2.209
4.912000,-0.3201,-2.0802,-1.2152,2.430
4.913000,-0.3472,-2.1089,-1.6065,2.674
4.914000,-0.2376,-2.1251,-2.0273,2.947
4.914000,-0.1451,-2.0903,-2.3818,3.172
4.915000,-0.0887,-2.0717,-2.6822,3.390
4.915000,0.0367,-2.0498,-2.9668,3.606
4.916000,0.1260,-2.0221,-3.2430,3.824
4.917000,0.2294,-2.0003,-3.4893,4.029
4.917000,0.3465,-1.9847,-3.7464,4.254
4.921000,0.4179,-1.9220,-3.9570,4.419
4.926000,0.4415,-1.8646,-4.1598,4.580
4.932000,0.4369,-1.8551,-4.3286,4.730
4.937000,0.4427,-1.8167,-4.4852,4.859
4.942000,0.4541,-1.8138,-4.6107,4.975
4.946000,0.4574,-1.7691,-4.6982,5.041
4.951000,0.4603,-1.7448,-4.6977,5.032
4.956000,0.4583,-1.6949,-4.7387,5.054
4.964000,0.4276,-1.6602,-4.8117,5.108
4.966000,0.3566,-1.6500,-4.8021,5.090
4.971000,0.3507,-1.5731,-4.7793,5.044
5.006000,0.3240,-1.5084,-4.7293,4.975
5.007000,0.3458,-1.4153,-4.7452,4.964
5.007000,0.3536,-1.3440,-4.6908,4.892
5.007000,0.2972,-1.2800,-4.5208,4.708
5.008000,0.3201,-1.1974,-4.3235,4.498
5.008000,0.3384,-1.1417,-4.0296,4.202
5.008000,0.3021,-1.1230,-3.7322,3.909
5.012000,0.2565,-1.1246,-3.4358,3.624
5.016000,0.2061,-1.1207,-3.1499,3.350
5.021000,0.1724,-1.1139,-2.8622,3.076
5.025000,0.1505,-1.0829,-2.5057,2.734
5.030000,0.0400,-1.0976,-2.1685,2.431
5.035000,-0.0205,-1.0603,-1.8289,2.114
5.040000,-0.0957,-0.9909,-1.5630,1.853
5.045000,-0.1140,-0.9446,-1.3108,1.620
5.050000,-0.1305,-0.9381,-1.2347,1.556
5.057000,-0.1526,-0.8806,-1.2652,1.549
5.061000,-0.1989,-0.7860,-1.2878,1.522
5.065000,-0.2193,-0.7044,-1.3384,1.528
5.071000,-0.1947,-0.6113,-1.3000,1.450
5.079000,-0.1008,-0.4873,-1.2426,1.338
5.080000,-0.0233,-0.3512,-1.1064,1.161
5.085000,0.0881,-0.2438,-0.8486,0.887
5.125000,0.1910,-0.0646,-0.5387,0.575
5.126000,0.2615,0.0854,-0.3319,0.431
5.126000,0.2996,0.1728,-0.1565,0.380
5.127000,0.3126,0.1885,0.0569,0.369
5.127000,0.3221,0.2018,0.1478,0.408
5.127000,0.2636,0.1795,0.2312,0.394
5.127000,0.2302,0.0815,0.2731,0.366
5.127000,0.2100,-0.0246,0.4073,0.459
5.131000,0.1863,-0.0241,0.6121,0.640
5.134000,0.2190,0.0614,0.8539,0.884
5.139000,0.1763,0.1219,1.1828,1.202
5.145000,0.1111,0.1593,1.6182,1.630
5.150000,0.0185,0.2305,2.1148,2.127
5.155000,-0.0749,0.3444,2.4553,2.480
5.161000,-0.1378,0.4911,2.6760,2.724
5.165000,-0.2636,0.6247,2.7438,2.826
5.170000,-0.3787,0.7930,2.6949,2.835
5.177000,-0.4645,0.9268,2.4840,2.692
5.180000,-0.4731,1.0241,2.3452,2.602
5.184000,-0.3809,1.0950,2.2042,2.491
5.188000,-0.1861,1.1830,2.0248,2.352
5.231000,0.0086,1.2813,1.8690,2.266
5.232000,0.2387,1.4693,1.5787,2.170
5.233000,0.4895,1.6809,1.2513,2.152
5.233000,0.7443,1.9073,1.0014,2.279
5.234000,1.0054,2.1183,0.9143,2.517
5.234000,1.3357,2.2548,0.9414,2.785
5.235000,1.7169,2.2865,1.1060,3.066
5.235000,2.1757,2.2259,1.5106,3.460
5.236000,2.4933,2.1066,2.2121,3.943
5.239000,2.7234,1.8942,3.0027,4.474
5.244000,2.8600,1.5804,3.7779,4.995
5.249000,2.8062,1.2532,4.3492,5.325
5.254000,2.6790,0.9254,4.8757,5.640
5.258000,2.4021,0.6250,5.3222,5.872
5.264000,2.0084,0.3218,5.6275,5.984
5.269000,1.5674,0.0511,5.6943,5.906
5.275000,1.0943,-0.2169,5.5116,5.623
5.279000,0.6452,-0.4850,5.0657,5.130
5.284000,0.2123,-0.6763,4.4572,4.513
5.289000,-0.1634,-0.8221,3.8418,3.932
5.294000,-0.5152,-0.9437,3.1766,3.354
5.299000,-0.7365,-0.9546,2.5162,2.790
5.307000,-0.8484,-0.9052,1.9897,2.345
5.308000,-0.9112,-0.8571,1.5370,1.982
5.315000,-0.8393,-0.7600,1.2102,1.657
5.319000,-0.6716,-0.6593,0.9230,1.318
5.323000,-0.4796,-0.5901,0.7970,1.102
5.361000,-0.2220,-0.5598,0.9036,1.086
5.362000,0.1524,-0.5445,1.1374,1.270
5.362000,0.5277,-0.5369,1.3810,1.573
5.363000,0.8626,-0.5209,1.5149,1.819
5.363000,1.1344,-0.5201,1.5273,1.972
5.363000,1.3254,-0.5322,1.4349,2.025
5.363000,1.4053,-0.5284,1.2259,1.938
5.363000,1.4224,-0.5464,0.9814,1.812
5.367000,1.3673,-0.5954,0.7683,1.678
5.373000,1.2472,-0.6087,0.5770,1.503
5.378000,1.1963,-0.5837,0.5222,1.430
5.383000,1.1164,-0.5975,0.4438,1.342
5.388000,1.0744,-0.6526,0.3706,1.311
5.395000,1.0555,-0.7493,0.2453,1.317
5.397000,1.0549,-0.8350,0.0490,1.346
5.402000,1.0341,-0.9030,-0.1583,1.382
5.447000,0.9690,-0.9437,-0.4602,1.429
5.447000,0.8830,-0.9718,-0.7610,1.518
5.448000,0.7898,-0.9683,-1.1201,1.678
5.448000,0.7317,-0.9092,-1.3846,1.811
5.448000,0.6965,-0.8785,-1.6502,1.995
5.449000,0.6480,-0.8619,-1.8331,2.127
5.449000,0.6050,-0.8642,-2.0290,2.287
5.450000,0.5525,-0.8615,-2.3217,2.537
5.450000,0.5146,-0.8632,-2.5866,2.775
5.453000,0.4984,-0.8881,-2.8360,3.013
5.459000,0.4876,-0.8593,-3.0773,3.232
5.462000,0.4582,-0.8146,-3.3513,3.479
5.467000,0.4128,-0.7703,-3.5554,3.661
5.471000,0.3657,-0.6950,-3.6588,3.742
5.476000,0.3006,-0.6554,-3.7023,3.772
5.482000,0.2632,-0.5556,-3.7125,3.763
5.487000,0.2803,-0.5414,-3.7157,3.765
5.492000,0.3095,-0.5073,-3.7290,3.776
5.497000,0.3075,-0.4433,-3.7714,3.810
5.502000,0.2581,-0.4235,-3.7642,3.797
5.511000,0.2357,-0.3689,-3.7076,3.733
5.513000,0.1688,-0.3106,-3.6588,3.676
5.516000,0.0837,-0.2940,-3.6348,3.648
5.522000,-0.0147,-0.2544,-3.5947,3.604
5.562000,-0.0768,-0.1777,-3.4574,3.463
5.564000,-0.1070,-0.1094,-3.2730,3.277
5.564000,-0.1847,-0.0714,-3.0607,3.067
5.565000,-0.2238,0.0177,-2.8729,2.882
5.566000,-0.2914,0.0356,-2.5972,2.614
5.566000,-0.3662,0.0395,-2.2814,2.311
5.566000,-0.3550,0.0816,-1.8894,1.924
5.567000,-0.3892,0.1041,-1.5934,1.644
5.567000,-0.3566,0.1663,-1.3308,1.388
5.572000,-0.3316,0.2393,-1.1205,1.193
5.577000,-0.3547,0.2847,-0.9362,1.041
5.581000,-0.2726,0.3070,-0.7036,0.815
5.586000,-0.2096,0.3564,-0.4466,0.609
5.591000,-0.1196,0.4304,-0.2800,0.527
5.596000,-0.0933,0.4930,-0.2323,0.553
5.602000,-0.1140,0.5298,-0.3106,0.625
5.606000,-0.2296,0.5823,-0.3309,0.708
5.611000,-0.3686,0.6454,-0.2287,0.778
5.616000,-0.5259,0.6717,-0.1213,0.862
5.620000,-0.6558,0.6586,-0.0279,0.930
5.626000,-0.7847,0.6422,-0.0513,1.015
5.631000,-0.8685,0.6918,0.0095,1.110
5.635000,-0.9264,0.7017,0.0829,1.165
5.679000,-1.0374,0.6988,0.0156,1.251
5.681000,-1.0750,0.7115,-0.0438,1.290
5.682000,-1.1569,0.7786,-0.0956,1.398
5.682000,-1.2282,0.8024,-0.1018,1.471
5.682000,-1.3059,0.8400,0.0335,1.553
5.682000,-1.3710,0.8796,0.2191,1.644
5.682000,-1.3305,0.9332,0.4143,1.677
5.683000,-1.2588,0.9385,0.6311,1.692
5.683000,-1.0792,0.9622,0.8720,1.688
5.685000,-0.8107,0.9757,1.1466,1.710
5.692000,-0.5918,1.0294,1.5000,1.913
5.695000,-0.3930,1.1299,1.9158,2.259
5.700000,-0.2110,1.2460,2.4369,2.745
5.705000,-0.0830,1.3271,2.9629,3.248
5.710000,-0.0631,1.4252,3.3387,3.631
5.715000,-0.1030,1.4943,3.5194,3.825
5.720000,-0.2241,1.5134,3.5839,3.897
5.728000,-0.3331,1.5469,3.4559,3.801
5.730000,-0.5214,1.5715,3.3004,3.692
5.735000,-0.6890,1.5877,3.0669,3.522
5.769000,-0.8624,1.6299,2.7720,3.329
5.770000,-0.9727,1.7076,2.5016,3.181
5.771000,-1.0162,1.7833,2.2123,3.018
5.771000,-1.0581,1.9419,1.9346,2.938
5.771000,-1.0725,2.0777,1.7452,2.918
5.772000,-1.0434,2.1223,1.5262,2.815
5.772000,-0.9975,2.1383,1.5525,2.824
5.779000,-0.8920,2.1903,1.7712,2.955
5.780000,-0.7000,2.2138,2.0933,3.126
5.785000,-0.4478,2.2297,2.4164,3.318
5.790000,-0.1588,2.2257,2.7861,3.569
5.795000,0.1531,2.1964,3.2098,3.892
5.800000,0.3812,2.1890,3.5108,4.155
5.804000,0.5503,2.1198,3.7037,4.303
5.810000,0.6013,1.9810,3.8079,4.334
5.815000,0.5760,1.8137,3.8331,4.279
5.819000,0.4245,1.6373,3.8149,4.173
5.824000,0.1902,1.4085,3.6867,3.951
5.829000,-0.0478,1.2642,3.5103,3.731
5.834000,-0.3281,1.1013,3.3363,3.529
5.839000,-0.6272,1.0059,3.1358,3.352
5.847000,-0.8955,0.9756,2.8587,3.151
5.850000,-1.1121,0.8857,2.6201,2.981
5.854000,-1.3184,0.7605,2.3194,2.774
5.906000,-1.4840,0.6717,1.8993,2.502
5.907000,-1.5860,0.6077,1.4913,2.260
5.908000,-1.6206,0.5352,1.0761,2.018
5.909000,-1.6411,0.4974,0.7589,1.875
5.909000,-1.6023,0.4421,0.5010,1.736
5.910000,-1.5212,0.3648,0.3140,1.596
5.910000,-1.4074,0.2897,0.2576,1.460
5.910000,-1.1791,0.1617,0.3554,1.242
5.910000,-0.8759,0.0909,0.4734,1.000
5.911000,-0.5593,0.0100,0.5446,0.781
5.911000,-0.2070,-0.1244,0.6244,0.670
5.913000,0.0644,-0.2072,0.6699,0.704
5.918000,0.2911,-0.3416,0.6524,0.792
5.925000,0.4736,-0.4823,0.5961,0.901
5.928000,0.6172,-0.5840,0.4989,0.985
5.934000,0.7144,-0.7378,0.3895,1.098
5.939000,0.7510,-0.8911,0.3444,1.215
5.944000,0.8039,-1.0442,0.3376,1.360
5.949000,0.8325,-1.2114,0.2493,1.491
5.954000,0.8464,-1.3835,0.2020,1.634
5.960000,0.7832,-1.5275,0.1456,1.723
5.963000,0.6858,-1.7296,-0.1302,1.865
5.967000,0.6132,-1.8919,-0.4075,2.030
5.991000,0.5507,-1.9999,-0.6359,2.170
5.992000,0.4810,-2.0847,-0.8420,2.299
5.992000,0.4585,-2.1488,-0.9921,2.411
5.993000,0.4329,-2.1638,-1.0744,2.454
5.993000,0.4208,-2.1728,-1.0935,2.469
5.998000,0.3936,-2.1716,-1.1425,2.485
6.002000,0.3416,-2.1963,-1.1638,2.509
6.008000,0.2956,-2.1850,-1.1668,2.495
6.013000,0.3225,-2.1430,-1.2253,2.490
6.017000,0.3788,-2.0800,-1.2937,2.479
6.024000,0.5120,-1.9989,-1.4650,2.531
6.030000,0.6546,-1.8397,-1.6171,2.535
6.033000,0.7853,-1.7511,-1.7187,2.576
6.038000,0.9213,-1.6153,-1.8540,2.626
6.044000,1.0603,-1.5108,-1.9036,2.652
6.048000,1.2434,-1.4163,-1.9200,2.690
6.052000,1.4689,-1.2525,-2.0445,2.812
6.060000,1.6723,-1.1388,-2.2605,3.034
6.063000,1.7937,-1.0153,-2.5320,3.265
6.067000,1.8405,-0.9051,-2.7899,3.463
6.072000,1.8250,-0.8841,-3.0349,3.650
6.107000,1.7951,-0.8679,-3.2768,3.836
6.108000,1.7670,-0.9236,-3.4868,4.017
6.109000,1.7410,-0.9287,-3.6176,4.121
6.109000,1.6742,-0.9615,-3.7031,4.176
6.109000,1.5882,-1.0247,-3.8078,4.251
6.110000,1.4619,-1.0961,-3.8102,4.226
6.110000,1.3340,-1.1393,-3.7970,4.183
6.113000,1.2048,-1.1598,-3.7558,4.111
6.118000,1.0531,-1.2479,-3.6751,4.021
6.122000,0.9342,-1.3247,-3.6244,3.970
6.127000,0.8102,-1.4424,-3.4725,3.846
6.133000,0.7026,-1.5511,-3.3747,3.780
6.137000,0.6623,-1.5906,-3.2548,3.683
6.142000,0.6057,-1.6469,-3.1657,3.619
6.146000,0.5568,-1.6772,-3.0929,3.562
6.152000,0.5611,-1.6641,-2.9842,3.463
6.158000,0.5182,-1.6153,-2.7533,3.234
6.161000,0.5164,-1.6050,-2.4195,2.949
6.167000,0.4814,-1.6022,-1.9492,2.569
6.172000,0.4374,-1.5980,-1.5836,2.292
6.176000,0.4124,-1.5952,-1.2841,2.089
6.181000,0.3129,-1.5892,-1.0812,1.947
6.186000,0.2292,-1.5349,-1.0249,1.860
6.196000,0.0936,-1.4728,-1.0289,1.799
6.198000,-0.1013,-1.3719,-1.0836,1.751
6.201000,-0.3371,-1.2415,-1.1007,1.693
6.206000,-0.4879,-1.0862,-0.9655,1.533
6.237000,-0.5540,-0.9658,-0.7691,1.353
6.237000,-0.5456,-0.9209,-0.5786,1.217
6.238000,-0.4247,-0.8918,-0.3388,1.044
6.238000,-0.2775,-0.8523,-0.0068,0.896
6.238000,-0.1349,-0.8481,0.3819,0.940
6.238000,-0.0490,-0.8603,0.8632,1.220
6.241000,0.0454,-0.8368,1.3990,1.631
6.246000,0.0848,-0.8690,1.9563,2.142
6.251000,0.1088,-0.9311,2.4134,2.589
6.259000,0.0301,-0.9826,2.6631,2.839
6.261000,-0.1194,-0.9974,2.5744,2.763
6.266000,-0.3942,-0.9231,2.2408,2.455
6.272000,-0.7142,-0.7256,1.6336,1.925
6.276000,-1.1186,-0.5243,0.9584,1.564
6.281000,-1.5078,-0.3610,0.2480,1.570
6.289000,-1.9065,-0.1657,-0.3955,1.954
6.293000,-2.2397,-0.0019,-0.9802,2.445
6.297000,-2.4823,0.1670,-1.3728,2.842
6.300000,-2.5635,0.3272,-1.6124,3.046
6.329000,-2.4602,0.5315,-1.6658,3.018
6.330000,-2.1852,0.7941,-1.5429,2.790
6.330000,-1.7058,0.9598,-1.2798,2.339
6.330000,-1.1558,1.1047,-0.6971,1.744
6.330000,-0.6465,1.2141,0.1599,1.385
6.330000,-0.1764,1.2656,1.1242,1.702
6.335000,0.2615,1.3396,2.1224,2.523
6.339000,0.5882,1.4018,2.9591,3.327
6.345000,0.7597,1.4274,3.4439,3.805
6.350000,0.7584,1.4283,3.5726,3.922
6.355000,0.6087,1.4115,3.4509,3.778
6.360000,0.2843,1.3895,3.0452,3.359
6.366000,-0.0975,1.3654,2.4056,2.768
6.370000,-0.5061,1.2712,1.6102,2.113
6.376000,-0.9528,1.1600,0.9004,1.750
6.380000,-1.3124,1.0640,0.1845,1.700
6.385000,-1.5250,1.0509,-0.3229,1.880
6.393000,-1.5663,1.0618,-0.5725,1.977
6.395000,-1.4734,1.1134,-0.3949,1.888
6.400000,-1.1775,1.1645,0.2267,1.672
6.405000,-0.6764,1.1447,1.1419,1.753
6.445000,-0.1297,1.1411,1.9929,2.300
6.446000,0.3482,1.0305,2.8548,3.055
6.446000,0.6962,0.9359,3.7335,3.911
6.447000,0.9203,0.8847,4.5486,4.724
6.447000,1.0290,0.7625,5.2391,5.393
6.448000,1.0571,0.6194,5.6429,5.774
6.448000,1.0371,0.4346,5.7684,5.877
6.448000,0.9556,0.2061,5.5224,5.608
6.449000,0.7839,0.0180,4.9886,5.050
6.454000,0.5895,-0.1268,4.3416,4.383
6.461000,0.3224,-0.3158,3.5521,3.581
6.465000,0.0348,-0.4188,2.6315,2.665
6.470000,-0.2571,-0.5067,1.7036,1.796
6.475000,-0.3893,-0.5161,0.9375,1.139
6.479000,-0.4438,-0.5159,0.2656,0.730
6.484000,-0.5120,-0.5054,-0.3006,0.780
6.490000,-0.4891,-0.4559,-0.6562,0.937
6.499000,-0.3823,-0.4554,-0.9117,1.088
6.499000,-0.3095,-0.4854,-1.0429,1.191
6.504000,-0.2159,-0.4839,-1.0905,1.212
6.540000,-0.1115,-0.4942,-1.1021,1.213
6.541000,0.0206,-0.4858,-1.0752,1.180
6.541000,0.1015,-0.4665,-0.9760,1.086
6.541000,0.1843,-0.4221,-0.8689,0.983
6.541000,0.2762,-0.3940,-0.8754,0.999
6.541000,0.2867,-0.3894,-0.9788,1.092
6.542000,0.2326,-0.3988,-1.1501,1.239
6.543000,0.1569,-0.4531,-1.3272,1.411
6.550000,0.0359,-0.4539,-1.5604,1.625
6.554000,-0.1207,-0.4703,-1.7567,1.823
6.558000,-0.2937,-0.4898,-1.9857,2.066
6.563000,-0.4781,-0.5528,-2.2357,2.352
6.570000,-0.6362,-0.6063,-2.4255,2.580
6.574000,-0.7324,-0.6403,-2.4885,2.672
6.578000,-0.7737,-0.6882,-2.4727,2.681
6.582000,-0.7698,-0.6855,-2.3377,2.555
6.588000,-0.7564,-0.6754,-2.1503,2.377
6.593000,-0.6737,-0.6990,-2.0013,2.224
6.598000,-0.5792,-0.6846,-1.9335,2.131
6.604000,-0.5781,-0.7234,-1.8488,2.068
6.609000,-0.5414,-0.7271,-1.8259,2.039
6.613000,-0.5674,-0.7339,-1.8623,2.081
6.618000,-0.5677,-0.6912,-1.9244,2.122
6.647000,-0.5302,-0.6614,-1.9239,2.102
6.648000,-0.4625,-0.6084,-1.8774,2.027
6.649000,-0.4006,-0.5513,-1.8330,1.956
6.649000,-0.2913,-0.5358,-1.7045,1.810
6.649000,-0.2064,-0.5424,-1.6139,1.715
6.650000,-0.1339,-0.5333,-1.5588,1.653
6.653000,-0.0807,-0.5249,-1.5223,1.612
6.658000,0.0415,-0.4863,-1.5451,1.620
6.663000,0.1728,-0.3933,-1.6368,1.692
6.668000,0.2727,-0.3629,-1.7450,1.803
6.674000,0.4177,-0.3160,-1.7596,1.836
6.678000,0.4984,-0.2544,-1.7529,1.840
6.682000,0.6082,-0.1661,-1.6819,1.796
6.688000,0.6948,-0.1372,-1.5133,1.671
6.693000,0.7345,-0.1557,-1.2878,1.491
6.698000,0.7563,-0.1835,-1.1152,1.360
6.705000,0.7558,-0.1945,-0.9404,1.222
6.710000,0.6854,-0.2371,-0.7487,1.042
6.712000,0.5903,-0.2587,-0.6859,0.941
6.718000,0.4391,-0.2666,-0.5963,0.787
6.722000,0.2032,-0.2657,-0.5851,0.674
6.730000,0.0180,-0.2920,-0.5256,0.602
6.732000,-0.0997,-0.2641,-0.4248,0.510
6.737000,-0.1816,-0.2849,-0.3426,0.481
6.747000,-0.1750,-0.2732,-0.2910,0.436
6.756000,-0.1471,-0.2217,-0.2579,0.371
6.756000,-0.1009,-0.1399,-0.3199,0.363
6.793000,-0.0893,-0.0875,-0.4173,0.436
6.794000,-0.0981,-0.0214,-0.3947,0.407
6.794000,-0.0628,0.0469,-0.1974,0.212
6.794000,-0.0338,0.0955,0.0359,0.107
6.794000,0.0056,0.0599,0.2978,0.304
6.795000,0.0866,-0.0097,0.6316,0.638
6.795000,0.1904,-0.0491,0.9394,0.960
6.795000,0.2576,-0.1326,1.1806,1.216
6.796000,0.2669,-0.1145,1.4920,1.520
6.801000,0.2525,-0.0502,1.7324,1.751
6.807000,0.0805,0.0577,1.8496,1.852
6.812000,-0.1226,0.2303,1.9062,1.924
6.817000,-0.3452,0.4076,1.8402,1.916
6.825000,-0.5801,0.5089,1.7350,1.899
6.828000,-0.8060,0.5843,1.5453,1.838
6.832000,-1.0208,0.7279,1.3259,1.825
6.836000,-1.2367,0.8851,1.0546,1.851
6.846000,-1.3779,1.0210,0.8170,1.900
6.848000,-1.4379,1.2170,0.5149,1.953
6.851000,-1.3504,1.4929,0.4085,2.054
6.889000,-1.2113,1.7151,0.3775,2.133
6.891000,-1.0876,1.8859,0.4147,2.216
6.891000,-0.8791,2.0724,0.4939,2.305
6.892000,-0.6414,2.2266,0.5504,2.382
6.892000,-0.3937,2.3246,0.6631,2.449
6.892000,-0.0832,2.4027,0.7745,2.526
6.893000,0.2375,2.3865,1.0402,2.614
6.893000,0.4431,2.2980,1.2995,2.677
6.896000,0.5247,2.2544,1.5645,2.794
6.901000,0.7014,2.1696,1.9404,2.994
6.906000,0.8447,2.1414,2.2407,3.212
6.911000,0.8678,2.1626,2.4248,3.363
6.916000,0.8988,2.2165,2.4999,3.460
6.921000,0.9496,2.1714,2.5428,3.476
6.931000,0.8229,2.1207,2.4744,3.361
6.936000,0.5861,1.9881,2.2228,3.039
6.936000,0.3324,1.8914,1.9458,2.734
6.978000,0.0989,1.7781,1.6430,2.423
6.979000,-0.0903,1.6705,1.3595,2.156
6.980000,-0.1545,1.6238,1.1999,2.025
6.980000,-0.1418,1.5258,1.1617,1.923
6.980000,-0.0451,1.4482,1.2352,1.904
6.981000,0.0592,1.3383,1.2387,1.825
6.981000,0.2072,1.2508,1.2896,1.808
6.981000,0.2720,1.1281,1.3498,1.780
6.982000,0.2748,0.9695,1.3603,1.693
6.985000,0.2707,0.7891,1.4432,1.667
6.992000,0.2333,0.6057,1.5249,1.657
6.995000,0.1888,0.3928,1.5625,1.622
7.001000,0.0963,0.1859,1.5538,1.568
7.005000,0.0248,-0.0251,1.4756,1.476
7.011000,-0.0805,-0.2567,1.4308,1.456
7.016000,-0.1936,-0.4569,1.4172,1.502
7.021000,-0.3340,-0.6423,1.4276,1.601
7.027000,-0.3962,-0.8684,1.4360,1.724
7.031000,-0.4739,-1.0760,1.3570,1.796
7.035000,-0.6289,-1.2794,1.1737,1.847
7.078000,-0.6923,-1.4407,0.9487,1.859
7.079000,-0.7576,-1.6148,0.6654,1.904
7.080000,-0.8998,-1.7183,0.3693,1.974
7.080000,-0.9948,-1.8493,0.0770,2.101
7.080000,-1.0790,-1.8496,-0.1229,2.145
7.081000,-1.0715,-1.8512,-0.1853,2.147
7.081000,-1.0154,-1.8470,-0.2440,2.122
7.081000,-0.9517,-1.8351,-0.1984,2.077
7.082000,-0.8304,-1.8446,-0.1870,2.031
7.085000,-0.6729,-1.8470,-0.2836,1.986
7.092000,-0.5633,-1.9219,-0.4115,2.045
7.095000,-0.4655,-1.9469,-0.6016,2.090
7.100000,-0.4346,-1.9198,-0.9257,2.175
7.105000,-0.4567,-1.9550,-1.2548,2.368
7.110000,-0.4386,-1.9495,-1.5174,2.509
7.115000,-0.4020,-1.9219,-1.7400,2.624
7.119000,-0.4019,-1.9129,-1.8632,2.700
7.125000,-0.3541,-1.8935,-1.9970,2.775
7.130000,-0.3114,-1.8947,-2.1297,2.868
7.135000,-0.2620,-1.8782,-2.2062,2.909
7.140000,-0.1769,-1.8031,-2.3010,2.929
7.146000,-0.1232,-1.8080,-2.4260,3.028
7.150000,-0.0505,-1.7683,-2.4473,3.020
7.155000,0.0779,-1.7457,-2.4660,3.022
7.160000,0.1881,-1.6733,-2.4461,2.970
7.168000,0.2761,-1.6846,-2.3855,2.933
7.169000,0.3400,-1.6623,-2.3417,2.892
7.220000,0.4302,-1.6639,-2.2190,2.807
7.222000,0.4610,-1.7084,-2.1491,2.784
7.223000,0.4994,-1.7145,-2.0672,2.732
7.223000,0.5000,-1.7158,-1.9495,2.645
7.224000,0.4993,-1.7483,-1.8246,2.576
7.224000,0.4802,-1.7977,-1.6996,2.520
7.225000,0.5006,-1.7995,-1.6534,2.495
7.225000,0.4962,-1.8135,-1.6716,2.516
7.225000,0.4118,-1.8518,-1.7252,2.564
7.226000,0.3859,-1.8758,-1.8624,2.671
7.226000,0.3206,-1.8663,-1.9419,2.712
7.229000,0.2445,-1.8135,-2.0143,2.721
7.234000,0.1859,-1.7582,-2.1203,2.761
7.238000,0.0611,-1.6955,-2.1593,2.746
7.244000,0.0086,-1.6492,-2.2200,2.766
7.250000,0.0113,-1.5549,-2.3096,2.784
7.254000,0.0401,-1.4221,-2.4087,2.798
7.260000,0.0375,-1.2652,-2.5487,2.846
7.263000,-0.0016,-1.1295,-2.6554,2.886
7.269000,-0.0485,-0.9548,-2.7411,2.903
7.317000,-0.0556,-0.8655,-2.7890,2.921
7.318000,-0.0491,-0.7704,-2.7254,2.833
7.318000,-0.0842,-0.6982,-2.6388,2.731
7.318000,-0.0439,-0.6343,-2.5605,2.638
7.319000,0.0337,-0.6506,-2.4736,2.558
7.319000,0.0597,-0.6680,-2.3758,2.469
7.319000,0.0342,-0.6123,-2.2385,2.321
7.320000,0.0218,-0.5456,-1.9925,2.066
7.320000,0.0585,-0.4844,-1.6382,1.709
7.320000,0.1280,-0.4120,-1.2712,1.342
7.323000,0.2284,-0.3523,-0.7291,0.841
7.328000,0.3923,-0.3533,-0.0311,0.529
7.333000,0.4838,-0.4107,0.5288,0.826
7.338000,0.5635,-0.4462,1.0231,1.250
7.343000,0.6056,-0.4411,1.3804,1.571
7.348000,0.5027,-0.4390,1.6467,1.777
7.353000,0.2144,-0.4473,1.8223,1.889
7.360000,-0.0492,-0.4351,1.7592,1.813
7.363000,-0.3101,-0.3328,1.5508,1.616
7.367000,-0.5142,-0.2312,1.4004,1.510
7.372000,-0.6406,-0.1302,1.2433,1.405
7.409000,-0.7618,0.0421,1.0627,1.308
7.410000,-0.8805,0.2284,0.9136,1.289
7.410000,-1.0715,0.3594,0.7671,1.366
7.410000,-1.2327,0.5118,0.7835,1.548
7.411000,-1.3457,0.7094,0.8671,1.751
7.411000,-1.3275,0.9493,0.8602,1.845
7.411000,-1.2499,1.1766,0.8681,1.924
7.412000,-1.1538,1.3436,0.8357,1.958
7.417000,-0.9700,1.5152,0.8276,1.980
7.422000,-0.8087,1.6532,0.9295,2.062
7.428000,-0.7021,1.9110,1.0623,2.296
7.434000,-0.5996,2.2025,1.1444,2.553
7.438000,-0.4550,2.4920,1.1255,2.772
7.444000,-0.2629,2.7272,1.0222,2.924
7.447000,0.0362,2.9086,0.8006,3.017
7.452000,0.3825,2.9510,0.4294,3.007
7.459000,0.6991,2.9201,0.0299,3.003
7.461000,1.0402,2.9056,-0.4131,3.114
7.467000,1.4245,2.9019,-0.5420,3.278
7.472000,1.8113,2.8619,-0.1257,3.389
7.508000,2.1752,2.7907,0.7202,3.611
7.509000,2.6410,2.6156,1.8931,4.171
7.510000,3.0594,2.3880,3.3436,5.123
7.510000,3.3789,2.0576,4.7382,6.173
7.511000,3.5146,1.7088,6.0426,7.196
7.512000,3.5110,1.3873,7.1985,8.128
7.512000,3.3170,0.9852,7.9735,8.692
7.513000,2.9406,0.5594,8.3035,8.827
7.517000,2.4283,0.1526,8.1224,8.479
7.522000,1.8590,-0.1781,7.5000,7.729
7.527000,1.1654,-0.4870,6.5107,6.632
7.531000,0.5453,-0.6652,5.3644,5.433
7.537000,-0.0339,-0.7428,4.2662,4.331
7.541000,-0.5280,-0.7857,3.1821,3.320
7.546000,-0.8887,-0.7549,2.2097,2.498
7.551000,-1.0961,-0.7363,1.3272,1.872
7.558000,-1.2499,-0.7194,0.5031,1.527
7.562000,-1.3273,-0.6992,-0.1624,1.509
7.566000,-1.3467,-0.6064,-0.6336,1.607
7.571000,-1.2758,-0.6418,-0.9464,1.713
7.578000,-1.1216,-0.6260,-1.0365,1.651
7.581000,-0.8892,-0.5860,-1.0234,1.477
7.586000,-0.5998,-0.5722,-0.9502,1.261
7.601000,-0.2816,-0.6162,-0.8046,1.052
7.602000,0.0137,-0.6490,-0.6225,0.899
7.603000,0.2087,-0.6735,-0.5351,0.885
7.668000,0.4048,-0.6662,-0.4849,0.918
7.669000,0.5836,-0.6365,-0.5796,1.040
7.669000,0.6647,-0.6106,-0.7426,1.169
7.669000,0.6967,-0.5643,-0.9047,1.274
7.670000,0.7187,-0.5812,-1.0375,1.390
7.670000,0.6641,-0.5607,-1.2416,1.516
7.670000,0.6332,-0.5958,-1.4499,1.691
7.670000,0.5236,-0.6410,-1.6938,1.885
7.671000,0.3905,-0.6936,-1.9589,2.114
7.675000,0.2334,-0.6864,-2.2430,2.357
7.676000,0.1638,-0.6743,-2.5532,2.646
7.677000,0.1024,-0.6353,-2.8109,2.884
7.677000,0.0393,-0.6176,-3.0112,3.074
7.678000,-0.0617,-0.5611,-3.1494,3.200
7.678000,-0.1410,-0.4493,-3.2493,3.283
7.681000,-0.2160,-0.4142,-3.2941,3.327
7.686000,-0.2199,-0.3884,-3.3460,3.376
7.694000,-0.2012,-0.3125,-3.3858,3.406
7.696000,-0.1792,-0.2633,-3.3654,3.380
7.700000,-0.1660,-0.2145,-3.2682,3.279
7.705000,-0.1018,-0.1709,-3.1611,3.167
7.732000,-0.0414,-0.1230,-3.0251,3.028
7.733000,-0.0489,-0.0566,-2.9629,2.964
7.733000,-0.1288,-0.0317,-2.8070,2.810
7.733000,-0.1975,-0.0217,-2.5815,2.589
7.734000,-0.2666,-0.0363,-2.3009,2.317
7.734000,-0.4027,-0.0802,-1.9006,1.944
7.740000,-0.4452,-0.0628,-1.4692,1.536
7.744000,-0.4936,-0.1759,-1.1214,1.238
7.749000,-0.6263,-0.3186,-0.9217,1.159
7.755000,-0.6427,-0.3979,-0.6569,1.001
7.760000,-0.6788,-0.4692,-0.4562,0.943
7.765000,-0.7152,-0.4631,-0.3626,0.926
7.770000,-0.7981,-0.4202,-0.2850,0.946
7.775000,-0.8465,-0.2790,-0.1178,0.899
7.779000,-0.9390,-0.2741,-0.2127,1.001
7.786000,-1.0591,-0.2660,-0.4116,1.167
7.794000,-1.1743,-0.1974,-0.4897,1.288
7.795000,-1.2135,-0.1065,-0.5953,1.356
7.799000,-1.2009,0.0572,-0.6784,1.380
7.804000,-1.1392,0.2460,-0.7271,1.374
7.846000,-1.0791,0.4047,-0.6792,1.338
7.847000,-0.9898,0.5646,-0.6735,1.324
7.847000,-0.9692,0.7163,-0.5570,1.328
7.847000,-0.9071,0.8738,-0.4637,1.342
7.847000,-0.8275,1.0038,-0.3601,1.350
7.848000,-0.7375,1.1613,-0.2605,1.400
7.848000,-0.5795,1.3133,-0.2608,1.459
7.848000,-0.3803,1.4838,-0.2128,1.546
7.850000,-0.2038,1.5969,0.0074,1.610
7.855000,-0.0494,1.6458,0.1840,1.657
7.860000,0.0350,1.7093,0.4393,1.765
7.865000,0.2318,1.7997,0.8254,1.993
7.870000,0.4097,1.7994,1.1990,2.201
7.875000,0.5904,1.7582,1.6345,2.472
7.879000,0.7672,1.6737,2.0218,2.735
7.883000,0.9314,1.5433,2.3301,2.946
7.889000,1.0902,1.4292,2.6000,3.161
7.894000,1.1628,1.3262,2.8917,3.387
7.899000,1.1831,1.2343,3.1095,3.549
7.904000,1.1034,1.1583,3.2414,3.615
7.918000,0.9196,1.0999,3.2857,3.585
7.920000,0.7706,1.0425,3.2280,3.479
7.921000,0.5417,1.0154,3.1302,3.335
7.924000,0.2976,0.9224,3.0262,3.178
7.984000,0.1238,0.9530,2.8584,3.016
7.985000,-0.0182,1.0491,2.6440,2.845
7.985000,-0.1698,1.1536,2.3831,2.653
7.986000,-0.3199,1.3052,1.9366,2.357
7.986000,-0.4276,1.4509,1.4366,2.086
7.986000,-0.5611,1.5824,0.9948,1.952
7.987000,-0.7233,1.6808,0.5582,1.913
7.987000,-0.8363,1.7780,0.1624,1.972
7.987000,-0.9200,1.8936,-0.0785,2.107
7.987000,-1.0061,2.0081,-0.1812,2.253
7.988000,-1.0735,2.0859,-0.1101,2.348
7.988000,-1.0719,2.1767,-0.0372,2.427
7.989000,-1.1045,2.2253,0.0065,2.484
7.993000,-1.1068,2.2006,-0.0148,2.463
7.998000,-1.0310,2.1311,-0.0314,2.368
8.003000,-0.9205,2.0723,-0.1347,2.272
8.010000,-0.8538,2.0529,-0.3461,2.250
8.012000,-0.8426,2.0328,-0.5775,2.275
8.017000,-0.8200,2.0391,-0.7555,2.324
8.022000,-0.8697,2.0314,-0.9020,2.387
8.027000,-0.9625,2.0652,-0.9433,2.466
8.032000,-1.0273,2.1241,-0.8895,2.522
8.037000,-1.0594,2.1793,-0.8483,2.567
8.045000,-1.1399,2.2190,-0.6309,2.573
8.048000,-1.1018,2.3032,-0.2973,2.570
8.052000,-0.9304,2.2400,0.2027,2.434
8.086000,-0.7186,2.2038,0.7740,2.444
8.087000,-0.3708,2.1986,1.3259,2.594
8.087000,-0.0488,2.1187,1.9619,2.888
8.087000,0.2311,1.9755,2.6274,3.295
8.088000,0.4457,1.8090,3.2488,3.745
8.088000,0.6865,1.5753,3.8031,4.173
8.088000,0.8970,1.3837,4.3459,4.648
8.096000,1.1047,1.1501,4.7315,4.993
8.098000,1.2382,0.8812,4.9270,5.156
8.102000,1.3558,0.5412,4.9828,5.192
8.108000,1.4132,0.1874,4.7986,5.006
8.112000,1.3457,-0.1729,4.4582,4.660
8.117000,1.1946,-0.5344,3.9902,4.199
8.122000,0.9813,-0.9134,3.4229,3.676
8.131000,0.7703,-1.2257,2.9090,3.249
8.131000,0.5703,-1.5522,2.2953,2.829
8.137000,0.3544,-1.8019,1.7394,2.529
8.178000,0.2101,-1.9937,1.2150,2.344
8.178000,0.1458,-2.1373,0.7867,2.282
8.179000,0.1370,-2.2616,0.4068,2.302
8.179000,0.1852,-2.3623,0.1401,2.374
8.179000,0.2108,-2.4469,-0.1158,2.459
8.180000,0.2752,-2.5542,-0.4228,2.604
8.180000,0.4091,-2.5864,-0.7087,2.713
8.180000,0.5734,-2.6538,-0.9494,2.876
8.181000,0.6866,-2.7563,-1.1258,3.056
8.186000,0.7608,-2.8559,-1.3120,3.234
8.191000,0.8205,-2.9620,-1.3668,3.364
8.197000,0.9379,-3.0057,-1.4075,3.449
8.202000,1.0489,-3.0300,-1.5942,3.581
8.207000,1.0128,-3.0777,-1.7955,3.704
8.212000,0.9448,-3.1487,-2.0042,3.850
8.216000,0.8761,-3.2186,-2.1467,3.967
8.221000,0.8834,-3.2301,-2.3783,4.107
8.227000,0.8786,-3.2355,-2.6347,4.264
8.230000,0.8502,-3.2077,-2.9622,4.448
8.235000,0.8528,-3.2016,-3.2553,4.645
8.284000,0.8052,-3.1711,-3.4910,4.784
8.285000,0.8605,-2.9775,-3.7051,4.831
8.286000,0.8970,-2.8431,-3.8383,4.860
8.287000,0.8529,-2.7575,-4.0229,4.951
8.287000,0.7944,-2.7331,-4.2344,5.102
8.288000,0.7482,-2.7024,-4.2319,5.077
8.288000,0.7381,-2.6011,-4.1515,4.954
8.289000,0.7953,-2.5249,-4.1513,4.924
8.289000,0.8003,-2.4667,-4.0830,4.837
8.290000,0.8486,-2.4077,-4.0681,4.803
8.293000,0.8995,-2.3815,-4.0252,4.763
8.295000,0.9146,-2.3020,-4.0046,4.709
8.301000,0.8750,-2.2816,-3.9990,4.687
8.306000,0.8338,-2.2032,-3.9368,4.588
8.313000,0.8172,-2.1361,-3.8108,4.444
8.316000,0.8208,-2.0923,-3.7288,4.354
8.320000,0.7156,-2.0050,-3.6739,4.246
8.331000,0.6192,-1.9527,-3.6632,4.197
8.333000,0.5172,-1.8733,-3.6154,4.105
8.335000,0.4147,-1.8120,-3.5331,3.992
8.340000,0.2568,-1.7543,-3.4693,3.896
8.379000,0.1036,-1.6377,-3.4768,3.845
8.380000,0.0456,-1.5053,-3.5172,3.826
8.381000,-0.0203,-1.3402,-3.4139,3.668
8.381000,-0.1345,-1.1590,-3.3249,3.524
8.382000,-0.2786,-0.9691,-3.2619,3.414
8.382000,-0.4648,-0.7968,-3.1100,3.244
8.382000,-0.6965,-0.7186,-2.8572,3.027
8.383000,-0.9314,-0.6366,-2.4459,2.694
8.385000,-1.1291,-0.5537,-2.0216,2.381
8.390000,-1.2234,-0.5108,-1.5672,2.053
8.396000,-1.2673,-0.4795,-1.1086,1.751
8.400000,-1.2060,-0.5103,-0.6240,1.451
8.406000,-1.1330,-0.5390,-0.1632,1.265
8.411000,-0.9401,-0.5347,0.3170,1.127
8.415000,-0.6986,-0.4687,0.6896,1.088
8.420000,-0.5228,-0.4370,1.0053,1.214
8.425000,-0.4292,-0.3464,1.3335,1.443
8.430000,-0.3694,-0.2591,1.7196,1.778
8.435000,-0.3472,-0.0580,2.1824,2.211
8.440000,-0.3570,0.0772,2.6981,2.723
8.446000,-0.4694,0.1057,3.2141,3.250
8.450000,-0.5923,0.0922,3.7135,3.762
8.455000,-0.7030,0.0606,3.9452,4.008
8.496000,-0.8610,0.0442,3.8403,3.936
8.497000,-1.1028,0.1437,3.4420,3.617
8.497000,-1.3074,0.3809,2.9538,3.253
8.498000,-1.5828,0.6342,2.3179,2.878
8.498000,-1.8683,0.9784,1.6059,2.651
8.498000,-1.9975,1.3949,0.9415,2.612
8.498000,-2.0367,1.8722,0.2575,2.778
8.499000,-2.0011,2.2889,-0.3485,3.060
8.499000,-1.8889,2.7103,-0.6884,3.375
8.506000,-1.7321,3.1131,-0.9306,3.682
8.510000,-1.5400,3.4046,-0.9655,3.859
8.514000,-1.2166,3.6472,-0.8367,3.935
8.519000,-0.7621,3.8529,-0.5421,3.965
8.525000,-0.1878,3.9241,-0.2541,3.937
8.529000,0.3914,3.8893,0.0776,3.910
8.534000,0.8730,3.7586,0.5316,3.895
8.540000,1.2211,3.6083,1.0795,3.959
8.545000,1.5556,3.4219,1.8288,4.180
8.552000,1.9174,3.1865,2.8112,4.662
8.556000,2.1637,2.8626,3.8676,5.276
8.561000,2.3953,2.5623,4.9456,6.063
8.563000,2.5127,2.2574,6.0157,6.899
8.568000,2.5385,1.8985,7.0864,7.763
8.573000,2.4287,1.4774,7.9577,8.450
8.618000,2.1225,1.0069,8.4803,8.800
8.619000,1.7235,0.4535,8.5566,8.740
8.620000,1.2078,-0.0228,8.2686,8.356
8.620000,0.6781,-0.4028,7.6715,7.712
8.621000,0.1581,-0.6494,6.7263,6.759
8.622000,-0.2627,-0.7524,5.4831,5.541
8.623000,-0.5512,-0.7124,4.3377,4.430
8.624000,-0.7503,-0.5337,3.3158,3.441
8.624000,-0.8269,-0.3372,2.3828,2.545
8.625000,-0.7627,-0.1747,1.6792,1.853
8.629000,-0.6261,-0.0439,1.1928,1.348
8.633000,-0.5014,-0.0573,0.8422,0.982
8.639000,-0.3647,-0.1739,0.5985,0.722
8.644000,-0.1783,-0.3320,0.4166,0.562
8.648000,0.0003,-0.5080,0.4066,0.651
8.654000,0.1472,-0.6956,0.4734,0.854
8.665000,0.2126,-0.8471,0.5070,1.010
8.666000,0.3708,-0.9950,0.5682,1.204
8.671000,0.4668,-1.1084,0.5734,1.332
8.672000,0.5440,-1.2259,0.5395,1.446
8.716000,0.6052,-1.3028,0.4720,1.512
8.718000,0.6532,-1.3562,0.3733,1.551
8.718000,0.6143,-1.4075,0.2171,1.551
8.718000,0.6443,-1.4737,-0.0227,1.609
8.719000,0.6475,-1.4927,-0.3412,1.662
8.719000,0.6502,-1.5193,-0.6285,1.768
8.720000,0.6644,-1.4601,-1.0091,1.895
8.720000,0.6135,-1.4538,-1.4423,2.138
8.721000,0.5360,-1.4326,-1.9478,2.477
8.729000,0.4960,-1.4392,-2.4443,2.880
8.730000,0.5265,-1.3893,-2.9012,3.260
8.733000,0.4409,-1.3182,-3.2952,3.576
8.737000,0.4256,-1.2497,-3.5906,3.826
8.744000,0.4018,-1.2144,-3.8021,4.012
8.750000,0.3858,-1.1716,-4.0112,4.197
8.751000,0.3560,-1.1022,-4.0218,4.185
8.757000,0.3767,-1.0660,-3.9559,4.114
8.763000,0.4002,-1.0105,-3.8856,4.035
8.767000,0.4315,-0.9479,-3.7794,3.920
8.772000,0.4489,-0.9238,-3.6109,3.754
8.777000,0.4816,-0.8735,-3.4425,3.584
8.781000,0.4318,-0.8619,-3.2381,3.379
8.786000,0.3693,-0.8407,-3.0435,3.179
8.818000,0.2829,-0.8555,-2.8443,2.984
8.819000,0.1819,-0.8848,-2.6212,2.772
8.819000,0.0985,-0.9334,-2.4604,2.633
8.820000,0.0278,-0.9703,-2.3378,2.531
8.820000,-0.0421,-0.9523,-2.1938,2.392
8.820000,-0.1065,-0.9033,-2.0665,2.258
8.822000,-0.1387,-0.8451,-1.8987,2.083
8.828000,-0.1120,-0.8157,-1.7717,1.954
8.833000,-0.1220,-0.7815,-1.6904,1.866
8.836000,-0.1445,-0.7762,-1.6283,1.810
8.842000,-0.1149,-0.7924,-1.5569,1.751
8.846000,-0.0718,-0.7464,-1.4952,1.673
8.851000,-0.0488,-0.6621,-1.4624,1.606
8.857000,-0.0532,-0.5514,-1.3701,1.478
8.863000,-0.1045,-0.4791,-1.1895,1.287
8.866000,-0.1902,-0.4166,-0.9039,1.013
8.871000,-0.2434,-0.4119,-0.6950,0.844
8.876000,-0.3217,-0.4221,-0.4717,0.710
8.881000,-0.3555,-0.3853,-0.2983,0.603
8.886000,-0.3855,-0.3138,-0.2080,0.539
8.895000,-0.3879,-0.2241,-0.1938,0.488
8.896000,-0.3603,-0.1214,-0.2672,0.465
8.900000,-0.3944,0.0282,-0.4189,0.576
8.943000,-0.4810,0.2367,-0.5770,0.788
8.944000,-0.6185,0.4276,-0.6555,0.997
8.944000,-0.7621,0.5775,-0.6810,1.174
8.945000,-0.8162,0.6648,-0.5198,1.174
8.945000,-0.8219,0.7470,-0.2174,1.132
8.945000,-0.7552,0.7904,0.0492,1.094
8.945000,-0.6450,0.7758,0.3017,1.053
8.945000,-0.5079,0.8249,0.5403,1.109
8.946000,-0.3271,0.9067,0.8200,1.265
8.951000,-0.1688,0.8798,1.0522,1.382
8.956000,-0.0660,0.9335,1.1820,1.508
8.960000,0.0648,0.9598,1.3197,1.633
8.966000,0.2097,0.9784,1.4075,1.727
8.971000,0.3280,1.0415,1.5342,1.883
8.977000,0.3793,1.0946,1.8045,2.144
8.981000,0.3958,1.1759,2.1848,2.513
8.985000,0.3708,1.2539,2.6252,2.933
9.022000,0.3840,1.2875,3.0683,3.350
9.023000,0.3408,1.3169,3.3806,3.644
9.023000,0.2392,1.3038,3.4979,3.741
9.024000,0.0549,1.3078,3.4849,3.723
9.024000,-0.1713,1.3554,3.1317,3.417
9.024000,-0.4833,1.4153,2.6228,3.019
9.025000,-0.7870,1.5339,2.0581,2.685
9.025000,-1.0526,1.6903,1.5856,2.545
9.031000,-1.2572,1.7656,1.2499,2.502
9.035000,-1.3589,1.8199,0.9287,2.454
9.040000,-1.3441,1.8752,0.8036,2.443
9.045000,-1.2825,1.9149,0.9073,2.477
9.050000,-1.1285,1.9795,1.1754,2.564
9.055000,-0.9103,2.0712,1.3924,2.657
9.060000,-0.6995,2.2038,1.6163,2.821
9.065000,-0.5192,2.3241,1.8235,2.999
9.069000,-0.4476,2.3982,1.8734,3.076
9.074000,-0.4505,2.5123,1.7350,3.086
9.080000,-0.5327,2.5324,1.3968,2.941
9.084000,-0.6490,2.5021,0.9133,2.742
9.089000,-0.7879,2.4555,0.3779,2.606
9.098000,-0.8377,2.4292,-0.2175,2.579
9.101000,-0.8134,2.4675,-0.8450,2.732
9.104000,-0.6894,2.5950,-1.2833,2.976
9.142000,-0.5640,2.6951,-1.6071,3.188
9.144000,-0.4610,2.7948,-1.7672,3.339
9.144000,-0.2538,2.9064,-1.7305,3.392
9.145000,0.0914,2.9796,-1.4831,3.330
9.145000,0.4246,2.9307,-1.0393,3.138
9.145000,0.7585,2.8286,-0.4397,2.961
9.146000,1.0538,2.6346,0.1414,2.841
9.146000,1.3119,2.3696,0.6689,2.790
9.149000,1.5743,2.1290,1.1335,2.880
9.154000,1.7087,1.8883,1.5787,2.996
9.160000,1.8405,1.6307,1.9830,3.159
9.164000,1.9184,1.3103,2.3873,3.331
9.169000,1.8573,0.9840,2.6439,3.378
9.176000,1.6653,0.5491,2.7147,3.232
9.179000,1.3642,0.0673,2.6073,2.943
9.185000,1.0209,-0.4514,2.4081,2.654
9.190000,0.6462,-0.8904,2.0388,2.317
9.194000,0.3491,-1.2258,1.6337,2.072
9.200000,0.0212,-1.4768,1.2263,1.920
9.205000,-0.2699,-1.7562,0.7742,1.938
9.209000,-0.4415,-1.9753,0.2941,2.045
9.214000,-0.5264,-2.1011,-0.1443,2.171
9.219000,-0.5690,-2.2295,-0.5742,2.372
9.265000,-0.6104,-2.3173,-0.8787,2.552
9.267000,-0.6684,-2.4130,-1.1505,2.756
9.268000,-0.6958,-2.5236,-1.3420,2.942
9.268000,-0.7437,-2.6427,-1.5078,3.132
9.269000,-0.7887,-2.7346,-1.6428,3.286
9.269000,-0.8194,-2.8211,-1.7352,3.412
9.269000,-0.7955,-2.8761,-1.8421,3.507
9.270000,-0.7602,-2.9022,-1.9133,3.558
9.270000,-0.7303,-2.9379,-1.9535,3.603
9.271000,-0.6912,-2.9709,-1.9773,3.635
9.276000,-0.6376,-2.9991,-1.9728,3.646
9.279000,-0.5930,-2.9983,-2.0021,3.654
9.283000,-0.5167,-3.0214,-2.0173,3.670
9.289000,-0.4055,-2.9940,-2.0665,3.660
9.294000,-0.2640,-2.9375,-2.0708,3.604
9.299000,-0.0993,-2.8615,-2.0733,3.535
9.304000,0.0012,-2.8088,-2.1389,3.530
9.309000,0.0760,-2.7290,-2.2077,3.511
9.315000,0.1543,-2.6144,-2.3471,3.517
9.317000,0.2249,-2.5248,-2.4424,3.520
9.322000,0.3545,-2.4240,-2.5704,3.551
9.361000,0.4790,-2.2995,-2.6716,3.557
9.362000,0.5672,-2.1752,-2.7223,3.530
9.363000,0.6649,-2.0437,-2.6821,3.437
9.363000,0.7083,-1.9265,-2.7280,3.414
9.364000,0.7401,-1.8667,-2.7356,3.394
9.364000,0.7393,-1.7901,-2.7576,3.370
9.365000,0.7176,-1.7374,-2.8251,3.393
9.365000,0.6337,-1.7134,-2.8924,3.421
9.367000,0.5813,-1.6748,-2.9477,3.440
9.373000,0.5602,-1.5858,-3.0294,3.465
9.378000,0.5321,-1.4939,-3.1042,3.486
9.383000,0.5588,-1.4447,-3.1170,3.481
9.388000,0.5353,-1.3926,-3.1420,3.478
9.392000,0.5264,-1.2728,-3.1223,3.413
9.397000,0.4748,-1.2264,-3.0099,3.285
9.402000,0.4382,-1.1887,-2.8531,3.122
9.410000,0.4101,-1.1167,-2.7259,2.974
9.412000,0.3851,-1.0893,-2.5137,2.766
9.417000,0.3763,-0.9967,-2.2714,2.509
9.422000,0.3098,-0.9347,-2.0588,2.282
9.461000,0.2146,-0.8579,-1.9834,2.172
9.462000,0.0910,-0.7523,-1.9182,2.063
9.463000,-0.0353,-0.6702,-1.9041,2.019
9.463000,-0.1713,-0.5778,-1.9604,2.051
9.463000,-0.3317,-0.4580,-1.9270,2.008
9.464000,-0.5313,-0.3419,-1.8017,1.909
9.464000,-0.7773,-0.2555,-1.5681,1.769
9.464000,-0.9172,-0.2347,-1.2739,1.587
9.467000,-1.0663,-0.2225,-0.9834,1.467
9.471000,-1.1846,-0.1998,-0.6605,1.371
9.476000,-1.2323,-0.1670,-0.2378,1.266
9.481000,-1.2362,-0.1534,0.2061,1.263
9.488000,-1.1110,-0.0398,0.6217,1.274
9.492000,-0.9208,0.0344,1.2100,1.521
9.497000,-0.7353,0.0783,1.7801,1.928
9.502000,-0.5511,0.0817,2.3182,2.384
9.506000,-0.3461,0.0708,2.7717,2.794
9.511000,-0.2367,0.0450,3.1266,3.136
9.516000,-0.2432,0.0355,3.3973,3.406
9.521000,-0.2667,0.0616,3.5717,3.582
9.527000,-0.3491,0.1115,3.6183,3.637
9.531000,-0.4923,0.1925,3.5514,3.591
9.536000,-0.6601,0.2981,3.3611,3.438
9.583000,-0.8931,0.4814,3.0206,3.186
9.585000,-1.0673,0.7164,2.5778,2.881
9.585000,-1.2766,0.9726,2.1182,2.658
9.586000,-1.4930,1.1866,1.7298,2.575
9.586000,-1.6184,1.3583,1.2521,2.456
9.587000,-1.6829,1.5673,0.6131,2.380
9.588000,-1.6137,1.7978,-0.0105,2.416
9.588000,-1.3930,2.0790,-0.4303,2.539
9.588000,-1.0886,2.4953,-0.6231,2.793
9.589000,-0.7388,2.9365,-0.4482,3.061
9.595000,-0.4507,3.3544,-0.0899,3.386
9.597000,-0.1521,3.7319,0.4709,3.765
9.601000,0.2721,4.0059,1.1153,4.167
9.605000,0.7531,4.0487,1.7101,4.459
9.610000,1.1259,3.9439,2.1243,4.619
9.616000,1.4674,3.7175,2.3154,4.619
9.621000,1.7817,3.4585,2.3886,4.565
9.628000,2.0184,3.2031,2.3846,4.474
9.632000,2.1582,3.0404,2.4824,4.479
9.636000,2.2897,2.8899,2.8220,4.643
9.680000,2.4066,2.7514,3.4534,5.029
9.682000,2.5552,2.5291,4.1539,5.494
9.682000,2.7033,2.2008,4.8786,5.996
9.682000,2.7397,1.7655,5.4536,6.353
9.683000,2.6580,1.3137,5.9774,6.672
9.683000,2.4257,0.9020,6.3216,6.831
9.684000,2.1014,0.4772,6.4126,6.765
9.684000,1.6019,0.0799,6.2890,6.490
9.685000,1.1209,-0.2515,5.8504,5.962
9.685000,0.6297,-0.5212,5.1807,5.245
9.692000,0.2492,-0.6956,4.4402,4.501
9.696000,-0.0741,-0.7786,3.6117,3.695
9.701000,-0.3158,-0.7894,2.7436,2.872
9.706000,-0.4900,-0.6563,1.9483,2.113
9.710000,-0.6172,-0.4556,1.2447,1.462
9.716000,-0.6724,-0.2806,0.6520,0.978
9.721000,-0.6992,-0.2245,0.2130,0.765
9.724000,-0.6464,-0.2060,-0.1249,0.690
9.729000,-0.4979,-0.1823,-0.3113,0.615
9.735000,-0.3033,-0.2468,-0.4302,0.581
9.740000,-0.1257,-0.2589,-0.5553,0.625
9.745000,-0.0217,-0.3285,-0.5984,0.683
9.749000,0.0780,-0.4105,-0.5044,0.655
9.755000,0.2052,-0.5456,-0.3474,0.679
9.797000,0.2960,-0.6413,-0.2037,0.735
9.798000,0.3517,-0.7502,-0.0661,0.831
9.800000,0.3967,-0.8392,-0.0205,0.928
9.801000,0.4030,-0.9108,-0.0477,0.997
9.801000,0.3830,-0.9437,-0.1784,1.034
9.801000,0.3777,-0.9621,-0.3720,1.098
9.801000,0.3253,-0.9822,-0.6812,1.239
9.802000,0.3358,-0.9392,-1.0798,1.470
9.802000,0.3757,-0.9569,-1.4390,1.769
9.806000,0.3759,-0.9249,-1.7568,2.021
9.810000,0.4009,-0.8882,-2.1196,2.333
9.815000,0.4082,-0.8847,-2.4392,2.627
9.820000,0.4476,-0.8593,-2.7492,2.915
9.825000,0.4137,-0.8474,-2.9565,3.103
9.829000,0.3420,-0.8637,-3.0850,3.222
9.834000,0.3160,-0.8364,-3.2520,3.373
9.838000,0.3422,-0.8467,-3.3953,3.516
9.844000,0.3050,-0.8565,-3.4884,3.605
9.849000,0.2045,-0.8706,-3.4311,3.546
9.853000,0.1263,-0.9109,-3.2805,3.407
9.859000,0.0538,-0.9415,-3.1181,3.258
9.864000,-0.0108,-1.0300,-2.8957,3.073
9.868000,-0.1085,-1.1598,-2.6562,2.900
9.922000,-0.2271,-1.3074,-2.4304,2.769
9.924000,-0.2641,-1.4061,-2.3114,2.718
9.925000,-0.2814,-1.4273,-2.1865,2.626
9.925000,-0.2501,-1.4212,-1.9915,2.459
9.925000,-0.2080,-1.3827,-1.7600,2.248
9.926000,-0.0898,-1.3072,-1.4562,1.959
9.926000,0.0025,-1.3550,-1.2452,1.840
9.929000,0.0195,-1.4161,-1.0981,1.792
9.929000,0.0545,-1.4880,-1.0243,1.807
9.929000,0.1078,-1.4728,-0.9927,1.779
9.930000,0.1698,-1.5046,-1.0964,1.869
9.930000,0.0759,-1.5425,-1.3257,2.035
9.932000,-0.0483,-1.5626,-1.5203,2.181
9.938000,-0.1101,-1.4356,-1.6661,2.202
9.944000,-0.1171,-1.2834,-1.7678,2.188
9.948000,-0.0911,-1.1728,-1.7994,2.150
9.954000,-0.1041,-1.0632,-1.7563,2.056
9.961000,-0.1800,-0.9837,-1.5400,1.836
9.963000,-0.2421,-0.8770,-1.4640,1.724
9.968000,-0.2813,-0.8031,-1.5256,1.747
9.974000,-0.3675,-0.7453,-1.6264,1.826
10.022000,-0.4244,-0.6266,-1.7285,1.887
10.024000,-0.5026,-0.4687,-1.9489,2.066
10.024000,-0.5210,-0.3066,-2.0585,2.145
10.024000,-0.5730,-0.0777,-2.1154,2.193
10.025000,-0.5872,0.1156,-2.0480,2.134
10.025000,-0.5797,0.2664,-1.7109,1.826
10.026000,-0.5459,0.3457,-1.2071,1.369
10.026000,-0.4565,0.4088,-0.6228,0.874
10.026000,-0.3732,0.3834,-0.0631,0.539
10.026000,-0.1952,0.4128,0.4437,0.637
10.028000,0.0068,0.4301,0.9333,1.028
10.032000,0.1572,0.4394,1.2938,1.375
10.036000,0.3069,0.4815,1.5063,1.611
10.041000,0.3799,0.5613,1.5682,1.708
10.047000,0.4216,0.7148,1.6208,1.821
10.052000,0.4032,0.9612,1.7022,1.996
10.060000,0.3443,1.2072,1.7407,2.146
10.064000,0.1924,1.4452,1.7363,2.267
10.067000,-0.0409,1.6516,1.6438,2.331
10.073000,-0.2486,1.8505,1.4821,2.384
10.078000,-0.5130,1.9654,1.3160,2.420
10.082000,-0.7321,2.0232,1.1570,2.443
10.087000,-0.9135,2.0457,1.0075,2.456
10.108000,-1.0579,2.0526,0.9076,2.481
10.112000,-1.1395,2.0966,0.9360,2.563
10.114000,-1.2494,2.2020,1.1904,2.798
10.114000,-1.3276,2.3017,1.5388,3.071
10.115000,-1.2787,2.4547,1.8864,3.349
10.116000,-1.1911,2.5698,2.2044,3.589
10.121000,-1.0406,2.6850,2.4240,3.764
10.161000,-0.8432,2.6736,2.5046,3.759
10.162000,-0.6800,2.6672,2.3816,3.640
10.162000,-0.5270,2.7020,2.1676,3.504
10.163000,-0.4193,2.6902,1.8596,3.297
10.163000,-0.3690,2.7544,1.5623,3.188
10.163000,-0.3756,2.8209,1.3063,3.131
10.164000,-0.2765,2.8736,1.1029,3.090
10.164000,-0.2636,2.9342,1.0380,3.124
10.167000,-0.2936,2.9290,1.0345,3.120
10.172000,-0.2496,2.9061,1.1831,3.148
10.176000,-0.0888,2.8865,1.4217,3.219
10.182000,0.0699,2.7767,1.7267,3.271
10.186000,0.2075,2.6150,1.9522,3.270
10.193000,0.3460,2.4535,2.2111,3.321
10.198000,0.4783,2.3088,2.4677,3.413
10.201000,0.6625,2.1806,2.6839,3.521
10.205000,0.8342,2.0421,2.8387,3.595
10.255000,0.8914,1.8430,2.9584,3.598
10.257000,0.9468,1.6089,3.1396,3.653
10.258000,0.9553,1.3306,3.1952,3.591
10.258000,0.9031,1.0818,3.1473,3.448
10.259000,0.7810,0.8048,3.0012,3.204
10.259000,0.6724,0.5166,2.7543,2.882
10.260000,0.5005,0.2002,2.4884,2.546
10.260000,0.2269,-0.1202,2.1699,2.185
10.260000,-0.0792,-0.4134,1.7558,1.806
10.260000,-0.3470,-0.6915,1.3659,1.570
10.261000,-0.5964,-0.9568,1.0528,1.543
10.266000,-0.8016,-1.2523,0.8547,1.715
10.271000,-0.9755,-1.4566,0.6117,1.857
10.276000,-1.1237,-1.6324,0.3649,2.015
10.281000,-1.1898,-1.7828,0.1795,2.151
10.285000,-1.2271,-1.8935,-0.0667,2.257
10.291000,-1.2557,-1.9917,-0.2652,2.369
10.296000,-1.1878,-2.1039,-0.5069,2.469
10.301000,-1.1078,-2.1300,-0.7149,2.505
10.306000,-0.9734,-2.1589,-0.8677,2.522
10.312000,-0.7680,-2.1932,-0.9700,2.518
10.317000,-0.5562,-2.2353,-0.9619,2.496
10.320000,-0.2990,-2.2641,-0.9583,2.477
10.351000,-0.1085,-2.2748,-1.0283,2.499
10.354000,0.0495,-2.3202,-1.1743,2.601
10.354000,0.2352,-2.2899,-1.2625,2.625
10.355000,0.3393,-2.2220,-1.3721,2.633
10.355000,0.4244,-2.1593,-1.4960,2.661
10.357000,0.4843,-2.0726,-1.6825,2.713
10.357000,0.4550,-2.0763,-1.8457,2.815
10.362000,0.4181,-2.0790,-2.1318,3.007
10.365000,0.4074,-2.0754,-2.4478,3.235
10.370000,0.3774,-2.0887,-2.7153,3.446
10.376000,0.3595,-2.1040,-3.0209,3.699
10.380000,0.3372,-2.1133,-3.2576,3.898
10.386000,0.3318,-2.0494,-3.4017,3.985
10.392000,0.3825,-1.9932,-3.4252,3.981
10.395000,0.4534,-1.8802,-3.3257,3.847
10.399000,0.5476,-1.8422,-3.0771,3.628
10.404000,0.6003,-1.8294,-2.9086,3.488
10.411000,0.6694,-1.8425,-2.8054,3.422
10.415000,0.7184,-1.7788,-2.7983,3.393
10.419000,0.7091,-1.7556,-2.8847,3.451
10.431000,0.6671,-1.7036,-2.9544,3.475
10.433000,0.5469,-1.6801,-2.9860,3.470
10.439000,0.4797,-1.6708,-2.8671,3.353
10.440000,0.3989,-1.6231,-2.7030,3.178
10.492000,0.3045,-1.6472,-2.4937,3.004
10.493000,0.2110,-1.6836,-2.3132,2.869
10.494000,0.0421,-1.6967,-2.2352,2.807
10.494000,-0.1091,-1.7226,-2.3122,2.885
10.495000,-0.2981,-1.7347,-2.4866,3.047
10.495000,-0.4919,-1.6397,-2.6365,3.143
10.496000,-0.6213,-1.5495,-2.8339,3.289
10.496000,-0.7278,-1.4494,-2.9524,3.369
10.496000,-0.7753,-1.2844,-2.9275,3.290
10.497000,-0.8119,-1.1431,-2.8670,3.191
10.498000,-0.7873,-1.0345,-2.7712,3.061
10.500000,-0.8045,-0.9277,-2.5924,2.868
10.504000,-0.8777,-0.8202,-2.2970,2.592
10.508000,-0.9016,-0.6980,-1.9018,2.217
10.514000,-0.8928,-0.6141,-1.5717,1.909
10.520000,-0.8293,-0.4916,-1.3140,1.630
10.524000,-0.7210,-0.3763,-1.0948,1.364
10.530000,-0.5989,-0.2681,-0.8473,1.072
10.533000,-0.4629,-0.1072,-0.5332,0.714
10.539000,-0.2987,0.0418,-0.2364,0.383
10.593000,-0.1900,0.1982,0.1507,0.313
10.595000,-0.0525,0.2614,0.5611,0.621
10.595000,0.0473,0.2961,1.0400,1.082
10.595000,0.1721,0.2949,1.5779,1.614
10.596000,0.2628,0.2290,2.0625,2.092
10.596000,0.3226,0.1125,2.6157,2.638
10.596000,0.3188,0.0266,3.1515,3.168
10.597000,0.2997,-0.0100,3.4883,3.501
10.597000,0.1700,-0.0551,3.7033,3.708
10.598000,-0.0008,-0.0850,3.8540,3.855
10.598000,-0.1893,-0.0781,3.7949,3.800
10.599000,-0.4558,-0.0082,3.6027,3.631
10.603000,-0.7622,0.0677,3.2438,3.333
10.610000,-0.9783,0.2696,2.8355,3.012
10.613000,-1.0642,0.4857,2.4873,2.749
10.619000,-1.1208,0.7190,2.0887,2.477
10.623000,-1.1371,0.9147,1.8070,2.323
10.629000,-1.0322,1.1881,1.6921,2.311
10.634000,-0.8445,1.3834,1.5884,2.269
10.637000,-0.6582,1.5511,1.6394,2.351
10.643000,-0.4803,1.8102,1.7209,2.543
10.647000,-0.3232,2.0242,1.7518,2.696
10.652000,-0.1677,2.2720,1.8350,2.925
10.705000,0.0272,2.4889,1.8651,3.110
10.706000,0.2048,2.5916,1.9090,3.225
10.706000,0.4253,2.5709,1.9757,3.270
10.707000,0.6533,2.4775,1.9431,3.216
10.707000,0.9490,2.4195,1.8635,3.198
10.707000,1.2542,2.3420,1.7247,3.167
10.708000,1.5356,2.3009,1.5982,3.195
10.708000,1.7761,2.2127,1.6031,3.259
10.708000,1.9637,2.1592,1.7725,3.415
10.709000,2.1439,2.0495,2.1014,3.635
10.709000,2.3575,1.9265,2.5635,3.980
10.713000,2.5247,1.6540,3.0388,4.283
10.718000,2.5739,1.3798,3.6332,4.661
10.722000,2.5817,1.1701,4.3184,5.166
10.727000,2.5495,0.9160,4.9590,5.651
10.733000,2.3965,0.6331,5.3765,5.920
10.738000,2.1693,0.3691,5.5306,5.952
10.743000,1.8008,0.0943,5.4561,5.746
10.747000,1.4082,-0.2132,5.1844,5.376
10.753000,0.9747,-0.4717,4.6296,4.755
10.757000,0.5564,-0.6669,3.9118,4.007
10.813000,0.1601,-0.7765,3.1549,3.253
10.815000,-0.1132,-0.8149,2.5241,2.655
10.815000,-0.3074,-0.9301,2.0095,2.236
10.815000,-0.4593,-1.0240,1.4292,1.817
10.816000,-0.4936,-1.0610,0.9104,1.483
10.816000,-0.5310,-1.1131,0.5822,1.364
10.817000,-0.5340,-1.1733,0.3322,1.331
10.817000,-0.5049,-1.2108,0.0050,1.312
10.817000,-0.4469,-1.2712,-0.2964,1.380
10.818000,-0.3215,-1.3690,-0.4573,1.479
10.818000,-0.1959,-1.3990,-0.7049,1.579
10.819000,-0.0219,-1.4188,-0.9315,1.697
10.822000,0.1168,-1.4236,-1.1754,1.850
10.826000,0.2280,-1.3917,-1.4081,1.993
10.832000,0.3290,-1.3589,-1.5772,2.108
10.836000,0.4633,-1.3297,-1.7571,2.252
10.849000,0.5883,-1.2703,-1.8762,2.341
10.850000,0.7337,-1.2021,-1.9707,2.422
10.851000,0.9118,-1.1369,-2.0862,2.545
10.856000,1.0496,-1.0772,-2.1319,2.609
10.897000,1.1066,-1.0441,-2.1199,2.609
10.898000,1.1240,-1.0594,-2.1770,2.669
10.899000,1.1475,-1.0582,-2.2793,2.763
10.899000,1.1583,-0.9713,-2.5128,2.932
10.899000,1.1036,-0.9229,-2.8274,3.172
10.900000,0.9791,-0.9627,-3.1562,3.442
10.900000,0.9201,-0.9490,-3.5283,3.768
10.901000,0.9168,-0.8814,-3.9272,4.128
10.903000,0.8276,-0.8363,-4.0278,4.196
10.906000,0.7644,-0.7923,-3.8901,4.043
10.911000,0.7150,-0.7307,-3.6910,3.830
10.917000,0.6839,-0.7119,-3.5115,3.648
10.922000,0.7264,-0.6905,-3.4543,3.597
10.925000,0.7681,-0.6739,-3.3946,3.545
10.930000,0.7751,-0.6648,-3.2607,3.417
10.936000,0.7143,-0.6272,-3.1626,3.302
10.943000,0.6768,-0.5422,-2.9758,3.100
10.945000,0.6290,-0.5510,-2.7340,2.859
10.950000,0.6501,-0.4913,-2.5181,2.647
10.957000,0.7139,-0.4659,-2.3210,2.473
10.962000,0.7014,-0.4822,-2.1211,2.286
10.965000,0.7035,-0.4686,-1.9589,2.133
10.970000,0.6487,-0.4107,-1.9276,2.075
11.018000,0.5373,-0.4087,-1.9604,2.073
11.019000,0.5104,-0.3690,-1.9976,2.095
11.019000,0.4722,-0.3824,-1.9388,2.032
11.019000,0.4276,-0.3481,-1.8704,1.950
11.019000,0.3816,-0.3116,-1.8906,1.954
11.020000,0.3531,-0.3469,-1.8534,1.918
11.020000,0.2941,-0.3487,-1.8306,1.887
11.020000,0.2739,-0.3242,-1.6595,1.713
11.021000,0.2328,-0.3263,-1.6224,1.671
11.021000,0.1229,-0.3142,-1.6499,1.684
11.030000,0.1096,-0.3236,-1.7467,1.780
11.031000,0.0414,-0.1918,-1.7789,1.790
11.034000,-0.0050,0.0072,-1.6201,1.620
11.041000,0.0374,0.2018,-1.5599,1.573
11.046000,0.0438,0.3294,-1.3637,1.404
11.049000,0.0458,0.4142,-1.1824,1.254
11.054000,0.0510,0.4825,-1.0183,1.128
11.060000,0.0331,0.5176,-0.8906,1.031
11.066000,0.0158,0.5627,-0.7944,0.974
11.069000,-0.0991,0.5986,-0.6749,0.908
11.077000,-0.1994,0.6014,-0.4576,0.782
11.079000,-0.3381,0.6737,-0.1738,0.774
11.084000,-0.5395,0.6766,0.1048,0.872
11.090000,-0.6106,0.6459,0.4574,1.000
11.128000,-0.6000,0.5693,0.9105,1.230
11.130000,-0.5077,0.5565,1.3708,1.564
11.130000,-0.4223,0.4874,1.8340,1.944
11.130000,-0.3100,0.4404,2.2836,2.346
11.130000,-0.2351,0.4368,2.6913,2.737
11.131000,-0.2065,0.4496,3.1434,3.182
11.131000,-0.2498,0.5025,3.4967,3.541
11.131000,-0.2468,0.5806,3.7324,3.785
11.134000,-0.2284,0.7293,3.7910,3.867
11.139000,-0.2922,0.9126,3.6728,3.796
11.144000,-0.3473,1.0831,3.4396,3.623
11.149000,-0.4133,1.2196,3.0368,3.299
11.155000,-0.4785,1.2825,2.5138,2.862
11.159000,-0.5410,1.3419,1.9637,2.439
11.164000,-0.5992,1.4302,1.5052,2.161
11.169000,-0.7375,1.5266,1.2547,2.109
11.175000,-0.8676,1.6410,1.2786,2.254
11.179000,-1.0161,1.7927,1.4427,2.515
11.184000,-1.1353,1.9213,1.6825,2.795
11.189000,-1.2349,2.0100,1.9406,3.055
11.199000,-1.2316,2.1036,2.2749,3.334
11.201000,-1.1134,2.1729,2.4945,3.490
11.204000,-0.9781,2.2105,2.6378,3.578
11.252000,-0.8637,2.2380,2.6574,3.580
11.254000,-0.7725,2.2029,2.5507,3.458
11.258000,-0.7058,2.2756,2.4058,3.386
11.259000,-0.6805,2.3056,2.1272,3.210
11.259000,-0.6434,2.3897,1.7642,3.039
11.260000,-0.6549,2.4849,1.3669,2.911
11.260000,-0.6169,2.5968,1.0663,2.874
11.261000,-0.5148,2.6806,0.9046,2.876
11.261000,-0.4453,2.7269,0.7215,2.856
11.262000,-0.3314,2.6838,0.5857,2.767
11.262000,-0.1253,2.7191,0.6786,2.805
11.262000,0.1206,2.7226,0.8803,2.864
11.268000,0.3715,2.6823,1.2937,3.001
11.281000,0.5466,2.5093,1.7967,3.134
11.282000,0.7400,2.2795,2.3039,3.324
11.283000,0.9424,2.0139,2.7966,3.573
11.287000,1.0377,1.7885,3.1317,3.753
11.325000,1.0701,1.5427,3.4200,3.901
11.326000,1.0520,1.3457,3.5899,3.976
11.326000,0.9508,1.0771,3.6946,3.964
11.326000,0.7498,0.7633,3.5933,3.749
11.327000,0.5278,0.3847,3.3392,3.403
11.327000,0.2556,0.0562,2.9136,2.925
11.327000,0.0191,-0.2338,2.4476,2.459
11.327000,-0.2401,-0.4805,1.9583,2.031
11.333000,-0.4366,-0.6911,1.4433,1.659
11.339000,-0.5615,-0.9062,1.0365,1.487
11.342000,-0.7261,-1.1235,0.4941,1.426
11.348000,-0.8139,-1.2855,-0.0762,1.523
11.352000,-0.8766,-1.4207,-0.5095,1.745
11.358000,-0.9216,-1.5505,-0.9568,2.042
11.362000,-0.9568,-1.6366,-1.2314,2.261
11.367000,-0.8899,-1.7056,-1.3908,2.374
11.372000,-0.8453,-1.8103,-1.4471,2.467
11.378000,-0.7324,-1.9173,-1.4361,2.505
11.382000,-0.6157,-1.9507,-1.4100,2.484
11.387000,-0.4784,-2.0283,-1.3470,2.481
11.393000,-0.3517,-2.0930,-1.2851,2.481
11.397000,-0.2781,-2.1402,-1.2506,2.494
11.402000,-0.1902,-2.2633,-1.2073,2.572
11.451000,-0.1115,-2.2738,-1.1408,2.546
11.452000,-0.0273,-2.2912,-1.0990,2.541
11.453000,-0.0134,-2.3586,-1.1272,2.614
11.454000,-0.0244,-2.4139,-1.2014,2.696
11.454000,-0.0076,-2.4690,-1.3622,2.820
11.455000,-0.0416,-2.4662,-1.6122,2.947
11.455000,-0.0550,-2.4555,-1.9706,3.149
11.455000,-0.0453,-2.4482,-2.3085,3.365
11.457000,-0.1059,-2.4104,-2.6120,3.556
11.458000,-0.1360,-2.4635,-2.8123,3.741
11.459000,-0.1408,-2.4300,-2.9815,3.849
11.464000,-0.0751,-2.3913,-3.0767,3.897
11.467000,-0.0344,-2.3092,-3.0572,3.831
11.472000,0.0602,-2.1958,-2.9900,3.710
11.477000,0.2111,-2.0848,-2.9038,3.581
11.482000,0.2898,-1.9929,-2.7746,3.428
11.486000,0.3748,-1.9590,-2.6692,3.332
11.493000,0.5072,-1.8849,-2.6901,3.324
11.496000,0.6055,-1.7802,-2.6891,3.281
11.501000,0.6772,-1.7167,-2.6639,3.241
11.505000,0.7180,-1.6750,-2.6313,3.201
11.559000,0.7187,-1.6239,-2.6058,3.153
11.560000,0.7272,-1.5777,-2.5540,3.089
11.560000,0.7151,-1.5508,-2.4017,2.947
11.560000,0.6971,-1.5433,-2.1706,2.753
11.561000,0.6328,-1.5553,-1.9658,2.585
11.561000,0.5106,-1.6467,-1.7897,2.485
11.561000,0.3981,-1.7003,-1.8191,2.522
11.561000,0.2301,-1.7353,-1.9630,2.630
11.562000,0.1213,-1.7202,-2.2047,2.799
11.562000,-0.0413,-1.6523,-2.3674,2.887
11.562000,-0.2005,-1.6267,-2.5450,3.027
11.567000,-0.3612,-1.5453,-2.7374,3.164
11.570000,-0.5355,-1.4437,-2.8660,3.253
11.578000,-0.6424,-1.3477,-3.0197,3.369
11.581000,-0.6892,-1.2741,-2.9570,3.293
11.591000,-0.6927,-1.1485,-2.8982,3.194
11.592000,-0.7299,-0.9952,-2.6878,2.958
11.595000,-0.7527,-0.8502,-2.4000,2.655
11.600000,-0.8428,-0.7043,-2.0631,2.337
11.605000,-0.9573,-0.6105,-1.7510,2.087
11.611000,-0.9502,-0.5257,-1.5427,1.887
11.615000,-0.8960,-0.4452,-1.3470,1.678
11.620000,-0.8330,-0.3976,-1.0899,1.428
11.631000,-0.7350,-0.3109,-0.8193,1.144
11.633000,-0.6498,-0.2044,-0.4445,0.813
11.636000,-0.5989,-0.2312,-0.0468,0.644
11.640000,-0.5223,-0.1617,0.3859,0.669
11.691000,-0.5538,-0.1038,0.8153,0.991
11.692000,-0.5810,-0.0958,1.4401,1.556
11.693000,-0.6029,-0.1407,2.2317,2.316
11.693000,-0.6119,-0.1076,3.0062,3.070
11.694000,-0.6573,-0.0907,3.7356,3.794
11.695000,-0.7626,-0.0929,4.2435,4.312
11.695000,-0.8747,-0.0694,4.6858,4.767
11.696000,-0.9622,-0.0326,4.9387,5.032
11.696000,-1.0536,0.0077,4.9022,5.014
11.697000,-1.1828,0.1400,4.5168,4.671
11.697000,-1.3054,0.3171,3.8783,4.104
11.700000,-1.4748,0.5683,3.2016,3.570
11.706000,-1.6227,0.8468,2.5603,3.147
11.711000,-1.6826,1.0504,1.9680,2.794
11.715000,-1.7805,1.2425,1.4025,2.585
11.721000,-1.6752,1.4497,1.0285,2.442
11.728000,-1.4443,1.8041,0.7951,2.444
11.730000,-1.1740,2.1671,0.6396,2.546
11.735000,-0.8882,2.4696,0.6670,2.708
11.738000,-0.5844,2.6930,0.7668,2.860
11.770000,-0.1995,2.8254,1.0152,3.009
11.771000,0.2530,2.8482,1.3708,3.171
11.771000,0.6839,2.8119,1.8072,3.412
11.772000,1.1184,2.7597,2.2473,3.731
11.772000,1.5213,2.6987,2.5525,4.014
11.772000,1.8291,2.6385,2.9764,4.378
11.776000,2.0853,2.5383,3.5238,4.817
11.779000,2.2999,2.3304,4.0515,5.209
11.785000,2.4923,2.1725,4.5263,5.605
11.789000,2.6339,1.9564,4.9537,5.942
11.794000,2.7202,1.6503,5.2386,6.129
11.799000,2.6150,1.3906,5.4747,6.224
11.803000,2.3158,1.1357,5.5980,6.164
11.810000,1.9518,0.9597,5.6783,6.081
11.813000,1.5893,0.7587,5.6853,5.952
11.819000,1.1798,0.5109,5.5405,5.688
11.824000,0.7779,0.2617,5.2133,5.278
11.828000,0.4731,-0.0106,4.7710,4.794
11.834000,0.2244,-0.2794,4.2949,4.310
11.839000,0.0668,-0.4585,3.7706,3.799
11.844000,-0.0890,-0.5576,3.3798,3.427
11.848000,-0.1729,-0.6054,3.0077,3.073
11.853000,-0.1836,-0.6215,2.4416,2.526
11.894000,-0.1933,-0.6152,1.8514,1.960
11.895000,-0.2288,-0.6102,1.1556,1.327
11.895000,-0.2291,-0.6256,0.5670,0.875
11.895000,-0.1751,-0.6227,-0.0392,0.648
11.895000,-0.0292,-0.5819,-0.4456,0.733
11.896000,0.1582,-0.5079,-0.9110,1.055
11.896000,0.3440,-0.4650,-1.2443,1.372
11.897000,0.4734,-0.4721,-1.5055,1.647
11.899000,0.5924,-0.4886,-1.7258,1.889
11.904000,0.6942,-0.5672,-1.7761,1.990
11.909000,0.7765,-0.6073,-1.8240,2.073
11.913000,0.8040,-0.6595,-1.8263,2.102
11.918000,0.8440,-0.6879,-1.9073,2.196
11.924000,0.8776,-0.6593,-1.9927,2.275
11.928000,0.9124,-0.6646,-2.0274,2.320
11.934000,0.8797,-0.7204,-2.1073,2.394
11.939000,0.8754,-0.7931,-2.2420,2.534
11.943000,0.8758,-0.8277,-2.3594,2.649
11.948000,0.9291,-0.8287,-2.5366,2.826
11.952000,0.9326,-0.8105,-2.7257,2.993
12.011000,0.9223,-0.7821,-2.8671,3.112
12.012000,0.8984,-0.8008,-2.9970,3.230
12.012000,0.8773,-0.7946,-3.1681,3.382
12.012000,0.8496,-0.7467,-3.2012,3.395
12.013000,0.7961,-0.7502,-3.1945,3.377
12.013000,0.7433,-0.7861,-3.1074,3.290
12.013000,0.6910,-0.8160,-2.9926,3.178
12.014000,0.6346,-0.8353,-2.8668,3.053
12.014000,0.5191,-0.8920,-2.6963,2.887
12.014000,0.4187,-0.9338,-2.5599,2.757
12.014000,0.2686,-1.0208,-2.4549,2.672
12.015000,0.1045,-1.0668,-2.4410,2.666
12.018000,-0.0214,-1.1081,-2.4055,2.649
12.024000,-0.1503,-1.1376,-2.3507,2.616
12.029000,-0.2582,-1.2150,-2.3581,2.665
12.032000,-0.3192,-1.2302,-2.2818,2.612
12.038000,-0.3500,-1.2145,-2.2197,2.554
12.044000,-0.3556,-1.2062,-2.1431,2.485
12.050000,-0.2954,-1.1935,-2.0831,2.419
12.052000,-0.2078,-1.1452,-1.9967,2.311
12.105000,-0.1598,-1.1164,-1.9006,2.210
12.106000,-0.0919,-1.0355,-1.7635,2.047
12.106000,-0.0587,-0.9673,-1.6406,1.905
12.106000,0.0114,-0.9453,-1.4383,1.721
12.107000,0.1211,-0.9170,-1.2357,1.543
12.107000,0.2322,-0.8947,-1.0156,1.373
12.107000,0.3522,-0.8304,-0.8238,1.222
12.107000,0.4626,-0.8059,-0.6024,1.107
12.108000,0.5182,-0.7971,-0.4041,1.033
12.108000,0.5364,-0.7826,-0.2744,0.988
12.108000,0.5107,-0.7622,-0.1918,0.937
12.114000,0.4483,-0.7670,-0.1488,0.901
12.117000,0.3400,-0.7586,-0.1411,0.843
12.122000,0.2192,-0.7201,-0.1158,0.762
12.126000,0.0306,-0.6971,-0.1663,0.717
12.132000,-0.1253,-0.6629,-0.2352,0.714
12.137000,-0.3208,-0.6248,-0.3106,0.768
12.142000,-0.4941,-0.5778,-0.4548,0.886
12.147000,-0.6242,-0.5219,-0.6317,1.030
12.152000,-0.7068,-0.4186,-0.8177,1.159
12.157000,-0.8262,-0.3274,-1.0226,1.355
12.161000,-0.8301,-0.1646,-1.1339,1.415
12.166000,-0.7405,0.0224,-1.0851,1.314
12.171000,-0.6173,0.1688,-0.9792,1.170
12.225000,-0.4537,0.3081,-0.7899,0.962
12.226000,-0.2876,0.4404,-0.5580,0.767
12.227000,-0.1215,0.5318,-0.2163,0.587
12.227000,0.0138,0.5968,0.1347,0.612
12.227000,0.0419,0.6038,0.4713,0.767
12.228000,0.0828,0.6151,0.6406,0.892
12.228000,0.1775,0.6619,1.0588,1.261
12.228000,0.2834,0.7152,1.5846,1.761
12.228000,0.4380,0.7246,1.9789,2.152
12.229000,0.5362,0.7831,2.3473,2.532
12.229000,0.6481,0.8664,2.4941,2.719
12.231000,0.6525,0.9556,2.6920,2.930
12.236000,0.6475,1.0812,2.7259,3.003
12.241000,0.4920,1.1504,2.6198,2.903
12.245000,0.3528,1.2229,2.3046,2.633
12.250000,0.2246,1.2969,1.8828,2.297
12.255000,0.0230,1.3471,1.4615,1.988
12.260000,-0.0492,1.4360,1.1768,1.857
12.265000,-0.1050,1.5189,0.9847,1.813
12.270000,-0.1927,1.6195,0.9906,1.908
12.282000,-0.2744,1.6780,1.1199,2.036
12.284000,-0.3405,1.7014,1.3921,2.225
12.285000,-0.3385,1.7152,1.7118,2.447
12.340000,-0.3257,1.7311,2.0052,2.669
12.341000,-0.2349,1.7291,2.2228,2.826
12.342000,-0.1709,1.7234,2.2717,2.857
12.342000,-0.1022,1.6952,2.1398,2.732
12.343000,-0.0286,1.6946,1.9876,2.612
12.343000,0.0863,1.7056,1.7476,2.443
12.343000,0.1280,1.7093,1.3932,2.209
12.344000,0.0876,1.6875,1.0052,1.966
12.344000,0.0443,1.7008,0.6736,1.830
12.345000,-0.0882,1.7301,0.3888,1.775
12.345000,-0.2040,1.7666,0.1570,1.785
12.345000,-0.3008,1.7864,-0.0122,1.812
12.350000,-0.4171,1.7877,-0.1386,1.841
12.355000,-0.5622,1.7847,-0.2342,1.886
12.361000,-0.7651,1.7416,-0.2535,1.919
12.366000,-0.9521,1.6155,-0.3306,1.904
12.370000,-1.1070,1.5666,-0.4081,1.961
12.381000,-1.2185,1.5254,-0.3972,1.992
12.382000,-1.2513,1.4631,-0.3267,1.953
12.384000,-1.2512,1.4203,-0.1869,1.902
12.389000,-1.1731,1.3872,0.0318,1.817
12.436000,-1.0554,1.3131,0.2986,1.711
12.437000,-0.9075,1.2170,0.6352,1.646
12.437000,-0.7985,1.0845,1.0226,1.691
12.437000,-0.6082,0.9032,1.3605,1.743
12.437000,-0.3961,0.7351,1.6661,1.864
12.438000,-0.2644,0.5297,1.8680,1.960
12.438000,-0.1888,0.3779,2.0139,2.058
12.438000,-0.1565,0.2483,2.1593,2.179
12.438000,-0.1841,0.0739,2.3257,2.334
12.439000,-0.2568,-0.1433,2.4249,2.443
12.446000,-0.3435,-0.3652,2.4359,2.487
12.449000,-0.3986,-0.6372,2.3705,2.487
12.455000,-0.4585,-0.8784,2.1983,2.411
12.459000,-0.5949,-1.0504,1.9958,2.332
12.464000,-0.7246,-1.1584,1.7632,2.231
12.469000,-0.8340,-1.2531,1.5226,2.141
12.474000,-0.9469,-1.3725,1.2211,2.067
12.479000,-0.9807,-1.4786,0.8733,1.978
12.483000,-0.9674,-1.5334,0.4651,1.872
12.488000,-0.9142,-1.6155,0.0872,1.858
12.493000,-0.8598,-1.6795,-0.1863,1.896
12.499000,-0.7639,-1.6969,-0.5158,1.931
12.505000,-0.6532,-1.6889,-0.8271,1.991
12.515000,-0.6475,-1.6723,-1.0560,2.081
12.517000,-0.5650,-1.6639,-1.2574,2.161
12.519000,-0.4924,-1.6086,-1.4195,2.201
12.580000,-0.4055,-1.6405,-1.4826,2.248
12.581000,-0.3474,-1.6232,-1.5328,2.259
12.582000,-0.2937,-1.6788,-1.6372,2.363
12.583000,-0.2298,-1.7162,-1.6855,2.416
12.583000,-0.2130,-1.7310,-1.6778,2.420
12.584000,-0.1978,-1.6992,-1.7122,2.420
12.585000,-0.1412,-1.6713,-1.7716,2.440
12.585000,-0.1480,-1.6352,-1.9184,2.525
12.586000,-0.1153,-1.5954,-2.1767,2.701
12.586000,-0.0933,-1.5517,-2.3910,2.852
12.587000,-0.1320,-1.5132,-2.6357,3.042
12.587000,-0.1262,-1.4197,-2.8109,3.152
12.588000,-0.0541,-1.3835,-2.8785,3.194
12.592000,-0.0090,-1.2990,-2.8747,3.155
12.592000,0.0237,-1.2404,-2.8857,3.141
12.598000,0.0851,-1.1768,-2.8180,3.055
12.604000,0.1369,-1.1130,-2.7290,2.950
12.611000,0.1962,-1.0587,-2.7264,2.931
12.614000,0.2582,-1.0284,-2.7285,2.927
12.617000,0.2820,-0.9670,-2.7043,2.886
12.624000,0.2848,-0.9320,-2.7567,2.924
12.669000,0.2377,-0.8969,-2.8402,2.988
12.670000,0.1671,-0.9023,-2.8759,3.019
12.670000,0.0869,-0.8787,-2.9190,3.050
12.670000,-0.0242,-0.8882,-2.9026,3.036
12.670000,-0.1760,-0.8925,-2.8555,2.997
12.671000,-0.3136,-0.8892,-2.8063,2.960
12.671000,-0.4491,-0.9001,-2.6737,2.857
12.671000,-0.5374,-0.9083,-2.6395,2.843
12.671000,-0.6023,-0.8590,-2.5577,2.765
12.672000,-0.6775,-0.8431,-2.4164,2.647
12.680000,-0.7919,-0.7866,-2.3015,2.558
12.683000,-0.8569,-0.7541,-2.1245,2.412
12.687000,-0.9179,-0.7529,-1.9143,2.253
12.691000,-0.9534,-0.6971,-1.6849,2.058
12.697000,-0.9517,-0.6849,-1.5581,1.950
12.702000,-1.0225,-0.6350,-1.4957,1.920
12.710000,-1.0724,-0.5331,-1.4998,1.919
12.712000,-1.1543,-0.4413,-1.5275,1.965
12.716000,-1.2106,-0.3472,-1.5456,1.994
12.721000,-1.2513,-0.1981,-1.5185,1.978
12.762000,-1.2525,-0.0702,-1.4774,1.938
12.763000,-1.1496,0.0557,-1.3339,1.762
12.763000,-1.0221,0.1653,-1.1696,1.562
12.764000,-0.7953,0.2444,-0.9009,1.226
12.764000,-0.5556,0.3192,-0.5015,0.814
12.764000,-0.2876,0.3756,-0.0935,0.482
12.764000,-0.0793,0.4110,0.2489,0.487
12.764000,0.1273,0.3560,0.6240,0.730
12.768000,0.2183,0.3277,1.0557,1.127
12.773000,0.2084,0.3259,1.4318,1.483
12.778000,0.1242,0.3408,1.7501,1.787
12.781000,-0.0102,0.3170,2.0995,2.123
12.786000,-0.2019,0.3047,2.4488,2.476
12.791000,-0.4006,0.2962,2.7244,2.770
12.796000,-0.6635,0.2553,2.8548,2.942
12.801000,-0.9264,0.2295,2.8047,2.963
12.806000,-1.2502,0.2286,2.5645,2.862
12.812000,-1.4326,0.2909,2.2756,2.705
12.817000,-1.5203,0.4143,1.8778,2.451
12.821000,-1.5403,0.5919,1.4309,2.184
12.832000,-1.5028,0.8646,1.1785,2.096
12.834000,-1.4038,1.1227,1.0937,2.104
12.836000,-1.2675,1.3067,1.1117,2.133
12.889000,-1.1317,1.4051,1.1555,2.142
12.891000,-0.8244,1.5946,1.3137,2.224
12.892000,-0.4123,1.8296,1.4810,2.390
12.892000,-0.1597,1.9646,1.5209,2.490
12.892000,0.0104,1.9856,1.5147,2.497
12.893000,0.2011,1.9556,1.5383,2.496
12.893000,0.4178,1.9349,1.5625,2.522
12.893000,0.6038,1.9146,1.6466,2.596
12.894000,0.8508,1.8569,1.9193,2.803
12.895000,1.0131,1.8386,2.3418,3.145
12.897000,1.1064,1.7971,2.7970,3.504
12.897000,1.2484,1.7059,3.2684,3.892
12.900000,1.2911,1.5120,3.8591,4.341
12.905000,1.2995,1.3031,4.2900,4.668
12.911000,1.2639,1.1619,4.5716,4.883
12.916000,1.1933,0.9799,4.8005,5.043
12.921000,1.0611,0.8881,4.9294,5.120
12.928000,0.8453,0.7565,4.9088,5.038
12.931000,0.5736,0.6850,4.8709,4.952
12.935000,0.3579,0.5658,4.7153,4.763
12.967000,0.1757,0.4202,4.4904,4.513
12.968000,0.0334,0.2697,4.1483,4.157
12.968000,-0.0650,0.1312,3.7897,3.792
12.969000,-0.0867,0.0144,3.3354,3.337
12.969000,-0.0705,-0.1019,2.9358,2.938
12.969000,0.0314,-0.1766,2.6649,2.671
12.969000,0.2075,-0.2140,2.4168,2.435
12.977000,0.3959,-0.3073,2.1817,2.239
12.980000,0.5733,-0.3293,2.0048,2.111
12.986000,0.7645,-0.3951,1.8239,2.017
12.989000,0.9293,-0.4447,1.5720,1.880
12.995000,1.0611,-0.5089,1.3685,1.805
13.000000,1.1384,-0.5758,1.1034,1.687
13.005000,1.1858,-0.5974,0.8866,1.597
13.010000,1.2273,-0.6193,0.6750,1.531
13.016000,1.2320,-0.6820,0.2964,1.439
13.020000,1.2311,-0.7281,0.0689,1.432
13.027000,1.2197,-0.7839,-0.1891,1.462
13.030000,1.1140,-0.8807,-0.5184,1.512
13.034000,1.0264,-0.9466,-0.8877,1.654
13.039000,0.9277,-1.0318,-1.2491,1.867
13.094000,0.8222,-1.1029,-1.6648,2.160
13.095000,0.6762,-1.2289,-2.0513,2.485
13.095000,0.6089,-1.3210,-2.3968,2.804
13.095000,0.5931,-1.2955,-2.7803,3.124
13.096000,0.6501,-1.2574,-2.9726,3.292
13.096000,0.6608,-1.2281,-3.1318,3.428
13.096000,0.7304,-1.1764,-3.1670,3.456
13.097000,0.8112,-1.1624,-3.1716,3.474
13.097000,0.8727,-1.1886,-3.1384,3.468
13.097000,0.8483,-1.2812,-3.0721,3.435
13.098000,0.8556,-1.3568,-3.1256,3.513
13.100000,0.8255,-1.3606,-3.2173,3.589
13.105000,0.6408,-1.4576,-3.4358,3.787
13.109000,0.4831,-1.5851,-3.6351,3.995
13.114000,0.3229,-1.6115,-3.8968,4.229
13.118000,0.2247,-1.5798,-4.1515,4.448
13.124000,0.0969,-1.5233,-4.4832,4.736
13.129000,-0.0612,-1.4893,-4.8179,5.043
13.134000,-0.1928,-1.4700,-5.0415,5.255
13.139000,-0.2073,-1.3072,-5.1089,5.278
13.144000,-0.1790,-1.1394,-4.9774,5.109
13.149000,-0.0930,-0.9810,-4.6761,4.779
13.153000,0.0633,-0.8825,-4.2025,4.295
13.160000,0.2567,-0.7868,-3.6402,3.733
13.164000,0.3946,-0.7473,-3.0509,3.166
13.168000,0.4297,-0.7239,-2.5369,2.673
13.173000,0.4460,-0.6787,-2.1600,2.308
13.227000,0.4461,-0.6577,-1.8623,2.025
13.229000,0.4614,-0.5557,-1.7249,1.870
13.230000,0.4919,-0.4325,-1.6402,1.766
13.230000,0.5403,-0.2953,-1.4932,1.615
13.231000,0.6021,-0.1724,-1.3489,1.487
13.231000,0.6461,-0.1023,-1.1451,1.319
13.232000,0.7086,-0.0393,-0.9464,1.183
13.232000,0.7968,-0.0123,-0.7288,1.080
13.232000,0.8843,-0.0216,-0.4539,0.994
13.232000,0.8971,-0.0287,-0.2796,0.940
13.232000,0.8425,-0.0413,-0.2151,0.871
13.233000,0.7441,-0.0547,-0.1884,0.770
13.239000,0.6380,-0.0590,-0.1876,0.668
13.246000,0.5233,-0.0783,-0.1864,0.561
13.249000,0.4239,-0.0645,-0.1943,0.471
13.253000,0.3730,-0.0299,-0.0559,0.378
13.260000,0.3271,-0.0081,0.0949,0.341
13.263000,0.2338,-0.0330,0.3014,0.383
13.267000,0.1696,-0.0306,0.4921,0.521
13.272000,0.1223,-0.0086,0.6337,0.645
13.330000,0.0463,-0.0154,0.7411,0.743
13.331000,-0.0852,0.0109,0.7308,0.736
13.332000,-0.2552,0.0152,0.6390,0.688
13.333000,-0.3927,0.0456,0.3699,0.541
13.333000,-0.5170,0.1572,0.1149,0.552
13.334000,-0.6024,0.2357,-0.1741,0.670
13.334000,-0.6804,0.3416,-0.5264,0.926
13.334000,-0.7392,0.4703,-0.7961,1.184
13.334000,-0.7768,0.6108,-0.9721,1.386
13.335000,-0.7598,0.7060,-0.9543,1.409
13.335000,-0.6884,0.8087,-0.8266,1.346
13.336000,-0.4908,0.9311,-0.4843,1.159
13.338000,-0.2050,1.0775,0.0440,1.098
13.342000,0.1120,1.1543,0.6268,1.318
13.348000,0.3774,1.1873,1.1760,1.713
13.353000,0.5802,1.2311,1.5341,2.051
13.357000,0.6544,1.2285,1.9619,2.405
13.362000,0.7323,1.2628,2.1366,2.588
13.366000,0.7811,1.3367,2.2066,2.696
13.373000,0.7505,1.4238,2.2391,2.757
13.417000,0.7199,1.5076,2.2552,2.807
13.418000,0.6461,1.5809,2.1906,2.778
13.418000,0.5195,1.6559,2.0739,2.704
13.418000,0.3778,1.7043,1.9838,2.642
13.419000,0.2519,1.7406,1.8100,2.524
13.419000,0.0935,1.7342,1.6100,2.368
13.419000,-0.0426,1.7621,1.3570,2.224
13.419000,-0.2577,1.8049,1.1421,2.151
13.419000,-0.4829,1.8633,1.0414,2.188
13.422000,-0.6543,1.9563,0.9902,2.288
13.428000,-0.7487,2.0337,1.0027,2.388
13.432000,-0.7400,2.0645,1.2009,2.500
13.436000,-0.7407,2.0796,1.4938,2.665
13.441000,-0.5541,2.0764,1.8336,2.825
13.447000,-0.2873,2.0117,2.2180,3.008
13.451000,-0.0712,1.9354,2.5275,3.184
13.457000,0.1527,1.8831,2.8247,3.398
13.463000,0.3492,1.8332,3.0067,3.539
13.466000,0.3924,1.7927,2.9949,3.512
13.472000,0.4003,1.7547,2.8919,3.406
13.520000,0.2725,1.6139,2.7888,3.234
13.522000,0.0640,1.5191,2.4989,2.925
13.522000,-0.1752,1.4774,2.1467,2.612
13.522000,-0.4600,1.4316,1.8684,2.398
13.523000,-0.7000,1.4035,1.5514,2.206
13.523000,-0.9176,1.3524,1.3153,2.098
13.525000,-1.0966,1.3118,1.1458,2.058
13.526000,-1.2807,1.2720,1.0955,2.111
13.526000,-1.3917,1.1994,0.8798,2.037
13.527000,-1.5070,1.2019,0.7093,2.054
13.527000,-1.5963,1.2048,0.5938,2.086
13.532000,-1.6315,1.1463,0.5618,2.072
13.536000,-1.6584,1.1053,0.5916,2.079
13.541000,-1.5718,1.0124,0.7502,2.015
13.545000,-1.3001,0.8963,0.9920,1.865
13.552000,-0.9263,0.8262,1.4343,1.897
13.555000,-0.5715,0.7418,1.8642,2.086
13.560000,-0.1388,0.7217,2.2438,2.361
13.565000,0.2557,0.6889,2.5159,2.621
13.571000,0.5223,0.5716,2.5731,2.687
13.581000,0.6403,0.4968,2.4848,2.614
13.582000,0.6942,0.3907,2.3248,2.458
13.585000,0.7102,0.2297,2.1481,2.274
13.646000,0.6527,0.1169,2.0000,2.107
13.646000,0.6125,-0.0002,1.8611,1.959
13.647000,0.5485,-0.1673,1.7891,1.879
13.647000,0.4701,-0.3271,1.7243,1.817
13.647000,0.3939,-0.4895,1.6118,1.730
13.648000,0.2667,-0.6668,1.5240,1.685
13.648000,0.1697,-0.8665,1.3126,1.582
13.648000,0.0259,-1.0599,1.1670,1.577
13.648000,-0.0695,-1.1996,0.9247,1.516
13.649000,-0.1358,-1.3382,0.6649,1.500
13.649000,-0.1759,-1.4662,0.3564,1.519
13.649000,-0.2116,-1.5523,-0.0079,1.567
13.652000,-0.2240,-1.6470,-0.3490,1.698
13.656000,-0.1678,-1.6613,-0.7007,1.811
13.661000,-0.0888,-1.6431,-1.0988,1.979
13.666000,-0.0179,-1.6711,-1.3690,2.160
13.670000,0.0425,-1.7043,-1.6407,2.366
13.675000,0.0898,-1.6615,-1.9857,2.591
13.679000,0.1312,-1.6569,-2.1628,2.728
13.685000,0.1671,-1.6405,-2.3275,2.852
13.689000,0.2142,-1.6767,-2.3939,2.931
13.695000,0.2395,-1.7197,-2.4509,3.004
13.701000,0.2644,-1.7483,-2.5101,3.070
13.704000,0.2339,-1.7909,-2.5312,3.110
13.762000,0.2058,-1.8215,-2.5523,3.142
13.763000,0.1802,-1.7992,-2.6284,3.190
13.764000,0.1497,-1.8173,-2.7309,3.284
13.764000,0.1072,-1.8207,-2.8384,3.374
13.765000,0.1194,-1.8428,-2.8838,3.424
13.765000,0.0789,-1.8380,-2.9344,3.463
13.766000,0.0526,-1.8228,-3.0048,3.515
13.766000,0.1004,-1.7997,-2.9992,3.499
13.766000,0.0955,-1.7807,-2.9943,3.485
13.767000,0.0931,-1.7537,-2.9972,3.474
13.767000,0.0984,-1.7475,-2.9505,3.431
13.767000,0.0704,-1.7166,-2.9620,3.424
13.769000,0.0236,-1.6706,-2.9504,3.391
13.774000,-0.0135,-1.7555,-2.9776,3.457
13.779000,-0.0552,-1.7726,-2.9600,3.451
13.785000,-0.1037,-1.8031,-2.8930,3.410
13.789000,-0.1090,-1.8090,-2.8770,3.400
13.794000,-0.1354,-1.8332,-2.8879,3.423
13.799000,-0.1405,-1.8470,-2.8757,3.421
13.804000,-0.1600,-1.8288,-2.8284,3.372
13.851000,-0.1389,-1.8550,-2.7199,3.295
13.852000,-0.0987,-1.8541,-2.5048,3.118
13.852000,-0.0439,-1.8236,-2.2691,2.911
13.853000,-0.0169,-1.8119,-1.9982,2.697
13.853000,-0.0108,-1.8336,-1.7829,2.558
13.853000,-0.0417,-1.8339,-1.6849,2.491
13.853000,-0.0837,-1.7844,-1.6632,2.441
13.854000,-0.1587,-1.7354,-1.7010,2.435
13.854000,-0.2859,-1.6891,-1.8676,2.534
13.854000,-0.3987,-1.5591,-1.9169,2.503
13.862000,-0.4637,-1.4721,-2.0452,2.562
13.863000,-0.5744,-1.4350,-2.0924,2.601
13.869000,-0.6330,-1.3567,-2.0396,2.530
13.874000,-0.6875,-1.2711,-1.9679,2.442
13.879000,-0.7262,-1.1588,-1.8488,2.300
13.883000,-0.7299,-1.0537,-1.7443,2.165
13.887000,-0.6894,-0.9199,-1.6520,2.013
13.893000,-0.6813,-0.7980,-1.5956,1.910
13.898000,-0.6939,-0.6856,-1.6424,1.910
13.902000,-0.6603,-0.5131,-1.7013,1.896
13.911000,-0.6262,-0.4451,-1.5983,1.773
13.913000,-0.5005,-0.3234,-1.4486,1.566
13.918000,-0.3024,-0.2387,-1.1854,1.246
13.922000,-0.0796,-0.1692,-0.7277,0.751
13.965000,0.1207,-0.1008,-0.0542,0.166
13.966000,0.2540,-0.1060,0.6993,0.751
13.966000,0.4264,-0.0725,1.4299,1.494
13.966000,0.4862,-0.0948,2.2176,2.272
13.967000,0.4081,-0.1520,2.8236,2.857
13.967000,0.2950,-0.2088,3.1578,3.178
13.967000,0.0608,-0.2609,3.2665,3.277
13.967000,-0.2469,-0.2153,3.0688,3.086
13.968000,-0.6578,-0.0648,2.6321,2.714
13.973000,-1.0580,0.1408,2.0949,2.351
13.978000,-1.3673,0.4163,1.5717,2.124
13.984000,-1.5773,0.6737,0.9831,1.977
13.987000,-1.7275,0.8803,0.5344,2.011
13.992000,-1.6800,1.0699,0.0243,1.992
13.998000,-1.6054,1.2553,-0.4115,2.079
14.002000,-1.4948,1.4274,-0.6779,2.175
14.012000,-1.3264,1.6992,-0.8568,2.320
14.014000,-1.0599,2.0446,-1.0418,2.528
14.017000,-0.8003,2.2918,-1.1450,2.684
14.021000,-0.4400,2.5132,-1.0234,2.749
14.066000,0.0310,2.7309,-0.6943,2.818
14.067000,0.5995,2.8325,-0.1629,2.900
14.067000,1.1083,2.9260,0.4508,3.161
14.067000,1.5594,2.9942,1.1158,3.556
14.068000,1.9561,2.9894,1.8848,4.039
14.068000,2.2788,2.8466,2.7219,4.550
14.068000,2.5096,2.5915,3.5009,5.027
14.070000,2.7138,2.3224,4.0878,5.428
14.070000,2.7968,2.0932,4.5794,5.760
14.071000,2.7804,1.9541,5.0450,6.083
14.077000,2.6890,1.9018,5.4759,6.390
14.082000,2.4799,1.7533,5.8178,6.563
14.087000,2.1771,1.6186,5.9873,6.573
14.092000,1.8447,1.4108,5.9281,6.367
14.097000,1.4177,1.1635,5.6689,5.958
14.102000,0.9022,0.9340,5.1913,5.351
14.108000,0.4212,0.6818,4.6246,4.693
14.111000,0.0402,0.4980,4.0836,4.114
14.117000,-0.3259,0.3971,3.5898,3.626
14.121000,-0.5728,0.2622,3.2099,3.271
14.126000,-0.7283,0.2195,2.7719,2.874
14.131000,-0.7622,0.2021,2.3931,2.520
14.136000,-0.7879,0.1622,2.1212,2.269
14.144000,-0.7581,0.1403,1.9059,2.056
14.155000,-0.6775,0.1002,1.7785,1.906
14.156000,-0.5631,0.0705,1.7459,1.836
14.158000,-0.3689,-0.0038,1.7220,1.761
14.228000,-0.1904,-0.0561,1.6878,1.699
14.228000,0.0160,-0.1129,1.6531,1.657
14.229000,0.1741,-0.1290,1.5676,1.583
14.229000,0.3179,-0.1524,1.4651,1.507
14.231000,0.4720,-0.1688,1.3503,1.440
14.231000,0.6129,-0.1326,1.1896,1.345
14.232000,0.7795,-0.1180,1.0165,1.286
14.232000,0.9366,-0.1366,0.7087,1.182
14.232000,1.1060,-0.1453,0.4219,1.193
14.233000,1.2161,-0.1605,0.1152,1.232
14.233000,1.2221,-0.2130,-0.2285,1.261
14.233000,1.2107,-0.2281,-0.6046,1.372
14.233000,1.1460,-0.2367,-0.9465,1.505
14.234000,1.0808,-0.2841,-1.3306,1.738
14.234000,1.0054,-0.3507,-1.6761,1.986
14.235000,0.8840,-0.3957,-1.9638,2.190
14.243000,0.8334,-0.4550,-2.1436,2.345
14.246000,0.7915,-0.4878,-2.3951,2.569
14.250000,0.7290,-0.4821,-2.6991,2.837
14.256000,0.6458,-0.4927,-2.8476,2.961
14.261000,0.6065,-0.4862,-3.0512,3.149
14.266000,0.5104,-0.5006,-3.3052,3.382
14.270000,0.4219,-0.5212,-3.5334,3.596
14.318000,0.3263,-0.5455,-3.7524,3.806
14.319000,0.1924,-0.5685,-3.8023,3.849
14.320000,0.0417,-0.5375,-3.9176,3.955
14.320000,-0.0496,-0.5100,-3.9237,3.957
14.321000,-0.1558,-0.5194,-3.8280,3.866
14.321000,-0.1975,-0.4795,-3.6856,3.722
14.321000,-0.1511,-0.4695,-3.5203,3.555
14.322000,-0.1577,-0.4992,-3.3704,3.411
14.323000,-0.1791,-0.5281,-3.2091,3.257
14.323000,-0.2178,-0.5494,-3.0077,3.065
14.327000,-0.2453,-0.5199,-2.8020,2.860
14.329000,-0.3095,-0.4830,-2.6278,2.690
14.343000,-0.3484,-0.4509,-2.3726,2.440
14.349000,-0.3405,-0.4453,-2.0505,2.126
14.350000,-0.3216,-0.4186,-1.6973,1.778
14.350000,-0.2675,-0.4262,-1.3775,1.467
14.354000,-0.1851,-0.4230,-1.1457,1.235
14.388000,-0.0910,-0.4137,-0.9683,1.057
14.389000,-0.0400,-0.4129,-0.8764,0.970
14.389000,0.0277,-0.3678,-0.8243,0.903
14.390000,0.0956,-0.3646,-0.8146,0.898
14.391000,0.0922,-0.3433,-0.7969,0.873
14.391000,0.1515,-0.3110,-0.8384,0.907
14.391000,0.1587,-0.3177,-0.9320,0.997
14.394000,0.2046,-0.2889,-1.0348,1.094
14.400000,0.2462,-0.2866,-1.0609,1.126
14.405000,0.2908,-0.2532,-1.0008,1.073
14.409000,0.3530,-0.1888,-0.9050,0.990
14.414000,0.3613,-0.1458,-0.8239,0.911
14.419000,0.4043,-0.1555,-0.7740,0.887
14.424000,0.3482,-0.1511,-0.6619,0.763
14.429000,0.1693,-0.1279,-0.6453,0.679
14.434000,0.0155,-0.1267,-0.6285,0.641
14.438000,-0.1639,-0.1451,-0.7023,0.736
14.445000,-0.3338,-0.1448,-0.7493,0.833
14.449000,-0.4487,-0.0973,-0.8124,0.933
14.454000,-0.5453,0.0048,-0.8418,1.003
14.471000,-0.6455,0.0206,-0.8947,1.103
14.473000,-0.7157,0.0505,-0.9355,1.179
14.474000,-0.7468,0.0638,-0.9117,1.180
14.474000,-0.6981,0.0963,-0.8568,1.109
14.530000,-0.5772,0.1457,-0.8115,1.006
14.531000,-0.4272,0.2525,-0.6300,0.802
14.532000,-0.2365,0.3451,-0.4513,0.615
14.532000,-0.0573,0.4428,-0.2059,0.492
14.533000,0.1345,0.4807,0.1371,0.518
14.533000,0.2727,0.5546,0.4653,0.774
14.533000,0.3026,0.6141,0.7333,1.003
14.534000,0.3039,0.6638,1.2857,1.478
14.534000,0.3159,0.6197,1.7898,1.920
14.535000,0.3198,0.5601,2.2727,2.362
14.535000,0.2753,0.5159,2.6795,2.743
14.535000,0.1970,0.4625,2.8314,2.876
14.538000,-0.0658,0.4834,2.7218,2.765
14.545000,-0.3007,0.5836,2.3747,2.464
14.549000,-0.5040,0.7682,1.9791,2.182
14.554000,-0.7195,0.9492,1.4915,1.909
14.561000,-0.8663,1.0392,1.0095,1.688
14.564000,-0.9404,1.1798,0.5923,1.621
14.567000,-0.9426,1.2955,0.2774,1.626
14.572000,-0.9116,1.3553,0.2512,1.653
14.613000,-0.8832,1.4768,0.4603,1.781
14.614000,-0.7783,1.5544,0.7661,1.900
14.615000,-0.6251,1.6785,1.1137,2.109
14.615000,-0.4618,1.7197,1.3717,2.248
14.615000,-0.3387,1.6994,1.6435,2.388
14.615000,-0.2530,1.6578,1.8932,2.529
14.616000,-0.0939,1.6739,2.2168,2.779
14.616000,0.0697,1.6208,2.4729,2.958
14.619000,0.1575,1.5415,2.7979,3.198
14.623000,0.2301,1.4646,3.0078,3.353
14.628000,0.2021,1.3783,3.0523,3.355
14.633000,0.1745,1.3089,3.0032,3.281
14.637000,0.0207,1.2518,2.8676,3.129
14.642000,-0.2090,1.2120,2.6073,2.883
14.647000,-0.4482,1.1776,2.3491,2.666
14.652000,-0.6734,1.0846,2.0232,2.392
14.658000,-0.8922,0.9762,1.6798,2.138
14.662000,-1.0597,0.8981,1.4049,1.976
14.667000,-1.2031,0.8409,1.2103,1.902
14.672000,-1.2871,0.8140,1.0529,1.851
14.682000,-1.2764,0.8436,0.9639,1.808
14.684000,-1.2316,0.8674,0.9554,1.784
14.687000,-1.0667,0.8778,0.9796,1.694
14.743000,-0.9180,0.8484,1.1323,1.687
14.744000,-0.7304,0.8269,1.2964,1.702
14.745000,-0.5101,0.7699,1.4864,1.750
14.745000,-0.3237,0.6679,1.6711,1.829
14.745000,-0.1610,0.5924,1.7837,1.886
14.745000,-0.1000,0.5001,1.7097,1.784
14.746000,-0.1427,0.4176,1.6380,1.696
14.746000,-0.1958,0.3186,1.5207,1.566
14.746000,-0.2613,0.2131,1.2618,1.306
14.746000,-0.3680,0.0799,1.0575,1.123
14.747000,-0.4659,-0.0572,0.9101,1.024
14.747000,-0.5242,-0.2289,0.7667,0.957
14.751000,-0.5072,-0.3564,0.6179,0.875
14.758000,-0.4992,-0.4952,0.6051,0.928
14.761000,-0.5097,-0.5830,0.6253,0.995
14.766000,-0.4719,-0.6348,0.6837,1.046
14.772000,-0.4625,-0.7350,0.7402,1.141
14.778000,-0.4218,-0.8479,0.7376,1.200
14.782000,-0.4335,-0.9718,0.6884,1.267
14.786000,-0.4334,-1.0974,0.5356,1.296
14.795000,-0.3953,-1.1768,0.3557,1.291
14.796000,-0.4555,-1.2700,0.2588,1.374
14.801000,-0.4753,-1.3769,-0.0205,1.457
14.806000,-0.4505,-1.4186,-0.3697,1.534
14.845000,-0.4579,-1.4379,-0.7099,1.668
14.845000,-0.4619,-1.4682,-0.9671,1.818
14.846000,-0.4365,-1.4663,-1.1082,1.889
14.846000,-0.4126,-1.4440,-1.3795,2.039
14.846000,-0.3613,-1.4372,-1.6017,2.182
14.846000,-0.3307,-1.4337,-1.7846,2.313
14.847000,-0.2988,-1.4405,-2.0286,2.506
14.847000,-0.2492,-1.4335,-2.1738,2.616
14.852000,-0.2199,-1.4245,-2.3017,2.716
14.856000,-0.1798,-1.4012,-2.4699,2.845
14.862000,-0.1049,-1.3373,-2.5612,2.891
14.865000,0.0002,-1.2855,-2.6428,2.939
14.870000,0.1333,-1.2405,-2.6981,2.973
14.876000,0.2563,-1.1808,-2.6461,2.909
14.881000,0.3985,-1.1422,-2.5539,2.826
14.885000,0.5144,-1.1104,-2.5674,2.844
14.940000,0.6859,-0.9897,-2.4879,2.764
14.941000,0.8250,-0.9668,-2.4568,2.766
14.941000,0.9534,-0.9770,-2.4501,2.805
14.941000,0.9544,-0.9269,-2.4296,2.770
14.942000,0.9599,-0.9003,-2.4241,2.758
14.942000,0.9123,-0.9425,-2.3547,2.695
14.942000,0.8765,-0.9913,-2.3385,2.687
14.942000,0.8550,-1.0061,-2.2799,2.635
14.943000,0.7780,-1.0994,-2.3151,2.678
14.943000,0.6552,-1.1660,-2.3938,2.742
14.943000,0.5507,-1.2274,-2.3985,2.750
14.946000,0.3972,-1.2789,-2.4085,2.756
14.951000,0.2619,-1.3636,-2.3994,2.772
14.956000,0.1153,-1.3765,-2.4168,2.784
14.961000,-0.0117,-1.4347,-2.4390,2.830
14.965000,-0.1506,-1.4617,-2.4228,2.834
14.970000,-0.2635,-1.4125,-2.3921,2.790
14.976000,-0.3984,-1.3566,-2.3800,2.768
14.981000,-0.5315,-1.3322,-2.4083,2.803
14.985000,-0.6918,-1.3081,-2.4625,2.873
14.991000,-0.7764,-1.2175,-2.4851,2.874
14.996000,-0.8624,-1.1031,-2.5602,2.918
15.000000,-0.9833,-0.9982,-2.5395,2.900
15.004000,-1.0628,-0.8978,-2.5024,2.863
15.061000,-1.1106,-0.7635,-2.3628,2.720
15.065000,-1.1028,-0.6169,-2.1903,2.529
15.068000,-1.0585,-0.4673,-1.9778,2.291
15.070000,-1.0854,-0.3556,-1.7611,2.099
15.070000,-1.0281,-0.2553,-1.4853,1.824
15.071000,-0.9536,-0.1453,-1.1599,1.509
15.072000,-0.8380,-0.0588,-0.8087,1.166
15.073000,-0.6690,0.0232,-0.4534,0.809
15.075000,-0.4966,0.1052,-0.0198,0.508
15.076000,-0.3203,0.1108,0.4277,0.546
15.077000,-0.1277,0.1019,0.9130,0.927
15.078000,0.0700,0.1047,1.2975,1.304
15.078000,0.1803,0.0902,1.6316,1.644
15.079000,0.1486,0.0847,1.8987,1.906
15.079000,0.0594,0.0954,2.1060,2.109
15.084000,-0.0562,0.1103,2.3014,2.305
15.090000,-0.2171,0.1316,2.4922,2.505
15.094000,-0.3564,0.1400,2.4969,2.526
15.099000,-0.5058,0.1378,2.3993,2.456
15.104000,-0.6777,0.2231,2.0947,2.213
15.146000,-0.9013,0.3530,1.6857,1.944
15.147000,-1.1202,0.5206,1.2489,1.757
15.147000,-1.2899,0.7049,0.9059,1.727
15.147000,-1.4305,0.8751,0.6779,1.809
15.148000,-1.5260,1.0816,0.5527,1.950
15.148000,-1.5097,1.2645,0.5040,2.033
15.148000,-1.4393,1.3690,0.4144,2.029
15.148000,-1.3052,1.5821,0.3362,2.078
15.149000,-1.0816,1.8654,0.2240,2.168
15.153000,-0.8254,2.1452,0.1085,2.301
15.159000,-0.4504,2.4101,-0.0228,2.452
15.163000,-0.0191,2.6274,-0.0819,2.629
15.169000,0.5049,2.8026,-0.0217,2.848
15.174000,1.1146,2.9651,0.3604,3.188
15.178000,1.7324,3.0409,0.9201,3.619
15.184000,2.2284,2.9655,1.7125,4.086
15.188000,2.6609,2.7961,2.5530,4.628
15.193000,3.0603,2.5847,3.3921,5.249
15.197000,3.3725,2.3355,4.3735,5.996
15.203000,3.5683,2.0547,5.3353,6.739
15.216000,3.6492,1.8008,6.1443,7.370
15.218000,3.5422,1.5273,6.8683,7.877
15.219000,3.3081,1.2260,7.3888,8.188
15.223000,2.8329,0.8578,7.4555,8.022
15.282000,2.1977,0.4775,7.0452,7.395
15.283000,1.4466,0.2022,6.2904,6.458
15.283000,0.7286,-0.0533,5.4326,5.482
15.283000,0.0673,-0.1884,4.5463,4.551
15.284000,-0.4856,-0.2792,3.8319,3.873
15.284000,-1.0137,-0.4116,3.0574,3.247
15.284000,-1.3066,-0.4444,2.2947,2.678
15.285000,-1.4925,-0.4728,1.7372,2.339
15.285000,-1.5346,-0.5019,1.2653,2.051
15.285000,-1.4891,-0.5369,0.9701,1.857
15.285000,-1.3302,-0.5128,0.8175,1.643
15.285000,-1.0682,-0.5262,0.7289,1.396
15.287000,-0.7605,-0.4937,0.6854,1.137
15.292000,-0.4114,-0.4444,0.7015,0.927
15.297000,-0.0466,-0.4816,0.6530,0.813
15.301000,0.2460,-0.4500,0.5712,0.768
15.307000,0.4810,-0.4047,0.3868,0.738
15.313000,0.7020,-0.3837,0.2097,0.827
15.317000,0.9462,-0.3173,0.0612,1.000
15.322000,1.1431,-0.3223,-0.1070,1.192
15.329000,1.2841,-0.3240,-0.3217,1.363
15.331000,1.4397,-0.3579,-0.4300,1.545
15.336000,1.5653,-0.4023,-0.5614,1.711
15.342000,1.6214,-0.4780,-0.6829,1.823
15.348000,1.6112,-0.5659,-0.8497,1.907
15.351000,1.5880,-0.6752,-1.0691,2.030
15.412000,1.5065,-0.7530,-1.3749,2.174
15.414000,1.3670,-0.8660,-1.7240,2.364
15.415000,1.2340,-0.9854,-2.0400,2.580
15.416000,1.0810,-1.0752,-2.4498,2.885
15.416000,0.8952,-1.1470,-2.8936,3.239
15.416000,0.8311,-1.0977,-3.2042,3.487
15.417000,0.8121,-1.0258,-3.4723,3.711
15.417000,0.7251,-0.9669,-3.7485,3.938
15.418000,0.6702,-0.9499,-3.9702,4.137
15.418000,0.5414,-0.9819,-4.2142,4.361
15.418000,0.3627,-0.9958,-4.4302,4.555
15.419000,0.2554,-0.9795,-4.6542,4.763
15.419000,0.1523,-0.9784,-4.7330,4.836
15.421000,0.0866,-0.9303,-4.8035,4.893
15.426000,0.0192,-0.8973,-4.7888,4.872
15.431000,-0.0759,-0.8246,-4.7036,4.776
15.437000,-0.1866,-0.7769,-4.4759,4.547
15.445000,-0.3010,-0.7786,-4.2802,4.361
15.446000,-0.3715,-0.7701,-4.1401,4.227
15.450000,-0.5108,-0.8375,-3.9264,4.047
15.456000,-0.5727,-0.8328,-3.7155,3.851
15.491000,-0.6624,-0.8301,-3.4285,3.589
15.492000,-0.6625,-0.8197,-3.0800,3.255
15.492000,-0.6299,-0.7445,-2.7488,2.917
15.493000,-0.6214,-0.7530,-2.4062,2.597
15.493000,-0.6152,-0.7448,-2.0543,2.270
15.493000,-0.6351,-0.7561,-1.8485,2.096
15.493000,-0.6356,-0.7198,-1.7623,2.007
15.496000,-0.6266,-0.6908,-1.6857,1.926
15.500000,-0.6533,-0.6354,-1.6953,1.925
15.506000,-0.6374,-0.5343,-1.7004,1.893
15.510000,-0.5860,-0.4446,-1.6246,1.783
15.515000,-0.4823,-0.3496,-1.3414,1.468
15.520000,-0.3259,-0.3021,-0.9775,1.074
15.525000,-0.1594,-0.2831,-0.6358,0.714
15.531000,-0.0188,-0.2836,-0.2871,0.404
15.535000,0.1561,-0.2488,0.0328,0.296
15.541000,0.2361,-0.1627,0.2050,0.352
15.546000,0.2308,-0.0828,0.2919,0.381
15.551000,0.2026,-0.0260,0.3941,0.444
15.556000,0.0633,0.0675,0.4206,0.431
15.561000,-0.0919,0.1139,0.4100,0.435
15.565000,-0.2697,0.1255,0.4314,0.524
15.570000,-0.4104,0.1549,0.6258,0.764
15.618000,-0.6096,0.1305,0.8161,1.027
15.619000,-0.7933,0.0928,0.8660,1.178
15.619000,-0.9591,0.0558,0.9052,1.320
15.620000,-1.1172,0.0315,0.8092,1.380
15.620000,-1.1820,0.0585,0.6570,1.354
15.620000,-1.3048,0.1273,0.3290,1.352
15.620000,-1.4678,0.2191,0.0715,1.486
15.621000,-1.4324,0.3533,-0.0130,1.475
15.621000,-1.3043,0.4895,0.1037,1.397
15.621000,-1.0983,0.5944,0.4023,1.312
15.629000,-0.8187,0.6125,0.8802,1.349
15.630000,-0.5321,0.5796,1.4683,1.666
15.635000,-0.2380,0.5694,1.9251,2.022
15.640000,0.0788,0.6175,2.4687,2.546
15.644000,0.2644,0.6324,2.9916,3.069
15.649000,0.4462,0.6327,3.1715,3.265
15.655000,0.5767,0.6854,3.2409,3.362
