time,ax,ay,az,aT
0.003000,-0.2101,0.1487,-0.4651,0.532
0.003000,-0.3547,0.1385,-0.4720,0.606
0.008000,-0.5349,0.1946,-0.3821,0.686
0.008000,-0.7204,0.3192,-0.1884,0.810
0.013000,-0.8571,0.4805,-0.0174,0.983
0.022000,-0.8352,0.6110,0.0881,1.039
0.024000,-0.6492,0.6696,0.2122,0.956
0.028000,-0.3642,0.6438,0.4104,0.846
0.033000,-0.0961,0.5639,0.6475,0.864
0.081000,0.1215,0.4698,0.8092,0.944
0.082000,0.3307,0.3948,0.8002,0.952
0.082000,0.4482,0.3704,0.5416,0.795
0.082000,0.4642,0.4072,0.1381,0.633
0.082000,0.4332,0.4755,-0.2697,0.698
0.082000,0.3469,0.5068,-0.5962,0.856
0.082000,0.2306,0.4725,-0.7532,0.919
0.083000,0.1225,0.3920,-0.7171,0.826
0.083000,0.0514,0.3485,-0.5500,0.653
0.083000,0.0049,0.3291,-0.3186,0.458
0.093000,-0.0175,0.3355,-0.0896,0.348
0.094000,-0.0328,0.3361,0.0727,0.345
0.099000,-0.0267,0.3236,0.1303,0.350
0.103000,-0.0018,0.2695,0.0925,0.285
0.109000,0.0371,0.2320,-0.0049,0.235
0.114000,0.1113,0.2088,-0.1212,0.266
0.132000,0.1944,0.1957,-0.2354,0.363
0.133000,0.2480,0.1880,-0.3067,0.437
0.133000,0.2627,0.1884,-0.3091,0.447
0.134000,0.2459,0.2060,-0.2687,0.418
0.138000,0.2191,0.2477,-0.1926,0.383
0.144000,0.1828,0.3033,-0.1068,0.370
0.148000,0.1348,0.3297,-0.0639,0.362
0.201000,0.0493,0.3412,-0.0830,0.355
0.202000,-0.0328,0.3618,-0.1782,0.405
0.202000,-0.0733,0.3870,-0.3067,0.499
0.202000,-0.0795,0.4221,-0.4160,0.598
0.202000,-0.0541,0.4430,-0.4870,0.661
0.202000,-0.0399,0.4403,-0.4934,0.663
0.203000,-0.0607,0.4235,-0.4760,0.640
0.203000,-0.0950,0.4115,-0.4538,0.620
0.203000,-0.1263,0.4189,-0.4316,0.615
0.203000,-0.1452,0.4286,-0.4166,0.615
0.203000,-0.1664,0.4576,-0.4041,0.633
0.215000,-0.1685,0.4866,-0.3820,0.641
0.215000,-0.1396,0.4965,-0.3576,0.628
0.226000,-0.1298,0.4803,-0.3358,0.600
0.226000,-0.1151,0.4546,-0.2996,0.556
0.229000,-0.1125,0.4457,-0.2419,0.519
0.234000,-0.0959,0.4534,-0.1795,0.497
0.248000,-0.0750,0.4679,-0.1289,0.491
0.249000,-0.0688,0.4917,-0.0879,0.504
0.249000,-0.0367,0.4886,-0.0562,0.493
0.254000,-0.0268,0.4946,-0.0531,0.498
0.261000,-0.0173,0.4904,-0.0856,0.498
0.263000,0.0037,0.4905,-0.1417,0.511
0.300000,0.0220,0.4926,-0.2358,0.547
0.301000,0.0569,0.5063,-0.3368,0.611
0.301000,0.1012,0.5007,-0.4280,0.666
0.301000,0.1336,0.5045,-0.5358,0.748
0.302000,0.1734,0.5082,-0.6290,0.827
0.302000,0.2207,0.5046,-0.7148,0.902
0.302000,0.2685,0.4913,-0.7885,0.967
0.303000,0.2999,0.4851,-0.8739,1.044
0.309000,0.3272,0.4503,-0.9688,1.117
0.313000,0.3433,0.4158,-1.0661,1.195
0.326000,0.3525,0.3964,-1.1443,1.261
0.327000,0.3787,0.3947,-1.2062,1.324
0.331000,0.4363,0.3942,-1.2662,1.396
0.335000,0.5134,0.3906,-1.2862,1.439
0.340000,0.6079,0.3721,-1.2282,1.420
0.344000,0.6939,0.3414,-1.1017,1.346
0.350000,0.7596,0.3077,-0.9116,1.226
0.365000,0.8076,0.2758,-0.6794,1.091
0.366000,0.8544,0.2690,-0.3953,0.979
0.366000,0.8737,0.2609,-0.1167,0.919
0.370000,0.8742,0.2583,0.1518,0.924
0.375000,0.8720,0.2778,0.4125,1.004
0.379000,0.8830,0.3023,0.6776,1.153
0.384000,0.9238,0.3100,0.9015,1.327
0.438000,0.9676,0.2764,1.0752,1.473
0.439000,1.0384,0.2469,1.1867,1.596
0.439000,1.1264,0.2185,1.2005,1.661
0.439000,1.2481,0.1936,1.0976,1.673
0.440000,1.3817,0.1624,0.9068,1.661
0.440000,1.5032,0.1583,0.6331,1.639
0.440000,1.6156,0.1792,0.2502,1.645
0.440000,1.6928,0.2326,-0.2323,1.724
0.441000,1.7526,0.3069,-0.7548,1.933
0.441000,1.7931,0.4171,-1.2598,2.231
0.441000,1.7939,0.5421,-1.7023,2.532
0.450000,1.7628,0.6701,-2.0965,2.820
0.450000,1.7100,0.7919,-2.4547,3.095
0.462000,1.6481,0.9102,-2.7434,3.327
0.463000,1.5868,1.0087,-2.9223,3.475
0.465000,1.5101,1.0971,-3.0083,3.540
0.481000,1.5234,1.1734,-2.9704,3.538
0.482000,1.3828,1.2376,-2.8064,3.364
0.482000,1.3512,1.2894,-2.5570,3.166
0.484000,1.3151,1.3166,-2.2341,2.908
0.556000,1.2886,1.3359,-1.8641,2.631
0.557000,1.2231,1.3370,-1.4780,2.338
0.558000,1.1512,1.3390,-1.0541,2.057
0.558000,1.0485,1.3486,-0.6428,1.825
0.558000,0.9090,1.3582,-0.2654,1.656
0.559000,0.7845,1.3723,0.0613,1.582
0.559000,0.6619,1.3691,0.3208,1.554
0.559000,0.5955,1.3649,0.3910,1.540
0.560000,0.5674,1.3624,0.3820,1.524
0.560000,0.4393,1.3142,0.5352,1.485
0.560000,0.3344,1.2244,0.6500,1.426
0.561000,0.3098,1.1476,0.6429,1.351
0.561000,0.3530,1.1044,0.4928,1.260
0.561000,0.4736,1.0973,0.2071,1.213
0.562000,0.6627,1.1195,-0.2215,1.320
0.567000,0.8804,1.1356,-0.7449,1.619
0.580000,1.0940,1.1227,-1.3036,2.039
0.581000,1.2489,1.0840,-1.8810,2.505
0.581000,1.3554,1.0250,-2.4820,3.008
0.585000,1.4448,0.9967,-3.0783,3.544
0.602000,1.5121,0.9759,-3.6079,4.032
0.603000,1.6310,0.9080,-4.0376,4.448
0.603000,1.7250,0.8676,-4.4323,4.835
0.605000,1.7080,0.8357,-4.8422,5.202
0.611000,1.6647,0.7556,-5.4232,5.723
0.614000,1.5891,0.6668,-5.7929,6.044
0.663000,1.5222,0.5409,-6.0376,6.250
0.665000,1.6617,0.4402,-6.1887,6.423
0.666000,1.8756,0.3605,-6.4066,6.685
0.667000,2.0642,0.3059,-6.5405,6.865
0.668000,2.2146,0.2324,-6.4255,6.800
0.670000,2.2699,0.0617,-6.2194,6.621
0.670000,2.1973,-0.2009,-6.2209,6.601
0.671000,2.0612,-0.4993,-6.3512,6.696
0.672000,2.0004,-0.7859,-6.5569,6.900
0.673000,2.0609,-1.0546,-6.9051,7.283
0.673000,2.2764,-1.1703,-7.2854,7.722
0.677000,2.5800,-1.0158,-7.3453,7.851
0.680000,2.9121,-0.6984,-6.9906,7.605
0.685000,3.1249,-0.4426,-6.3080,7.053
0.695000,3.1084,-0.3613,-5.4521,6.286
0.697000,2.8567,-0.4397,-4.4814,5.333
0.699000,2.4702,-0.6447,-3.6173,4.427
0.759000,1.9634,-0.9458,-3.0308,3.733
0.761000,1.5693,-1.1451,-2.6036,3.248
0.761000,1.3381,-1.1880,-2.4191,3.009
0.761000,1.1058,-1.1970,-2.4868,2.973
0.762000,0.8592,-1.1661,-2.3359,2.749
0.762000,0.6124,-1.1117,-1.8767,2.266
0.762000,0.3314,-1.1007,-1.3588,1.780
0.763000,-0.1236,-1.1992,-0.4800,1.298
0.763000,-0.5667,-1.3008,0.3833,1.470
0.763000,-0.9532,-1.2780,1.6219,2.274
0.764000,-1.3106,-1.2590,2.6355,3.201
0.764000,-1.4900,-1.1716,3.5097,3.989
0.765000,-1.5185,-1.0182,4.3010,4.673
0.771000,-1.4592,-0.8086,4.8667,5.145
0.774000,-1.3985,-0.7319,4.8060,5.059
0.780000,-1.2825,-0.6941,4.4008,4.636
0.797000,-0.9900,-0.5641,3.7791,3.947
0.798000,-0.7048,-0.4635,2.9924,3.109
0.798000,-0.4393,-0.3056,2.3039,2.365
0.800000,-0.2321,-0.1486,1.8334,1.854
0.805000,-0.1492,-0.0212,1.6042,1.611
0.809000,-0.2797,-0.0379,1.4334,1.461
0.815000,-0.4782,-0.1291,1.2964,1.388
0.864000,-0.6885,-0.2531,1.1997,1.406
0.865000,-0.8343,-0.3532,1.1276,1.447
0.865000,-0.9533,-0.4791,1.0989,1.532
0.866000,-0.9731,-0.6142,1.1079,1.597
0.866000,-0.9169,-0.7729,1.1373,1.653
0.866000,-0.8109,-0.9287,1.1437,1.682
0.866000,-0.6212,-1.0278,1.0929,1.624
0.866000,-0.3584,-1.0604,1.0569,1.539
0.868000,-0.1306,-1.0844,1.0692,1.528
0.868000,-0.0812,-1.1862,1.1508,1.655
0.878000,-0.1912,-1.3896,1.1464,1.812
0.879000,-0.1661,-1.6694,1.0779,1.994
0.880000,-0.6378,-1.9441,0.9743,2.266
0.891000,-0.8172,-2.1458,0.8292,2.441
0.892000,-1.0410,-2.2980,0.7177,2.623
0.896000,-1.2835,-2.4345,0.6690,2.832
0.900000,-1.5163,-2.5547,0.6545,3.042
0.935000,-1.7405,-2.6425,0.6411,3.229
0.936000,-1.8654,-2.6547,0.6243,3.304
0.937000,-1.8171,-2.5941,0.5873,3.221
0.937000,-1.6657,-2.5110,0.4993,3.054
0.938000,-1.5026,-2.4656,0.3365,2.907
0.938000,-1.4567,-2.5479,0.0203,2.935
0.938000,-1.5746,-2.7668,-0.4553,3.216
0.941000,-1.7704,-3.0845,-0.9816,3.689
0.945000,-2.0613,-3.5283,-1.5226,4.361
0.950000,-2.3936,-3.9703,-2.2089,5.135
0.956000,-2.6030,-4.2327,-2.7842,5.696
0.959000,-2.7655,-4.3450,-2.9410,5.931
0.965000,-2.9427,-4.3519,-2.9734,6.036
0.970000,-2.9091,-4.2291,-3.1344,6.014
0.975000,-2.6107,-4.0300,-3.2674,5.808
0.980000,-2.2713,-3.9150,-3.1774,5.530
0.987000,-1.9611,-3.9335,-2.9316,5.283
0.990000,-1.6633,-4.0041,-2.6115,5.062
0.995000,-1.4245,-4.0341,-2.2267,4.823
1.001000,-1.4440,-4.1013,-1.8090,4.709
1.008000,-1.6638,-4.2252,-1.5000,4.782
1.011000,-1.6984,-4.1971,-1.2969,4.710
1.015000,-1.5259,-4.1022,-1.1116,4.516
1.057000,-1.3939,-4.1119,-1.0468,4.466
1.058000,-1.4643,-4.2589,-1.1449,4.647
1.058000,-1.6835,-4.4486,-1.2545,4.919
1.059000,-1.8304,-4.5629,-1.2313,5.068
1.059000,-1.7930,-4.5389,-1.0597,4.994
1.059000,-1.6140,-4.4266,-0.7206,4.766
1.059000,-1.3992,-4.2774,-0.2121,4.505
1.060000,-1.1444,-4.0780,0.3979,4.254
1.060000,-0.7999,-3.8414,1.0485,4.062
1.066000,-0.4086,-3.5419,1.7393,3.967
1.070000,-0.0220,-3.2083,2.4106,4.013
1.075000,0.2735,-2.8910,2.9999,4.175
1.080000,0.4847,-2.6098,3.4823,4.379
1.085000,0.6092,-2.3506,3.8310,4.536
1.090000,0.6981,-2.1056,4.0632,4.629
1.095000,0.7800,-1.8665,4.2203,4.680
1.100000,0.8865,-1.6136,4.3743,4.746
1.106000,0.9747,-1.3756,4.5440,4.847
1.110000,1.0525,-1.1528,4.7262,4.977
1.115000,1.1297,-1.2033,4.8873,5.158
1.179000,1.1871,-1.4174,4.9209,5.257
1.180000,1.1722,-1.6195,4.6796,5.089
1.181000,1.1586,-1.6988,4.2098,4.685
1.182000,1.1114,-1.5853,3.8239,4.286
1.183000,1.0160,-1.4915,3.6391,4.062
1.183000,0.8303,-1.6034,3.5721,4.002
1.184000,0.6090,-1.9209,3.4692,4.012
1.185000,0.5352,-2.1781,3.2135,3.919
1.185000,0.6652,-2.2147,2.7886,3.623
1.185000,0.9824,-2.0572,2.4079,3.316
1.186000,1.3088,-1.6048,0.5366,2.139
1.187000,1.7623,-1.2175,0.0844,2.144
1.187000,2.5482,-0.8919,0.9761,2.871
1.187000,3.7643,0.0354,1.4726,4.042
1.190000,4.5623,0.5150,2.1449,5.068
1.196000,4.8255,0.3378,2.7037,5.542
1.200000,4.7921,-0.0775,2.8422,5.572
1.208000,4.5618,-0.4528,2.5420,5.242
1.210000,4.3037,-0.6559,2.1132,4.839
1.215000,4.1821,-0.5546,1.4947,4.476
1.234000,4.2197,-0.2158,0.9600,4.333
1.234000,4.1826,0.1045,0.4501,4.208
1.235000,3.9189,0.2656,0.1112,3.929
1.236000,3.4851,0.3566,-0.2046,3.509
1.267000,3.0312,0.4380,-0.4923,3.102
1.267000,2.6919,0.4407,-0.7589,2.831
1.267000,2.6025,0.4393,-0.9151,2.793
1.268000,2.6440,0.4818,-1.0783,2.896
1.268000,2.8895,0.5970,-1.2573,3.207
1.268000,3.2063,0.8044,-1.5183,3.638
1.272000,3.4996,1.0512,-1.7385,4.047
1.276000,3.6915,1.2440,-1.8528,4.314
1.280000,3.7260,1.3994,-1.9325,4.424
1.285000,3.6663,1.5100,-2.0378,4.458
1.293000,3.6257,1.6542,-2.2283,4.566
1.297000,3.6446,1.7346,-2.0123,4.510
1.301000,3.5177,1.7248,-1.8310,4.325
1.306000,3.1962,1.8002,-1.9086,4.135
1.310000,2.6902,2.2424,-2.3406,4.212
1.315000,2.2112,3.1397,-3.3431,5.092
1.321000,1.6502,3.8075,-3.2539,5.273
1.326000,1.2948,4.1714,-2.4949,5.030
1.330000,1.1592,4.2333,-1.3895,4.604
1.336000,1.1892,4.1006,-0.1051,4.271
1.340000,1.5331,3.8177,1.3347,4.325
1.346000,2.1046,3.6099,2.5472,4.894
1.397000,2.7800,3.5392,3.3999,5.640
1.398000,3.2778,3.5085,3.7898,6.117
1.398000,3.5003,3.3768,4.0557,6.333
1.399000,3.4053,3.2730,4.1942,6.317
1.399000,2.9185,2.8552,4.2992,5.929
1.399000,2.0346,2.0142,4.1349,5.029
1.400000,1.0062,1.1726,3.5007,3.827
1.400000,0.0825,0.6790,2.6914,2.777
1.400000,-0.7590,0.5333,1.8973,2.112
1.400000,-1.3288,0.6111,1.2180,1.903
1.401000,-1.5081,0.8468,0.6406,1.844
1.405000,-1.3204,1.2107,0.0099,1.791
1.412000,-0.8353,1.7352,-0.6585,2.035
1.416000,0.0010,2.4088,-1.2746,2.725
1.421000,1.0440,3.1260,-1.6977,3.707
1.426000,2.0373,3.8002,-0.9257,4.410
1.431000,2.4328,4.4426,0.3789,5.079
1.437000,2.4728,5.0129,1.1733,5.711
1.441000,2.6715,5.2112,1.1926,5.976
1.446000,3.0390,5.0430,0.7299,5.933
1.485000,3.2853,4.7922,-0.1424,5.812
1.486000,3.3044,4.6956,-1.2775,5.882
1.487000,3.1161,4.7692,-2.1710,6.097
1.487000,2.7577,4.8393,-2.3534,6.047
1.487000,2.0481,4.6556,-1.8504,5.412
1.488000,1.0035,4.2076,-0.9366,4.426
1.488000,0.2030,3.7285,0.0724,3.735
1.488000,-0.1116,3.4907,0.9402,3.617
1.492000,-0.0688,3.6006,1.4032,3.865
1.497000,0.2225,3.9042,1.6369,4.239
1.502000,0.7968,4.2331,1.5737,4.586
1.506000,1.5330,4.4549,1.3276,4.895
1.511000,2.2145,4.5214,1.0242,5.138
1.517000,2.6923,4.5470,0.7167,5.333
1.523000,3.1098,4.6990,0.3676,5.647
1.527000,3.4872,4.8447,0.4076,5.983
1.531000,3.8051,5.0767,0.4006,6.357
1.537000,3.9838,5.1624,0.5934,6.548
1.544000,3.8970,5.1308,0.9370,6.511
1.546000,3.6732,5.0641,1.2284,6.375
1.600000,3.4761,4.9393,1.5389,6.233
1.600000,3.3274,4.7636,1.8602,6.101
1.601000,3.1938,4.5039,2.1131,5.912
1.601000,3.0664,4.1730,2.1616,5.612
1.601000,2.8762,3.7784,2.0886,5.188
1.602000,2.7144,3.4476,1.9575,4.805
1.602000,2.6167,3.2018,1.8844,4.544
1.602000,2.6067,3.0169,1.8447,4.393
1.603000,2.6575,2.8900,1.7641,4.304
1.603000,2.5178,3.0674,0.8903,4.067
1.603000,2.6152,3.3502,0.0430,4.250
1.612000,2.8391,3.3436,0.5325,4.419
1.613000,3.2401,3.1480,1.3084,4.703
1.617000,3.5951,2.9739,1.5190,4.907
1.625000,3.9580,2.7657,1.8309,5.164
1.628000,4.3823,2.5581,2.2871,5.566
1.637000,4.8901,2.3522,2.7353,6.077
1.638000,5.4079,2.1658,2.9083,6.511
1.642000,5.8394,1.9551,2.7247,6.734
1.646000,6.0388,1.7132,2.3549,6.704
1.653000,5.9365,1.4627,1.8776,6.396
1.657000,5.6831,1.1525,1.3549,5.955
1.661000,5.4309,0.8053,0.8514,5.556
1.666000,5.3386,0.4553,0.4440,5.376
1.707000,5.5848,0.3627,-0.1298,5.598
1.708000,5.6871,0.1174,-0.2405,5.693
1.708000,5.6195,-0.2043,-0.2089,5.627
1.708000,5.4684,-0.4944,-0.2250,5.495
1.709000,5.3738,-0.6232,-0.2573,5.416
1.709000,5.3475,-0.5549,-0.2499,5.382
1.709000,5.2486,-0.3206,-0.1717,5.261
1.710000,5.0779,0.0032,0.0125,5.078
1.712000,5.0102,0.3951,0.2586,5.032
1.717000,5.1574,0.7924,0.4941,5.241
1.721000,5.4811,1.1758,0.6835,5.647
1.728000,5.9058,1.4439,0.8269,6.136
1.731000,6.3182,1.5411,0.9509,6.573
1.737000,6.6412,1.4858,1.0534,6.886
1.743000,6.8313,1.2871,1.1488,7.046
1.747000,6.8324,0.9698,1.2952,7.021
1.753000,6.6427,0.5367,1.4013,6.810
1.757000,6.2375,0.0341,1.4261,6.399
1.762000,5.6758,-0.4862,1.4076,5.868
1.766000,5.1030,-0.9827,1.3469,5.368
1.815000,4.5390,-1.4763,1.2162,4.926
1.818000,4.1862,-1.9941,0.9286,4.729
1.818000,4.3835,-2.5241,0.5198,5.085
1.819000,5.0671,-3.0213,-0.0166,5.899
1.820000,5.9524,-3.4776,-0.8030,6.940
1.820000,6.7935,-3.9165,-1.7578,8.036
1.822000,7.3750,-4.3377,-2.8071,9.005
1.822000,7.5867,-4.6841,-3.8136,9.698
1.823000,7.4988,-4.9096,-4.6781,10.110
1.824000,7.2196,-5.0037,-5.3355,10.278
1.825000,6.8697,-4.9778,-5.7504,10.249
1.828000,6.5543,-4.8749,-5.9337,10.096
1.833000,6.3719,-4.6992,-5.8899,9.868
1.838000,6.2622,-4.4947,-5.6950,9.584
1.842000,6.1363,-4.2332,-5.4360,9.226
1.848000,6.0512,-3.9444,-5.0802,8.831
1.852000,5.9639,-3.6170,-4.6914,8.406
1.858000,5.8891,-3.2985,-4.3156,8.012
1.863000,5.7907,-2.9873,-3.9988,7.645
1.868000,5.7213,-2.6694,-3.6789,7.307
1.874000,5.5945,-2.3452,-3.3849,6.947
1.877000,5.3843,-2.0415,-3.0812,6.531
1.883000,5.1001,-1.7568,-2.7618,6.060
1.889000,4.8003,-1.5021,-2.4552,5.597
1.894000,4.4942,-1.2828,-2.1951,5.164
1.897000,4.1127,-1.1230,-1.9717,4.697
1.955000,3.7275,-1.0155,-1.7609,4.246
1.955000,3.3439,-0.9559,-1.5895,3.824
1.956000,2.9526,-0.9424,-1.4582,3.425
1.956000,2.5464,-0.9685,-1.3670,3.048
1.956000,2.1493,-1.0217,-1.2529,2.689
1.957000,1.7806,-1.0900,-1.0537,2.339
1.957000,1.5215,-1.1622,-0.8323,2.088
1.958000,1.4676,-1.2159,-0.6685,2.020
1.958000,1.6560,-1.2531,-0.5145,2.139
1.958000,1.8756,-1.4705,-0.7546,2.500
1.958000,2.0722,-1.6717,-1.0114,2.848
1.959000,2.1897,-1.8307,-1.2062,3.099
1.969000,2.0887,-2.0328,-1.4058,3.236
1.970000,1.8947,-2.2374,-1.7287,3.404
1.983000,2.0330,-1.7972,-2.4568,3.660
1.984000,1.8647,-1.8710,-2.6041,3.709
1.984000,1.1992,-2.4803,-2.3089,3.595
2.001000,0.4044,-3.3150,-2.1734,3.985
2.002000,-0.3450,-4.1033,-2.2553,4.695
2.002000,-0.9925,-4.7568,-2.3689,5.406
2.003000,-1.5762,-5.2199,-2.4642,5.984
2.082000,-2.0193,-5.3417,-2.6758,6.306
2.083000,-2.1441,-5.0097,-3.0401,6.240
2.083000,-2.5006,-5.0694,-2.9688,6.385
2.083000,-2.9380,-5.3139,-2.9232,6.739
2.084000,-3.3620,-5.7555,-2.8692,7.257
2.084000,-3.6805,-6.2320,-2.8782,7.789
2.085000,-3.7646,-6.5273,-3.1728,8.176
2.085000,-3.6665,-6.7361,-3.4997,8.430
2.085000,-3.4441,-6.8715,-3.8416,8.593
2.086000,-3.1987,-6.9209,-4.2098,8.709
2.086000,-3.0053,-6.9712,-4.4649,8.807
2.087000,-2.9135,-7.0084,-4.6485,8.900
2.087000,-2.9398,-7.0427,-4.7615,8.995
2.088000,-3.0218,-7.0462,-4.9479,9.125
2.088000,-3.0736,-7.0289,-5.1356,9.232
2.088000,-3.0812,-7.0386,-5.1931,9.274
2.089000,-3.1375,-7.0969,-5.0567,9.262
2.097000,-3.2352,-7.1680,-4.8374,9.233
2.097000,-2.8729,-6.6945,-4.7319,8.687
2.112000,-2.8091,-6.7178,-4.0299,8.322
2.112000,-3.0033,-7.1186,-3.3306,8.413
2.113000,-3.2873,-7.7397,-2.6902,8.829
2.118000,-3.5910,-8.4028,-2.1578,9.389
2.127000,-3.8831,-8.9592,-1.8033,9.930
2.130000,-3.8630,-8.4701,-2.3718,9.607
2.132000,-3.7601,-8.2640,-2.5547,9.432
2.208000,-3.8697,-8.3761,-2.4432,9.545
2.209000,-4.1522,-8.7181,-2.2488,9.915
2.209000,-4.4964,-9.1301,-2.1225,10.396
2.209000,-4.8258,-9.6062,-2.0376,10.942
2.210000,-5.0662,-10.0496,-2.0978,11.448
2.210000,-5.2260,-10.3520,-2.2205,11.807
2.211000,-5.3329,-10.4585,-2.3823,11.979
2.212000,-5.4859,-10.3603,-2.6961,12.029
2.213000,-5.6096,-9.9004,-3.0975,11.793
2.213000,-5.6860,-9.2615,-3.4051,11.389
2.214000,-5.8083,-8.7636,-3.5083,11.084
2.214000,-5.9525,-8.5959,-3.3547,10.981
2.215000,-6.0803,-8.7818,-2.9451,11.080
2.218000,-6.1892,-9.1825,-2.4496,11.341
2.220000,-6.2960,-9.6202,-2.1053,11.689
2.220000,-6.4178,-9.9539,-1.9260,11.999
2.221000,-6.4086,-9.7341,-2.0523,11.834
2.224000,-6.1520,-8.7887,-2.4653,11.008
2.228000,-6.4395,-8.7671,-2.4996,11.161
2.233000,-6.8969,-9.0512,-2.2751,11.605
2.239000,-7.2250,-9.5028,-2.1329,12.127
2.243000,-7.5100,-9.9392,-1.9393,12.608
2.249000,-7.8190,-10.3717,-1.6805,13.097
2.256000,-8.0775,-10.7608,-1.4028,13.528
2.259000,-8.1926,-11.0360,-1.1498,13.792
2.264000,-8.2925,-11.2668,-0.9635,14.023
2.270000,-8.3511,-11.4404,-0.9036,14.193
2.274000,-8.2439,-11.4796,-0.9702,14.166
2.277000,-7.9830,-11.3728,-1.1196,13.940
2.284000,-7.5756,-11.1968,-1.3344,13.585
2.343000,-7.0672,-11.0090,-1.5609,13.175
2.344000,-6.4641,-10.8419,-1.7686,12.746
2.344000,-5.7349,-10.6402,-2.0104,12.253
2.345000,-4.8883,-10.3927,-2.2917,11.711
2.345000,-3.9883,-10.1410,-2.5938,11.202
2.346000,-3.0917,-9.9165,-2.8474,10.770
2.346000,-2.2525,-9.7172,-3.0627,10.434
2.347000,-1.4634,-9.5745,-3.1988,10.200
2.347000,-0.7333,-9.4820,-3.2390,10.047
2.348000,-0.0260,-9.4383,-3.1668,9.955
2.348000,0.6899,-9.4219,-3.0043,9.913
2.348000,1.3984,-9.4357,-2.7788,9.935
2.349000,2.0518,-9.4673,-2.5338,10.013
2.356000,2.5714,-9.4835,-2.2603,10.083
2.358000,3.0199,-9.5704,-1.9299,10.219
2.364000,3.4165,-9.7307,-1.5618,10.431
2.372000,3.7232,-9.9177,-1.2158,10.663
2.376000,3.9422,-10.0737,-0.9249,10.857
2.378000,4.0761,-10.1684,-0.7145,10.978
2.383000,4.1395,-10.1533,-0.5558,10.979
2.442000,4.1690,-10.0149,-0.4652,10.858
2.443000,4.2170,-9.7526,-0.4328,10.634
2.443000,4.3176,-9.3865,-0.4248,10.341
2.443000,4.5019,-8.9479,-0.3947,10.024
2.444000,4.7646,-8.4470,-0.3533,9.705
2.444000,5.0676,-7.8783,-0.3064,9.372
2.444000,5.3758,-7.2573,-0.2431,9.035
2.445000,5.6678,-6.5956,-0.1555,8.698
2.445000,5.9789,-5.8798,-0.0501,8.386
2.445000,6.3133,-5.1492,0.0974,8.148
2.446000,6.6633,-4.4194,0.2849,8.001
2.446000,7.0047,-3.6996,0.4884,7.937
2.450000,7.3259,-2.9957,0.6964,7.945
2.455000,7.6149,-2.3050,0.9087,8.008
2.460000,7.8398,-1.6449,1.0799,8.083
2.464000,7.9926,-1.0111,1.2507,8.153
2.472000,8.0941,-0.4041,1.4019,8.225
2.474000,8.1087,0.1553,1.5857,8.264
2.479000,8.0252,0.6626,1.7440,8.239
2.483000,7.8492,1.1239,1.8357,8.139
2.541000,7.6286,1.5324,1.9033,8.010
2.542000,7.4087,1.8864,1.9013,7.878
2.543000,7.2405,2.2132,1.8394,7.791
2.543000,7.1104,2.5619,1.7675,7.762
2.543000,6.9975,2.9381,1.6760,7.772
2.544000,6.9159,3.3587,1.5861,7.850
2.544000,6.8582,3.7566,1.5335,7.969
2.545000,6.7932,4.1391,1.4983,8.095
2.545000,6.7141,4.4735,1.4568,8.198
2.545000,6.5963,4.7563,1.4127,8.254
2.546000,6.4476,4.9673,1.3564,8.251
2.546000,6.2615,5.1622,1.2570,8.212
2.550000,6.0717,5.3487,1.1555,8.174
2.555000,5.9075,5.5565,1.0475,8.177
2.559000,5.7964,5.8110,0.9691,8.265
2.563000,5.7218,6.1055,0.9373,8.420
2.571000,5.6882,6.4208,0.9424,8.630
2.575000,5.6953,6.7231,1.0057,8.868
2.578000,5.7428,6.9956,1.1508,9.124
2.583000,5.8332,7.2313,1.3031,9.382
2.638000,5.9629,7.4245,1.4426,9.631
2.639000,6.1055,7.5872,1.5553,9.862
2.641000,6.2221,7.7266,1.6485,10.056
2.642000,6.2504,7.8428,1.7270,10.176
2.643000,6.1929,7.9336,1.8030,10.225
2.645000,6.0350,7.9891,1.9023,10.191
2.646000,5.8038,7.9957,2.0081,10.082
2.647000,5.5405,7.9418,2.1442,9.918
2.648000,5.2912,7.8302,2.3267,9.732
2.649000,5.0635,7.6730,2.5360,9.537
2.649000,4.8655,7.4707,2.7476,9.329
2.650000,4.7067,7.2617,2.9274,9.135
2.650000,4.6310,7.0248,3.0922,8.964
2.654000,4.6099,6.7604,3.2203,8.793
2.659000,4.6225,6.4856,3.2926,8.618
2.664000,4.6499,6.2128,3.2761,8.423
2.672000,4.6949,5.9759,3.1544,8.228
2.676000,4.8174,5.7966,2.9550,8.096
2.679000,5.0771,5.6968,2.7169,8.100
2.684000,5.4781,5.7122,2.4866,8.296
2.744000,5.9022,5.7898,2.3888,8.606
2.745000,6.3370,5.8502,2.4571,8.968
2.745000,6.7502,5.7947,2.7455,9.310
2.746000,7.1492,5.5489,3.1807,9.593
2.746000,7.5199,5.1078,3.7015,9.815
2.746000,7.8674,4.5337,4.1579,9.987
2.747000,8.2330,3.9557,4.4416,10.157
2.747000,8.5785,3.4554,4.5476,10.306
2.748000,8.8997,3.1286,4.4792,10.443
2.748000,9.2300,2.9922,4.2687,10.600
2.748000,9.5692,3.0032,3.9699,10.787
2.749000,9.9505,3.1210,3.6202,11.039
2.749000,10.3661,3.2763,3.2640,11.351
2.758000,10.7870,3.4788,2.9524,11.712
2.760000,11.2197,3.7594,2.6861,12.134
2.765000,11.6154,4.0769,2.5060,12.563
2.773000,11.9444,4.4114,2.4713,12.971
2.775000,12.1441,4.7073,2.5787,13.277
2.779000,12.1906,4.9185,2.7741,13.435
2.783000,12.1603,5.0111,3.0082,13.492
2.840000,12.1037,4.9774,3.2628,13.488
2.841000,12.0399,4.8219,3.4795,13.428
2.842000,11.9829,4.5417,3.6191,13.316
2.843000,11.9332,4.1347,3.6768,13.154
2.845000,11.9053,3.6175,3.6456,12.966
2.847000,11.9472,3.0574,3.5237,12.826
2.849000,12.0853,2.4979,3.3001,12.774
2.849000,12.2856,1.9604,3.0218,12.803
2.850000,12.4975,1.4472,2.7444,12.877
2.851000,12.6927,0.9375,2.4770,12.966
2.851000,12.8707,0.4335,2.2081,13.066
2.852000,13.0174,-0.0407,1.9580,13.164
2.852000,13.1062,-0.4491,1.7322,13.228
2.856000,13.0600,-0.8091,1.5408,13.175
2.859000,12.8608,-1.1009,1.3871,12.982
2.864000,12.4607,-1.3536,1.2851,12.600
2.870000,11.9015,-1.5599,1.2249,12.066
2.874000,11.2490,-1.7314,1.2225,11.447
2.879000,10.5356,-1.9157,1.2440,10.780
2.892000,9.7714,-2.1176,1.3027,10.083
2.893000,9.0373,-2.2828,1.3914,9.424
2.894000,8.3525,-2.3642,1.4829,8.806
2.899000,7.7313,-2.3619,1.5481,8.231
2.904000,7.2000,-2.2718,1.5863,7.715
2.909000,6.7413,-2.1764,1.5778,7.258
2.914000,6.3397,-2.1080,1.5439,6.857
2.966000,6.0113,-2.0843,1.4841,6.533
2.967000,5.7445,-2.1127,1.3956,6.278
2.967000,5.5272,-2.1741,1.2543,6.070
2.967000,5.3525,-2.2566,1.0819,5.909
2.968000,5.1935,-2.3800,0.8904,5.782
2.968000,5.0442,-2.5092,0.7259,5.680
2.969000,4.8848,-2.6426,0.5959,5.586
2.969000,4.7130,-2.7876,0.5077,5.499
2.969000,4.5022,-2.9826,0.4497,5.419
2.970000,4.2857,-3.1808,0.4266,5.354
2.971000,4.0359,-3.4211,0.4079,5.306
2.979000,3.7478,-3.7161,0.3979,5.293
2.979000,3.4626,-4.0775,0.4063,5.365
2.985000,3.1854,-4.5073,0.4022,5.534
2.992000,2.9351,-4.9389,0.3666,5.757
2.994000,2.6887,-5.3386,0.2647,5.983
3.000000,2.4435,-5.6852,0.1230,6.189
3.006000,2.1780,-5.9687,-0.0840,6.354
3.010000,1.9137,-6.1955,-0.2817,6.490
3.014000,1.6673,-6.3891,-0.4408,6.618
3.072000,1.4409,-6.5912,-0.5498,6.769
3.073000,1.2038,-6.8063,-0.6486,6.942
3.073000,0.9630,-7.0305,-0.7279,7.133
3.073000,0.7515,-7.2254,-0.8088,7.309
3.074000,0.5503,-7.3764,-0.9034,7.452
3.074000,0.3803,-7.4635,-1.0162,7.542
3.074000,0.2393,-7.5180,-1.1372,7.607
3.075000,0.1437,-7.5605,-1.2496,7.664
3.075000,0.0693,-7.6436,-1.3678,7.765
3.075000,0.0186,-7.7485,-1.4798,7.889
3.076000,-0.0303,-7.8715,-1.6000,8.033
3.076000,-0.0769,-8.0315,-1.7235,8.215
3.085000,-0.1333,-8.2033,-1.8459,8.409
3.086000,-0.1947,-8.4031,-1.9597,8.631
3.090000,-0.2420,-8.6045,-2.0654,8.852
3.096000,-0.2749,-8.8074,-2.1320,9.066
3.100000,-0.3149,-9.0226,-2.1767,9.287
3.106000,-0.3714,-9.2523,-2.2287,9.524
3.113000,-0.4418,-9.4880,-2.2880,9.770
3.114000,-0.5239,-9.7391,-2.3143,10.024
3.121000,-0.6340,-9.9746,-2.3318,10.263
3.124000,-0.7649,-10.2430,-2.3408,10.535
3.129000,-0.9022,-10.5109,-2.3611,10.811
3.197000,-1.0531,-10.7694,-2.3663,11.077
3.198000,-1.2127,-11.0330,-2.3614,11.348
3.199000,-1.3931,-11.3013,-2.3515,11.627
3.199000,-1.5966,-11.5909,-2.3224,11.929
3.200000,-1.8257,-11.8858,-2.2931,12.242
3.200000,-2.0763,-12.1666,-2.2611,12.548
3.201000,-2.3532,-12.4367,-2.2478,12.855
3.201000,-2.6566,-12.6885,-2.2458,13.157
3.201000,-3.0062,-12.9145,-2.2477,13.449
3.202000,-3.3518,-13.0652,-2.2746,13.679
3.202000,-3.7156,-13.1673,-2.3197,13.877
3.203000,-4.1049,-13.2000,-2.4017,14.031
3.203000,-4.5201,-13.1919,-2.5061,14.168
3.204000,-4.9496,-13.1188,-2.6422,14.268
3.209000,-5.3697,-12.9997,-2.7909,14.339
3.210000,-5.7710,-12.8542,-2.9520,14.396
3.216000,-6.1566,-12.7020,-3.1073,14.453
3.223000,-6.4858,-12.5628,-3.2351,14.504
3.228000,-6.7372,-12.5080,-3.2905,14.583
3.230000,-6.9040,-12.5876,-3.2648,14.723
3.287000,-7.0005,-12.8038,-3.1679,14.933
3.289000,-7.0703,-13.1002,-3.0416,15.194
3.291000,-7.1376,-13.3884,-2.9478,15.456
3.293000,-7.2051,-13.5728,-2.9225,15.642
3.294000,-7.3231,-13.6270,-2.9585,15.750
3.296000,-7.5396,-13.5395,-3.0078,15.786
3.297000,-7.8762,-13.4251,-3.0247,15.856
3.301000,-8.3117,-13.2976,-2.9833,15.963
3.303000,-8.8176,-13.2119,-2.8711,16.141
3.305000,-9.3606,-13.1839,-2.7100,16.395
3.307000,-9.8931,-13.1914,-2.5462,16.684
3.308000,-10.4201,-13.2216,-2.3991,17.004
3.309000,-10.8918,-13.2281,-2.2787,17.286
3.310000,-10.9018,-13.1958,-2.1948,17.257
3.312000,-11.2950,-13.1335,-2.1593,17.456
3.312000,-11.5903,-13.0215,-2.1559,17.565
3.317000,-11.7401,-12.8876,-2.1913,17.571
3.321000,-11.7080,-12.7660,-2.2725,17.470
3.327000,-10.9201,-12.6420,-2.3895,16.875
3.331000,-10.1682,-12.5494,-2.5157,16.346
3.339000,-9.2551,-12.4817,-2.6150,15.757
3.343000,-8.1921,-12.3872,-2.6990,15.094
3.345000,-7.0382,-12.2786,-2.7796,14.423
3.351000,-5.8369,-12.1520,-2.8594,13.781
3.410000,-4.6666,-12.0366,-2.9434,13.241
3.412000,-3.5406,-11.9288,-3.0099,12.802
3.413000,-2.4486,-11.8130,-3.0973,12.455
3.415000,-1.4668,-11.6866,-3.1770,12.199
3.417000,-0.6178,-11.5482,-3.2559,12.014
3.418000,0.0769,-11.3640,-3.2716,11.826
3.420000,0.5796,-11.1825,-3.2026,11.646
3.422000,0.8786,-11.0376,-3.0083,11.474
3.423000,0.9768,-10.9557,-2.7224,11.331
3.425000,0.9198,-10.9568,-2.3070,11.235
3.426000,0.7370,-11.0091,-1.7985,11.179
3.428000,0.5172,-11.0941,-1.2810,11.180
3.428000,0.3013,-11.1895,-0.7999,11.222
3.429000,0.1204,-11.2779,-0.3473,11.284
3.429000,-0.0253,-11.3431,0.0963,11.343
3.432000,-0.1071,-11.3563,0.5271,11.369
3.444000,-0.0719,-11.3376,0.9356,11.376
3.446000,0.1091,-11.2609,1.2911,11.335
3.446000,0.4075,-11.1312,1.5653,11.248
3.450000,0.7996,-10.9417,1.7898,11.116
3.506000,1.3024,-10.7058,2.0082,10.970
3.508000,1.9034,-10.4250,2.2287,10.829
3.509000,2.5908,-10.1057,2.4491,10.716
3.511000,3.3311,-9.7301,2.6698,10.625
3.512000,4.1216,-9.3017,2.8505,10.566
3.513000,4.9267,-8.8154,2.9867,10.531
3.515000,5.7376,-8.2686,3.0762,10.524
3.516000,6.5403,-7.6561,3.1235,10.543
3.518000,7.3439,-6.9955,3.1238,10.613
3.519000,8.1022,-6.2709,3.0940,10.703
3.522000,8.8155,-5.4820,3.0965,10.833
3.523000,9.4719,-4.6514,3.1027,10.999
3.525000,10.0351,-3.7522,3.1511,11.167
3.526000,10.4733,-2.8114,3.2705,11.326
3.528000,10.7710,-1.8300,3.4869,11.468
3.532000,10.9227,-0.8564,3.7544,11.582
3.544000,10.9376,0.0665,4.0799,11.674
3.548000,10.8109,0.9002,4.4479,11.725
3.549000,10.5739,1.6290,4.8361,11.741
3.592000,10.2526,2.2622,5.1927,11.713
3.592000,9.9211,2.8004,5.4471,11.659
3.593000,9.6404,3.2637,5.5577,11.596
3.593000,9.4564,3.6679,5.5113,11.543
3.594000,9.3769,4.0166,5.3031,11.497
3.594000,9.3993,4.3057,4.9167,11.448
3.594000,9.4966,4.5620,4.3574,11.401
3.595000,9.6231,4.7957,3.6524,11.355
3.595000,9.8079,5.0133,2.8675,11.382
3.595000,10.0090,5.2239,2.0900,11.482
3.601000,10.2599,5.4406,1.4043,11.698
3.606000,10.5314,5.6587,0.8422,11.985
3.610000,10.7773,5.8760,0.3799,12.281
3.615000,10.9517,6.0736,-0.0059,12.523
3.621000,11.0319,6.2508,-0.3225,12.684
3.628000,10.9727,6.3652,-0.5484,12.697
3.630000,10.7790,6.4122,-0.6691,12.560
3.683000,10.4489,6.3852,-0.6946,12.265
3.683000,9.9740,6.2681,-0.6465,11.798
3.684000,9.3717,6.0902,-0.5231,11.189
3.684000,8.7251,5.8693,-0.3410,10.521
3.684000,8.0713,5.6277,-0.1389,9.841
3.685000,7.4639,5.4018,0.0446,9.214
3.685000,6.9372,5.1827,0.2238,8.662
3.685000,6.5280,4.9780,0.4227,8.220
3.685000,6.1955,4.7853,0.6094,7.852
3.686000,5.9353,4.6095,0.8057,7.558
3.686000,5.7241,4.4582,0.9921,7.323
3.692000,5.5955,4.3552,1.1492,7.183
3.696000,5.5617,4.3222,1.2771,7.159
3.702000,5.5936,4.3612,1.3659,7.223
3.706000,5.7101,4.4530,1.4230,7.380
3.711000,5.8296,4.5950,1.4560,7.564
3.716000,5.9518,4.7848,1.5224,7.787
3.721000,6.0885,5.0199,1.6200,8.056
3.727000,6.2491,5.2402,1.7918,8.350
3.731000,6.4234,5.3807,2.0682,8.631
3.783000,6.6232,5.3911,2.4867,8.895
3.784000,6.8725,5.2352,3.0150,9.150
3.784000,7.1451,4.9082,3.5654,9.373
3.785000,7.4174,4.4674,4.0218,9.547
3.785000,7.7040,4.0419,4.2710,9.692
3.785000,8.0053,3.7159,4.2849,9.811
3.786000,8.3572,3.5444,4.0695,9.948
3.786000,8.8072,3.4893,3.7173,10.176
3.786000,9.3278,3.5196,3.3329,10.512
3.787000,9.8754,3.5466,3.0302,10.922
3.787000,10.3963,3.5725,2.8069,11.346
3.792000,10.8709,3.5945,2.6371,11.750
3.797000,11.3129,3.6771,2.4538,12.146
3.802000,11.6765,3.8128,2.3169,12.500
3.807000,11.9540,3.9747,2.2502,12.797
3.811000,12.1496,4.1219,2.2701,13.029
3.816000,12.2466,4.1846,2.3616,13.156
3.822000,12.2832,4.1748,2.4813,13.208
3.827000,12.2525,4.0779,2.6308,13.179
3.832000,12.1999,3.9154,2.8022,13.116
3.840000,12.1523,3.6848,2.9641,13.040
3.841000,12.1527,3.4004,3.0753,12.989
3.846000,12.2061,3.0551,3.1477,12.970
3.920000,12.3243,2.6487,3.1788,13.000
3.921000,12.4596,2.2197,3.1640,13.045
3.922000,12.5858,1.7703,3.0795,13.077
3.922000,12.6990,1.3178,2.9544,13.105
3.923000,12.8135,0.8812,2.7843,13.142
3.923000,12.9150,0.4847,2.5768,13.179
3.924000,12.9993,0.1069,2.2821,13.199
3.924000,13.0111,-0.2309,1.9225,13.154
3.924000,12.9586,-0.4989,1.5182,13.057
3.925000,12.8750,-0.6616,1.1106,12.940
3.925000,12.7817,-0.7139,0.7053,12.821
3.925000,12.6138,-0.6516,0.3391,12.635
3.926000,12.3324,-0.5083,0.0626,12.343
3.926000,11.9466,-0.3234,-0.0695,11.951
3.926000,11.4669,-0.1206,-0.0482,11.468
3.929000,10.9433,0.0703,0.0462,10.944
3.933000,10.3761,0.2009,0.1621,10.379
3.937000,9.7921,0.2876,0.2724,9.800
3.942000,9.1910,0.3103,0.3882,9.204
3.946000,8.6007,0.2508,0.4902,8.618
3.954000,8.0689,0.1372,0.5896,8.092
3.957000,7.6198,-0.0498,0.6551,7.648
3.961000,7.2634,-0.2887,0.6747,7.300
3.966000,6.9778,-0.5729,0.6793,7.034
4.026000,6.7263,-0.8792,0.6387,6.813
4.027000,6.4869,-1.2106,0.5796,6.624
4.027000,6.2575,-1.5239,0.5261,6.462
4.027000,6.0120,-1.8358,0.4860,6.305
4.028000,5.7412,-2.1582,0.4952,6.153
4.028000,5.4473,-2.4995,0.5651,6.020
4.028000,5.1250,-2.8311,0.6744,5.894
4.029000,4.8075,-3.1446,0.7962,5.800
4.029000,4.5000,-3.4738,0.9278,5.760
4.029000,4.1860,-3.8378,1.0119,5.768
4.030000,3.8515,-4.2603,1.0347,5.836
4.030000,3.4772,-4.7301,0.9964,5.955
4.031000,3.0812,-5.2342,0.9270,6.144
4.038000,2.6802,-5.7684,0.8366,6.415
4.042000,2.2817,-6.2860,0.6755,6.721
4.047000,1.9048,-6.7882,0.4281,7.063
4.055000,1.5658,-7.2083,0.1311,7.378
4.060000,1.2627,-7.5501,-0.1613,7.657
4.061000,0.9996,-7.8430,-0.4057,7.917
4.066000,0.7451,-8.1055,-0.6066,8.162
4.128000,0.5063,-8.3374,-0.7686,8.388
4.129000,0.2945,-8.5471,-0.8872,8.598
4.130000,0.0936,-8.7249,-0.9862,8.781
4.130000,-0.1090,-8.8769,-1.0830,8.943
4.130000,-0.3249,-8.9916,-1.1802,9.075
4.131000,-0.5877,-9.0738,-1.2788,9.182
4.131000,-0.8824,-9.1284,-1.3531,9.270
4.132000,-1.1612,-9.1784,-1.3897,9.355
4.132000,-1.4164,-9.2599,-1.4178,9.474
4.132000,-1.6840,-9.3528,-1.4402,9.612
4.133000,-1.9616,-9.4716,-1.4667,9.783
4.133000,-2.2467,-9.6043,-1.4807,9.974
4.133000,-2.5537,-9.7570,-1.5035,10.197
4.139000,-2.8493,-9.9319,-1.5280,10.445
4.145000,-3.1408,-10.1564,-1.5656,10.746
4.149000,-3.4523,-10.4107,-1.5852,11.082
4.154000,-3.7527,-10.6992,-1.5844,11.448
4.157000,-4.0541,-11.0139,-1.6160,11.847
4.161000,-4.3828,-11.3312,-1.6895,12.266
4.173000,-4.7034,-11.6549,-1.7933,12.695
4.174000,-5.0449,-11.9874,-1.8938,13.143
4.177000,-5.3623,-12.3062,-1.9764,13.568
4.181000,-5.6229,-12.5602,-2.0507,13.913
4.238000,-5.8247,-12.7716,-2.1235,14.197
4.239000,-5.9661,-12.9170,-2.1853,14.395
4.240000,-6.0762,-13.0168,-2.2237,14.536
4.240000,-6.1746,-13.0877,-2.2242,14.641
4.240000,-6.2472,-13.1300,-2.2086,14.707
4.241000,-6.3012,-13.1448,-2.2197,14.745
4.241000,-6.3682,-13.1283,-2.2844,14.769
4.242000,-6.4315,-13.0433,-2.4002,14.739
4.242000,-6.4982,-12.8995,-2.5693,14.671
4.243000,-6.6021,-12.7021,-2.7774,14.582
4.243000,-6.7648,-12.4367,-3.0029,14.472
4.244000,-6.9577,-12.1352,-3.2600,14.363
4.249000,-7.1641,-11.8155,-3.5109,14.257
4.252000,-7.3602,-11.5091,-3.7344,14.163
4.257000,-7.5099,-11.2925,-3.8760,14.105
4.263000,-7.5965,-11.2086,-3.9174,14.096
4.268000,-7.6201,-11.3074,-3.8445,14.167
4.273000,-7.6381,-11.5689,-3.7182,14.353
4.278000,-7.6699,-11.8877,-3.5889,14.595
4.282000,-7.7752,-12.1677,-3.4879,14.855
4.290000,-7.9758,-12.3465,-3.4271,15.093
4.293000,-8.2431,-12.4167,-3.4019,15.287
4.297000,-8.5414,-12.4141,-3.4070,15.449
4.369000,-8.8661,-12.3933,-3.3924,15.611
4.372000,-9.1957,-12.4159,-3.3389,15.807
4.373000,-9.5185,-12.4789,-3.2327,16.024
4.376000,-9.7867,-12.6007,-3.0813,16.250
4.377000,-9.9814,-12.7469,-2.9088,16.449
4.378000,-10.1215,-12.8720,-2.7275,16.600
4.379000,-10.2069,-12.9492,-2.5831,16.689
4.380000,-10.2448,-12.9448,-2.4734,16.692
4.380000,-10.1964,-12.8608,-2.3984,16.587
4.382000,-9.9781,-12.7207,-2.3847,16.342
4.382000,-9.5675,-12.5638,-2.4368,15.979
4.383000,-8.9338,-12.3897,-2.5232,15.482
4.385000,-8.1220,-12.2133,-2.5835,14.893
4.387000,-7.2177,-12.0260,-2.6269,14.270
4.388000,-6.2107,-11.8578,-2.6530,13.646
4.389000,-5.1459,-11.6924,-2.6472,13.046
4.389000,-4.0725,-11.5783,-2.6094,12.548
4.390000,-3.0066,-11.4921,-2.5735,12.154
4.394000,-1.9619,-11.4634,-2.5565,11.908
4.398000,-0.9545,-11.4669,-2.5994,11.797
4.407000,-0.0632,-11.4856,-2.6875,11.796
4.411000,0.6957,-11.5199,-2.7674,11.868
4.413000,1.3197,-11.5785,-2.8314,11.992
4.418000,1.8210,-11.6113,-2.8790,12.101
4.492000,2.1588,-11.6732,-2.8426,12.207
4.494000,2.3238,-11.7255,-2.6910,12.253
4.494000,2.3357,-11.7830,-2.3935,12.248
4.495000,2.2810,-11.8380,-1.9978,12.220
4.495000,2.2200,-11.8602,-1.5764,12.169
4.496000,2.1556,-11.8395,-1.1579,12.090
4.496000,2.1193,-11.7852,-0.7254,11.996
4.497000,2.1188,-11.6912,-0.2813,11.885
4.497000,2.1684,-11.5433,0.1462,11.746
4.497000,2.2757,-11.3191,0.5266,11.558
4.498000,2.4573,-10.9830,0.8895,11.290
4.498000,2.6797,-10.5457,1.2500,10.952
4.499000,2.9528,-10.0399,1.6086,10.588
4.499000,3.2924,-9.4745,1.9518,10.218
4.499000,3.6961,-8.8416,2.2653,9.847
4.500000,4.1854,-8.1592,2.5851,9.527
4.503000,4.7384,-7.4550,2.8748,9.289
4.507000,5.3070,-6.7589,3.1342,9.147
4.514000,5.8628,-6.0538,3.3677,9.075
4.518000,6.3945,-5.3696,3.5200,9.062
4.524000,6.9045,-4.6696,3.6704,9.108
4.529000,7.3874,-3.9352,3.8045,9.194
4.532000,7.8185,-3.1527,3.9203,9.297
4.606000,8.1884,-2.3285,4.0972,9.448
4.608000,8.4750,-0.8705,4.5861,9.676
4.608000,8.6137,-0.6725,4.6097,9.793
4.609000,8.6945,0.0718,4.9718,10.016
4.609000,8.7021,0.7370,5.3941,10.265
4.609000,8.6959,1.3348,5.8036,10.540
4.610000,8.7024,1.8852,6.1710,10.834
4.610000,8.7217,2.3955,6.4327,11.099
4.611000,8.7348,2.8762,6.5715,11.303
4.611000,8.7290,3.3177,6.5799,11.424
4.612000,8.7206,3.7226,6.4505,11.468
4.612000,8.7243,4.0897,6.2072,11.462
4.612000,8.7696,4.3893,5.8206,11.404
4.613000,8.8789,4.6301,5.3364,11.347
4.613000,9.0616,4.8106,4.7456,11.304
4.613000,9.2913,4.9673,4.0896,11.302
4.621000,9.5156,5.0920,3.4200,11.321
4.624000,9.7283,5.2133,2.7662,11.379
4.630000,9.9251,5.3729,2.2035,11.499
4.634000,10.1250,5.5902,1.7635,11.699
4.640000,10.3179,5.8463,1.4605,11.949
4.643000,10.4389,6.1076,1.2659,12.160
4.648000,10.4788,6.3743,1.1698,12.321
4.701000,10.4296,6.6075,1.1525,12.400
4.702000,10.2556,6.8006,1.2091,12.365
4.703000,9.9238,6.9223,1.3128,12.171
4.703000,9.4538,6.9969,1.4536,11.851
4.704000,8.8873,7.0083,1.6385,11.436
4.704000,8.2777,6.9325,1.8784,10.959
4.704000,7.6595,6.7940,2.1346,10.459
4.705000,7.0742,6.6052,2.3898,9.969
4.705000,6.5372,6.3858,2.6267,9.509
4.706000,6.0562,6.1410,2.8265,9.076
4.706000,5.6298,5.8855,2.9717,8.670
4.709000,5.2634,5.6318,3.0485,8.289
4.714000,4.9479,5.3996,3.0694,7.941
4.718000,4.7291,5.1964,3.0828,7.673
4.724000,4.5710,5.0248,3.1322,7.480
4.729000,4.4715,4.8659,3.2442,7.362
4.733000,4.4564,4.7264,3.3822,7.324
4.738000,4.4948,4.6256,3.5033,7.340
4.744000,4.5530,4.5752,3.6047,7.393
4.748000,4.6069,4.5991,3.6961,7.486
4.806000,4.6783,4.6684,3.8372,7.642
4.807000,4.7621,4.7470,4.0965,7.874
4.807000,4.9276,4.7103,4.4946,8.165
4.808000,5.1628,4.4529,5.0521,8.486
4.808000,5.4603,3.9366,5.6863,8.812
4.808000,5.7940,3.2619,6.2330,9.114
4.809000,6.1525,2.5536,6.5480,9.341
4.809000,6.4858,1.9790,6.6099,9.470
4.809000,6.8086,1.5935,6.4486,9.512
4.810000,7.0995,1.4142,6.0970,9.464
4.810000,7.3991,1.4267,5.6503,9.419
4.810000,7.7311,1.5930,5.1964,9.450
4.814000,8.1448,1.8720,4.8753,9.675
4.819000,8.6584,2.1368,4.8021,10.129
4.823000,9.2395,2.3433,5.0025,10.765
4.829000,9.8342,2.4382,5.4056,11.484
4.835000,10.3867,2.4516,5.9040,12.196
4.840000,10.8867,2.4187,6.4023,12.859
4.846000,11.3386,2.3291,6.8489,13.450
4.848000,11.7397,2.1943,7.1635,13.927
4.903000,12.0681,2.0211,7.3222,14.260
4.904000,12.3378,1.8235,7.3371,14.470
4.905000,12.5317,1.6038,7.2161,14.550
4.905000,12.6761,1.3618,6.9533,14.522
4.906000,12.7395,1.0951,6.5638,14.373
4.906000,12.7125,0.7799,6.0993,14.122
4.906000,12.5644,0.4427,5.5894,13.759
4.907000,12.3217,0.1123,5.0588,13.320
4.907000,11.9880,-0.1938,4.5472,12.823
4.907000,11.6138,-0.4828,4.0763,12.318
4.908000,11.2334,-0.7685,3.6346,11.832
4.910000,10.8569,-1.0580,3.2177,11.373
4.915000,10.4992,-1.3318,2.7996,10.947
4.919000,10.1624,-1.5829,2.3732,10.555
4.924000,9.8216,-1.7743,1.9303,10.165
4.928000,9.4500,-1.9158,1.4948,9.757
4.933000,9.0482,-2.0145,1.0552,9.330
4.938000,8.6355,-2.0533,0.6477,8.900
4.944000,8.2239,-2.0493,0.2721,8.480
4.948000,7.8363,-1.9942,-0.0594,8.086
5.007000,7.5033,-1.9076,-0.3353,7.749
5.008000,7.2395,-1.8160,-0.5537,7.484
5.008000,7.0401,-1.7244,-0.7483,7.287
5.009000,6.8977,-1.6163,-0.9197,7.144
5.009000,6.7569,-1.4807,-1.0540,6.997
5.009000,6.6065,-1.3574,-1.1416,6.840
5.010000,6.4437,-1.2666,-1.1782,6.672
5.010000,6.2470,-1.1919,-1.1642,6.465
5.010000,6.0043,-1.1742,-1.0904,6.214
5.011000,5.7131,-1.2098,-0.9548,5.917
5.011000,5.3935,-1.2856,-0.7790,5.599
5.012000,5.0622,-1.3713,-0.6136,5.280
5.014000,4.7075,-1.4815,-0.4778,4.958
5.019000,4.3367,-1.5971,-0.3311,4.633
5.024000,3.9807,-1.7646,-0.1594,4.357
5.030000,3.6360,-2.0157,0.0091,4.157
5.034000,3.2785,-2.3749,0.1506,4.051
5.039000,2.9037,-2.7960,0.2248,4.037
5.044000,2.5384,-3.2043,0.2229,4.094
5.049000,2.1992,-3.5755,0.1697,4.201
5.066000,1.9051,-3.9053,0.0965,4.346
5.070000,1.6498,-4.2010,0.0450,4.514
5.071000,1.4065,-4.4946,0.0103,4.710
5.071000,1.1992,-4.8288,-0.0050,4.975
5.073000,1.0090,-5.2011,-0.0175,5.298
5.078000,0.9356,-5.5836,-0.0510,5.662
5.084000,0.7027,-5.9690,-0.1194,6.011
5.121000,0.5705,-6.3274,-0.2035,6.356
5.121000,0.4197,-6.6561,-0.2867,6.675
5.121000,0.2648,-6.9572,-0.3837,6.973
5.122000,0.1061,-7.2425,-0.4874,7.260
5.122000,-0.0780,-7.5296,-0.5933,7.553
5.122000,-0.2796,-7.7966,-0.7018,7.833
5.122000,-0.4867,-8.0636,-0.8128,8.119
5.125000,-0.7042,-8.3183,-0.9051,8.397
5.129000,-0.9126,-8.5676,-0.9934,8.673
5.133000,-1.1050,-8.8100,-1.0636,8.942
5.139000,-1.2855,-9.0310,-1.1402,9.193
5.144000,-1.4687,-9.2174,-1.2043,9.411
5.149000,-1.6546,-9.3813,-1.2586,9.609
5.155000,-1.8454,-9.5467,-1.3010,9.810
5.160000,-2.0389,-9.7158,-1.3148,10.014
5.164000,-2.2232,-9.8946,-1.3216,10.227
5.223000,-2.4292,-10.0707,-1.3217,10.443
5.224000,-2.6737,-10.2570,-1.3297,10.683
5.224000,-2.9139,-10.4411,-1.3500,10.924
5.225000,-3.1404,-10.6275,-1.3921,11.169
5.225000,-3.3582,-10.8098,-1.4172,11.408
5.226000,-3.5654,-10.9998,-1.4324,11.652
5.226000,-3.7575,-11.1890,-1.4183,11.888
5.227000,-3.9562,-11.3868,-1.3891,12.134
5.227000,-4.1356,-11.5883,-1.3709,12.380
5.227000,-4.3436,-11.7752,-1.3730,12.626
5.228000,-4.5783,-11.9522,-1.3928,12.875
5.228000,-4.8401,-12.0937,-1.4660,13.109
5.229000,-5.1365,-12.1969,-1.5660,13.327
5.235000,-5.4391,-12.2494,-1.6756,13.507
5.240000,-5.7268,-12.2750,-1.7878,13.663
5.245000,-6.0214,-12.2624,-1.9188,13.795
5.251000,-6.3282,-12.1976,-2.0642,13.896
5.256000,-6.6450,-12.0981,-2.2286,13.982
5.260000,-6.9935,-11.9542,-2.4073,14.057
5.263000,-7.3358,-11.7705,-2.5981,14.111
5.269000,-7.6957,-11.5474,-2.8105,14.159
5.326000,-8.0619,-11.2834,-3.0404,14.197
5.327000,-8.4032,-11.0245,-3.2423,14.236
5.328000,-8.6889,-10.8231,-3.3732,14.283
5.328000,-8.8882,-10.7079,-3.4358,14.334
5.329000,-8.9796,-10.7315,-3.4017,14.400
5.329000,-9.0113,-10.9106,-3.2995,14.530
5.330000,-8.9856,-11.1752,-3.1759,14.687
5.330000,-8.9648,-11.4561,-3.0501,14.863
5.331000,-9.0014,-11.7102,-2.9538,15.062
5.331000,-9.1146,-11.9158,-2.9156,15.283
5.332000,-9.3355,-12.0489,-2.9333,15.522
5.332000,-9.6500,-12.1444,-3.0026,15.800
5.335000,-10.0487,-12.2184,-3.0708,16.115
5.339000,-10.5007,-12.2939,-3.1383,16.470
5.346000,-10.9823,-12.3839,-3.2058,16.860
5.350000,-10.9891,-12.4586,-3.2761,16.933
5.355000,-11.4689,-12.5142,-3.3449,17.301
5.360000,-11.8661,-12.5432,-3.4250,17.603
5.365000,-12.1782,-12.5279,-3.5477,17.828
5.372000,-12.3764,-12.4583,-3.7035,17.947
5.376000,-12.4340,-12.3318,-3.9142,17.944
5.379000,-12.3127,-12.1787,-4.1770,17.815
5.385000,-11.4398,-12.0197,-4.4487,17.179
5.444000,-10.7605,-11.8997,-4.6761,16.711
5.446000,-9.9292,-11.8313,-4.8588,16.192
5.446000,-8.9739,-11.8101,-4.9821,15.647
5.447000,-7.9010,-11.8075,-5.0121,15.065
5.447000,-6.7425,-11.8081,-4.9316,14.464
5.448000,-5.4619,-11.8244,-4.7307,13.857
5.448000,-4.0248,-11.8270,-4.4096,13.248
5.449000,-2.4374,-11.7993,-4.0381,12.707
5.449000,-0.7759,-11.7510,-3.6423,12.327
5.449000,0.8743,-11.6832,-3.2252,12.152
5.450000,2.3724,-11.6464,-2.8200,12.216
5.450000,3.5988,-11.6051,-2.4196,12.389
5.451000,4.4557,-11.6078,-1.9952,12.593
5.456000,4.9455,-11.6140,-1.5300,12.716
5.460000,5.0855,-11.6145,-1.0361,12.721
5.466000,4.9331,-11.6610,-0.5274,12.672
5.470000,4.6131,-11.7101,-0.0110,12.586
5.475000,4.2097,-11.7650,0.5251,12.507
5.480000,3.8071,-11.7816,1.0768,12.428
5.485000,3.4721,-11.7470,1.6425,12.359
5.491000,3.2294,-11.6306,2.2085,12.271
5.495000,3.0831,-11.4328,2.7257,12.151
5.499000,3.0695,-11.1135,3.1712,11.958
5.561000,3.2050,-10.6565,3.5799,11.690
5.562000,3.4822,-10.0745,3.9673,11.374
5.563000,3.8915,-9.3720,4.3395,11.037
5.563000,4.4019,-8.5966,4.7432,10.760
5.564000,4.9992,-7.7676,5.1738,10.587
5.564000,5.6489,-6.8843,5.6121,10.526
5.564000,6.3166,-5.9988,6.0147,10.586
5.565000,6.9543,-5.1041,6.4272,10.757
5.565000,7.8890,-3.4898,7.1331,11.194
5.566000,8.0177,-3.2609,7.1630,11.235
5.566000,8.3588,-2.2936,7.4376,11.421
5.566000,8.5573,-1.3021,7.6660,11.562
5.567000,8.6123,-0.3206,7.8160,11.635
5.574000,8.5528,0.6157,7.8938,11.655
5.575000,8.4197,1.4661,7.8930,11.634
5.581000,8.2706,2.2317,7.8291,11.605
5.590000,8.1148,2.8864,7.6890,11.546
5.592000,7.9448,3.4041,7.4498,11.411
5.596000,7.7829,3.8124,7.0914,11.198
5.599000,7.6516,4.0962,6.6055,10.907
5.667000,7.5757,4.2929,6.0377,10.596
5.668000,7.5524,4.4224,5.3638,10.265
5.669000,7.5673,4.4757,4.5893,9.918
5.669000,7.5702,4.4683,3.7533,9.558
5.669000,7.5687,4.3896,2.8809,9.212
5.670000,7.5551,4.2973,2.0067,8.920
5.670000,7.5205,4.2290,1.1632,8.706
5.670000,7.4676,4.1807,0.3973,8.567
5.671000,7.4443,4.1794,-0.2398,8.541
5.671000,7.4439,4.2429,-0.7329,8.599
5.672000,7.4059,4.3349,-1.0959,8.651
5.672000,7.3069,4.4370,-1.3287,8.651
5.672000,7.2048,4.5328,-1.4336,8.632
5.673000,7.0852,4.6366,-1.3965,8.582
5.676000,6.9298,4.7585,-1.2467,8.498
5.681000,6.7528,4.8884,-1.0401,8.401
5.689000,6.4971,4.9976,-0.8011,8.236
5.690000,6.1896,5.0865,-0.5276,8.029
5.695000,5.8714,5.1384,-0.2322,7.806
5.706000,5.5429,5.1605,0.0847,7.574
5.708000,5.2715,5.1413,0.3872,7.374
5.711000,5.0856,5.1067,0.6651,7.238
5.716000,4.9686,5.0523,0.9090,7.144
5.784000,4.9227,5.0066,1.1071,7.108
5.788000,4.8997,4.9744,1.2929,7.101
5.790000,4.8854,4.9440,1.4430,7.099
5.791000,4.8794,4.9175,1.5812,7.106
5.792000,4.8963,4.8855,1.7390,7.132
5.793000,4.9195,4.8625,1.9161,7.178
5.794000,4.9681,4.8198,2.1221,7.240
5.795000,5.0471,4.7671,2.3496,7.329
5.796000,5.1541,4.6781,2.5770,7.422
5.797000,5.2842,4.5885,2.7633,7.524
5.798000,5.4351,4.5224,2.9254,7.652
5.799000,5.6162,4.4988,3.0919,7.832
5.801000,5.7964,4.5391,3.2677,8.055
5.803000,5.9588,4.6481,3.4239,8.297
5.805000,6.0794,4.8014,3.5600,8.526
5.806000,6.1699,4.9917,3.6857,8.750
5.807000,6.2547,5.1761,3.8340,8.978
5.808000,6.3505,5.3042,4.0429,9.209
5.812000,6.5123,5.2852,4.3403,9.444
5.817000,6.7928,5.0831,4.7446,9.721
5.830000,7.1554,4.6810,5.2183,10.017
5.832000,7.5953,4.1505,5.6384,10.330
5.832000,8.0476,3.5489,5.8917,10.586
5.904000,8.4766,2.9622,5.9374,10.765
5.905000,8.9018,2.4388,5.7954,10.898
5.905000,9.2872,1.9787,5.5007,10.974
5.905000,9.6737,1.6015,5.1291,11.066
5.906000,10.0803,1.3314,4.7351,11.216
5.906000,10.5618,1.1519,4.3870,11.495
5.906000,11.0887,1.0413,4.1002,11.868
5.907000,11.6219,0.9921,3.8946,12.297
5.907000,12.0865,0.9969,3.7658,12.699
5.908000,12.4196,1.0647,3.7258,13.010
5.908000,12.5919,1.1949,3.8340,13.217
5.908000,12.6463,1.3484,4.0839,13.358
5.909000,12.6113,1.4697,4.4163,13.443
5.909000,12.5326,1.5054,4.7698,13.494
5.910000,12.4340,1.4217,5.0662,13.502
5.910000,12.3253,1.2373,5.2498,13.454
5.917000,12.1921,0.9427,5.2915,13.324
5.922000,12.0320,0.5783,5.1725,13.109
5.926000,11.8340,0.1975,4.9038,12.811
5.931000,11.5911,-0.1613,4.5414,12.450
5.936000,11.3158,-0.5072,4.1486,12.063
5.941000,11.0442,-0.8114,3.7885,11.704
5.947000,10.7768,-1.0975,3.4544,11.370
6.022000,10.4919,-1.3849,3.1726,11.048
6.023000,10.1791,-1.6655,2.9195,10.720
6.023000,9.8578,-1.9320,2.6594,10.391
6.024000,9.5162,-2.1390,2.3637,10.036
6.024000,9.1668,-2.2765,2.0352,9.662
6.024000,8.7997,-2.3545,1.7150,9.269
6.025000,8.4258,-2.3646,1.4107,8.864
6.025000,8.0520,-2.3192,1.1583,8.459
6.026000,7.6760,-2.2208,0.9646,8.049
6.026000,7.3386,-2.0863,0.8534,7.677
6.026000,6.9939,-1.9331,0.8212,7.302
6.027000,6.6763,-1.7461,0.8419,6.952
6.027000,6.3566,-1.5289,0.8929,6.599
6.028000,6.0227,-1.3225,0.9526,6.239
6.028000,5.6769,-1.1488,1.0251,5.882
6.028000,5.3144,-1.0107,1.0981,5.520
6.032000,4.9420,-0.9067,1.1520,5.155
6.037000,4.5612,-0.8642,1.2037,4.796
6.044000,4.1859,-0.8719,1.2240,4.448
6.047000,3.8452,-0.9251,1.2180,4.138
6.051000,3.5509,-1.0239,1.2241,3.893
6.056000,3.3407,-1.1595,1.2375,3.747
6.062000,3.1749,-1.3520,1.2018,3.654
6.065000,3.0910,-1.5882,1.0958,3.644
6.122000,2.8378,-1.8270,0.9348,3.502
6.123000,2.6141,-2.0586,0.7387,3.408
6.123000,2.3747,-2.2899,0.5296,3.341
6.124000,2.1263,-2.5479,0.3054,3.333
6.124000,1.8918,-2.8444,0.1008,3.418
6.124000,1.6442,-3.1920,-0.0625,3.591
6.125000,1.4031,-3.5640,-0.1916,3.835
6.125000,1.1900,-3.9436,-0.3005,4.130
6.125000,0.9688,-4.3146,-0.3897,4.439
6.126000,0.7455,-4.6627,-0.4849,4.747
6.126000,0.5342,-4.9934,-0.5865,5.056
6.126000,0.3231,-5.3135,-0.7088,5.370
6.133000,0.0933,-5.6274,-0.8542,5.693
6.136000,-0.1411,-5.9191,-1.0176,6.008
6.141000,-0.3652,-6.1764,-1.1819,6.299
6.147000,-0.6008,-6.3810,-1.3305,6.546
6.151000,-0.8500,-6.5637,-1.4636,6.778
6.157000,-1.0768,-6.7460,-1.5626,7.008
6.161000,-1.2764,-6.9062,-1.6351,7.211
6.166000,-1.4320,-7.0791,-1.6982,7.419
6.226000,-1.6101,-7.2668,-1.7550,7.647
6.227000,-1.7843,-7.4729,-1.8152,7.895
6.228000,-1.9476,-7.6853,-1.8623,8.144
6.230000,-2.0783,-7.8870,-1.9038,8.375
6.232000,-2.2102,-8.0769,-1.9398,8.596
6.233000,-2.3381,-8.2576,-1.9753,8.807
6.235000,-2.4694,-8.4468,-1.9936,9.023
6.236000,-2.6282,-8.6517,-2.0161,9.264
6.237000,-2.7882,-8.8768,-2.0189,9.521
6.238000,-2.9328,-9.1340,-1.9993,9.799
6.240000,-3.0814,-9.4120,-2.0074,10.105
6.241000,-3.2485,-9.6796,-2.0263,10.409
6.242000,-3.4151,-9.9327,-2.0438,10.700
6.243000,-3.5839,-10.1568,-2.0455,10.963
6.245000,-3.7311,-10.3803,-2.0338,11.216
6.249000,-3.8711,-10.6016,-1.9965,11.461
6.262000,-3.9853,-10.8353,-1.9600,11.710
6.266000,-4.0858,-11.0655,-1.9169,11.950
6.267000,-4.1535,-11.2871,-1.8722,12.172
6.268000,-4.2320,-11.4859,-1.8400,12.378
6.319000,-4.3190,-11.6377,-1.8271,12.547
6.320000,-4.3980,-11.7244,-1.8238,12.654
6.320000,-4.5027,-11.7635,-1.8517,12.731
6.321000,-4.6119,-11.7393,-1.8960,12.754
6.321000,-4.7496,-11.6711,-1.9444,12.750
6.322000,-4.9232,-11.5520,-2.0088,12.717
6.322000,-5.1565,-11.3924,-2.0957,12.679
6.322000,-5.4476,-11.2052,-2.2175,12.655
6.323000,-5.8011,-11.0050,-2.3453,12.660
6.323000,-6.2243,-10.8180,-2.4551,12.720
6.324000,-6.7101,-10.6627,-2.5521,12.854
6.327000,-7.1821,-10.5795,-2.6076,13.050
6.333000,-7.5544,-10.5998,-2.6492,13.283
6.338000,-7.8465,-10.7593,-2.6413,13.576
6.341000,-8.0299,-11.0261,-2.6061,13.887
6.347000,-8.1383,-11.3494,-2.5586,14.198
6.355000,-8.2317,-11.6787,-2.5663,14.517
6.358000,-8.3941,-11.9825,-2.6290,14.865
6.361000,-8.6857,-12.2235,-2.7191,15.240
6.366000,-9.0898,-12.3917,-2.8178,15.624
6.428000,-9.5396,-12.4906,-2.9092,15.984
6.429000,-9.9804,-12.5505,-3.0086,16.315
6.430000,-10.3742,-12.6088,-3.0446,16.609
6.430000,-10.6638,-12.6743,-2.9915,16.832
6.431000,-10.8132,-12.7851,-2.8577,16.987
6.431000,-10.8224,-12.9003,-2.6941,17.053
6.432000,-10.7007,-12.9721,-2.5250,17.005
6.432000,-10.4669,-12.9770,-2.3652,16.839
6.433000,-10.1327,-12.9174,-2.2292,16.568
6.433000,-9.6734,-12.7827,-2.1364,16.172
6.434000,-9.0505,-12.6474,-2.1201,15.696
6.434000,-8.2515,-12.4690,-2.1651,15.108
6.435000,-7.3407,-12.3110,-2.2444,14.508
6.442000,-6.4351,-12.1781,-2.3096,13.966
6.443000,-5.5360,-12.0872,-2.3813,13.506
6.448000,-4.6693,-12.0119,-2.4569,13.120
6.457000,-3.8176,-11.9674,-2.5434,12.816
6.463000,-2.9589,-11.9471,-2.6432,12.589
6.463000,-2.1046,-11.9182,-2.7318,12.407
6.466000,-1.2737,-11.8826,-2.7899,12.272
6.525000,-0.5278,-11.8315,-2.7902,12.167
6.526000,0.1166,-11.7882,-2.7686,12.110
6.526000,0.6194,-11.7364,-2.7225,12.064
6.526000,0.9618,-11.7145,-2.6304,12.045
6.527000,1.1754,-11.7378,-2.5044,12.059
6.528000,1.3346,-11.7818,-2.3676,12.091
6.528000,1.4924,-11.8091,-2.2009,12.105
6.528000,1.6369,-11.8289,-2.0179,12.111
6.529000,1.7348,-11.8526,-1.8129,12.115
6.529000,1.8270,-11.8476,-1.5345,12.085
6.530000,1.9705,-11.7542,-1.1906,11.978
6.530000,2.1846,-11.5454,-0.7996,11.777
6.533000,2.4740,-11.2459,-0.3800,11.521
6.537000,2.8128,-10.8879,0.0130,11.245
6.543000,3.2084,-10.4651,0.3648,10.952
6.554000,3.9723,-9.7163,0.9262,10.538
6.555000,4.0536,-9.4519,0.9076,10.324
6.558000,4.4577,-8.8767,1.1373,9.998
6.562000,4.8708,-8.2454,1.3807,9.676
6.567000,5.2926,-7.6000,1.6448,9.406
6.572000,5.7163,-6.9446,1.9271,9.199
6.577000,6.1283,-6.2925,2.1606,9.045
6.582000,6.4998,-5.6381,2.3958,8.932
6.649000,6.8255,-4.9846,2.6521,8.858
6.650000,7.1285,-4.3372,2.9155,8.839
6.650000,7.4174,-3.6822,3.2080,8.881
6.651000,7.6420,-3.0189,3.5180,8.938
6.651000,7.7831,-2.3504,3.8261,8.986
6.651000,7.8384,-1.6922,4.1325,9.021
6.652000,7.8027,-1.0375,4.4299,9.032
6.652000,7.7089,-0.3719,4.7325,9.053
6.653000,7.5715,0.2741,5.0641,9.113
6.653000,7.4481,0.8933,5.4233,9.257
6.653000,7.3365,1.4505,5.7805,9.452
6.654000,7.2126,1.9576,6.0868,9.639
6.654000,7.1000,2.3931,6.3263,9.806
6.655000,7.0087,2.7907,6.4978,9.956
6.658000,6.9657,3.1540,6.5480,10.067
6.663000,6.9887,3.4650,6.4800,10.141
6.668000,7.1069,3.7320,6.2987,10.203
6.672000,7.2843,3.9602,5.9849,10.226
6.678000,7.5181,4.1477,5.5676,10.233
6.682000,7.7514,4.3029,5.1028,10.229
6.688000,7.9540,4.4394,4.6000,10.205
6.692000,8.1504,4.5969,4.1153,10.222
6.697000,8.3454,4.7804,3.7137,10.310
6.771000,8.5625,4.9805,3.4052,10.475
6.772000,8.7733,5.2098,3.1660,10.683
6.772000,8.9286,5.4364,3.0074,10.877
6.773000,9.0264,5.6440,2.9128,11.037
6.773000,9.0641,5.8161,2.8702,11.146
6.773000,9.1232,5.9599,2.8719,11.269
6.774000,8.9907,6.0613,2.8916,11.222
6.774000,8.8874,6.1067,2.9414,11.177
6.774000,8.7149,6.1125,2.9946,11.058
6.775000,8.5217,6.1129,3.0705,10.928
6.775000,8.3154,6.0914,3.1621,10.782
6.776000,8.1009,6.0435,3.2835,10.627
6.776000,7.8933,5.9840,3.4013,10.473
6.776000,7.6829,5.8936,3.4912,10.293
6.777000,7.4895,5.7656,3.5486,10.096
6.778000,7.3090,5.6197,3.5569,9.882
6.786000,7.1848,5.4969,3.5286,9.710
6.789000,7.1386,5.4045,3.5024,9.614
6.792000,7.1583,5.3570,3.4836,9.596
6.797000,7.2460,5.3326,3.5055,9.656
6.805000,7.4109,5.3506,3.5662,9.812
6.808000,7.6121,5.3939,3.6535,10.019
6.812000,7.8035,5.4839,3.7386,10.244
6.817000,7.9467,5.6324,3.8456,10.472
6.879000,8.0124,5.8365,3.9404,10.667
6.880000,7.9935,6.0674,3.9991,10.803
6.880000,7.9045,6.3156,4.0693,10.905
6.880000,7.7884,6.5258,4.2223,11.003
6.881000,7.6837,6.6288,4.5125,11.106
6.881000,7.6645,6.5407,4.9837,11.241
6.882000,7.7572,6.1825,5.5957,11.389
6.882000,7.9095,5.5089,6.2104,11.466
6.882000,8.1311,4.6685,6.6445,11.492
6.883000,8.3557,3.8218,6.8049,11.434
6.883000,8.5740,3.1102,6.6778,11.304
6.884000,8.8101,2.5578,6.2918,11.124
6.884000,9.0786,2.1505,5.8113,10.992
6.892000,9.3796,1.8576,5.3055,10.935
6.893000,9.7011,1.6172,4.8429,10.963
6.899000,10.0330,1.4220,4.4175,11.054
6.906000,10.3512,1.2819,4.0379,11.185
6.907000,10.5830,1.2513,3.7309,11.291
6.912000,10.6945,1.3013,3.5682,11.349
6.918000,10.7021,1.3956,3.6114,11.381
6.975000,10.6511,1.4568,3.8656,11.424
6.976000,10.5820,1.4271,4.2188,11.481
6.976000,10.5216,1.2966,4.5424,11.533
6.977000,10.4864,1.0601,4.7894,11.577
6.979000,10.4618,0.7532,4.9494,11.598
6.981000,10.4673,0.4330,5.0150,11.615
6.982000,10.4953,0.0968,4.9716,11.614
6.983000,10.5199,-0.2383,4.7700,11.553
6.985000,10.5003,-0.5868,4.4615,11.424
6.987000,10.4345,-0.9244,4.0902,11.246
6.989000,10.3636,-1.2317,3.6741,11.064
6.990000,10.2757,-1.5039,3.2258,10.875
6.991000,10.2025,-1.7330,2.8284,10.728
6.992000,10.1126,-1.9266,2.4818,10.589
6.993000,10.0325,-2.0797,2.1579,10.471
6.998000,9.9289,-2.2020,1.8398,10.335
7.005000,9.7541,-2.2957,1.5209,10.135
7.009000,9.5319,-2.3204,1.1893,9.882
7.012000,9.2683,-2.2800,0.8484,9.582
7.018000,8.9963,-2.1771,0.5485,9.272
7.074000,8.7091,-2.0309,0.3304,8.949
7.075000,8.4472,-1.8774,0.1845,8.655
7.075000,8.1907,-1.7055,0.1412,8.368
7.075000,7.9693,-1.5266,0.2003,8.117
7.076000,7.7463,-1.3707,0.3151,7.873
7.076000,7.5241,-1.2453,0.4444,7.639
7.076000,7.2860,-1.1440,0.5489,7.396
7.077000,7.0078,-1.0701,0.6066,7.115
7.077000,6.6836,-1.0321,0.6318,6.792
7.078000,6.3442,-1.0404,0.6339,6.460
7.078000,5.9924,-1.0903,0.6295,6.123
7.078000,5.6335,-1.1960,0.6115,5.791
7.084000,5.2725,-1.3550,0.5965,5.476
7.089000,4.9092,-1.5370,0.5749,5.176
7.093000,4.5428,-1.7402,0.5713,4.898
7.099000,4.2254,-1.9774,0.6165,4.706
7.107000,3.9407,-2.2941,0.7008,4.613
7.110000,3.7031,-2.6975,0.7884,4.649
7.113000,3.4813,-3.1525,0.8192,4.768
7.184000,3.2527,-3.6044,0.7752,4.917
7.185000,2.9907,-4.0414,0.6474,5.069
7.186000,2.7051,-4.4489,0.4652,5.227
7.188000,2.3912,-4.8334,0.2369,5.398
7.189000,2.0587,-5.1965,0.0231,5.589
7.191000,1.7549,-5.5271,-0.1613,5.801
7.192000,1.4425,-5.8464,-0.3348,6.031
7.194000,1.1283,-6.1362,-0.5212,6.261
7.195000,0.7765,-6.4174,-0.7107,6.503
7.196000,0.4278,-6.6704,-0.9008,6.745
7.199000,0.1130,-6.8936,-1.0770,6.978
7.199000,-0.1625,-7.0656,-1.2317,7.174
7.201000,-0.4331,-7.1925,-1.4294,7.346
7.203000,-0.7251,-7.2790,-1.6339,7.495
7.205000,-1.0482,-7.3587,-1.8282,7.655
7.207000,-1.3979,-7.4447,-2.0053,7.836
7.209000,-1.7471,-7.5486,-2.1222,8.034
7.209000,-2.0960,-7.6714,-2.1792,8.246
7.210000,-2.4276,-7.8249,-2.1889,8.480
7.213000,-2.7418,-7.9824,-2.1780,8.717
7.220000,-3.0336,-8.1509,-2.1518,8.959
7.224000,-3.3078,-8.3147,-2.1011,9.192
7.230000,-3.5590,-8.5024,-2.0266,9.437
7.235000,-3.7947,-8.7101,-1.9645,9.702
7.254000,-4.0314,-8.9278,-1.9316,9.984
7.255000,-4.2476,-9.1622,-1.8998,10.276
7.256000,-4.4386,-9.3875,-1.8645,10.550
7.256000,-4.5825,-9.6056,-1.8314,10.799
7.258000,-4.6770,-9.8437,-1.8128,11.048
7.263000,-4.7392,-10.0941,-1.7971,11.295
7.318000,-4.7836,-10.3517,-1.7750,11.541
7.320000,-4.8078,-10.6091,-1.7753,11.782
7.320000,-4.8172,-10.8504,-1.7836,12.005
7.321000,-4.7974,-11.0638,-1.7739,12.189
7.322000,-4.7822,-11.2578,-1.8087,12.364
7.324000,-4.8028,-11.4037,-1.8566,12.512
7.326000,-4.8118,-11.5064,-1.9128,12.618
7.327000,-4.8188,-11.5718,-1.9650,12.688
7.329000,-4.8553,-11.6272,-2.0157,12.760
7.329000,-4.9216,-11.6473,-2.0739,12.813
7.330000,-5.0321,-11.6515,-2.1324,12.870
7.331000,-5.2132,-11.6420,-2.2030,12.945
7.331000,-5.4986,-11.6241,-2.2999,13.063
7.335000,-5.8839,-11.5887,-2.3799,13.213
7.339000,-6.3168,-11.4929,-2.4353,13.339
7.345000,-6.7641,-11.3388,-2.4969,13.437
7.349000,-7.1881,-11.1191,-2.5669,13.487
7.355000,-7.5460,-10.9317,-2.6185,13.539
7.359000,-7.8069,-10.8367,-2.6086,13.608
7.363000,-7.9594,-10.9167,-2.4993,13.739
7.434000,-7.9822,-11.1864,-2.2834,13.931
7.436000,-7.9138,-11.5714,-2.0181,14.163
7.437000,-7.8501,-12.0122,-1.7610,14.457
7.440000,-7.8771,-12.3701,-1.6220,14.755
7.442000,-8.0548,-12.5702,-1.6255,15.018
7.444000,-8.3687,-12.6503,-1.7643,15.270
7.446000,-8.7496,-12.6646,-1.9263,15.513
7.447000,-9.1783,-12.6598,-2.0910,15.776
7.448000,-9.6334,-12.6826,-2.2491,16.084
7.449000,-10.0579,-12.7296,-2.2837,16.384
7.450000,-10.4564,-12.8122,-2.2268,16.687
7.451000,-10.7908,-12.8819,-2.1502,16.941
7.452000,-11.0441,-12.9215,-2.0881,17.126
7.453000,-11.2162,-12.9113,-2.0794,17.229
7.454000,-11.2804,-12.8244,-2.1702,17.217
7.455000,-11.2170,-12.6686,-2.3684,17.086
7.456000,-10.9731,-12.4837,-2.6838,16.836
7.457000,-10.4885,-12.2793,-3.0688,16.438
7.460000,-9.7414,-12.0839,-3.4707,15.905
7.464000,-8.7720,-11.8837,-3.8798,15.272
7.473000,-7.6254,-11.6738,-4.2501,14.577
7.474000,-6.3173,-11.4291,-4.5309,13.823
7.480000,-4.9189,-11.1577,-4.6908,13.065
7.484000,-3.5206,-10.8880,-4.7199,12.378
7.552000,-2.1575,-10.6172,-4.6439,11.788
7.554000,-0.8485,-10.4037,-4.4577,11.350
7.554000,0.4019,-10.2614,-4.1606,11.080
7.554000,1.5414,-10.1978,-3.7573,10.977
7.555000,2.4983,-10.1929,-3.3030,11.002
7.555000,3.2130,-10.2523,-2.8310,11.111
7.556000,3.6595,-10.3703,-2.3153,11.238
7.556000,3.8596,-10.5609,-1.6752,11.368
7.557000,3.8238,-10.8171,-1.0174,11.518
7.557000,3.6386,-11.0706,-0.3802,11.659
7.557000,3.3884,-11.3340,0.2123,11.832
7.558000,3.1284,-11.5271,0.7725,11.969
7.558000,2.6228,-11.8701,1.8388,12.295
7.559000,2.6819,-11.6517,1.7860,12.089
7.559000,2.5740,-11.4854,2.2257,11.979
7.565000,2.5218,-11.1365,2.6133,11.714
7.571000,2.5728,-10.6080,2.9764,11.314
7.574000,2.7513,-9.9377,3.2949,10.825
7.580000,3.0793,-9.1821,3.5780,10.324
7.588000,3.5682,-8.3653,3.8628,9.881
7.590000,4.1691,-7.5058,4.1528,9.537
7.594000,4.8331,-6.6387,4.4198,9.326
7.598000,5.5204,-5.7659,4.6621,9.244
7.669000,6.2044,-4.8756,4.8683,9.272
7.669000,6.8366,-3.9794,5.0526,9.386
7.670000,7.3785,-3.0749,5.2314,9.553
7.670000,7.7740,-2.1872,5.3751,9.701
7.671000,8.0108,-1.3412,5.4947,9.806
7.671000,8.1081,-0.5408,5.5724,9.853
7.671000,8.0886,0.1852,5.6040,9.842
7.672000,7.9984,0.8310,5.5911,9.794
7.672000,7.8231,1.4067,5.5662,9.704
7.672000,7.6014,1.9199,5.4832,9.567
7.673000,7.3650,2.3961,5.3895,9.436
7.673000,7.1417,2.8175,5.2769,9.316
7.674000,6.9225,3.2045,5.1524,9.205
7.674000,6.6718,3.5314,5.0349,9.074
7.674000,6.3993,3.8034,4.9262,8.927
7.681000,6.1606,4.0308,4.7872,8.782
7.688000,5.9544,4.2433,4.6127,8.645
7.690000,5.8255,4.4163,4.3965,8.531
7.695000,5.7868,4.5843,4.1149,8.452
7.699000,5.8189,4.7404,3.7819,8.404
7.705000,5.9337,4.8851,3.4103,8.409
7.714000,6.0881,5.0477,3.0152,8.464
7.715000,6.2521,5.2156,2.6495,8.562
7.790000,6.4067,5.3916,2.3115,8.687
7.791000,6.5230,5.5664,1.9944,8.804
7.791000,6.6152,5.7354,1.7296,8.925
7.791000,6.6785,5.9060,1.5319,9.046
7.792000,6.7128,6.0808,1.3917,9.164
7.792000,6.6913,6.2402,1.2946,9.241
7.792000,6.6069,6.3941,1.2310,9.276
7.793000,6.4452,6.5400,1.2058,9.261
7.793000,6.2159,6.6543,1.2213,9.187
7.793000,5.9626,6.7446,1.2608,9.090
7.794000,5.6993,6.8153,1.3023,8.979
7.794000,5.4577,6.8573,1.3744,8.871
7.795000,5.4818,6.8708,1.4652,8.911
7.795000,5.0564,6.8417,1.5745,8.652
7.795000,4.8952,6.7727,1.6975,8.527
7.796000,4.7419,6.6684,1.8218,8.383
7.800000,4.6044,6.5487,1.9304,8.235
7.806000,4.5119,6.4303,2.0281,8.113
7.810000,4.4741,6.3042,2.1029,8.011
7.816000,4.5198,6.1894,2.1956,7.972
7.822000,4.6371,6.0575,2.3088,7.970
7.827000,4.8064,5.9034,2.3872,7.978
7.829000,5.0158,5.7418,2.4313,8.002
7.834000,5.1955,5.6012,2.4227,8.015
7.907000,5.3697,5.4939,2.4308,8.058
7.908000,5.5501,5.4221,2.4869,8.148
7.908000,5.7342,5.3999,2.5667,8.284
7.908000,5.9241,5.4032,2.6536,8.446
7.909000,6.1052,5.4629,2.7594,8.645
7.909000,6.2798,5.5860,2.8457,8.873
7.909000,6.4450,5.7651,2.9367,9.132
7.910000,6.6269,5.9304,3.0752,9.410
7.910000,6.7964,5.9933,3.3899,9.675
7.910000,6.9727,5.8340,3.9179,9.900
7.911000,7.1967,5.4381,4.5881,10.120
7.911000,7.4997,4.8057,5.2262,10.327
7.912000,7.8846,4.0444,5.7116,10.543
7.912000,8.2893,3.2859,5.9530,10.721
7.912000,8.6852,2.5879,5.9056,10.817
7.915000,9.0411,2.0438,5.5688,10.813
7.920000,9.3401,1.6610,5.0074,10.727
7.925000,9.5893,1.4615,4.3385,10.626
7.931000,9.8151,1.3981,3.6864,10.577
7.938000,10.0628,1.4278,3.1482,10.640
7.941000,10.3035,1.5029,2.7534,10.770
7.945000,10.5439,1.6423,2.5234,10.965
7.949000,10.7188,1.8214,2.4674,11.149
8.028000,10.7725,2.0177,2.5791,11.259
8.029000,10.7124,2.1947,2.8351,11.296
8.030000,10.5719,2.3037,3.1209,11.261
8.030000,10.3635,2.3395,3.3222,11.132
8.030000,10.1327,2.3020,3.4191,10.939
8.031000,9.9562,2.1979,3.4039,10.749
8.031000,9.7965,2.0448,3.2767,10.530
8.031000,9.6893,1.8544,3.0408,10.323
8.032000,9.6130,1.6485,2.7472,10.133
8.032000,9.5723,1.3987,2.4471,9.979
8.033000,9.5577,1.1458,2.1915,9.872
8.033000,9.5493,0.8558,1.9951,9.793
8.033000,9.5265,0.5365,1.8751,9.724
8.034000,9.4793,0.1734,1.8312,9.656
8.034000,9.3889,-0.2122,1.8251,9.567
8.034000,9.2195,-0.5963,1.8210,9.417
8.035000,8.9951,-0.9506,1.8070,9.224
8.042000,8.6929,-1.2620,1.7285,8.952
8.046000,8.3084,-1.5162,1.5906,8.594
8.051000,7.8518,-1.7150,1.4203,8.162
8.057000,7.3428,-1.8318,1.2492,7.670
8.060000,6.7981,-1.8832,1.1083,7.141
8.067000,6.2717,-1.8825,1.0242,6.628
8.140000,5.7898,-1.8228,1.0080,6.153
8.141000,5.3765,-1.7353,1.0282,5.742
8.141000,5.0414,-1.6276,1.0741,5.405
8.141000,4.7941,-1.5093,1.1308,5.152
8.142000,4.6079,-1.3719,1.1760,4.950
8.142000,4.5001,-1.2146,1.2264,4.820
8.142000,4.4533,-1.0766,1.2769,4.756
8.143000,4.4431,-0.9609,1.3250,4.735
8.143000,4.4574,-0.8465,1.3443,4.732
8.143000,4.4262,-0.7321,1.3538,4.686
8.144000,4.3070,-0.6337,1.3707,4.564
8.144000,4.1186,-0.5714,1.4092,4.390
8.144000,3.8753,-0.5934,1.4672,4.186
8.145000,3.5823,-0.6901,1.5161,3.951
8.145000,3.2634,-0.8614,1.5445,3.712
8.146000,2.9735,-1.1031,1.5382,3.525
8.151000,2.7014,-1.3895,1.5103,3.393
8.155000,2.4683,-1.7378,1.4303,3.340
8.179000,2.2383,-2.1140,1.2537,3.324
8.180000,1.9897,-2.4723,1.0080,3.330
8.180000,1.7461,-2.8082,0.7204,3.384
8.181000,1.5010,-3.1098,0.4521,3.483
8.181000,1.2658,-3.4232,0.2086,3.656
8.245000,1.0475,-3.7457,0.0094,3.889
8.246000,0.8630,-4.1083,-0.1478,4.201
8.247000,0.7076,-4.4964,-0.2774,4.560
8.247000,0.5739,-4.8776,-0.4253,4.930
8.248000,0.3938,-5.2421,-0.5988,5.291
8.248000,0.1455,-5.5862,-0.8101,5.646
8.248000,-0.1561,-5.8924,-1.0402,5.986
8.249000,-0.4821,-6.1484,-1.2296,6.289
8.249000,-0.8273,-6.3500,-1.4268,6.561
8.250000,-1.1742,-6.4945,-1.6156,6.795
8.250000,-1.4680,-6.6020,-1.7580,6.988
8.250000,-1.7250,-6.6987,-1.8527,7.161
8.251000,-1.9426,-6.8012,-1.9173,7.328
8.251000,-2.0921,-6.9083,-1.9453,7.476
8.256000,-2.2208,-7.0131,-1.9379,7.607
8.261000,-2.3241,-7.1288,-1.9244,7.741
8.267000,-2.4040,-7.2605,-1.9029,7.881
8.272000,-2.4582,-7.4055,-1.8741,8.025
8.278000,-2.5130,-7.5831,-1.8167,8.193
8.281000,-2.5541,-7.8085,-1.7597,8.402
8.355000,-2.5908,-8.0459,-1.7272,8.627
8.356000,-2.6403,-8.3128,-1.7356,8.893
8.356000,-2.7003,-8.5942,-1.7630,9.179
8.357000,-2.7736,-8.8782,-1.7995,9.474
8.357000,-2.8770,-9.1651,-1.8087,9.775
8.358000,-2.9941,-9.4624,-1.7953,10.086
8.358000,-3.1395,-9.7656,-1.7494,10.406
8.358000,-3.3015,-10.0482,-1.6780,10.709
8.359000,-3.4994,-10.3218,-1.5882,11.014
8.360000,-3.7239,-10.5789,-1.4917,11.314
8.360000,-3.9680,-10.7843,-1.3931,11.575
8.360000,-4.2131,-10.9244,-1.2994,11.781
8.361000,-4.4496,-11.0286,-1.2273,11.956
8.361000,-4.7091,-11.0778,-1.1858,12.095
8.362000,-4.9822,-11.0841,-1.1580,12.207
8.362000,-5.2834,-11.0506,-1.1532,12.303
8.368000,-5.6059,-10.9614,-1.2429,12.374
8.372000,-5.9500,-10.8341,-1.3835,12.438
8.376000,-6.3113,-10.6684,-1.5577,12.493
8.382000,-6.7044,-10.4808,-1.7774,12.568
8.390000,-7.0888,-10.2882,-2.0278,12.657
8.394000,-7.4697,-10.0893,-2.2876,12.760
8.395000,-7.8235,-9.9032,-2.5279,12.871
8.401000,-8.1096,-9.7680,-2.7201,12.984
8.469000,-8.3068,-9.7313,-2.8287,13.104
8.470000,-8.4221,-9.8190,-2.8641,13.249
8.470000,-8.4724,-10.0571,-2.8628,13.458
8.471000,-8.4745,-10.3392,-2.8808,13.675
8.471000,-8.4882,-10.5842,-2.9614,13.887
8.472000,-8.5350,-10.6986,-3.0499,14.022
8.472000,-8.6315,-10.6968,-3.1176,14.094
8.473000,-8.7753,-10.6460,-3.1554,14.153
8.473000,-8.9590,-10.5960,-3.1496,14.229
8.473000,-9.1227,-10.5917,-3.1344,14.326
8.474000,-9.2326,-10.6492,-3.0936,14.430
8.475000,-9.2291,-10.7679,-3.0303,14.502
8.475000,-9.1001,-10.9113,-2.9499,14.511
8.475000,-8.8407,-11.0551,-2.8597,14.441
8.476000,-8.4697,-11.1260,-2.8126,14.263
8.483000,-7.9966,-11.0763,-2.7794,13.941
8.487000,-7.4716,-10.9428,-2.7261,13.528
8.491000,-6.9157,-10.7743,-2.5976,13.064
8.497000,-6.3309,-10.6138,-2.4158,12.592
8.501000,-5.6927,-10.4967,-2.2547,12.152
8.507000,-5.0486,-10.4349,-2.1264,11.785
8.511000,-4.3911,-10.4334,-2.0209,11.499
8.516000,-3.7246,-10.4973,-1.9382,11.306
8.588000,-3.0610,-10.5925,-1.8614,11.182
8.589000,-2.4263,-10.6877,-1.7990,11.106
8.590000,-1.8249,-10.8082,-1.7464,11.099
8.590000,-1.2639,-10.9159,-1.7079,11.121
8.591000,-0.7045,-10.9775,-1.6979,11.130
8.591000,-0.1631,-10.9906,-1.7304,11.127
8.591000,0.7790,-11.0550,-1.8102,11.229
8.592000,0.8013,-10.8669,-1.8597,11.054
8.592000,1.2062,-10.7317,-1.9266,10.970
8.592000,1.5939,-10.5447,-1.9793,10.847
8.593000,1.9573,-10.2939,-1.9958,10.667
8.593000,2.2970,-9.9905,-2.0048,10.445
8.593000,2.6219,-9.6230,-2.0266,10.178
8.594000,2.9991,-9.1787,-2.0583,9.873
8.594000,3.3710,-8.6654,-2.0798,9.528
8.597000,3.7203,-8.0840,-2.0352,9.129
8.601000,4.0346,-7.4500,-1.9164,8.686
8.606000,4.2803,-6.8133,-1.7496,8.234
8.611000,4.4661,-6.1821,-1.5559,7.784
8.616000,4.5801,-5.5938,-1.3449,7.354
8.624000,4.6100,-5.0441,-1.1190,6.924
8.629000,4.5940,-4.5549,-0.8782,6.529
8.630000,4.5535,-4.0902,-0.6392,6.154
8.707000,4.5057,-3.6562,-0.4117,5.817
8.708000,4.4637,-3.2385,-0.1816,5.518
8.709000,4.4518,-2.8553,0.0319,5.289
8.709000,4.4458,-2.4945,0.2241,5.103
8.710000,4.4694,-2.1514,0.4334,4.979
8.710000,4.4920,-1.8347,0.6740,4.899
8.710000,4.5314,-1.5274,0.9286,4.871
8.711000,4.5979,-1.1972,1.1661,4.892
8.711000,4.6791,-0.8731,1.3839,4.957
8.712000,4.7558,-0.5503,1.6323,5.058
8.712000,4.8476,-0.2209,1.8922,5.208
8.712000,4.8958,0.0871,2.1700,5.356
8.713000,4.9203,0.4055,2.4513,5.512
8.713000,4.9520,0.7463,2.7694,5.723
8.713000,4.9859,1.1186,3.1168,5.985
8.714000,5.0242,1.5246,3.5022,6.311
8.717000,5.0625,1.9286,3.9160,6.685
8.723000,5.0754,2.3239,4.3276,7.063
8.728000,5.0827,2.6990,4.7200,7.443
8.730000,5.0722,3.0658,5.0661,7.797
8.772000,5.0412,3.4266,5.3702,8.124
8.773000,5.0403,3.7866,5.6610,8.473
8.774000,5.0443,4.1515,5.9179,8.815
8.774000,5.0559,4.5126,6.1241,9.134
8.774000,5.0723,4.8674,6.2505,9.407
8.775000,5.1102,5.1921,6.3043,9.634
8.775000,5.1336,5.4798,6.2759,9.786
8.776000,5.1425,5.7383,6.2015,9.891
8.776000,5.1338,5.9694,6.0712,9.942
8.781000,5.1247,6.1573,5.9094,9.955
8.787000,5.1199,6.3190,5.7330,9.950
8.792000,5.1052,6.4286,5.5351,9.901
8.797000,5.1002,6.4917,5.3449,9.835
8.802000,5.1212,6.5008,5.1644,9.755
8.808000,5.1468,6.4589,5.0059,9.657
8.811000,5.1966,6.3951,4.8671,9.570
8.816000,5.2942,6.3405,4.7529,9.530
8.896000,5.4322,6.2760,4.6682,9.523
8.898000,5.5725,6.2090,4.6488,9.551
8.900000,5.6954,6.1129,4.6415,9.558
8.902000,5.8014,5.9999,4.6368,9.547
8.903000,5.8833,5.8558,4.6370,9.508
8.904000,5.9509,5.6950,4.6442,9.456
8.906000,6.0117,5.5155,4.6369,9.384
8.907000,6.0924,5.3296,4.6297,9.325
8.908000,6.1927,5.1586,4.6057,9.283
8.908000,6.2866,4.9910,4.5679,9.236
8.909000,6.3764,4.8364,4.5190,9.191
8.909000,6.4502,4.7069,4.4426,9.138
8.910000,6.4939,4.6123,4.3513,9.076
8.910000,6.5051,4.5623,4.2454,9.009
8.911000,6.4860,4.5760,4.1348,8.950
8.911000,6.4560,4.6414,4.0509,8.924
8.911000,6.4361,4.7655,4.0248,8.963
8.912000,6.4287,4.8812,4.0945,9.051
8.912000,6.4503,4.8877,4.3262,9.177
8.917000,6.5274,4.6917,4.7569,9.341
8.921000,6.7248,4.2119,5.3468,9.568
8.928000,6.9853,3.4772,5.8813,9.771
8.931000,7.2638,2.6336,6.1398,9.869
8.936000,7.5415,1.9183,6.0559,9.860
8.942000,7.8515,1.4604,5.7079,9.816
8.946000,8.1217,1.2194,5.2272,9.735
8.951000,8.3280,1.1739,4.6922,9.631
9.010000,8.5013,1.2835,4.1287,9.538
9.012000,8.6249,1.4648,3.6220,9.469
9.012000,8.7441,1.7134,3.3073,9.504
9.013000,8.8709,2.0124,3.2513,9.660
9.013000,9.0287,2.3158,3.4337,9.933
9.014000,9.2405,2.5771,3.8195,10.326
9.014000,9.4121,2.7642,4.3209,10.719
9.015000,9.5241,2.8715,4.8759,11.078
9.015000,9.5427,2.8671,5.4397,11.352
9.015000,9.4732,2.7459,5.9508,11.519
9.016000,9.3378,2.5102,6.3412,11.563
9.016000,9.1634,2.2081,6.5699,11.489
9.017000,8.9812,1.8396,6.6709,11.338
9.024000,8.8209,1.4630,6.6306,11.132
9.027000,8.7064,1.0832,6.4739,10.903
9.031000,8.6066,0.7362,6.2570,10.666
9.038000,8.5022,0.4199,6.0116,10.421
9.041000,8.3790,0.1484,5.8003,10.192
9.046000,8.2164,-0.0895,5.5948,9.941
9.116000,8.0648,-0.3083,5.3640,9.691
9.117000,7.9365,-0.4981,5.1343,9.466
9.118000,7.8555,-0.6805,4.8869,9.276
9.119000,7.7900,-0.8367,4.6268,9.099
9.120000,7.7310,-0.9662,4.3550,8.926
9.121000,7.6513,-1.0457,4.0930,8.740
9.122000,7.5439,-1.0923,3.8527,8.541
9.123000,7.3847,-1.1180,3.6246,8.302
9.125000,7.2025,-1.1351,3.3869,8.040
9.127000,6.9733,-1.1466,3.1345,7.731
9.128000,6.7338,-1.1492,2.8657,7.408
9.128000,6.4573,-1.1314,2.5659,7.040
9.129000,6.1322,-1.0982,2.2330,6.618
9.130000,5.8063,-1.0686,1.9627,6.221
9.130000,5.5201,-1.0649,1.6923,5.871
9.130000,5.2795,-1.1098,1.4296,5.581
9.131000,5.1007,-1.1966,1.2077,5.377
9.137000,4.9769,-1.3204,1.0171,5.249
9.142000,4.8887,-1.4335,0.8102,5.159
9.152000,4.7691,-1.5457,0.6015,5.049
9.152000,4.6031,-1.6289,0.3986,4.899
9.158000,4.3654,-1.7105,0.2335,4.694
9.161000,4.0725,-1.8104,0.0868,4.458
9.168000,3.7483,-1.9453,-0.0461,4.223
9.230000,3.4122,-2.1272,-0.1722,4.025
9.232000,3.0521,-2.3375,-0.3085,3.857
9.232000,2.6595,-2.5530,-0.4854,3.718
9.233000,2.2365,-2.7694,-0.6790,3.624
9.233000,1.8240,-2.9888,-0.8673,3.607
9.234000,1.4389,-3.2326,-1.0192,3.682
9.235000,1.1031,-3.5148,-1.1539,3.860
9.235000,0.8065,-3.8455,-1.2881,4.135
9.236000,0.5409,-4.2247,-1.4337,4.494
9.237000,0.2749,-4.6121,-1.6193,4.896
9.237000,0.0135,-4.9521,-1.8446,5.284
9.238000,-0.2314,-5.2322,-2.0997,5.643
9.238000,-0.4793,-5.4389,-2.3462,5.943
9.239000,-0.7270,-5.6176,-2.5888,6.228
9.242000,-0.9770,-5.7717,-2.7895,6.484
9.247000,-1.2220,-5.9103,-2.9394,6.713
9.254000,-1.4545,-6.0335,-3.0367,6.909
9.257000,-1.6745,-6.1469,-3.0893,7.080
9.261000,-1.8883,-6.2485,-3.1173,7.234
9.267000,-2.1104,-6.3322,-3.1260,7.370
9.317000,-2.3407,-6.3959,-3.1040,7.485
9.317000,-2.5744,-6.4446,-3.0636,7.586
9.318000,-2.8091,-6.5023,-2.9978,7.691
9.318000,-3.0474,-6.5966,-2.9211,7.832
9.318000,-3.2770,-6.7112,-2.8410,7.991
9.319000,-3.4861,-6.8711,-2.7525,8.182
9.319000,-3.6989,-7.0691,-2.6556,8.409
9.319000,-3.9105,-7.3026,-2.5575,8.670
9.320000,-4.1497,-7.5604,-2.4963,8.978
9.320000,-4.4163,-7.8158,-2.4675,9.310
9.323000,-4.7152,-8.0932,-2.4708,9.687
9.327000,-5.0129,-8.3627,-2.4894,10.063
9.332000,-5.2811,-8.6068,-2.5064,10.404
9.337000,-5.4649,-8.8259,-2.5264,10.684
9.343000,-5.5960,-9.0371,-2.5370,10.928
9.348000,-5.6772,-9.2362,-2.5261,11.132
9.352000,-5.7087,-9.4109,-2.5009,11.288
9.358000,-5.7051,-9.5612,-2.4781,11.406
9.361000,-5.6883,-9.6681,-2.4385,11.479
9.368000,-5.6680,-9.7563,-2.3940,11.534
9.427000,-5.6445,-9.8341,-2.3160,11.573
9.429000,-5.6514,-9.8976,-2.2211,11.612
9.431000,-5.6984,-9.9661,-2.1069,11.672
9.432000,-5.7688,-10.0253,-2.0118,11.740
9.432000,-5.9008,-10.0447,-1.9501,11.812
9.433000,-6.1116,-10.0138,-1.9313,11.889
9.434000,-6.3675,-9.9425,-1.9552,11.968
9.435000,-6.6641,-9.8187,-2.0191,12.037
9.435000,-6.9704,-9.6663,-2.1325,12.107
9.436000,-7.2794,-9.4969,-2.2736,12.180
9.436000,-7.5651,-9.3110,-2.4492,12.244
9.437000,-7.8470,-9.1341,-2.6160,12.323
9.437000,-8.0799,-8.9878,-2.7189,12.388
9.437000,-8.2517,-8.9577,-2.7584,12.488
9.444000,-8.3509,-9.0605,-2.7964,12.635
9.448000,-8.3586,-9.2983,-2.7587,12.804
9.459000,-8.2966,-9.6296,-2.6861,12.991
9.460000,-8.2438,-10.0089,-2.6170,13.228
9.468000,-8.2554,-10.3305,-2.6111,13.479
9.470000,-8.3434,-10.5439,-2.6396,13.702
9.509000,-8.4935,-10.6683,-2.6522,13.892
9.510000,-8.6838,-10.7702,-2.6446,14.085
9.510000,-8.9021,-10.8826,-2.5981,14.298
9.511000,-9.1219,-11.0144,-2.5207,14.522
9.511000,-9.3475,-11.1526,-2.4969,14.765
9.512000,-9.5309,-11.2656,-2.4531,14.959
9.512000,-9.6601,-11.3500,-2.4156,15.099
9.512000,-9.7606,-11.4084,-2.4141,15.207
9.513000,-9.8179,-11.4231,-2.4727,15.264
9.518000,-9.7407,-11.3794,-2.5630,15.197
9.524000,-9.4711,-11.2770,-2.6612,14.965
9.528000,-8.9395,-11.1727,-2.7917,14.579
9.532000,-8.2028,-11.0637,-2.9374,14.083
9.538000,-7.2849,-10.9687,-3.0454,13.515
9.543000,-6.1615,-10.8625,-3.1340,12.876
9.547000,-4.8899,-10.7227,-3.2291,12.219
9.608000,-3.5250,-10.5871,-3.2748,11.629
9.609000,-2.1287,-10.4420,-3.2614,11.145
9.610000,-0.7200,-10.3108,-3.2055,10.822
9.610000,0.6726,-10.2062,-3.0805,10.682
9.611000,1.9798,-10.1297,-2.9201,10.727
9.611000,3.1395,-10.0971,-2.7173,10.917
9.612000,4.1377,-10.1031,-2.4938,11.199
9.612000,4.9646,-10.1604,-2.2354,11.527
9.613000,5.5464,-10.2699,-1.9856,11.840
9.613000,5.8744,-10.4189,-1.7781,12.092
9.614000,6.0064,-10.5153,-1.4888,12.201
9.614000,5.9913,-10.5246,-1.1424,12.164
9.615000,5.8855,-10.4712,-0.7733,12.037
9.619000,5.7034,-10.3374,-0.3667,11.812
9.624000,5.5460,-10.1934,0.0416,11.605
9.629000,5.2058,-9.8570,0.4618,11.157
9.634000,5.0783,-9.6050,0.8081,10.895
9.639000,5.2345,-9.4186,1.1731,10.839
9.644000,5.5493,-9.0889,1.4660,10.749
9.647000,5.8896,-8.5683,1.6488,10.527
9.715000,6.1223,-7.8963,1.8147,10.155
9.716000,6.2130,-7.0874,1.9576,9.626
9.716000,6.2008,-6.1573,2.0900,8.985
9.716000,6.1632,-5.1587,2.2549,8.348
9.717000,6.1604,-4.1841,2.4521,7.840
9.717000,6.2299,-3.2394,2.7080,7.526
9.717000,6.3749,-2.3162,2.9988,7.416
9.718000,6.5271,-1.4328,3.3362,7.469
9.718000,6.6645,-0.5728,3.6719,7.631
9.718000,6.7269,0.2366,4.0356,7.848
9.719000,6.7361,0.9981,4.3904,8.102
9.719000,6.6796,1.6990,4.7063,8.346
9.719000,6.5573,2.3464,4.9868,8.566
9.720000,6.3769,2.9124,5.1881,8.721
9.728000,6.1422,3.4005,5.2823,8.786
9.729000,5.8539,3.8193,5.3122,8.779
9.734000,5.5534,4.1574,5.2795,8.718
9.739000,5.2769,4.4205,5.1885,8.620
9.743000,5.0347,4.6142,5.0508,8.494
9.748000,4.8302,4.7399,4.8452,8.323
9.755000,4.6799,4.8357,4.6067,8.155
9.758000,4.6083,4.9123,4.3598,8.023
9.762000,4.5656,4.9752,4.1073,7.904
9.769000,4.5566,5.0704,3.8613,7.835
9.831000,4.5337,5.1864,3.6511,7.796
9.831000,4.4919,5.3300,3.4713,7.787
9.832000,4.4271,5.4899,3.3293,7.799
9.832000,4.3657,5.6640,3.2297,7.847
9.833000,4.3223,5.8402,3.1819,7.932
9.833000,4.2705,5.9972,3.1854,8.022
9.833000,4.2081,6.1614,3.2213,8.127
9.834000,4.1224,6.2914,3.2957,8.212
9.834000,4.0112,6.4018,3.4326,8.298
9.834000,3.8818,6.4784,3.5835,8.359
9.835000,3.7200,6.4851,3.7145,8.348
9.835000,3.5380,6.4679,3.8138,8.300
9.836000,3.3382,6.4052,3.8903,8.204
9.841000,3.1615,6.3140,3.9471,8.090
9.845000,2.9985,6.1566,3.9867,7.924
9.850000,2.8661,5.9548,3.9928,7.721
9.857000,2.7387,5.7332,3.9996,7.508
9.859000,2.6663,5.4966,3.9952,7.300
9.863000,2.6539,5.2862,3.9993,7.140
9.875000,2.6776,5.0804,4.0099,7.004
9.876000,2.7423,4.8986,4.0318,6.912
9.878000,2.8672,4.7336,4.0628,6.865
9.884000,3.0593,4.6311,4.1270,6.917
9.962000,3.2943,4.5474,4.2217,7.025
9.963000,3.5482,4.4970,4.3349,7.184
9.963000,3.8112,4.4389,4.4639,7.359
9.964000,4.0615,4.3803,4.6040,7.542
9.965000,4.2633,4.3378,4.7121,7.694
9.967000,4.4020,4.3208,4.7951,7.813
9.968000,4.4970,4.3677,4.8292,7.913
9.970000,4.5508,4.4783,4.8408,8.012
9.972000,4.5633,4.6599,4.8370,8.120
9.973000,4.5563,4.9075,4.8035,8.241
9.975000,4.5414,5.1562,4.7830,8.372
9.976000,4.5473,5.3918,4.8039,8.534
9.976000,4.5477,5.5255,4.9183,8.683
9.978000,4.5642,5.4950,5.1588,8.811
9.978000,4.6112,5.2670,5.4855,8.894
9.980000,4.7466,4.8678,5.7848,8.927
9.980000,4.9918,4.3642,5.9551,8.912
9.982000,5.3776,3.8352,5.9080,8.862
9.984000,5.8294,3.3620,5.6419,8.782
9.986000,6.2962,2.9349,5.2179,8.688
9.990000,6.7632,2.5254,4.7840,8.661
9.994000,7.2654,2.0978,4.4517,8.775
10.000000,7.8171,1.6307,4.2217,9.033
10.007000,8.4300,1.1267,4.0874,9.436
10.011000,9.1373,0.6098,4.0349,10.007
10.013000,9.9240,0.1899,4.0569,10.723
10.020000,10.7676,-0.1433,4.1750,11.550
10.096000,11.5405,-0.4311,4.3384,12.337
10.100000,12.1634,-0.7217,4.4870,12.985
10.102000,12.5668,-1.0513,4.5560,13.408
10.103000,12.7466,-1.3600,4.5264,13.595
10.105000,12.7132,-1.6333,4.4103,13.555
10.106000,12.5181,-1.8132,4.2034,13.329
10.107000,12.1956,-1.8684,3.9155,12.944
10.108000,11.7801,-1.8009,3.5830,12.444
10.108000,11.3221,-1.6108,3.2996,11.903
10.109000,10.8836,-1.3581,3.1582,11.414
10.110000,10.5273,-1.1194,3.1371,11.042
10.110000,10.2571,-0.9528,3.2090,10.789
10.111000,10.0868,-0.8589,3.3633,10.667
10.111000,9.9204,-0.8407,3.5084,10.556
10.112000,9.7527,-0.8580,3.5722,10.422
10.112000,9.5424,-0.8827,3.5691,10.226
10.113000,9.2665,-0.9334,3.4759,9.941
10.113000,8.9270,-0.9890,3.2812,9.562
10.114000,8.5338,-1.0396,2.9833,9.100
10.122000,8.0823,-1.0919,2.6362,8.571
10.126000,7.5940,-1.1295,2.2835,8.010
10.128000,7.0726,-1.1580,1.9407,7.425
10.134000,6.5398,-1.1705,1.6318,6.841
10.207000,5.9959,-1.1737,1.3738,6.262
10.211000,5.4703,-1.1721,1.1714,5.716
10.212000,4.9780,-1.1702,1.0244,5.215
10.212000,4.5453,-1.1610,0.9224,4.781
10.213000,4.1713,-1.1530,0.8678,4.414
10.215000,3.8533,-1.1346,0.8814,4.112
10.215000,3.5867,-1.1085,0.9506,3.873
10.216000,3.3572,-1.0629,1.0460,3.673
10.218000,3.1451,-0.9942,1.2026,3.511
10.219000,2.8706,-0.9351,1.3551,3.309
10.221000,2.5716,-0.8719,1.4763,3.091
10.222000,2.2533,-0.8312,1.5589,2.863
10.223000,1.9301,-0.8009,1.6266,2.648
10.224000,1.6282,-0.8196,1.6580,2.464
10.226000,1.3450,-0.8761,1.6385,2.294
10.227000,1.0620,-0.9762,1.5903,2.147
10.229000,0.8052,-1.1254,1.5111,2.049
10.229000,0.5841,-1.3285,1.4133,2.026
10.230000,0.3841,-1.5876,1.2829,2.077
10.234000,0.1883,-1.8986,1.1226,2.214
10.243000,0.0333,-2.2114,0.9242,2.397
10.245000,-0.0935,-2.5241,0.7003,2.621
10.249000,-0.2235,-2.8175,0.4469,2.861
10.322000,-0.3522,-3.0910,0.1603,3.115
10.323000,-0.4825,-3.3453,-0.1445,3.383
10.323000,-0.6306,-3.5708,-0.4544,3.654
10.323000,-0.7849,-3.7945,-0.7334,3.944
10.324000,-0.9576,-3.9946,-0.9714,4.221
10.324000,-1.1319,-4.1877,-1.1422,4.486
10.325000,-1.2955,-4.3450,-1.3180,4.722
10.325000,-1.4800,-4.4771,-1.4751,4.941
10.325000,-1.6677,-4.5798,-1.6016,5.130
10.326000,-1.8636,-4.6780,-1.6979,5.314
10.326000,-2.0533,-4.7669,-1.7716,5.484
10.326000,-2.2603,-4.8922,-1.8304,5.691
10.327000,-2.4849,-5.0140,-1.8696,5.900
10.327000,-2.6928,-5.1568,-1.8826,6.115
10.328000,-2.8911,-5.3166,-1.8911,6.340
10.328000,-3.0369,-5.4911,-1.9122,6.560
10.335000,-3.1661,-5.6946,-1.9625,6.805
10.342000,-3.2956,-5.9304,-2.0371,7.084
10.344000,-3.4345,-6.1557,-2.1220,7.361
10.349000,-3.5878,-6.3712,-2.1834,7.631
10.355000,-3.7409,-6.5983,-2.2454,7.910
10.360000,-3.9011,-6.8488,-2.2915,8.208
10.364000,-4.0827,-7.1318,-2.3170,8.538
10.437000,-4.2831,-7.4408,-2.3101,8.891
10.438000,-4.4710,-7.7494,-2.2906,9.235
10.439000,-4.6345,-8.0510,-2.2631,9.561
10.439000,-4.8023,-8.3549,-2.2162,9.888
10.439000,-4.9575,-8.6321,-2.1526,10.184
10.440000,-5.1052,-8.9238,-2.0677,10.487
10.440000,-5.2498,-9.1992,-1.9717,10.774
10.441000,-5.3772,-9.4519,-1.8647,11.033
10.441000,-5.5116,-9.6770,-1.7944,11.280
10.441000,-5.6841,-9.8647,-1.7609,11.520
10.442000,-5.8638,-9.9932,-1.7309,11.715
10.442000,-6.0675,-10.0632,-1.7591,11.882
10.443000,-6.2979,-10.0824,-1.8603,12.032
10.443000,-6.5647,-10.0606,-1.9958,12.178
10.444000,-6.8371,-10.0262,-2.1870,12.331
10.446000,-7.1156,-9.9833,-2.4119,12.495
10.450000,-7.3719,-9.9605,-2.6415,12.670
10.455000,-7.5585,-9.9727,-2.8185,12.827
10.460000,-7.6089,-10.0894,-2.8833,12.962
10.465000,-7.5090,-10.3248,-2.7976,13.070
10.472000,-7.2905,-10.6932,-2.6499,13.211
10.476000,-7.0373,-11.1209,-2.5430,13.404
10.479000,-6.8669,-11.4782,-2.5294,13.613
10.484000,-6.8392,-11.6673,-2.5441,13.761
10.555000,-6.8822,-11.7218,-2.4966,13.820
10.556000,-6.9863,-11.7373,-2.4015,13.869
10.557000,-7.1299,-11.7923,-2.3096,13.972
10.557000,-7.2436,-11.8529,-2.2116,14.066
10.558000,-7.2891,-11.8969,-2.1006,14.110
10.558000,-7.3069,-11.9146,-2.0133,14.121
10.559000,-7.2946,-11.8793,-1.9811,14.080
10.559000,-7.2256,-11.7574,-2.0234,13.948
10.560000,-7.0856,-11.5343,-2.1426,13.705
10.560000,-6.8217,-11.2132,-2.3342,13.331
10.561000,-6.4483,-10.8728,-2.5596,12.898
10.561000,-5.9320,-10.5660,-2.7706,12.430
10.562000,-5.2416,-10.3005,-2.9310,11.923
10.562000,-4.4204,-10.1150,-3.0069,11.441
10.562000,-3.4874,-9.9622,-3.0099,10.976
10.566000,-2.5095,-9.8421,-2.9583,10.579
10.571000,-1.5321,-9.7243,-2.8617,10.252
10.575000,-0.5644,-9.6221,-2.7077,10.012
10.579000,0.3266,-9.5561,-2.4891,9.880
10.589000,1.0625,-9.5576,-2.2251,9.871
10.590000,1.5597,-9.6167,-1.9398,9.934
10.595000,1.8020,-9.7352,-1.6404,10.036
10.600000,1.8112,-9.8912,-1.3129,10.141
10.663000,1.6094,-10.0529,-0.9504,10.225
10.664000,1.2857,-10.2244,-0.6375,10.325
10.667000,0.8669,-10.3943,-0.3935,10.438
10.669000,0.4250,-10.5439,-0.1778,10.554
10.671000,-0.0300,-10.6571,0.0286,10.657
10.673000,-0.4548,-10.6852,0.1731,10.696
10.674000,-0.8395,-10.6228,0.2632,10.659
10.676000,-1.1671,-10.4636,0.3233,10.533
10.677000,-1.3969,-10.1970,0.3493,10.298
10.679000,-1.5095,-9.8460,0.3607,9.968
10.681000,-1.4690,-9.3987,0.3679,9.520
10.682000,-1.2875,-8.8771,0.3909,8.979
10.683000,-0.9910,-8.2859,0.4756,8.359
10.684000,-0.5661,-7.6332,0.5823,7.676
10.687000,0.0231,-6.9387,0.7401,6.978
10.688000,0.7188,-6.2255,0.9393,6.337
10.688000,1.4773,-5.5148,1.1253,5.819
10.693000,2.2214,-4.7962,1.2839,5.439
10.696000,2.8742,-4.0966,1.4395,5.207
10.701000,3.4244,-3.4581,1.6213,5.130
10.709000,3.8384,-2.8494,1.8241,5.117
10.711000,4.1039,-2.3069,1.9949,5.113
10.716000,4.2353,-1.8526,2.1332,5.091
10.789000,4.2545,-1.4925,2.2481,5.038
10.790000,4.3236,-1.2185,2.3123,5.052
10.791000,3.9675,-1.0480,2.3400,4.724
10.792000,3.7444,-0.9128,2.2757,4.476
10.793000,3.5467,-0.7810,2.1650,4.228
10.795000,3.3993,-0.6247,2.0345,4.011
10.796000,3.3226,-0.4284,1.9008,3.852
10.798000,3.3220,-0.2128,1.8167,3.792
10.800000,3.3734,0.0151,1.7940,3.821
10.803000,3.4627,0.2336,1.8417,3.929
10.806000,3.5779,0.4666,1.9355,4.095
10.807000,3.7076,0.7146,2.0319,4.288
10.809000,3.8722,1.0043,2.0705,4.504
10.809000,4.0574,1.3246,2.1089,4.761
10.810000,4.2632,1.6702,2.1734,5.068
10.810000,4.4865,2.0432,2.2207,5.407
10.811000,4.7036,2.4178,2.2395,5.743
10.811000,4.9173,2.8017,2.2369,6.086
10.812000,5.0895,3.1910,2.2303,6.408
10.815000,5.1814,3.5735,2.2439,6.682
10.826000,5.2119,3.9541,2.2925,6.932
10.827000,5.1782,4.3090,2.3499,7.135
10.830000,5.1120,4.6722,2.4259,7.338
10.835000,5.0527,5.0140,2.5414,7.558
10.907000,4.9792,5.3255,2.6724,7.765
10.908000,4.9109,5.6186,2.8400,7.984
10.909000,4.8571,5.8815,3.0557,8.217
10.911000,4.8018,6.1121,3.2831,8.438
10.911000,4.7391,6.2786,3.5047,8.612
10.913000,4.7222,6.3767,3.7320,8.769
10.913000,4.7247,6.4135,3.9407,8.887
10.914000,4.7732,6.4204,4.1111,8.995
10.915000,4.8659,6.3835,4.2189,9.068
10.916000,4.9904,6.3120,4.2274,9.089
10.918000,5.1523,6.2283,4.1538,9.088
10.919000,5.3899,6.1470,4.0153,9.108
10.919000,5.6935,6.0635,3.8315,9.158
10.920000,6.0344,6.0023,3.6010,9.242
10.922000,6.4210,5.9677,3.3839,9.396
10.923000,6.7961,5.9552,3.1787,9.579
10.924000,7.1524,5.9818,2.9738,9.787
10.931000,7.5015,6.0785,2.7767,10.046
10.932000,7.8718,6.2284,2.6188,10.374
10.938000,8.2581,6.4195,2.5289,10.761
10.941000,8.6111,6.6150,2.5473,11.153
10.946000,8.9306,6.7716,2.7069,11.530
10.951000,9.1993,6.8030,3.0595,11.843
11.011000,9.4364,6.5916,3.6343,12.071
11.012000,9.7070,6.0850,4.3267,12.246
11.013000,10.0423,5.3357,4.9048,12.384
11.015000,10.4451,4.5330,5.1579,12.500
11.017000,10.8416,3.8161,5.0842,12.568
11.019000,11.1363,3.2524,4.7723,12.545
11.020000,11.3179,2.8477,4.3466,12.454
11.022000,11.4701,2.6144,3.9030,12.395
11.023000,11.6505,2.5171,3.4767,12.416
11.024000,11.8208,2.4939,3.1598,12.487
11.026000,11.9903,2.5209,3.0175,12.619
11.027000,12.1346,2.6000,3.0898,12.789
11.028000,12.2510,2.7019,3.3326,12.981
11.028000,12.3293,2.7900,3.6818,13.166
11.029000,12.3596,2.8464,4.0827,13.324
11.035000,12.3322,2.8443,4.4592,13.419
11.038000,12.2404,2.7665,4.7667,13.424
11.043000,12.1035,2.6105,4.9564,13.337
11.047000,11.9558,2.3908,5.0068,13.180
11.052000,11.8212,2.1603,4.9396,12.993
11.114000,11.6951,1.9263,4.7701,12.777
11.116000,11.5538,1.7104,4.5373,12.530
11.119000,11.3804,1.5174,4.2777,12.252
11.120000,11.1725,1.3712,4.0202,11.953
11.121000,10.9284,1.2386,3.7989,11.636
11.122000,10.6434,1.1074,3.6184,11.296
11.123000,10.3368,0.9895,3.4500,10.942
11.125000,10.0158,0.8848,3.2842,10.578
11.126000,9.6874,0.7859,3.1113,10.205
11.127000,9.3692,0.7027,2.9368,9.844
11.128000,9.0513,0.6184,2.7440,9.478
11.129000,8.7506,0.5161,2.5335,9.125
11.129000,8.4358,0.4222,2.2915,8.752
11.130000,8.1499,0.3271,2.0520,8.411
11.130000,7.8697,0.2171,1.8184,8.080
11.133000,7.5921,0.1111,1.6102,7.762
11.141000,7.2933,-0.0030,1.4183,7.430
11.143000,6.9495,-0.1251,1.2309,7.059
11.146000,6.5731,-0.2478,1.0767,6.665
11.218000,6.1928,-0.3668,0.9506,6.276
11.219000,5.8413,-0.4711,0.8503,5.922
11.220000,5.5352,-0.6019,0.7607,5.620
11.222000,5.2962,-0.7474,0.7053,5.395
11.224000,5.0909,-0.8908,0.6552,5.210
11.225000,4.8999,-1.0209,0.5977,5.041
11.227000,4.6814,-1.1198,0.5427,4.844
11.228000,4.4374,-1.1645,0.4847,4.613
11.229000,4.1753,-1.1719,0.4259,4.357
11.229000,3.8831,-1.1997,0.3900,4.083
11.230000,3.5752,-1.2601,0.3458,3.807
11.232000,3.2201,-1.3875,0.2931,3.519
11.234000,2.8455,-1.5611,0.2180,3.253
11.235000,2.7571,-1.7766,0.1206,3.282
11.236000,2.0679,-2.0191,-0.0348,2.890
11.237000,1.7016,-2.2573,-0.2811,2.841
11.239000,1.3848,-2.4628,-0.4909,2.868
11.240000,1.1042,-2.6744,-0.6969,2.976
11.243000,0.8305,-2.9068,-0.9036,3.155
11.248000,0.5684,-3.1406,-1.1176,3.382
11.255000,0.3156,-3.3848,-1.3433,3.655
11.258000,0.0884,-3.6304,-1.5299,3.941
11.261000,-0.1222,-3.8778,-1.6769,4.227
11.267000,-0.3331,-4.1226,-1.7965,4.509
11.347000,-0.5372,-4.3623,-1.8957,4.787
11.348000,-0.7439,-4.5701,-1.9678,5.031
11.348000,-0.9577,-4.7435,-2.0176,5.243
11.349000,-1.1836,-4.8784,-2.0218,5.412
11.349000,-1.3851,-4.9802,-1.9878,5.538
11.349000,-1.5553,-5.0883,-1.8971,5.649
11.350000,-1.7179,-5.2076,-1.7694,5.762
11.350000,-1.8489,-5.3430,-1.6101,5.879
11.351000,-1.9677,-5.4955,-1.4605,6.017
11.351000,-2.0830,-5.6489,-1.3497,6.170
11.351000,-2.1904,-5.7873,-1.2706,6.317
11.352000,-2.2876,-5.8988,-1.2280,6.445
11.352000,-2.3580,-6.0193,-1.1858,6.573
11.352000,-2.4113,-6.1560,-1.1319,6.708
11.353000,-2.4549,-6.3361,-1.0758,6.880
11.353000,-2.5006,-6.5195,-1.0246,7.057
11.353000,-2.5413,-6.7381,-0.9834,7.268
11.357000,-2.5939,-7.0014,-0.9829,7.531
11.363000,-2.6608,-7.2780,-1.0325,7.818
11.368000,-2.7542,-7.5636,-1.1247,8.128
11.373000,-2.8647,-7.8299,-1.2325,8.428
11.377000,-2.9875,-8.0848,-1.3248,8.720
11.383000,-3.1086,-8.3182,-1.3965,8.989
11.458000,-3.2232,-8.5732,-1.4168,9.268
11.459000,-3.3264,-8.8497,-1.3833,9.555
11.459000,-3.4256,-9.1529,-1.3634,9.868
11.460000,-3.5113,-9.4140,-1.3426,10.137
11.460000,-3.5956,-9.6531,-1.2656,10.378
11.460000,-3.6977,-9.8771,-1.1737,10.612
11.461000,-3.8200,-10.1098,-1.0835,10.862
11.461000,-3.9674,-10.3205,-1.0214,11.104
11.462000,-4.1328,-10.4953,-0.9946,11.323
11.462000,-4.3235,-10.5942,-0.9909,11.485
11.463000,-4.5254,-10.6265,-1.0294,11.596
11.463000,-4.7721,-10.5708,-1.1052,11.651
11.463000,-5.0590,-10.4489,-1.2109,11.672
11.464000,-5.3622,-10.2547,-1.3416,11.650
11.464000,-5.6771,-10.0128,-1.4832,11.605
11.465000,-5.9918,-9.7518,-1.6093,11.558
11.468000,-6.3134,-9.4716,-1.7921,11.523
11.475000,-6.6279,-9.1839,-2.0193,11.504
11.478000,-6.8995,-8.8794,-2.2356,11.465
11.483000,-7.0949,-8.6169,-2.4176,11.421
11.489000,-7.2022,-8.4421,-2.5414,11.384
11.494000,-7.2216,-8.4026,-2.5547,11.370
11.497000,-7.1795,-8.5151,-2.4700,11.408
11.568000,-7.1667,-8.7441,-2.3901,11.556
11.569000,-7.2310,-8.9693,-2.3826,11.765
11.569000,-7.4132,-9.0780,-2.4661,11.977
11.570000,-7.6463,-9.0294,-2.6045,12.115
11.570000,-7.9014,-8.9001,-2.7167,12.208
11.570000,-8.1165,-8.7853,-2.7839,12.280
11.571000,-8.2792,-8.7661,-2.7950,12.378
11.571000,-8.3919,-8.8372,-2.7794,12.500
11.571000,-8.4353,-8.9645,-2.7639,12.616
11.572000,-8.4022,-9.0949,-2.7250,12.678
11.572000,-8.3044,-9.1878,-2.6702,12.669
11.573000,-7.9339,-9.2426,-2.5567,12.446
11.573000,-7.9314,-9.1769,-2.5522,12.395
11.573000,-7.6651,-9.0505,-2.4963,12.120
11.574000,-7.3383,-8.8712,-2.3984,11.760
11.578000,-6.9078,-8.6589,-2.2537,11.304
11.583000,-6.4431,-8.4643,-2.0836,10.840
11.589000,-5.9773,-8.3132,-1.9044,10.415
11.592000,-5.5295,-8.2532,-1.7186,10.082
11.596000,-5.1020,-8.2873,-1.5113,9.849
11.679000,-4.6994,-8.3915,-1.2992,9.705
11.680000,-4.3383,-8.5464,-1.0990,9.647
11.681000,-4.0352,-8.7347,-0.9272,9.666
11.681000,-3.7735,-8.9286,-0.7714,9.724
11.681000,-3.5431,-9.1271,-0.6170,9.810
11.682000,-3.3225,-9.3154,-0.4857,9.902
11.682000,-3.0921,-9.4861,-0.3844,9.985
11.683000,-2.8587,-9.6238,-0.2989,10.044
11.683000,-2.5961,-9.7491,-0.2119,10.091
11.683000,-2.3086,-9.8302,-0.1474,10.099
11.684000,-1.9911,-9.8767,-0.0981,10.076
11.684000,-1.6577,-9.8864,-0.0376,10.024
11.685000,-1.2771,-9.8811,0.0152,9.963
11.685000,-0.8488,-9.8291,0.0485,9.866
11.685000,-0.4044,-9.7399,0.0510,9.748
11.686000,0.0589,-9.5986,0.0278,9.599
11.686000,0.5339,-9.4033,0.0083,9.418
11.687000,1.0182,-9.1595,0.0072,9.216
11.693000,1.5217,-8.8882,0.0555,9.018
11.699000,2.0437,-8.5710,0.1034,8.812
11.706000,2.5557,-8.2387,0.1606,8.627
11.709000,3.0623,-7.8799,0.2008,8.456
11.712000,3.5394,-7.5146,0.2505,8.310
11.796000,3.9797,-7.1552,0.2957,8.193
11.798000,4.4024,-6.8011,0.3366,8.109
11.800000,4.7989,-6.4264,0.3783,8.029
11.803000,5.1624,-6.0516,0.4139,7.965
11.806000,5.4783,-5.6604,0.4269,7.889
11.808000,5.7366,-5.2817,0.4103,7.809
11.809000,5.9546,-4.8856,0.3933,7.712
11.809000,6.1451,-4.4862,0.3665,7.617
11.810000,6.2896,-4.0608,0.3182,7.493
11.810000,6.4216,-3.6043,0.2751,7.369
11.811000,6.5744,-3.1286,0.3237,7.288
11.813000,6.7694,-2.6028,0.4568,7.267
11.813000,6.9735,-2.0478,0.6455,7.297
11.814000,7.2492,-1.4303,0.8728,7.440
11.815000,7.5675,-0.7597,1.1461,7.691
11.815000,7.8533,-0.0634,1.4244,7.982
11.816000,8.0530,0.6461,1.7243,8.261
11.817000,8.1311,1.3499,2.0551,8.495
11.819000,8.1024,2.0196,2.4155,8.693
11.820000,8.0201,2.6536,2.7931,8.898
11.820000,7.9129,3.2590,3.1822,9.130
11.830000,7.7925,3.8332,3.5532,9.383
11.832000,7.7041,4.4049,3.9031,9.695
11.834000,7.6359,4.9531,4.2054,10.026
11.837000,7.5718,5.4883,4.4421,10.353
11.843000,7.4905,5.9873,4.6371,10.652
11.848000,7.4037,6.4622,4.7947,10.935
11.921000,7.2850,6.8699,4.9336,11.163
11.922000,7.1467,7.2233,5.0513,11.348
11.923000,6.9859,7.5123,5.1394,11.474
11.923000,6.8296,7.7399,5.2048,11.560
11.924000,6.6705,7.8993,5.2329,11.588
11.924000,6.5187,8.0030,5.2474,11.579
11.924000,6.3697,8.0491,5.2341,11.522
11.925000,6.1992,8.0255,5.1805,11.388
11.925000,6.0151,7.9569,5.0869,11.197
11.925000,5.8151,7.8031,4.9536,10.920
11.926000,5.6357,7.5955,4.7833,10.599
11.926000,5.4674,7.3468,4.5906,10.244
11.927000,5.4831,7.0549,4.4025,9.961
11.927000,5.1707,6.7657,4.2214,9.504
11.927000,5.0070,6.4747,4.0313,9.124
11.928000,4.8226,6.1658,3.8352,8.717
11.934000,4.6755,5.8754,3.6790,8.362
11.941000,4.5710,5.5967,3.5773,8.063
11.943000,4.5305,5.3297,3.5085,7.826
11.947000,4.5545,5.0938,3.4538,7.656
12.024000,4.6164,4.9058,3.4205,7.555
12.027000,4.6853,4.7873,3.3681,7.498
12.028000,4.7253,4.7573,3.3400,7.491
12.029000,4.7628,4.8423,3.3627,7.579
12.030000,4.7617,5.0131,3.3976,7.704
12.031000,4.7386,5.2459,3.4832,7.881
12.031000,4.7437,5.4803,3.7148,8.145
12.032000,4.8293,5.6349,4.1269,8.492
12.033000,5.0097,5.6017,4.7014,8.864
12.034000,5.2751,5.3229,5.3642,9.216
12.035000,5.5636,4.8057,5.9391,9.451
12.036000,5.8443,4.1411,6.3034,9.541
12.038000,6.1273,3.4562,6.4402,9.538
12.039000,6.4275,2.8472,6.3599,9.480
12.041000,6.8144,2.3476,6.1117,9.450
12.041000,7.3235,1.9363,5.7859,9.532
12.042000,7.9112,1.5918,5.4199,9.721
12.044000,8.4763,1.3190,5.0297,9.944
12.045000,8.9995,1.1372,4.6599,10.198
12.089000,9.4472,1.0800,4.3375,10.451
12.090000,9.8501,1.1282,4.1018,10.729
12.090000,10.2366,1.2983,3.9528,11.050
12.090000,10.5842,1.5442,3.9308,11.396
12.091000,10.9064,1.8099,4.0395,11.770
12.091000,11.1930,2.0179,4.2483,12.141
12.091000,11.4221,2.1436,4.4696,12.451
12.092000,11.5961,2.1795,4.6160,12.670
12.092000,11.7508,2.1132,4.6987,12.831
12.094000,11.9005,1.9518,4.7128,12.948
12.099000,12.0619,1.7455,4.6180,13.033
12.104000,12.1867,1.5038,4.4054,13.046
12.108000,12.2587,1.2751,4.1173,12.994
12.113000,12.2920,1.0762,3.8003,12.911
12.122000,12.2627,0.9003,3.5105,12.787
12.126000,12.1732,0.7352,3.2891,12.631
12.129000,12.0354,0.5522,3.1600,12.456
12.133000,11.8263,0.3708,3.1211,12.237
12.215000,11.5534,0.1524,3.1569,11.978
12.215000,11.2054,-0.0695,3.2025,11.654
12.216000,10.7759,-0.2925,3.2261,11.252
12.216000,10.3036,-0.4737,3.2275,10.808
12.217000,9.8185,-0.5763,3.1855,10.338
12.217000,9.3183,-0.6317,3.1238,9.848
12.218000,8.8629,-0.6424,3.0403,9.392
12.218000,8.4478,-0.6180,2.9538,8.971
12.219000,8.0728,-0.5756,2.8547,8.582
12.219000,7.7039,-0.5376,2.7472,8.197
12.219000,7.3660,-0.5105,2.6388,7.841
12.220000,7.0706,-0.5118,2.4930,7.515
12.220000,6.8129,-0.5273,2.3267,7.219
12.220000,6.5569,-0.5669,2.1376,6.920
12.221000,6.3167,-0.6648,1.9543,6.645
12.221000,6.1172,-0.8197,1.7821,6.424
12.221000,6.0012,-1.0371,1.6019,6.297
12.227000,5.9205,-1.2762,1.4072,6.218
12.229000,5.8056,-1.5348,1.1987,6.124
12.234000,5.5966,-1.7673,1.0060,5.955
12.240000,5.4965,-1.9576,0.8416,5.895
12.244000,4.9275,-2.1159,0.7351,5.413
12.248000,4.4998,-2.2883,0.6914,5.095
12.312000,4.0413,-2.4843,0.6792,4.792
12.313000,3.5667,-2.7133,0.6793,4.533
12.313000,3.0926,-2.9811,0.6772,4.349
12.314000,2.6203,-3.2829,0.6351,4.248
12.314000,2.1639,-3.5669,0.5556,4.209
12.315000,1.7353,-3.8520,0.4556,4.249
12.315000,1.3303,-4.1427,0.3281,4.363
12.316000,0.9628,-4.4612,0.1851,4.568
12.316000,0.6440,-4.8117,0.0290,4.855
12.316000,0.3759,-5.1659,-0.1283,5.181
12.317000,0.1756,-5.4947,-0.3274,5.507
12.317000,0.0095,-5.7619,-0.5347,5.787
12.318000,-0.1680,-6.0081,-0.7285,6.054
12.318000,-0.3501,-6.2416,-0.9041,6.316
12.324000,-0.5523,-6.4672,-1.0357,6.573
12.330000,-0.7582,-6.7075,-1.1308,6.844
12.334000,-0.9697,-6.9599,-1.1999,7.129
12.340000,-1.1915,-7.2294,-1.2530,7.433
12.344000,-1.4473,-7.4690,-1.2932,7.717
12.348000,-1.7219,-7.6811,-1.3166,7.981
12.424000,-1.9673,-7.8333,-1.3096,8.182
12.426000,-2.2335,-7.9567,-1.2683,8.361
12.427000,-2.4797,-8.0612,-1.1980,8.519
12.429000,-2.7438,-8.1778,-1.1209,8.698
12.430000,-3.0403,-8.3195,-1.0518,8.920
12.432000,-3.3709,-8.4857,-1.0173,9.187
12.433000,-3.7192,-8.6771,-1.0076,9.494
12.435000,-4.0423,-8.8710,-1.0153,9.801
12.437000,-4.3383,-9.0478,-1.0876,10.093
12.439000,-4.6029,-9.2127,-1.1998,10.368
12.440000,-4.8296,-9.3460,-1.3200,10.603
12.442000,-5.0046,-9.4629,-1.4357,10.801
12.445000,-5.1260,-9.5701,-1.5390,10.965
12.446000,-5.2186,-9.6984,-1.6200,11.132
12.447000,-5.3112,-9.8890,-1.6902,11.352
12.449000,-5.4049,-10.0915,-1.7349,11.578
12.450000,-5.5095,-10.3020,-1.7246,11.809
12.451000,-5.5828,-10.5060,-1.6566,12.012
12.451000,-5.6325,-10.6992,-1.5230,12.187
12.452000,-5.6709,-10.8963,-1.3524,12.358
12.454000,-5.7578,-11.1030,-1.1924,12.564
12.461000,-5.8842,-11.3056,-1.0625,12.789
12.466000,-6.0644,-11.4880,-0.9817,13.027
12.478000,-6.2533,-11.6284,-0.9712,13.239
12.480000,-6.4226,-11.7027,-1.0022,13.387
12.480000,-6.5748,-11.7334,-1.0169,13.488
12.484000,-6.7579,-11.7238,-1.1426,13.580
12.557000,-6.9387,-11.6483,-1.3739,13.628
12.558000,-7.1150,-11.5164,-1.6582,13.638
12.559000,-7.2867,-11.3470,-1.9598,13.627
12.559000,-7.4203,-11.1974,-2.2292,13.617
12.560000,-7.4893,-11.1227,-2.4357,13.629
12.560000,-7.4840,-11.1936,-2.5643,13.707
12.561000,-7.3684,-11.4506,-2.5868,13.860
12.561000,-7.1569,-11.8287,-2.5641,14.061
12.562000,-6.9212,-12.2798,-2.5586,14.326
12.562000,-6.7739,-12.6889,-2.6376,14.624
12.562000,-6.7625,-13.0005,-2.7969,14.919
12.563000,-6.8846,-13.1425,-2.9695,15.131
12.563000,-7.0849,-13.2007,-3.0871,15.297
12.564000,-7.3606,-13.1961,-3.2467,15.455
12.564000,-7.6687,-13.1277,-3.3771,15.574
12.565000,-7.9391,-13.0126,-3.4627,15.632
12.570000,-8.1644,-12.9195,-3.5142,15.682
12.574000,-8.3180,-12.8050,-3.5494,15.677
12.580000,-8.3399,-12.6353,-3.6046,15.563
12.585000,-8.2251,-12.3866,-3.6991,15.322
12.590000,-7.9304,-12.0705,-3.7873,14.931
12.594000,-7.4387,-11.7056,-3.8570,14.396
12.600000,-6.8166,-11.3732,-3.8317,13.802
12.662000,-6.0637,-11.0717,-3.7113,13.158
12.663000,-5.2009,-10.7760,-3.5385,12.478
12.663000,-4.3022,-10.5034,-3.3489,11.834
12.664000,-3.4269,-10.2833,-3.1243,11.281
12.664000,-2.6057,-10.0968,-2.8287,10.804
12.664000,-1.8525,-10.0194,-2.4616,10.482
12.664000,-1.1454,-9.9967,-2.0947,10.278
12.665000,-0.4964,-10.0101,-1.7510,10.174
12.665000,0.1234,-10.0308,-1.4110,10.130
12.665000,0.6588,-10.0372,-1.0445,10.113
12.666000,1.0309,-10.0693,-0.6443,10.142
12.666000,1.1754,-10.1769,-0.2485,10.248
12.666000,1.1405,-10.3711,0.1410,10.435
12.669000,1.0004,-10.6379,0.5225,10.698
12.674000,0.7952,-10.9545,0.8958,11.020
12.680000,0.5559,-11.2424,1.2473,11.325
12.685000,0.3374,-11.4703,1.5254,11.576
12.690000,0.1446,-11.5705,1.7382,11.701
12.694000,-0.0197,-11.5776,1.8886,11.731
12.701000,-0.1131,-11.4792,1.9802,11.649
12.758000,-0.1230,-11.2955,1.9963,11.471
12.759000,-0.0228,-10.9925,1.9545,11.165
12.759000,0.2115,-10.5731,1.8887,10.743
12.760000,0.5800,-10.0546,1.8975,10.248
12.760000,1.0714,-9.4609,1.9827,9.726
12.760000,1.6466,-8.8557,2.1087,9.251
12.761000,2.2989,-8.2320,2.2844,8.847
12.761000,3.0138,-7.6078,2.4999,8.556
12.761000,3.7837,-6.9610,2.7406,8.384
12.762000,4.5967,-6.2848,3.0135,8.349
12.762000,5.4099,-5.5716,3.2820,8.431
12.763000,6.2613,-4.8337,3.5196,8.658
12.765000,7.0782,-4.0675,3.7141,8.969
12.769000,7.8185,-3.2839,3.8796,9.325
12.776000,8.4165,-2.4767,4.0016,9.643
12.780000,8.8528,-1.6670,4.0920,9.894
12.785000,9.1035,-0.8885,4.1741,10.054
12.790000,9.1784,-0.1712,4.2450,10.114
12.794000,9.1061,0.4850,4.3472,10.102
12.799000,8.9176,1.0543,4.4704,10.031
12.866000,8.6303,1.5497,4.6020,9.903
12.867000,8.2860,1.9652,4.7264,9.740
12.868000,7.8858,2.3071,4.8119,9.522
12.868000,7.4587,2.5713,4.8343,9.253
12.869000,7.0407,2.7894,4.8049,8.969
12.869000,6.6636,2.9932,4.7090,8.691
12.870000,6.3331,3.1769,4.5444,8.417
12.871000,6.0865,3.3468,4.3054,8.172
12.871000,5.9340,3.4946,4.0044,7.966
12.871000,5.8829,3.6519,3.6466,7.826
12.872000,5.9355,3.8144,3.2322,7.761
12.872000,6.0706,3.9973,2.8028,7.790
12.872000,6.2772,4.1808,2.3994,7.914
12.873000,6.4907,4.3895,2.0490,8.099
12.876000,6.6868,4.6045,1.7880,8.313
12.880000,6.8603,4.8449,1.6000,8.550
12.887000,7.0138,5.0944,1.4616,8.791
12.891000,7.1221,5.3354,1.3721,9.004
12.895000,7.1616,5.5778,1.3698,9.180
12.902000,7.1441,5.8047,1.4423,9.317
12.907000,7.0555,5.9900,1.5343,9.382
12.911000,6.8960,6.1506,1.6384,9.384
12.915000,6.6877,6.2917,1.7476,9.347
12.992000,6.4279,6.4083,1.8854,9.270
12.993000,6.1654,6.4986,2.0471,9.189
12.993000,5.9385,6.5461,2.2205,9.113
12.994000,5.7189,6.5580,2.4102,9.029
12.994000,5.5358,6.5301,2.6212,8.953
12.994000,5.3866,6.4669,2.8548,8.887
12.995000,5.2717,6.3613,3.1205,8.831
12.995000,5.1484,6.2185,3.3510,8.741
12.995000,5.0863,6.0791,3.5556,8.687
12.996000,5.0592,5.9314,3.7367,8.645
12.996000,5.0721,5.7875,3.8752,8.616
12.997000,5.1226,5.6257,3.9946,8.593
12.997000,5.2060,5.4463,4.1047,8.580
12.997000,5.3343,5.2828,4.2080,8.606
12.998000,5.4689,5.1305,4.2856,8.637
12.998000,5.5934,4.9919,4.3331,8.659
13.001000,5.7122,4.8884,4.3598,8.691
13.006000,5.8231,4.8177,4.3542,8.722
13.010000,5.9572,4.8229,4.3239,8.800
13.016000,6.1096,4.8850,4.2832,8.918
13.023000,6.2635,5.0014,4.3022,9.097
13.026000,6.4563,5.0951,4.4710,9.361
13.029000,6.7047,5.0631,4.8797,9.716
13.034000,7.0182,4.7951,5.4548,10.100
13.099000,7.3418,4.2912,6.0297,10.425
13.100000,7.6900,3.6326,6.5219,10.718
13.100000,8.0015,2.9298,6.7680,10.882
13.100000,8.2955,2.3455,6.7902,10.974
13.101000,8.5606,1.9206,6.5655,10.958
13.101000,8.8325,1.6650,6.1413,10.886
13.102000,9.0920,1.5596,5.6249,10.804
13.102000,9.3819,1.5832,5.1017,10.796
13.102000,9.6945,1.7097,4.6621,10.892
13.103000,9.9910,1.9102,4.3283,11.055
13.103000,10.2468,2.1534,4.1104,11.249
13.103000,10.4399,2.4126,4.0463,11.454
13.104000,10.5984,2.7208,4.1253,11.694
13.109000,10.7553,3.0722,4.2956,11.982
13.110000,10.9075,3.3871,4.4860,12.271
13.115000,11.0162,3.6168,4.7071,12.514
13.122000,11.0690,3.7274,4.8928,12.663
13.126000,11.0828,3.6921,5.0182,12.714
13.130000,11.0812,3.4939,5.0732,12.678
13.174000,11.0791,3.1594,5.0385,12.574
13.175000,11.0816,2.7054,4.9192,12.423
13.175000,11.0724,2.1873,4.7279,12.237
13.176000,11.0426,1.6654,4.4679,12.028
13.176000,11.0161,1.1827,4.1664,11.837
13.176000,11.0081,0.7328,3.9015,11.702
13.177000,11.0159,0.2916,3.6640,11.613
13.177000,10.9847,-0.1362,3.4590,11.517
13.178000,10.9075,-0.5263,3.3012,11.408
13.182000,10.7940,-0.8602,3.1832,11.286
13.186000,10.6287,-1.1394,3.0603,11.119
13.191000,10.4017,-1.3355,2.9060,10.882
13.196000,10.1133,-1.4702,2.6804,10.565
13.202000,9.7304,-1.5238,2.3701,10.130
13.207000,9.2676,-1.5055,2.0071,9.601
13.211000,8.7321,-1.4322,1.6279,8.997
13.216000,8.1630,-1.2907,1.3704,8.377
13.277000,7.6077,-1.1199,1.2914,7.797
13.278000,7.0085,-0.9441,1.1700,7.168
13.278000,6.4085,-0.7352,1.0805,6.540
13.279000,5.8120,-0.5512,1.0123,5.925
13.279000,5.2540,-0.3913,0.9508,5.354
13.279000,4.7965,-0.2536,0.9045,4.888
13.280000,4.4539,-0.1769,0.8586,4.539
13.280000,4.2235,-0.1567,0.8268,4.306
13.281000,4.0712,-0.2107,0.7778,4.150
13.281000,4.0029,-0.3405,0.7186,4.081
13.281000,3.9487,-0.5083,0.6394,4.032
13.282000,3.8659,-0.7261,0.4950,3.964
13.282000,3.7189,-0.9647,0.3313,3.856
13.291000,3.5009,-1.1854,0.1656,3.700
13.292000,3.2475,-1.3791,0.0029,3.528
13.297000,2.9886,-1.5633,-0.1224,3.375
13.306000,2.7022,-1.7556,-0.2012,3.229
13.307000,2.3886,-1.9798,-0.2143,3.110
13.312000,2.0625,-2.2336,-0.2100,3.047
13.316000,1.6997,-2.5035,-0.2177,3.034
13.401000,1.3568,-2.7874,-0.2109,3.107
13.402000,1.0575,-3.0864,-0.2188,3.270
13.402000,0.7803,-3.3881,-0.2437,3.485
13.403000,0.5350,-3.7260,-0.2643,3.773
13.403000,0.2830,-4.0841,-0.3665,4.110
13.403000,0.0108,-4.4095,-0.5252,4.441
13.404000,-0.2678,-4.7317,-0.6995,4.791
13.404000,-0.5357,-5.0354,-0.8890,5.141
13.405000,-0.7930,-5.3227,-1.0863,5.490
13.405000,-1.0278,-5.5692,-1.2742,5.805
13.405000,-1.2382,-5.8043,-1.4359,6.106
13.406000,-1.4451,-6.0234,-1.5592,6.387
13.406000,-1.6487,-6.2367,-1.6729,6.664
13.407000,-1.8852,-6.3939,-1.7770,6.899
13.407000,-2.1161,-6.5235,-1.8717,7.109
13.407000,-2.3704,-6.6290,-1.9310,7.300
13.408000,-2.6044,-6.7368,-1.9479,7.481
13.408000,-2.8398,-6.8551,-1.9540,7.673
13.412000,-3.0696,-6.9767,-1.9327,7.863
13.417000,-3.2938,-7.0920,-1.9008,8.047
13.422000,-3.5150,-7.1996,-1.8418,8.221
13.427000,-3.7256,-7.3188,-1.7630,8.400
13.435000,-3.9044,-7.4553,-1.6575,8.577
13.439000,-4.0538,-7.6185,-1.5396,8.766
13.441000,-4.1860,-7.8179,-1.4261,8.982
13.446000,-4.3037,-8.0390,-1.3072,9.212
13.452000,-4.3735,-8.2850,-1.1947,9.444
13.524000,-4.4220,-8.5491,-1.0956,9.687
13.524000,-4.4709,-8.8561,-1.0192,9.973
13.525000,-4.5444,-9.1699,-0.9535,10.279
13.525000,-4.6234,-9.4662,-0.9057,10.574
13.526000,-4.7152,-9.7384,-0.8493,10.853
13.526000,-4.7962,-10.0085,-0.8034,11.127
13.526000,-4.8880,-10.2818,-0.7583,11.410
13.527000,-4.9767,-10.5509,-0.7568,11.690
13.527000,-5.0817,-10.7961,-0.8059,11.959
13.528000,-5.1983,-10.9811,-0.9126,12.184
13.528000,-5.3077,-11.0586,-1.0672,12.313
13.529000,-5.4173,-11.0507,-1.2411,12.370
13.529000,-5.5247,-10.9845,-1.4036,12.375
13.530000,-5.6395,-10.8958,-1.6028,12.373
13.530000,-5.7669,-10.7510,-1.8287,12.336
13.531000,-5.8688,-10.5820,-2.0520,12.273
13.537000,-5.9479,-10.4046,-2.2828,12.200
13.543000,-5.9970,-10.2697,-2.4825,12.149
13.546000,-5.9660,-10.2347,-2.5749,12.123
13.551000,-5.8311,-10.3499,-2.5458,12.149
13.558000,-5.6450,-10.6441,-2.4387,12.293
13.569000,-5.3550,-11.4212,-2.2801,12.819
13.570000,-5.3557,-11.4579,-2.2380,12.844
13.628000,-5.3673,-11.7668,-2.2594,13.129
13.629000,-5.5401,-11.9215,-2.3351,13.352
13.630000,-5.7904,-11.9814,-2.3987,13.522
13.630000,-6.0868,-11.9916,-2.4817,13.675
13.631000,-6.4195,-12.0326,-2.5970,13.883
13.631000,-6.7456,-12.1107,-2.6565,14.115
13.632000,-7.0074,-12.2562,-2.6994,14.374
13.632000,-7.2265,-12.4444,-2.7286,14.647
13.633000,-7.3884,-12.6054,-2.7592,14.869
13.633000,-7.5050,-12.6931,-2.8659,15.022
13.634000,-7.6046,-12.6737,-3.0592,15.093
13.634000,-7.6679,-12.5373,-3.3248,15.068
13.635000,-7.6684,-12.2859,-3.6269,14.930
13.636000,-7.5079,-11.9939,-3.9059,14.679
13.641000,-7.1338,-11.6969,-4.1258,14.308
13.651000,-6.5479,-11.4392,-4.2913,13.862
13.652000,-5.8029,-11.2519,-4.3594,13.390
13.656000,-4.9368,-11.1143,-4.3297,12.909
13.662000,-3.9900,-10.9987,-4.2569,12.450
13.667000,-2.9744,-10.8512,-4.1422,11.990
13.736000,-1.9475,-10.6820,-3.9344,11.549
13.737000,-0.9713,-10.4800,-3.6612,11.144
13.738000,-0.0625,-10.2700,-3.3150,10.792
13.738000,0.7744,-10.0459,-2.9409,10.496
13.738000,1.4723,-9.8428,-2.5457,10.273
13.739000,1.9742,-9.6581,-2.1560,10.091
13.739000,2.2803,-9.5180,-1.7235,9.938
13.740000,2.4029,-9.4623,-1.1916,9.835
13.740000,2.3499,-9.4498,-0.6831,9.762
13.740000,2.1287,-9.4417,-0.2627,9.682
13.741000,1.8116,-9.4321,0.0821,9.605
13.741000,1.4228,-9.3736,0.3751,9.488
13.742000,1.0053,-9.2599,0.6511,9.337
13.742000,0.6144,-9.0511,0.8866,9.115
13.742000,0.2644,-8.7585,1.0993,8.831
13.748000,-0.0088,-8.4012,1.3047,8.502
13.752000,-0.2194,-7.9852,1.5251,8.132
13.757000,-0.3589,-7.5299,1.7211,7.732
13.763000,-0.4127,-7.0395,1.8888,7.300
13.766000,-0.3453,-6.4881,2.0957,6.827
13.773000,-0.1712,-5.9364,2.3039,6.370
13.777000,0.1067,-5.3545,2.5020,5.911
13.781000,0.4594,-4.7542,2.7143,5.494
13.857000,0.8855,-4.1562,2.9288,5.161
13.858000,1.3657,-3.5654,3.1286,4.936
13.859000,1.8947,-2.9853,3.3108,4.844
13.859000,2.4434,-2.4004,3.4891,4.889
13.859000,2.9329,-1.8130,3.6173,4.997
13.860000,3.3424,-1.2456,3.7039,5.142
13.860000,3.6652,-0.7167,3.7699,5.307
13.860000,3.8914,-0.2626,3.8097,5.452
13.861000,4.0448,0.1240,3.8320,5.573
13.861000,4.1430,0.4535,3.8338,5.663
13.862000,4.1969,0.7245,3.7901,5.701
13.862000,4.1976,0.9814,3.7007,5.681
13.863000,4.1645,1.2223,3.5677,5.618
13.863000,4.1026,1.4529,3.4008,5.523
13.863000,4.0338,1.6735,3.2191,5.425
13.864000,3.9709,1.9001,3.0755,5.370
13.868000,3.9412,2.1311,2.9623,5.371
13.873000,3.9358,2.3676,2.8630,5.412
13.877000,3.9501,2.6005,2.8493,5.521
13.882000,3.9601,2.8250,2.8276,5.627
13.889000,3.9951,3.0205,2.7985,5.737
13.892000,4.0896,3.2311,2.7901,5.912
13.896000,4.2129,3.4455,2.7859,6.114
13.958000,4.3814,3.6518,2.7977,6.353
13.959000,4.5805,3.8642,2.8090,6.618
13.960000,4.8477,4.0730,2.8130,6.928
13.960000,5.1159,4.2762,2.8174,7.238
13.961000,5.3762,4.5109,2.8030,7.557
13.963000,5.5762,4.7655,2.7936,7.849
13.964000,5.7469,5.0019,2.8277,8.127
13.964000,5.8858,5.2510,2.9216,8.411
13.965000,5.9764,5.4821,3.0344,8.659
13.966000,6.0536,5.6706,3.1462,8.871
13.967000,6.0939,5.8193,3.2954,9.048
13.969000,6.1308,5.9354,3.4695,9.212
13.970000,6.1742,5.9834,3.6324,9.334
13.971000,6.2028,5.9662,3.7767,9.399
13.975000,6.2308,5.9026,3.9094,9.431
13.978000,6.2684,5.8005,4.0256,9.442
13.982000,6.3348,5.6888,4.1063,9.453
13.989000,6.4231,5.5750,4.1685,9.472
13.993000,6.5431,5.4522,4.2028,9.497
13.996000,6.6926,5.3231,4.2380,9.544
14.078000,6.8690,5.1756,4.2645,9.600
14.079000,7.0916,5.0411,4.2827,9.698
14.079000,7.3101,4.9197,4.2399,9.778
14.080000,7.5700,4.8664,4.2610,9.957
14.082000,7.8473,4.8574,4.2908,10.178
14.082000,8.1126,4.9114,4.2599,10.396
14.083000,8.3899,5.0380,4.2308,10.662
14.084000,8.6665,5.2417,4.2180,10.972
14.086000,8.9183,5.4648,4.2692,11.297
14.087000,9.2118,5.6019,4.4867,11.678
14.088000,9.5687,5.5237,4.9314,12.099
14.089000,9.9742,5.1630,5.5107,12.510
14.089000,10.4378,4.5413,5.9960,12.866
14.090000,10.8856,3.8237,6.3914,13.190
14.090000,11.3226,3.1589,6.4669,13.416
14.090000,11.6727,2.6521,6.2691,13.512
14.091000,11.9309,2.3465,5.8957,13.513
14.092000,12.1404,2.2187,5.3605,13.455
14.093000,12.2774,2.2689,4.7112,13.345
14.097000,12.3392,2.4926,4.0241,13.216
14.102000,12.3826,2.8875,3.4421,13.173
14.108000,12.3612,3.3289,3.0810,13.167
14.112000,12.2860,3.7133,3.0000,13.181
14.117000,12.1350,3.9349,3.1930,13.151
14.182000,11.9392,3.9547,3.5881,13.079
14.183000,11.8878,3.8033,4.0894,13.134
14.183000,11.4975,3.5422,4.5823,12.874
14.184000,11.2695,3.1689,4.9815,12.722
14.184000,11.0122,2.6807,5.2573,12.494
14.184000,10.7860,2.0990,5.4072,12.247
14.185000,10.5341,1.4243,5.4172,11.931
14.185000,10.2478,0.7169,5.2667,11.544
14.185000,9.9408,0.0667,4.9981,11.127
14.185000,9.6806,-0.4947,4.6608,10.756
14.186000,9.4937,-0.9430,4.2989,10.464
14.186000,9.3636,-1.3114,3.9709,10.255
14.186000,9.2355,-1.5973,3.6960,10.075
14.188000,9.1069,-1.8274,3.4644,9.914
14.195000,8.9793,-2.0056,3.2595,9.761
14.198000,8.8980,-2.0676,3.0711,9.637
14.203000,8.8436,-2.0568,2.8608,9.520
14.207000,8.8086,-1.9831,2.6432,9.408
14.212000,8.7731,-1.8686,2.4038,9.286
14.218000,8.6684,-1.7152,2.1506,9.094
14.224000,8.4887,-1.5452,1.9386,8.843
14.227000,8.2338,-1.3445,1.7992,8.535
14.232000,7.9013,-1.1519,1.7129,8.166
14.237000,7.4884,-0.9775,1.6600,7.732
14.304000,7.0704,-0.8110,1.6025,7.295
14.305000,6.6565,-0.6556,1.5422,6.864
14.305000,6.2634,-0.5186,1.4863,6.458
14.306000,5.8794,-0.4361,1.4318,6.067
14.306000,5.4759,-0.3865,1.2760,5.636
14.306000,5.1264,-0.3491,1.1271,5.260
14.307000,4.8413,-0.3514,1.0312,4.962
14.307000,4.6249,-0.4182,0.9471,4.739
14.307000,4.4581,-0.5353,0.8918,4.578
14.307000,4.3290,-0.7170,0.8506,4.470
14.308000,4.1992,-0.9329,0.7926,4.374
14.308000,4.0293,-1.1380,0.7113,4.247
14.308000,3.8189,-1.3139,0.6070,4.084
14.309000,3.5540,-1.4485,0.5160,3.872
14.314000,3.2798,-1.5922,0.4914,3.679
14.319000,2.9769,-1.7745,0.5210,3.505
14.325000,2.6634,-2.0057,0.5861,3.385
14.328000,2.3438,-2.2771,0.6692,3.336
14.333000,2.0210,-2.5887,0.7270,3.364
14.339000,1.6952,-2.9022,0.7500,3.444
14.343000,1.3645,-3.2579,0.7499,3.611
14.347000,1.0574,-3.6447,0.7099,3.861
14.429000,0.7922,-4.0645,0.6327,4.189
14.430000,0.5542,-4.4795,0.5042,4.542
14.431000,0.3315,-4.8726,0.3246,4.895
14.431000,0.1241,-5.2408,0.1162,5.244
14.431000,-0.0851,-5.5704,-0.1183,5.572
14.432000,-0.3265,-5.8776,-0.3615,5.898
14.432000,-0.5647,-6.1777,-0.5797,6.230
14.433000,-0.8114,-6.4678,-0.7777,6.565
14.433000,-1.0692,-6.7262,-0.9556,6.877
14.433000,-1.3403,-6.9694,-1.1206,7.185
14.434000,-1.6296,-7.1815,-1.2541,7.470
14.434000,-1.9195,-7.3670,-1.3306,7.728
14.435000,-2.2100,-7.5200,-1.4582,7.972
14.435000,-2.4965,-7.6473,-1.5532,8.193
14.435000,-2.7574,-7.7871,-1.6163,8.418
14.436000,-2.9974,-7.9210,-1.6694,8.632
14.436000,-3.2019,-8.0420,-1.6867,8.819
14.441000,-3.4189,-8.1772,-1.6948,9.024
14.448000,-3.6126,-8.2880,-1.6915,9.198
14.449000,-3.7686,-8.3933,-1.6844,9.353
14.455000,-3.8968,-8.4871,-1.6711,9.487
14.459000,-3.9638,-8.6056,-1.6204,9.612
14.463000,-4.0229,-8.7187,-1.5775,9.731
14.468000,-4.0574,-8.8455,-1.5348,9.852
14.545000,-4.0797,-8.9908,-1.4920,9.985
14.546000,-4.0902,-9.1448,-1.4368,10.120
14.547000,-4.0915,-9.3206,-1.3952,10.274
14.547000,-4.0935,-9.5039,-1.3860,10.440
14.547000,-4.0871,-9.6865,-1.3800,10.604
14.548000,-4.0916,-9.8777,-1.3674,10.779
14.548000,-4.1121,-10.0655,-1.3622,10.958
14.549000,-4.1750,-10.2818,-1.3665,11.181
14.549000,-4.2520,-10.5031,-1.3924,11.416
14.550000,-4.3623,-10.7132,-1.3965,11.651
14.550000,-4.4677,-10.8974,-1.4271,11.864
14.550000,-4.6257,-11.0291,-1.5536,12.060
14.551000,-4.8391,-11.1271,-1.6919,12.251
14.551000,-5.0817,-11.1727,-1.8442,12.412
14.551000,-5.3658,-11.1523,-1.9915,12.535
14.552000,-5.6890,-11.0739,-2.1553,12.635
14.556000,-6.0561,-10.9562,-2.3288,12.733
14.559000,-6.4028,-10.8181,-2.4929,12.816
14.567000,-6.7194,-10.6624,-2.6143,12.871
14.568000,-6.9798,-10.5717,-2.6795,12.948
14.574000,-7.1578,-10.5895,-2.6312,13.050
14.578000,-7.2342,-10.7371,-2.4964,13.185
14.583000,-7.2450,-10.9931,-2.3257,13.370
14.655000,-7.2452,-11.3004,-2.1499,13.595
14.656000,-7.2997,-11.6226,-2.0030,13.870
14.657000,-7.4084,-11.9044,-1.9110,14.151
14.657000,-7.5904,-12.1408,-1.8651,14.439
14.658000,-7.8672,-12.3500,-1.8202,14.756
14.658000,-8.1912,-12.5121,-1.8506,15.069
14.659000,-8.5360,-12.6237,-1.8852,15.355
14.659000,-8.8922,-12.6938,-1.9099,15.616
14.659000,-9.2216,-12.7169,-1.9395,15.828
14.660000,-9.4954,-12.6969,-1.9601,15.975
14.660000,-9.6753,-12.6431,-1.9748,16.042
14.661000,-9.7756,-12.5736,-2.0151,16.054
14.661000,-9.7646,-12.4626,-2.1320,15.975
14.662000,-9.6184,-12.2761,-2.3470,15.771
14.662000,-9.3127,-11.9928,-2.6219,15.409
14.665000,-8.8089,-11.6489,-2.9087,14.891
14.669000,-8.1116,-11.2803,-3.1765,14.252
14.675000,-7.2296,-10.9325,-3.3889,13.538
14.679000,-6.2033,-10.6226,-3.5791,12.811
14.684000,-5.0946,-10.3451,-3.7415,12.123
14.690000,-3.9174,-10.0964,-3.8472,11.493
14.695000,-2.7431,-9.8830,-3.8811,10.966
14.699000,-1.6001,-9.7149,-3.8671,10.578
14.785000,-0.5214,-9.5977,-3.7806,10.329
14.786000,0.5289,-9.5414,-3.6001,10.212
14.786000,1.4865,-9.5635,-3.3088,10.228
14.787000,2.2917,-9.6435,-2.9667,10.346
14.787000,2.8158,-9.7783,-2.5910,10.500
14.787000,3.0735,-9.9529,-2.1890,10.644
14.788000,3.1587,-10.1199,-1.7828,10.750
14.788000,3.0979,-10.2567,-1.3772,10.802
14.789000,2.9514,-10.4101,-0.8979,10.858
14.789000,2.7246,-10.5481,-0.4075,10.902
14.790000,2.4562,-10.6709,0.0703,10.950
14.790000,2.1987,-10.7228,0.5439,10.959
14.791000,1.9765,-10.6616,1.0161,10.891
14.791000,1.8137,-10.5061,1.4708,10.762
14.792000,1.7512,-10.2136,1.9042,10.536
14.792000,1.7964,-9.8121,2.2785,10.232
14.792000,1.9364,-9.3215,2.5858,9.865
14.793000,2.1402,-8.7582,2.8150,9.445
14.793000,2.4121,-8.1276,2.9913,8.990
14.799000,2.7300,-7.4499,3.1470,8.536
14.806000,3.0765,-6.7760,3.2832,8.134
14.810000,3.4516,-6.0912,3.4153,7.790
14.813000,3.8651,-5.4137,3.5442,7.537
14.863000,4.3384,-4.7073,3.6630,7.375
14.864000,4.8325,-3.9755,3.7955,7.319
14.864000,5.3371,-3.1839,3.9273,7.352
14.865000,5.8304,-2.3563,4.0915,7.502
14.865000,6.2769,-1.4871,4.2607,7.731
14.865000,6.6619,-0.5906,4.4460,8.031
14.865000,6.9369,0.2939,4.6320,8.346
14.866000,7.0917,1.1342,4.8126,8.645
14.866000,7.1288,1.8997,4.9917,8.908
14.866000,7.0633,2.5381,5.1197,9.085
14.869000,6.8957,3.0505,5.1861,9.152
14.874000,6.6884,3.4755,5.2185,9.168
14.879000,6.4609,3.8067,5.1871,9.118
14.883000,6.2233,4.0618,5.0768,9.000
14.947000,6.0363,4.2541,4.8658,8.844
14.947000,5.9063,4.3954,4.5465,8.653
14.948000,5.8509,4.5086,4.1723,8.483
14.948000,5.8702,4.6258,3.7793,8.375
14.948000,5.9592,4.7570,3.3850,8.343
14.949000,6.1012,4.9340,3.0617,8.423
14.949000,6.2828,5.1126,2.8090,8.573
14.949000,6.4537,5.2861,2.5839,8.733
14.949000,6.5635,5.4400,2.3577,8.845
14.950000,6.6218,5.5724,2.1542,8.919
14.950000,6.6361,5.6812,1.9661,8.954
14.951000,6.6211,5.7551,1.8084,8.957
14.951000,6.5926,5.8151,1.6762,8.949
14.956000,6.5295,5.8548,1.5628,8.908
14.959000,6.4053,5.8910,1.4803,8.827
14.965000,6.2154,5.9049,1.4148,8.689
14.973000,5.9531,5.8732,1.3860,8.477
14.975000,5.6207,5.7862,1.4054,8.188
14.980000,5.2502,5.6639,1.4638,7.860
14.985000,4.9019,5.5163,1.5826,7.547
15.078000,4.5906,5.3605,1.7355,7.268
15.079000,4.3217,5.1992,1.9030,7.024
15.079000,4.1166,5.0394,2.0728,6.829
15.080000,3.9901,4.8792,2.2400,6.689
15.080000,3.9304,4.7330,2.4213,6.611
15.080000,3.9328,4.6056,2.6142,6.596
15.081000,3.9973,4.5162,2.7327,6.621
15.081000,4.1045,4.4531,2.8757,6.704
15.081000,4.2708,4.4062,3.0977,6.874
15.082000,4.4100,4.3661,3.3129,7.035
15.082000,4.5458,4.3421,3.5642,7.226
15.082000,4.6712,4.3294,3.8631,7.449
15.083000,4.7866,4.3233,4.1588,7.675
15.083000,4.8943,4.3427,4.4337,7.904
15.083000,4.9110,4.3804,4.6686,8.069
15.084000,5.0900,4.4699,4.8537,8.333
15.084000,5.1205,4.6231,4.9653,8.500
15.084000,5.1028,4.8184,5.0275,8.633
15.085000,5.0823,5.0535,5.1030,8.798
15.085000,5.1209,5.2776,5.3083,9.069
15.091000,5.2685,5.3733,5.7141,9.449
15.095000,5.4985,5.2232,6.3068,9.864
15.100000,5.7873,4.7674,6.9787,10.243
15.107000,6.1448,4.0326,7.5558,10.541
15.110000,6.5616,3.1814,7.8172,10.690
15.114000,7.0308,2.3672,7.8158,10.776
15.190000,7.5213,1.7146,7.4979,10.758
15.191000,8.0708,1.2571,6.9448,10.721
15.191000,8.5690,0.9828,6.2909,10.676
15.192000,8.9683,0.8230,5.5838,10.596
15.192000,9.3142,0.7783,4.8908,10.549
15.192000,9.6404,0.8060,4.3142,10.592
15.193000,9.9774,0.9445,3.8836,10.748
15.193000,10.3030,1.1958,3.5877,10.975
15.194000,10.5896,1.5734,3.4259,11.241
15.194000,10.7932,2.0285,3.4238,11.503
15.194000,10.9082,2.4643,3.5986,11.748
15.195000,10.9560,2.8324,3.8859,11.965
15.195000,10.9388,3.0698,4.2120,12.117
15.195000,10.9043,3.1977,4.5179,12.229
15.196000,10.8787,3.2276,4.7907,12.317
15.196000,10.9260,3.1733,5.0153,12.434
15.201000,11.0002,3.0128,5.1602,12.518
15.208000,11.0770,2.7506,5.2062,12.545
15.209000,11.1041,2.3557,5.1561,12.467
15.215000,11.0556,1.8810,4.9915,12.275
15.223000,10.9231,1.3920,4.7594,11.996
15.225000,10.7669,0.9177,4.4893,11.701
15.229000,10.6067,0.4657,4.2061,11.420
15.234000,10.4165,0.0051,3.9418,11.137
15.325000,10.1652,-0.4258,3.7204,10.833
15.326000,9.8402,-0.8237,3.5402,10.490
15.326000,9.4589,-1.1381,3.3699,10.106
15.327000,9.0483,-1.3950,3.2094,9.701
15.327000,8.6403,-1.5654,3.0205,9.286
15.328000,8.2830,-1.6394,2.8158,8.901
15.328000,7.9661,-1.6296,2.6167,8.542
15.328000,7.6758,-1.5618,2.4695,8.213
15.329000,7.3945,-1.4512,2.3545,7.895
15.329000,7.0789,-1.3343,2.3002,7.562
15.330000,6.7363,-1.2043,2.2510,7.204
15.330000,6.3903,-1.0857,2.1680,6.835
15.330000,6.0731,-0.9874,2.0946,6.500
15.331000,5.8127,-0.9319,2.0588,6.237
15.331000,5.5997,-0.9288,1.9983,6.018
15.332000,5.4195,-0.9594,1.8440,5.804
15.332000,5.2567,-1.0105,1.7037,5.618
15.332000,5.0791,-1.1023,1.5709,5.430
15.333000,4.8478,-1.2261,1.4410,5.204
15.336000,4.5777,-1.3794,1.3069,4.956
15.341000,4.2596,-1.5690,1.1858,4.692
15.345000,3.9177,-1.8164,1.0801,4.451
15.351000,3.5829,-2.1031,0.9901,4.271
15.355000,3.2229,-2.4389,0.9070,4.142
15.360000,2.8711,-2.7790,0.8044,4.076
15.365000,2.5276,-3.1279,0.6924,4.081
15.447000,2.1665,-3.4971,0.5638,4.152
15.448000,1.8045,-3.8658,0.3900,4.284
15.448000,1.4501,-4.2501,0.2195,4.496
15.449000,1.0841,-4.6195,0.0497,4.745
15.449000,0.7067,-4.9564,-0.1121,5.008
15.450000,0.3327,-5.2770,-0.2921,5.296
15.450000,-0.0359,-5.5483,-0.4639,5.568
15.450000,-0.3505,-5.7773,-0.6107,5.820
15.451000,-0.6088,-5.9745,-0.7471,6.052
15.451000,-0.8565,-6.1851,-0.8900,6.307
15.452000,-1.1006,-6.3851,-1.0253,6.560
15.452000,-1.3698,-6.5309,-1.1915,6.779
15.452000,-1.6403,-6.6117,-1.3510,6.945
15.453000,-1.9137,-6.6419,-1.5205,7.077
15.453000,-2.1737,-6.6418,-1.6623,7.183
15.453000,-2.4177,-6.6257,-1.7745,7.273
15.454000,-2.6340,-6.6105,-1.8621,7.356
15.497000,-2.8394,-6.6142,-1.9182,7.449
15.500000,-3.0385,-6.6491,-1.9527,7.567
15.501000,-3.2459,-6.7044,-1.9825,7.708
15.502000,-3.4496,-6.7539,-1.9957,7.842
15.503000,-3.6568,-6.8263,-1.9900,7.996
15.503000,-3.8582,-6.9096,-1.9702,8.155
15.505000,-4.0322,-7.0192,-1.9291,8.322
15.506000,-4.1934,-7.1696,-1.8668,8.513
15.506000,-4.3489,-7.3452,-1.8023,8.724
15.507000,-4.5038,-7.5479,-1.7448,8.961
15.508000,-4.6702,-7.7631,-1.6896,9.216
15.511000,-4.8291,-7.9913,-1.6699,9.485
15.516000,-4.9830,-8.2061,-1.6569,9.742
15.522000,-5.1132,-8.4226,-1.6479,9.990
15.527000,-5.2198,-8.6285,-1.6213,10.214
15.531000,-5.3056,-8.8451,-1.5817,10.435
15.592000,-5.3873,-9.0707,-1.5242,10.659
15.593000,-5.4821,-9.2889,-1.4538,10.883
15.593000,-5.5781,-9.5291,-1.3968,11.130
15.593000,-5.6829,-9.7479,-1.3672,11.366
15.596000,-5.7940,-9.9310,-1.3508,11.577
15.597000,-5.8999,-10.0836,-1.3401,11.759
15.598000,-6.1779,-10.1638,-1.5048,11.989
15.600000,-6.1592,-10.2630,-1.4834,12.061
15.603000,-6.3179,-10.2495,-1.6420,12.152
15.604000,-6.5010,-10.1878,-1.8320,12.223
15.608000,-6.7110,-10.0803,-2.0177,12.277
15.608000,-6.9335,-9.9297,-2.2420,12.317
15.609000,-7.1520,-9.7777,-2.4340,12.356
15.610000,-7.3281,-9.6439,-2.6129,12.391
15.611000,-7.4263,-9.5832,-2.7310,12.428
