SensorId, TimeStamp (s), FrameNumber, AccX (g), AccY (g), AccZ (g), GyroX (deg/s), GyroY (deg/s), GyroZ (deg/s), MagX (uT), MagY (uT), MagZ (uT), EulerX (deg), EulerY (deg), EulerZ (deg), QuatW, QuatX, QuatY, QuatZ, LinAccX (g), LinAccY (g), LinAccZ (g), Pressure (kPa), Altitude (m), Temperature (degC), HeaveMotion (m)
1, 21.2801, 1345, -0.02570102, -0.98530161, 0.15347528, 0.83097291, 0.87071151, 3.31822515, -30.95586014, 7.30780458, -106.75241089, 99.36025238, -2.55228925, -75.07368469, -0.52330798, 0.59565890, -0.47584689, -0.38066906, -0.01915358, -0.00065367, 0.00736863, 100.31100464, 84.75119781, 33.45000076, 0.00000000
1, 21.2901, 1346, -0.01883673, -0.98585641, 0.14691144, 0.89280331, 0.33153835, 4.04068279, -30.98509216, 7.19087982, -106.92779541, 99.36941528, -2.59268641, -75.07691193, -0.52340931, 0.59554362, -0.47607124, -0.38042957, -0.02649168, -0.00005670, 0.01400360, 100.31100464, 84.75119781, 33.45000076, 0.00000000
1, 21.3101, 1347, -0.04186904, -0.99087048, 0.14928760, 1.23392761, -2.79200315, 4.41756821, -30.92663002, 7.10318613, -106.84010315, 99.39761353, -2.67506838, -75.12638855, -0.52342427, 0.59517336, -0.47678283, -0.38009733, -0.00492669, 0.00509240, 0.01199405, 100.31100464, 84.75119781, 33.45000076, 0.00000000
1, 21.3201, 1348, -0.06208161, -0.98892939, 0.14568716, 1.29130602, -3.02821136, 4.84935904, -31.04355431, 7.54165459, -107.30780029, 99.41242218, -2.71799207, -75.16416168, -0.52339172, 0.59493077, -0.47721595, -0.37997836, 0.01458285, 0.00323448, 0.01580927, 100.31100464, 84.75119781, 33.45000076, 0.00000000
1, 21.3301, 1349, -0.07277875, -0.98444152, 0.15501435, 1.13645351, -3.49580240, 4.68244982, -31.04355431, 7.54165459, -107.30780029, 99.42459869, -2.76691628, -75.20642090, -0.52338177, 0.59463578, -0.47768962, -0.37985861, 0.02448385, -0.00119601, 0.00667532, 100.31100464, 84.75119781, 33.45000076, 0.00000000
1, 21.3401, 1350, -0.07182889, -0.98938107, 0.16098802, 1.31670916, -2.31753898, 4.27008772, -31.33586693, 7.13241720, -106.84010315, 99.43930817, -2.80526090, -75.23625183, -0.52335811, 0.59444159, -0.47806069, -0.37972814, 0.02272867, 0.00381220, 0.00093628, 100.31100464, 84.75119781, 33.45000076, 0.00000000
1, 21.3501, 1351, -0.07479211, -0.98888016, 0.15912457, 1.10687387, -1.21446180, 3.94852972, -31.39432907, 6.60625553, -106.98625946, 99.45137787, -2.84220195, -75.25465393, -0.52338064, 0.59428799, -0.47835746, -0.37956396, 0.02504886, 0.00338130, 0.00300150, 100.31100464, 84.75119781, 33.45000076, 0.00000000
1, 21.3601, 1352, -0.07310748, -0.98482180, 0.16041432, 1.01587200, -1.07268190, 3.81285858, -31.54048538, 6.86933661, -106.86933899, 99.46246338, -2.87806129, -75.27145386, -0.52340919, 0.59414023, -0.47863778, -0.37940228, 0.02272451, -0.00061607, 0.00190954, 100.31100464, 84.75119781, 33.45000076, 0.00000000
1, 21.3701, 1353, -0.07006835, -0.98370790, 0.16337255, 1.15733683, -1.03368700, 3.68930483, -31.62817764, 6.69394922, -106.89856720, 99.47495270, -2.91275287, -75.28768158, -0.52342790, 0.59400541, -0.47891459, -0.37923837, 0.01907018, -0.00166839, -0.00082694, 100.31100464, 84.75119781, 33.45000076, 0.00000000
1, 21.3801, 1354, -0.06826774, -0.98278606, 0.15636867, 0.92528588, -1.02865589, 3.39443469, -31.83279800, 6.57702398, -106.86933899, 99.48001862, -2.95271111, -75.30263519, -0.52351004, 0.59382302, -0.47918308, -0.37907135, 0.01667224, -0.00252127, 0.00633685, 100.31100464, 84.75119781, 33.45000076, 0.00000000
1, 21.3901, 1355, -0.06414589, -0.98368609, 0.15275322, 0.84897614, -0.65754086, 3.14136100, -31.83279800, 6.57702398, -106.86933899, 99.48918152, -2.98262477, -75.31427765, -0.52354223, 0.59370911, -0.47940403, -0.37892580, 0.01192367, -0.00156609, 0.01005628, 100.31100464, 84.75119781, 33.45000076, 0.00000000
1, 21.4001, 1356, -0.06791250, -0.98377883, 0.15242970, 1.03985977, -0.28780416, 3.04258728, -31.59894753, 6.92779875, -106.98625946, 99.50006104, -3.01213932, -75.32208252, -0.52357668, 0.59362042, -0.47960901, -0.37875777, 0.01517532, -0.00141730, 0.01053890, 100.31100464, 84.75119781, 33.45000076, 0.00000000
1, 21.4101, 1357, -0.07418998, -0.98346794, 0.14944963, 0.92856491, 0.07840669, 2.98262811, -31.97895241, 6.69394922, -106.75241089, 99.50964355, -3.04166460, -75.32618713, -0.52363014, 0.59354120, -0.47979051, -0.37857813, 0.02094279, -0.00166690, 0.01367671, 100.31100464, 84.75119781, 33.45000076, 0.00000000
1, 21.4201, 1358, -0.07525682, -0.98225605, 0.15160327, 1.21515870, -0.14031281, 2.76345348, -31.45279121, 5.46623802, -107.13241577, 99.52217865, -3.06866288, -75.33209991, -0.52365232, 0.59347701, -0.47998011, -0.37840784, 0.02152024, -0.00282459, 0.01171028, 100.31100464, 84.75119781, 33.45000076, 0.00000000
1, 21.4301, 1359, -0.07525285, -0.98072088, 0.15588589, 1.17388940, 0.29823428, 2.61669707, -31.86202812, 6.02163124, -106.54779053, 99.52969360, -3.11143422, -75.33329773, -0.52377838, 0.59335303, -0.48019719, -0.37815240, 0.02096608, -0.00430598, 0.00761717, 100.31100464, 84.75119781, 33.45000076, 0.00000000
1, 21.4401, 1360, -0.07689448, -0.98290586, 0.16119368, 1.24035513, 0.65070933, 2.46651769, -31.86202812, 6.02163124, -106.54779053, 99.54203796, -3.13680005, -75.33090210, -0.52382249, 0.59332848, -0.48033580, -0.37795359, 0.02193661, -0.00206896, 0.00244842, 100.31100464, 84.75119781, 33.45000076, 0.00000000
1, 21.4501, 1361, -0.07845499, -0.98123622, 0.16305429, 1.34432113, 0.86218059, 2.40013003, -31.71587181, 7.10318613, -106.78163910, 99.55529022, -3.16187453, -75.32633972, -0.52386791, 0.59331822, -0.48046485, -0.37774259, 0.02304867, -0.00368067, 0.00080262, 100.31100464, 84.75119781, 33.45000076, 0.00000000
1, 21.4601, 1362, -0.07957763, -0.98185527, 0.16180043, 1.41977549, 1.94579923, 2.26726341, -31.36509705, 7.01549244, -106.89856720, 99.56867981, -3.18739271, -75.31084442, -0.52395034, 0.59335291, -0.48053974, -0.37747866, 0.02373734, -0.00299624, 0.00228315, 100.31100464, 84.75119781, 33.45000076, 0.00000000
1, 21.4701, 1363, -0.07664382, -0.98359585, 0.16093622, 1.44654357, 2.64562917, 2.14339471, -31.71587181, 7.10318613, -106.95703125, 99.58195496, -3.21287012, -75.28825378, -0.52405649, 0.59341693, -0.48057714, -0.37718284, 0.02035926, -0.00119224, 0.00337004, 100.31100464, 84.75119781, 33.45000076, 0.00000000
1, 21.4801, 1364, -0.07062407, -0.98488295, 0.15903813, 1.41902697, 3.44690824, 2.12779140, -31.89126015, 7.04472351, -107.22010803, 99.59086609, -3.24441433, -75.25710297, -0.52423716, 0.59347516, -0.48058224, -0.37683353, 0.01386679, 0.00016047, 0.00548973, 100.31100464, 84.75119781, 33.45000076, 0.00000000
1, 21.4901, 1365, -0.06361631, -0.98316085, 0.15631555, 1.52555835, 3.46484518, 2.14438915, -31.89126015, 7.04472351, -107.22010803, 99.60443115, -3.27124953, -75.22641754, -0.52437347, 0.59356964, -0.48058438, -0.37649193, 0.00633661, -0.00149835, 0.00840074, 100.31100464, 84.75119781, 33.45000076, 0.00000000
1, 21.5001, 1366, -0.06083699, -0.98050475, 0.15456696, 1.45427752, 3.51267195, 2.30417132, -31.65740967, 6.60625553, -107.22010803, 99.61726379, -3.29973722, -75.19551849, -0.52452064, 0.59365577, -0.48059022, -0.37614352, 0.00307393, -0.00408523, 0.01038465, 100.31100464, 84.75119781, 33.45000076, 0.00000000
1, 21.5101, 1367, -0.05789141, -0.98067474, 0.15409829, 1.63905621, 3.01817393, 2.65808034, -31.56971550, 6.48933077, -106.95703125, 99.63225555, -3.33091807, -75.17011261, -0.52464908, 0.59371912, -0.48064315, -0.37579659, -0.00038979, -0.00384467, 0.01109324, 100.31100464, 84.75119781, 33.45000076, 0.00000000
1, 21.5201, 1368, -0.06086790, -0.97869289, 0.15870331, 1.42604780, 3.02909136, 2.85383916, -31.59894753, 6.46009922, -106.37240601, 99.64512634, -3.36403537, -75.14491272, -0.52479535, 0.59376502, -0.48069865, -0.37544906, 0.00200554, -0.00576087, 0.00671690, 100.31100464, 84.75119781, 33.45000076, 0.00000000
1, 21.5301, 1369, -0.05960902, -0.97983837, 0.16377915, 1.71081543, 3.09248424, 3.21977329, -31.54048538, 6.86933661, -106.98625946, 99.66162109, -3.40067482, -75.11989594, -0.52493584, 0.59381413, -0.48078203, -0.37506795, 0.00012694, -0.00454480, 0.00189335, 100.31100464, 84.75119781, 33.45000076, 0.00000000
1, 21.5401, 1370, -0.05697848, -0.97738910, 0.17277904, 1.49592495, 3.30724955, 3.63072801, -31.54048538, 6.86933661, -106.98625946, 99.67509460, -3.44193649, -75.09326935, -0.52511525, 0.59383953, -0.48086715, -0.37466717, -0.00321882, -0.00692497, -0.00684935, 100.31100464, 84.75119781, 33.45000076, 0.00000000
1, 21.5501, 1371, -0.05320115, -0.98207235, 0.17452660, 1.63875711, 3.38261008, 4.17401457, -31.48202324, 7.01549244, -107.54165649, 99.68998718, -3.48869324, -75.06682587, -0.52530807, 0.59385103, -0.48098156, -0.37423143, -0.00777298, -0.00215504, -0.00834777, 100.31100464, 84.75119781, 33.45000076, 0.00000000
1, 21.5601, 1372, -0.04536612, -0.98596585, 0.17065740, 1.36858785, 3.80116630, 4.78331709, -31.68664169, 7.13241720, -107.22010803, 99.70198822, -3.54216647, -75.03726196, -0.52555221, 0.59383827, -0.48109937, -0.37375715, -0.01648406, 0.00183508, -0.00425772, 100.31100464, 84.75119781, 33.45000076, 0.00000000
1, 21.5701, 1373, -0.03673884, -0.98468053, 0.17399545, 1.38663888, 3.95660233, 5.57546663, -31.42355919, 7.42472935, -106.84010315, 99.71413422, -3.60371017, -75.00749969, -0.52582753, 0.59379810, -0.48125148, -0.37323749, -0.02614449, 0.00064297, -0.00737178, 100.31100464, 84.75119781, 33.45000076, 0.00000000
1, 21.5801, 1374, -0.02432013, -0.98396862, 0.17512278, 1.28932762, 3.36170530, 6.38625193, -31.89126015, 7.48319197, -106.69394684, 99.72823334, -3.65901899, -74.98487854, -0.52604485, 0.59375924, -0.48141977, -0.37277591, -0.03964673, 0.00003193, -0.00827216, 100.31100464, 84.75119781, 33.45000076, 0.00000000
1, 21.5901, 1375, -0.01045391, -0.98132229, 0.17361079, 0.83456016, 2.99854612, 7.57515860, -31.89126015, 7.48319197, -106.69394684, 99.73567200, -3.73870587, -74.96796417, -0.52637315, 0.59357822, -0.48170137, -0.37223649, -0.05465626, -0.00250471, -0.00653246, 100.31100464, 84.75119781, 33.45000076, 0.00000000
1, 21.6001, 1376, 0.00021420, -0.98208082, 0.17322649, 0.69537097, 1.54076576, 8.76901054, -31.92049026, 6.34317446, -106.37240601, 99.74282074, -3.82771397, -74.96744537, -0.52668595, 0.59329319, -0.48210704, -0.37172303, -0.06680387, -0.00163134, -0.00603125, 100.31100464, 84.75119781, 33.45000076, 0.00000000
1, 21.6101, 1377, 0.00576168, -0.98500919, 0.16990030, 0.52093613, 0.12737593, 10.27983952, -32.32972717, 6.60625553, -106.54779053, 99.74936676, -3.92926621, -74.98347473, -0.52699691, 0.59289020, -0.48265016, -0.37121999, -0.07403509, 0.00143591, -0.00258985, 100.31100464, 84.75119781, 33.45000076, 0.00000000
1, 21.6201, 1378, 0.01096178, -0.98253214, 0.17151161, -0.02811905, 0.43583021, 12.48494244, -32.30049515, 6.78164291, -106.78163910, 99.75056458, -4.05308008, -75.00016785, -0.52742004, 0.59237897, -0.48327503, -0.37062192, -0.08124254, -0.00089717, -0.00414797, 100.31100464, 84.75119781, 33.45000076, 0.00000000
1, 21.6301, 1379, -0.00325512, -0.98015177, 0.17115003, -0.55820125, 0.37291685, 13.47165108, -31.33586693, 4.47237635, -106.98625946, 99.74713898, -4.17256069, -75.01854706, -0.52784431, 0.59185410, -0.48387423, -0.37007427, -0.06923849, -0.00312974, -0.00389057, 100.31100464, 84.75119781, 33.45000076, 0.00000000
1, 21.6401, 1380, -0.02438582, -0.98157275, 0.16915657, -0.35409787, -1.47142422, 14.93233776, -32.03741455, 5.96316862, -106.63548279, 99.74689484, -4.31731558, -75.05819702, -0.52828157, 0.59116155, -0.48470163, -0.36947411, -0.05035282, -0.00154416, -0.00198941, 100.31100464, 84.75119781, 33.45000076, 0.00000000
1, 21.6501, 1381, -0.03608647, -0.98230028, 0.17142835, -0.94028014, -2.69325423, 16.29523659, -32.03741455, 5.96316862, -106.63548279, 99.74204254, -4.47347116, -75.11223602, -0.52874017, 0.59034395, -0.48563609, -0.36889780, -0.04131045, -0.00063218, -0.00438456, 100.31100464, 84.75119781, 33.45000076, 0.00000000
1, 21.6601, 1382, -0.04252252, -0.98206973, 0.17777173, -1.07194853, -3.34526777, 17.29788399, -32.53434753, 6.89856768, -106.66471863, 99.73668671, -4.63843250, -75.17440796, -0.52920914, 0.58945549, -0.48664701, -0.36831331, -0.03770560, -0.00067009, -0.01086920, 100.31100464, 84.75119781, 33.45000076, 0.00000000
1, 21.6701, 1383, -0.05623036, -0.97810292, 0.17983936, -1.53734267, -2.86842799, 18.31416321, -32.73896408, 6.51856184, -107.07395172, 99.72663879, -4.81422663, -75.23355865, -0.52975357, 0.58851641, -0.48767200, -0.36767602, -0.02698258, -0.00442425, -0.01314233, 100.31100464, 84.75119781, 33.45000076, 0.00000000
1, 21.6801, 1384, -0.06250993, -0.97776484, 0.18190177, -1.82382286, -2.46170759, 19.41411972, -32.73896408, 6.98626137, -107.22010803, 99.71598816, -4.99798536, -75.29087830, -0.53033727, 0.58755076, -0.48871791, -0.36698952, -0.02387885, -0.00453554, -0.01546549, 100.31100464, 84.75119781, 33.45000076, 0.00000000
1, 21.6901, 1385, -0.06013292, -0.97882700, 0.17549455, -1.92469072, -2.69778395, 20.51392174, -32.56357574, 7.16164875, -106.92779541, 99.70267487, -5.19578314, -75.35200500, -0.53097606, 0.58650237, -0.48983276, -0.36625570, -0.02956047, -0.00320807, -0.00929656, 100.31100464, 84.75119781, 33.45000076, 0.00000000
1, 21.7001, 1386, -0.05237432, -0.98144996, 0.17183299, -2.29814148, -2.44891214, 21.62875366, -32.56357574, 7.16164875, -106.92779541, 99.68582153, -5.40500832, -75.41247559, -0.53167844, 0.58539528, -0.49097937, -0.36547187, -0.04087240, -0.00030323, -0.00593939, 100.31100464, 84.75119781, 33.45000076, 0.00000000
1, 21.7101, 1387, -0.03625495, -0.98710918, 0.16796227, -2.94621634, -1.55720079, 22.70981789, -32.35895920, 6.84010506, -107.04472351, 99.66206360, -5.62642097, -75.46590424, -0.53248441, 0.58423811, -0.49211752, -0.36461848, -0.06075019, 0.00565590, -0.00244917, 100.31100464, 84.75119781, 33.45000076, 0.00000000
1, 21.7201, 1388, -0.02857250, -0.98322213, 0.15540907, -3.35689163, -2.66468024, 23.72269249, -32.97281647, 6.72318029, -107.07395172, 99.63568878, -5.85602140, -75.53189850, -0.53329384, 0.58298069, -0.49334365, -0.36379018, -0.07234407, 0.00209645, 0.00960630, 100.31100464, 84.75119781, 33.45000076, 0.00000000
1, 21.7401, 1389, -0.04188658, -0.98214030, 0.16124529, -3.84120798, -6.06623840, 26.69731903, -33.52820587, 6.95702982, -106.98625946, 99.58528900, -6.33874464, -75.73439789, -0.53476399, 0.58007163, -0.49625137, -0.36232451, -0.06725521, 0.00171365, 0.00274924, 100.31100464, 84.75119781, 33.45000076, 0.00000000
1, 21.7501, 1390, -0.07463195, -0.97180462, 0.16304623, -4.58747816, -7.35202217, 27.76278877, -33.52820587, 6.95702982, -106.98625946, 99.55352020, -6.60059547, -75.85339355, -0.53555310, 0.57842463, -0.49785444, -0.36159208, -0.03901421, -0.00821803, 0.00027488, 100.31100464, 84.75119781, 33.45000076, 0.00000000
1, 21.7601, 1391, -0.11223487, -0.97002101, 0.15588561, -4.31765938, -7.38998795, 28.72238159, -33.17743301, 6.89856768, -107.60011292, 99.52523804, -6.87189007, -75.97427368, -0.53635365, 0.57674372, -0.49951282, -0.36080262, -0.00602884, -0.00954174, 0.00675862, 100.31100464, 84.75119781, 33.45000076, 0.00000000
1, 21.7701, 1392, -0.13113295, -0.97051537, 0.14810188, -4.36044025, -6.67183018, 29.26582718, -33.84975052, 7.22011089, -107.04472351, 99.49633789, -7.14979410, -76.08884430, -0.53720099, 0.57505578, -0.50116009, -0.35995081, 0.00810955, -0.00854754, 0.01389862, 100.31100464, 84.75119781, 33.45000076, 0.00000000
1, 21.7801, 1393, -0.12039427, -0.97170568, 0.14309208, -4.42843294, -5.31236982, 29.93003845, -34.66822433, 6.98626137, -106.98625946, 99.46421051, -7.43550444, -76.19046021, -0.53813338, 0.57337314, -0.50275981, -0.35901022, -0.00751729, -0.00682313, 0.01833043, 100.31100464, 84.75119781, 33.45000076, 0.00000000
1, 21.7901, 1394, -0.10124648, -0.97179103, 0.14002033, -4.03719378, -3.60946226, 30.96463585, -34.72668839, 4.85238218, -107.71704102, 99.43604279, -7.73526382, -76.27717590, -0.53914410, 0.57171428, -0.50435108, -0.35790583, -0.03173223, -0.00616496, 0.02080560, 100.31100464, 84.75119781, 33.45000076, 0.00000000
1, 21.8001, 1395, -0.06739103, -0.96490383, 0.14396319, -4.36603785, -2.56660128, 32.39576340, -34.72668839, 4.85238218, -107.71704102, 99.40399170, -8.05088902, -76.35576630, -0.54025733, 0.57000530, -0.50595045, -0.35669348, -0.07096353, -0.01241983, 0.01633031, 100.31100464, 84.75119781, 33.45000076, 0.00000000
1, 21.8101, 1396, -0.06588964, -0.95671618, 0.16006626, -3.87766266, -3.05309725, 33.25425720, -35.25284958, 7.10318613, -107.27857208, 99.37813568, -8.37421131, -76.44047546, -0.54134697, 0.56826180, -0.50762618, -0.35544011, -0.07804992, -0.01993957, -0.00038844, 100.31100464, 84.75119781, 33.45000076, 0.00000000
1, 21.8401, 1397, -0.17994466, -0.94744265, 0.10480025, -1.55022562, -0.84499437, 35.71338272, -35.69131851, 6.75241137, -107.45395660, 99.34976196, -9.39525986, -76.72424316, -0.54445869, 0.56288874, -0.51312447, -0.35131797, 0.01870970, -0.02657377, 0.05355833, 100.31100464, 84.75119781, 33.45000076, 0.00000000
1, 21.8501, 1398, -0.17521298, -0.95415163, 0.10407470, 0.16742195, 2.68970966, 35.63556290, -35.69131851, 6.75241137, -107.45395660, 99.35749054, -9.75128555, -76.75545502, -0.54565901, 0.56138700, -0.51474929, -0.34947696, 0.00788601, -0.01885495, 0.05417425, 100.31100464, 84.75119781, 33.45000076, 0.00000000
1, 21.8601, 1399, -0.14973643, -0.95948219, 0.12286831, 0.66468418, 7.20027781, 35.82437515, -35.86670685, 7.86319780, -107.62934875, 99.36267853, -10.11643696, -76.74185944, -0.54703760, 0.56003273, -0.51617831, -0.34738043, -0.02385821, -0.01247817, 0.03536338, 100.31100464, 84.75119781, 33.45000076, 0.00000000
1, 21.8701, 1400, -0.14077629, -0.98483455, 0.19207336, 0.99420059, 9.50446987, 36.45346451, -35.80824280, 7.30780458, -107.62934875, 99.36711121, -10.49149227, -76.70620728, -0.54851717, 0.55873007, -0.51753247, -0.34512314, -0.03938560, 0.01391469, -0.03391102, 100.31100464, 84.75119781, 33.45000076, 0.00000000
1, 21.8801, 1401, -0.17591761, -1.00202155, 0.21572213, 0.53571016, 7.50255108, 35.51774979, -36.33440399, 7.39549828, -106.75241089, 99.37409210, -10.85325146, -76.69033813, -0.54986888, 0.55739784, -0.51893204, -0.34301803, -0.01060023, 0.03222062, -0.05785127, 100.31100464, 84.75119781, 33.45000076, 0.00000000
1, 21.8901, 1402, -0.26899350, -1.01470530, 0.28429958, 0.08980089, 9.09912300, 35.59653473, -36.65594864, 6.22624969, -107.24934387, 99.36948395, -11.21922874, -76.65732574, -0.55133754, 0.55606610, -0.52022594, -0.34085572, 0.07604223, 0.04599659, -0.12678847, 100.31100464, 84.75119781, 33.45000076, 0.00000000
1, 21.9001, 1403, -0.38562581, -1.03262508, 0.25714538, 0.10612943, 14.32012463, 32.11039734, -36.65594864, 6.22624969, -107.24934387, 99.35329437, -11.55918980, -76.56590271, -0.55293280, 0.55504328, -0.52109444, -0.33860448, 0.18675435, 0.06509681, -0.10038868, 100.31100464, 84.75119781, 33.45000076, 0.00000000
1, 21.9101, 1404, -0.39298779, -1.05053627, 0.19178620, -2.96283650, 23.70985413, 30.90108109, -36.88979721, 7.45396090, -107.04472351, 99.28603363, -11.90229893, -76.37750244, -0.55506235, 0.55419856, -0.52135468, -0.33609375, 0.18847212, 0.08417530, -0.03597844, 100.31100464, 84.75119781, 33.45000076, 0.00000000
1, 21.9201, 1405, -0.24009968, -1.02755845, 0.22414516, -4.96671629, 32.85573959, 27.88473320, -37.03595352, 7.74627304, -107.07395172, 99.17720032, -12.22990322, -76.09108734, -0.55760872, 0.55365568, -0.52096021, -0.33337426, 0.02973786, 0.06206843, -0.06982964, 100.31100464, 84.75119781, 33.45000076, 0.00000000
1, 21.9301, 1406, -0.24761610, -1.05760145, 0.19948915, -4.59369850, 22.14414978, 25.85453415, -37.09441757, 8.24320412, -107.62934875, 99.09320068, -12.52314568, -75.90905762, -0.55959344, 0.55289251, -0.52100861, -0.33123264, 0.03215021, 0.09301285, -0.04694942, 100.31100464, 84.75119781, 33.45000076, 0.00000000
1, 21.9401, 1407, -0.37386268, -1.05329013, 0.11968436, -6.38458920, 15.80846977, 25.77889442, -36.65594864, 5.96316862, -107.86319733, 99.00392914, -12.80256176, -75.79016876, -0.56136191, 0.55186832, -0.52129340, -0.32949570, 0.15374172, 0.08966464, 0.03090758, 100.31100464, 84.75119781, 33.45000076, 0.00000000
1, 21.9501, 1408, -0.38402194, -1.04117060, 0.18805434, -7.49533510, 21.81373596, 23.32478523, -37.12364578, 8.00935364, -108.03858185, 98.88825226, -13.06676388, -75.60588074, -0.56338221, 0.55106956, -0.52112925, -0.32763892, 0.15911685, 0.07820050, -0.03934491, 100.31100464, 84.75119781, 33.45000076, 0.00000000
1, 21.9601, 1409, -0.35461763, -1.05616450, 0.17532898, -8.92160606, 27.15041733, 19.57935333, -37.12364578, 8.00935364, -108.03858185, 98.74360657, -13.30169201, -75.36078644, -0.56560171, 0.55051851, -0.52047729, -0.32577223, 0.12556399, 0.09381495, -0.02903256, 100.31100464, 84.75119781, 33.45000076, 0.00000000
1, 21.9701, 1410, -0.31120870, -1.08476579, 0.13145930, -10.32548618, 29.72794914, 18.34420395, -36.97749329, 6.25548077, -107.45395660, 98.57719421, -13.52762127, -75.08672333, -0.56796527, 0.55002195, -0.51959372, -0.32390374, 0.07840112, 0.12299416, 0.01216090, 100.31100464, 84.75119781, 33.45000076, 0.00000000
1, 21.9801, 1411, -0.25845668, -1.08417034, 0.14845793, -12.06076622, 30.18940926, 16.62468147, -37.44519043, 8.00935364, -107.83396912, 98.38962555, -13.73631382, -74.80409241, -0.57038325, 0.54952234, -0.51854640, -0.32217667, 0.02190472, 0.12278630, -0.00794427, 100.31100464, 84.75119781, 33.45000076, 0.00000000
1, 21.9901, 1412, -0.30527997, -1.11175084, 0.09093437, -11.54964542, 21.32202339, 14.72431374, -37.06518555, 6.43086815, -108.12627411, 98.22776794, -13.91280174, -74.60848236, -0.57231331, 0.54888177, -0.51786453, -0.32094038, 0.06570102, 0.15080999, 0.04646171, 100.31100464, 84.75119781, 33.45000076, 0.00000000
1, 22.0201, 1413, -0.28802192, -1.08948362, 0.12819137, -12.45962811, 24.80108833, 9.45583820, -37.44519043, 4.76468849, -108.18473816, 97.68213654, -14.34615612, -73.93872070, -0.57825536, 0.54739368, -0.51489240, -0.31759515, 0.04071384, 0.12910694, 0.00000107, 100.31100464, 84.75119781, 33.45000076, 0.00000000
1, 22.0301, 1414, -0.27518660, -1.07845354, 0.12517829, -13.28290462, 23.59285164, 8.70142365, -37.18210983, 8.18474102, -108.62320709, 97.49211121, -14.46256351, -73.70883942, -0.58018720, 0.54698962, -0.51374215, -0.31662938, 0.02584223, 0.11818036, -0.00013090, 100.31100464, 84.75119781, 33.45000076, 0.00000000
1, 22.0401, 1415, -0.23394971, -1.03290606, 0.15549728, -13.89209080, 19.45349693, 8.24246788, -37.29903412, 6.54779291, -109.00321198, 97.30618286, -14.56941795, -73.52040863, -0.58194852, 0.54645413, -0.51276577, -0.31590369, -0.01733365, 0.07264183, -0.03352660, 100.31100464, 84.75119781, 33.45000076, 0.00000000
1, 22.0501, 1416, -0.20069849, -1.00956380, 0.17705029, -14.11491776, 12.97959232, 8.68688202, -37.15287781, 8.82782841, -108.85705566, 97.13449097, -14.67208672, -73.39849854, -0.58344084, 0.54570633, -0.51213157, -0.31547219, -0.05238223, 0.04933803, -0.05795766, 100.31100464, 84.75119781, 33.45000076, 0.00000000
1, 22.0601, 1417, -0.19846645, -0.99139619, 0.21142057, -14.44747829, 8.32317924, 9.56158924, -37.15287781, 8.82782841, -108.85705566, 96.97162628, -14.77745247, -73.32511139, -0.58476329, 0.54477245, -0.51176578, -0.31523117, -0.05645386, 0.03122048, -0.09515209, 100.31100464, 84.75119781, 33.45000076, 0.00000000
1, 22.0701, 1418, -0.23422031, -0.97860265, 0.21331045, -14.91487026, 4.55078220, 10.56424046, -37.24057388, 7.60011673, -109.17860413, 96.81407928, -14.88811016, -73.29133606, -0.58596587, 0.54366452, -0.51162601, -0.31513786, -0.02253442, 0.01858060, -0.09981461, 100.31100464, 84.75119781, 33.45000076, 0.00000000
1, 22.0801, 1419, -0.23694740, -0.96185541, 0.22680263, -15.54136372, 6.51407146, 11.26747704, -37.47442245, 9.12014008, -109.50014496, 96.65833282, -15.00546932, -73.24284363, -0.58721924, 0.54260129, -0.51144987, -0.31492299, -0.02179979, 0.00200778, -0.11604534, 100.31100464, 84.75119781, 33.45000076, 0.00000000
1, 22.0901, 1420, -0.24713841, -0.94833326, 0.21267679, -15.09066105, 7.60215569, 11.81345654, -37.26980209, 8.44782257, -109.58783722, 96.49100494, -15.13180733, -73.17848206, -0.58859688, 0.54150969, -0.51120526, -0.31462711, -0.01362843, -0.01125448, -0.10466205, 100.31100464, 84.75119781, 33.45000076, 0.00000000
1, 22.1001, 1421, -0.25341833, -0.93910265, 0.19802786, -14.55975819, 6.58842230, 12.88667965, -37.64981079, 9.29552746, -109.06167603, 96.33179474, -15.26750851, -73.12535858, -0.58993191, 0.54036802, -0.51107627, -0.31429914, -0.00953699, -0.02016948, -0.09278758, 100.31100464, 84.75119781, 33.45000076, 0.00000000
1, 22.1101, 1422, -0.21722524, -0.93928468, 0.18530007, -13.76752472, 6.02916193, 13.98493576, -37.64981079, 9.29552746, -109.06167603, 96.18215942, -15.41336155, -73.07880402, -0.59123260, 0.53920132, -0.51104784, -0.31390446, -0.04807894, -0.01960161, -0.08258730, 100.31100464, 84.75119781, 33.45000076, 0.00000000
1, 22.1201, 1423, -0.14485559, -0.93715906, 0.17344025, -14.85766888, 6.86584044, 15.75383663, -37.41595840, 5.87547493, -109.38321686, 96.01960754, -15.57759094, -73.02508545, -0.59266841, 0.53792077, -0.51102775, -0.31342629, -0.12306765, -0.02126437, -0.07325331, 100.31100464, 84.75119781, 33.45000076, 0.00000000
1, 22.1301, 1424, -0.11705232, -0.91554129, 0.12478485, -15.72542381, 1.19567561, 18.04833221, -37.82519531, 7.57088566, -109.55860901, 95.86820984, -15.74452591, -73.03270721, -0.59388840, 0.53640950, -0.51133829, -0.31320047, -0.15362713, -0.04228365, -0.02724287, 100.31100464, 84.75119781, 33.45000076, 0.00000000
1, 22.1401, 1425, -0.09279644, -0.89031124, 0.13373934, -16.27975464, -3.78922534, 20.93353271, -37.29903412, 9.09090900, -109.14936829, 95.72255707, -15.94947052, -73.09357452, -0.59505224, 0.53452820, -0.51207018, -0.31301212, -0.18100069, -0.06690592, -0.03860387, 100.31100464, 84.75119781, 33.45000076, 0.00000000
1, 22.1501, 1426, -0.07824052, -0.87411511, 0.13024580, -16.75168228, -6.73852777, 23.93630981, -37.88365936, 9.93861389, -109.93861389, 95.58165741, -16.18160439, -73.18753052, -0.59618473, 0.53240472, -0.51307946, -0.31282365, -0.19927749, -0.08227323, -0.03755463, 100.31100464, 84.75119781, 33.45000076, 0.00000000
1, 22.1701, 1427, -0.17889547, -0.85244322, 0.16921622, -16.82429886, -12.66042805, 29.77248001, -38.35136032, 9.20783424, -109.85092163, 95.33061981, -16.72349548, -73.48594666, -0.59823453, 0.52747482, -0.51600075, -0.31245643, -0.10745667, -0.10187078, -0.08128351, 100.31100464, 84.75119781, 33.45000076, 0.00000000
1, 22.1801, 1428, -0.22036733, -0.85815012, 0.15851827, -16.78759384, -13.62910557, 32.43041229, -38.46828461, 9.35398960, -110.20169067, 95.21885681, -17.03283310, -73.66046143, -0.59923983, 0.52479178, -0.51776314, -0.31213239, -0.07098220, -0.09481943, -0.07277258, 100.31100464, 84.75119781, 33.45000076, 0.00000000
1, 22.1901, 1429, -0.27216759, -0.85849094, 0.14392100, -17.61251831, -14.06865692, 34.49851990, -38.84828949, 6.66471767, -109.96784210, 95.09641266, -17.36449051, -73.83905792, -0.60034704, 0.52192855, -0.51959807, -0.31175631, -0.02455653, -0.09297752, -0.06041598, 100.31100464, 84.75119781, 33.45000076, 0.00000000
1, 22.2001, 1430, -0.31380436, -0.86528003, 0.07494656, -16.43343353, -20.09839439, 35.81197739, -39.34521866, 9.99707699, -110.31861877, 95.00603485, -17.70432091, -74.08153534, -0.60115463, 0.51889592, -0.52183390, -0.31152770, 0.01163784, -0.08447508, 0.00657286, 100.31100464, 84.75119781, 33.45000076, 0.00000000
1, 22.2101, 1431, -0.32604751, -0.88842118, 0.03094329, -16.51970863, -15.82347965, 36.17786407, -39.05290985, 9.99707699, -110.43554688, 94.90248108, -18.05179214, -74.27945709, -0.60216182, 0.51595122, -0.52385181, -0.31108630, 0.01825949, -0.05957181, 0.04877206, 100.31100464, 84.75119781, 33.45000076, 0.00000000
1, 22.2201, 1432, -0.30678964, -0.92057574, 0.00977157, -15.95093155, -14.43162727, 35.71306229, -39.05290985, 7.30780458, -110.43554688, 94.80096436, -18.39610672, -74.46208954, -0.60318631, 0.51308864, -0.52578384, -0.31057665, -0.00668826, -0.02565992, 0.06806595, 100.31100464, 84.75119781, 33.45000076, 0.00000000
1, 22.2301, 1433, -0.29973689, -0.96201575, -0.02703405, -16.71993446, -14.18309879, 35.23805237, -39.90061188, 10.37708282, -110.34784698, 94.68523407, -18.73488235, -74.63857269, -0.60426813, 0.51019192, -0.52761823, -0.31013453, -0.01931166, 0.01757207, 0.10287914, 100.31100464, 84.75119781, 33.45000076, 0.00000000
1, 22.2401, 1434, -0.31506488, -0.97037780, -0.03957169, -15.79801655, -15.61697578, 34.35088348, -40.28062057, 10.78631973, -110.81555176, 94.59075928, -19.06533051, -74.83192444, -0.60517871, 0.50735438, -0.52954245, -0.30973393, -0.00944683, 0.02767374, 0.11347277, 100.31100464, 84.75119781, 33.45000076, 0.00000000
1, 22.2501, 1435, -0.32128978, -0.97516882, -0.02916732, -16.00278091, -15.01070404, 33.68442535, -40.33908081, 10.69862556, -110.69862366, 94.49291992, -19.38992882, -75.01812744, -0.60610086, 0.50454682, -0.53139311, -0.30934727, -0.00864263, 0.03418169, 0.10128985, 100.31100464, 84.75119781, 33.45000076, 0.00000000
1, 22.2601, 1436, -0.32392359, -0.98929071, 0.05159713, -16.35775375, -18.04088783, 33.54661179, -40.33908081, 9.44168377, -110.81555176, 94.40309906, -19.71111488, -75.23609161, -0.60688680, 0.50163823, -0.53338170, -0.30911404, -0.01150945, 0.04992219, 0.01891451, 100.31100464, 84.75119781, 33.45000076, 0.00000000
1, 22.2701, 1437, -0.31439131, -0.98978424, 0.08177715, -17.73133087, -16.23952484, 33.46682358, -40.33908081, 9.44168377, -110.81555176, 94.29413605, -20.03327370, -75.43471527, -0.60780692, 0.49870270, -0.53522754, -0.30886567, -0.02638456, 0.05211823, -0.01313541, 100.31100464, 84.75119781, 33.45000076, 0.00000000
1, 22.2801, 1438, -0.30150518, -0.98799407, 0.16234994, -18.47905922, -12.98102951, 34.58805084, -40.86524200, 10.75708866, -110.90324402, 94.17424011, -20.36279678, -75.60238647, -0.60887456, 0.49580997, -0.53692901, -0.30846649, -0.04485926, 0.05202036, -0.09568685, 100.31100464, 84.75119781, 33.45000076, 0.00000000
1, 22.2901, 1439, -0.23012203, -1.00424421, 0.20121703, -19.71650124, -8.69016266, 36.79168320, -41.24525070, 8.12627888, -111.60478973, 94.02008057, -20.72421837, -75.72241974, -0.61030728, 0.49280459, -0.53844994, -0.30779925, -0.12199259, 0.07014115, -0.13682143, 100.31100464, 84.75119781, 33.45000076, 0.00000000
1, 22.3001, 1440, -0.21689963, -1.02402604, 0.22644697, -20.33141899, -5.78012085, 39.42768097, -41.56679153, 11.19555664, -111.48786926, 93.84986877, -21.11423874, -75.81246185, -0.61196500, 0.48971412, -0.53990483, -0.30689043, -0.14147592, 0.09203944, -0.16491161, 100.31100464, 84.75119781, 33.45000076, 0.00000000
1, 22.3101, 1441, -0.17630802, -1.05988276, 0.22034851, -20.55617142, -4.03879881, 43.01232147, -41.77141190, 12.04326248, -110.66939545, 93.67182922, -21.54140472, -75.88528442, -0.61380029, 0.48648214, -0.54140484, -0.30572090, -0.18876120, 0.13030954, -0.16177621, 100.31100464, 84.75119781, 33.45000076, 0.00000000
1, 22.3501, 1442, 0.04043962, -1.22224712, 0.16542211, -25.58810425, 0.36975184, 63.02099228, -43.23297119, 11.92633724, -111.57556152, 92.79077148, -23.70099449, -75.97551727, -0.62350541, 0.47136998, -0.54781502, -0.29824519, -0.43897054, 0.30580619, -0.12117898, 100.31100464, 84.75119781, 33.45000076, 0.00000000
1, 22.3601, 1443, 0.07412396, -1.24488997, 0.15046580, -28.12142372, 0.68160182, 68.02054596, -42.58988571, 11.89710617, -111.54633331, 92.52179718, -24.38150787, -76.00138855, -0.62645233, 0.46660507, -0.54983377, -0.29583788, -0.48318779, 0.33293015, -0.11053650, 100.31100464, 84.75119781, 33.45000076, 0.00000000
1, 22.3701, 1444, 0.05782596, -1.26584136, 0.17835164, -31.03564453, 1.49037790, 72.49349976, -42.58988571, 11.89710617, -111.54633331, 92.21967316, -25.10723686, -76.01676178, -0.62964445, 0.46146679, -0.55189121, -0.29327875, -0.47822353, 0.35876182, -0.14329551, 100.31100464, 84.75119781, 33.45000076, 0.00000000
1, 22.3801, 1445, 0.02316335, -1.29668295, 0.20625404, -33.07827759, 3.68952656, 76.67302704, -44.25606537, 12.94942951, -112.07249451, 91.88922882, -25.86517906, -76.00662231, -0.63305390, 0.45610970, -0.55389184, -0.29053521, -0.45547268, 0.39493725, -0.17657429, 100.31100464, 84.75119781, 33.45000076, 0.00000000
1, 22.3901, 1446, 0.05484015, -1.33686340, 0.28878877, -35.89604568, 12.43418026, 79.96687317, -44.34375763, 12.18941784, -112.45249939, 91.48182678, -26.66884422, -75.89282227, -0.63709253, 0.45057386, -0.55546147, -0.28733087, -0.49964660, 0.44077981, -0.26521903, 100.31100464, 84.75119781, 33.45000076, 0.00000000
1, 22.4001, 1447, 0.11522273, -1.39669216, 0.37445420, -38.85055161, 19.43393135, 84.07964325, -45.33761978, 13.65097904, -112.27710724, 91.00454712, -27.51427078, -75.69358826, -0.64164877, 0.44482175, -0.55669367, -0.28374758, -0.57315415, 0.50681269, -0.35793138, 100.31100464, 84.75119781, 33.45000076, 0.00000000
1, 22.4101, 1448, 0.19751121, -1.42096567, 0.42169163, -41.39073944, 21.92513657, 89.70960236, -45.42531204, 13.97252274, -112.74481201, 90.48187256, -28.41481400, -75.45687866, -0.64651704, 0.43868452, -0.55790150, -0.27985275, -0.66915429, 0.53799635, -0.41305768, 100.31100464, 84.75119781, 33.45000076, 0.00000000
1, 22.4201, 1449, 0.27292687, -1.37350774, 0.41035500, -40.64945602, 27.83085632, 94.29254913, -45.42531204, 13.97252274, -112.74481201, 89.92498779, -29.35923004, -75.14103699, -0.65170354, 0.43247524, -0.55892259, -0.27541471, -0.75879169, 0.49824861, -0.40981856, 100.31100464, 84.75119781, 33.45000076, 0.00000000
1, 22.4301, 1450, 0.29391900, -1.39539409, 0.44043809, -40.31464767, 37.83637238, 98.43510437, -46.30224991, 14.49868488, -113.35866547, 89.30683136, -30.33295631, -74.69774628, -0.65736258, 0.42634043, -0.55947548, -0.27036187, -0.79452354, 0.52840388, -0.44890323, 100.31100464, 84.75119781, 33.45000076, 0.00000000
1, 22.4401, 1451, 0.36557218, -1.48131764, 0.40153623, -41.90361786, 43.88580704, 103.45423889, -46.74071884, 14.49868488, -113.70944214, 88.61603546, -31.35964966, -74.16286469, -0.66346854, 0.41991478, -0.55978501, -0.26480523, -0.88117754, 0.62341201, -0.41980165, 100.31100464, 84.75119781, 33.45000076, 0.00000000
1, 22.4501, 1452, 0.37176719, -1.55679846, 0.35342878, -43.10967636, 50.53964996, 108.09735107, -46.47763824, 16.01870728, -114.38175964, 87.85134125, -32.42468643, -73.52654266, -0.66997397, 0.41329885, -0.55978596, -0.25876382, -0.90289265, 0.70883703, -0.38250291, 100.31100464, 84.75119781, 33.45000076, 0.00000000
1, 22.4601, 1453, 0.26644462, -1.66128671, 0.32929158, -45.09791946, 58.68012238, 112.92605591, -46.85764313, 12.48173046, -114.67407227, 86.98849487, -33.52642441, -72.76502228, -0.67696995, 0.40646124, -0.55936664, -0.25221029, -0.81349814, 0.82404608, -0.37042508, 100.31100464, 84.75119781, 33.45000076, 0.00000000
1, 22.4701, 1454, 0.28766516, -1.79796100, 0.32393339, -51.46367264, 75.03919220, 120.63528442, -46.85764313, 12.48173046, -114.67407227, 85.91759491, -34.68394852, -71.76805115, -0.68505383, 0.39916962, -0.55802608, -0.24489173, -0.85118759, 0.97249252, -0.37895364, 100.31100464, 84.75119781, 33.45000076, 0.00000000
1, 22.4901, 1455, 0.29466805, -1.90352440, 0.41725212, -64.94824219, 68.84821320, 150.45373535, -48.02689362, 17.27565002, -115.43408203, 83.36991882, -37.37483597, -69.52951813, -0.70266342, 0.38108295, -0.55578703, -0.22834355, -0.89511061, 1.10705805, -0.50555468, 100.31100464, 84.75119781, 33.45000076, 0.00000000
1, 22.5001, 1456, 0.02085721, -1.84940445, 0.61564952, -69.03188324, 36.75171661, 160.60688782, -48.43613052, 18.50336075, -116.57409668, 82.23752594, -38.92325592, -68.80671692, -0.70985603, 0.36977279, -0.55742961, -0.22055545, -0.64268625, 1.07049513, -0.71881425, 100.31100464, 84.75119781, 33.45000076, 0.00000000
1, 22.5101, 1457, -0.36015487, -1.67065656, 0.68963552, -79.58216095, 35.87050629, 155.04171753, -48.69921112, 18.24028015, -116.69102478, 80.96091461, -40.40546799, -68.04853821, -0.71706945, 0.35796592, -0.55860823, -0.21360882, -0.28252071, 0.91048288, -0.80710816, 100.31100464, 84.75119781, 33.45000076, 0.00000000
1, 22.5201, 1458, -0.38153616, -1.41262352, 0.46367648, -89.71609497, 72.06100464, 140.43510437, -49.78076553, 21.07570839, -117.04180145, 79.23654938, -41.66539383, -66.78449249, -0.72591490, 0.34682256, -0.55673814, -0.20689237, -0.27841705, 0.67121446, -0.59867227, 100.31100464, 84.75119781, 33.45000076, 0.00000000
1, 22.5301, 1459, -0.21201053, -1.18459177, 0.26829451, -89.46087646, 85.13871002, 128.91345215, -49.78076553, 21.07570839, -117.04180145, 77.35712433, -42.74735260, -65.30826569, -0.73496288, 0.33647111, -0.55355370, -0.20048717, -0.46238989, 0.46120757, -0.42363888, 100.31100464, 84.75119781, 33.45000076, 0.00000000
1, 22.5401, 1460, -0.09910661, -1.00889421, 0.10392424, -83.18782806, 68.49415588, 118.53462982, -50.16077042, 19.61414719, -118.50335693, 75.63978577, -43.74077988, -64.01104736, -0.74271780, 0.32659471, -0.55112851, -0.19484282, -0.58787471, 0.30263957, -0.27846795, 100.31100464, 84.75119781, 33.45000076, 0.00000000
1, 22.5501, 1461, -0.27194130, -0.83977783, 0.03500843, -71.17893219, 29.73806953, 111.39395905, -50.33615875, 23.12189484, -119.08798218, 74.36865234, -44.74090195, -63.20450974, -0.74802130, 0.31712446, -0.55112457, -0.19015254, -0.42733008, 0.14979243, -0.22442801, 100.31100464, 84.75119781, 33.45000076, 0.00000000
1, 22.5601, 1462, -0.62728810, -0.74592364, -0.03549451, -58.66442871, -4.63669300, 106.94515991, -50.51154709, 22.47880745, -118.82490540, 73.52928162, -45.78261566, -62.84451675, -0.75115734, 0.30807123, -0.55337977, -0.18607974, -0.08453764, 0.07154658, -0.16296726, 100.31300354, 84.58345032, 33.45999908, 0.00000000
1, 22.5701, 1463, -0.94342208, -0.57821059, -0.00233720, -49.24607468, -17.34996033, 93.51787567, -51.33002090, 24.37883568, -118.73721313, 72.92875671, -46.72905350, -62.69182968, -0.75313270, 0.30004212, -0.55620509, -0.18276154, 0.21936098, -0.08189695, -0.20086619, 100.31300354, 84.58345032, 33.45999908, 0.00000000
1, 22.5801, 1464, -1.21282399, -0.56431818, -0.00387695, -38.19676971, 7.99863529, 70.86449432, -51.33002090, 24.37883568, -118.73721313, 72.24105072, -47.38791275, -62.27007675, -0.75561929, 0.29419798, -0.55695218, -0.17969790, 0.47951826, -0.08412408, -0.20441051, 100.31300354, 84.58345032, 33.45999908, 0.00000000
1, 22.5901, 1465, -1.16868329, -0.71755004, 0.06793428, -27.57887268, 31.99543381, 47.04520035, -51.76848984, 23.94036865, -119.05875397, 71.47271729, -47.73519135, -61.60134888, -0.75860983, 0.29059738, -0.55560619, -0.17710489, 0.42976132, 0.07730983, -0.28291902, 100.31300354, 84.58345032, 33.45999908, 0.00000000
1, 22.6001, 1466, -0.72825575, -0.63093424, 0.26793063, -22.00804520, 27.21780014, 27.37139130, -51.79771805, 25.78193474, -119.32183075, 70.87102509, -47.90641403, -61.08546829, -0.76090544, 0.28823632, -0.55415285, -0.17566310, -0.01382814, -0.00424634, -0.48850486, 100.31300354, 84.58345032, 33.45999908, 0.00000000
1, 22.6101, 1467, -0.37910217, -0.48077503, 0.33678627, -10.57469177, 19.51294327, 5.48511028, -51.53463745, 24.02806091, -119.11721802, 70.54144287, -47.89358139, -60.78369141, -0.76219761, 0.28756857, -0.55283129, -0.17531930, -0.36392140, -0.15215209, -0.56047326, 100.31300354, 84.58345032, 33.45999908, 0.00000000
1, 22.6201, 1468, -0.09259310, -0.40631530, 0.23611286, -0.56315786, 38.43525696, -15.36283016, -51.30078888, 25.66501045, -119.61414337, 70.19408417, -47.61923599, -60.32269287, -0.76382482, 0.28885815, -0.54987657, -0.17540976, -0.64810425, -0.22730464, -0.46339861, 100.31300354, 84.58345032, 33.45999908, 0.00000000
1, 22.6301, 1469, 0.08485229, -0.40021926, 0.13590319, 14.93254757, 58.98360443, -33.03455353, -51.30078888, 25.66501045, -119.61414337, 69.87657166, -47.09446335, -59.68178940, -0.76571238, 0.29243320, -0.54531795, -0.17548700, -0.82018101, -0.23709880, -0.36849636, 100.31300354, 84.58345032, 33.45999908, 0.00000000
1, 22.6401, 1470, 0.11242282, -0.40747619, 0.05903726, 25.87818527, 55.47473907, -45.54331207, -51.03770828, 24.14498711, -120.16954041, 69.74858093, -46.47428513, -59.15282059, -0.76697457, 0.29717094, -0.54083204, -0.17589825, -0.84050107, -0.23600397, -0.29642099, 100.31300354, 84.58345032, 33.45999908, 0.00000000
1, 22.6501, 1471, 0.03501256, -0.39975324, -0.00749684, 35.18788910, 41.80039215, -57.41477203, -50.65770340, 25.22654152, -120.16954041, 69.89821625, -45.78992844, -58.87456894, -0.76713228, 0.30286589, -0.53707212, -0.17701371, -0.75493610, -0.25164545, -0.23252584, 100.31300354, 84.58345032, 33.45999908, 0.00000000
1, 22.6601, 1472, -0.07292914, -0.38809678, -0.07169588, 44.38810730, 19.67997742, -68.62736511, -50.27769470, 23.06343079, -120.60800934, 70.39052582, -45.07650757, -58.94528198, -0.76579809, 0.30934229, -0.53461266, -0.17902550, -0.63825667, -0.27296329, -0.16743536, 100.31300354, 84.58345032, 33.45999908, 0.00000000
1, 22.6701, 1473, -0.15677959, -0.36239794, -0.10720632, 54.65221024, -5.28713703, -80.58735657, -50.62847137, 23.96959877, -120.78339386, 71.24794769, -44.33179855, -59.39049530, -0.76278704, 0.31664976, -0.53362626, -0.18202159, -0.54527599, -0.31007290, -0.12673859, 100.31300354, 84.58345032, 33.45999908, 0.00000000
1, 22.6801, 1474, -0.19322738, -0.30575046, -0.08227336, 68.06092834, -32.06216049, -95.20679474, -50.62847137, 23.96959877, -120.78339386, 72.50769043, -43.52427673, -60.22827911, -0.75785142, 0.32508412, -0.53417999, -0.18610027, -0.49917859, -0.38007131, -0.14168786, 100.31300354, 84.58345032, 33.45999908, 0.00000000
1, 22.6901, 1475, -0.21650374, -0.27121577, -0.02514027, 84.79555511, -53.99806976, -114.36259460, -49.72230148, 22.21572685, -120.16954041, 74.14466095, -42.58296585, -61.38819122, -0.75100213, 0.33510086, -0.53584081, -0.19125333, -0.46476266, -0.43059409, -0.18354873, 100.31300354, 84.58345032, 33.45999908, 0.00000000
1, 22.7001, 1476, -0.22273354, -0.26958272, 0.03146732, 96.70914459, -60.80250549, -132.20254517, -49.89768982, 21.71879578, -119.26337433, 75.94755554, -41.46181870, -62.64131927, -0.74303466, 0.34654859, -0.53751594, -0.19718063, -0.44514644, -0.45028567, -0.22175790, 100.31300354, 84.58345032, 33.45999908, 0.00000000
1, 22.7101, 1477, -0.23525345, -0.28075567, 0.05759045, 105.85713196, -59.71815109, -151.01098633, -49.31306458, 18.88336754, -118.73721313, 77.80281067, -40.12576675, -63.86590958, -0.73432475, 0.35939851, -0.53857040, -0.20381810, -0.41623390, -0.45894212, -0.22789587, 100.31300354, 84.58345032, 33.45999908, 0.00000000
1, 22.7201, 1478, -0.20596619, -0.30635503, 0.05829298, 111.84562683, -54.56740189, -169.12149048, -49.45922089, 18.41566849, -117.94796753, 79.62998199, -38.57279205, -64.98955536, -0.72511834, 0.37346113, -0.53866625, -0.21111347, -0.42581096, -0.45457843, -0.20784283, 100.31300354, 84.58345032, 33.45999908, 0.00000000
1, 22.7301, 1479, -0.14346690, -0.32579440, 0.02817930, 116.10460663, -47.55300903, -187.13050842, -49.45922089, 18.41566849, -117.94796753, 81.39174652, -36.80194473, -65.97718811, -0.71549851, 0.38864768, -0.53761369, -0.21905819, -0.46514761, -0.45734826, -0.15679419, 100.31300354, 84.58345032, 33.45999908, 0.00000000
1, 22.7401, 1480, -0.12892398, -0.35728455, -0.00344243, 123.00994873, -45.96752930, -204.39125061, -48.31920624, 15.75562668, -117.15872192, 83.14675903, -34.83664322, -66.88233948, -0.70509994, 0.40492296, -0.53578585, -0.22760713, -0.45301375, -0.44887316, -0.10375853, 100.31300354, 84.58345032, 33.45999908, 0.00000000
1, 22.7501, 1481, -0.13836344, -0.41013411, -0.02960679, 130.09854126, -51.58462524, -218.98674011, -48.02689362, 15.93101406, -115.93101501, 84.93996429, -32.71004486, -67.77738190, -0.69355941, 0.42200702, -0.53366995, -0.23681600, -0.41375557, -0.41927049, -0.05466418, 100.31300354, 84.58345032, 33.45999908, 0.00000000
1, 22.7601, 1482, -0.15357153, -0.45355645, -0.05480611, 135.83349609, -58.45504761, -233.36706543, -46.71148682, 12.13095570, -114.41098785, 86.75711823, -30.42267799, -68.66445160, -0.68081069, 0.43973222, -0.53126776, -0.24675310, -0.36568457, -0.39878300, -0.00476030, 100.31300354, 84.58345032, 33.45999908, 0.00000000
1, 22.7701, 1483, -0.15327600, -0.50212145, -0.08413727, 142.75941467, -62.32139587, -247.67343140, -45.62993240, 12.48173046, -113.24173737, 88.58536530, -27.97100639, -69.49771881, -0.66688913, 0.45817533, -0.52836859, -0.25721797, -0.32980394, -0.37249926, 0.05089538, 100.31300354, 84.58345032, 33.45999908, 0.00000000
1, 22.7801, 1484, -0.18190140, -0.57690537, -0.10657234, 149.52673340, -62.87943268, -259.81329346, -45.62993240, 12.48173046, -113.24173737, 90.40244293, -25.37502098, -70.23082733, -0.65194958, 0.47724396, -0.52479619, -0.26793447, -0.26179484, -0.31883234, 0.10090332, 100.31300354, 84.58345032, 33.45999908, 0.00000000
1, 22.8101, 1485, -0.47234091, -0.95917296, -0.05878631, 157.80194092, -46.95055389, -298.18399048, -39.72522736, 6.22624969, -109.67552948, 95.55314636, -16.74592209, -71.46318054, -0.60268182, 0.53757870, -0.50728840, -0.30073640, 0.16537875, 0.01127836, 0.13805878, 100.31300354, 84.58345032, 33.45999908, 0.00000000
1, 22.8201, 1486, -0.53415918, -1.06453025, -0.01316529, 156.16970825, -37.33140945, -312.88372803, -38.52674484, 5.93393755, -107.95088959, 97.11602783, -13.59154797, -71.49443054, -0.58521616, 0.55836946, -0.49842575, -0.31195739, 0.27900666, 0.10409336, 0.12015010, 100.31300354, 84.58345032, 33.45999908, 0.00000000
1, 22.8301, 1487, -0.53428990, -1.15272546, 0.06788570, 153.35087585, -31.45949173, -329.35766602, -35.92516708, 2.86465931, -106.81087494, 98.61300659, -10.28420162, -71.35667419, -0.56713492, 0.57933438, -0.48790205, -0.32354516, 0.33415538, 0.18264328, 0.06623586, 100.31300354, 84.58345032, 33.45999908, 0.00000000
1, 22.8401, 1488, -0.40025249, -1.23610640, 0.12617426, 146.90051270, -22.42329788, -346.18313599, -35.92516708, 2.86465931, -106.81087494, 100.02403259, -6.82808208, -71.01815033, -0.54868674, 0.60035312, -0.47538325, -0.33545455, 0.25846273, 0.25970522, 0.03421129, 100.31300354, 84.58345032, 33.45999908, 0.00000000
1, 22.8501, 1489, -0.15858659, -1.35517609, 0.11068799, 140.15992737, -12.19543171, -359.76928711, -33.32358932, 3.47851491, -105.70008850, 101.36966705, -3.26636291, -70.47308350, -0.53001022, 0.62124294, -0.46094039, -0.34739095, 0.07805409, 0.37626711, 0.07460815, 100.31300354, 84.58345032, 33.45999908, 0.00000000
1, 22.8601, 1490, 0.02067343, -1.50100350, 0.01247543, 136.65046692, -10.08124542, -359.13095093, -30.72201157, 1.72464192, -104.35545349, 102.71035004, 0.27139354, -69.82760620, -0.51103139, 0.64130199, -0.44580430, -0.35893908, -0.03903993, 0.52391416, 0.19645545, 100.31300354, 84.58345032, 33.45999908, 0.00000000
1, 22.8701, 1491, 0.06341645, -1.65719676, -0.01894478, 137.45971680, -32.25883102, -349.78509521, -26.86348915, 2.36772871, -103.12773895, 104.09226990, 3.75343275, -69.33554077, -0.49087796, 0.65962702, -0.43170920, -0.37088835, -0.02061522, 0.68619752, 0.25078458, 100.31300354, 84.58345032, 33.45999908, 0.00000000
1, 22.8801, 1492, -0.10485727, -1.84582996, -0.06179258, 138.81224060, -61.85927582, -337.17050171, -24.75884247, 2.39696002, -102.60157776, 105.49450684, 7.17428303, -69.07659912, -0.46942902, 0.67586869, -0.41919982, -0.38354862, 0.20775601, 0.88512743, 0.31536987, 100.31300354, 84.58345032, 33.45999908, 0.00000000
1, 22.8901, 1493, -0.35986459, -2.00784326, -0.05210186, 138.10031128, -77.64538574, -322.51782227, -24.75884247, 2.39696002, -102.60157776, 106.89020538, 10.49179077, -68.92564392, -0.44744560, 0.69034511, -0.40775472, -0.39617193, 0.52080929, 1.06109524, 0.32602128, 100.31300354, 84.58345032, 33.45999908, 0.00000000
1, 22.9001, 1494, -0.60297036, -2.08548474, 0.07910301, 132.14736938, -90.69663239, -306.85696411, -22.50803757, 2.95235300, -101.14001465, 108.21598053, 13.69431973, -68.86785889, -0.42547205, 0.70292920, -0.39717370, -0.40879959, 0.81923282, 1.15553558, 0.21313569, 100.31300354, 84.58345032, 33.45999908, 0.00000000
1, 22.9101, 1495, -0.57267481, -2.08352113, 0.08645301, 113.80039215, -79.36574554, -286.88186646, -19.46799088, -0.67231804, -100.17538452, 109.39380646, 16.66843987, -68.69194031, -0.40536442, 0.71395832, -0.38641480, -0.42026994, 0.84089905, 1.17245913, 0.22164305, 100.31300354, 84.58345032, 33.45999908, 0.00000000
1, 22.9201, 1496, -0.38293415, -1.98093128, 0.05034812, 96.79477692, -59.03482437, -263.32678223, -17.42180634, 3.91698337, -99.70768738, 110.46604156, 19.34782982, -68.33530426, -0.38758028, 0.72383994, -0.37551057, -0.42991757, 0.69789755, 1.08951926, 0.27112135, 100.31300354, 84.58345032, 33.45999908, 0.00000000
1, 22.9301, 1497, -0.25692704, -1.85748100, 0.01219365, 81.25556183, -50.54495239, -230.55589294, -15.37562084, 1.16924870, -99.32768250, 111.40041351, 21.68097305, -67.96398926, -0.37210155, 0.73202729, -0.36561009, -0.43818462, 0.61253750, 0.98535550, 0.31999168, 100.31300354, 84.58345032, 33.45999908, 0.00000000
1, 22.9401, 1498, -0.35387349, -1.68414915, -0.12328451, 68.39647675, -54.56722260, -189.93270874, -15.37562084, 1.16924870, -99.32768250, 112.16076660, 23.64925957, -67.75225830, -0.35868707, 0.73807293, -0.35778797, -0.44562295, 0.74394429, 0.82988459, 0.46296459, 100.31300354, 84.58345032, 33.45999908, 0.00000000
1, 22.9501, 1499, -0.86760205, -1.50056100, -0.28837839, 57.37337875, -64.66789246, -142.06420898, -14.38175964, 4.85238218, -98.59690094, 112.70417786, 25.21057510, -67.81570435, -0.34742734, 0.74169070, -0.35284430, -0.45242694, 1.28552008, 0.66153425, 0.63178450, 100.31300354, 84.58345032, 33.45999908, 0.00000000
1, 22.9601, 1500, -1.36630440, -1.14695954, -0.10584570, 48.20555496, -64.50659180, -85.64986420, -12.54019260, 5.08623219, -98.21689606, 113.05663300, 26.25142288, -68.10757446, -0.33893335, 0.74318814, -0.35113391, -0.45771229, 1.80367982, 0.31889188, 0.45116919, 100.31300354, 84.58345032, 33.45999908, 0.00000000
1, 22.9701, 1501, -1.24057126, -1.11385572, 0.29170567, 35.41398621, -64.78385162, -16.52847672, -13.38789845, 5.99239969, -98.04150391, 113.14537811, 26.65775871, -68.70129395, -0.33398855, 0.74213326, -0.35338348, -0.46131352, 1.68691707, 0.29079545, 0.05478163, 100.31300354, 84.58345032, 33.45999908, 0.00000000
1, 22.9801, 1502, -0.92847484, -1.25321019, 0.02573640, 7.54309320, -12.46605587, 45.03008270, -13.12481689, 5.32008171, -98.18766022, 113.06710052, 26.27547264, -69.03043365, -0.33505037, 0.74039793, -0.35703430, -0.46052003, 1.37440133, 0.42993817, 0.32114932, 100.31300354, 84.58345032, 33.45999908, 0.00000000
1, 22.9901, 1503, -0.77188784, -1.33048272, -0.21458706, -15.25015926, 26.58116722, 96.70856476, -13.12481689, 5.32008171, -98.18766022, 112.85366821, 25.28075600, -69.17613983, -0.34072587, 0.73799092, -0.36188442, -0.45641541, 1.20589268, 0.50102985, 0.56190604, 100.31300354, 84.58345032, 33.45999908, 0.00000000
1, 23.0001, 1504, -0.90604520, -1.32037961, -0.18180989, -35.22123718, 17.89541245, 136.78536987, -14.11867905, 5.14469433, -98.04150391, 112.34092712, 23.94769859, -69.57072449, -0.34896553, 0.73329735, -0.36874431, -0.45224527, 1.32067275, 0.48013806, 0.52653104, 100.31300354, 84.58345032, 33.45999908, 0.00000000
1, 23.0101, 1505, -1.26777446, -1.22908604, -0.29650497, -51.10251999, 6.80579901, 172.51148987, -14.11867905, 4.20929527, -97.74919128, 111.58637238, 22.32022667, -70.20140076, -0.35920522, 0.72638851, -0.37752980, -0.44811004, 1.65858173, 0.37517324, 0.63450760, 100.31300354, 84.58345032, 33.45999908, 0.00000000
1, 23.0201, 1506, -1.17042971, -1.24999475, -0.07171978, -56.45413589, 20.35297394, 200.64631653, -16.10640144, 4.18006420, -98.74305725, 110.81775665, 20.37391090, -70.77353668, -0.37122771, 0.71870792, -0.38735029, -0.44227666, 1.53101182, 0.37987685, 0.40245345, 100.31300354, 84.58345032, 33.45999908, 0.00000000
1, 23.0401, 1507, 3.73688197, -1.60685146, 3.57862687, 62.69537735, -71.95707703, 43.64612198, -17.91873741, 2.19234133, -98.36305237, 110.63670349, 18.56542015, -72.32421112, -0.37510917, 0.70937175, -0.40477371, -0.43845546, -3.42862844, 0.71192873, -3.24181509, 100.31300354, 84.58345032, 33.45999908, 0.00000000
1, 23.0501, 1508, 3.25337529, -2.87402463, -2.03218508, -134.58760071, -131.00291443, -38.34111023, -18.94182968, 3.27389646, -98.07073975, 108.90906525, 19.36888885, -73.48605347, -0.37732995, 0.70121527, -0.40144712, -0.45250359, -2.92116785, 1.98948479, 2.35881543, 100.31300354, 84.58345032, 33.45999908, 0.00000000
1, 23.0601, 1509, -1.33321953, -0.77609622, -3.69065452, -180.97589111, 260.35763550, 84.39309692, -19.14644814, 3.62467122, -100.00000000, 107.84371948, 17.76476479, -71.14724731, -0.40064064, 0.70239007, -0.39058071, -0.43997961, 1.66119695, -0.11943167, 3.97831059, 100.31300354, 84.58345032, 33.45999908, 0.00000000
1, 23.0701, 1510, -0.55028230, -0.43564740, 2.18322754, -42.35923004, 87.28614807, 181.50418091, -19.49722290, 4.09237051, -100.11692047, 107.53829193, 15.76442337, -70.84530640, -0.41297168, 0.69810003, -0.39706469, -0.42947686, 0.82604480, -0.48227403, -1.89404929, 100.31300354, 84.58345032, 33.45999908, 0.00000000
1, 23.0801, 1511, -1.37721276, -1.42233717, 1.26539767, 65.13124847, -285.30911255, 206.90296936, -21.86495209, 1.34463608, -99.94153595, 107.28193665, 14.63479710, -74.30600739, -0.40671667, 0.68223423, -0.42222509, -0.43687999, 1.63441038, 0.49861109, -0.98349637, 100.31300354, 84.58345032, 33.45999908, 0.00000000
1, 23.0901, 1512, -1.58831346, -2.41217089, -0.29649121, 47.29338455, -38.85515976, 138.44834900, -21.86495209, 1.34463608, -99.94153595, 107.55790710, 13.42925549, -75.11471558, -0.40772295, 0.67726845, -0.43361014, -0.43249476, 1.82867813, 1.48668551, 0.58033997, 100.31300354, 84.58345032, 33.45999908, 0.00000000
1, 23.1001, 1513, -0.73520231, -1.75763822, -0.69947773, -92.87009430, 109.77690125, 76.77305603, -23.06343079, 2.95235300, -99.56153107, 106.81858826, 12.36976719, -74.27219391, -0.42022011, 0.67513168, -0.43070838, -0.42673492, 0.95779419, 0.82698041, 0.98272556, 100.31300354, 84.58345032, 33.45999908, 0.00000000
1, 23.1101, 1514, -0.00033765, -0.66824114, -0.32420349, -103.23281097, 50.25717545, 82.16374207, -22.62496376, 1.92926037, -100.26307678, 105.84313202, 11.43640137, -74.01378632, -0.43121821, 0.67008966, -0.42985082, -0.42456934, 0.20521298, -0.27144086, 0.59571433, 100.31300354, 84.58345032, 33.45999908, 0.00000000
1, 23.1201, 1515, 0.13118759, -0.66705370, 0.42490315, -28.56925964, -87.36731720, 100.43644714, -24.55422401, 3.36159015, -100.87693787, 105.34451294, 10.70018768, -75.14497375, -0.43329760, 0.66197556, -0.43794829, -0.42689919, 0.05784427, -0.27961403, -0.16301118, 100.31300354, 84.58345032, 33.45999908, 0.00000000
1, 23.1301, 1516, -0.05985245, -1.05495524, 0.51212972, -14.29822063, -149.92973328, 119.61962891, -25.19731140, 2.30926633, -100.58462524, 104.88455963, 9.92570019, -76.93192291, -0.43282330, 0.65117311, -0.44998571, -0.43145174, 0.23639473, 0.10379510, -0.25855845, 100.31300354, 84.58345032, 33.45999908, 0.00000000
1, 23.1401, 1517, -0.34064004, -0.74689353, 0.34290099, -2.64427233, -61.91981888, 127.22997284, -27.24349594, 2.01695418, -101.40309906, 104.70753479, 8.85192585, -77.86598969, -0.43530303, 0.64370739, -0.45942479, -0.43021050, 0.50084829, -0.20808299, -0.09372587, 100.31300354, 84.58345032, 33.45999908, 0.00000000
1, 23.1501, 1518, -0.50112975, -0.60298419, 0.48493320, 9.35866833, -28.73502159, 117.38754272, -27.24349594, 2.01695418, -101.40309906, 104.72003174, 7.78878927, -78.44633484, -0.43800047, 0.63825923, -0.46744072, -0.42694265, 0.64211309, -0.35518315, -0.23577955, 100.31300354, 84.58345032, 33.45999908, 0.00000000
1, 23.1601, 1519, -0.85869837, -0.89424574, 0.35341534, 1.31177342, -11.68543720, 98.44239807, -28.38351250, 0.67231804, -101.34463501, 104.68875885, 6.86575699, -78.81084442, -0.44109678, 0.63384736, -0.47340488, -0.42374414, 0.98323166, -0.06592513, -0.10514729, 100.31300354, 84.58345032, 33.45999908, 0.00000000
1, 23.1701, 1520, -0.99597561, -1.15331578, 0.49668509, -12.30272007, 19.05505180, 87.64098358, -29.26045036, 2.54311609, -101.66617584, 104.56338501, 5.96936369, -78.84677124, -0.44578719, 0.63044930, -0.47705048, -0.41979796, 1.10459948, 0.19073729, -0.25020641, 100.31300354, 84.58345032, 33.45999908, 0.00000000
1, 23.1801, 1521, -0.72904634, -1.13064432, 0.37296948, -24.84078789, 76.46872711, 74.65746307, -29.23121834, 3.04004669, -101.25694275, 104.36974335, 5.04342794, -78.28925323, -0.45310259, 0.62911910, -0.47730249, -0.41362977, 0.82206827, 0.16593882, -0.12828651, 100.31300354, 84.58345032, 33.45999908, 0.00000000
1, 23.1901, 1522, -0.14225960, -1.06093848, -0.08102503, -31.15401840, 117.87357330, 56.02540970, -29.81584358, 2.80619693, -101.81233215, 104.14092255, 4.21095753, -77.28040314, -0.46170616, 0.62977803, -0.47455603, -0.40620643, 0.22109227, 0.09476341, 0.32398510, 100.31300354, 84.58345032, 33.45999908, 0.00000000
1, 23.2001, 1523, 0.25881150, -0.96903551, -0.17793415, -27.13316154, 84.49401093, 52.05895996, -29.81584358, 2.80619693, -101.81233215, 103.91798401, 3.50149584, -76.58424377, -0.46851593, 0.62951112, -0.47302994, -0.40056378, -0.19275051, 0.00111829, 0.41834950, 100.31300354, 84.58345032, 33.45999908, 0.00000000
1, 23.2101, 1524, 0.42407292, -0.91773212, 0.20605789, -23.84547615, 58.58546448, 53.69548798, -30.04969215, 3.21543407, -101.75387573, 103.70546722, 2.84028077, -76.14192963, -0.47410330, 0.62836134, -0.47273844, -0.39611417, -0.37079284, -0.05238788, 0.03144144, 100.31300354, 84.58345032, 33.45999908, 0.00000000
1, 23.2301, 1525, 0.18043438, -1.00570703, 0.26212943, -19.00956154, -31.78385162, 63.34510040, -31.16047859, 3.62467122, -102.16310883, 103.28547668, 1.70914841, -76.56134796, -0.47983354, 0.62121683, -0.47847658, -0.39358565, -0.14774999, 0.03286719, -0.03245668, 100.31300354, 84.58345032, 33.45999908, 0.00000000
1, 23.2401, 1526, -0.13972722, -0.99406135, 0.31240761, -17.10401535, -39.64386749, 62.06440735, -31.48202324, 3.33235884, -102.80619812, 103.10264587, 1.19412351, -77.08843994, -0.48122594, 0.61653954, -0.48291022, -0.39382529, 0.16309503, 0.02014605, -0.08656995, 100.31300354, 84.58345032, 33.45999908, 0.00000000
1, 23.2501, 1527, -0.31047711, -0.97949910, 0.27085817, -19.90200233, -33.13454819, 56.12104034, -31.48202324, 3.33235884, -102.80619812, 102.89744568, 0.72066396, -77.53695679, -0.48282072, 0.61219347, -0.48663476, -0.39406851, 0.32545620, 0.00471119, -0.04872391, 100.31300354, 84.58345032, 33.45999908, 0.00000000
1, 23.2601, 1528, -0.45927441, -0.95286989, 0.29392704, -23.09601974, -11.30802250, 51.14370346, -31.56971550, 3.27389646, -102.95235443, 102.66571045, 0.24609078, -77.75975037, -0.48532695, 0.60865653, -0.48904717, -0.39348188, 0.46593410, -0.02290862, -0.07586335, 100.31300354, 84.58345032, 33.45999908, 0.00000000
1, 23.2701, 1529, -0.52134681, -0.96238625, 0.37431046, -23.21079445, 9.84463310, 44.13065338, -33.23589706, 3.62467122, -102.83542633, 102.43455505, -0.20655398, -77.75893402, -0.48848960, 0.60612714, -0.49017453, -0.39206731, 0.51973951, -0.01444544, -0.16040051, 100.31300354, 84.58345032, 33.45999908, 0.00000000
1, 23.2801, 1530, -0.45887038, -0.95549750, 0.36959377, -23.99832153, 35.05990219, 36.67968750, -33.00204468, 3.56620860, -102.86465454, 102.19915009, -0.65847743, -77.49484253, -0.49255198, 0.60468954, -0.48989642, -0.38954416, 0.44951141, -0.02216823, -0.15951043, 100.31300354, 84.58345032, 33.45999908, 0.00000000
1, 23.2901, 1531, -0.19284676, -0.94046259, 0.23968567, -22.75788689, 47.50661469, 31.52748489, -33.29435730, 3.24466538, -103.56620789, 101.96635437, -1.06610572, -77.09569550, -0.49684587, 0.60397583, -0.48873675, -0.38664436, 0.17625684, -0.03776409, -0.03294104, 100.31300354, 84.58345032, 33.45999908, 0.00000000
1, 23.3001, 1532, 0.09855606, -0.96461987, 0.17668015, -20.74740028, 32.61067581, 31.00663567, -33.29435730, 3.24466538, -103.56620789, 101.75418854, -1.43674290, -76.83972931, -0.50036943, 0.60285389, -0.48825365, -0.38445562, -0.12170416, -0.01416934, 0.02697572, 100.31300354, 84.58345032, 33.45999908, 0.00000000
1, 23.3101, 1533, 0.23815835, -0.98062503, 0.16369288, -19.69138145, 7.72970915, 34.02804565, -33.44051361, 3.44928384, -103.80005646, 101.55801392, -1.78615022, -76.83230591, -0.50287211, 0.60080409, -0.48904562, -0.38339093, -0.26746923, 0.00130006, 0.03681574, 100.31300354, 84.58345032, 33.45999908, 0.00000000
1, 23.3201, 1534, 0.15562959, -0.96610451, 0.18502775, -20.05234528, -10.36165142, 36.65096283, -33.64513397, 3.18620276, -104.00467682, 101.36441040, -2.12557173, -77.00633240, -0.50470370, 0.59801233, -0.49075186, -0.38316840, -0.19097409, -0.01374560, 0.01194323, 100.31300354, 84.58345032, 33.45999908, 0.00000000
1, 23.3301, 1535, 0.01369798, -0.93900633, 0.25227609, -20.27562332, -18.13824272, 37.67774582, -33.67436218, 3.62467122, -103.44927979, 101.18061066, -2.46052527, -77.25862122, -0.50619626, 0.59492791, -0.49287146, -0.38328034, -0.05506936, -0.04138954, -0.05891165, 100.31300354, 84.58345032, 33.45999908, 0.00000000
1, 23.3401, 1536, -0.09693974, -0.88309789, 0.33542129, -18.69286919, -22.34369278, 38.59139633, -34.11283112, 3.71236467, -103.88774872, 101.00814819, -2.79720354, -77.55197144, -0.50749248, 0.59169269, -0.49523735, -0.38352466, 0.04950802, -0.09778096, -0.14531946, 100.31300354, 84.58345032, 33.45999908, 0.00000000
1, 23.3501, 1537, -0.11565110, -0.82846296, 0.43579382, -15.89618301, -23.71209717, 40.74899292, -34.11283112, 3.71236467, -103.88774872, 100.86619568, -3.15316439, -77.86200714, -0.50864816, 0.58843154, -0.49785888, -0.38361701, 0.06194212, -0.15278584, -0.24827683, 100.31300354, 84.58345032, 33.45999908, 0.00000000
1, 23.3601, 1538, -0.05027067, -0.83656585, 0.34056261, -16.05966949, -5.42928267, 42.32604980, -34.49283981, 3.56620860, -103.88774872, 100.71434784, -3.55936909, -77.99421692, -0.51064920, 0.58569801, -0.49973449, -0.38270175, -0.00995497, -0.14463654, -0.15548491, 100.31300354, 84.58345032, 33.45999908, 0.00000000
1, 23.3701, 1539, -0.01649474, -0.90112603, 0.21175765, -16.26822662, -8.16068459, 45.05024719, -34.52206802, 3.59543991, -103.80005646, 100.56358337, -3.98774576, -78.15732574, -0.51262385, 0.58273590, -0.50185645, -0.38180593, -0.05076161, -0.07990072, -0.02939327, 100.31300354, 84.58345032, 33.45999908, 0.00000000
1, 23.3801, 1540, -0.04353777, -0.98240554, 0.04105914, -17.42659760, -8.92152691, 47.32524872, -34.96053696, 3.82928967, -103.91698456, 100.38934326, -4.43622112, -78.32873535, -0.51476258, 0.57953840, -0.50401682, -0.38094860, -0.03096885, 0.00168614, 0.13828349, 100.31300354, 84.58345032, 33.45999908, 0.00000000
1, 23.3901, 1541, -0.04446134, -1.06100893, -0.04848523, -19.15322685, -2.86294603, 47.52669525, -35.16515732, 3.97544575, -104.23852539, 100.20816040, -4.89936113, -78.44157410, -0.51717943, 0.57649219, -0.50591022, -0.37978566, -0.03780004, 0.08047897, 0.22444344, 100.31300354, 84.58345032, 33.45999908, 0.00000000
1, 23.4001, 1542, 0.04917930, -1.10284460, -0.08619166, -19.67199135, -5.32949495, 48.52606964, -35.83747482, 3.97544575, -103.39082336, 100.02499390, -5.36843348, -78.57914734, -0.51953572, 0.57328492, -0.50793821, -0.37871599, -0.13946083, 0.12250423, 0.25904560, 100.31300354, 84.58345032, 33.45999908, 0.00000000
1, 23.4101, 1543, 0.11335487, -1.05447555, -0.06916548, -18.25265884, -13.17637157, 51.63339996, -35.83747482, 3.80005836, -103.39082336, 99.86532593, -5.85510397, -78.79842377, -0.52156419, 0.56973243, -0.51051366, -0.37782490, -0.21202216, 0.07436868, 0.23917189, 100.31300354, 84.58345032, 33.45999908, 0.00000000
1, 23.4201, 1544, 0.12721637, -0.99992251, 0.04971671, -16.81754684, -29.52167702, 55.44932938, -36.42210007, 4.18006420, -104.56006622, 99.73966980, -6.35230970, -79.18515778, -0.52290517, 0.56551951, -0.51405638, -0.37749696, -0.23472583, 0.02008815, 0.11792854, 100.31300354, 84.58345032, 33.45999908, 0.00000000
1, 23.4301, 1545, 0.08842546, -0.98155332, 0.12343792, -15.41708088, -28.59374046, 57.94231796, -36.91902924, 4.29698896, -103.97544098, 99.62944031, -6.86688995, -79.56589508, -0.52425331, 0.56130344, -0.51766396, -0.37698948, -0.20496163, 0.00224415, 0.04201823, 100.31300354, 84.58345032, 33.45999908, 0.00000000
1, 23.4401, 1546, -0.03880813, -1.00002992, 0.16950683, -14.66847610, -30.97767639, 61.04818344, -37.21134186, 1.08155513, -104.70622253, 99.53520966, -7.41832209, -79.97529602, -0.52557087, 0.55685139, -0.52158397, -0.37635356, -0.08713246, 0.02146535, -0.00632906, 100.31300354, 84.58345032, 33.45999908, 0.00000000
1, 23.4501, 1547, -0.20800011, -1.03723073, 0.17437001, -14.83080769, -30.72470856, 61.33669662, -38.00058365, 4.44314528, -104.64776611, 99.44289398, -7.97366905, -80.38224030, -0.52689791, 0.55236614, -0.52548128, -0.37568563, 0.07244378, 0.05964226, -0.01343598, 100.31300354, 84.58345032, 33.45999908, 0.00000000
1, 23.4601, 1548, -0.35482961, -1.05894113, 0.11550044, -15.41342735, -25.47503090, 60.08469009, -38.00058365, 4.44314528, -104.64776611, 99.34076691, -8.52582550, -80.73445892, -0.52843344, 0.54806370, -0.52903873, -0.37483633, 0.20983544, 0.08250859, 0.04314594, 100.31300354, 84.58345032, 33.45999908, 0.00000000
1, 23.4701, 1549, -0.39261723, -1.06824923, 0.08734561, -15.01120949, -12.40202713, 56.85089874, -38.73136520, 4.61853266, -104.53083801, 99.22499847, -9.06758213, -80.95027924, -0.53043085, 0.54434031, -0.53183419, -0.37348256, 0.23828332, 0.09296002, 0.06909879, 100.31300354, 84.58345032, 33.45999908, 0.00000000
1, 23.4801, 1550, -0.31276751, -1.05714953, 0.09799344, -14.93560505, -3.05700493, 54.26850128, -38.84828949, 4.96930695, -104.38468170, 99.09210205, -9.60483360, -81.06671143, -0.53280401, 0.54099345, -0.53406852, -0.37177515, 0.14916684, 0.08296371, 0.05629773, 100.31300354, 84.58345032, 33.45999908, 0.00000000
1, 23.4901, 1551, -0.18444274, -1.06105578, 0.11687096, -14.87040043, 1.42893767, 52.41167450, -39.37445068, 5.49546909, -104.88161469, 98.95643616, -10.12518692, -81.13502502, -0.53526586, 0.53790694, -0.53599000, -0.36994770, 0.01168529, 0.08799201, 0.03511515, 100.31300354, 84.58345032, 33.45999908, 0.00000000
1, 23.5001, 1552, -0.09245756, -1.06210601, 0.18774138, -13.88338661, -2.11244822, 53.01574326, -39.87138367, 5.43700647, -105.49546814, 98.83760834, -10.64620399, -81.23877716, -0.53752339, 0.53471154, -0.53812480, -0.36820361, -0.08938533, 0.09017777, -0.03787565, 100.31300354, 84.58345032, 33.45999908, 0.00000000
1, 23.5101, 1553, -0.04282354, -1.09538770, 0.19691139, -14.10619926, -2.22802448, 55.59215546, -39.87138367, 5.43700647, -105.49546814, 98.71840668, -11.19273186, -81.34674072, -0.53985548, 0.53136867, -0.54036534, -0.36634502, -0.14822790, 0.12485252, -0.04924288, 100.31300354, 84.58345032, 33.45999908, 0.00000000
1, 23.5201, 1554, 0.04268902, -1.14692688, 0.21872275, -17.19490242, -2.15565395, 58.01675797, -40.57293320, 5.40777540, -105.11546326, 98.56975555, -11.76365757, -81.45659637, -0.54239756, 0.52775407, -0.54260230, -0.36450428, -0.24341676, 0.17790015, -0.07350993, 100.31300354, 84.58345032, 33.45999908, 0.00000000
1, 23.5301, 1555, 0.03771427, -1.12684309, 0.27204677, -18.83405113, -1.07388246, 61.72635651, -41.42063522, 5.96316862, -104.85237885, 98.40958405, -12.35852337, -81.56104279, -0.54508442, 0.52398533, -0.54485673, -0.36256513, -0.24865136, 0.15941437, -0.12981878, 100.31300354, 84.58345032, 33.45999908, 0.00000000
1, 23.5401, 1556, 0.06503421, -1.11631048, 0.27814874, -20.86227989, 4.48885345, 66.54669952, -41.53756332, 6.08009338, -105.11546326, 98.21401978, -13.02408028, -81.61309814, -0.54834628, 0.51997024, -0.54701799, -0.36016491, -0.28676441, 0.15078419, -0.13919407, 100.31300354, 84.58345032, 33.45999908, 0.00000000
1, 23.5501, 1557, 0.16490611, -1.13344526, 0.30973634, -24.73793983, 11.56300354, 72.32042694, -41.97602844, 6.08009338, -105.75855255, 97.96508789, -13.75692654, -81.59891510, -0.55228019, 0.51569575, -0.54895806, -0.35733676, -0.39872405, 0.17009243, -0.17477182, 100.31300354, 84.58345032, 33.45999908, 0.00000000
1, 23.5601, 1558, 0.25664282, -1.18504608, 0.30968764, -29.25632286, 11.72714043, 79.14692688, -41.97602844, 6.08009338, -105.75855255, 97.67212677, -14.55769730, -81.58891296, -0.55660999, 0.51085693, -0.55102992, -0.35436803, -0.50360560, 0.22425503, -0.17971927, 100.31300354, 84.58345032, 33.45999908, 0.00000000
1, 23.5701, 1559, 0.24190842, -1.24946749, 0.27605245, -33.33011246, 7.69268227, 86.91926575, -42.76527405, 6.46009922, -106.16778564, 97.35067749, -15.43038654, -81.62621307, -0.56113440, 0.50529099, -0.55348516, -0.35137361, -0.50303221, 0.29173335, -0.15192521, 100.31300354, 84.58345032, 33.45999908, 0.00000000
1, 23.5801, 1560, 0.18421017, -1.28489888, 0.22654928, -37.76789093, 7.32561588, 94.87126160, -43.26220322, 6.86933661, -106.57702637, 96.98902893, -16.37032890, -81.67262268, -0.56599259, 0.49913070, -0.55609483, -0.34825203, -0.46066844, 0.33078182, -0.10889830, 100.31300354, 84.58345032, 33.45999908, 0.00000000
1, 23.5901, 1561, 0.14146815, -1.28356826, 0.18513581, -41.90692520, 9.86957359, 101.36408997, -43.96375275, 7.16164875, -106.40163422, 96.57859039, -17.38957787, -81.69372559, -0.57135093, 0.49243200, -0.55872649, -0.34480965, -0.43434492, 0.33358619, -0.07472623, 100.31300354, 84.58345032, 33.45999908, 0.00000000
1, 23.6001, 1562, 0.13922916, -1.28485096, 0.17828386, -45.56824493, 9.44644642, 106.83369446, -44.60683823, 7.83396673, -106.66471863, 96.13294220, -18.46297455, -81.71766663, -0.57695454, 0.48522365, -0.56145006, -0.34125564, -0.44962728, 0.33956724, -0.07567223, 100.31300354, 84.58345032, 33.45999908, 0.00000000
1, 23.6101, 1563, 0.11486176, -1.28013182, 0.18222392, -48.46197128, 5.79551125, 112.09392548, -44.60683823, 7.83396673, -106.66471863, 95.67047119, -19.58524895, -81.77678680, -0.58259594, 0.47745109, -0.56443363, -0.33769381, -0.44353360, 0.34015638, -0.08785171, 100.31300354, 84.58345032, 33.45999908, 0.00000000
1, 23.6201, 1564, 0.04839843, -1.27636588, 0.19433279, -50.14421463, 3.31712174, 116.82335663, -45.51300812, 8.33089733, -107.10318756, 95.19974518, -20.75272751, -81.85757446, -0.58825630, 0.46923050, -0.56762362, -0.33403718, -0.39600089, 0.34237099, -0.10840648, 100.31300354, 84.58345032, 33.45999908, 0.00000000
1, 23.6301, 1565, -0.01495754, -1.28910577, 0.23371370, -51.21730423, 6.19010067, 120.84886169, -45.83454895, 9.12014008, -107.57088470, 94.70914459, -21.95479202, -81.90253448, -0.59410292, 0.46082872, -0.57070881, -0.33010611, -0.35218176, 0.36173856, -0.15647085, 100.31300354, 84.58345032, 33.45999908, 0.00000000
1, 23.6401, 1566, -0.03032204, -1.32227755, 0.27441487, -51.71424866, 17.24260902, 124.60633087, -47.23764801, 9.12014008, -107.45395660, 94.16260529, -23.21149826, -81.81858826, -0.60059017, 0.45242244, -0.57329708, -0.32547784, -0.35686934, 0.40224743, -0.20632660, 100.31300354, 84.58345032, 33.45999908, 0.00000000
1, 23.6501, 1567, 0.00851856, -1.40619934, 0.39846063, -53.83522034, 32.86043549, 126.95097351, -47.64688492, 10.84478188, -108.21397400, 93.51888275, -24.50100708, -81.55090332, -0.60792005, 0.44416612, -0.57501441, -0.32016897, -0.41647306, 0.49409992, -0.34069708, 100.31300354, 84.58345032, 33.45999908, 0.00000000
1, 23.6601, 1568, 0.16095255, -1.52356732, 0.53629166, -57.31943893, 39.73141861, 131.89115906, -47.64688492, 10.84478188, -108.21397400, 92.79569244, -25.84071350, -81.19049072, -0.61576897, 0.43559951, -0.57636940, -0.31445193, -0.59018743, 0.62018490, -0.48998606, 100.31300354, 84.58345032, 33.45999908, 0.00000000
1, 23.6701, 1569, 0.17802346, -1.52595115, 0.50976354, -53.88222122, 41.54475021, 135.23811340, -48.72844315, 10.75708866, -108.53551483, 92.08035278, -27.21017075, -80.78831482, -0.62356520, 0.42702478, -0.57774687, -0.30826092, -0.62851495, 0.63247418, -0.47517121, 100.31300354, 84.58345032, 33.45999908, 0.00000000
1, 23.6801, 1570, 0.02311001, -1.59238255, 0.58073044, -52.43467331, 69.86086273, 139.52250671, -49.60537720, 11.98479939, -109.41245270, 91.21282959, -28.61998177, -80.04293823, -0.63269693, 0.41903040, -0.57767063, -0.30067390, -0.49539644, 0.70956933, -0.55930948, 100.31300354, 84.58345032, 33.45999908, 0.00000000
1, 23.6901, 1571, 0.23812389, -1.71574724, 0.71264762, -54.09342957, 101.83595276, 142.61923218, -49.80999756, 12.77404213, -109.61707306, 90.11021423, -30.05729675, -78.89104462, -0.64346921, 0.41149753, -0.57576209, -0.29174507, -0.73259205, 0.84445316, -0.70657158, 100.31300354, 84.58345032, 33.45999908, 0.00000000
1, 23.7001, 1572, 0.46992460, -1.88427615, 0.75365001, -54.61108398, 141.96479797, 143.81013489, -50.19000244, 13.50482273, -110.17246246, 88.71130371, -31.47950172, -77.21903229, -0.65611523, 0.40477920, -0.57145739, -0.28125271, -0.98606038, 1.02552164, -0.76659107, 100.31300354, 84.58345032, 33.45999908, 0.00000000
1, 23.7101, 1573, 0.72587699, -1.96008182, 0.86271334, -53.64803696, 178.82609558, 145.25483704, -50.21923447, 13.50482273, -111.37094116, 87.01808167, -32.86262894, -75.04118347, -0.67034900, 0.39880008, -0.56489849, -0.26922217, -1.26306009, 1.11458611, -0.89838922, 100.31300354, 84.58345032, 33.45999908, 0.00000000
1, 23.7201, 1574, 0.92155540, -1.96746194, 0.80770600, -53.97899628, 207.09779358, 149.29792786, -50.21923447, 13.97252274, -111.37094116, 85.04204559, -34.20658493, -72.43595123, -0.68576425, 0.39308095, -0.55655175, -0.25586119, -1.47848189, 1.13651729, -0.86942238, 100.31300354, 84.58345032, 33.45999908, 0.00000000
1, 23.7301, 1575, 0.84945655, -1.94203687, 0.55738324, -61.75410843, 219.35760498, 156.76966858, -50.30692673, 15.58023930, -112.45249939, 82.79315186, -35.52727509, -69.57344055, -0.70181310, 0.38662142, -0.54724300, -0.24188305, -1.42486715, 1.12736928, -0.64892799, 100.31300354, 84.58345032, 33.45999908, 0.00000000
1, 23.7401, 1576, 0.33065906, -2.03008032, 0.49077263, -77.59167480, 189.47375488, 170.68293762, -50.48231506, 16.28178787, -114.06021881, 80.46479797, -36.93960953, -66.93833923, -0.71688384, 0.37765503, -0.53960693, -0.22864544, -0.92532891, 1.23365510, -0.61445999, 100.31300354, 84.58345032, 33.45999908, 0.00000000
1, 23.7501, 1577, -0.02933468, -2.05718493, 0.66160345, -102.74610901, 153.78869629, 179.10841370, -50.71616364, 17.39257431, -114.64483643, 78.01468658, -38.41226578, -64.60376740, -0.73090100, 0.36579913, -0.53369784, -0.21712081, -0.58613294, 1.28136349, -0.81629503, 100.31300354, 84.58345032, 33.45999908, 0.00000000
1, 23.7601, 1578, 0.01558615, -1.86997950, 0.48444256, -111.63842773, 144.07458496, 174.99412537, -51.76848984, 18.06489372, -115.72639465, 75.43412781, -39.78472137, -62.27549362, -0.74431121, 0.35320169, -0.52784276, -0.20647392, -0.64987457, 1.11686313, -0.66937083, 100.31300354, 84.58345032, 33.45999908, 0.00000000
1, 23.7701, 1579, 0.13320357, -1.55783820, 0.18006591, -106.39908600, 123.83586121, 167.43460083, -51.76848984, 18.06489372, -115.72639465, 72.96892548, -41.05893707, -60.10762024, -0.75615603, 0.34076867, -0.52292627, -0.19660373, -0.78422827, 0.82804227, -0.39316526, 100.31300354, 84.58345032, 33.45999908, 0.00000000
1, 23.7801, 1580, 0.16101938, -1.20786989, 0.02914662, -93.54340363, 65.10563660, 160.50810242, -51.94387436, 18.50336075, -116.57409668, 71.05179596, -42.36947632, -58.61584473, -0.76450944, 0.32848608, -0.52167553, -0.18835340, -0.82854688, 0.50085974, -0.26445889, 100.31300354, 84.58345032, 33.45999908, 0.00000000
1, 23.8101, 1581, -1.24108112, -0.50602400, -0.19060846, -40.98678207, -38.24565887, 114.61197662, -53.55159378, 23.44343758, -115.46331024, 69.20133972, -46.56600952, -58.44103241, -0.76945555, 0.29640111, -0.53859299, -0.17321131, 0.52058244, -0.14217952, -0.05743743, 100.31300354, 84.58345032, 33.45999908, 0.00000000
1, 23.8201, 1582, -1.31420755, -0.31103712, 0.09493101, -20.13249016, -30.63801956, 87.20466614, -53.55159378, 23.44343758, -115.46331024, 68.97334290, -47.49040222, -58.40143585, -0.76983154, 0.29049018, -0.54257852, -0.16906621, 0.58062375, -0.32394436, -0.34198815, 100.31300354, 84.58345032, 33.45999908, 0.00000000
1, 23.8301, 1583, -0.96039402, -0.22405584, 0.31790891, -0.62082559, -15.57377720, 50.44044876, -54.60391617, 24.64191818, -115.14176941, 69.00518799, -48.07725525, -58.40870285, -0.76954222, 0.28776142, -0.54543895, -0.16581501, 0.21796605, -0.40256125, -0.56144434, 100.31300354, 84.58345032, 33.45999908, 0.00000000
1, 23.8401, 1584, -0.43308869, -0.11288280, 0.35369554, 14.17733479, 14.60046196, 15.20053959, -54.34083557, 24.70038033, -115.05407715, 68.93425751, -48.16609192, -58.12266922, -0.77009934, 0.28820556, -0.54504067, -0.16375405, -0.31283808, -0.51023859, -0.59443128, 100.31300354, 84.58345032, 33.45999908, 0.00000000
1, 23.8501, 1585, -0.00333983, -0.00235405, 0.29627237, 33.70113754, 33.32998276, -13.85261250, -54.22391129, 24.78807259, -114.58638000, 68.98081207, -47.91584778, -57.73270035, -0.77063060, 0.29160631, -0.54292536, -0.16225423, -0.74096531, -0.62216079, -0.53647363, 100.31300354, 84.58345032, 33.45999908, 0.00000000
1, 23.8601, 1586, 0.22433895, 0.00214315, 0.16555305, 48.46510696, 41.91595459, -39.93225861, -53.93159866, 22.39111328, -114.73253632, 69.19242859, -47.39159775, -57.36480331, -0.77079868, 0.29734546, -0.53976190, -0.16159287, -0.96332860, -0.63221443, -0.40550119, 100.31300354, 84.58345032, 33.45999908, 0.00000000
1, 23.8701, 1587, 0.27008995, 0.00453038, 0.02360711, 55.62520599, 43.94509125, -59.63931656, -53.93159866, 22.39111328, -114.73253632, 69.53297424, -46.67691040, -57.07217026, -0.77055579, 0.30450431, -0.53602356, -0.16186294, -1.00097179, -0.64346611, -0.26312169, 100.31300354, 84.58345032, 33.45999908, 0.00000000
1, 23.8801, 1588, 0.18381658, 0.00912604, -0.04930767, 64.54840851, 41.43572235, -72.43150330, -53.63928604, 23.44343758, -114.82022858, 70.02796173, -45.84460068, -56.87019730, -0.76974338, 0.31281996, -0.53214329, -0.16267283, -0.90502858, -0.65913403, -0.18905163, 100.31300354, 84.58345032, 33.45999908, 0.00000000
1, 23.8901, 1589, 0.06820150, -0.00379553, -0.08887994, 75.72541046, 23.60524750, -83.16391754, -52.76234818, 21.39725113, -114.55714417, 70.84188843, -44.97996521, -56.95313644, -0.76754963, 0.32208163, -0.52933437, -0.16412230, -0.77884173, -0.65906256, -0.14563930, 100.31300354, 84.58345032, 33.45999908, 0.00000000
1, 23.9001, 1590, -0.07066014, -0.00585380, -0.12670252, 85.00791931, -7.07068253, -95.63305664, -52.29465103, 20.98801422, -114.23560333, 72.05668640, -44.09407043, -57.47707748, -0.76341361, 0.33206153, -0.52830404, -0.16682246, -0.62903994, -0.67142123, -0.09922334, 100.31300354, 84.58345032, 33.45999908, 0.00000000
1, 23.9101, 1591, -0.18918332, 0.03423807, -0.12132628, 96.02054596, -38.65502167, -110.28404236, -51.03770828, 19.52645493, -113.06635284, 73.67773438, -43.15258408, -58.43938446, -0.75717485, 0.34293699, -0.52903676, -0.17088164, -0.49901107, -0.72769976, -0.09063512, 100.31300354, 84.58345032, 33.45999908, 0.00000000
1, 23.9201, 1592, -0.27516210, 0.03559461, -0.06443083, 112.34763336, -67.94013214, -128.87373352, -51.03770828, 19.52645493, -113.06635284, 75.71620178, -42.08756638, -59.79549408, -0.74865490, 0.35523540, -0.53127933, -0.17625543, -0.40024143, -0.74738872, -0.12784666, 100.31300354, 84.58345032, 33.45999908, 0.00000000
1, 23.9301, 1593, -0.30635431, -0.01005818, -0.00020322, 122.83591461, -83.50135803, -147.37745667, -50.86231995, 19.00029182, -112.01403046, 77.95950317, -40.84826279, -61.33267975, -0.73858166, 0.36869955, -0.53400582, -0.18274499, -0.35398486, -0.72191775, -0.16807640, 100.31300354, 84.58345032, 33.45999908, 0.00000000
1, 23.9401, 1594, -0.29089212, -0.07313503, 0.05620559, 129.14178467, -93.29367065, -167.56570435, -50.13153839, 17.71411896, -111.04940033, 80.28759003, -39.37744522, -62.94762421, -0.72725594, 0.38324577, -0.53658205, -0.19052896, -0.35132101, -0.68047595, -0.19784209, 100.31300354, 84.58345032, 33.45999908, 0.00000000
1, 23.9501, 1595, -0.26917663, -0.15603805, 0.07645202, 132.13276672, -93.84857178, -188.50811768, -49.57614517, 16.69102669, -109.55860901, 82.56935120, -37.65199661, -64.49641418, -0.71513677, 0.39878252, -0.53830880, -0.19943833, -0.35104206, -0.62040842, -0.19026241, 100.31300354, 84.58345032, 33.45999908, 0.00000000
1, 23.9601, 1596, -0.25536776, -0.23229663, 0.04093925, 132.72908020, -87.49874878, -209.18533325, -49.22537231, 14.49868488, -108.65244293, 84.71428680, -35.66852951, -65.87315369, -0.70257896, 0.41523665, -0.53866327, -0.20929268, -0.33857095, -0.56774068, -0.12705462, 100.31300354, 84.58345032, 33.45999908, 0.00000000
1, 23.9701, 1597, -0.25197455, -0.29657739, 0.00694331, 132.67088318, -75.73626709, -230.67166138, -49.22537231, 14.49868488, -108.65244293, 86.67783356, -33.42366791, -67.00450134, -0.68979347, 0.43267891, -0.53722018, -0.21992812, -0.31129199, -0.52756029, -0.06623995, 100.31300354, 84.58345032, 33.45999908, 0.00000000
1, 23.9801, 1598, -0.26841864, -0.34607497, -0.02013388, 135.31085205, -65.31377411, -246.84371948, -47.99766159, 14.06021595, -107.74626923, 88.50376892, -30.98409462, -67.90268707, -0.67667127, 0.45096347, -0.53426498, -0.23088732, -0.26010481, -0.50205427, -0.01324965, 100.31300354, 84.58345032, 33.45999908, 0.00000000
1, 23.9901, 1599, -0.32371467, -0.40892145, -0.04762065, 140.64167786, -62.04340363, -260.10092163, -46.68225479, 12.77404213, -106.75241089, 90.27615356, -28.38760185, -68.65349579, -0.66276968, 0.46995169, -0.53034449, -0.24210863, -0.16662328, -0.46232343, 0.04035016, 100.31300354, 84.58345032, 33.45999908, 0.00000000
1, 24.0001, 1600, -0.39094695, -0.48803592, -0.08110037, 146.02284241, -57.15909576, -273.82852173, -44.81145859, 11.51710033, -104.96930695, 91.99600983, -25.63597870, -69.23882294, -0.64810210, 0.48964635, -0.52530646, -0.25350198, -0.05782228, -0.40499568, 0.10049340, 100.31300354, 84.58345032, 33.45999908, 0.00000000
1, 24.0101, 1601, -0.45013344, -0.57136178, -0.09813666, 153.21331787, -53.51430893, -288.23959351, -43.49605179, 9.73399544, -103.91698456, 93.69939423, -22.72768211, -69.67276001, -0.63245946, 0.51009727, -0.51918828, -0.26502728, 0.04638476, -0.34179166, 0.14496511, 100.31300354, 84.58345032, 33.45999908, 0.00000000
1, 24.0201, 1602, -0.47465676, -0.67754519, -0.08664247, 160.54064941, -50.70643997, -301.83111572, -43.49605179, 9.73399544, -103.91698456, 95.40275574, -19.67533684, -69.96301270, -0.61575359, 0.53118652, -0.51202554, -0.27661958, 0.11934423, -0.25359601, 0.16201806, 100.31300354, 84.58345032, 33.45999908, 0.00000000
1, 24.0601, 1603, -0.24016225, -1.15686238, 0.05547435, 166.38685608, 12.48558998, -349.66522217, -34.63899231, 5.90470600, -98.97690582, 101.90318298, -6.37448883, -68.70319366, -0.54366320, 0.62040907, -0.46645904, -0.31927869, 0.10682981, 0.18513885, 0.13661155, 100.31300354, 84.58345032, 33.45999908, 0.00000000
1, 24.0701, 1604, -0.12422863, -1.39404035, 0.07484565, 167.21168518, 18.24529457, -354.27047729, -31.89126015, 6.57702398, -97.98304749, 103.48893738, -2.95284605, -67.74829865, -0.52518094, 0.64286220, -0.45077914, -0.32819408, 0.05016948, 0.42194200, 0.14498317, 100.31300354, 84.58345032, 33.45999908, 0.00000000
1, 24.0801, 1605, -0.07035997, -1.69023943, 0.06029803, 168.78620911, 3.21447659, -352.21267700, -31.89126015, 6.57702398, -97.98304749, 105.14608765, 0.45756105, -66.85056305, -0.50548029, 0.66411519, -0.43541601, -0.33742210, 0.05590226, 0.72234321, 0.18740807, 100.31300354, 84.58345032, 33.45999908, 0.00000000
1, 24.0901, 1606, -0.13640620, -1.97379839, 0.05210629, 168.93264771, -32.04016876, -343.94122314, -28.85121346, 5.17392588, -96.49225616, 106.84944916, 3.85787058, -66.21472168, -0.48408931, 0.68326855, -0.42159736, -0.34793290, 0.18133605, 1.01459873, 0.22312027, 100.31300354, 84.58345032, 33.45999908, 0.00000000
1, 24.1001, 1607, -0.30439079, -2.20891953, 0.06917425, 165.88883972, -71.90700531, -332.56698608, -27.24349594, 5.93393755, -95.46916199, 108.52989960, 7.24995136, -65.89182281, -0.46122393, 0.69990730, -0.40958372, -0.36006033, 0.40836135, 1.26257181, 0.23215798, 100.31300354, 84.58345032, 33.45999908, 0.00000000
1, 24.1101, 1608, -0.44067699, -2.35793161, 0.06126642, 155.30239868, -100.76599884, -318.83630371, -25.22654152, 5.75855017, -94.53376007, 110.09014893, 10.59619427, -65.79096985, -0.43791211, 0.71398205, -0.39881045, -0.37338045, 0.60292619, 1.42795002, 0.26336262, 100.31300354, 84.58345032, 33.45999908, 0.00000000
1, 24.1201, 1609, -0.36666194, -2.39888120, 0.07269479, 136.33163452, -101.75266266, -301.82833862, -23.23881912, 6.02163124, -94.32913971, 111.47158813, 13.78222752, -65.67230225, -0.41586941, 0.72601640, -0.38813707, -0.38639683, 0.58468133, 1.48760056, 0.27159613, 100.31300354, 84.58345032, 33.45999908, 0.00000000
1, 24.1301, 1610, -0.10177010, -2.31875134, 0.10943056, 116.60256195, -86.63219452, -276.20703125, -23.23881912, 6.02163124, -94.32913971, 112.69247437, 16.66901588, -65.43218231, -0.39612138, 0.73636764, -0.37755677, -0.39787126, 0.37069702, 1.42728901, 0.25110084, 100.31300354, 84.58345032, 33.45999908, 0.00000000
1, 24.1401, 1611, -0.05455882, -2.09233403, 0.07418241, 94.23884583, -82.66915131, -235.72814941, -21.33878899, 4.26775789, -93.71528625, 113.68199921, 19.16396523, -65.25830841, -0.37907663, 0.74429047, -0.36841834, -0.40816730, 0.36780164, 1.22036541, 0.29840019, 100.31300354, 84.58345032, 33.45999908, 0.00000000
1, 24.1501, 1612, -0.56426507, -1.78319407, -0.21229996, 79.83493805, -86.29692078, -185.90977478, -19.61414719, 6.72318029, -92.95527649, 114.46313477, 21.21536636, -65.29287720, -0.36444730, 0.74966955, -0.36196193, -0.41732159, 0.91464823, 0.92899567, 0.59169531, 100.31300354, 84.58345032, 33.45999908, 0.00000000
1, 24.1601, 1613, -1.69759560, -1.50498545, -0.66475493, 72.29206085, -88.81986237, -132.47189331, -18.00643158, 6.51856184, -93.59836578, 115.07981873, 22.79173279, -65.56635284, -0.35206139, 0.75281066, -0.35870278, -0.42504269, 2.07778168, 0.66628784, 1.04717135, 100.31300354, 84.58345032, 33.45999908, 0.00000000
1, 24.1701, 1614, -2.22597361, -1.07279813, -0.43825847, 66.03028107, -65.52674866, -75.14006805, -17.65565681, 6.54779291, -92.63372803, 115.62101746, 23.75243950, -65.86229706, -0.34287372, 0.75470781, -0.35820392, -0.42958543, 2.62480259, 0.24486335, 0.82480049, 100.31300354, 84.58345032, 33.45999908, 0.00000000
1, 24.1801, 1615, -1.55993617, -1.15275979, 0.23585890, 53.84041977, -31.16727448, -16.59271049, -17.65565681, 6.54779291, -92.63372803, 116.06333923, 24.02246857, -66.09162903, -0.33781746, 0.75562286, -0.36012304, -0.43037772, 1.96600723, 0.33064491, 0.15760347, 100.31300354, 84.58345032, 33.45999908, 0.00000000
1, 24.1901, 1616, -0.49387753, -1.46803939, -0.02371850, 2.87193847, 44.84850693, 53.65889740, -16.74948883, 6.25548077, -92.72142792, 116.16676331, 23.34345818, -65.90914154, -0.34103701, 0.75569880, -0.36244118, -0.42573422, 0.89534450, 0.64604771, 0.42396432, 100.31300354, 84.58345032, 33.45999908, 0.00000000
1, 24.2001, 1617, -0.10829848, -1.46526432, -0.37203872, -40.97058487, 77.82321930, 120.14745331, -18.00643158, 5.99239969, -92.69219208, 115.83351898, 21.92153549, -65.72032166, -0.35061598, 0.75352430, -0.36650547, -0.41826239, 0.49155825, 0.63534343, 0.77431405, 100.31300354, 84.58345032, 33.45999908, 0.00000000
1, 24.2101, 1618, -0.36614326, -1.33530569, -0.40439445, -67.30938721, 38.59542465, 161.32994080, -18.35720444, 3.80005836, -92.75065613, 115.03341675, 20.29630089, -66.08770752, -0.36210045, 0.74764228, -0.37345403, -0.41285172, 0.72412837, 0.49196905, 0.80148023, 100.31300354, 84.58345032, 33.45999908, 0.00000000
1, 24.2401, 1619, 2.72430325, -1.72241855, 2.42513537, 81.23212433, -226.97863770, 49.61738205, -21.42648315, 2.45542240, -93.30605316, 112.99131012, 18.12027359, -71.52274323, -0.36560011, 0.71898681, -0.41069204, -0.42511958, -2.42334890, 0.84126639, -2.05196667, 100.31300354, 84.58345032, 33.45999908, 0.00000000
1, 24.2501, 1620, 1.37032139, -2.78379464, -2.45588160, -93.24774933, -65.12903595, 16.52540779, -21.63110161, 5.43700647, -93.97837067, 111.84000397, 18.22288895, -72.21835327, -0.36969721, 0.71299458, -0.41026533, -0.43202448, -1.04848289, 1.91181946, 2.81920981, 100.31300354, 84.58345032, 33.45999908, 0.00000000
1, 24.2601, 1621, -0.97524816, -1.37616146, -2.71537709, -159.13285828, 398.34890747, 137.45864868, -22.50803757, 5.43700647, -94.97222900, 111.22683716, 15.48954582, -68.86427307, -0.39869288, 0.71748531, -0.39958721, -0.40815300, 1.26816106, 0.48842955, 3.05983186, 100.31300354, 84.58345032, 33.45999908, 0.00000000
1, 24.2701, 1622, 0.07457984, -0.44708559, 1.44712675, -17.39020348, -147.70335388, 189.50097656, -23.15112495, 5.34931278, -95.43992615, 110.53417206, 14.23077202, -70.98458862, -0.40121347, 0.70493972, -0.41600579, -0.41112894, 0.17232245, -0.46074268, -1.10507357, 100.31300354, 84.58345032, 33.45999908, 0.00000000
1, 24.2801, 1623, -1.16557586, -1.30247641, 0.61192554, 46.91884232, -232.13252258, 174.54187012, -23.15112495, 5.34931278, -95.43992615, 110.31475067, 13.39500713, -73.85178375, -0.39610156, 0.69165188, -0.43644434, -0.41741782, 1.40180802, 0.39103162, -0.27850670, 100.31300354, 84.58345032, 33.45999908, 0.00000000
1, 24.2901, 1624, -1.61950028, -1.78628361, -0.88668746, 15.71352768, 22.57490158, 132.02473450, -24.64191818, 4.18006420, -95.14761353, 110.41487885, 12.07827950, -74.10474396, -0.40080661, 0.68794090, -0.44416654, -0.41086206, 1.83969045, 0.87292069, 1.21965289, 100.31300354, 84.58345032, 33.45999908, 0.00000000
1, 24.3001, 1625, -0.84874886, -1.47362077, -0.24277264, -77.62851715, 133.26171875, 89.98543549, -26.07424736, 4.73545742, -95.84916687, 109.83113861, 10.77377701, -73.14374542, -0.41380212, 0.68643880, -0.44208163, -0.40265810, 1.04439640, 0.55296338, 0.57524145, 100.31300354, 84.58345032, 33.45999908, 0.00000000
1, 24.3101, 1626, -0.48978305, -0.88668978, 0.02334713, -49.01766586, 34.91056824, 102.59477997, -25.98655319, 4.35545158, -96.02455139, 109.34232330, 9.68847466, -73.15681458, -0.42165875, 0.68191969, -0.44522920, -0.39869845, 0.66499710, -0.04141920, 0.30251309, 100.31300354, 84.58345032, 33.45999908, 0.00000000
1, 24.3401, 1627, -0.14545281, -0.60505474, 0.40559971, -21.30156898, -96.06025696, 125.07636261, -28.14966393, 3.36159015, -96.55071259, 108.35173035, 7.18496799, -77.82234192, -0.42262721, 0.65270978, -0.47974801, -0.40644556, 0.27559197, -0.33580357, -0.09260444, 100.31300354, 84.58345032, 33.45999908, 0.00000000
1, 24.3501, 1628, -0.45140216, -0.69291699, -0.16165024, -30.94265938, -20.60509300, 106.63227081, -29.55276108, 4.47237635, -96.66764069, 107.98261261, 6.23461723, -78.35303497, -0.42728540, 0.64635199, -0.48546886, -0.40493995, 0.56644130, -0.25093743, 0.46837929, 100.31300354, 84.58345032, 33.45999908, 0.00000000
1, 24.3601, 1629, -1.16994834, -0.82258499, 0.74925309, -21.08501625, -22.93253708, 91.65930176, -30.40046692, 3.71236467, -97.19380188, 107.72329712, 5.43106174, -78.85366821, -0.43072343, 0.64085990, -0.49073943, -0.40367165, 1.26777232, -0.12595990, -0.44914085, 100.31300354, 84.58345032, 33.45999908, 0.00000000
1, 24.3701, 1630, -1.36048043, -1.12424064, 0.22392045, -22.43000031, 1.60316813, 78.90634918, -31.56971550, 4.29698896, -97.51534271, 107.48057556, 4.67340946, -79.07679749, -0.43481451, 0.63668531, -0.49429089, -0.40155292, 1.44644558, 0.17410263, 0.07158089, 100.31300354, 84.58345032, 33.45999908, 0.00000000
1, 24.3801, 1631, -0.80333084, -1.32998884, -0.18294632, -24.56884003, 78.86865234, 67.59561920, -32.18357086, 4.67699480, -98.09996796, 107.26725769, 3.78395247, -78.52314758, -0.44202277, 0.63551968, -0.49417153, -0.39563257, 0.87576962, 0.37827691, 0.47621369, 100.31300354, 84.58345032, 33.45999908, 0.00000000
1, 24.3901, 1632, -0.10587610, -1.20928586, -0.07484925, -28.20874405, 102.33846283, 56.35372543, -32.18357086, 4.67699480, -98.09996796, 107.03419495, 2.94432783, -77.70893860, -0.44991523, 0.63551158, -0.49234396, -0.38897142, 0.16272083, 0.25527775, 0.36655816, 100.31300354, 84.58345032, 33.45999908, 0.00000000
1, 24.4001, 1633, 0.24377179, -1.03687382, 0.17574240, -27.89401054, 88.58054352, 45.47108459, -32.59280777, 4.85238218, -98.39228058, 106.78900146, 2.25201750, -76.99209595, -0.45678705, 0.63545388, -0.49041870, -0.38344938, -0.20057121, 0.08059558, 0.11328260, 100.31300354, 84.58345032, 33.45999908, 0.00000000
1, 24.4101, 1634, 0.36167517, -0.96516156, 0.17270371, -26.25209236, 37.36561966, 48.73365784, -32.12511063, 4.06313944, -98.59690094, 106.53566742, 1.67751622, -76.77301788, -0.46145999, 0.63356966, -0.49074870, -0.38053888, -0.32922649, 0.00723409, 0.11267284, 100.31300354, 84.58345032, 33.45999908, 0.00000000
1, 24.4201, 1635, 0.42679754, -0.86858988, 0.34600931, -22.17777443, -24.01260376, 57.66436386, -32.50511551, 5.14469433, -99.21075439, 106.30609131, 1.19081509, -77.16580963, -0.46356237, 0.62940556, -0.49416840, -0.38046843, -0.40383121, -0.09108239, -0.06433265, 100.31300354, 84.58345032, 33.45999908, 0.00000000
1, 24.4301, 1636, 0.27173811, -0.88816917, 0.44189927, -15.16892052, -77.51618195, 62.43400192, -33.14820099, 3.88775206, -98.91844177, 106.14686584, 0.81127447, -78.08458710, -0.46304682, 0.62354738, -0.50022465, -0.38282079, -0.25638193, -0.07271710, -0.16372113, 100.31300354, 84.58345032, 33.45999908, 0.00000000
1, 24.4401, 1637, -0.11771157, -0.92631483, 0.42727193, -14.47493362, -89.79022217, 60.30989456, -33.14820099, 3.88775206, -98.91844177, 105.99192810, 0.47832039, -79.11396790, -0.46191111, 0.61730319, -0.50663865, -0.38586566, 0.12719490, -0.03534514, -0.15259489, 100.31300354, 84.58345032, 33.45999908, 0.00000000
1, 24.4501, 1638, -0.46093905, -0.93615150, 0.43555921, -16.88937187, -64.64510345, 55.94503784, -34.17129517, 5.20315695, -99.03536987, 105.82025909, 0.11586232, -79.88851166, -0.46183527, 0.61195618, -0.51168281, -0.38781250, 0.46426749, -0.02636455, -0.16453037, 100.31300354, 84.58345032, 33.45999908, 0.00000000
1, 24.4601, 1639, -0.66898006, -0.92667997, 0.52724832, -18.89307785, -27.53354836, 46.54977036, -33.90821457, 4.82315111, -99.03536987, 105.63271332, -0.25853220, -80.27922058, -0.46318543, 0.60817927, -0.51463687, -0.38823453, 0.66563326, -0.03685165, -0.25975209, 100.31300354, 84.58345032, 33.45999908, 0.00000000
1, 24.4701, 1640, -0.54504973, -0.93434322, 0.41603875, -21.43204498, 14.18340015, 37.37624359, -35.36977386, 5.17392588, -98.30458832, 105.41888428, -0.65699857, -80.24211884, -0.46622178, 0.60611427, -0.51531875, -0.38692302, 0.53515607, -0.02992293, -0.15166979, 100.31300354, 84.58345032, 33.45999908, 0.00000000
1, 24.4801, 1641, -0.21000609, -0.94130027, 0.26985577, -22.17859077, 49.80635452, 32.43370438, -34.72668839, 4.06313944, -98.85997772, 105.18874359, -1.10515928, -79.84636688, -0.47075486, 0.60540718, -0.51425409, -0.38394636, 0.19302362, -0.02368245, -0.00849491, 100.31300354, 84.58345032, 33.45999908, 0.00000000
1, 24.4901, 1642, 0.10285751, -0.98635709, 0.13462438, -20.83848763, 47.70474625, 31.94593048, -34.72668839, 4.06313944, -98.85997772, 104.97248840, -1.53765726, -79.46818542, -0.47505742, 0.60471362, -0.51327604, -0.38103759, -0.12725528, 0.02073016, 0.12364739, 100.31300354, 84.58345032, 33.45999908, 0.00000000
1, 24.5401, 1643, -0.06676468, -0.97763693, 0.21912538, -18.89334297, -2.39730525, 40.50652313, -35.51593018, 5.20315695, -99.59075928, 103.97864532, -3.40368462, -79.86444855, -0.48701599, 0.59215647, -0.51953584, -0.37715873, 0.00938778, 0.00874511, 0.02141547, 100.31300354, 84.58345032, 33.45999908, 0.00000000
1, 24.5501, 1644, -0.08777819, -0.97782552, 0.24597998, -18.51376915, -1.38853598, 40.70099258, -36.53902435, 5.52470016, -99.94153595, 103.80146790, -3.79608512, -79.97532654, -0.48924506, 0.58947837, -0.52108777, -0.37632722, 0.02354442, 0.00854246, -0.00858733, 100.31300354, 84.58345032, 33.45999908, 0.00000000
1, 24.5601, 1645, -0.09553207, -0.95776439, 0.20567250, -19.12609291, 6.82039404, 41.69312286, -36.42210007, 2.89389062, -100.43846893, 103.61343384, -4.21779919, -80.00734711, -0.49190345, 0.58698994, -0.52231097, -0.37505341, 0.02425494, -0.01174930, 0.02850218, 100.31300354, 84.58345032, 33.45999908, 0.00000000
1, 24.5701, 1646, -0.03701710, -0.96118200, 0.14782450, -18.08630943, 9.32767868, 42.82626724, -37.32826614, 5.70008755, -99.79537964, 103.43433380, -4.65645742, -80.01622009, -0.49465120, 0.58456737, -0.52350992, -0.37354857, -0.04164844, -0.00844335, 0.08323982, 100.31300354, 84.58345032, 33.45999908, 0.00000000
1, 24.5801, 1647, 0.07110643, -0.98786628, 0.13409172, -18.67059898, 8.13804436, 45.03116226, -37.53288651, 6.08009338, -99.50306702, 103.24150848, -5.09438562, -80.03918457, -0.49740663, 0.58200741, -0.52473110, -0.37217116, -0.15750004, 0.01815467, 0.09398104, 100.31300354, 84.58345032, 33.45999908, 0.00000000
1, 24.5901, 1648, 0.06869665, -0.97980118, 0.13504907, -18.42253685, -1.67351842, 46.84469604, -37.53288651, 6.08009338, -99.50306702, 103.06993103, -5.54742861, -80.16197968, -0.49978119, 0.57900834, -0.52658296, -0.37105066, -0.16277239, 0.01001502, 0.08969001, 100.31300354, 84.58345032, 33.45999908, 0.00000000
1, 24.6001, 1649, -0.06374898, -0.98738682, 0.13913225, -16.55734253, -12.80065441, 48.90423203, -37.62057877, 6.43086815, -100.38000488, 102.92925262, -5.99594402, -80.39723969, -0.50160730, 0.57562333, -0.52907407, -0.37030882, -0.03813300, 0.01774870, 0.08254758, 100.31300354, 84.58345032, 33.45999908, 0.00000000
1, 24.6101, 1650, -0.16791303, -1.01501107, 0.13491943, -15.07391930, -10.34526634, 49.45213318, -38.26366425, 6.34317446, -100.61385345, 102.80265045, -6.45572186, -80.60878754, -0.50347906, 0.57234526, -0.53152132, -0.36934388, 0.05814648, 0.04568965, 0.08405989, 100.31300354, 84.58345032, 33.45999908, 0.00000000
1, 24.6201, 1651, -0.21381405, -1.04682600, 0.19242303, -14.90119743, -4.22815037, 48.61427689, -38.84828949, 6.57702398, -100.64308929, 102.67211151, -6.92115545, -80.75753784, -0.50558841, 0.56929934, -0.53365183, -0.36809546, 0.09585845, 0.07781559, 0.02402591, 100.31300354, 84.58345032, 33.45999908, 0.00000000
1, 24.6301, 1652, -0.20355138, -1.07634103, 0.20319460, -16.08652115, 3.89725327, 47.78899384, -38.58520889, 4.03390837, -100.58462524, 102.51636505, -7.40003204, -80.82269287, -0.50813645, 0.56646138, -0.53532976, -0.36652547, 0.07739364, 0.10774522, 0.01058413, 100.31300354, 84.58345032, 33.45999908, 0.00000000
1, 24.6401, 1653, -0.13258892, -1.06859052, 0.15992354, -17.63473129, 11.19590187, 47.17647171, -39.57907104, 6.75241137, -100.81847382, 102.33998871, -7.88521290, -80.81411743, -0.51103377, 0.56383425, -0.53659719, -0.36469024, -0.00183291, 0.10050005, 0.05093508, 100.31300354, 84.58345032, 33.45999908, 0.00000000
1, 24.6501, 1654, -0.06506199, -1.04179287, 0.16585056, -18.64591599, 17.00714493, 47.78353500, -39.57907104, 6.75241137, -100.81847382, 102.14533997, -8.38860512, -80.74784851, -0.51426113, 0.56130707, -0.53759176, -0.36258125, -0.07796313, 0.07416539, 0.04175972, 100.31300354, 84.58345032, 33.45999908, 0.00000000
1, 24.6601, 1655, 0.01583239, -1.05377591, 0.14074431, -19.55853271, 14.87310886, 49.30410767, -39.63753128, 6.98626137, -101.37386322, 101.94442749, -8.90222168, -80.70402527, -0.51746935, 0.55858749, -0.53871566, -0.36054251, -0.16760005, 0.08674681, 0.06340951, 100.31300354, 84.58345032, 33.45999908, 0.00000000
1, 24.6701, 1656, 0.01296155, -1.06920242, 0.16605282, -20.42350197, 13.35150909, 51.45208740, -40.36831284, 7.16164875, -101.57848358, 101.73731232, -9.43365860, -80.67784119, -0.52070361, 0.55566663, -0.53997338, -0.35851237, -0.17381665, 0.10280156, 0.03434123, 100.31300354, 84.58345032, 33.45999908, 0.00000000
1, 24.6801, 1657, 0.03128747, -1.09100997, 0.21883494, -22.56356049, 13.06791687, 54.53963470, -40.51446915, 7.13241720, -101.98772430, 101.51104736, -9.97942734, -80.65908051, -0.52404290, 0.55254483, -0.54126042, -0.35652569, -0.20167217, 0.12529913, -0.02244019, 100.31300354, 84.58345032, 33.45999908, 0.00000000
1, 24.6901, 1658, 0.04420944, -1.10777485, 0.27307117, -24.15012550, 11.13440800, 57.63338470, -40.42677689, 7.77550411, -102.54311371, 101.27167511, -10.56699371, -80.66298676, -0.52751720, 0.54906356, -0.54277265, -0.35447517, -0.22445044, 0.14286654, -0.08095136, 100.31300354, 84.58345032, 33.45999908, 0.00000000
1, 24.7001, 1659, 0.02964786, -1.10676527, 0.29971561, -26.72292709, 10.15504742, 61.98926544, -40.42677689, 7.77550411, -102.54311371, 101.00971985, -11.19550514, -80.68257904, -0.53118557, 0.54520971, -0.54444176, -0.35237983, -0.22043768, 0.14290099, -0.11227562, 100.31300354, 84.58345032, 33.45999908, 0.00000000
1, 24.7101, 1660, 0.04345326, -1.10200167, 0.29244450, -29.61700058, 15.24177170, 66.73918152, -41.09909439, 7.89242887, -102.66004181, 100.71002960, -11.88031483, -80.65713501, -0.53535897, 0.54113156, -0.54599023, -0.34994596, -0.24557871, 0.13945332, -0.11014992, 100.31300354, 84.58345032, 33.45999908, 0.00000000
1, 24.7201, 1661, 0.11833500, -1.09562361, 0.32105684, -33.65752792, 22.49449348, 71.53781128, -41.77141190, 7.95089149, -103.27389526, 100.35538483, -12.62542534, -80.56359100, -0.54018939, 0.53683323, -0.54727799, -0.34712017, -0.33288375, 0.13454804, -0.14466985, 100.31300354, 84.58345032, 33.45999908, 0.00000000
1, 24.7301, 1662, 0.16970187, -1.11863649, 0.33847338, -37.58359528, 23.35957909, 76.93634033, -41.74217987, 6.75241137, -102.92311859, 99.96474457, -13.40782833, -80.46738434, -0.54528487, 0.53217691, -0.54858941, -0.34424102, -0.39747652, 0.15930761, -0.16888633, 100.31300354, 84.58345032, 33.45999908, 0.00000000
1, 24.7401, 1663, 0.15933846, -1.16438496, 0.33198255, -41.16655350, 20.95938683, 82.81349945, -43.02835464, 8.15550995, -103.24466705, 99.53854370, -14.26041222, -80.39784241, -0.55066800, 0.52687573, -0.55018562, -0.34126627, -0.40101203, 0.20716326, -0.16995943, 100.31300354, 84.58345032, 33.45999908, 0.00000000
1, 24.7501, 1664, 0.12510026, -1.20048034, 0.28867611, -45.14041901, 21.59095383, 89.22357941, -43.02835464, 8.15550995, -103.24466705, 99.07090759, -15.17681503, -80.32535553, -0.55641443, 0.52105588, -0.55188733, -0.33811873, -0.38173157, 0.24588892, -0.13494027, 100.31300354, 84.58345032, 33.45999908, 0.00000000
1, 24.7601, 1665, 0.12463764, -1.20424497, 0.24656676, -49.23134613, 26.06576729, 95.83191681, -42.82373428, 7.77550411, -103.82929230, 98.54947662, -16.16474533, -80.20879364, -0.56270885, 0.51480722, -0.55350363, -0.33461329, -0.39735681, 0.25278178, -0.10187135, 100.31300354, 84.58345032, 33.45999908, 0.00000000
1, 24.7701, 1666, 0.20353672, -1.18986583, 0.21515517, -52.57198334, 25.73490334, 101.93058777, -43.70067215, 9.12014008, -104.91084290, 97.99349976, -17.21162796, -80.09439850, -0.56925964, 0.50804007, -0.55525833, -0.33094877, -0.49334991, 0.24207687, -0.08001654, 100.31300354, 84.58345032, 33.45999908, 0.00000000
1, 24.7801, 1667, 0.27368337, -1.18278623, 0.20847309, -54.84257507, 15.07983017, 108.99637604, -44.19760132, 9.47091484, -104.58930206, 97.44780731, -18.29483986, -80.09019470, -0.57546401, 0.50054044, -0.55766881, -0.32757574, -0.58140075, 0.23928615, -0.08303563, 100.31300354, 84.58345032, 33.45999908, 0.00000000
1, 24.7901, 1668, 0.23304373, -1.19518197, 0.18965180, -56.35113907, 4.81393003, 116.81536102, -45.60070038, 10.14323330, -105.17392731, 96.92037201, -19.46146011, -80.19223785, -0.58146209, 0.49214566, -0.56088793, -0.32419014, -0.55939585, 0.25676039, -0.07391079, 100.31300354, 84.58345032, 33.45999908, 0.00000000
1, 24.8001, 1669, 0.13014084, -1.23130083, 0.21117488, -56.90242767, -0.98188049, 123.76477814, -45.60070038, 10.14323330, -105.17392731, 96.40975189, -20.69125366, -80.35353851, -0.58731914, 0.48315254, -0.56460780, -0.32068342, -0.47637194, 0.29885221, -0.10499573, 100.31300354, 84.58345032, 33.45999908, 0.00000000
1, 24.8101, 1670, 0.05516289, -1.27452636, 0.25062826, -57.03414536, 4.00107956, 130.21214294, -46.06840134, 10.17246437, -105.81700897, 95.88057709, -21.99164963, -80.45829773, -0.59352094, 0.47390419, -0.56825596, -0.31659591, -0.42227709, 0.34895372, -0.15398878, 100.31300354, 84.58345032, 33.45999908, 0.00000000
1, 24.8201, 1671, 0.01918195, -1.33474970, 0.29860687, -56.76514816, 17.92994118, 134.13357544, -47.29611206, 10.61093235, -106.37240601, 95.29505157, -23.34525299, -80.40419006, -0.60041583, 0.46478599, -0.57126051, -0.31166708, -0.40798211, 0.41692623, -0.21205795, 100.31300354, 84.58345032, 33.45999908, 0.00000000
1, 24.8301, 1672, 0.03116844, -1.44687891, 0.43588087, -58.80479050, 34.52173233, 138.02519226, -47.64688492, 11.86787510, -107.24934387, 94.61318207, -24.74348259, -80.15769196, -0.60817605, 0.45578936, -0.57339162, -0.30594146, -0.44243649, 0.53748691, -0.36067903, 100.31300354, 84.58345032, 33.45999908, 0.00000000
1, 24.8401, 1673, 0.19978343, -1.55106068, 0.50709879, -60.21432114, 40.57555389, 143.65556335, -48.69921112, 12.16018677, -107.71704102, 93.87116241, -26.20705223, -79.82459259, -0.61637682, 0.44646496, -0.57528722, -0.29965538, -0.63400179, 0.65121174, -0.44386497, 100.31300354, 84.58345032, 33.45999908, 0.00000000
1, 24.8501, 1674, 0.12619981, -1.56492424, 0.49169815, -54.74193573, 53.28076935, 145.99186707, -48.69921112, 12.16018677, -107.71704102, 93.10036469, -27.69708824, -79.32474518, -0.62493902, 0.43756121, -0.57661420, -0.29241672, -0.58350933, 0.67577702, -0.44123375, 100.31300354, 84.58345032, 33.45999908, 0.00000000
1, 24.8601, 1675, 0.04325521, -1.70710373, 0.61377686, -53.90150452, 86.27043152, 150.53558350, -49.83922958, 13.15404797, -107.74626923, 92.13288116, -29.24006653, -78.41979980, -0.63510072, 0.42921788, -0.57620251, -0.28356624, -0.52434981, 0.82947844, -0.57790375, 100.31300354, 84.58345032, 33.45999908, 0.00000000
1, 24.8701, 1676, 0.32711682, -1.86202598, 0.74623930, -54.80537033, 130.47962952, 152.10911560, -50.19000244, 14.96638393, -109.17860413, 90.85497284, -30.79352188, -76.95634460, -0.64737374, 0.42171648, -0.57320499, -0.27294418, -0.83216333, 0.99692070, -0.72780430, 100.31300354, 84.58345032, 33.45999908, 0.00000000
1, 24.8801, 1677, 0.60331678, -2.00248122, 0.80414379, -54.96217346, 180.21769714, 152.15744019, -50.04384613, 15.28792763, -110.52323914, 89.20274353, -32.31019974, -74.84088898, -0.66186571, 0.41525865, -0.56716847, -0.26041123, -1.13146591, 1.15082908, -0.80816519, 100.31300354, 84.58345032, 33.45999908, 0.00000000
1, 24.8901, 1678, 0.87764275, -2.01146984, 0.85527253, -54.27584076, 211.96241760, 153.34349060, -49.89768982, 15.98947620, -111.63402557, 87.25228882, -33.77519989, -72.25405121, -0.67762250, 0.40927437, -0.55908012, -0.24647872, -1.42778897, 1.17417073, -0.88542515, 100.31300354, 84.58345032, 33.45999908, 0.00000000
1, 24.9001, 1679, 0.81473917, -1.94039524, 0.71565253, -59.05082703, 230.89820862, 155.81855774, -49.89768982, 15.98947620, -111.63402557, 85.00977325, -35.17212677, -69.32932281, -0.69413042, 0.40305960, -0.54953665, -0.23180896, -1.38509762, 1.11879897, -0.77599871, 100.31300354, 84.58345032, 33.45999908, 0.00000000
1, 24.9101, 1680, 0.40441877, -1.97772479, 0.55222130, -73.75704956, 206.41252136, 165.06147766, -49.72230148, 17.21718788, -113.12481689, 82.66307068, -36.59118271, -66.57489777, -0.70975226, 0.39477864, -0.54118603, -0.21798910, -0.99429619, 1.17353368, -0.64540720, 100.31300354, 84.58345032, 33.45999908, 0.00000000
1, 24.9201, 1681, -0.02844805, -2.06491160, 0.66597307, -95.61171722, 171.35241699, 173.30210876, -49.45922089, 18.24028015, -114.46945190, 80.22074890, -38.04993439, -64.11715698, -0.72424495, 0.38385978, -0.53457856, -0.20578319, -0.58209151, 1.28003728, -0.79115134, 100.31300354, 84.58345032, 33.45999908, 0.00000000
1, 24.9401, 1682, 0.13254851, -1.74521518, 0.24190266, -120.10410309, 150.33921814, 163.38607788, -49.75153351, 20.34492874, -117.01256561, 74.66826630, -40.58299255, -59.08324814, -0.75251555, 0.35892057, -0.52035749, -0.18472822, -0.77764928, 1.00403178, -0.43345323, 100.31300354, 84.58345032, 33.45999908, 0.00000000
1, 24.9501, 1683, 0.18044370, -1.36720383, 0.07166921, -110.03050995, 93.83743286, 156.95118713, -49.54691696, 21.30955887, -118.35720062, 72.39305878, -41.82360840, -57.29154587, -0.76262051, 0.34604955, -0.51724589, -0.17639844, -0.84129149, 0.64854014, -0.29052085, 100.31300354, 84.58345032, 33.45999908, 0.00000000
1, 24.9601, 1684, 0.04696969, -0.93414354, 0.02580090, -93.55075073, -8.02062035, 146.44436646, -49.54691696, 21.30955887, -118.35720062, 71.10905457, -43.24234009, -56.76749420, -0.76725030, 0.33307621, -0.52070498, -0.17103693, -0.72509378, 0.23711078, -0.26040852, 100.31300354, 84.58345032, 33.45999908, 0.00000000
1, 24.9701, 1685, -0.49282327, -0.72649920, -0.04676092, -69.86356354, -90.37772369, 132.91053772, -50.33615875, 23.12189484, -119.11721802, 70.81787872, -44.79638290, -57.34777832, -0.76707268, 0.32098609, -0.52951670, -0.16786769, -0.20437433, 0.04938862, -0.19043180, 100.31300354, 84.58345032, 33.45999908, 0.00000000
1, 24.9801, 1686, -1.07240653, -0.53221810, -0.19939815, -51.50551987, -69.64276886, 115.75012207, -51.30078888, 23.47266769, -118.67874908, 70.57861328, -46.13160324, -57.73376465, -0.76694649, 0.31108665, -0.53666425, -0.16434659, 0.35761759, -0.12699509, -0.03510504, 100.31300354, 84.58345032, 33.45999908, 0.00000000
1, 24.9901, 1687, -1.33794105, -0.28054273, -0.13561721, -37.40251160, -22.62071991, 89.49089813, -52.23618698, 24.43729782, -118.62028503, 70.11177063, -47.05113220, -57.60311508, -0.76815999, 0.30406654, -0.54004747, -0.16069451, 0.61012983, -0.36446509, -0.09939405, 100.31300354, 84.58345032, 33.45999908, 0.00000000
1, 25.0001, 1688, -1.34310162, -0.14624946, 0.06621553, -20.24284554, -11.61475182, 59.19712448, -52.67465591, 25.19731140, -118.88336945, 69.80765533, -47.64733887, -57.46298981, -0.76897013, 0.29975972, -0.54210144, -0.15797228, 0.60621417, -0.48891637, -0.30204484, 100.31300354, 84.58345032, 33.45999908, 0.00000000
1, 25.0101, 1689, -0.91414016, -0.14028610, 0.21933591, -3.64715528, 15.06896210, 28.56565094, -52.67465591, 25.19731140, -118.88336945, 69.50637817, -47.86244583, -57.10452652, -0.77016979, 0.29837549, -0.54178196, -0.15583046, 0.17268354, -0.48964378, -0.45570642, 100.31300354, 84.58345032, 33.45999908, 0.00000000
1, 25.0201, 1690, -0.38144925, -0.06017044, 0.31262386, 10.42718887, 26.48254013, 3.43848944, -52.20695496, 25.10961723, -119.70184326, 69.32380676, -47.80077362, -56.71749496, -0.77119392, 0.29927668, -0.54022908, -0.15442114, -0.36061200, -0.56849968, -0.55013788, 100.31300354, 84.58345032, 33.45999908, 0.00000000
1, 25.0301, 1691, -0.00086332, 0.00908844, 0.29916361, 28.80589294, 21.87111855, -20.77591896, -51.88541412, 24.84653664, -119.32183075, 69.49507141, -47.53105164, -56.54441833, -0.77108407, 0.30256033, -0.53870362, -0.15390027, -0.73889661, -0.64016986, -0.53623027, 100.31300354, 84.58345032, 33.45999908, 0.00000000
1, 25.0401, 1692, 0.20032549, -0.01190958, 0.12380356, 40.52395630, 14.78075314, -46.41929626, -52.03157043, 24.84653664, -119.08798218, 69.92446136, -47.04345322, -56.57893753, -0.77007192, 0.30766010, -0.53701901, -0.15474214, -0.93484145, -0.62525719, -0.35828528, 100.31300354, 84.58345032, 33.45999908, 0.00000000
1, 25.0501, 1693, 0.23443393, -0.00964359, -0.02560854, 44.42509460, 13.16916656, -64.34893036, -51.47617722, 24.52499199, -119.49722290, 70.46849823, -46.39248276, -56.71823883, -0.76860684, 0.31382549, -0.53499436, -0.15664661, -0.96151048, -0.63643861, -0.20572051, 100.31300354, 84.58345032, 33.45999908, 0.00000000
1, 25.0601, 1694, 0.15468137, -0.00261839, -0.09442671, 52.95357895, 8.05605888, -76.91772461, -51.47617722, 24.52499199, -119.49722290, 71.18073273, -45.63851166, -56.97496414, -0.76645303, 0.32105961, -0.53305537, -0.15913090, -0.87288797, -0.65449202, -0.13284349, 100.31300354, 84.58345032, 33.45999908, 0.00000000
1, 25.0701, 1695, 0.00153724, -0.02950986, -0.13822186, 63.25354004, -7.62731171, -86.71149445, -50.68693161, 23.18035698, -119.76029968, 72.16072845, -44.83827972, -57.46769333, -0.76308596, 0.32919323, -0.53199255, -0.16222106, -0.71002734, -0.64021850, -0.08247730, 100.31300354, 84.58345032, 33.45999908, 0.00000000
1, 25.0801, 1696, -0.16385587, -0.03982167, -0.14495762, 70.53298950, -36.87549591, -96.96540070, -50.59923935, 22.59573174, -119.32183075, 73.48264313, -44.02643967, -58.35846710, -0.75796288, 0.33777559, -0.53263199, -0.16644262, -0.53456819, -0.64384896, -0.06511711, 100.31300354, 84.58345032, 33.45999908, 0.00000000
1, 25.0901, 1697, -0.29817805, 0.00146179, -0.07906322, 80.91100311, -71.61000824, -110.47411346, -50.04384613, 21.42648315, -118.38643646, 75.23063660, -43.15506363, -59.72468948, -0.75057542, 0.34717262, -0.53524309, -0.17211248, -0.38986206, -0.70049834, -0.11516701, 100.31300354, 84.58345032, 33.45999908, 0.00000000
1, 25.1001, 1698, -0.36161339, -0.00752618, -0.01816435, 95.24930573, -96.88977051, -129.76672363, -50.27769470, 20.02338409, -118.18181610, 77.33224487, -42.12387466, -61.42552948, -0.74111336, 0.35794997, -0.53902292, -0.17910126, -0.31425729, -0.70910764, -0.15435161, 100.31300354, 84.58345032, 33.45999908, 0.00000000
1, 25.1101, 1699, -0.38852659, -0.02762017, 0.01964472, 104.82040405, -102.85494232, -148.59088135, -50.27769470, 20.02338409, -118.18181610, 79.53437805, -40.87394714, -63.17194366, -0.73055458, 0.37002876, -0.54258901, -0.18699203, -0.27231649, -0.70838606, -0.16759424, 100.31300354, 84.58345032, 33.45999908, 0.00000000
1, 25.1201, 1700, -0.40581447, -0.06038320, 0.02212061, 110.97747803, -97.26726532, -168.16529846, -49.78076553, 19.26337242, -116.66179657, 81.68295288, -39.37295914, -64.78923798, -0.71948099, 0.38338462, -0.54507446, -0.19559452, -0.23642093, -0.69646293, -0.14457789, 100.31300354, 84.58345032, 33.45999908, 0.00000000
1, 25.1301, 1701, -0.40280902, -0.09971846, 0.02625220, 114.80217743, -85.41225433, -187.01731873, -49.51768494, 17.53873062, -116.39871216, 83.69448853, -37.63379288, -66.18084717, -0.70823354, 0.39788985, -0.54607207, -0.20468099, -0.21703142, -0.67909551, -0.12366889, 100.31300354, 84.58345032, 33.45999908, 0.00000000
1, 25.1401, 1702, -0.39996025, -0.15393968, 0.02149394, 117.26128387, -75.42351532, -206.24697876, -48.55305481, 16.28178787, -115.17099762, 85.56712341, -35.64970779, -67.36111450, -0.69671649, 0.41349626, -0.54554325, -0.21445175, -0.19369280, -0.64755338, -0.09455944, 100.31300354, 84.58345032, 33.45999908, 0.00000000
1, 25.1501, 1703, -0.37962961, -0.18778148, 0.00878975, 119.11769867, -64.05430603, -225.15567017, -48.23151016, 14.99561501, -113.79713440, 87.29267120, -33.44101334, -68.31168365, -0.68497163, 0.43012011, -0.54340512, -0.22476994, -0.18371436, -0.63696945, -0.05814232, 100.31300354, 84.58345032, 33.45999908, 0.00000000
1, 25.1601, 1704, -0.35407233, -0.20874527, -0.01609926, 123.10474396, -53.27087402, -241.37129211, -48.23151016, 14.99561501, -113.79713440, 88.90712738, -31.04445267, -69.04043579, -0.67289132, 0.44772112, -0.53979164, -0.23534676, -0.17511959, -0.63923007, -0.01014807, 100.31300354, 84.58345032, 33.45999908, 0.00000000
1, 25.1701, 1705, -0.33100691, -0.24816787, -0.04158857, 130.87234497, -48.69394684, -255.22422791, -47.00379944, 13.53405380, -113.32943726, 90.49843597, -28.49250793, -69.62148285, -0.66002655, 0.46624804, -0.53519660, -0.24605379, -0.16068399, -0.62235916, 0.03890590, 100.31300354, 84.58345032, 33.45999908, 0.00000000
1, 25.1801, 1706, -0.35704100, -0.31824243, -0.07268638, 139.03582764, -47.36150742, -268.72137451, -45.57146835, 11.75094986, -111.78018188, 92.09339905, -25.79754448, -70.08858490, -0.64618140, 0.48555377, -0.52979374, -0.25691617, -0.09389915, -0.57367229, 0.09463039, 100.31300354, 84.58345032, 33.45999908, 0.00000000
1, 25.1901, 1707, -0.40839046, -0.39750668, -0.12277476, 147.20112610, -41.87298584, -282.68035889, -43.70067215, 10.46477604, -111.28324890, 93.68599701, -22.95032883, -70.39617920, -0.63141882, 0.50575548, -0.52326941, -0.26778889, 0.00152528, -0.51418269, 0.17035712, 100.31300354, 84.58345032, 33.45999908, 0.00000000
1, 25.2001, 1708, -0.46503103, -0.50488675, -0.13810892, 157.49937439, -39.71126938, -298.77874756, -41.44986725, 8.91552162, -110.05553436, 95.31906891, -19.93709564, -70.57463074, -0.61539900, 0.52688479, -0.51571816, -0.27876753, 0.10572733, -0.42469063, 0.21259694, 100.31300354, 84.58345032, 33.45999908, 0.00000000
1, 25.2101, 1709, -0.51509422, -0.61323345, -0.11524421, 170.49198914, -43.97436523, -313.97796631, -41.44986725, 8.91552162, -110.05553436, 97.05104828, -16.76438522, -70.68388367, -0.59764600, 0.54879886, -0.50753111, -0.28991607, 0.20697984, -0.33174703, 0.21898116, 100.31300354, 84.58345032, 33.45999908, 0.00000000
1, 25.2201, 1710, -0.52001381, -0.75699556, -0.07136104, 176.95207214, -38.35786057, -326.61529541, -39.87138367, 7.80473518, -108.91551971, 98.79572296, -13.47259617, -70.61591339, -0.57889992, 0.57119000, -0.49809021, -0.30087060, 0.26621154, -0.20017397, 0.20584555, 100.31300354, 84.58345032, 33.45999908, 0.00000000
1, 25.2301, 1711, -0.44196793, -0.89214385, -0.00346463, 177.87098694, -25.88709641, -338.73815918, -37.29903412, 6.16778708, -107.65857697, 100.50054169, -10.08886623, -70.30077362, -0.55972636, 0.59383655, -0.48689976, -0.31143749, 0.24495825, -0.07358129, 0.16886771, 100.31300354, 84.58345032, 33.45999908, 0.00000000
1, 25.2401, 1712, -0.35130042, -1.04863250, 0.01236368, 177.32312012, -11.26642036, -350.98394775, -34.84361267, 4.99853849, -106.51856232, 102.18190002, -6.62078428, -69.71960449, -0.54020113, 0.61671275, -0.47378218, -0.32152560, 0.21339571, 0.07840237, 0.18337370, 100.31300354, 84.58345032, 33.45999908, 0.00000000
1, 25.2501, 1713, -0.28676206, -1.29609275, 0.00640005, 178.03747559, 1.33695590, -359.24536133, -32.32972717, 2.66004086, -105.23238373, 103.88432312, -3.11851406, -68.89836884, -0.52027947, 0.63957381, -0.45907366, -0.33091703, 0.20945215, 0.32575825, 0.21910468, 100.31300354, 84.58345032, 33.45999908, 0.00000000
1, 25.2601, 1714, -0.21684104, -1.64951849, 0.07492124, 179.67863464, -11.10827446, -360.42169189, -28.50043869, 2.80619693, -103.18620300, 105.65183258, 0.40126669, -68.09152985, -0.49910173, 0.66140431, -0.44433814, -0.34059593, 0.20059009, 0.68370092, 0.18031275, 100.31300354, 84.58345032, 33.45999908, 0.00000000
1, 25.2701, 1715, -0.22555661, -2.05519366, 0.11123089, 178.64418030, -44.15879059, -351.52194214, -28.50043869, 2.80619693, -103.18620300, 107.44998169, 3.90244412, -67.51758575, -0.47635961, 0.68105686, -0.43098760, -0.35141560, 0.27050981, 1.09872103, 0.17311077, 100.31300354, 84.58345032, 33.45999908, 0.00000000
1, 25.2801, 1716, -0.39010304, -2.37195611, 0.10443769, 172.83473206, -76.59266663, -336.60528564, -25.84039688, 2.66004086, -102.13388062, 109.19979858, 7.34247446, -67.18890381, -0.45265862, 0.69811022, -0.41919580, -0.36334166, 0.49535090, 1.42919803, 0.20701198, 100.31300354, 84.58345032, 33.45999908, 0.00000000
1, 25.2901, 1717, -0.54670507, -2.50829172, 0.13189845, 160.26373291, -102.67594147, -320.94293213, -23.38497543, 2.89389062, -100.29231262, 110.81453705, 10.71370220, -67.05760193, -0.42875502, 0.71251291, -0.40853405, -0.37629044, 0.71064758, 1.58261561, 0.20353399, 100.31300354, 84.58345032, 33.45999908, 0.00000000
1, 25.3001, 1718, -0.37233531, -2.52035332, 0.20167165, 137.53413391, -98.55718231, -303.20458984, -21.10494041, 3.01081562, -100.00000000, 112.22537231, 13.89890099, -66.86107635, -0.40656146, 0.72486979, -0.39768267, -0.38874173, 0.59210747, 1.61391354, 0.15405887, 100.31300354, 84.58345032, 33.45999908, 0.00000000
1, 25.3101, 1719, 0.05825923, -2.46741223, 0.21205223, 111.95742798, -71.24768066, -274.48425293, -18.76644325, 2.95235300, -99.35691071, 113.44951630, 16.70813751, -66.44097137, -0.38757482, 0.73565996, -0.38648987, -0.39901856, 0.21155953, 1.58093905, 0.16019237, 100.31300354, 84.58345032, 33.45999908, 0.00000000
1, 25.3201, 1720, 0.14186449, -2.13989639, 0.08850835, 80.25348663, -72.26971436, -224.78662109, -18.76644325, 2.95235300, -99.35691071, 114.32508850, 19.05862808, -66.18192291, -0.37209359, 0.74323308, -0.37718892, -0.40850884, 0.17034766, 1.27212071, 0.29493895, 100.31300354, 84.58345032, 33.45999908, 0.00000000
