SensorId, TimeStamp (s), FrameNumber, AccX (g), AccY (g), AccZ (g), GyroX (deg/s), GyroY (deg/s), GyroZ (deg/s), MagX (uT), MagY (uT), MagZ (uT), EulerX (deg), EulerY (deg), EulerZ (deg), QuatW, QuatX, QuatY, QuatZ, LinAccX (g), LinAccY (g), LinAccZ (g), Pressure (kPa), Altitude (m), Temperature (degC), HeaveMotion (m)
1, 17.0201, 967, -0.03856323, -0.98873937, 0.14810397, 0.23511630, -0.94033056, -0.69742286, -30.63431740, 6.46009922, -107.60011292, 98.71870422, -2.01558685, -74.81569672, -0.52538604, 0.59569383, -0.46999305, -0.38499996, 0.00296413, 0.00066167, 0.00165219, 100.31100464, 84.75119781, 33.45000076, 0.00000000
1, 17.0301, 968, -0.03617745, -0.98809528, 0.15257369, 0.32732049, -1.21759260, -0.72273135, -30.19584846, 7.42472935, -108.18473816, 98.72653961, -2.00705075, -74.82688904, -0.52527404, 0.59571409, -0.47003961, -0.38506454, 0.00071767, 0.00001618, -0.00273670, 100.31100464, 84.75119781, 33.45000076, 0.00000000
1, 17.0401, 969, -0.03687364, -0.98643541, 0.15151544, 0.18308078, -1.04564929, -0.68174469, -30.40046692, 6.75241137, -107.74626923, 98.72866821, -1.99872792, -74.83619690, -0.52519888, 0.59571517, -0.47005820, -0.38514277, 0.00156172, -0.00163102, -0.00157227, 100.31100464, 84.75119781, 33.45000076, 0.00000000
1, 17.0501, 970, -0.03703319, -0.98606050, 0.15103740, 0.21743993, -0.94132304, -0.66216928, -30.40046692, 6.75241137, -107.74626923, 98.73111725, -1.99076748, -74.84451294, -0.52512681, 0.59572053, -0.47007433, -0.38521320, 0.00186398, -0.00200372, -0.00105295, 100.31100464, 84.75119781, 33.45000076, 0.00000000
1, 17.0901, 971, -0.03540406, -0.98714852, 0.14657602, 0.02205610, -0.91326046, -0.44870010, -30.69277954, 7.33703566, -107.89242554, 98.73079681, -1.96751773, -74.87409973, -0.52493721, 0.59568006, -0.47012371, -0.38547367, 0.00066565, -0.00092249, 0.00341495, 100.31100464, 84.75119781, 33.45000076, 0.00000000
1, 17.1001, 972, -0.03440593, -0.98611593, 0.14826369, 0.07655209, -1.00064158, -0.41642442, -30.69277954, 7.33703566, -107.89242554, 98.73187256, -1.96189117, -74.88336182, -0.52487826, 0.59566694, -0.47015047, -0.38554159, -0.00023811, -0.00195867, 0.00174768, 100.31100464, 84.75119781, 33.45000076, 0.00000000
1, 17.1101, 973, -0.03690799, -0.98644805, 0.15078633, 0.09621770, -1.15712297, -0.42040458, -30.63431740, 7.57088566, -107.74626923, 98.73318481, -1.95598996, -74.89417267, -0.52481174, 0.59564954, -0.47018489, -0.38561708, 0.00235783, -0.00162997, -0.00075413, 100.31100464, 84.75119781, 33.45000076, 0.00000000
1, 17.1201, 974, -0.04231015, -0.98504293, 0.14940445, 0.11151628, -0.43609032, -0.06795153, -30.25431061, 8.15550995, -107.62934875, 98.73443604, -1.95465696, -74.89837646, -0.52478582, 0.59564275, -0.47020507, -0.38563833, 0.00782779, -0.00303260, 0.00063259, 100.31100464, 84.75119781, 33.45000076, 0.00000000
1, 17.1301, 975, -0.04190091, -0.98621869, 0.14919756, 0.15595870, -0.04189708, -0.05829944, -30.51739311, 7.57088566, -107.86319733, 98.73382568, -1.97220564, -74.89700317, -0.52486295, 0.59558338, -0.47027382, -0.38554126, 0.00734230, -0.00185141, 0.00085453, 100.31100464, 84.75119781, 33.45000076, 0.00000000
1, 17.1401, 976, -0.03913134, -0.98609984, 0.15049684, 0.24355561, 0.03226566, -0.21538165, -31.13124847, 7.04472351, -107.62934875, 98.73622894, -1.97011626, -74.89636230, -0.52484435, 0.59560442, -0.47026926, -0.38553953, 0.00436093, -0.00196416, -0.00043108, 100.31100464, 84.75119781, 33.45000076, 0.00000000
1, 17.1501, 977, -0.04079208, -0.98588753, 0.14734772, 0.33193880, 0.06870029, -0.25069049, -31.13124847, 7.04472351, -107.62934875, 98.73952484, -1.96773612, -74.89530945, -0.52482134, 0.59563220, -0.47026432, -0.38553387, 0.00606941, -0.00216476, 0.00276533, 100.31100464, 84.75119781, 33.45000076, 0.00000000
1, 17.1601, 978, -0.03804915, -0.98690498, 0.14665031, 0.31415814, 0.08427820, -0.17998846, -31.10201645, 6.89856768, -107.19087982, 98.74260712, -1.96607041, -74.89419556, -0.52480245, 0.59565687, -0.47026154, -0.38552493, 0.00336184, -0.00113877, 0.00352462, 100.31100464, 84.75119781, 33.45000076, 0.00000000
1, 17.1701, 979, -0.03442365, -0.98697269, 0.14848977, 0.13440679, 0.22401527, -0.26200005, -30.51739311, 4.41391420, -107.22010803, 98.74385834, -1.96381688, -74.89157104, -0.52479589, 0.59568131, -0.47024208, -0.38551980, -0.00023260, -0.00107011, 0.00172734, 100.31100464, 84.75119781, 33.45000076, 0.00000000
1, 17.1801, 980, -0.03677574, -0.98630857, 0.14766024, 0.04361559, 0.37986326, -0.25712961, -30.75124168, 7.89242887, -107.68781281, 98.73862457, -1.97930288, -74.88557434, -0.52490449, 0.59562713, -0.47026208, -0.38543147, 0.00208066, -0.00173328, 0.00254021, 100.31100464, 84.75119781, 33.45000076, 0.00000000
1, 17.1901, 981, -0.03779086, -0.98699403, 0.14913829, -0.04398270, 0.27422801, -0.24100626, -30.60508537, 7.42472935, -107.07395172, 98.73808289, -1.97734511, -74.88249207, -0.52490991, 0.59564418, -0.47023553, -0.38542998, 0.00290170, -0.00105517, 0.00098344, 100.31100464, 84.75119781, 33.45000076, 0.00000000
1, 17.2001, 982, -0.03623226, -0.98753548, 0.14957802, -0.00737313, 0.18752266, -0.24353893, -30.60508537, 7.42472935, -107.07395172, 98.73793030, -1.97520602, -74.88027191, -0.52490973, 0.59566021, -0.47021395, -0.38543180, 0.00137506, -0.00051693, 0.00053766, 100.31100464, 84.75119781, 33.45000076, 0.00000000
1, 17.2101, 983, -0.03653587, -0.98497176, 0.15023725, 0.04277888, 0.46521714, -0.18498014, -30.48816109, 7.54165459, -107.60011292, 98.73817444, -1.97407866, -74.87538910, -0.52492040, 0.59568536, -0.47018439, -0.38541439, 0.00170484, -0.00308141, -0.00010965, 100.31100464, 84.75119781, 33.45000076, 0.00000000
1, 17.2201, 984, -0.03767543, -0.98480308, 0.14784488, 0.02655525, 0.41627058, -0.13527930, -30.22508049, 7.22011089, -107.68781281, 98.73829651, -1.97336423, -74.87106323, -0.52493149, 0.59570616, -0.47015914, -0.38539791, 0.00286746, -0.00324764, 0.00227423, 100.31100464, 84.75119781, 33.45000076, 0.00000000
1, 17.2301, 985, -0.03888818, -0.98534107, 0.14695740, -0.01006709, 0.57685280, -0.11537674, -30.86816597, 6.98626137, -108.00935364, 98.73210144, -1.98389912, -74.86383057, -0.52502966, 0.59567010, -0.47014752, -0.38533419, 0.00403841, -0.00271006, 0.00313576, 100.31100464, 84.75119781, 33.45000076, 0.00000000
1, 17.2401, 986, -0.03868262, -0.98589480, 0.14977045, 0.06179088, 0.50870252, -0.15296808, -30.89739799, 6.13855600, -107.77550507, 98.73252106, -1.98315609, -74.85858154, -0.52504218, 0.59569621, -0.47011828, -0.38531232, 0.00369791, -0.00216887, 0.00024199, 100.31100464, 84.75119781, 33.45000076, 0.00000000
1, 17.2501, 987, -0.04142781, -0.98662078, 0.14599887, 0.13181715, 0.59677505, -0.16928631, -30.89739799, 6.13855600, -107.77550507, 98.73362732, -1.98236859, -74.85242462, -0.52505398, 0.59572935, -0.47008657, -0.38528377, 0.00646289, -0.00143441, 0.00402300, 100.31100464, 84.75119781, 33.45000076, 0.00000000
1, 17.2601, 988, -0.04044567, -0.98647058, 0.14280944, 0.36491197, 0.44177672, -0.15842190, -30.48816109, 7.16164875, -107.83396912, 98.73711395, -1.98146415, -74.84781647, -0.52504784, 0.59576744, -0.47007030, -0.38525319, 0.00550581, -0.00157358, 0.00725670, 100.31100464, 84.75119781, 33.45000076, 0.00000000
1, 17.2701, 989, -0.03871527, -0.98806930, 0.14429072, 0.31078145, 0.47902977, -0.27952760, -30.75124168, 5.64162540, -107.36626434, 98.74003601, -1.97940743, -74.84266663, -0.52504182, 0.59580922, -0.47004420, -0.38522851, 0.00379809, 0.00003042, 0.00583367, 100.31100464, 84.75119781, 33.45000076, 0.00000000
1, 17.2801, 990, -0.03724977, -0.98679328, 0.14862414, 0.49100339, 0.28833058, -0.25131494, -30.72201157, 7.39549828, -107.16164398, 98.74373627, -1.98168826, -74.83901215, -0.52504385, 0.59583312, -0.47004777, -0.38518444, 0.00233820, -0.00124287, 0.00157315, 100.31100464, 84.75119781, 33.45000076, 0.00000000
1, 17.2901, 991, -0.03815709, -0.98699057, 0.14883584, 0.50810415, 0.34111917, -0.26780048, -30.66354752, 6.51856184, -107.30780029, 98.74867249, -1.97954404, -74.83522797, -0.52502245, 0.59587884, -0.47003517, -0.38515827, 0.00322573, -0.00103441, 0.00142974, 100.31100464, 84.75119781, 33.45000076, 0.00000000
1, 17.3001, 992, -0.04166495, -0.98509562, 0.15058582, 0.56087130, 0.36191791, -0.39065915, -30.66354752, 6.51856184, -107.30780029, 98.75412750, -1.97620702, -74.83105469, -0.52499497, 0.59593278, -0.47001699, -0.38513458, 0.00677863, -0.00291989, -0.00023509, 100.31100464, 84.75119781, 33.45000076, 0.00000000
1, 17.3101, 993, -0.03976545, -0.98666728, 0.14981948, 0.55605543, 0.74648333, -0.45153591, -30.51739311, 7.22011089, -107.01548767, 98.75941467, -1.97284985, -74.82299042, -0.52498132, 0.59600192, -0.46997789, -0.38509381, 0.00494258, -0.00133543, 0.00062284, 100.31100464, 84.75119781, 33.45000076, 0.00000000
1, 17.3201, 994, -0.03541101, -0.98609579, 0.15315747, 0.35965270, 0.95355546, -0.43040794, -30.45892906, 7.80473518, -106.98625946, 98.76264191, -1.97002554, -74.81291199, -0.52498722, 0.59606808, -0.46992379, -0.38504940, 0.00063052, -0.00190224, -0.00262660, 100.31100464, 84.75119781, 33.45000076, 0.00000000
1, 17.3301, 995, -0.03347616, -0.98558009, 0.15279683, 0.38762552, 0.53547382, -0.38212657, -29.84507370, 4.32622051, -107.86319733, 98.77141571, -1.96535981, -74.80764771, -0.52494091, 0.59614635, -0.46990508, -0.38501412, -0.00124153, -0.00240727, -0.00218046, 100.31100464, 84.75119781, 33.45000076, 0.00000000
1, 17.3401, 996, -0.03480650, -0.98506200, 0.14971343, 0.20709136, 0.79162037, -0.23351437, -30.37123680, 7.48319197, -107.51242065, 98.77318573, -1.96424246, -74.79943848, -0.52495480, 0.59619200, -0.46986341, -0.38497525, 0.00014852, -0.00290542, 0.00100847, 100.31100464, 84.75119781, 33.45000076, 0.00000000
1, 17.3601, 997, -0.03241391, -0.98645699, 0.15061948, 0.25928584, 0.92716026, -0.05568719, -30.34200478, 7.30780458, -107.24934387, 98.77884674, -1.96501470, -74.78199768, -0.52498698, 0.59628677, -0.46979511, -0.38486800, -0.00224737, -0.00149748, 0.00019932, 100.31100464, 84.75119781, 33.45000076, 0.00000000
1, 17.3701, 998, -0.02949803, -0.98767436, 0.15316747, 0.11745339, 0.89108461, -0.05474155, -30.51739311, 6.92779875, -107.10318756, 98.77970886, -1.96580708, -74.77310181, -0.52501553, 0.59632444, -0.46975523, -0.38481948, -0.00518504, -0.00028000, -0.00231868, 100.31100464, 84.75119781, 33.45000076, 0.00000000
1, 17.3801, 999, -0.03054115, -0.98666477, 0.15367687, 0.12315995, 0.45222095, 0.09246009, -30.13738632, 7.13241720, -107.89242554, 98.79502106, -1.95684087, -74.77082062, -0.52490813, 0.59643561, -0.46975490, -0.38479400, -0.00411962, -0.00127955, -0.00275361, 100.31100464, 84.75119781, 33.45000076, 0.00000000
1, 17.3901, 1000, -0.03389079, -0.98525417, 0.15541674, 0.01594925, 0.51838636, 0.20055850, -30.04969215, 6.95702982, -108.18473816, 98.79502106, -1.95961869, -74.76599884, -0.52493531, 0.59644556, -0.46974221, -0.38475716, -0.00067753, -0.00266572, -0.00430194, 100.31100464, 84.75119781, 33.45000076, 0.00000000
1, 17.4001, 1001, -0.03575449, -0.98548591, 0.15292770, 0.05376315, 0.34340772, 0.24848469, -29.93276787, 7.04472351, -107.57088470, 98.79545593, -1.96259189, -74.76299286, -0.52495480, 0.59644938, -0.46974120, -0.38472569, 0.00114491, -0.00242831, -0.00181773, 100.31100464, 84.75119781, 33.45000076, 0.00000000
1, 17.4101, 1002, -0.03681892, -0.98566306, 0.15225950, 0.06840419, 0.60463232, 0.25452471, -29.93276787, 7.04472351, -107.57088470, 98.79595947, -1.96602559, -74.75737762, -0.52498460, 0.59646255, -0.46972895, -0.38467968, 0.00215216, -0.00224631, -0.00114109, 100.31100464, 84.75119781, 33.45000076, 0.00000000
1, 17.4201, 1003, -0.03319335, -0.98578858, 0.15397631, 0.03331334, 0.58482599, 0.34212977, -29.87430573, 7.10318613, -107.98011780, 98.79613495, -1.97028375, -74.75211334, -0.52501816, 0.59646982, -0.46972102, -0.38463217, -0.00154383, -0.00212068, -0.00284518, 100.31100464, 84.75119781, 33.45000076, 0.00000000
1, 17.4301, 1004, -0.03475751, -0.98531067, 0.15241154, -0.24305834, 0.09216527, 0.33828655, -30.28354263, 7.48319197, -107.51242065, 98.79805756, -1.97765803, -74.75177765, -0.52503830, 0.59645391, -0.46975851, -0.38458347, -0.00006142, -0.00259455, -0.00129349, 100.31100464, 84.75119781, 33.45000076, 0.00000000
1, 17.4401, 1005, -0.03731972, -0.98652625, 0.14762734, -0.13835852, 0.26632541, 0.37615713, -29.69891739, 7.48319197, -107.33703613, 98.79660797, -1.98178411, -74.74971771, -0.52506906, 0.59644115, -0.46976125, -0.38455802, 0.00239487, -0.00136270, 0.00351057, 100.31100464, 84.75119781, 33.45000076, 0.00000000
1, 17.4501, 1006, -0.03595824, -0.98693216, 0.15110771, -0.24530874, 0.28319681, 0.36039463, -29.90353584, 7.13241720, -107.30780029, 98.79409027, -1.98576999, -74.74746704, -0.52510548, 0.59642476, -0.46975878, -0.38453680, 0.00095139, -0.00096613, -0.00000757, 100.31100464, 84.75119781, 33.45000076, 0.00000000
1, 17.4601, 1007, -0.03260351, -0.98577785, 0.15625256, -0.17481053, 0.35177967, 0.43123633, -29.90353584, 7.13241720, -107.30780029, 98.79224396, -1.99057782, -74.74463654, -0.52514350, 0.59641093, -0.46975929, -0.38450581, -0.00249067, -0.00213113, -0.00517368, 100.31100464, 84.75119781, 33.45000076, 0.00000000
1, 17.4701, 1008, -0.03413701, -0.98659360, 0.15171589, -0.27987584, 0.22774757, 0.48219565, -30.75124168, 7.65857935, -107.16164398, 98.78942108, -1.99569678, -74.74312592, -0.52518350, 0.59638602, -0.46976468, -0.38448325, -0.00103377, -0.00131166, -0.00068595, 100.31100464, 84.75119781, 33.45000076, 0.00000000
1, 17.4801, 1009, -0.03443643, -0.98695910, 0.15161851, -0.34943086, 0.10444926, 0.51519436, -30.48816109, 7.45396090, -107.13241577, 98.78850555, -2.00240517, -74.74298096, -0.52521515, 0.59635866, -0.46979061, -0.38445058, -0.00083208, -0.00094991, -0.00063760, 100.31100464, 84.75119781, 33.45000076, 0.00000000
1, 17.4901, 1010, -0.03687889, -0.98569560, 0.15231980, -0.20550559, -0.04925559, 0.43959424, -30.19584846, 7.33703566, -107.83396912, 98.78649902, -2.00667810, -74.74414063, -0.52523857, 0.59632963, -0.46980888, -0.38444132, 0.00150863, -0.00221301, -0.00135564, 100.31100464, 84.75119781, 33.45000076, 0.00000000
1, 17.5001, 1011, -0.03620126, -0.98670459, 0.15162937, -0.31125146, -0.12065739, 0.47429067, -30.31277466, 7.60011673, -107.36626434, 98.78347015, -2.01119232, -74.74604034, -0.52526569, 0.59629190, -0.46982870, -0.38443846, 0.00075612, -0.00120772, -0.00071409, 100.31100464, 84.75119781, 33.45000076, 0.00000000
1, 17.5101, 1012, -0.03537751, -0.98503518, 0.15083963, -0.18463567, -0.29401016, 0.48607302, -30.31277466, 7.60011673, -107.36626434, 98.78176117, -2.01556301, -74.74969482, -0.52527958, 0.59625363, -0.46986133, -0.38443890, -0.00014283, -0.00287815, 0.00004748, 100.31100464, 84.75119781, 33.45000076, 0.00000000
1, 17.5201, 1013, -0.03440282, -0.98598504, 0.14911671, -0.27254763, -0.36567071, 0.53806233, -30.42969894, 7.16164875, -107.27857208, 98.77919769, -2.02033997, -74.75412750, -0.52529687, 0.59620684, -0.46989706, -0.38444430, -0.00119348, -0.00192861, 0.00173186, 100.31100464, 84.75119781, 33.45000076, 0.00000000
1, 17.5301, 1014, -0.03550827, -0.98485470, 0.14962873, -0.21785645, -0.37001491, 0.50029403, -30.19584846, 6.81087399, -107.77550507, 98.77539063, -2.02744603, -74.75817108, -0.52533114, 0.59614766, -0.46993688, -0.38444060, -0.00018206, -0.00306334, 0.00117541, 100.31100464, 84.75119781, 33.45000076, 0.00000000
1, 17.5401, 1015, -0.03936184, -0.98412216, 0.14661862, -0.12178841, -0.43997738, 0.46755460, -29.84507370, 6.05086231, -107.68781281, 98.77437592, -2.03141189, -74.76322937, -0.52533507, 0.59610820, -0.46997744, -0.38444686, 0.00357172, -0.00379541, 0.00412329, 100.31100464, 84.75119781, 33.45000076, 0.00000000
1, 17.5501, 1016, -0.03743887, -0.98633599, 0.14848195, -0.21524940, -0.07402527, 0.42488867, -29.49429893, 7.07395506, -108.21397400, 98.77228546, -2.03550434, -74.76458740, -0.52535748, 0.59607852, -0.46999568, -0.38443989, 0.00157364, -0.00158596, 0.00223630, 100.31100464, 84.75119781, 33.45000076, 0.00000000
1, 17.5601, 1017, -0.03229934, -0.98695469, 0.15358581, -0.21320766, -0.23191614, 0.47367758, -29.49429893, 7.07395506, -108.21397400, 98.77027130, -2.03984571, -74.76760864, -0.52537501, 0.59604156, -0.47002387, -0.38443887, -0.00365350, -0.00097924, -0.00289682, 100.31100464, 84.75119781, 33.45000076, 0.00000000
1, 17.5701, 1018, -0.03445757, -0.98708355, 0.15295252, -0.22701196, -0.57849467, 0.39548808, -29.96199989, 7.07395506, -107.68781281, 98.76824951, -2.04289746, -74.77394104, -0.52537626, 0.59599549, -0.47006357, -0.38445991, -0.00155535, -0.00085198, -0.00230056, 100.31100464, 84.75119781, 33.45000076, 0.00000000
1, 17.5801, 1019, -0.04109290, -0.98538542, 0.14902917, -0.13491143, -0.82344991, 0.47610754, -30.37123680, 7.36626720, -107.74626923, 98.76470947, -2.05494332, -74.78192902, -0.52541530, 0.59590381, -0.47014678, -0.38444695, 0.00499503, -0.00254551, 0.00157492, 100.31100464, 84.75119781, 33.45000076, 0.00000000
1, 17.5901, 1020, -0.04065336, -0.98589981, 0.15035394, -0.26194668, -0.63102460, 0.39468074, -30.19584846, 7.19087982, -108.24320221, 98.76235199, -2.05789590, -74.78875732, -0.52541631, 0.59585446, -0.47018746, -0.38447225, 0.00438369, -0.00203787, 0.00018107, 100.31100464, 84.75119781, 33.45000076, 0.00000000
1, 17.6001, 1021, -0.03783625, -0.98602343, 0.15410846, -0.40493089, -0.57924408, 0.36268288, -30.48816109, 7.36626720, -107.95088959, 98.75853729, -2.06062102, -74.79503632, -0.52542585, 0.59580159, -0.47021943, -0.38450217, 0.00150956, -0.00192624, -0.00361604, 100.31100464, 84.75119781, 33.45000076, 0.00000000
1, 17.6101, 1022, -0.03972282, -0.98599899, 0.15353808, -0.29871517, -0.57454056, 0.20370807, -30.48816109, 7.36626720, -107.95088959, 98.75577545, -2.06178999, -74.80103302, -0.52542466, 0.59576017, -0.47024652, -0.38453478, 0.00336498, -0.00195837, -0.00311423, 100.31100464, 84.75119781, 33.45000076, 0.00000000
1, 17.6201, 1023, -0.04226338, -0.98585689, 0.15039046, -0.29756409, -0.67813295, 0.16617203, -29.69891739, 7.45396090, -108.00935364, 98.75304413, -2.06241870, -74.80798340, -0.52541798, 0.59571689, -0.47027630, -0.38457447, 0.00590077, -0.00210201, -0.00001948, 100.31100464, 84.75119781, 33.45000076, 0.00000000
1, 17.6301, 1024, -0.04006099, -0.98522854, 0.14927186, -0.08717295, -0.61830044, 0.03812997, -30.66354752, 7.36626720, -108.44782257, 98.74588013, -2.06845021, -74.81308746, -0.52546191, 0.59564173, -0.47030556, -0.38459522, 0.00367002, -0.00273551, 0.00105436, 100.31100464, 84.75119781, 33.45000076, 0.00000000
1, 17.6401, 1025, -0.03758577, -0.98607051, 0.14997597, -0.05438705, -0.59319186, -0.15858327, -30.48816109, 7.89242887, -107.62934875, 98.74553680, -2.06599140, -74.81871033, -0.52543509, 0.59562582, -0.47032273, -0.38463545, 0.00113946, -0.00190675, 0.00026261, 100.31100464, 84.75119781, 33.45000076, 0.00000000
1, 17.6501, 1026, -0.03830262, -0.98493934, 0.14939328, -0.09241030, -0.40080881, -0.20609196, -30.28354263, 7.60011673, -108.03858185, 98.74475098, -2.06336188, -74.82237244, -0.52541655, 0.59561646, -0.47032741, -0.38466948, 0.00190603, -0.00303984, 0.00083883, 100.31100464, 84.75119781, 33.45000076, 0.00000000
1, 17.6601, 1027, -0.03910339, -0.98403955, 0.14953522, -0.02076170, -0.45155466, -0.24326578, -29.46506882, 6.81087399, -108.00935364, 98.74468994, -2.06028438, -74.82648468, -0.52539098, 0.59561026, -0.47033495, -0.38470501, 0.00275573, -0.00394342, 0.00068463, 100.31100464, 84.75119781, 33.45000076, 0.00000000
1, 17.6701, 1028, -0.04039946, -0.98686159, 0.15003034, -0.04178847, -0.18981270, -0.27181157, -29.46506882, 6.81087399, -108.00935364, 98.74432373, -2.05730987, -74.82794952, -0.52537620, 0.59561306, -0.47032809, -0.38472903, 0.00410232, -0.00112347, 0.00018598, 100.31100464, 84.75119781, 33.45000076, 0.00000000
1, 17.6801, 1029, -0.03810988, -0.98680067, 0.15224122, -0.02290918, -0.30856597, -0.39756504, -30.31277466, 7.24934244, -107.89242554, 98.74864960, -2.05851793, -74.83045959, -0.52535003, 0.59561831, -0.47036102, -0.38471633, 0.00185129, -0.00118837, -0.00201199, 100.31100464, 84.75119781, 33.45000076, 0.00000000
1, 17.7101, 1030, -0.03602582, -0.98561180, 0.15298684, 0.01254857, -0.30741522, -0.43304119, -30.69277954, 6.19701815, -108.12627411, 98.74985504, -2.04464507, -74.83858490, -0.52526182, 0.59563971, -0.47034574, -0.38482249, -0.00006878, -0.00237210, -0.00266956, 100.31100464, 84.75119781, 33.45000076, 0.00000000
1, 17.7201, 1031, -0.03560041, -0.98739994, 0.15419532, -0.00507598, -0.32456091, -0.45075163, -30.69277954, 6.19701815, -108.12627411, 98.74988556, -2.03970385, -74.84112549, -0.52523363, 0.59564692, -0.47033706, -0.38486028, -0.00041346, -0.00058811, -0.00387407, 100.31100464, 84.75119781, 33.45000076, 0.00000000
1, 17.7301, 1032, -0.03681634, -0.98694789, 0.15505874, -0.09260119, -0.10961764, -0.51502931, -30.66354752, 6.98626137, -108.09704590, 98.77138519, -2.04018927, -74.84321594, -0.52511674, 0.59573513, -0.47042233, -0.38477904, 0.00086752, -0.00103122, -0.00465700, 100.31100464, 84.75119781, 33.45000076, 0.00000000
1, 17.7401, 1033, -0.03691803, -0.98704910, 0.15296133, -0.02940448, 0.11493496, -0.49418774, -30.42969894, 6.28471184, -108.06781769, 98.77101898, -2.03548217, -74.84136200, -0.52510631, 0.59575778, -0.47039050, -0.38479704, 0.00098455, -0.00088377, -0.00227903, 100.31100464, 84.75119781, 33.45000076, 0.00000000
1, 17.7501, 1034, -0.03358704, -0.98622823, 0.15314884, -0.06522843, 0.14817598, -0.44036114, -30.86816597, 7.01549244, -108.50628662, 98.77027893, -2.03135204, -74.83922577, -0.52510107, 0.59577781, -0.47035864, -0.38481233, -0.00226888, -0.00170942, -0.00246787, 100.31100464, 84.75119781, 33.45000076, 0.00000000
1, 17.7601, 1035, -0.03099961, -0.98631263, 0.15398909, -0.10147039, 0.23196211, -0.31522006, -31.18971062, 5.58316278, -108.09704590, 98.76914978, -2.02858233, -74.83644867, -0.52510536, 0.59579390, -0.47032812, -0.38481897, -0.00480721, -0.00162941, -0.00331000, 100.31100464, 84.75119781, 33.45000076, 0.00000000
1, 17.7701, 1036, -0.03168789, -0.98520243, 0.15304139, -0.18483046, -0.25365108, -0.43089026, -31.18971062, 5.58316278, -108.09704590, 98.76737213, -2.02394176, -74.83831024, -0.52509004, 0.59579450, -0.47031122, -0.38485953, -0.00404324, -0.00274633, -0.00239888, 100.31100464, 84.75119781, 33.45000076, 0.00000000
1, 17.7801, 1037, -0.03605483, -0.98673820, 0.15059555, -0.27483597, -0.15126736, -0.37472585, -30.51739311, 7.27857351, -107.48319244, 98.76335144, -2.02882171, -74.83840942, -0.52512980, 0.59575838, -0.47031987, -0.38485041, 0.00036502, -0.00121419, -0.00000737, 100.31100464, 84.75119781, 33.45000076, 0.00000000
1, 17.7901, 1038, -0.03673448, -0.98600817, 0.15027814, -0.18639958, -0.09951352, -0.32203981, -30.37123680, 7.01549244, -107.89242554, 98.76151276, -2.02549314, -74.83890533, -0.52512461, 0.59575969, -0.47030151, -0.38487804, 0.00099141, -0.00195051, 0.00025225, 100.31100464, 84.75119781, 33.45000076, 0.00000000
1, 17.8001, 1039, -0.03454075, -0.98667586, 0.14995395, -0.20371044, -0.15063399, -0.37561619, -30.37123680, 7.07395506, -107.89242554, 98.75949860, -2.02155161, -74.83983612, -0.52511638, 0.59576064, -0.47028208, -0.38491148, -0.00113946, -0.00128937, 0.00054935, 100.31100464, 84.75119781, 33.45000076, 0.00000000
1, 17.8101, 1040, -0.03296348, -0.98749506, 0.15303057, -0.11438546, -0.20038737, -0.44804356, -30.95586014, 6.89856768, -107.92166138, 98.75838470, -2.01683187, -74.84114838, -0.52509922, 0.59576690, -0.47026420, -0.38494724, -0.00264518, -0.00048153, -0.00254738, 100.31100464, 84.75119781, 33.45000076, 0.00000000
1, 17.8201, 1041, -0.03463121, -0.98570263, 0.15234262, -0.16380298, -0.49965680, -0.33186504, -30.95586014, 6.89856768, -107.92166138, 98.75689697, -2.01281190, -74.84560394, -0.52507609, 0.59575605, -0.47026449, -0.38499510, -0.00089952, -0.00227990, -0.00188914, 100.31100464, 84.75119781, 33.45000076, 0.00000000
1, 17.8301, 1042, -0.03287306, -0.98492420, 0.15356717, -0.23848762, -0.20441507, -0.32387710, -30.98509216, 6.98626137, -108.09704590, 98.76487732, -2.00016832, -74.84889984, -0.52497363, 0.59582388, -0.47025234, -0.38504475, -0.00255875, -0.00306176, -0.00309297, 100.31100464, 84.75119781, 33.45000076, 0.00000000
1, 17.8401, 1043, -0.03418965, -0.98437643, 0.15297489, -0.06403682, -0.15638869, -0.12942852, -31.13124847, 6.84010506, -107.36626434, 98.76429749, -1.99865472, -74.85024261, -0.52496612, 0.59582102, -0.47025064, -0.38506132, -0.00107984, -0.00359756, -0.00239504, 100.31100464, 84.75119781, 33.45000076, 0.00000000
1, 17.8501, 1044, -0.03466040, -0.98608136, 0.15166701, -0.21188736, 0.32758299, -0.02838025, -31.01432228, 6.51856184, -107.33703613, 98.76204681, -1.99887812, -74.84697723, -0.52498972, 0.59582341, -0.47022709, -0.38505441, -0.00059858, -0.00189431, -0.00111412, 100.31100464, 84.75119781, 33.45000076, 0.00000000
1, 17.8601, 1045, -0.03128628, -0.98666286, 0.15082429, -0.12413083, 0.44770339, 0.07852229, -30.72201157, 6.63548660, -107.24934387, 98.76066589, -2.00033259, -74.84267426, -0.52501708, 0.59582955, -0.47020647, -0.38503259, -0.00398704, -0.00131550, -0.00029437, 100.31100464, 84.75119781, 33.45000076, 0.00000000
1, 17.8901, 1046, -0.03568855, -0.98619628, 0.15218447, -0.12245456, 0.33994058, 0.21614112, -30.04969215, 6.60625553, -107.22010803, 98.76503754, -1.99793541, -74.83190918, -0.52502108, 0.59590220, -0.47015455, -0.38497812, 0.00046094, -0.00177486, -0.00159187, 100.31100464, 84.75119781, 33.45000076, 0.00000000
1, 17.9001, 1047, -0.03696006, -0.98685777, 0.15135548, -0.19797662, 0.70480001, 0.22579908, -30.10815430, 7.39549828, -107.04472351, 98.76283264, -2.00122595, -74.82527924, -0.52506775, 0.59590769, -0.47012734, -0.38493925, 0.00168046, -0.00111428, -0.00079480, 100.31100464, 84.75119781, 33.45000076, 0.00000000
1, 17.9101, 1048, -0.03294174, -0.98697090, 0.15273716, -0.19870903, 0.77358359, 0.26250011, -29.93276787, 7.33703566, -107.77550507, 98.76060486, -2.00500202, -74.81801605, -0.52511865, 0.59591389, -0.47009882, -0.38489503, -0.00240219, -0.00100802, -0.00221042, 100.31100464, 84.75119781, 33.45000076, 0.00000000
1, 17.9201, 1049, -0.03080292, -0.98564184, 0.15275642, -0.33719170, 0.45903727, 0.25676560, -29.93276787, 7.33703566, -107.77550507, 98.75709534, -2.00824142, -74.81386566, -0.52516359, 0.59590334, -0.47007984, -0.38487315, -0.00460439, -0.00234271, -0.00227279, 100.31100464, 84.75119781, 33.45000076, 0.00000000
1, 17.9301, 1050, -0.03328167, -0.98689270, 0.15188937, -0.31747288, 0.31787512, 0.34078038, -30.83893585, 6.75241137, -107.33703613, 98.75411224, -2.01018262, -74.81141663, -0.52519500, 0.59589285, -0.47006571, -0.38486385, -0.00217278, -0.00109740, -0.00147052, 100.31100464, 84.75119781, 33.45000076, 0.00000000
1, 17.9401, 1051, -0.03662547, -0.98717260, 0.15071031, -0.36316046, 0.27848923, 0.42969629, -30.37123680, 7.04472351, -107.42472839, 98.75041962, -2.01485538, -74.80930328, -0.52523971, 0.59586799, -0.47006309, -0.38484448, 0.00111841, -0.00082271, -0.00035951, 100.31100464, 84.75119781, 33.45000076, 0.00000000
1, 17.9501, 1052, -0.03601794, -0.98687959, 0.15141270, -0.26133025, 0.38314068, 0.43144196, -30.45892906, 7.27857351, -107.51242065, 98.74768829, -2.01971340, -74.80618286, -0.52528352, 0.59585112, -0.47005928, -0.38481545, 0.00042571, -0.00112140, -0.00110868, 100.31100464, 84.75119781, 33.45000076, 0.00000000
1, 17.9601, 1053, -0.03146688, -0.98728490, 0.15500405, -0.47386953, 0.31162286, 0.43244287, -30.54662323, 6.95702982, -107.36626434, 98.74287415, -2.02447796, -74.80374146, -0.52533561, 0.59582222, -0.47005162, -0.38479871, -0.00421646, -0.00073055, -0.00476370, 100.31100464, 84.75119781, 33.45000076, 0.00000000
1, 17.9901, 1054, -0.03478345, -0.98702419, 0.14918852, -0.49254018, 0.39723548, 0.48729944, -30.63431740, 7.10318613, -108.27243042, 98.72369385, -2.04357719, -74.79421997, -0.52554262, 0.59570557, -0.47002250, -0.38473210, -0.00121379, -0.00102103, 0.00071066, 100.31100464, 84.75119781, 33.45000076, 0.00000000
1, 18.0001, 1055, -0.03310193, -0.98359525, 0.15380684, -0.34542131, -0.00221635, 0.49343160, -30.37123680, 4.70622635, -107.33703613, 98.72028351, -2.04846382, -74.79498291, -0.52557701, 0.59566945, -0.47003675, -0.38472360, -0.00299883, -0.00446530, -0.00397003, 100.31100464, 84.75119781, 33.45000076, 0.00000000
1, 18.0101, 1056, -0.03672106, -0.98721254, 0.14982902, -0.33444431, 0.55571741, 0.47153831, -30.40046692, 7.30780458, -107.42472839, 98.71677399, -2.05395722, -74.79018402, -0.52563298, 0.59565353, -0.47002444, -0.38468677, 0.00054210, -0.00084618, -0.00005838, 100.31100464, 84.75119781, 33.45000076, 0.00000000
1, 18.0201, 1057, -0.03313218, -0.98520494, 0.15006955, -0.55895561, -0.00286538, 0.44355616, -30.04969215, 6.69394922, -107.68781281, 98.71119690, -2.05834985, -74.79089355, -0.52567691, 0.59560961, -0.47002894, -0.38468945, -0.00313346, -0.00286512, -0.00037889, 100.31100464, 84.75119781, 33.45000076, 0.00000000
1, 18.0301, 1058, -0.03368035, -0.98711073, 0.15070184, -0.29375198, 0.13749403, 0.49610394, -30.04969215, 6.69394922, -107.68781281, 98.70831299, -2.06229687, -74.79036713, -0.52570921, 0.59558451, -0.47003406, -0.38467789, -0.00266520, -0.00096696, -0.00107676, 100.31100464, 84.75119781, 33.45000076, 0.00000000
1, 18.0401, 1059, -0.03584133, -0.98581028, 0.14757590, -0.25882265, 0.15366805, 0.43525112, -29.93276787, 7.22011089, -107.42472839, 98.70570374, -2.06684399, -74.78950500, -0.52574354, 0.59555995, -0.47004101, -0.38466039, -0.00056555, -0.00226807, 0.00199140, 100.31100464, 84.75119781, 33.45000076, 0.00000000
1, 18.0501, 1060, -0.03546024, -0.98596120, 0.15015337, -0.22740059, 0.44956392, 0.32853198, -30.40046692, 7.01549244, -107.13241577, 98.70328522, -2.07077050, -74.78553009, -0.52578491, 0.59555119, -0.47002968, -0.38463119, -0.00102758, -0.00212506, -0.00062668, 100.31100464, 84.75119781, 33.45000076, 0.00000000
1, 18.0601, 1061, -0.03203608, -0.98765755, 0.15016922, 0.03973972, 0.43286645, 0.39483771, -30.37123680, 7.42472935, -107.62934875, 98.70356750, -2.07533288, -74.78183746, -0.52581382, 0.59555143, -0.47003168, -0.38458884, -0.00452147, -0.00042734, -0.00064408, 100.31100464, 84.75119781, 33.45000076, 0.00000000
1, 18.0701, 1062, -0.03389111, -0.98634458, 0.15281343, -0.09790555, 0.04870257, 0.38743314, -30.66354752, 7.19087982, -107.60011292, 98.70261383, -2.07923055, -74.78193665, -0.52583379, 0.59553277, -0.47004628, -0.38457245, -0.00275078, -0.00174416, -0.00330716, 100.31100464, 84.75119781, 33.45000076, 0.00000000
1, 18.0801, 1063, -0.04004389, -0.98601699, 0.15044074, 0.11630858, -0.01901497, 0.38309219, -30.66354752, 7.19087982, -107.60011292, 98.70252991, -2.10706997, -74.78076172, -0.52594781, 0.59543848, -0.47016358, -0.38441923, 0.00323723, -0.00206032, -0.00094070, 100.31100464, 84.75119781, 33.45000076, 0.00000000
1, 18.0901, 1064, -0.04019440, -0.98590910, 0.15092933, -0.02803684, 0.13802619, 0.31856850, -30.75124168, 7.62934828, -107.65857697, 98.70223236, -2.11043763, -74.77987671, -0.52596563, 0.59542882, -0.47017294, -0.38439849, 0.00301357, -0.00215813, -0.00144870, 100.31100464, 84.75119781, 33.45000076, 0.00000000
1, 18.1001, 1065, -0.03923676, -0.98631072, 0.15283173, -0.10397832, 0.52195805, 0.25858203, -30.69277954, 7.13241720, -107.89242554, 98.70101929, -2.11377287, -74.77510071, -0.52600104, 0.59543103, -0.47015893, -0.38436377, 0.00198396, -0.00175904, -0.00336148, 100.31100464, 84.75119781, 33.45000076, 0.00000000
1, 18.1101, 1066, -0.03704055, -0.98707473, 0.15271823, -0.04942982, 0.43415993, 0.30837318, -30.57585526, 6.43086815, -107.19087982, 98.70038605, -2.11747265, -74.77125549, -0.52603173, 0.59543073, -0.47015321, -0.38432899, -0.00026376, -0.00099536, -0.00326008, 100.31100464, 84.75119781, 33.45000076, 0.00000000
1, 18.1201, 1067, -0.03533589, -0.98548329, 0.15177220, -0.29894483, 0.48373932, 0.33025730, -30.86816597, 7.33703566, -107.24934387, 98.69725037, -2.12146378, -74.76697540, -0.52607816, 0.59541976, -0.47013819, -0.38430101, -0.00203946, -0.00258855, -0.00234693, 100.31100464, 84.75119781, 33.45000076, 0.00000000
1, 18.1301, 1068, -0.03530574, -0.98545337, 0.15180306, -0.02950235, 0.25985709, 0.32149103, -30.86816597, 7.33703566, -107.24934387, 98.70461273, -2.12283087, -74.76583862, -0.52604908, 0.59545338, -0.47016305, -0.38425827, -0.00212113, -0.00261432, -0.00236265, 100.31100464, 84.75119781, 33.45000076, 0.00000000
1, 18.1401, 1069, -0.03664765, -0.98578858, 0.15003921, -0.13512883, 0.23545100, 0.19984540, -31.01432228, 7.51242304, -107.45395660, 98.70319366, -2.12515497, -74.76379395, -0.52607244, 0.59544700, -0.47015798, -0.38424233, -0.00080394, -0.00226422, -0.00053104, 100.31100464, 84.75119781, 33.45000076, 0.00000000
1, 18.1501, 1070, -0.03758114, -0.98629057, 0.15027533, -0.25588712, 0.17554030, 0.07809423, -30.34200478, 7.39549828, -107.74626923, 98.70056915, -2.12619686, -74.76218414, -0.52609563, 0.59543788, -0.47014546, -0.38424018, 0.00010732, -0.00176613, -0.00079943, 100.31100464, 84.75119781, 33.45000076, 0.00000000
1, 18.1601, 1071, -0.03584643, -0.98781061, 0.14735407, -0.02399664, 0.10881522, 0.03849972, -30.48816109, 6.89856768, -107.42472839, 98.70028687, -2.12673235, -74.76116180, -0.52610254, 0.59543890, -0.47014156, -0.38423371, -0.00162721, -0.00024437, 0.00210196, 100.31100464, 84.75119781, 33.45000076, 0.00000000
1, 18.1701, 1072, -0.03443166, -0.98665249, 0.14782792, -0.16567154, 0.07148849, 0.09199179, -30.83893585, 7.10318613, -107.42472839, 98.69861603, -2.12775564, -74.76058197, -0.52611721, 0.59542990, -0.47013751, -0.38423252, -0.00306532, -0.00140594, 0.00161138, 100.31100464, 84.75119781, 33.45000076, 0.00000000
1, 18.1801, 1073, -0.03522209, -0.98605382, 0.14908768, -0.01928576, -0.27491605, 0.06434552, -30.83893585, 7.10318613, -107.42472839, 98.70001984, -2.12739658, -74.76360321, -0.52609843, 0.59542525, -0.47015631, -0.38424259, -0.00228115, -0.00200723, 0.00034551, 100.31100464, 84.75119781, 33.45000076, 0.00000000
1, 18.2101, 1074, -0.03587696, -0.98691964, 0.14940681, 0.03133537, -0.07965610, -0.07185347, -30.51739311, 7.48319197, -108.41858673, 98.69956207, -2.12618828, -74.77172089, -0.52606887, 0.59539413, -0.47019160, -0.38428819, -0.00160486, -0.00114134, 0.00003316, 100.31100464, 84.75119781, 33.45000076, 0.00000000
1, 18.2201, 1075, -0.03441173, -0.98601604, 0.15282165, 0.06988166, -0.32341829, -0.06062824, -30.72201157, 7.36626720, -108.47705078, 98.70036316, -2.12510872, -74.77481842, -0.52605003, 0.59538895, -0.47020558, -0.38430482, -0.00306138, -0.00204948, -0.00336563, 100.31100464, 84.75119781, 33.45000076, 0.00000000
1, 18.2301, 1076, -0.03651351, -0.98511100, 0.14850315, 0.05309524, -0.39444542, -0.00952926, -30.72201157, 7.36626720, -108.47705078, 98.68860626, -2.12263298, -74.77762604, -0.52609193, 0.59533221, -0.47016972, -0.38437912, -0.00092554, -0.00295473, 0.00090732, 100.31100464, 84.75119781, 33.45000076, 0.00000000
1, 18.2401, 1077, -0.03778497, -0.98672092, 0.14546853, 0.19435209, -0.30657363, 0.00829315, -30.51739311, 7.48319197, -108.00935364, 98.69065857, -2.12225175, -74.78067780, -0.52606952, 0.59533048, -0.47019076, -0.38438672, 0.00038867, -0.00136189, 0.00380064, 100.31100464, 84.75119781, 33.45000076, 0.00000000
1, 18.2501, 1078, -0.03289356, -0.98709095, 0.15024403, 0.19148181, -0.09979748, -0.12804544, -30.60508537, 7.42472935, -108.30166626, 98.69258881, -2.12084556, -74.78147125, -0.52605134, 0.59534109, -0.47019511, -0.38438997, -0.00449960, -0.00099463, -0.00092672, 100.31100464, 84.75119781, 33.45000076, 0.00000000
1, 18.2601, 1079, -0.03018868, -0.98595107, 0.15323424, 0.06696095, -0.06901632, -0.00304402, -30.37123680, 6.63548660, -108.36013031, 98.69329071, -2.12071395, -74.78215790, -0.52604485, 0.59534192, -0.47020042, -0.38439089, -0.00720329, -0.00213610, -0.00388406, 100.31100464, 84.75119781, 33.45000076, 0.00000000
1, 18.2701, 1080, -0.03161595, -0.98576498, 0.15369822, 0.15895717, -0.29740134, 0.11302386, -30.69277954, 7.22011089, -107.48319244, 98.69500732, -2.12137723, -74.78526306, -0.52602810, 0.59533471, -0.47022527, -0.38439459, -0.00577947, -0.00232038, -0.00433550, 100.31100464, 84.75119781, 33.45000076, 0.00000000
1, 18.2801, 1081, -0.03531920, -0.98638499, 0.15260473, 0.03328380, -0.19450027, 0.13460243, -30.07892418, 6.05086231, -107.54165649, 98.71124268, -2.11480880, -74.78937531, -0.52590412, 0.59541565, -0.47027194, -0.38438183, -0.00205945, -0.00168536, -0.00316288, 100.31100464, 84.75119781, 33.45000076, 0.00000000
1, 18.2901, 1082, -0.03540892, -0.98708117, 0.15122445, 0.17626874, -0.23054457, 0.23707972, -30.07892418, 6.05086231, -107.54165649, 98.71309662, -2.11680102, -74.79200745, -0.52589345, 0.59540629, -0.47030070, -0.38437566, -0.00188907, -0.00095531, -0.00155865, 100.31100464, 84.75119781, 33.45000076, 0.00000000
1, 18.3001, 1083, -0.03656247, -0.98538983, 0.14992532, -0.00437186, -0.00503650, 0.20970213, -30.42969894, 6.63548660, -107.42472839, 98.71306610, -2.11887169, -74.79237366, -0.52590060, 0.59539735, -0.47031173, -0.38436651, -0.00077509, -0.00264165, -0.00025085, 100.31100464, 84.75119781, 33.45000076, 0.00000000
1, 18.3101, 1084, -0.03612207, -0.98566782, 0.14660771, 0.08244224, 0.18553564, 0.28324378, -30.34200478, 6.22624969, -107.83396912, 98.71385193, -2.12195444, -74.79096222, -0.52591336, 0.59539574, -0.47032070, -0.38434038, -0.00125156, -0.00235412, 0.00308374, 100.31100464, 84.75119781, 33.45000076, 0.00000000
1, 18.3201, 1085, -0.03442223, -0.98584795, 0.14602144, 0.06507886, 0.13483225, 0.21215189, -30.69277954, 7.51242304, -107.83396912, 98.71446228, -2.12424088, -74.78993988, -0.52592260, 0.59539467, -0.47032759, -0.38432097, -0.00299451, -0.00217128, 0.00367434, 100.31100464, 84.75119781, 33.45000076, 0.00000000
1, 18.3301, 1086, -0.03326411, -0.98911965, 0.14977984, 0.02920309, 0.18422653, 0.31894246, -30.66354752, 7.51242304, -107.74626923, 98.71714783, -2.11247921, -74.78996277, -0.52586234, 0.59544867, -0.47028449, -0.38437271, -0.00415160, 0.00109792, -0.00006086, 100.31100464, 84.75119781, 33.45000076, 0.00000000
1, 18.3401, 1087, -0.03499583, -0.98812914, 0.15199204, 0.03522192, -0.32008451, 0.28931928, -30.66354752, 7.51242304, -107.74626923, 98.71763611, -2.11486363, -74.79355621, -0.52585709, 0.59542763, -0.47031531, -0.38437447, -0.00227052, 0.00010280, -0.00224398, 100.31100464, 84.75119781, 33.45000076, 0.00000000
1, 18.3501, 1088, -0.03804842, -0.98509789, 0.15099907, -0.06902587, -0.51456219, 0.27628955, -30.51739311, 7.36626720, -107.65857697, 98.71715546, -2.11681962, -74.79906464, -0.52584881, 0.59539592, -0.47035107, -0.38439131, 0.00073984, -0.00292476, -0.00125108, 100.31100464, 84.75119781, 33.45000076, 0.00000000
1, 18.3601, 1089, -0.04120336, -0.98502970, 0.15180053, 0.02690112, -0.59618735, 0.29325062, -30.16661835, 7.07395506, -107.54165649, 98.71766663, -2.11883426, -74.80539703, -0.52583283, 0.59536511, -0.47039461, -0.38440755, 0.00386251, -0.00299387, -0.00206432, 100.31100464, 84.75119781, 33.45000076, 0.00000000
1, 18.3701, 1090, -0.03949389, -0.98642731, 0.15006632, 0.02177083, -0.19338356, 0.19776037, -30.48816109, 7.13241720, -108.09704590, 98.71796417, -2.12049484, -74.80760193, -0.52583045, 0.59535158, -0.47041449, -0.38440761, 0.00212529, -0.00159104, -0.00032113, 100.31100464, 84.75119781, 33.45000076, 0.00000000
1, 18.3801, 1091, -0.03736028, -0.98669589, 0.15078291, -0.05254761, 0.06746636, 0.18739779, -30.42969894, 7.24934244, -107.86319733, 98.71743774, -2.10747266, -74.80834198, -0.52577943, 0.59539235, -0.47035876, -0.38448250, 0.00002099, -0.00132380, -0.00102648, 100.31100464, 84.75119781, 33.45000076, 0.00000000
1, 18.3901, 1092, -0.03419602, -0.98526967, 0.14976804, -0.00772061, -0.69842827, 0.18609782, -30.42969894, 7.24934244, -107.86319733, 98.71764374, -2.10826421, -74.81554413, -0.52575731, 0.59536093, -0.47040033, -0.38451046, -0.00295964, -0.00275657, -0.00001022, 100.31100464, 84.75119781, 33.45000076, 0.00000000
1, 18.4001, 1093, -0.03651243, -0.98600614, 0.14660229, -0.06038349, -0.73579735, 0.27350795, -30.45892906, 6.98626137, -107.95088959, 98.71732330, -2.10986185, -74.82323456, -0.52573943, 0.59532219, -0.47044629, -0.38453853, -0.00066460, -0.00201388, 0.00314819, 100.31100464, 84.75119781, 33.45000076, 0.00000000
1, 18.4101, 1094, -0.03773162, -0.98631644, 0.14511189, 0.06199268, -0.56064475, 0.27612498, -30.34200478, 6.25548077, -107.89242554, 98.71817780, -2.11174321, -74.82919312, -0.52572238, 0.59529495, -0.47048852, -0.38455236, 0.00053182, -0.00169855, 0.00464530, 100.31100464, 84.75119781, 33.45000076, 0.00000000
1, 18.4201, 1095, -0.03813121, -0.98702919, 0.14795415, -0.01159336, -0.36857849, 0.22906144, -30.69277954, 6.95702982, -108.12627411, 98.71821594, -2.11345005, -74.83317566, -0.52571553, 0.59527272, -0.47051686, -0.38456136, 0.00089293, -0.00098915, 0.00180156, 100.31100464, 84.75119781, 33.45000076, 0.00000000
1, 18.4301, 1096, -0.03875098, -0.98589277, 0.14843430, 0.06047466, -0.43839681, 0.26153201, -30.31277466, 6.95702982, -107.71704102, 98.71277618, -2.12377763, -74.83691406, -0.52577198, 0.59519571, -0.47056386, -0.38454592, 0.00144155, -0.00212554, 0.00130952, 100.31100464, 84.75119781, 33.45000076, 0.00000000
1, 18.4401, 1097, -0.04054631, -0.98598289, 0.14761837, 0.06026530, -0.42099243, 0.26194951, -30.31277466, 6.95702982, -107.71704102, 98.71354675, -2.12573266, -74.84146881, -0.52576035, 0.59517360, -0.47059882, -0.38455325, 0.00309510, -0.00203950, 0.00205079, 100.31100464, 84.75119781, 33.45000076, 0.00000000
1, 18.4601, 1098, -0.03914348, -0.98646235, 0.15285879, 0.09179639, -0.17760919, 0.06360795, -30.54662323, 3.53697753, -107.77550507, 98.71475983, -2.12691951, -74.84391785, -0.52575058, 0.59516490, -0.47062090, -0.38455325, 0.00164843, -0.00156536, -0.00317324, 100.31100464, 84.75119781, 33.45000076, 0.00000000
1, 18.4701, 1099, -0.03797201, -0.98530531, 0.15327270, 0.12667930, -0.10892597, 0.11737925, -30.51739311, 6.48933077, -107.57088470, 98.71607208, -2.12791467, -74.84516907, -0.52574342, 0.59516227, -0.47063619, -0.38454825, 0.00046038, -0.00271851, -0.00355635, 100.31100464, 84.75119781, 33.45000076, 0.00000000
1, 18.4801, 1100, -0.03766323, -0.98578274, 0.15304960, 0.14236641, 0.04954026, 0.05085231, -30.34200478, 5.20315695, -108.36013031, 98.73219299, -2.12165356, -74.84619141, -0.52563161, 0.59525424, -0.47066787, -0.38452011, 0.00017352, -0.00222799, -0.00324486, 100.31100464, 84.75119781, 33.45000076, 0.00000000
1, 18.4901, 1101, -0.03823185, -0.98728848, 0.15101704, 0.09179638, -0.17760919, 0.06360795, -30.34200478, 5.20315695, -108.36013031, 98.73318481, -2.12201071, -74.84805298, -0.52562165, 0.59524989, -0.47068238, -0.38452262, 0.00082732, -0.00069010, -0.00100873, 100.31100464, 84.75119781, 33.45000076, 0.00000000
1, 18.5001, 1102, -0.04105595, -0.98512483, 0.15079585, 0.09085464, -0.09142121, 0.10072645, -30.89739799, 6.89856768, -107.77550507, 98.73413086, -2.12286353, -74.84910583, -0.52561647, 0.59524685, -0.47069481, -0.38451898, 0.00363899, -0.00285010, -0.00077261, 100.31100464, 84.75119781, 33.45000076, 0.00000000
1, 18.5101, 1103, -0.03947971, -0.98670530, 0.14656787, 0.01674484, 0.13628802, 0.01946690, -30.83893585, 7.01549244, -107.86319733, 98.73425293, -2.12324309, -74.84777832, -0.52562183, 0.59525150, -0.47068998, -0.38451040, 0.00206192, -0.00126176, 0.00345960, 100.31100464, 84.75119781, 33.45000076, 0.00000000
1, 18.5201, 1104, -0.03686036, -0.98656607, 0.14820212, 0.06993219, 0.15375042, 0.03673217, -30.25431061, 7.36626720, -108.24320221, 98.73489380, -2.12383938, -74.84632111, -0.52562577, 0.59525836, -0.47068721, -0.38449788, -0.00056731, -0.00140153, 0.00184536, 100.31100464, 84.75119781, 33.45000076, 0.00000000
1, 18.5301, 1105, -0.03619249, -0.98595476, 0.14957881, 0.02067082, -0.17824261, 0.06449823, -30.57585526, 4.85238218, -108.27243042, 98.73037720, -2.12394714, -74.84789276, -0.52564430, 0.59523076, -0.47068074, -0.38452309, -0.00124429, -0.00201703, 0.00045680, 100.31100464, 84.75119781, 33.45000076, 0.00000000
1, 18.5401, 1106, -0.03925353, -0.98424935, 0.14934933, 0.03908028, -0.23029748, 0.06302316, -30.63431740, 4.85238218, -107.83396912, 98.73085785, -2.12422037, -74.85028076, -0.52563494, 0.59522223, -0.47069594, -0.38453060, 0.00181569, -0.00372987, 0.00063050, 100.31100464, 84.75119781, 33.45000076, 0.00000000
1, 18.5501, 1107, -0.04063681, -0.98402250, 0.14695890, 0.04854933, -0.36774141, -0.02978431, -30.63431740, 7.19087982, -107.83396912, 98.73147583, -2.12337446, -74.85387421, -0.52561635, 0.59521329, -0.47071290, -0.38454905, 0.00320974, -0.00395273, 0.00301862, 100.31100464, 84.75119781, 33.45000076, 0.00000000
1, 18.5601, 1108, -0.04042419, -0.98546708, 0.14893423, -0.00275064, -0.01991657, -0.07876014, -30.63431740, 7.30780458, -107.48319244, 98.73143005, -2.12256241, -74.85395050, -0.52561313, 0.59521568, -0.47070959, -0.38455394, 0.00300489, -0.00251023, 0.00105221, 100.31100464, 84.75119781, 33.45000076, 0.00000000
1, 18.5701, 1109, -0.04062596, -0.98554242, 0.15066466, 0.03453881, -0.17498851, -0.13550933, -30.75124168, 7.07395506, -107.92166138, 98.73185730, -2.12095642, -74.85549164, -0.52559942, 0.59521699, -0.47071189, -0.38456783, 0.00322872, -0.00243924, -0.00068226, 100.31100464, 84.75119781, 33.45000076, 0.00000000
1, 18.5801, 1110, -0.03930303, -0.98683441, 0.15063472, 0.01539694, -0.05415000, -0.09733323, -30.72201157, 6.19701815, -107.68781281, 98.73751831, -2.13058496, -74.85546875, -0.52560806, 0.59520882, -0.47077349, -0.38449323, 0.00188037, -0.00114048, -0.00061385, 100.31100464, 84.75119781, 33.45000076, 0.00000000
1, 18.5901, 1111, -0.03953777, -0.98530912, 0.15030122, 0.06968359, -0.12412670, -0.06464000, -30.57585526, 6.81087399, -107.83396912, 98.73825073, -2.12975645, -74.85659790, -0.52559716, 0.59521055, -0.47077814, -0.38449976, 0.00199536, -0.00264994, -0.00020804, 100.31100464, 84.75119781, 33.45000076, 0.00000000
1, 18.6001, 1112, -0.04213877, -0.98354983, 0.14563680, -0.03925589, 0.05021850, -0.11167594, -30.57585526, 6.81087399, -107.83396912, 98.73782349, -2.12873769, -74.85592651, -0.52559763, 0.59521496, -0.47076875, -0.38450390, 0.00461822, -0.00440187, 0.00445292, 100.31100464, 84.75119781, 33.45000076, 0.00000000
1, 18.6301, 1113, -0.03886562, -0.98643935, 0.14836311, 0.08280379, 0.19640075, -0.35511065, -31.01432228, 3.50774622, -107.48319244, 98.73355865, -2.12324309, -74.85135651, -0.52561343, 0.59523362, -0.47070625, -0.38452965, 0.00147183, -0.00152025, 0.00174141, 100.31100464, 84.75119781, 33.45000076, 0.00000000
1, 18.6401, 1114, -0.03733524, -0.98604167, 0.15137288, 0.13892213, -0.02979864, -0.34369048, -30.48816109, 7.30780458, -108.03858185, 98.73493958, -2.11980653, -74.85113525, -0.52559352, 0.59525311, -0.47069448, -0.38454127, -0.00005798, -0.00193348, -0.00133217, 100.31100464, 84.75119781, 33.45000076, 0.00000000
1, 18.6501, 1115, -0.03784611, -0.98687363, 0.15038615, 0.26428249, -0.08298865, -0.25892362, -30.48816109, 7.30780458, -108.03858185, 98.73758698, -2.11713219, -74.85156250, -0.52556777, 0.59527302, -0.47069377, -0.38454661, 0.00050899, -0.00109529, -0.00030411, 100.31100464, 84.75119781, 33.45000076, 0.00000000
1, 18.6601, 1116, -0.03936560, -0.98586929, 0.14722188, 0.09848887, 0.17635989, -0.19367208, -30.51739311, 6.02163124, -107.57088470, 98.73848724, -2.11548018, -74.84951782, -0.52556342, 0.59529138, -0.47067881, -0.38454232, 0.00207007, -0.00209307, 0.00287454, 100.31100464, 84.75119781, 33.45000076, 0.00000000
1, 18.6701, 1117, -0.03916819, -0.98644710, 0.14854619, 0.18545909, 0.33420840, -0.20854285, -30.63431740, 7.57088566, -107.30780029, 98.74021149, -2.11392140, -74.84590149, -0.52556050, 0.59531969, -0.47065893, -0.38452697, 0.00189917, -0.00151399, 0.00157997, 100.31100464, 84.75119781, 33.45000076, 0.00000000
1, 18.6801, 1118, -0.03659071, -0.98580122, 0.14934018, 0.04168994, 0.45518956, -0.22135517, -30.31277466, 5.96316862, -107.27857208, 98.73213959, -2.10921764, -74.84069061, -0.52560133, 0.59532076, -0.47058386, -0.38456121, -0.00064210, -0.00216600, 0.00077204, 100.31100464, 84.75119781, 33.45000076, 0.00000000
1, 18.6901, 1119, -0.03439546, -0.98681974, 0.14846234, 0.20407863, 0.28048539, -0.13995606, -30.54662323, 7.36626720, -107.33703613, 98.73406219, -2.10825729, -74.83770752, -0.52559757, 0.59534526, -0.47057056, -0.38454473, -0.00276996, -0.00116128, 0.00156927, 100.31100464, 84.75119781, 33.45000076, 0.00000000
1, 18.7001, 1120, -0.03866720, -0.98568940, 0.14761798, 0.25951639, 0.10691623, -0.14479886, -30.54662323, 7.36626720, -107.33703613, 98.73661804, -2.10696554, -74.83641815, -0.52558351, 0.59536684, -0.47056675, -0.38453525, 0.00152107, -0.00228502, 0.00244329, 100.31100464, 84.75119781, 33.45000076, 0.00000000
1, 18.7101, 1121, -0.03915132, -0.98653495, 0.14596270, 0.25784224, 0.26188779, -0.07097938, -30.63431740, 5.61239386, -107.65857697, 98.73908997, -2.10665822, -74.83372498, -0.52557850, 0.59539032, -0.47055963, -0.38451433, 0.00202434, -0.00143100, 0.00413740, 100.31100464, 84.75119781, 33.45000076, 0.00000000
1, 18.7201, 1122, -0.03740988, -0.98549688, 0.15019937, 0.29424244, 0.19258681, -0.07309456, -30.66354752, 7.24934244, -107.51242065, 98.74194336, -2.10621214, -74.83170319, -0.52556872, 0.59541327, -0.47055668, -0.38449574, 0.00027740, -0.00246889, -0.00004574, 100.31100464, 84.75119781, 33.45000076, 0.00000000
1, 18.7301, 1123, -0.03740557, -0.98531342, 0.15138753, 0.23686796, 0.52321285, -0.08200968, -30.31277466, 4.56007004, -107.16164398, 98.74427032, -2.10965824, -74.82621765, -0.52558863, 0.59543425, -0.47055131, -0.38444269, 0.00025919, -0.00264667, -0.00118678, 100.31100464, 84.75119781, 33.45000076, 0.00000000
1, 18.7401, 1124, -0.03831448, -0.98613608, 0.14985558, 0.11700476, 0.15494345, -0.01915734, -30.75124168, 6.81087399, -107.24934387, 98.74539948, -2.10970640, -74.82466125, -0.52558815, 0.59544563, -0.47054723, -0.38443065, 0.00112449, -0.00181591, 0.00036603, 100.31100464, 84.75119781, 33.45000076, 0.00000000
1, 18.7501, 1125, -0.03987551, -0.98584330, 0.14840862, 0.18964764, 0.01759261, -0.07593416, -30.75124168, 6.81087399, -107.24934387, 98.74727631, -2.10898376, -74.82436371, -0.52557653, 0.59545803, -0.47054881, -0.38442546, 0.00269696, -0.00210193, 0.00184003, 100.31100464, 84.75119781, 33.45000076, 0.00000000
1, 18.7601, 1126, -0.04214242, -0.98634195, 0.14916556, 0.05688217, 0.05397054, -0.04599245, -30.04969215, 5.05700064, -107.80473328, 98.74781799, -2.10860276, -74.82376099, -0.52557421, 0.59546435, -0.47054577, -0.38442242, 0.00497220, -0.00160252, 0.00109215, 100.31100464, 84.75119781, 33.45000076, 0.00000000
1, 18.7701, 1127, -0.04210495, -0.98480928, 0.14864907, 0.07237002, 0.04188932, 0.02691295, -30.28354263, 7.45396090, -107.27857208, 98.74853516, -2.10893750, -74.82337952, -0.52557313, 0.59546798, -0.47054765, -0.38441598, 0.00493544, -0.00313227, 0.00162435, 100.31100464, 84.75119781, 33.45000076, 0.00000000
1, 18.7801, 1128, -0.04149231, -0.98620367, 0.14631107, 0.17680655, 0.20239843, -0.09327332, -30.45892906, 5.72931862, -106.84010315, 98.73835754, -2.12181592, -74.81967163, -0.52568918, 0.59539086, -0.47055146, -0.38437223, 0.00427255, -0.00173736, 0.00392662, 100.31100464, 84.75119781, 33.45000076, 0.00000000
1, 18.7901, 1129, -0.04065377, -0.98676002, 0.14827155, 0.08638159, 0.32385457, -0.10675333, -30.54662323, 7.62934828, -107.24934387, 98.73908997, -2.12124681, -74.81631470, -0.52569443, 0.59541005, -0.47053394, -0.38435686, 0.00326131, -0.00119720, 0.00184298, 100.31100464, 84.75119781, 33.45000076, 0.00000000
1, 18.8001, 1130, -0.03955329, -0.98677826, 0.14948247, 0.18287791, -0.30232966, -0.10538101, -30.54662323, 7.62934828, -107.24934387, 98.74102783, -2.11973977, -74.81912994, -0.52566898, 0.59541267, -0.47054836, -0.38436985, 0.00218226, -0.00117896, 0.00065306, 100.31100464, 84.75119781, 33.45000076, 0.00000000
1, 18.8101, 1131, -0.03876128, -0.98533332, 0.14792907, 0.21577227, -0.06043633, -0.01240368, -30.48816109, 3.42005253, -107.42472839, 98.74319458, -2.11952829, -74.81970978, -0.52565491, 0.59542096, -0.47055766, -0.38436469, 0.00140331, -0.00261532, 0.00225123, 100.31100464, 84.75119781, 33.45000076, 0.00000000
1, 18.8201, 1132, -0.03935517, -0.98775101, 0.14466360, 0.28862521, -0.19945532, 0.00088145, -30.02046204, 7.13241720, -107.71704102, 98.74615479, -2.11921859, -74.82167816, -0.52563173, 0.59542763, -0.47057652, -0.38436323, 0.00201507, -0.00018663, 0.00555150, 100.31100464, 84.75119781, 33.45000076, 0.00000000
1, 18.8301, 1133, -0.03902581, -0.98768079, 0.14934137, 0.25138757, -0.06053668, 0.00466665, -30.54662323, 5.32008171, -107.48319244, 98.75042725, -2.12208939, -74.82228851, -0.52561879, 0.59543449, -0.47060674, -0.38433325, 0.00165599, -0.00025467, 0.00093336, 100.31100464, 84.75119781, 33.45000076, 0.00000000
1, 18.8401, 1134, -0.03802630, -0.98734355, 0.14964847, 0.43333682, -0.39088827, 0.04705472, -30.66354752, 7.27857351, -107.98011780, 98.75491333, -2.12195778, -74.82623291, -0.52558172, 0.59543937, -0.47064167, -0.38433355, 0.00062681, -0.00057853, 0.00071335, 100.31100464, 84.75119781, 33.45000076, 0.00000000
1, 18.8501, 1135, -0.03974258, -0.98632002, 0.14930993, 0.16729581, -0.46162996, -0.00382311, -29.81584358, 7.33703566, -108.06781769, 98.75673676, -2.12123466, -74.83078003, -0.52555418, 0.59543163, -0.47066826, -0.38435084, 0.00234536, -0.00159375, 0.00110000, 100.31100464, 84.75119781, 33.45000076, 0.00000000
1, 18.8601, 1136, -0.04262199, -0.98674655, 0.14934136, 0.28242373, -0.44520676, -0.00051504, -29.81584358, 7.33703566, -108.06781769, 98.75972748, -2.12055516, -74.83518219, -0.52552116, 0.59542960, -0.47069812, -0.38436234, 0.00524307, -0.00116148, 0.00110285, 100.31100464, 84.75119781, 33.45000076, 0.00000000
1, 18.8801, 1137, -0.04281297, -0.98423147, 0.14832874, 0.28625736, -0.04683642, 0.01331367, -30.54662323, 5.49546909, -107.95088959, 98.75374603, -2.14368248, -74.83605957, -0.52564043, 0.59531653, -0.47078523, -0.38426778, 0.00534894, -0.00366667, 0.00215089, 100.31100464, 84.75119781, 33.45000076, 0.00000000
1, 18.8901, 1138, -0.03927883, -0.98619533, 0.14569648, 0.25043130, -0.06080418, -0.14429797, -31.10201645, 7.42472935, -107.45395660, 98.75624847, -2.14215708, -74.83643341, -0.52562010, 0.59533185, -0.47078878, -0.38426730, 0.00152371, -0.00170139, 0.00469689, 100.31100464, 84.75119781, 33.45000076, 0.00000000
1, 18.9001, 1139, -0.03898325, -0.98705971, 0.14759189, 0.28704163, -0.13177329, -0.07635124, -30.42969894, 6.81087399, -107.10318756, 98.75917053, -2.14119792, -74.83763123, -0.52559721, 0.59534377, -0.47080055, -0.38426593, 0.00124368, -0.00083297, 0.00285229, 100.31100464, 84.75119781, 33.45000076, 0.00000000
1, 18.9101, 1140, -0.04036628, -0.98664296, 0.15103686, 0.29148990, -0.51341945, -0.13808283, -30.42969894, 6.81087399, -107.10318756, 98.76226807, -2.13904858, -74.84250641, -0.52555627, 0.59534556, -0.47082675, -0.38428700, 0.00264839, -0.00124946, -0.00054919, 100.31100464, 84.75119781, 33.45000076, 0.00000000
1, 18.9201, 1141, -0.04122904, -0.98591113, 0.15056823, 0.21884701, -0.37606850, -0.08130604, -30.60508537, 6.92779875, -107.86319733, 98.76457977, -2.13766932, -74.84609985, -0.52552676, 0.59534633, -0.47084707, -0.38430133, 0.00354091, -0.00197371, -0.00003093, 100.31100464, 84.75119781, 33.45000076, 0.00000000
1, 18.9301, 1142, -0.04111211, -0.98500049, 0.15189193, 0.34221676, -0.30325729, -0.16877143, -29.81584358, 5.49546909, -107.60011292, 98.77368164, -2.15065074, -74.84887695, -0.52552134, 0.59533054, -0.47094959, -0.38420758, 0.00338769, -0.00287409, -0.00128005, 100.31100464, 84.75119781, 33.45000076, 0.00000000
1, 18.9401, 1143, -0.04201852, -0.98534513, 0.15191846, 0.34137934, -0.23363957, -0.16710144, -30.51739311, 7.57088566, -107.89242554, 98.77716064, -2.14862251, -74.85095215, -0.52548832, 0.59534526, -0.47096303, -0.38421351, 0.00413051, -0.00250282, -0.00117676, 100.31100464, 84.75119781, 33.45000076, 0.00000000
1, 18.9501, 1144, -0.04098941, -0.98572266, 0.15041931, 0.35753912, -0.07892668, -0.07598906, -29.87430573, 6.98626137, -107.45395660, 98.78075409, -2.14775276, -74.85160828, -0.52546400, 0.59536207, -0.47097462, -0.38420641, 0.00313158, -0.00211437, 0.00038626, 100.31100464, 84.75119781, 33.45000076, 0.00000000
1, 18.9601, 1145, -0.03618532, -0.98693240, 0.14855713, 0.28715235, 0.00259723, -0.10231437, -29.87430573, 6.98626137, -107.45395660, 98.78360748, -2.14673781, -74.85142517, -0.52544582, 0.59537947, -0.47097877, -0.38419932, -0.00165344, -0.00089298, 0.00231766, 100.31100464, 84.75119781, 33.45000076, 0.00000000
1, 18.9701, 1146, -0.03881425, -0.98619902, 0.14727427, 0.22295406, -0.13529550, -0.15722524, -30.80970383, 7.57088566, -107.48319244, 98.78586578, -2.14497089, -74.85252380, -0.52542341, 0.59539163, -0.47098422, -0.38420445, 0.00100557, -0.00161882, 0.00363614, 100.31100464, 84.75119781, 33.45000076, 0.00000000
1, 18.9801, 1147, -0.04194128, -0.98635030, 0.14712973, 0.18686824, -0.08423300, -0.12049657, -30.25431061, 6.66471767, -107.68781281, 98.77959442, -2.15839314, -74.85173035, -0.52551156, 0.59531850, -0.47101855, -0.38415506, 0.00409228, -0.00146687, 0.00376596, 100.31100464, 84.75119781, 33.45000076, 0.00000000
1, 18.9901, 1148, -0.03895337, -0.98775709, 0.15122275, 0.16694075, 0.09006984, -0.13361441, -30.63431740, 7.98012257, -107.68781281, 98.78120422, -2.15720558, -74.85062408, -0.52550220, 0.59533465, -0.47101298, -0.38414973, 0.00092228, -0.00007129, -0.00039320, 100.31100464, 84.75119781, 33.45000076, 0.00000000
1, 19.0001, 1149, -0.03902754, -0.98609364, 0.15274422, 0.29481274, -0.18770944, -0.12433708, -30.34200478, 7.54165459, -107.57088470, 98.78422546, -2.15567803, -74.85229492, -0.52547491, 0.59534705, -0.47102499, -0.38415313, 0.00101994, -0.00173173, -0.00187010, 100.31100464, 84.75119781, 33.45000076, 0.00000000
1, 19.0101, 1150, -0.04187760, -0.98412073, 0.15285343, 0.22206411, -0.06526078, -0.17307071, -30.34200478, 7.54165459, -107.57088470, 98.78645325, -2.15386009, -74.85268402, -0.52545482, 0.59536207, -0.47102639, -0.38415539, 0.00390024, -0.00369960, -0.00194174, 100.31100464, 84.75119781, 33.45000076, 0.00000000
1, 19.0201, 1151, -0.04315860, -0.98414004, 0.15185496, 0.25935358, -0.22033273, -0.22981992, -30.83893585, 7.77550411, -108.12627411, 98.78910828, -2.15124893, -74.85450745, -0.52542466, 0.59537601, -0.47103322, -0.38416678, 0.00522145, -0.00367348, -0.00090392, 100.31100464, 84.75119781, 33.45000076, 0.00000000
1, 19.0301, 1152, -0.04195468, -0.98642027, 0.14995308, 0.23790805, 0.07621806, -0.25753063, -29.58199310, 6.95702982, -107.65857697, 98.79078674, -2.15628624, -74.85305786, -0.52544069, 0.59537184, -0.47105366, -0.38412642, 0.00403424, -0.00138439, 0.00103718, 100.31100464, 84.75119781, 33.45000076, 0.00000000
1, 19.0401, 1153, -0.03856076, -0.98716938, 0.15220504, 0.30929551, 0.05902999, -0.24132298, -30.66354752, 7.13241720, -107.24934387, 98.79383087, -2.15397763, -74.85211182, -0.52541894, 0.59539789, -0.47104868, -0.38412184, 0.00057809, -0.00063064, -0.00116736, 100.31100464, 84.75119781, 33.45000076, 0.00000000
1, 19.0501, 1154, -0.03878926, -0.98569834, 0.15284237, 0.24078654, -0.16702668, -0.28089127, -30.83893585, 6.86933661, -107.45395660, 98.79628754, -2.15095329, -74.85334778, -0.52539009, 0.59541476, -0.47104993, -0.38413352, 0.00085395, -0.00209752, -0.00175715, 100.31100464, 84.75119781, 33.45000076, 0.00000000
1, 19.0601, 1155, -0.04271917, -0.98652148, 0.14879943, 0.20454390, -0.09897684, -0.22622964, -30.83893585, 6.86933661, -107.45395660, 98.79835510, -2.14855576, -74.85397339, -0.52536780, 0.59543020, -0.47104949, -0.38414067, 0.00483897, -0.00126301, 0.00231640, 100.31100464, 84.75119781, 33.45000076, 0.00000000
1, 19.0701, 1156, -0.04080411, -0.98850167, 0.14981695, 0.09274630, 0.14680524, -0.18882480, -30.60508537, 6.86933661, -107.62934875, 98.79920959, -2.14691019, -74.85223389, -0.52536273, 0.59544712, -0.47103605, -0.38413796, 0.00295512, 0.00071745, 0.00132084, 100.31100464, 84.75119781, 33.45000076, 0.00000000
1, 19.0801, 1157, -0.03795655, -0.98779225, 0.15553175, 0.09415998, 0.04112762, -0.13878338, -30.51739311, 7.27857351, -108.00935364, 98.83918762, -2.14551234, -74.85643005, -0.52513540, 0.59561813, -0.47118562, -0.38400024, 0.00011709, 0.00002640, -0.00420120, 100.31100464, 84.75119781, 33.45000076, 0.00000000
1, 19.1001, 1158, -0.04495363, -0.98527563, 0.15399487, 0.00755595, -0.15111269, -0.14226307, -30.45892906, 6.10932446, -107.30780029, 98.84017944, -2.14214301, -74.85948944, -0.52510667, 0.59562194, -0.47118989, -0.38402814, 0.00717736, -0.00240822, -0.00215131, 100.31100464, 84.75119781, 33.45000076, 0.00000000
1, 19.1101, 1159, -0.04475797, -0.98650706, 0.15348388, -0.05207033, 0.33907220, -0.27002901, -30.45892906, 6.10932446, -107.30780029, 98.83950043, -2.13999200, -74.85572815, -0.52511424, 0.59564191, -0.47115856, -0.38402513, 0.00701829, -0.00117789, -0.00164434, 100.31100464, 84.75119781, 33.45000076, 0.00000000
1, 19.1201, 1160, -0.03975582, -0.98501170, 0.15538013, -0.10546633, 0.35475051, -0.21639727, -30.80970383, 7.33703566, -107.48319244, 98.83827972, -2.13839555, -74.85189056, -0.52512723, 0.59565783, -0.47112745, -0.38402107, 0.00204156, -0.00268045, -0.00354518, 100.31100464, 84.75119781, 33.45000076, 0.00000000
1, 19.1301, 1161, -0.03716424, -0.98583138, 0.15523386, -0.10646130, 0.42561927, -0.26727372, -30.89739799, 6.89856768, -107.51242065, 98.84472656, -2.13399410, -74.84834290, -0.52508819, 0.59571755, -0.47111112, -0.38400176, -0.00050734, -0.00186045, -0.00338396, 100.31100464, 84.75119781, 33.45000076, 0.00000000
1, 19.1401, 1162, -0.03927480, -0.98706532, 0.15506452, -0.10865919, 0.61623383, -0.22765015, -30.75124168, 7.51242304, -107.57088470, 98.84340668, -2.13269019, -74.84190369, -0.52511156, 0.59574258, -0.47106740, -0.38398466, 0.00166381, -0.00061666, -0.00314509, 100.31100464, 84.75119781, 33.45000076, 0.00000000
1, 19.1501, 1163, -0.04215849, -0.98599875, 0.15248306, -0.14338455, 0.54629940, -0.22887503, -30.92663002, 7.24934244, -107.10318756, 98.84174347, -2.13126183, -74.83615112, -0.52513385, 0.59576368, -0.47102562, -0.38397276, 0.00457575, -0.00168316, -0.00059072, 100.31100464, 84.75119781, 33.45000076, 0.00000000
1, 19.1601, 1164, -0.04182927, -0.98577440, 0.15215231, -0.10850236, 0.59924644, -0.24558315, -30.92663002, 7.27857351, -107.57088470, 98.84043121, -2.12974644, -74.82984924, -0.52515578, 0.59578890, -0.47098172, -0.38395733, 0.00427427, -0.00191187, -0.00028368, 100.31100464, 84.75119781, 33.45000076, 0.00000000
1, 19.1701, 1165, -0.04106689, -0.98788691, 0.15311028, -0.19108483, 0.84482610, -0.24620926, -30.92663002, 7.27857351, -107.57088470, 98.83818817, -2.12860990, -74.82111359, -0.52519226, 0.59581858, -0.47092372, -0.38393256, 0.00353170, 0.00019281, -0.00127827, 100.31100464, 84.75119781, 33.45000076, 0.00000000
1, 19.1801, 1166, -0.03692060, -0.98626280, 0.15434371, -0.28464305, 0.51303595, -0.20870073, -31.51125336, 7.60011673, -107.33703613, 98.83786774, -2.12783575, -74.81600952, -0.52520800, 0.59584081, -0.47089267, -0.38391462, -0.00060063, -0.00143930, -0.00253246, 100.31100464, 84.75119781, 33.45000076, 0.00000000
1, 19.2301, 1167, -0.03813470, -0.98673773, 0.15336636, -0.39033717, 0.42548081, -0.22696824, -31.04355431, 5.96316862, -107.60011292, 98.82878876, -2.12210298, -74.80406952, -0.52527261, 0.59586859, -0.47077477, -0.38392776, 0.00071799, -0.00100033, -0.00177614, 100.31100464, 84.75119781, 33.45000076, 0.00000000
1, 19.2401, 1168, -0.03633682, -0.98680174, 0.15427035, -0.40440121, 0.14393258, -0.11081747, -30.92663002, 7.27857351, -107.36626434, 98.82467651, -2.12122798, -74.80248260, -0.52529585, 0.59585941, -0.47074887, -0.38394201, -0.00106730, -0.00093350, -0.00264469, 100.31100464, 84.75119781, 33.45000076, 0.00000000
1, 19.2501, 1169, -0.03650992, -0.98652506, 0.15652402, -0.43765968, -0.01636019, 0.02599405, -31.18971062, 7.60011673, -108.27243042, 98.82030487, -2.12147427, -74.80268097, -0.52531886, 0.59583765, -0.47073632, -0.38395956, -0.00089854, -0.00122530, -0.00497139, 100.31100464, 84.75119781, 33.45000076, 0.00000000
1, 19.2601, 1170, -0.04201853, -0.98598731, 0.15576313, -0.44017270, 0.17675658, -0.03947533, -31.10201645, 7.10318613, -107.57088470, 98.81582642, -2.12136173, -74.80088043, -0.52534771, 0.59582496, -0.47071147, -0.38397026, 0.00461293, -0.00177382, -0.00430033, 100.31100464, 84.75119781, 33.45000076, 0.00000000
1, 19.2701, 1171, -0.04154399, -0.98668253, 0.15213339, -0.49886593, 0.70748103, 0.05032467, -31.10201645, 7.10318613, -107.57088470, 98.81059265, -2.12294412, -74.79394531, -0.52540439, 0.59582376, -0.47066486, -0.38395154, 0.00413352, -0.00108546, -0.00075728, 100.31100464, 84.75119781, 33.45000076, 0.00000000
1, 19.2801, 1172, -0.03404999, -0.98516810, 0.15432553, -0.53386199, 0.78209573, 0.28668618, -30.54662323, 7.36626720, -107.80473328, 98.80890656, -2.12072754, -74.78751373, -0.52542603, 0.59585035, -0.47061598, -0.38394085, -0.00339989, -0.00261381, -0.00300314, 100.31100464, 84.75119781, 33.45000076, 0.00000000
1, 19.2901, 1173, -0.03464568, -0.98714733, 0.15176734, -0.53375763, 0.76552540, 0.25123772, -31.16047859, 6.40163708, -107.62934875, 98.80330658, -2.12437868, -74.78032684, -0.52549362, 0.59584129, -0.47057605, -0.38391140, -0.00278106, -0.00063822, -0.00049560, 100.31100464, 84.75119781, 33.45000076, 0.00000000
1, 19.3001, 1174, -0.03620532, -0.98680282, 0.15068586, -0.69064838, 0.53450644, 0.38793722, -31.01432228, 7.30780458, -107.33703613, 98.79624176, -2.12904382, -74.77563477, -0.52556443, 0.59581155, -0.47054863, -0.38389403, -0.00129328, -0.00099577, 0.00046910, 100.31100464, 84.75119781, 33.45000076, 0.00000000
1, 19.3501, 1175, -0.04058580, -0.98367596, 0.15140007, -0.47256011, 0.16841169, 0.48159158, -30.75124168, 6.10932446, -107.71704102, 98.77130890, -2.16049719, -74.77569580, -0.52581763, 0.59558535, -0.47060502, -0.38382912, 0.00253963, -0.00417220, -0.00069811, 100.31100464, 84.75119781, 33.45000076, 0.00000000
1, 19.3601, 1176, -0.03986765, -0.98619163, 0.14897878, -0.43563756, 0.03199525, 0.37271342, -31.04355431, 6.40163708, -107.71704102, 98.76696777, -2.16424251, -74.77593994, -0.52585417, 0.59555113, -0.47060835, -0.38382813, 0.00175294, -0.00166223, 0.00163946, 100.31100464, 84.75119781, 33.45000076, 0.00000000
1, 19.3701, 1177, -0.03869792, -0.98835170, 0.15203020, -0.39153460, -0.03994574, 0.38139096, -31.04355431, 6.40163708, -107.71704102, 98.76309967, -2.16796255, -74.77691650, -0.52588564, 0.59551620, -0.47061700, -0.38382867, 0.00051341, 0.00048429, -0.00148382, 100.31100464, 84.75119781, 33.45000076, 0.00000000
1, 19.3801, 1178, -0.03952697, -0.98598564, 0.15062189, -0.24238685, -0.18515861, 0.37384009, -31.10201645, 5.02776957, -107.45395660, 98.75776672, -2.17429161, -74.77877045, -0.52593207, 0.59546167, -0.47063684, -0.38382536, 0.00126749, -0.00188606, -0.00013482, 100.31100464, 84.75119781, 33.45000076, 0.00000000
1, 19.3901, 1179, -0.04421187, -0.98559844, 0.15015903, -0.27747911, -0.23643744, 0.32048625, -30.83893585, 7.13241720, -107.89242554, 98.75508881, -2.17711115, -74.78160095, -0.52594757, 0.59542775, -0.47065508, -0.38383430, 0.00586382, -0.00228127, 0.00023738, 100.31100464, 84.75119781, 33.45000076, 0.00000000
1, 19.4001, 1180, -0.04470959, -0.98740375, 0.14921373, -0.28234759, 0.14854492, 0.24209398, -30.78047371, 6.57702398, -107.60011292, 98.75224304, -2.17973542, -74.78048706, -0.52597648, 0.59540993, -0.47065145, -0.38382700, 0.00631861, -0.00048018, 0.00112890, 100.31100464, 84.75119781, 33.45000076, 0.00000000
1, 19.4101, 1181, -0.04163565, -0.98586667, 0.14859621, -0.37308621, 0.30397594, 0.26447994, -30.63431740, 7.33703566, -107.42472839, 98.74840546, -2.18282533, -74.77787018, -0.52601731, 0.59539211, -0.47063869, -0.38381422, 0.00319662, -0.00202428, 0.00169266, 100.31100464, 84.75119781, 33.45000076, 0.00000000
1, 19.4201, 1182, -0.03838461, -0.98757350, 0.15019183, -0.35143131, -0.00997930, 0.29177317, -30.63431740, 7.33703566, -107.42472839, 98.74493408, -2.18569565, -74.77841949, -0.52604485, 0.59536374, -0.47064269, -0.38381577, -0.00011155, -0.00032784, 0.00003851, 100.31100464, 84.75119781, 33.45000076, 0.00000000
1, 19.4301, 1183, -0.03943380, -0.98619425, 0.15049596, -0.42187628, -0.06324299, 0.30892646, -30.51739311, 7.27857351, -107.33703613, 98.74205017, -2.19466853, -74.77924347, -0.52609235, 0.59531522, -0.47067708, -0.38378358, 0.00085872, -0.00171339, -0.00032323, 100.31100464, 84.75119781, 33.45000076, 0.00000000
1, 19.4401, 1184, -0.03995288, -0.98408055, 0.14959796, -0.32846710, -0.41304183, 0.40455636, -31.21894073, 6.95702982, -107.77550507, 98.73895264, -2.19805765, -74.78393555, -0.52610606, 0.59526968, -0.47070611, -0.38379979, 0.00124932, -0.00382725, 0.00053338, 100.31100464, 84.75119781, 33.45000076, 0.00000000
1, 19.4501, 1185, -0.03558926, -0.98665977, 0.15253943, -0.54550731, -0.10249654, 0.44977337, -30.98509216, 6.16778708, -107.68781281, 98.73358154, -2.20235705, -74.78562927, -0.52614516, 0.59522277, -0.47071597, -0.38380668, -0.00319774, -0.00126204, -0.00248084, 100.31100464, 84.75119781, 33.45000076, 0.00000000
1, 19.4601, 1186, -0.04082363, -0.98846042, 0.15182246, -0.45183754, -0.50158936, 0.42154235, -31.36509705, 7.54165459, -107.39550018, 98.72929382, -2.20578861, -74.79122925, -0.52616215, 0.59516788, -0.47074592, -0.38383171, 0.00197575, 0.00052957, -0.00186168, 100.31100464, 84.75119781, 33.45000076, 0.00000000
1, 19.4701, 1187, -0.04624811, -0.98722208, 0.14612435, -0.50172704, -0.78136915, 0.45056096, -29.93276787, 7.33703566, -107.45395660, 98.72461700, -2.20907092, -74.79963684, -0.52617121, 0.59510022, -0.47078854, -0.38387209, 0.00735559, -0.00070930, 0.00374501, 100.31100464, 84.75119781, 33.45000076, 0.00000000
1, 19.4801, 1188, -0.04530652, -0.98574769, 0.14958259, -0.12478704, -0.50465310, 0.30283761, -29.93276787, 7.33703566, -107.45395660, 98.73350525, -2.22807121, -74.80509949, -0.52618152, 0.59505117, -0.47093093, -0.38375938, 0.00628535, -0.00218483, 0.00029048, 100.31100464, 84.75119781, 33.45000076, 0.00000000
1, 19.5301, 1189, -0.04318153, -0.98609591, 0.14859676, -0.11302730, -0.06312875, 0.05032045, -30.86816597, 6.10932446, -107.57088470, 98.72647858, -2.26719427, -74.81649780, -0.52633369, 0.59483290, -0.47114003, -0.38363218, 0.00372029, -0.00181227, 0.00131610, 100.31100464, 84.75119781, 33.45000076, 0.00000000
1, 19.5401, 1190, -0.04425671, -0.98594153, 0.14681135, 0.01369287, -0.25305191, 0.02665435, -30.89739799, 7.22011089, -107.74626923, 98.72672272, -2.26708293, -74.81904602, -0.52632350, 0.59482396, -0.47115359, -0.38364351, 0.00432762, -0.00195044, 0.00306291, 100.31100464, 84.75119781, 33.45000076, 0.00000000
1, 19.5501, 1191, -0.04387450, -0.98761976, 0.14601752, -0.04624712, 0.27110776, -0.06524555, -30.54662323, 6.54779291, -107.71704102, 98.72614288, -2.26684713, -74.81626129, -0.52633488, 0.59483355, -0.47113618, -0.38363439, 0.00395249, -0.00027192, 0.00385017, 100.31100464, 84.75119781, 33.45000076, 0.00000000
1, 19.5601, 1192, -0.04160745, -0.98727536, 0.15026911, 0.02440722, 0.30696702, -0.08281632, -30.25431061, 7.68781042, -107.42472839, 98.72625732, -2.26648664, -74.81310272, -0.52634346, 0.59484839, -0.47111857, -0.38362131, 0.00167983, -0.00062396, -0.00039863, 100.31100464, 84.75119781, 33.45000076, 0.00000000
1, 19.5701, 1193, -0.04140359, -0.98562849, 0.15257902, -0.02862257, 0.28825355, -0.04753515, -30.25431061, 6.34317446, -107.51242065, 98.72585297, -2.26644397, -74.81017303, -0.52635515, 0.59485871, -0.47110182, -0.38360971, 0.00147200, -0.00227476, -0.00270575, 100.31100464, 84.75119781, 33.45000076, 0.00000000
1, 19.5801, 1194, -0.04207312, -0.98591685, 0.15166433, 0.12207486, -0.09787200, -0.09685827, -30.25431061, 6.34317446, -107.51242065, 98.73844147, -2.28304219, -74.81150055, -0.52635068, 0.59485209, -0.47122446, -0.38347563, 0.00208009, -0.00197334, -0.00173487, 100.31100464, 84.75119781, 33.45000076, 0.00000000
1, 19.5901, 1195, -0.04412790, -0.98635399, 0.15248252, 0.14456850, 0.10430928, -0.12258536, -30.57585526, 7.24934244, -107.65857697, 98.73983002, -2.28197408, -74.81026459, -0.52634341, 0.59486735, -0.47121799, -0.38346997, 0.00391937, -0.00150343, -0.00239267, 100.31100464, 84.75119781, 33.45000076, 0.00000000
1, 19.6001, 1196, -0.04300669, -0.98696446, 0.15061399, 0.19555654, 0.28091365, -0.20665537, -30.51739311, 6.69394922, -108.00935364, 98.74166107, -2.28035927, -74.80718994, -0.52633786, 0.59489411, -0.47120091, -0.38345689, 0.00282799, -0.00088633, -0.00049280, 100.31100464, 84.75119781, 33.45000076, 0.00000000
1, 19.6101, 1197, -0.03882950, -0.98779428, 0.15155570, 0.08871204, 0.31268725, -0.11690757, -30.37123680, 7.77550411, -107.54165649, 98.74240875, -2.27967930, -74.80391693, -0.52634221, 0.59491342, -0.47118345, -0.38344240, -0.00133187, -0.00005528, -0.00140229, 100.31100464, 84.75119781, 33.45000076, 0.00000000
1, 19.6201, 1198, -0.03586169, -0.98678124, 0.15241644, 0.01884332, 0.22336365, -0.04804286, -30.34200478, 6.02163124, -107.45395660, 98.74250031, -2.27953362, -74.80162811, -0.52634883, 0.59492379, -0.47117126, -0.38343233, -0.00429723, -0.00106873, -0.00224585, 100.31100464, 84.75119781, 33.45000076, 0.00000000
1, 19.6301, 1199, -0.03844959, -0.98475981, 0.15067299, 0.05749466, -0.02123260, -0.00178667, -30.34200478, 6.02163124, -107.45395660, 98.75436401, -2.27817702, -74.80376434, -0.52627474, 0.59497428, -0.47121599, -0.38340056, -0.00169742, -0.00308048, -0.00045922, 100.31100464, 84.75119781, 33.45000076, 0.00000000
1, 19.6401, 1200, -0.04100091, -0.98567545, 0.14850678, -0.03685489, 0.44622678, 0.08066088, -30.69277954, 7.30780458, -108.09704590, 98.75382233, -2.27963853, -74.79946136, -0.52629769, 0.59498429, -0.47119829, -0.38337523, 0.00086078, -0.00213778, 0.00185258, 100.31100464, 84.75119781, 33.45000076, 0.00000000
1, 19.6501, 1201, -0.03965538, -0.98514378, 0.14602228, 0.03442822, 0.44560906, 0.13231702, -30.66354752, 6.08009338, -107.60011292, 98.75399780, -2.28162384, -74.79525757, -0.52631873, 0.59499538, -0.47118586, -0.38334465, -0.00050942, -0.00266496, 0.00433540, 100.31100464, 84.75119781, 33.45000076, 0.00000000
1, 19.6601, 1202, -0.03878930, -0.98531461, 0.14838514, 0.03997653, -0.00773990, 0.15649280, -30.80970383, 6.84010506, -107.65857697, 98.75441742, -2.28315854, -74.79557800, -0.52632147, 0.59499055, -0.47119576, -0.38333619, -0.00140946, -0.00249606, 0.00197994, 100.31100464, 84.75119781, 33.45000076, 0.00000000
1, 19.6701, 1203, -0.04198668, -0.98456502, 0.14865351, 0.03997793, 0.02373264, 0.29745167, -30.42969894, 4.18006420, -107.42472839, 98.75484467, -2.28613877, -74.79578400, -0.52633029, 0.59498101, -0.47121143, -0.38331950, 0.00174079, -0.00324282, 0.00171383, 100.31100464, 84.75119781, 33.45000076, 0.00000000
1, 19.6801, 1204, -0.04515144, -0.98508859, 0.14634523, -0.07569791, 0.03232258, 0.20355701, -30.42969894, 4.18006420, -107.42472839, 98.73039246, -2.31473279, -74.78978729, -0.52658969, 0.59479165, -0.47122526, -0.38324010, 0.00475405, -0.00272622, 0.00390237, 100.31100464, 84.75119781, 33.45000076, 0.00000000
1, 19.6901, 1205, -0.04621643, -0.98494732, 0.14632115, -0.09953512, -0.18622132, 0.17318380, -30.78047371, 6.95702982, -107.48319244, 98.72946930, -2.31617832, -74.79187775, -0.52659315, 0.59477371, -0.47123945, -0.38324577, 0.00544350, -0.00290122, 0.00360476, 100.31100464, 84.75119781, 33.45000076, 0.00000000
1, 19.7001, 1206, -0.04107712, -0.98518145, 0.14693742, -0.08374297, -0.02858915, 0.14168781, -29.66968727, 5.20315695, -107.36626434, 98.72866058, -2.31754541, -74.79238892, -0.52660102, 0.59476304, -0.47124547, -0.38324416, 0.00027940, -0.00267054, 0.00297818, 100.31100464, 84.75119781, 33.45000076, 0.00000000
1, 19.7101, 1207, -0.04139933, -0.98645043, 0.15140857, -0.04561538, -0.23754250, 0.15374805, -30.22508049, 7.04472351, -106.98625946, 98.72832489, -2.31871080, -74.79496765, -0.52659875, 0.59474671, -0.47126290, -0.38325125, 0.00056540, -0.00140868, -0.00150021, 100.31100464, 84.75119781, 33.45000076, 0.00000000
1, 19.7201, 1208, -0.04873430, -0.98786783, 0.14536043, 0.06437017, -0.51464599, 0.12821700, -30.31277466, 5.84624386, -107.60011292, 98.72918701, -2.31919646, -74.80024719, -0.52657849, 0.59472722, -0.47129530, -0.38326931, 0.00790521, 0.00002022, 0.00453498, 100.31100464, 84.75119781, 33.45000076, 0.00000000
1, 19.7301, 1209, -0.04802058, -0.98650527, 0.14587104, 0.02592819, -0.28745422, 0.08154329, -30.31277466, 5.84624386, -107.60011292, 98.72572327, -2.33766603, -74.80143738, -0.52666509, 0.59464073, -0.47137183, -0.38319063, 0.00710256, -0.00134148, 0.00401534, 100.31100464, 84.75119781, 33.45000076, 0.00000000
1, 19.7401, 1210, -0.04420350, -0.98652339, 0.14947248, 0.11483515, -0.28666252, 0.08043040, -30.37123680, 7.57088566, -107.65857697, 98.72699738, -2.33803606, -74.80439758, -0.52665001, 0.59463304, -0.47139302, -0.38319701, 0.00303541, -0.00132355, 0.00039613, 100.31100464, 84.75119781, 33.45000076, 0.00000000
1, 19.7501, 1211, -0.04377053, -0.98655117, 0.15077655, 0.02582317, -0.28662011, 0.04651232, -30.04969215, 4.09237051, -107.48319244, 98.72736359, -2.33805633, -74.80728912, -0.52663851, 0.59462279, -0.47140941, -0.38320869, 0.00259642, -0.00129682, -0.00090009, 100.31100464, 84.75119781, 33.45000076, 0.00000000
1, 19.7601, 1212, -0.04495998, -0.98477983, 0.14868943, 0.09485447, -0.12767887, -0.02068238, -30.69277954, 7.45396090, -107.45395660, 98.72837830, -2.33765316, -74.80852509, -0.52662754, 0.59462374, -0.47141737, -0.38321233, 0.00379381, -0.00306205, 0.00120504, 100.31100464, 84.75119781, 33.45000076, 0.00000000
1, 19.7701, 1213, -0.04632700, -0.98695719, 0.14889380, 0.11321140, -0.17931671, -0.03967296, -30.22508049, 7.10318613, -107.48319244, 98.72957611, -2.33698988, -74.81024170, -0.52661300, 0.59462464, -0.47142738, -0.38321882, 0.00517184, -0.00088323, 0.00100827, 100.31100464, 84.75119781, 33.45000076, 0.00000000
1, 19.7801, 1214, -0.04632510, -0.98638022, 0.14523008, -0.03480383, -0.07938945, -0.07264992, -30.25431061, 7.48319197, -107.68781281, 98.71199036, -2.35569334, -74.80654907, -0.52679002, 0.59449232, -0.47143227, -0.38317454, 0.00510415, -0.00146128, 0.00460644, 100.31100464, 84.75119781, 33.45000076, 0.00000000
1, 19.7901, 1215, -0.04362892, -0.98540556, 0.14630355, 0.18230808, -0.01991291, -0.08056828, -30.25431061, 7.48319197, -107.68781281, 98.71381378, -2.35486102, -74.80661774, -0.52677709, 0.59450340, -0.47143507, -0.38317180, 0.00216970, -0.00246017, 0.00333085, 100.31100464, 84.75119781, 33.45000076, 0.00000000
1, 19.8001, 1216, -0.04189974, -0.98517907, 0.14648457, 0.19977507, -0.00151609, -0.11540432, -29.64045525, 4.61853266, -107.51242065, 98.71580505, -2.35370541, -74.80646515, -0.52676272, 0.59451735, -0.47143582, -0.38316903, 0.00045433, -0.00268247, 0.00318824, 100.31100464, 84.75119781, 33.45000076, 0.00000000
1, 19.8301, 1217, -0.04560732, -0.98616493, 0.14911973, 0.42810652, 0.22763388, -0.14790118, -30.72201157, 6.63548660, -107.27857208, 98.72565460, -2.36377501, -74.80110168, -0.52676910, 0.59454882, -0.47148553, -0.38305017, 0.00413265, -0.00167822, 0.00068418, 100.31100464, 84.75119781, 33.45000076, 0.00000000
1, 19.8401, 1218, -0.04618159, -0.98569369, 0.15071036, 0.42664176, 0.36520109, -0.07449922, -30.72201157, 6.63548660, -107.27857208, 98.72976685, -2.36357999, -74.79736328, -0.52675951, 0.59458381, -0.47147900, -0.38301712, 0.00456145, -0.00213382, -0.00082719, 100.31100464, 84.75119781, 33.45000076, 0.00000000
1, 19.8501, 1219, -0.04337233, -0.98589015, 0.14756878, 0.42815977, 0.24295314, -0.05990629, -29.99123001, 5.40777540, -107.54165649, 98.73394012, -2.36334372, -74.79487610, -0.52674526, 0.59461415, -0.47147906, -0.38298976, 0.00176090, -0.00192037, 0.00239894, 100.31100464, 84.75119781, 33.45000076, 0.00000000
1, 19.8601, 1220, -0.04247328, -0.98701942, 0.14815091, 0.44531307, 0.29532468, -0.05887634, -30.95586014, 7.19087982, -107.54165649, 98.73826599, -2.36319399, -74.79187012, -0.52673227, 0.59464687, -0.47147715, -0.38295892, 0.00086626, -0.00078156, 0.00188673, 100.31100464, 84.75119781, 33.45000076, 0.00000000
1, 19.8701, 1221, -0.04253425, -0.98561120, 0.15139854, 0.33433324, 0.65903330, -0.01374225, -30.75124168, 5.52470016, -107.74626923, 98.74134827, -2.36403441, -74.78533173, -0.52674145, 0.59468496, -0.47145730, -0.38291177, 0.00091073, -0.00218429, -0.00129119, 100.31100464, 84.75119781, 33.45000076, 0.00000000
1, 19.8801, 1222, -0.04082071, -0.98491824, 0.14991833, 0.37157226, 0.55158710, 0.12343144, -31.04355431, 7.39549828, -107.89242554, 98.73814392, -2.36200786, -74.77883148, -0.52677178, 0.59470415, -0.47140384, -0.38290581, -0.00081305, -0.00287039, 0.00022001, 100.31100464, 84.75119781, 33.45000076, 0.00000000
1, 19.8901, 1223, -0.03907311, -0.98643374, 0.14927511, 0.26382017, -0.01486349, 0.07953591, -31.04355431, 7.39549828, -107.89242554, 98.74079895, -2.36277509, -74.77909088, -0.52676016, 0.59471256, -0.47141749, -0.38289201, -0.00252314, -0.00136119, 0.00082769, 100.31100464, 84.75119781, 33.45000076, 0.00000000
1, 19.9001, 1224, -0.04461271, -0.98647845, 0.15239054, 0.31276855, 0.36684048, 0.15811525, -31.01432228, 5.58316278, -107.74626923, 98.74378204, -2.36487913, -74.77570343, -0.52676427, 0.59473270, -0.47141916, -0.38285294, 0.00298357, -0.00131178, -0.00224527, 100.31100464, 84.75119781, 33.45000076, 0.00000000
1, 19.9101, 1225, -0.04956107, -0.98517632, 0.15045840, 0.25576028, 0.66307467, 0.13084966, -31.13124847, 7.04472351, -107.54165649, 98.74608612, -2.36715174, -74.76934052, -0.52678251, 0.59476143, -0.47140396, -0.38280213, 0.00789721, -0.00260339, -0.00028665, 100.31100464, 84.75119781, 33.45000076, 0.00000000
1, 19.9201, 1226, -0.04470731, -0.98533440, 0.14910284, 0.33802029, 1.22039068, 0.16061248, -30.72201157, 6.78164291, -107.68781281, 98.74899292, -2.37057328, -74.75750732, -0.52682036, 0.59481126, -0.47136733, -0.38271749, 0.00299391, -0.00243380, 0.00112744, 100.31100464, 84.75119781, 33.45000076, 0.00000000
1, 19.9301, 1227, -0.03651464, -0.98692644, 0.14940877, 0.40736741, 1.39256597, 0.26899013, -30.80970383, 6.57702398, -107.39550018, 98.75108337, -2.36854458, -74.74404907, -0.52684647, 0.59488350, -0.47129557, -0.38265786, -0.00524152, -0.00083314, 0.00088687, 100.31100464, 84.75119781, 33.45000076, 0.00000000
1, 19.9401, 1228, -0.03442566, -0.98575783, 0.15097407, 0.39429763, 1.02441263, 0.36553794, -30.80970383, 6.57702398, -107.39550018, 98.75465393, -2.37369061, -74.73448181, -0.52688015, 0.59492087, -0.47128052, -0.38257176, -0.00733648, -0.00199698, -0.00062379, 100.31100464, 84.75119781, 33.45000076, 0.00000000
1, 19.9501, 1229, -0.03858878, -0.98576140, 0.15056248, 0.36271471, 0.74062079, 0.56948876, -30.34200478, 4.26775789, -107.71704102, 98.75801849, -2.38043427, -74.72801208, -0.52691072, 0.59493905, -0.47128811, -0.38249218, -0.00327798, -0.00197954, -0.00016629, 100.31100464, 84.75119781, 33.45000076, 0.00000000
1, 19.9601, 1230, -0.04421271, -0.98671544, 0.14740334, 0.33018795, 0.49580824, 0.59911984, -30.80970383, 7.13241720, -107.27857208, 98.76116943, -2.38708711, -74.72399902, -0.52693391, 0.59494638, -0.47130728, -0.38242531, 0.00223387, -0.00100723, 0.00302938, 100.31100464, 84.75119781, 33.45000076, 0.00000000
1, 19.9701, 1231, -0.04091993, -0.98817122, 0.14623985, 0.36339602, 0.70372683, 0.65623122, -30.86816597, 5.14469433, -107.62934875, 98.76456451, -2.39461422, -74.71802521, -0.52696574, 0.59495974, -0.47132093, -0.38234371, -0.00117936, 0.00046526, 0.00426084, 100.31100464, 84.75119781, 33.45000076, 0.00000000
1, 19.9801, 1232, -0.03819758, -0.98625970, 0.14875932, 0.28302160, 0.02124361, 0.76366973, -31.16047859, 6.75241137, -107.51242065, 98.77272034, -2.39637804, -74.72015381, -0.52692318, 0.59498221, -0.47136697, -0.38231048, -0.00401486, -0.00143584, 0.00181680, 100.31100464, 84.75119781, 33.45000076, 0.00000000
1, 19.9901, 1233, -0.03953870, -0.98392618, 0.15336591, 0.46230239, -0.06753135, 0.89948028, -31.16047859, 6.75241137, -107.51242065, 98.77745056, -2.40515566, -74.72217560, -0.52692634, 0.59496450, -0.47143215, -0.38225347, -0.00275258, -0.00375129, -0.00264243, 100.31100464, 84.75119781, 33.45000076, 0.00000000
1, 20.0001, 1234, -0.04336502, -0.98577642, 0.14912003, 0.55408925, -0.27851188, 1.01596570, -30.83893585, 5.81701231, -107.68781281, 98.78319550, -2.41476417, -74.72647095, -0.52691990, 0.59493899, -0.47151613, -0.38219833, 0.00092177, -0.00187347, 0.00167996, 100.31100464, 84.75119781, 33.45000076, 0.00000000
1, 20.0201, 1235, -0.04552155, -0.98611331, 0.14830039, 0.44373682, 0.01724720, 0.98936772, -31.01432228, 6.84010506, -107.13241577, 98.79285431, -2.43473458, -74.73095703, -0.52693319, 0.59489393, -0.47166008, -0.38207263, 0.00273363, -0.00149398, 0.00266500, 100.31100464, 84.75119781, 33.45000076, 0.00000000
1, 20.0301, 1236, -0.04089781, -0.98690164, 0.14775319, 0.40875027, -0.01912946, 1.04152429, -30.80970383, 7.19087982, -107.39550018, 98.79133606, -2.44415188, -74.73171234, -0.52697545, 0.59485030, -0.47170064, -0.38203207, -0.00206366, -0.00068980, 0.00326989, 100.31100464, 84.75119781, 33.45000076, 0.00000000
1, 20.0401, 1237, -0.04500005, -0.98641682, 0.14850529, 0.59488744, -0.68183303, 1.14604175, -30.80970383, 7.19087982, -107.39550018, 98.79767609, -2.45443034, -74.74018860, -0.52695459, 0.59480798, -0.47181129, -0.38199008, 0.00187164, -0.00116569, 0.00252903, 100.31100464, 84.75119781, 33.45000076, 0.00000000
1, 20.0501, 1238, -0.05035217, -0.98491967, 0.15080018, 0.58134639, -1.01476049, 1.22590899, -30.98509216, 5.78778124, -107.77550507, 98.80402374, -2.46500778, -74.75210571, -0.52692348, 0.59475052, -0.47194111, -0.38196224, 0.00703464, -0.00264174, 0.00033144, 100.31100464, 84.75119781, 33.45000076, 0.00000000
1, 20.0601, 1239, -0.05050389, -0.98592746, 0.14847237, 0.57349509, -0.36996308, 1.20632601, -31.21894073, 7.27857351, -107.48319244, 98.81002808, -2.47635674, -74.75758362, -0.52691853, 0.59471512, -0.47203979, -0.38190213, 0.00699902, -0.00160497, 0.00276608, 100.31100464, 84.75119781, 33.45000076, 0.00000000
1, 20.0701, 1240, -0.04219575, -0.98706269, 0.14878698, 0.41351512, -0.37180519, 1.22584462, -31.01432228, 6.89856768, -107.57088470, 98.81446075, -2.48789310, -74.76312256, -0.52692240, 0.59467155, -0.47213435, -0.38184780, -0.00151021, -0.00044849, 0.00255446, 100.31100464, 84.75119781, 33.45000076, 0.00000000
1, 20.0801, 1241, -0.04610505, -0.98385167, 0.15244748, 0.40410867, -1.05240393, 1.27984643, -31.18971062, 7.57088566, -107.65857697, 98.82064056, -2.50387931, -74.77561951, -0.52691144, 0.59459162, -0.47229052, -0.38179442, 0.00216756, -0.00364358, -0.00103323, 100.31100464, 84.75119781, 33.45000076, 0.00000000
1, 20.0901, 1242, -0.05291950, -0.98661292, 0.14934759, 0.60895211, -0.38454849, 1.10037041, -30.34200478, 6.84010506, -106.81087494, 98.82701111, -2.51416469, -74.78109741, -0.52690053, 0.59456170, -0.47238564, -0.38173845, 0.00874803, -0.00084800, 0.00216535, 100.31100464, 84.75119781, 33.45000076, 0.00000000
1, 20.1001, 1243, -0.05246494, -0.98397958, 0.14997531, 0.19914269, -0.31857282, 1.10715973, -30.34200478, 6.84010506, -106.81087494, 98.82925415, -2.52461505, -74.78592682, -0.52691382, 0.59451485, -0.47246435, -0.38169560, 0.00810456, -0.00346387, 0.00160831, 100.31100464, 84.75119781, 33.45000076, 0.00000000
1, 20.1101, 1244, -0.05179692, -0.98639572, 0.14965191, 0.46570534, -0.33068278, 0.98079503, -31.07278633, 7.36626720, -107.45395660, 98.83414459, -2.53379369, -74.79067993, -0.52690858, 0.59448498, -0.47254586, -0.38164824, 0.00727060, -0.00102854, 0.00200101, 100.31100464, 84.75119781, 33.45000076, 0.00000000
1, 20.1201, 1245, -0.05443272, -0.98583543, 0.14675589, 0.19448222, 0.01753261, 0.88739097, -31.30663490, 6.95702982, -107.80473328, 98.83616638, -2.54258585, -74.79185486, -0.52692866, 0.59445810, -0.47259754, -0.38159835, 0.00975912, -0.00157037, 0.00493564, 100.31100464, 84.75119781, 33.45000076, 0.00000000
1, 20.1301, 1246, -0.05776885, -0.98600316, 0.14718880, 0.21194851, 0.02019320, 0.78207552, -30.98509216, 7.19087982, -107.36626434, 98.81908417, -2.58362007, -74.78846741, -0.52718955, 0.59424728, -0.47270447, -0.38143408, 0.01280571, -0.00139673, 0.00445301, 100.31100464, 84.75119781, 33.45000076, 0.00000000
1, 20.1401, 1247, -0.05635848, -0.98571754, 0.14485106, 0.17695987, -0.06339224, 0.62279379, -31.16047859, 4.64776373, -107.86319733, 98.82093811, -2.58967638, -74.79003906, -0.52719843, 0.59422773, -0.47274554, -0.38140130, 0.01084695, -0.00168863, 0.00656700, 100.31100464, 84.75119781, 33.45000076, 0.00000000
1, 20.1501, 1248, -0.05448085, -0.98620391, 0.14811553, 0.17256197, 0.27062792, 0.49060252, -31.16047859, 4.64776373, -107.86319733, 98.82259369, -2.59493065, -74.78809357, -0.52721691, 0.59422457, -0.47276419, -0.38135749, 0.00886312, -0.00119732, 0.00334451, 100.31100464, 84.75119781, 33.45000076, 0.00000000
1, 20.1801, 1249, -0.05580345, -0.98488450, 0.14826752, 0.33316651, 0.14157553, 0.11743413, -30.89739799, 7.19087982, -107.24934387, 98.81970215, -2.64614677, -74.78098297, -0.52745640, 0.59405798, -0.47294396, -0.38106304, 0.00982951, -0.00248519, 0.00328983, 100.31100464, 84.75119781, 33.45000076, 0.00000000
1, 20.1901, 1250, -0.05588183, -0.98640299, 0.14696203, 0.33499750, -0.03038343, 0.02568164, -31.18971062, 3.65390229, -107.57088470, 98.82306671, -2.64635611, -74.78131866, -0.52743864, 0.59407127, -0.47295779, -0.38104960, 0.00934328, -0.00095564, 0.00448048, 100.31100464, 84.75119781, 33.45000076, 0.00000000
1, 20.2001, 1251, -0.05396954, -0.98653305, 0.15181285, 0.38666686, 0.10932694, 0.02835396, -31.18971062, 3.65390229, -107.57088470, 98.82687378, -2.64678597, -74.78027344, -0.52742404, 0.59409159, -0.47296700, -0.38102680, 0.00741221, -0.00082302, -0.00029997, 100.31100464, 84.75119781, 33.45000076, 0.00000000
1, 20.2101, 1252, -0.05217058, -0.98504007, 0.15119864, 0.42427000, -0.07971978, -0.06426122, -31.77433395, 7.01549244, -106.89856720, 98.83114624, -2.64601588, -74.78096771, -0.52739656, 0.59411114, -0.47298133, -0.38101643, 0.00561736, -0.00230532, 0.00038438, 100.31100464, 84.75119781, 33.45000076, 0.00000000
1, 20.2201, 1253, -0.05276499, -0.98411250, 0.15030777, 0.35288185, -0.07826797, -0.15094832, -31.10201645, 5.99239969, -107.68781281, 98.83470917, -2.64437985, -74.78150940, -0.52736986, 0.59413111, -0.47298878, -0.38101298, 0.00623996, -0.00322113, 0.00134929, 100.31100464, 84.75119781, 33.45000076, 0.00000000
1, 20.2301, 1254, -0.05337823, -0.98574269, 0.15082425, 0.42149511, 0.13121842, -0.14682852, -31.36509705, 7.33703566, -107.10318756, 98.83471680, -2.66150117, -74.77899170, -0.52744526, 0.59408045, -0.47305137, -0.38090983, 0.00679595, -0.00158221, 0.00087385, 100.31100464, 84.75119781, 33.45000076, 0.00000000
1, 20.2401, 1255, -0.05424240, -0.98670006, 0.14616105, 0.32897589, 0.41098255, -0.22661288, -31.27740479, 5.75855017, -107.42472839, 98.83780670, -2.65988207, -74.77458954, -0.52743757, 0.59411865, -0.47303167, -0.38088548, 0.00745745, -0.00060589, 0.00554160, 100.31100464, 84.75119781, 33.45000076, 0.00000000
1, 20.2501, 1256, -0.05232229, -0.98665106, 0.14746173, 0.31601042, 0.02625892, -0.16551358, -31.27740479, 5.75855017, -107.42472839, 98.84093475, -2.65826535, -74.77407074, -0.52741671, 0.59414095, -0.47303224, -0.38087881, 0.00556339, -0.00064980, 0.00430057, 100.31100464, 84.75119781, 33.45000076, 0.00000000
1, 20.2601, 1257, -0.05182594, -0.98521352, 0.14730632, 0.28154558, -0.09296945, -0.29059935, -31.42355919, 6.81087399, -107.36626434, 98.84375763, -2.65525818, -74.77453613, -0.52738875, 0.59416276, -0.47303081, -0.38088542, 0.00510644, -0.00208209, 0.00450342, 100.31100464, 84.75119781, 33.45000076, 0.00000000
1, 20.2701, 1258, -0.05538698, -0.98677945, 0.14765152, 0.43880388, 0.13513012, -0.30469042, -30.63431740, 7.30780458, -107.51242065, 98.84806061, -2.65243721, -74.77275085, -0.52736139, 0.59420002, -0.47302336, -0.38087451, 0.00871868, -0.00050781, 0.00421916, 100.31100464, 84.75119781, 33.45000076, 0.00000000
1, 20.2801, 1259, -0.05242552, -0.98637235, 0.14597930, 0.38629577, 0.03356490, -0.44665167, -31.27740479, 7.33703566, -107.57088470, 98.84645844, -2.65795684, -74.77044678, -0.52739900, 0.59418243, -0.47303045, -0.38084105, 0.00578553, -0.00090722, 0.00593890, 100.31100464, 84.75119781, 33.45000076, 0.00000000
1, 20.2901, 1260, -0.05207710, -0.98625541, 0.14877480, 0.35387334, -0.22781807, -0.45246905, -30.92663002, 6.54779291, -107.39550018, 98.85005188, -2.65313172, -74.77199554, -0.52735627, 0.59420979, -0.47302914, -0.38085914, 0.00538007, -0.00102687, 0.00314110, 100.31100464, 84.75119781, 33.45000076, 0.00000000
1, 20.3001, 1261, -0.05403528, -0.98564112, 0.14766961, 0.48101220, -0.45254993, -0.47697017, -30.92663002, 6.54779291, -107.39550018, 98.85501862, -2.64771843, -74.77575684, -0.52729672, 0.59423643, -0.47304121, -0.38088477, 0.00743288, -0.00163246, 0.00431486, 100.31100464, 84.75119781, 33.45000076, 0.00000000
1, 20.3101, 1262, -0.05604724, -0.98476863, 0.14839211, 0.44440120, -0.39731717, -0.61539644, -30.98509216, 6.72318029, -107.27857208, 98.85958862, -2.64102197, -74.77875519, -0.52723688, 0.59426904, -0.47304240, -0.38091552, 0.00954999, -0.00249730, 0.00367726, 100.31100464, 84.75119781, 33.45000076, 0.00000000
1, 20.3201, 1263, -0.05645360, -0.98709130, 0.14628209, 0.49816340, -0.44738719, -0.68737853, -30.72201157, 7.30780458, -107.07395172, 98.86472321, -2.63352656, -74.78211975, -0.52716970, 0.59430546, -0.47304383, -0.38094991, 0.01008838, -0.00016431, 0.00586525, 100.31100464, 84.75119781, 33.45000076, 0.00000000
1, 20.3301, 1264, -0.05470210, -0.98562467, 0.14794549, 0.62388855, -0.56644160, -0.76192111, -31.01432228, 7.39549828, -107.42472839, 98.87080383, -2.63302422, -74.78652954, -0.52712148, 0.59431702, -0.47308469, -0.38094774, 0.00843743, -0.00162332, 0.00430622, 100.31100464, 84.75119781, 33.45000076, 0.00000000
1, 20.3401, 1265, -0.05308130, -0.98496461, 0.15144612, 0.60369843, -0.39005348, -0.86261630, -30.02046204, 5.78778124, -107.36626434, 98.87693024, -2.62389851, -74.78906250, -0.52704549, 0.59436727, -0.47307786, -0.38098285, 0.00685888, -0.00227437, 0.00091956, 100.31100464, 84.75119781, 33.45000076, 0.00000000
1, 20.3501, 1266, -0.05270197, -0.98420751, 0.15048794, 0.56949550, -0.52710325, -0.97060424, -30.02046204, 5.78778124, -107.36626434, 98.88277435, -2.61347508, -74.79279327, -0.52696192, 0.59441590, -0.47307065, -0.38103163, 0.00665785, -0.00302231, 0.00198025, 100.31100464, 84.75119781, 33.45000076, 0.00000000
1, 20.3601, 1267, -0.05282028, -0.98456657, 0.15020785, 0.49784684, -0.47635746, -0.93343043, -31.07278633, 7.19087982, -107.51242065, 98.88787079, -2.60352468, -74.79606628, -0.52688557, 0.59446132, -0.47306070, -0.38107884, 0.00695216, -0.00265510, 0.00236153, 100.31100464, 84.75119781, 33.45000076, 0.00000000
1, 20.3701, 1268, -0.05007857, -0.98578000, 0.14883837, 0.51651752, -0.56197011, -0.98828697, -30.80970383, 3.56620860, -107.27857208, 98.89318085, -2.59287548, -74.80009460, -0.52680284, 0.59450710, -0.47305226, -0.38113236, 0.00439585, -0.00143492, 0.00381820, 100.31100464, 84.75119781, 33.45000076, 0.00000000
1, 20.3801, 1269, -0.04819398, -0.98596871, 0.14867654, 0.56834364, -0.43924716, -1.00354767, -30.98509216, 7.16164875, -107.33703613, 98.89606476, -2.58318257, -74.80221558, -0.52674282, 0.59454614, -0.47303000, -0.38118199, 0.00269031, -0.00124009, 0.00407353, 100.31100464, 84.75119781, 33.45000076, 0.00000000
1, 20.3901, 1270, -0.04862624, -0.98562789, 0.14822912, 0.60547698, -0.56159544, -0.97188437, -31.16047859, 6.75241137, -106.98625946, 98.90226746, -2.57270145, -74.80627441, -0.52665591, 0.59459519, -0.47302541, -0.38123101, 0.00329959, -0.00157807, 0.00458550, 100.31100464, 84.75119781, 33.45000076, 0.00000000
1, 20.4001, 1271, -0.05189886, -0.98338294, 0.14943855, 0.45251012, -1.15435374, -1.00159192, -31.04355431, 7.22011089, -106.69394684, 98.90722656, -2.56101990, -74.81615448, -0.52655149, 0.59461880, -0.47304159, -0.38131839, 0.00676301, -0.00381892, 0.00346670, 100.31100464, 84.75119781, 33.45000076, 0.00000000
1, 20.4101, 1272, -0.05040545, -0.98644495, 0.14855292, 0.44633374, -0.64879143, -1.02451527, -31.04355431, 7.22011089, -106.69394684, 98.91187286, -2.54989100, -74.82098389, -0.52646762, 0.59465986, -0.47303301, -0.38138092, 0.00547058, -0.00075012, 0.00444183, 100.31100464, 84.75119781, 33.45000076, 0.00000000
1, 20.4201, 1273, -0.04788863, -0.98525405, 0.15063357, 0.48524550, -0.94268167, -1.10211980, -30.98509216, 7.57088566, -107.42472839, 98.91702271, -2.53754306, -74.82862091, -0.52636695, 0.59469604, -0.47303528, -0.38146064, 0.00315456, -0.00194174, 0.00244592, 100.31100464, 84.75119781, 33.45000076, 0.00000000
1, 20.4301, 1274, -0.05015318, -0.98526394, 0.14760354, 0.43143010, -0.90793085, -1.11813247, -31.39432907, 7.77550411, -107.68781281, 98.91519928, -2.53106403, -74.83439636, -0.52633166, 0.59468687, -0.47303057, -0.38152930, 0.00561680, -0.00192493, 0.00553721, 100.31100464, 84.75119781, 33.45000076, 0.00000000
1, 20.4401, 1275, -0.05125938, -0.98516476, 0.14557415, 0.52002198, -0.90463698, -1.22433829, -30.89739799, 7.07395506, -107.27857208, 98.92068481, -2.51755571, -74.84146881, -0.52622664, 0.59473103, -0.47302592, -0.38161132, 0.00687982, -0.00202685, 0.00756904, 100.31100464, 84.75119781, 33.45000076, 0.00000000
1, 20.5701, 1276, -0.03804526, -0.98641384, 0.15382807, 0.69249767, -0.45137271, -1.18067789, -31.16047859, 5.43700647, -108.00935364, 99.01508331, -2.30348587, -74.89335632, -0.52472049, 0.59571099, -0.47266483, -0.38260269, -0.00261274, -0.00069219, 0.00098652, 100.31100464, 84.75119781, 33.45000076, 0.00000000
1, 20.5801, 1277, -0.04156119, -0.98445714, 0.15430364, 0.71106464, -0.50467879, -1.12960672, -31.39432907, 7.04472351, -107.89242554, 99.02204132, -2.29183745, -74.89653015, -0.52462780, 0.59577119, -0.47265312, -0.38265067, 0.00111159, -0.00263994, 0.00062049, 100.31100464, 84.75119781, 33.45000076, 0.00000000
1, 20.5901, 1278, -0.03918910, -0.98709965, 0.15403087, 0.76409650, -0.43875647, -0.95344937, -30.92663002, 5.70008755, -107.22010803, 99.02976227, -2.28172302, -74.89939117, -0.52453816, 0.59583062, -0.47264910, -0.38268590, -0.00107846, 0.00001735, 0.00103165, 100.31100464, 84.75119781, 33.45000076, 0.00000000
1, 20.6001, 1279, -0.04085126, -0.98545516, 0.15932347, 0.74840939, -0.59722257, -0.88692260, -31.01432228, 6.69394922, -107.33703613, 99.03741455, -2.27199936, -74.90390778, -0.52444488, 0.59588146, -0.47265521, -0.38272691, 0.00074953, -0.00162356, -0.00413965, 100.31100464, 84.75119781, 33.45000076, 0.00000000
1, 20.6101, 1280, -0.03931733, -0.98661351, 0.15398018, 0.80526155, -0.86073315, -0.77124447, -31.01432228, 6.69394922, -107.33703613, 99.04573822, -2.26302719, -74.91122437, -0.52434176, 0.59592128, -0.47268146, -0.38277394, -0.00061693, -0.00043926, 0.00135246, 100.31100464, 84.75119781, 33.45000076, 0.00000000
1, 20.6201, 1281, -0.03853466, -0.98588741, 0.15444757, 0.85646170, -0.63858813, -0.57381433, -30.75124168, 5.90470600, -107.68781281, 99.05451202, -2.25635624, -74.91664124, -0.52425170, 0.59596270, -0.47270945, -0.38279814, -0.00126492, -0.00114810, 0.00103592, 100.31100464, 84.75119781, 33.45000076, 0.00000000
1, 20.6301, 1282, -0.04380039, -0.98535693, 0.15900102, 0.69171977, -0.22480950, -0.45669803, -31.16047859, 6.16778708, -107.01548767, 99.06897736, -2.26362753, -74.91994476, -0.52419418, 0.59598947, -0.47280711, -0.38271481, 0.00403161, -0.00166100, -0.00336286, 100.31100464, 84.75119781, 33.45000076, 0.00000000
1, 20.6401, 1283, -0.04651826, -0.98766029, 0.15635230, 0.61112064, 0.55817294, -0.45453539, -30.75124168, 3.80005836, -107.33703613, 99.07485199, -2.25999618, -74.91372681, -0.52417004, 0.59605485, -0.47277826, -0.38268146, 0.00667167, 0.00068301, -0.00051846, 100.31100464, 84.75119781, 33.45000076, 0.00000000
1, 20.6501, 1284, -0.04039575, -0.98526788, 0.15440524, 0.37776533, 0.76246518, -0.34153894, -30.69277954, 6.31394339, -107.57088470, 99.07830048, -2.25779843, -74.90565491, -0.52417040, 0.59611177, -0.47273815, -0.38264206, 0.00060162, -0.00169723, 0.00151596, 100.31100464, 84.75119781, 33.45000076, 0.00000000
1, 20.6601, 1285, -0.04078257, -0.98599422, 0.15411876, 0.41097331, 0.97038382, -0.28442749, -30.69277954, 6.31394339, -107.57088470, 99.08198547, -2.25649977, -74.89561462, -0.52417958, 0.59617466, -0.47269249, -0.38258782, 0.00101484, -0.00096049, 0.00186902, 100.31100464, 84.75119781, 33.45000076, 0.00000000
1, 20.6701, 1286, -0.04162298, -0.98558402, 0.15683286, 0.30376339, 1.05228531, -0.10584969, -30.54662323, 5.02776957, -107.24934387, 99.08461761, -2.25708961, -74.88504791, -0.52420348, 0.59622812, -0.47264886, -0.38252547, 0.00185219, -0.00136771, -0.00079918, 100.31100464, 84.75119781, 33.45000076, 0.00000000
1, 20.6801, 1287, -0.03954094, -0.98588085, 0.15375243, 0.38984507, 1.31164098, 0.00439289, -30.75124168, 7.10318613, -107.48319244, 99.08847809, -2.25516510, -74.87216187, -0.52421886, 0.59630579, -0.47258621, -0.38246092, -0.00023241, -0.00105647, 0.00234210, 100.31100464, 84.75119781, 33.45000076, 0.00000000
1, 20.6901, 1288, -0.03211668, -0.98658109, 0.15453416, 0.39408547, 0.97887206, 0.08403769, -30.54662323, 3.91698337, -107.77550507, 99.09204865, -2.25752831, -74.86262512, -0.52424145, 0.59635311, -0.47255895, -0.38238993, -0.00764557, -0.00034735, 0.00164414, 100.31100464, 84.75119781, 33.45000076, 0.00000000
1, 20.7001, 1289, -0.03322080, -0.98469901, 0.15168963, 0.34833273, 0.39862975, 0.29862902, -31.18971062, 7.22011089, -107.39550018, 99.09540558, -2.26109505, -74.85915375, -0.52424961, 0.59637010, -0.47256783, -0.38234118, -0.00658951, -0.00221396, 0.00454330, 100.31100464, 84.75119781, 33.45000076, 0.00000000
1, 20.7101, 1290, -0.04176456, -0.98576128, 0.15288131, 0.52876472, 0.20626241, 0.39690351, -30.34200478, 4.23852682, -107.89242554, 99.10063934, -2.26532483, -74.85773468, -0.52424371, 0.59638488, -0.47259659, -0.38229048, 0.00188095, -0.00113745, 0.00341173, 100.31100464, 84.75119781, 33.45000076, 0.00000000
1, 20.7201, 1291, -0.04085999, -0.98725808, 0.15357766, 0.38829413, 0.08066252, 0.50085443, -30.34200478, 4.23852682, -107.89242554, 99.10454559, -2.27038622, -74.85772705, -0.52424347, 0.59638482, -0.47263187, -0.38224733, 0.00089130, 0.00037287, 0.00278587, 100.31100464, 84.75119781, 33.45000076, 0.00000000
1, 20.7301, 1292, -0.03930627, -0.98549962, 0.15318212, 0.48358893, -0.39430356, 0.73368573, -30.63431740, 6.81087399, -107.36626434, 99.10630035, -2.27952337, -74.86206055, -0.52425593, 0.59634262, -0.47270069, -0.38221115, -0.00077818, -0.00136958, 0.00325551, 100.31100464, 84.75119781, 33.45000076, 0.00000000
1, 20.7401, 1293, -0.04459802, -0.98616529, 0.15570736, 0.72087091, -0.89739019, 0.73619998, -30.54662323, 5.55393171, -107.86319733, 99.11391449, -2.28537488, -74.87208557, -0.52420598, 0.59631538, -0.47280407, -0.38219434, 0.00437006, -0.00069121, 0.00078601, 100.31100464, 84.75119781, 33.45000076, 0.00000000
1, 20.7501, 1294, -0.04985228, -0.98671627, 0.15975340, 0.47945502, -0.03089605, 0.83003074, -30.83893585, 6.57702398, -107.65857697, 99.11879730, -2.29350758, -74.87368774, -0.52420729, 0.59630221, -0.47286457, -0.38213807, 0.00948872, -0.00012464, -0.00316692, 100.31100464, 84.75119781, 33.45000076, 0.00000000
1, 20.7601, 1295, -0.04400149, -0.98544347, 0.15013103, 0.60486788, -0.08450308, 0.93231302, -30.69277954, 5.20315695, -107.48319244, 99.12495422, -2.30256605, -74.87599182, -0.52420336, 0.59628880, -0.47293708, -0.38207483, 0.00350652, -0.00136108, 0.00656079, 100.31100464, 84.75119781, 33.45000076, 0.00000000
1, 20.7701, 1296, -0.04353255, -0.98579133, 0.15701731, 0.46073326, 0.08660616, 1.00833070, -30.69277954, 5.20315695, -107.48319244, 99.12962341, -2.31264067, -74.87673187, -0.52421635, 0.59627140, -0.47300094, -0.38200510, 0.00285266, -0.00100241, -0.00022948, 100.31100464, 84.75119781, 33.45000076, 0.00000000
1, 20.7801, 1297, -0.04439458, -0.98552215, 0.15559793, 0.31795982, 0.15245485, 1.11687434, -31.01432228, 7.04472351, -107.60011292, 99.12572479, -2.33163261, -74.87549591, -0.52431566, 0.59619123, -0.47306526, -0.38191405, 0.00349609, -0.00125487, 0.00122096, 100.31100464, 84.75119781, 33.45000076, 0.00000000
1, 20.7901, 1298, -0.04502345, -0.98697305, 0.15377925, 0.31890157, 0.06626686, 1.07975566, -31.13124847, 4.82315111, -106.92779541, 99.12899017, -2.34239197, -74.87653351, -0.52433771, 0.59616375, -0.47312900, -0.38184786, 0.00383687, 0.00020430, 0.00299376, 100.31100464, 84.75119781, 33.45000076, 0.00000000
1, 20.8001, 1299, -0.04529462, -0.98692715, 0.15426704, 0.22863483, 0.20220824, 1.18930149, -31.59894753, 7.27857351, -107.10318756, 99.13128662, -2.35445857, -74.87641144, -0.52437377, 0.59613198, -0.47318926, -0.38177335, 0.00390431, 0.00017450, 0.00255768, 100.31100464, 84.75119781, 33.45000076, 0.00000000
1, 20.8101, 1300, -0.04896688, -0.98501110, 0.15386149, 0.18078575, -0.26693493, 1.12615037, -31.07278633, 5.26161957, -106.98625946, 99.13330078, -2.36515570, -74.88080597, -0.52439088, 0.59608507, -0.47326598, -0.38172799, 0.00738271, -0.00172894, 0.00298102, 100.31100464, 84.75119781, 33.45000076, 0.00000000
1, 20.8201, 1301, -0.05088299, -0.98536384, 0.15255478, 0.09104136, -0.19810903, 1.12893319, -31.07278633, 5.26161957, -106.98625946, 99.13438416, -2.37598395, -74.88452911, -0.52441549, 0.59603620, -0.47333676, -0.38168269, 0.00911149, -0.00136074, 0.00431594, 100.31100464, 84.75119781, 33.45000076, 0.00000000
1, 20.8301, 1302, -0.05432542, -0.98587227, 0.14951874, 0.09083130, -0.19644085, 1.05887115, -31.30663490, 6.81087399, -107.57088470, 99.11682129, -2.41186142, -74.88436890, -0.52464885, 0.59582913, -0.47343564, -0.38156277, 0.01226801, -0.00084545, 0.00727687, 100.31100464, 84.75119781, 33.45000076, 0.00000000
1, 20.8401, 1303, -0.05278077, -0.98537958, 0.14991827, -0.03751260, 0.10082807, 0.96243393, -30.48816109, 6.57702398, -106.81087494, 99.11647797, -2.42152190, -74.88488007, -0.52468693, 0.59579110, -0.47347969, -0.38151482, 0.01021466, -0.00135653, 0.00663788, 100.31100464, 84.75119781, 33.45000076, 0.00000000
1, 20.8501, 1304, -0.05255609, -0.98608780, 0.15038948, 0.03193669, 0.20922424, 0.82392484, -30.95586014, 6.57702398, -107.01548767, 99.11680603, -2.42998004, -74.88410950, -0.52472121, 0.59576571, -0.47351402, -0.38146478, 0.00983300, -0.00064209, 0.00616758, 100.31100464, 84.75119781, 33.45000076, 0.00000000
1, 20.8601, 1305, -0.05508555, -0.98507202, 0.15123799, -0.03552618, -0.11959081, 0.71178955, -31.13124847, 5.20315695, -107.30780029, 99.11656189, -2.43682766, -74.88642120, -0.52474177, 0.59573078, -0.47355548, -0.38143978, 0.01223109, -0.00165452, 0.00530965, 100.31100464, 84.75119781, 33.45000076, 0.00000000
1, 20.8701, 1306, -0.05278509, -0.98329318, 0.15402959, 0.05395704, -0.15485905, 0.76238817, -31.13124847, 5.20315695, -107.30780029, 99.11723328, -2.44410539, -74.88914490, -0.52475792, 0.59569669, -0.47360387, -0.38141057, 0.00979894, -0.00343141, 0.00253362, 100.31100464, 84.75119781, 33.45000076, 0.00000000
1, 20.8801, 1307, -0.04983169, -0.98378241, 0.15419240, 0.05448008, -0.20623820, 0.72610468, -31.83279800, 6.63548660, -107.48319244, 99.11106110, -2.45430136, -74.89080048, -0.52482468, 0.59562534, -0.47363693, -0.38138920, 0.00670751, -0.00293918, 0.00236069, 100.31100464, 84.75119781, 33.45000076, 0.00000000
1, 20.8901, 1308, -0.05212090, -0.98494661, 0.15481474, 0.03544114, -0.13344258, 0.58787340, -30.78047371, 6.54779291, -106.72318268, 99.11151886, -2.45989585, -74.89304352, -0.52483684, 0.59559834, -0.47367474, -0.38136762, 0.00884790, -0.00178302, 0.00164724, 100.31100464, 84.75119781, 33.45000076, 0.00000000
1, 20.9001, 1309, -0.05533823, -0.98757291, 0.14903282, -0.00027848, -0.11677193, 0.60625154, -31.36509705, 6.84010506, -106.60625458, 99.11163330, -2.46570373, -74.89514923, -0.52485210, 0.59556943, -0.47371164, -0.38134575, 0.01198137, 0.00085792, 0.00742245, 100.31100464, 84.75119781, 33.45000076, 0.00000000
1, 20.9101, 1310, -0.05033343, -0.98386610, 0.15121584, -0.19404139, -0.25900012, 0.65790629, -31.18971062, 6.78164291, -106.31394196, 99.10987091, -2.47180200, -74.89874268, -0.52487332, 0.59552479, -0.47375134, -0.38133693, 0.00686286, -0.00285148, 0.00523480, 100.31100464, 84.75119781, 33.45000076, 0.00000000
1, 20.9201, 1311, -0.05206761, -0.98725271, 0.15346286, 0.14689149, -0.54811329, 0.48894033, -31.18971062, 6.78164291, -106.31394196, 99.11161804, -2.47576642, -74.90493774, -0.52485931, 0.59549320, -0.47380686, -0.38133690, 0.00850990, 0.00053701, 0.00299025, 100.31100464, 84.75119781, 33.45000076, 0.00000000
1, 20.9301, 1312, -0.05219236, -0.98659837, 0.14907213, -0.01602023, -0.32202992, 0.44382468, -31.16047859, 6.98626137, -106.84010315, 99.08818817, -2.49610424, -74.90387726, -0.52506471, 0.59531790, -0.47381294, -0.38132018, 0.00850761, -0.00011891, 0.00728940, 100.31100464, 84.75119781, 33.45000076, 0.00000000
1, 20.9401, 1313, -0.05128425, -0.98479545, 0.15274960, 0.11174670, -0.59897512, 0.41807100, -30.63431740, 3.77082729, -106.81087494, 99.08959198, -2.49929714, -74.91046143, -0.52504808, 0.59528577, -0.47386587, -0.38132745, 0.00730876, -0.00196195, 0.00332637, 100.31100464, 84.75119781, 33.45000076, 0.00000000
1, 20.9501, 1314, -0.05657580, -0.98588288, 0.14897926, 0.08220205, -1.11933923, 0.31841356, -30.98509216, 6.84010506, -106.75241089, 99.09092712, -2.50069141, -74.92201996, -0.52500820, 0.59523910, -0.47393653, -0.38136747, 0.01258050, -0.00086288, 0.00710857, 100.31100464, 84.75119781, 33.45000076, 0.00000000
1, 20.9601, 1315, -0.05513349, -0.98479903, 0.14878334, 0.02718233, -0.99631500, 0.25194192, -30.72201157, 6.95702982, -107.13241577, 99.09165955, -2.50161624, -74.93225861, -0.52497393, 0.59519678, -0.47399619, -0.38140640, 0.01111468, -0.00194368, 0.00731966, 100.31100464, 84.75119781, 33.45000076, 0.00000000
1, 20.9701, 1316, -0.05397528, -0.98443079, 0.15036623, 0.17194505, -1.21963763, 0.17467178, -30.72201157, 6.95702982, -107.13241577, 99.09391785, -2.50143361, -74.94458771, -0.52492040, 0.59515679, -0.47406697, -0.38145450, 0.00995009, -0.00230865, 0.00577612, 100.31100464, 84.75119781, 33.45000076, 0.00000000
1, 20.9801, 1317, -0.05598220, -0.98518789, 0.14817098, 0.15887381, -1.61926353, 0.13026074, -31.16047859, 7.42472935, -106.95703125, 99.08406830, -2.51484895, -74.95854950, -0.52497798, 0.59500611, -0.47416574, -0.38148755, 0.01191579, -0.00154908, 0.00794484, 100.31100464, 84.75119781, 33.45000076, 0.00000000
1, 20.9901, 1318, -0.05151068, -0.98534417, 0.14903396, 0.33585033, -1.54806221, 0.12970501, -30.66354752, 4.00467682, -107.16164398, 99.08811188, -2.51370502, -74.97405243, -0.52490091, 0.59496462, -0.47425467, -0.38154796, 0.00726685, -0.00140168, 0.00699818, 100.31100464, 84.75119781, 33.45000076, 0.00000000
1, 21.0001, 1319, -0.04942632, -0.98349559, 0.15137205, 0.28831494, -2.05118012, 0.03068759, -31.51125336, 7.45396090, -107.16164398, 99.09188080, -2.51078963, -74.99438477, -0.52480209, 0.59490806, -0.47435990, -0.38164103, 0.00521811, -0.00324558, 0.00473285, 100.31100464, 84.75119781, 33.45000076, 0.00000000
1, 21.0101, 1320, -0.05563302, -0.98414457, 0.14791714, 0.36645427, -2.62572670, 0.05105052, -31.30663490, 7.30780458, -106.84010315, 99.09668732, -2.50717092, -75.02041626, -0.52467614, 0.59483522, -0.47449520, -0.38175967, 0.01149341, -0.00258121, 0.00824794, 100.31100464, 84.75119781, 33.45000076, 0.00000000
1, 21.0201, 1321, -0.05954063, -0.98480070, 0.14819038, 0.55807120, -2.30903673, -0.01394465, -31.54048538, 7.19087982, -107.36626434, 99.10327148, -2.50341201, -75.04322815, -0.52455115, 0.59478432, -0.47461900, -0.38185692, 0.01546392, -0.00191189, 0.00806700, 100.31100464, 84.75119781, 33.45000076, 0.00000000
1, 21.0301, 1322, -0.05024942, -0.98475540, 0.14788729, 0.62893409, -2.30631852, -0.10241241, -31.54048538, 7.19087982, -107.36626434, 99.10696411, -2.50202084, -75.06513977, -0.52445346, 0.59471536, -0.47473893, -0.38194937, 0.00623401, -0.00194270, 0.00849786, 100.31100464, 84.75119781, 33.45000076, 0.00000000
1, 21.0401, 1323, -0.06269248, -0.98197699, 0.15062580, 0.61549532, -2.70302510, -0.26943180, -31.27740479, 7.01549244, -107.16164398, 99.11427307, -2.49510980, -75.09144592, -0.52430052, 0.59466439, -0.47486931, -0.38207629, 0.01873193, -0.00471493, 0.00581690, 100.31100464, 84.75119781, 33.45000076, 0.00000000
1, 21.0501, 1324, -0.06286339, -0.98391128, 0.14275180, 1.02054214, -2.36911607, -0.24910296, -31.39432907, 6.86933661, -107.16164398, 99.12546539, -2.48890853, -75.11445618, -0.52414125, 0.59464234, -0.47499880, -0.38216835, 0.01903887, -0.00274678, 0.01384921, 100.31100464, 84.75119781, 33.45000076, 0.00000000
1, 21.0601, 1325, -0.06610227, -0.97825086, 0.14718755, 0.72478354, -1.51090991, -0.55787814, -31.71587181, 6.40163708, -106.98625946, 99.13330078, -2.48102236, -75.12850952, -0.52402258, 0.59464806, -0.47506317, -0.38224223, 0.02238631, -0.00839422, 0.00957369, 100.31100464, 84.75119781, 33.45000076, 0.00000000
1, 21.0701, 1326, -0.06968636, -0.98087120, 0.14101210, 1.21250677, -0.70170254, -0.72005975, -31.62817764, 7.33703566, -106.75241089, 99.14567566, -2.47277212, -75.13431549, -0.52390641, 0.59470999, -0.47509831, -0.38226151, 0.02613486, -0.00573921, 0.01592904, 100.31100464, 84.75119781, 33.45000076, 0.00000000
1, 21.0801, 1327, -0.06088457, -0.98268557, 0.15179035, 1.09916949, -0.19333720, -0.89928693, -31.62817764, 7.33703566, -106.75241089, 99.15570831, -2.47813272, -75.13531494, -0.52387214, 0.59473258, -0.47516054, -0.38219586, 0.01739427, -0.00391723, 0.00535106, 100.31100464, 84.75119781, 33.45000076, 0.00000000
1, 21.0901, 1328, -0.04971880, -0.98499155, 0.15520078, 1.36704218, -0.27881822, -0.86968219, -30.78047371, 5.52470016, -106.84010315, 99.16942596, -2.46906495, -75.13668060, -0.52376056, 0.59482193, -0.47517356, -0.38219368, 0.00619085, -0.00158054, 0.00218189, 100.31100464, 84.75119781, 33.45000076, 0.00000000
1, 21.1001, 1329, -0.05006143, -0.98198020, 0.15003736, 1.44350541, -0.74560171, -0.98693812, -31.51125336, 7.24934244, -106.84010315, 99.18408966, -2.45810318, -75.14249420, -0.52362168, 0.59490383, -0.47520441, -0.38221794, 0.00672605, -0.00455281, 0.00758677, 100.31100464, 84.75119781, 33.45000076, 0.00000000
1, 21.1101, 1330, -0.05219967, -0.98334038, 0.15004785, 1.65290499, -0.39728150, -0.91119695, -31.59894753, 6.81087399, -107.48319244, 99.20070648, -2.44843125, -75.14496613, -0.52348894, 0.59500396, -0.47523016, -0.38221198, 0.00903960, -0.00315476, 0.00785090, 100.31100464, 84.75119781, 33.45000076, 0.00000000
1, 21.1201, 1331, -0.04899211, -0.98470640, 0.15013172, 1.62915742, 0.10645418, -0.86383563, -31.68664169, 7.04472351, -106.72318268, 99.21687317, -2.44001746, -75.14253235, -0.52337980, 0.59511787, -0.47523445, -0.38217872, 0.00598669, -0.00175026, 0.00805260, 100.31100464, 84.75119781, 33.45000076, 0.00000000
1, 21.1301, 1332, -0.04205797, -0.98462880, 0.15733920, 1.76006460, -0.43155730, -0.89585185, -31.68664169, 7.04472351, -106.72318268, 99.23656464, -2.43128705, -75.14590454, -0.52323174, 0.59522492, -0.47527930, -0.38215908, -0.00080694, -0.00179669, 0.00116959, 100.31100464, 84.75119781, 33.45000076, 0.00000000
1, 21.1401, 1333, -0.03746112, -0.98468471, 0.15911493, 1.73814929, -0.06830808, -0.79928428, -30.60508537, 6.02163124, -106.66471863, 99.25390625, -2.42325807, -75.14530182, -0.52311188, 0.59533513, -0.47529870, -0.38212729, -0.00526982, -0.00169609, -0.00026554, 100.31100464, 84.75119781, 33.45000076, 0.00000000
1, 21.1501, 1334, -0.03148346, -0.98622119, 0.15991524, 1.56750965, -0.58337736, -0.44134101, -31.45279121, 7.62934828, -106.92779541, 99.26979065, -2.41792846, -75.15034485, -0.52299148, 0.59540570, -0.47535446, -0.38211289, -0.01113695, -0.00011917, -0.00076855, 100.31100464, 84.75119781, 33.45000076, 0.00000000
1, 21.1601, 1335, -0.03463658, -0.98509753, 0.16350155, 1.26151061, -0.25747055, -0.34204715, -31.42355919, 6.92779875, -106.86933899, 99.28248596, -2.41411042, -75.15234375, -0.52290368, 0.59546894, -0.47539046, -0.38208973, -0.00791791, -0.00121290, -0.00412073, 100.31100464, 84.75119781, 33.45000076, 0.00000000
1, 21.1701, 1336, -0.04405803, -0.98724425, 0.16270040, 1.17229152, -0.19281499, -0.16410944, -31.39432907, 7.33703566, -107.04472351, 99.29426575, -2.41214585, -75.15397644, -0.52282923, 0.59552288, -0.47542956, -0.38205880, 0.00155278, 0.00096701, -0.00314022, 100.31100464, 84.75119781, 33.45000076, 0.00000000
1, 21.1801, 1337, -0.04878469, -0.98519158, 0.15877776, 0.97182965, 0.23763435, -0.02861501, -31.39432907, 7.33703566, -107.04472351, 99.30034637, -2.42133164, -75.15117645, -0.52284342, 0.59552956, -0.47547558, -0.38197175, 0.00625909, -0.00105137, 0.00093653, 100.31100464, 84.75119781, 33.45000076, 0.00000000
1, 21.1901, 1338, -0.04729945, -0.98689854, 0.15961988, 0.94635522, 0.89675868, 0.07505025, -31.18971062, 7.22011089, -106.81087494, 99.30944061, -2.42348862, -75.14241791, -0.52283382, 0.59559971, -0.47546989, -0.38188252, 0.00462883, 0.00067883, 0.00020804, 100.31100464, 84.75119781, 33.45000076, 0.00000000
1, 21.2201, 1339, -0.03964277, -0.98345315, 0.15753675, 0.73361373, 1.00000763, 0.78126305, -30.92663002, 7.10318613, -107.24934387, 99.33193970, -2.44323063, -75.11234283, -0.52289522, 0.59575701, -0.47547513, -0.38154638, -0.00331827, -0.00268502, 0.00271522, 100.31100464, 84.75119781, 33.45000076, 0.00000000
1, 21.2301, 1340, -0.02960607, -0.98646665, 0.15835516, 0.82404220, 0.95723307, 1.14714050, -30.92663002, 7.10318613, -107.24934387, 99.34207916, -2.44175529, -75.10456085, -0.52286255, 0.59584081, -0.47546199, -0.38147670, -0.01349051, 0.00035555, 0.00205422, 100.31100464, 84.75119781, 33.45000076, 0.00000000
1, 21.2401, 1341, -0.03274491, -0.98588991, 0.16317588, 0.47098207, 0.80774111, 1.44601500, -30.80970383, 6.31394339, -106.92779541, 99.34658051, -2.45732379, -75.09889984, -0.52291965, 0.59582949, -0.47551581, -0.38134897, -0.01043653, -0.00020420, -0.00264092, 100.31100464, 84.75119781, 33.45000076, 0.00000000
1, 21.2501, 1342, -0.03890086, -0.98318315, 0.16045545, 0.46884021, 1.07661986, 1.85555112, -31.83279800, 6.78164291, -107.01548767, 99.35098267, -2.47736001, -75.09123993, -0.52300149, 0.59581012, -0.47557861, -0.38118860, -0.00458693, -0.00288069, 0.00014238, 100.31100464, 84.75119781, 33.45000076, 0.00000000
1, 21.2601, 1343, -0.03667826, -0.98260891, 0.16276784, 0.33198401, 0.71767294, 2.25183773, -31.39432907, 7.01549244, -106.98625946, 99.35420990, -2.50072742, -75.08777618, -0.52308869, 0.59575617, -0.47567391, -0.38103443, -0.00720529, -0.00343280, -0.00211025, 100.31100464, 84.75119781, 33.45000076, 0.00000000
1, 21.2701, 1344, -0.03211341, -0.98326182, 0.16286136, 0.61094427, 1.31518149, 2.85841560, -30.95586014, 7.30780458, -106.75241089, 99.36001587, -2.53104877, -75.07937622, -0.52320629, 0.59570974, -0.47578257, -0.38080972, -0.01224860, -0.00274410, -0.00210365, 100.31100464, 84.75119781, 33.45000076, 0.00000000
