SensorId, TimeStamp (s), FrameNumber, AccX (g), AccY (g), AccZ (g), GyroX (deg/s), GyroY (deg/s), GyroZ (deg/s), MagX (uT), MagY (uT), MagZ (uT), EulerX (deg), EulerY (deg), EulerZ (deg), QuatW, QuatX, QuatY, QuatZ, LinAccX (g), LinAccY (g), LinAccZ (g), Pressure (kPa), Altitude (m), Temperature (degC), HeaveMotion (m)
1, 28.3701, 1998, 0.82722735, -2.02519059, 0.79123169, -66.20417023, 162.55528259, 157.69821167, -47.70534897, 9.20783424, -112.07249451, 86.75040436, -32.19596100, -70.18051147, -0.68091124, 0.42405272, -0.54423755, -0.24565160, -1.35371768, 1.17342210, -0.83094013, 100.31300354, 84.58345032, 33.45999908, 0.00000000
1, 28.3801, 1999, 0.77193481, -1.94296205, 0.72363985, -67.79340363, 184.26618958, 153.76676941, -47.70534897, 9.99707699, -113.88482666, 84.81738281, -33.58482742, -67.85736847, -0.69526488, 0.41665852, -0.53737307, -0.23287933, -1.31949186, 1.10641289, -0.78984731, 100.31300354, 84.58345032, 33.45999908, 0.00000000
1, 28.3901, 2000, 0.40560129, -1.96418774, 0.63695300, -75.70276642, 162.38676453, 149.64796448, -47.47150040, 10.75708866, -114.44022369, 82.85497284, -34.89815903, -65.70739746, -0.70852184, 0.40829486, -0.53130800, -0.22136849, -0.97225034, 1.14331806, -0.73133618, 100.31300354, 84.58345032, 33.45999908, 0.00000000
1, 28.4001, 2001, -0.10745490, -2.04084158, 0.61853850, -100.45380402, 143.82553101, 147.10202026, -48.34843445, 11.69248772, -116.19409180, 80.68594360, -36.14896393, -63.69786072, -0.72146517, 0.39798057, -0.52561116, -0.21173637, -0.47749233, 1.23653579, -0.74153489, 100.31300354, 84.58345032, 33.45999908, 0.00000000
1, 28.4101, 2002, -0.19335124, -1.85711706, 0.45835420, -128.16551208, 158.40725708, 138.37329102, -48.66997910, 12.74481106, -117.15872192, 78.05576324, -37.21730804, -61.43587112, -0.73557031, 0.38641959, -0.51795161, -0.20332837, -0.40724331, 1.07055092, -0.61362183, 100.31300354, 84.58345032, 33.45999908, 0.00000000
1, 28.4201, 2003, -0.02868499, -1.64380789, 0.05752643, -130.59161377, 154.45028687, 137.64387512, -48.66997910, 12.74481106, -117.15872192, 75.34458160, -38.20193863, -59.13232803, -0.74922824, 0.37449506, -0.51023811, -0.19510913, -0.58478558, 0.87627077, -0.24668294, 100.31300354, 84.58345032, 33.45999908, 0.00000000
1, 28.4301, 2004, -0.01343457, -1.42479360, -0.17862020, -112.84953308, 91.62146759, 143.68453979, -48.75767136, 13.73867321, -119.00028992, 73.20596313, -39.31760406, -57.50252914, -0.75928020, 0.36237970, -0.50686806, -0.18777454, -0.61386275, 0.67712772, -0.03919863, 100.31300354, 84.58345032, 33.45999908, 0.00000000
1, 28.4401, 2005, -0.27847964, -1.07081497, 0.09262858, -91.89843750, -64.38626099, 143.67773438, -48.84536743, 13.56328583, -119.93569183, 72.45114899, -40.88495255, -57.74671555, -0.76159567, 0.34886053, -0.51411885, -0.18425599, -0.36800233, 0.34243473, -0.32307380, 100.31300354, 84.58345032, 33.45999908, 0.00000000
1, 28.4501, 2006, -0.81273788, -0.84307837, 0.13774727, -78.73065948, -144.21832275, 138.04949951, -50.54077530, 16.10640144, -119.38029480, 72.52093506, -42.63887787, -59.02875519, -0.75961632, 0.33506086, -0.52655208, -0.18292180, 0.14333767, 0.13409509, -0.36466792, 100.31300354, 84.58345032, 33.45999908, 0.00000000
1, 28.4601, 2007, -1.28239870, -0.60548222, -0.08841390, -69.12018585, -80.52368164, 116.52120972, -52.44080734, 17.83104324, -119.49722290, 72.22050476, -43.99505615, -59.59521866, -0.75973082, 0.32381377, -0.53414273, -0.18067992, 0.59397435, -0.08539468, -0.13537064, 100.31300354, 84.58345032, 33.45999908, 0.00000000
1, 28.4701, 2008, -1.36044788, -0.31835973, -0.03183881, -65.51158905, -38.46291733, 87.10508728, -52.44080734, 17.83104324, -119.49722290, 71.65960693, -44.94412994, -59.72660828, -0.76112717, 0.31479371, -0.53809536, -0.17900805, 0.65822458, -0.35810232, -0.19361416, 100.31300354, 84.58345032, 33.45999908, 0.00000000
1, 28.4801, 2009, -1.22439933, -0.10973527, 0.08953961, -48.35314560, -34.56093979, 57.46573257, -52.58696365, 17.94796753, -119.26337433, 71.34007263, -45.66426849, -59.94356537, -0.76164502, 0.30807537, -0.54156160, -0.17803818, 0.51221615, -0.55606395, -0.31639743, 100.31300354, 84.58345032, 33.45999908, 0.00000000
1, 28.4901, 2010, -0.91829795, -0.11303334, 0.15522499, -25.05507851, -16.13353729, 28.56764603, -53.28851318, 18.38643646, -119.46798706, 71.15216827, -45.98730469, -60.02997971, -0.76199675, 0.30480844, -0.54300940, -0.17774613, 0.19988631, -0.54620409, -0.38170737, 100.31300354, 84.58345032, 33.45999908, 0.00000000
1, 28.5001, 2011, -0.53767288, -0.06141101, 0.27851951, -9.95517731, 8.77605343, 8.98941517, -53.84390640, 19.17568016, -119.32183075, 70.93637848, -46.04381943, -59.86817169, -0.76281649, 0.30385745, -0.54250944, -0.17738481, -0.18283932, -0.59544241, -0.50579762, 100.31300354, 84.58345032, 33.45999908, 0.00000000
1, 28.5101, 2012, -0.20414925, 0.01721852, 0.35867575, 12.00557137, 16.14160347, -11.51495075, -53.63928604, 18.88336754, -119.81876373, 70.93760681, -45.88176727, -59.70334625, -0.76308149, 0.30545136, -0.54131347, -0.17716061, -0.51556873, -0.67479742, -0.58642340, 100.31300354, 84.58345032, 33.45999908, 0.00000000
1, 28.5201, 2013, 0.01949855, 0.01059331, 0.25690764, 23.72147751, 17.96094894, -31.00458145, -53.63928604, 18.88336754, -119.81876373, 71.10401917, -45.52947235, -59.60556412, -0.76281160, 0.30876929, -0.53965342, -0.17763564, -0.73553514, -0.67180097, -0.48391610, 100.31300354, 84.58345032, 33.45999908, 0.00000000
1, 28.5301, 2014, 0.09544472, 0.01427466, 0.09772699, 27.47597694, 22.82014084, -47.91933823, -53.55159378, 18.12335587, -119.20491028, 71.32740784, -44.99235153, -59.52758408, -0.76234806, 0.31328088, -0.53725815, -0.17898163, -0.80537629, -0.68150926, -0.32406133, 100.31300354, 84.58345032, 33.45999908, 0.00000000
1, 28.5401, 2015, 0.03643763, 0.00483585, -0.00917863, 32.17778015, 23.66711044, -61.29635620, -53.11312485, 15.02484608, -119.67260742, 71.61959839, -44.33508682, -59.48780441, -0.76160276, 0.31865206, -0.53450018, -0.18091886, -0.73841858, -0.68017012, -0.21673708, 100.31300354, 84.58345032, 33.45999908, 0.00000000
1, 28.5501, 2016, -0.11903563, -0.02364911, -0.06572399, 39.45394897, 7.66533756, -72.70668030, -52.17772675, 17.36334419, -120.05261230, 72.16133881, -43.61942291, -59.70274353, -0.75969344, 0.32476836, -0.53257924, -0.18371406, -0.57407987, -0.66137439, -0.15809217, 100.31300354, 84.58345032, 33.45999908, 0.00000000
1, 28.5601, 2017, -0.30728862, -0.03513723, -0.09491412, 45.07828140, -16.09347153, -85.15715790, -51.50540543, 15.52177715, -118.85413361, 72.99546051, -42.85457993, -60.26567459, -0.75627369, 0.33143184, -0.53193873, -0.18773490, -0.37635145, -0.66115719, -0.12327614, 100.31300354, 84.58345032, 33.45999908, 0.00000000
1, 28.5701, 2018, -0.44600800, -0.02085399, -0.10161524, 54.71444702, -43.16237640, -101.96138763, -51.76848984, 15.58023930, -118.73721313, 74.18336487, -41.99822998, -61.21929169, -0.75097197, 0.33903247, -0.53270853, -0.19318335, -0.22712253, -0.68861216, -0.10675095, 100.31300354, 84.58345032, 33.45999908, 0.00000000
1, 28.5801, 2019, -0.51230091, -0.01298645, -0.08201467, 64.37963867, -54.95987701, -118.64736938, -51.76848984, 15.58023930, -118.73721313, 75.56421661, -41.01948547, -62.34018326, -0.74448389, 0.34766108, -0.53393531, -0.19947129, -0.14868036, -0.71163332, -0.11297567, 100.31300354, 84.58345032, 33.45999908, 0.00000000
1, 28.5901, 2020, -0.54186350, -0.02216734, -0.04668397, 73.61547852, -59.64247513, -137.33152771, -51.62233353, 14.79099655, -118.00643158, 77.06945038, -39.82595444, -63.53116226, -0.73700047, 0.35774577, -0.53487468, -0.20677851, -0.10466881, -0.71943212, -0.13273911, 100.31300354, 84.58345032, 33.45999908, 0.00000000
1, 28.6001, 2021, -0.54125875, -0.04316214, 0.00003733, 80.73323059, -58.48819351, -156.88363647, -51.03770828, 13.59251690, -117.86027527, 78.60911560, -38.41508865, -64.69747162, -0.72882068, 0.36913425, -0.53513145, -0.21492957, -0.08752391, -0.71747226, -0.16265833, 100.31300354, 84.58345032, 33.45999908, 0.00000000
1, 28.6101, 2022, -0.53546071, -0.07119019, 0.02494620, 86.46466827, -51.30766678, -175.48577881, -50.36539078, 12.10172462, -117.12949371, 80.11003113, -36.78453445, -65.74656677, -0.72023261, 0.38178265, -0.53428686, -0.22370638, -0.07214149, -0.70991915, -0.17037436, 100.31300354, 84.58345032, 33.45999908, 0.00000000
1, 28.6201, 2023, -0.50606561, -0.09927911, 0.01208306, 92.54315186, -36.29680634, -195.13253784, -48.64074707, 10.02630806, -116.10639954, 81.51776886, -34.91528320, -66.57695007, -0.71151340, 0.39589229, -0.53178293, -0.23286246, -0.07657237, -0.70342481, -0.14059392, 100.31300354, 84.58345032, 33.45999908, 0.00000000
1, 28.6301, 2024, -0.47091171, -0.11112276, 0.00839156, 98.74967194, -16.73296738, -212.84968567, -48.64074707, 10.02630806, -116.10639954, 82.81050110, -32.84547043, -67.13127899, -0.70286739, 0.41136962, -0.52744925, -0.24197069, -0.08288617, -0.71403438, -0.12083253, 100.31300354, 84.58345032, 33.45999908, 0.00000000
1, 28.6401, 2025, -0.41050124, -0.11075647, 0.00968789, 106.46636963, -4.76313114, -225.61437988, -48.26074219, 10.20169544, -115.63870239, 84.06127930, -30.60766983, -67.49488831, -0.69389248, 0.42805570, -0.52176946, -0.25107405, -0.11135307, -0.73690033, -0.10603325, 100.31300354, 84.58345032, 33.45999908, 0.00000000
1, 28.6501, 2026, -0.33525684, -0.12351213, -0.00135229, 117.52247620, 5.23420477, -235.52423096, -46.21455765, 6.57702398, -114.52791595, 85.32701111, -28.25527382, -67.69011688, -0.68439400, 0.44586632, -0.51509446, -0.25978026, -0.15173075, -0.74627686, -0.07805782, 100.31300354, 84.58345032, 33.45999908, 0.00000000
1, 28.6601, 2027, -0.28356531, -0.16097337, -0.01398859, 130.96855164, 10.66218948, -243.57542419, -44.86991882, 6.69394922, -113.79713440, 86.66574097, -25.81502533, -67.76674652, -0.67405319, 0.46471649, -0.50779921, -0.26801309, -0.16625509, -0.73000038, -0.04680993, 100.31300354, 84.58345032, 33.45999908, 0.00000000
1, 28.6701, 2028, -0.30143255, -0.25891504, -0.04654600, 145.33441162, 12.18683338, -251.20559692, -42.85296631, 5.64162540, -112.62788391, 88.11184692, -23.29652977, -67.76377869, -0.66260546, 0.48450053, -0.50012785, -0.27583578, -0.10910938, -0.65186858, 0.00660840, 100.31300354, 84.58345032, 33.45999908, 0.00000000
1, 28.6801, 2029, -0.34685594, -0.36002439, -0.08818720, 161.39266968, 13.44930077, -258.91616821, -42.85296631, 5.64162540, -112.62788391, 89.68321228, -20.70921326, -67.67606354, -0.64994019, 0.50520080, -0.49212402, -0.28313220, -0.02237638, -0.56884861, 0.07185043, 100.31300354, 84.58345032, 33.45999908, 0.00000000
1, 28.7001, 2030, -0.37753737, -0.54720223, -0.09886957, 192.34835815, 7.88336849, -272.88540649, -39.11137009, 3.01081562, -110.26015472, 93.26538086, -15.31224060, -67.31999207, -0.62013280, 0.54898429, -0.47548440, -0.29659122, 0.09648091, -0.41116631, 0.13988729, 100.31300354, 84.58345032, 33.45999908, 0.00000000
1, 28.7101, 2031, -0.35895225, -0.66325212, -0.08157755, 202.57281494, 8.61825943, -276.64349365, -36.27594376, 2.36772871, -108.59397888, 95.21373749, -12.55453300, -67.02531433, -0.60334969, 0.57137132, -0.46678030, -0.30268827, 0.12421064, -0.30551845, 0.15550554, 100.31300354, 84.58345032, 33.45999908, 0.00000000
1, 28.7201, 2032, -0.33160180, -0.79595661, 0.02301251, 209.92675781, 13.30794239, -278.57070923, -34.84361267, 0.73078048, -107.33703613, 97.22173309, -9.79405975, -66.58721161, -0.58578956, 0.59382790, -0.45750064, -0.30807823, 0.14367239, -0.17988935, 0.08545519, 100.31300354, 84.58345032, 33.45999908, 0.00000000
1, 28.7301, 2033, -0.33447549, -1.00705874, 0.09331644, 214.17247009, 20.28690910, -281.94607544, -34.84361267, 0.73078048, -107.33703613, 99.26625061, -7.03102255, -65.97913361, -0.56767017, 0.61624265, -0.44738191, -0.31280214, 0.19392014, 0.02780923, 0.05050337, 100.31300354, 84.58345032, 33.45999908, 0.00000000
1, 28.7401, 2034, -0.28728628, -1.22133100, 0.02458746, 218.65669250, 26.48568153, -286.11425781, -32.24203491, 0.26308095, -105.23238373, 101.36994171, -4.25703669, -65.20616150, -0.54886085, 0.63863194, -0.43640405, -0.31694254, 0.19491503, 0.24261534, 0.15542468, 100.31300354, 84.58345032, 33.45999908, 0.00000000
1, 28.7501, 2035, -0.19367512, -1.39606333, 0.00274663, 223.81111145, 13.58034515, -285.71636963, -29.61122513, -1.28617358, -103.88774872, 103.56316376, -1.48945498, -64.45944977, -0.52873772, 0.66025656, -0.42576987, -0.32127526, 0.14958474, 0.42174619, 0.21466106, 100.31300354, 84.58345032, 33.45999908, 0.00000000
1, 28.7601, 2036, -0.14595029, -1.57375467, -0.01991268, 227.46310425, -10.80416775, -280.66558838, -27.12657166, -4.85238218, -101.22770691, 105.82878876, 1.26004648, -63.85514450, -0.50711340, 0.68051744, -0.41622674, -0.32632411, 0.15001555, 0.60790253, 0.27533373, 100.31300354, 84.58345032, 33.45999908, 0.00000000
1, 28.7701, 2037, -0.20958935, -1.73621023, -0.05393080, 226.01969910, -49.69735336, -271.56683350, -24.81730461, -2.57234716, -99.64922333, 108.09548950, 4.00948286, -63.54054260, -0.48392648, 0.69860744, -0.40849495, -0.33300862, 0.26164457, 0.78270280, 0.34664011, 100.31300354, 84.58345032, 33.45999908, 0.00000000
1, 28.7801, 2038, -0.49279255, -1.84179592, -0.06951503, 217.47859192, -64.89698029, -262.42645264, -24.81730461, -2.57234716, -99.64922333, 110.28376770, 6.70110655, -63.29271317, -0.46056500, 0.71488547, -0.40135941, -0.34019020, 0.59237117, 0.90389520, 0.39688423, 100.31300354, 84.58345032, 33.45999908, 0.00000000
1, 28.7901, 2039, -0.74487764, -1.91660690, 0.02204749, 205.88642883, -31.20357895, -248.78686523, -22.85881233, -1.75387311, -96.95995331, 112.42344666, 9.13630581, -62.67427444, -0.43906546, 0.73063958, -0.39302716, -0.34484375, 0.88827276, 0.99665523, 0.33756274, 100.31300354, 84.58345032, 33.45999908, 0.00000000
1, 28.8001, 2040, -1.14860725, -2.03229690, 0.15676443, 191.05885315, -30.21879387, -236.27133179, -20.52031517, -3.30312777, -95.52762604, 114.44744873, 11.43019104, -62.00229263, -0.41860014, 0.74487388, -0.38469189, -0.34921211, 1.33162212, 1.13203883, 0.23219970, 100.31300354, 84.58345032, 33.45999908, 0.00000000
1, 28.8101, 2041, -1.36549366, -2.03173661, 0.16754422, 159.64329529, -25.19597054, -230.37118530, -19.87722778, -1.90002918, -94.44606781, 116.20732117, 13.62411499, -61.22721481, -0.40024608, 0.75742996, -0.37536228, -0.35384506, 1.58684015, 1.15193713, 0.24653728, 100.31300354, 84.58345032, 33.45999908, 0.00000000
1, 28.8201, 2042, -0.78429830, -1.99736845, 0.33606350, 113.55975342, 9.03491020, -230.54600525, -17.53873062, -2.04618526, -92.31218719, 117.63274384, 15.64144039, -60.06623459, -0.38582942, 0.76902258, -0.36320451, -0.35752288, 1.04076016, 1.13683581, 0.09927399, 100.31300354, 84.58345032, 33.45999908, 0.00000000
1, 28.8301, 2043, -0.11943040, -1.86240911, 0.16229321, 60.48575974, 116.26533508, -220.44425964, -17.53873062, -2.04618526, -92.31218719, 118.83512878, 17.03324509, -57.91516876, -0.37853214, 0.78144151, -0.34628975, -0.35517061, 0.40422142, 1.01900232, 0.29010597, 100.31300354, 84.58345032, 33.45999908, 0.00000000
1, 28.8401, 2044, 0.38372624, -1.76774693, 0.09471584, 36.20779037, 155.93519592, -195.42430115, -16.13563347, -0.40923706, -91.81525421, 119.92309570, 17.97580147, -55.48626709, -0.37463969, 0.79316986, -0.32882386, -0.34985960, -0.08102173, 0.93834728, 0.37295383, 100.31300354, 84.58345032, 33.45999908, 0.00000000
1, 28.8501, 2045, 0.38407055, -1.49213171, -0.23803177, 34.60472107, 54.66820145, -136.42370605, -13.91405964, -3.01081562, -90.85062408, 120.65053558, 18.88137436, -54.26464462, -0.36963487, 0.79979861, -0.31860027, -0.34955129, -0.06553201, 0.67478001, 0.71630859, 100.31300354, 84.58345032, 33.45999908, 0.00000000
1, 28.8601, 2046, -0.40237331, -1.02898073, -0.82713777, 46.21871567, -39.86780930, -85.42288208, -13.79713535, 1.28617358, -91.17217255, 121.14281464, 19.82090950, -54.16353989, -0.36269504, 0.80240065, -0.31530964, -0.35381562, 0.73768187, 0.22194207, 1.30964208, 100.31300354, 84.58345032, 33.45999908, 0.00000000
1, 28.8701, 2047, -1.40067804, -0.78567886, -1.16932070, 60.94822693, -99.86015320, -36.53012466, -12.86173630, 0.61385560, -90.70446777, 121.50579834, 20.65260124, -54.87128830, -0.35454026, 0.80219680, -0.31777480, -0.36027861, 1.75150764, -0.01283651, 1.65264153, 100.31300354, 84.58345032, 33.45999908, 0.00000000
1, 28.8801, 2048, -1.34788728, -0.98523045, -0.62934285, 67.22042847, -100.58395386, 4.13846970, -13.15404797, -1.81233561, -90.82139587, 121.82299805, 21.11978912, -55.81767654, -0.34738082, 0.80085683, -0.32336837, -0.36522311, 1.70763946, 0.19202244, 1.11516547, 100.31300354, 84.58345032, 33.45999908, 0.00000000
1, 28.8901, 2049, -0.63745129, -1.37987065, -0.07079463, 33.23427582, -2.88126349, 39.44584274, -13.15404797, -1.81233561, -90.82139587, 122.06619263, 20.80030251, -56.06719589, -0.34622991, 0.80065215, -0.32726789, -0.36328611, 0.99617416, 0.58822995, 0.56147438, 100.31300354, 84.58345032, 33.45999908, 0.00000000
1, 28.9001, 2050, 0.11379410, -1.49677122, -0.04123484, -25.63075638, 109.47860718, 74.84091949, -13.53405380, 1.05232382, -90.03215027, 122.00762939, 19.58518410, -55.50016403, -0.35348231, 0.80116636, -0.32835290, -0.35407236, 0.22945166, 0.70081103, 0.53761464, 100.31300354, 84.58345032, 33.45999908, 0.00000000
1, 28.9101, 2051, 0.78496766, -1.47079802, 0.26076686, -55.21627426, 66.27516174, 88.01584625, -13.97252274, 0.87693655, -90.17830658, 121.49353790, 18.48637581, -55.39352417, -0.36192471, 0.79895312, -0.33075160, -0.34826416, -0.46236306, 0.66545600, 0.23635656, 100.31300354, 84.58345032, 33.45999908, 0.00000000
1, 28.9201, 2052, 1.77554309, -1.02573168, 1.26716816, -52.95840073, -66.69306946, 71.84842682, -14.93715286, 1.57848585, -90.76293182, 120.65496063, 18.21122169, -56.38711548, -0.36584729, 0.79314643, -0.33627751, -0.35212496, -1.46598601, 0.20929094, -0.77554178, 100.31300354, 84.58345032, 33.45999908, 0.00000000
1, 28.9301, 2053, 2.93815660, -0.99883795, 2.44914627, 28.68177223, -203.47573853, 3.98177147, -14.87869072, -2.77696586, -90.85062408, 120.34371185, 19.20568848, -58.26171112, -0.35794690, 0.78756303, -0.34391698, -0.36515704, -2.62294579, 0.17788497, -1.96456337, 100.31300354, 84.58345032, 33.45999908, 0.00000000
1, 28.9401, 2054, 2.14074993, -2.71370721, -0.56433475, -58.61885071, -243.09837341, -34.81184387, -14.87869072, -2.77696586, -90.85062408, 119.05167389, 20.71540642, -60.32154846, -0.35349196, 0.77884799, -0.34712747, -0.38463205, -1.79397142, 1.89987814, 1.03080344, 100.31300354, 84.58345032, 33.45999908, 0.00000000
1, 28.9501, 2055, -0.52357775, -1.54769897, -2.04816771, -123.21438599, 70.02838898, 55.05791092, -15.05407715, 1.54925454, -92.25372314, 117.95162964, 19.90115547, -59.93923950, -0.36579803, 0.77568936, -0.34448940, -0.38187033, 0.87765443, 0.72510767, 2.48699999, 100.31300354, 84.58345032, 33.45999908, 0.00000000
1, 28.9601, 2056, 0.43141997, -0.84954405, 1.01163316, 3.79059529, -111.48683167, 108.38793182, -15.66793346, 0.78924292, -92.51680756, 117.46948242, 19.45317268, -61.52051926, -0.36571589, 0.76880658, -0.35553917, -0.38572046, -0.10189535, 0.01238676, -0.57413107, 100.31300354, 84.58345032, 33.45999908, 0.00000000
1, 28.9701, 2057, -0.52468669, -1.46209037, 0.18568040, 76.53830719, -209.36245728, 115.52192688, -16.72025681, 0.81847411, -92.48757935, 117.39145660, 19.38911819, -64.05522156, -0.35790431, 0.76042795, -0.37247366, -0.39359531, 0.85789269, 0.62478650, 0.24431880, 100.31300354, 84.58345032, 33.45999908, 0.00000000
1, 28.9801, 2058, -0.73224914, -2.29920602, -1.05427825, 36.10723114, -26.74635124, 94.03009796, -18.26951218, 0.40923706, -92.25372314, 117.51692963, 18.67491913, -64.76584625, -0.35789233, 0.75752878, -0.38077942, -0.39124209, 1.05981982, 1.46215582, 1.48553920, 100.31300354, 84.58345032, 33.45999908, 0.00000000
1, 28.9901, 2059, 0.01261120, -1.99971497, -0.10161423, -79.46623993, -54.62292862, 89.28110504, -18.26951218, 0.40923706, -92.25372314, 116.42938232, 18.12266159, -65.70676422, -0.36434594, 0.75016755, -0.38568872, -0.39464554, 0.30139297, 1.15329432, 0.52826214, 100.31300354, 84.58345032, 33.45999908, 0.00000000
1, 29.0001, 2060, 0.36423227, -1.18195510, 0.36236477, -40.93188858, -195.10815430, 104.19495392, -18.44489861, -3.56620860, -93.21835327, 115.30171967, 18.02881050, -68.03200531, -0.36398911, 0.73849362, -0.39727497, -0.40535396, -0.05524606, 0.32445702, 0.04850516, 100.31300354, 84.58345032, 33.45999908, 0.00000000
1, 29.0101, 2061, 0.50601590, -0.85060072, 0.67856818, 0.61710066, -230.30517578, 113.30770874, -19.14644814, -0.58462435, -93.68605804, 114.47743225, 17.96618080, -70.72994232, -0.35988015, 0.72625822, -0.41184282, -0.41643840, -0.19897011, -0.01393741, -0.27974632, 100.31300354, 84.58345032, 33.45999908, 0.00000000
1, 29.0201, 2062, 0.10969650, -0.44521329, 0.78467149, 3.98642302, -260.30984497, 120.22607422, -19.96492195, -2.39696002, -93.86144257, 113.59105682, 17.92306328, -73.74349976, -0.35453913, 0.71237528, -0.42768365, -0.42884749, 0.19660386, -0.42578012, -0.39967072, 100.31300354, 84.58345032, 33.45999908, 0.00000000
1, 29.0301, 2063, -0.58425498, -0.64205110, 0.78394270, 2.06436706, -183.21115112, 109.41685486, -21.95264435, -1.60771704, -93.94913483, 112.94925690, 17.60629654, -75.96057129, -0.35170040, 0.70137018, -0.44034666, -0.43644202, 0.88722372, -0.23474647, -0.41162300, 100.31300354, 84.58345032, 33.45999908, 0.00000000
1, 29.0401, 2064, -1.20667064, -0.69530785, 0.76787084, -15.43963337, -107.54634094, 84.45300293, -21.95264435, -1.60771704, -93.94913483, 112.38325500, 17.23910713, -77.34131622, -0.35170504, 0.69350761, -0.44821149, -0.44097310, 1.50341320, -0.18712899, -0.40550843, 100.31300354, 84.58345032, 33.45999908, 0.00000000
1, 29.0501, 2065, -1.37071371, -0.68474615, 0.70541447, -4.77936172, -51.10290146, 70.13453674, -22.85881233, -1.95849168, -94.35837555, 112.11094666, 16.78196907, -78.11275482, -0.35268635, 0.68863583, -0.45383441, -0.44207168, 1.66078329, -0.20208463, -0.34881607, 100.31300354, 84.58345032, 33.45999908, 0.00000000
1, 29.0601, 2066, -0.57722431, -0.78779209, 0.53707677, 9.96607876, 12.98367691, 61.78243256, -23.32651329, -2.74773455, -94.62145233, 112.17862701, 16.16071892, -78.22897339, -0.35497665, 0.68699467, -0.45752296, -0.43897903, 0.85829115, -0.10170519, -0.17841630, 100.31300354, 84.58345032, 33.45999908, 0.00000000
1, 29.0701, 2067, 0.23821668, -0.92908967, 0.46003079, 7.97801542, 71.45365906, 48.47948837, -23.70651817, -2.28003502, -94.41683960, 112.39450836, 15.44192886, -77.73186493, -0.35919219, 0.68803298, -0.45850259, -0.43285900, 0.03162122, 0.03785826, -0.09543829, 100.31300354, 84.58345032, 33.45999908, 0.00000000
1, 29.0801, 2068, 0.51447076, -0.94960260, 0.29974085, -3.73486590, 64.47843933, 46.07877731, -24.29114342, -1.49079216, -94.53376007, 112.44615936, 14.80893135, -77.30164337, -0.36366236, 0.68848264, -0.45886570, -0.42799973, -0.25613505, 0.05644114, 0.06877742, 100.31300354, 84.58345032, 33.45999908, 0.00000000
1, 29.0901, 2069, 0.61450684, -0.95103562, 0.01736844, 2.64619303, -7.24394608, 52.87579727, -24.29114342, -1.49079216, -94.53376007, 112.40473175, 14.34743500, -77.57841492, -0.36517718, 0.68618011, -0.46237028, -0.42663381, -0.36405301, 0.05613524, 0.35199431, 100.31300354, 84.58345032, 33.45999908, 0.00000000
1, 29.1001, 2070, 0.52117121, -0.98029816, 0.04962633, 3.42647266, -61.21875763, 60.55271149, -24.72961044, -1.75387311, -94.27068329, 112.23972321, 14.01861668, -78.39916229, -0.36474219, 0.68155330, -0.46807045, -0.42820358, -0.27713144, 0.08307948, 0.31820250, 100.31300354, 84.58345032, 33.45999908, 0.00000000
1, 29.1101, 2071, 0.10667859, -1.00101531, 0.19561440, 2.87238121, -94.91277313, 60.08964920, -25.08038521, -1.98772287, -94.56299591, 111.99629211, 13.81754875, -79.53775787, -0.36292177, 0.67561412, -0.47476220, -0.43178046, 0.13279030, 0.10116912, 0.16807765, 100.31300354, 84.58345032, 33.45999908, 0.00000000
1, 29.1201, 2072, -0.33896419, -0.99073172, 0.30359337, 2.72367120, -78.05417633, 54.20151138, -25.84039688, -2.86465931, -94.18298340, 111.79872131, 13.60426903, -80.49091339, -0.36155882, 0.67049235, -0.48052466, -0.43452421, 0.57490778, 0.08854681, 0.05578704, 100.31300354, 84.58345032, 33.45999908, 0.00000000
1, 29.1301, 2073, -0.34628999, -0.95623744, 0.50063229, 0.75897866, 1.24090564, 44.02354813, -26.68810272, -1.95849168, -93.65682220, 111.80407715, 13.10663223, -80.63925934, -0.36349162, 0.66864073, -0.48352683, -0.43242943, 0.57562566, 0.05185576, -0.14194381, 100.31300354, 84.58345032, 33.45999908, 0.00000000
1, 29.1401, 2074, -0.00953928, -0.89094019, 0.56705862, -2.74927807, 23.63191414, 37.17084885, -26.68810272, -1.95849168, -93.65682220, 111.79627228, 12.67381382, -80.55509186, -0.36604521, 0.66787839, -0.48483852, -0.42997789, 0.23025787, -0.01527673, -0.20644915, 100.31300354, 84.58345032, 33.45999908, 0.00000000
1, 29.1601, 2075, 0.27340496, -0.87504852, 0.49330193, -7.29543543, 7.28678608, 38.81957245, -27.50657654, -3.56620860, -94.35837555, 111.66802216, 11.86359501, -80.57191467, -0.37081406, 0.66532135, -0.48787084, -0.42641133, -0.06664059, -0.03454861, -0.13233505, 100.31300354, 84.58345032, 33.45999908, 0.00000000
1, 29.1701, 2076, 0.07431385, -0.87400651, 0.44067425, -7.01632833, -2.55154037, 38.84440994, -27.94504547, -2.68927217, -95.20607758, 111.56441498, 11.51143360, -80.74175262, -0.37255394, 0.66334611, -0.48994750, -0.42559016, 0.12639783, -0.03734654, -0.08133290, 100.31300354, 84.58345032, 33.45999908, 0.00000000
1, 29.1801, 2077, -0.01995875, -0.93063223, 0.34033117, -8.17217636, 11.71337414, 36.92073822, -28.03273773, -2.60157847, -95.14761353, 111.46724701, 11.09034634, -80.76931000, -0.37512705, 0.66180593, -0.49150795, -0.42392519, 0.21451782, 0.01763112, 0.01762339, 100.31300354, 84.58345032, 33.45999908, 0.00000000
1, 29.1901, 2078, 0.06306258, -0.95835388, 0.30002341, -12.16228867, 38.30078125, 35.04644775, -28.26658821, -2.36772871, -94.91376495, 111.39038086, 10.62428093, -80.53598022, -0.37876129, 0.66132057, -0.49182209, -0.42107731, 0.12356967, 0.04342104, 0.05728734, 100.31300354, 84.58345032, 33.45999908, 0.00000000
1, 29.2001, 2079, 0.13244428, -0.95992005, 0.30957410, -13.20972347, 37.97910309, 34.28096771, -28.26658821, -2.36772871, -94.91376495, 111.30125427, 10.16681385, -80.30256653, -0.38240573, 0.66080725, -0.49205410, -0.41830897, 0.04623151, 0.04307109, 0.04711269, 100.31300354, 84.58345032, 33.45999908, 0.00000000
1, 29.2101, 2080, 0.14113782, -0.95673335, 0.33436263, -14.95304775, 39.52763367, 34.44522476, -28.47120667, -4.41391420, -95.17684937, 111.19535065, 9.70257950, -80.05464935, -0.38621494, 0.66027081, -0.49216956, -0.41551149, 0.02956980, 0.03790977, 0.02126900, 100.31300354, 84.58345032, 33.45999908, 0.00000000
1, 29.2201, 2081, 0.12656675, -0.93618214, 0.36221418, -16.15593910, 37.56283188, 34.60648727, -28.14966393, -2.36772871, -95.14761353, 111.07239532, 9.24435139, -79.82533264, -0.39000633, 0.65960062, -0.49230638, -0.41286382, 0.03611163, 0.01532402, -0.00797307, 100.31300354, 84.58345032, 33.45999908, 0.00000000
1, 29.2301, 2082, 0.07702528, -0.92198730, 0.35682699, -15.99245739, 32.89397430, 34.72096634, -29.31891251, -5.43700647, -95.46916199, 110.94302368, 8.78504467, -79.63958740, -0.39366561, 0.65870517, -0.49267665, -0.41037142, 0.07787622, -0.00083174, -0.00429514, 100.31300354, 84.58345032, 33.45999908, 0.00000000
1, 29.2401, 2083, 0.02000411, -0.92406201, 0.37076333, -16.22019958, 35.36711121, 33.90650940, -28.99736977, -3.77082729, -95.84916687, 110.81327057, 8.34218025, -79.42700958, -0.39732596, 0.65795559, -0.49282464, -0.40786085, 0.12703316, -0.00070080, -0.02003120, 100.31300354, 84.58345032, 33.45999908, 0.00000000
1, 29.2501, 2084, 0.00746511, -0.93906915, 0.34180492, -16.43661499, 39.73316574, 32.59371567, -28.99736977, -3.77082729, -95.84916687, 110.68629456, 7.89667797, -79.16775513, -0.40113109, 0.65739655, -0.49272740, -0.40514636, 0.13196751, 0.01252295, 0.00719976, 100.31300354, 84.58345032, 33.45999908, 0.00000000
1, 29.2601, 2085, 0.05411490, -0.95271730, 0.31525996, -16.76342964, 44.58422852, 32.08256912, -29.84507370, -2.71850324, -96.28763580, 110.56050873, 7.43949509, -78.86014557, -0.40513554, 0.65700424, -0.49240756, -0.40217602, 0.07755459, 0.02443759, 0.03218126, 100.31300354, 84.58345032, 33.45999908, 0.00000000
1, 29.2701, 2086, 0.09345206, -0.96083724, 0.31885719, -17.69721031, 43.83036423, 31.95380402, -29.84507370, -3.01081562, -95.76147461, 110.42221832, 6.98680258, -78.55844879, -0.40914679, 0.65654153, -0.49206221, -0.39928323, 0.03030725, 0.03079052, 0.02688649, 100.31300354, 84.58345032, 33.45999908, 0.00000000
1, 29.2801, 2087, 0.10490226, -0.95592082, 0.28228682, -17.61426544, 38.41733551, 31.84124947, -30.63431740, -3.09850907, -95.49839020, 110.26236725, 6.55342770, -78.30751038, -0.41299194, 0.65582418, -0.49185640, -0.39674893, 0.01133117, 0.02417229, 0.06141478, 100.31300354, 84.58345032, 33.45999908, 0.00000000
1, 29.2901, 2088, 0.11452561, -0.95373487, 0.25456777, -17.49558258, 37.55170441, 32.39746857, -30.54662323, -5.29085064, -95.41069794, 110.11500549, 6.11975336, -78.06481171, -0.41671938, 0.65510190, -0.49174601, -0.39417303, -0.00572230, 0.02028404, 0.08689185, 100.31300354, 84.58345032, 33.45999908, 0.00000000
1, 29.3001, 2089, 0.10010549, -0.95197451, 0.30251819, -17.60057449, 30.17163467, 32.90641403, -30.54662323, -5.29085064, -95.41069794, 109.95760345, 5.70708609, -77.89267731, -0.42014572, 0.65408695, -0.49192116, -0.39199674, 0.00123609, 0.01680548, 0.03670070, 100.31300354, 84.58345032, 33.45999908, 0.00000000
1, 29.3101, 2090, 0.02011852, -0.94601917, 0.30754697, -18.97911835, 26.51977348, 32.90702438, -30.89739799, -2.13387895, -95.55685425, 109.78193665, 5.30724049, -77.75399780, -0.42348760, 0.65288490, -0.49217504, -0.39008135, 0.07421698, 0.00918803, 0.02895503, 100.31300354, 84.58345032, 33.45999908, 0.00000000
1, 29.3201, 2091, -0.02133521, -0.94401455, 0.31805018, -19.87319565, 29.74658585, 32.38190460, -31.04355431, -2.71850324, -96.05378723, 109.59929657, 4.90194273, -77.58185577, -0.42699382, 0.65177107, -0.49224055, -0.38803351, 0.10864097, 0.00549662, 0.01560982, 100.31300354, 84.58345032, 33.45999908, 0.00000000
1, 29.3301, 2092, -0.01784371, -0.93961620, 0.31742719, -19.78978348, 34.37097549, 31.29929352, -31.24817276, -4.44314528, -95.79070282, 109.41591644, 4.47909737, -77.36116791, -0.43073326, 0.65079749, -0.49210399, -0.38570100, 0.09798934, -0.00053674, 0.01346067, 100.31300354, 84.58345032, 33.45999908, 0.00000000
1, 29.3401, 2093, -0.00337459, -0.94249010, 0.30222714, -19.17969131, 35.24518585, 30.64637184, -31.83279800, -2.36772871, -96.40455627, 109.24219513, 4.07317352, -77.12886047, -0.43436098, 0.64994544, -0.49186942, -0.38336155, 0.07628258, 0.00080068, 0.02595610, 100.31300354, 84.58345032, 33.45999908, 0.00000000
1, 29.3501, 2094, -0.02705912, -0.95127237, 0.29326236, -18.14779282, 33.45552444, 29.38127899, -31.83279800, -2.36772871, -96.40455627, 109.07639313, 3.68575358, -76.90827942, -0.43780291, 0.64911467, -0.49165648, -0.38112020, 0.09310710, 0.00816937, 0.03222361, 100.31300354, 84.58345032, 33.45999908, 0.00000000
1, 29.3601, 2095, -0.06727407, -0.95255828, 0.26287496, -17.57545090, 32.91460037, 28.16932487, -31.86202812, -3.56620860, -96.69686890, 108.91478729, 3.31220269, -76.68787384, -0.44114166, 0.64832848, -0.49140608, -0.37892520, 0.12682578, 0.00818428, 0.05996598, 100.31300354, 84.58345032, 33.45999908, 0.00000000
1, 29.3701, 2096, -0.08480700, -0.95517874, 0.26054212, -18.10814857, 35.51646042, 26.95871544, -32.30049515, -2.28003502, -96.75533295, 108.74798584, 2.94238830, -76.43791962, -0.44457456, 0.64764857, -0.49096075, -0.37664649, 0.13789234, 0.00953625, 0.05967424, 100.31300354, 84.58345032, 33.45999908, 0.00000000
1, 29.3801, 2097, -0.09041619, -0.94220841, 0.26576829, -18.33260155, 37.52270889, 25.27431107, -32.38819122, -2.45542240, -97.16457367, 108.57128143, 2.56114650, -76.16233826, -0.44818136, 0.64699316, -0.49039030, -0.37423357, 0.13706821, -0.00471237, 0.05172096, 100.31300354, 84.58345032, 33.45999908, 0.00000000
1, 29.3901, 2098, -0.09248733, -0.94019532, 0.28546640, -18.71328735, 42.25157547, 24.02483559, -32.47588348, -2.01695418, -97.28149414, 108.39823914, 2.19943142, -75.83707428, -0.45182365, 0.64661086, -0.48947710, -0.37170157, 0.13251263, -0.00801020, 0.02920070, 100.31300354, 84.58345032, 33.45999908, 0.00000000
1, 29.4001, 2099, -0.07940710, -0.92899847, 0.28318477, -17.85455322, 41.65096664, 23.22844124, -32.47588348, -2.01695418, -97.28149414, 108.23169708, 1.84813631, -75.51402283, -0.45535672, 0.64626390, -0.48856071, -0.36919072, 0.11323384, -0.02036061, 0.02879145, 100.31300354, 84.58345032, 33.45999908, 0.00000000
1, 29.4101, 2100, -0.05810693, -0.94286013, 0.29000807, -17.32503700, 46.20386124, 22.38381386, -32.68050385, -1.95849168, -97.54457855, 108.06977081, 1.49170458, -75.14408875, -0.45901719, 0.64610726, -0.48742181, -0.36642691, 0.08573848, -0.00757883, 0.01937197, 100.31300354, 84.58345032, 33.45999908, 0.00000000
1, 29.4201, 2101, -0.06781530, -0.95610631, 0.30900395, -16.95746422, 43.67250061, 22.03838158, -33.14820099, -1.87079799, -97.63227081, 107.90874481, 1.14738142, -74.79624939, -0.46252856, 0.64588505, -0.48636645, -0.36379614, 0.08931006, 0.00461290, -0.00231142, 100.31300354, 84.58345032, 33.45999908, 0.00000000
1, 29.4301, 2102, -0.09270248, -0.94506431, 0.30037498, -16.30411148, 43.90348053, 21.35204887, -33.26512527, -1.63694823, -97.80765533, 107.75015259, 0.79124647, -74.44307709, -0.46607384, 0.64564735, -0.48534334, -0.36104932, 0.10819872, -0.00738343, 0.00365014, 100.31300354, 84.58345032, 33.45999908, 0.00000000
1, 29.4401, 2103, -0.09326517, -0.95098162, 0.29977369, -14.69131279, 45.67558289, 20.65518951, -32.94358444, -2.30926633, -97.86611938, 107.60780334, 0.45601052, -74.07014465, -0.46947947, 0.64561218, -0.48417941, -0.35825175, 0.10266848, -0.00232808, 0.00180670, 100.31300354, 84.58345032, 33.45999908, 0.00000000
1, 29.4501, 2104, -0.08185048, -0.96288168, 0.32993424, -14.36606026, 43.59111404, 19.81269073, -33.84975052, -2.30926633, -98.18766022, 107.46646118, 0.13597730, -73.71377563, -0.47274315, 0.64554757, -0.48305419, -0.35558525, 0.08545914, 0.00873305, -0.03069613, 100.31300354, 84.58345032, 33.45999908, 0.00000000
1, 29.4601, 2105, -0.13020772, -0.96530390, 0.32846633, -14.25760078, 43.24742126, 18.92681503, -33.84975052, -1.92926037, -98.18766022, 107.32423401, -0.17368004, -73.35728455, -0.47594991, 0.64550191, -0.48188770, -0.35296375, 0.12837949, 0.01041004, -0.03169941, 100.31300354, 84.58345032, 33.45999908, 0.00000000
1, 29.4701, 2106, -0.13791159, -0.94803393, 0.29044214, -14.06225014, 46.05253601, 18.22004128, -33.46974564, -4.73545742, -98.21689606, 107.18182373, -0.48395899, -72.97110748, -0.47923255, 0.64556801, -0.48056096, -0.35019884, 0.13078301, -0.00751806, 0.00395416, 100.31300354, 84.58345032, 33.45999908, 0.00000000
1, 29.4801, 2107, -0.11781423, -0.94593906, 0.28318855, -15.12469673, 51.42174530, 17.62544632, -34.40514374, -1.98772287, -98.62612915, 107.02680969, -0.81714058, -72.53109741, -0.48282394, 0.64572448, -0.47899306, -0.34711191, 0.10512468, -0.01031991, 0.00875803, 100.31300354, 84.58345032, 33.45999908, 0.00000000
1, 29.4901, 2108, -0.08167028, -0.95312703, 0.30424896, -16.40993118, 51.79615402, 17.52804756, -33.82051849, -3.04004669, -98.91844177, 106.85557556, -1.13541436, -72.08621979, -0.48643607, 0.64586586, -0.47729298, -0.34413463, 0.06316998, -0.00393116, -0.01501712, 100.31300354, 84.58345032, 33.45999908, 0.00000000
1, 29.5001, 2109, -0.07326401, -0.95011413, 0.31014287, -16.27743530, 49.71889114, 17.77479172, -33.96667480, -2.25080395, -98.88921356, 106.68363953, -1.44873524, -71.66092682, -0.48995012, 0.64592475, -0.47568750, -0.34125012, 0.04925295, -0.00771801, -0.02379997, 100.31300354, 84.58345032, 33.45999908, 0.00000000
1, 29.5101, 2110, -0.10536477, -0.95362437, 0.32891941, -15.65041351, 47.87732315, 17.81054688, -33.96667480, -2.25080395, -98.88921356, 106.51615143, -1.75589335, -71.25242615, -0.49334234, 0.64593947, -0.47417089, -0.33843407, 0.07590067, -0.00495275, -0.04553715, 100.31300354, 84.58345032, 33.45999908, 0.00000000
1, 29.5201, 2111, -0.16720444, -0.96675885, 0.34559882, -15.62695599, 50.31900406, 17.67565918, -33.55743790, -3.85852075, -99.47383881, 106.34584045, -2.06741810, -70.81915283, -0.49681911, 0.64601827, -0.47253132, -0.33547795, 0.13232523, 0.00748647, -0.06524097, 100.31300354, 84.58345032, 33.45999908, 0.00000000
1, 29.5301, 2112, -0.18381920, -0.95522654, 0.38825247, -16.47413445, 59.92444611, 16.98651123, -34.11283112, -1.84156680, -98.80152130, 106.17745209, -2.41586804, -70.29238129, -0.50067812, 0.64636064, -0.47053218, -0.33187199, 0.14311898, -0.00477715, -0.11092649, 100.31300354, 84.58345032, 33.45999908, 0.00000000
1, 29.5401, 2113, -0.17901903, -0.98842883, 0.43392846, -15.72680283, 61.39072800, 17.11710358, -34.22975540, -1.66617942, -99.79537964, 105.99610901, -2.74991870, -69.74895477, -0.50457042, 0.64674318, -0.46834862, -0.32830113, 0.13215779, 0.02777918, -0.15954688, 100.31300354, 84.58345032, 33.45999908, 0.00000000
1, 29.5501, 2114, -0.14231710, -1.03566897, 0.44896969, -17.51408195, 65.03598022, 16.98137665, -34.20052719, -1.34463608, -99.67845917, 105.79183197, -3.09083295, -69.16877747, -0.50869119, 0.64713454, -0.46592954, -0.32459205, 0.08950789, 0.07433701, -0.17792158, 100.31300354, 84.58345032, 33.45999908, 0.00000000
1, 29.5601, 2115, -0.13918020, -1.03490448, 0.42555684, -18.18971062, 63.51853561, 16.83112526, -34.20052719, -1.34463608, -99.67845917, 105.57810974, -3.42410374, -68.60140228, -0.51276588, 0.64743549, -0.46353346, -0.32099104, 0.08055480, 0.07291181, -0.15815830, 100.31300354, 84.58345032, 33.45999908, 0.00000000
1, 29.5701, 2116, -0.17533794, -1.01630640, 0.38060620, -17.55303955, 63.69338608, 16.30140495, -34.25898743, -1.57848585, -100.11692047, 105.36718750, -3.75062251, -68.02951050, -0.51677877, 0.64776826, -0.46110106, -0.31736699, 0.11110337, 0.05373628, -0.11689875, 100.31300354, 84.58345032, 33.45999908, 0.00000000
1, 29.5801, 2117, -0.21594115, -1.02584171, 0.34814319, -17.00097466, 67.89376831, 15.64087486, -34.25898743, -1.08155513, -100.87693787, 105.16007996, -4.09402275, -67.41450500, -0.52091718, 0.64821786, -0.45851731, -0.31340215, 0.14602447, 0.06272754, -0.08817446, 100.31300354, 84.58345032, 33.45999908, 0.00000000
1, 29.5901, 2118, -0.13906120, -1.08575141, 0.26360252, -19.72176933, 75.00093842, 14.60055923, -34.22975540, -0.55539316, -100.90616608, 104.91201782, -4.42897320, -66.72573853, -0.52541780, 0.64877796, -0.45537937, -0.30927813, 0.06335910, 0.12215658, -0.00749283, 100.31300354, 84.58345032, 33.45999908, 0.00000000
1, 29.6401, 2119, -0.27192602, -0.85899734, 0.30819821, -13.53488064, 100.51326752, 9.62670708, -33.14820099, -2.45542240, -102.39695740, 103.64747620, -6.12934160, -62.52129745, -0.54940104, 0.65387255, -0.43560272, -0.28435814, 0.16653101, -0.10756820, -0.07410423, 100.31300354, 84.58345032, 33.45999908, 0.00000000
1, 29.6501, 2120, -0.24130832, -0.84235239, 0.39049497, -12.88208866, 99.37944794, 9.20579720, -33.76205826, -1.60771704, -102.28003693, 103.41471100, -6.45011902, -61.57045364, -0.55411696, 0.65535235, -0.43101931, -0.27872950, 0.13006732, -0.12472901, -0.16045834, 100.31300354, 84.58345032, 33.45999908, 0.00000000
1, 29.6601, 2121, -0.29322571, -0.82035828, 0.41278812, -9.93216705, 96.91761780, 10.52918053, -33.76205826, -1.60771704, -102.28003693, 103.20907593, -6.77444220, -60.64492798, -0.55856192, 0.65681630, -0.42666960, -0.27304575, 0.17637581, -0.14700751, -0.18661335, 100.31300354, 84.58345032, 33.45999908, 0.00000000
1, 29.6701, 2122, -0.33997434, -0.81177461, 0.43148798, -7.42662907, 106.30174255, 12.29830837, -32.85588837, -1.57848585, -101.75387573, 103.01216125, -7.13382959, -59.62947845, -0.56320941, 0.65850854, -0.42198786, -0.26662350, 0.21709220, -0.15571496, -0.20895445, 100.31300354, 84.58345032, 33.45999908, 0.00000000
1, 29.6801, 2123, -0.34219292, -0.83605397, 0.51885349, -3.39163709, 115.52431488, 13.36059952, -33.03127670, -0.96463019, -102.48464966, 102.86906433, -7.53952742, -58.53028870, -0.56779516, 0.66058773, -0.41716033, -0.25924876, 0.21247151, -0.13145562, -0.29954484, 100.31300354, 84.58345032, 33.45999908, 0.00000000
1, 29.6901, 2124, -0.28407183, -0.89350224, 0.52208018, 0.66801220, 127.00585938, 13.91558456, -33.00204468, -1.28617358, -102.45542145, 102.71166992, -7.95436525, -57.31072235, -0.57265359, 0.66295642, -0.41164592, -0.25120562, 0.14712483, -0.07360258, -0.30524972, 100.31300354, 84.58345032, 33.45999908, 0.00000000
1, 29.7001, 2125, -0.25905001, -0.93832314, 0.51293969, 4.38159132, 134.80410767, 14.70265198, -32.56357574, -3.33235884, -102.25080109, 102.57147217, -8.39059544, -56.01360321, -0.57751817, 0.66556686, -0.40581310, -0.24250627, 0.11470933, -0.02830810, -0.29883361, 100.31300354, 84.58345032, 33.45999908, 0.00000000
1, 29.7101, 2126, -0.27401823, -0.94066274, 0.47087601, 7.11728573, 144.10375977, 15.71321487, -32.56357574, -3.33235884, -102.25080109, 102.43470764, -8.85355186, -54.62429047, -0.58248746, 0.66837656, -0.39956617, -0.23308358, 0.12196524, -0.02527902, -0.25936916, 100.31300354, 84.58345032, 33.45999908, 0.00000000
1, 29.7201, 2127, -0.30183405, -0.90926754, 0.43799680, 11.02991867, 155.92098999, 16.01518250, -32.44665146, -0.90616781, -102.45542145, 102.30684662, -9.34125900, -53.11572647, -0.58754462, 0.67150003, -0.39274395, -0.22278093, 0.14161217, -0.05584691, -0.22901595, 100.31300354, 84.58345032, 33.45999908, 0.00000000
1, 29.7301, 2128, -0.30880406, -0.89843619, 0.38046464, 15.20927620, 172.00567627, 15.66184711, -31.36509705, -1.98772287, -102.39695740, 102.19111633, -9.86410809, -51.44637299, -0.59273076, 0.67504603, -0.38514724, -0.21129325, 0.14000402, -0.06562380, -0.17386743, 100.31300354, 84.58345032, 33.45999908, 0.00000000
1, 29.7401, 2129, -0.26700538, -0.90403461, 0.35813469, 18.39602089, 192.21139526, 15.22658920, -31.77433395, -0.43846828, -102.54311371, 102.04483795, -10.41307163, -49.56874084, -0.59829569, 0.67894733, -0.37636471, -0.19855095, 0.08895823, -0.05885411, -0.15391263, 100.31300354, 84.58345032, 33.45999908, 0.00000000
1, 29.7501, 2130, -0.21963544, -0.88790214, 0.29269210, 22.04966736, 207.31690979, 13.38441658, -30.80970383, -0.49693072, -102.36772919, 101.88770294, -10.96993351, -47.53195953, -0.60392261, 0.68315321, -0.36662850, -0.18483165, 0.03215161, -0.07371426, -0.09138329, 100.31300354, 84.58345032, 33.45999908, 0.00000000
1, 29.7601, 2131, -0.20426008, -0.92690837, 0.27777585, 25.72278023, 208.77954102, 10.34050655, -30.10815430, -2.07541656, -101.90002441, 101.74321747, -11.49469280, -45.46905136, -0.60912651, 0.68744415, -0.35657007, -0.17100693, 0.00760588, -0.03344346, -0.07931689, 100.31300354, 84.58345032, 33.45999908, 0.00000000
1, 29.7701, 2132, -0.18704328, -0.97830033, 0.23730750, 26.34289932, 208.25183105, 7.13028622, -30.10815430, -2.07541656, -101.90002441, 101.58572388, -11.98166084, -43.39974213, -0.61402386, 0.69162786, -0.34623680, -0.15730770, -0.01808164, 0.01920502, -0.04177465, 100.31300354, 84.58345032, 33.45999908, 0.00000000
1, 29.7801, 2133, -0.18631874, -0.97765517, 0.16855319, 26.56038094, 207.18220520, 3.85969496, -30.04969215, -1.19848001, -102.60157776, 101.41006470, -12.42677784, -41.32850266, -0.61864579, 0.69566435, -0.33563122, -0.14380640, -0.02651647, 0.01974396, 0.02383994, 100.31300354, 84.58345032, 33.45999908, 0.00000000
1, 29.7901, 2134, -0.17238128, -0.94772565, 0.10965977, 26.26940536, 207.02639771, 0.79261982, -29.23121834, -1.19848001, -101.69541168, 101.21790314, -12.83677864, -39.24889755, -0.62301713, 0.69955337, -0.32475257, -0.13042496, -0.04750142, -0.00915857, 0.07937571, 100.31300354, 84.58345032, 33.45999908, 0.00000000
1, 29.8001, 2135, -0.14365116, -0.91636622, 0.08652538, 26.79681778, 205.44218445, -1.96839941, -28.99736977, -1.37386727, -101.98772430, 101.01837921, -13.20966339, -37.17514420, -0.62707525, 0.70330036, -0.31369045, -0.11723302, -0.08276993, -0.03965497, 0.09903406, 100.31300354, 84.58345032, 33.45999908, 0.00000000
1, 29.8101, 2136, -0.12365423, -0.90637743, 0.05865326, 27.35677528, 202.73345947, -4.30095625, -27.82811928, -2.92312193, -101.84156799, 100.81620789, -13.54744339, -35.11988831, -0.63079846, 0.70688701, -0.30253828, -0.10428187, -0.10863698, -0.04887831, 0.12334573, 100.31300354, 84.58345032, 33.45999908, 0.00000000
1, 29.8201, 2137, -0.10408483, -0.91761470, 0.07166962, 27.74873924, 196.38809204, -6.10464287, -27.82811928, -2.92312193, -101.84156799, 100.62020874, -13.84881401, -33.12144852, -0.63411880, 0.71026587, -0.29153469, -0.09177871, -0.13359758, -0.03702584, 0.10678691, 100.31300354, 84.58345032, 33.45999908, 0.00000000
1, 29.8301, 2138, -0.08497272, -0.94060349, 0.08901073, 28.35887146, 186.76434326, -7.65625381, -27.74042702, -0.70154923, -101.16925049, 100.43664551, -14.10143280, -31.21197128, -0.63699174, 0.71343082, -0.28082198, -0.07998209, -0.15739369, -0.01351249, 0.08618020, 100.31300354, 84.58345032, 33.45999908, 0.00000000
1, 29.8401, 2139, -0.08938318, -0.96044779, 0.07356725, 27.69894409, 182.16304016, -9.21219254, -26.95118332, -0.81847411, -101.43232727, 100.25498199, -14.33433533, -29.34573936, -0.63958317, 0.71638250, -0.27025759, -0.06848634, -0.15694553, 0.00678323, 0.09832812, 100.31300354, 84.58345032, 33.45999908, 0.00000000
1, 29.8501, 2140, -0.11896850, -0.95652366, 0.07668871, 27.18681526, 177.09393311, -10.81621647, -25.84039688, -3.56620860, -100.55538940, 100.07276154, -14.53684044, -27.52558899, -0.64191645, 0.71913195, -0.25980529, -0.05739153, -0.13098100, 0.00321750, 0.09194870, 100.31300354, 84.58345032, 33.45999908, 0.00000000
1, 29.8601, 2141, -0.15530016, -0.94730556, 0.07544202, 26.72782898, 172.10563660, -12.13857079, -25.69424057, -1.63694823, -99.88307190, 99.89180756, -14.71216393, -25.75166702, -0.64400560, 0.72168875, -0.24948572, -0.04668022, -0.09777175, -0.00573567, 0.08995406, 100.31300354, 84.58345032, 33.45999908, 0.00000000
1, 29.8701, 2142, -0.17470454, -0.94098949, 0.09066577, 26.72233200, 170.78005981, -13.51960564, -25.69424057, -1.63694823, -99.88307190, 99.70816803, -14.86617279, -23.98694420, -0.64591253, 0.72410321, -0.23909636, -0.03611952, -0.08114254, -0.01189667, 0.07152868, 100.31300354, 84.58345032, 33.45999908, 0.00000000
1, 29.8801, 2143, -0.20333441, -0.93355072, 0.10445389, 27.32313347, 169.35166931, -14.75307465, -25.13884735, -2.80619693, -99.79537964, 99.52614594, -14.99759579, -22.23199654, -0.64761782, 0.72639894, -0.22863613, -0.02571538, -0.05491557, -0.01925344, 0.05455419, 100.31300354, 84.58345032, 33.45999908, 0.00000000
1, 29.8901, 2144, -0.21948119, -0.91422653, 0.12472341, 28.08578682, 169.31094360, -15.69263649, -25.13884735, -1.52002335, -99.73691559, 99.35024261, -15.11695385, -20.47545052, -0.64910847, 0.72860157, -0.21808954, -0.01532897, -0.04088574, -0.03856433, 0.03119875, 100.31300354, 84.58345032, 33.45999908, 0.00000000
1, 29.9001, 2145, -0.22422926, -0.88927054, 0.13844559, 29.89194679, 169.82778931, -16.26414299, -24.40806770, -1.75387311, -99.21075439, 99.18704987, -15.22641277, -18.71137428, -0.65034574, 0.73075253, -0.20742987, -0.00490475, -0.03807029, -0.06349628, 0.01462330, 100.31300354, 84.58345032, 33.45999908, 0.00000000
1, 29.9101, 2146, -0.23858577, -0.87473142, 0.16863759, 32.13086319, 171.27642822, -17.04678917, -23.79421234, -1.05232382, -98.42151642, 99.03855133, -15.32569313, -16.92998695, -0.65131611, 0.73287666, -0.19659041, 0.00560838, -0.02553740, -0.07803075, -0.01823407, 100.31300354, 84.58345032, 33.45999908, 0.00000000
1, 29.9201, 2147, -0.24522607, -0.86492944, 0.17741880, 34.45531845, 170.04563904, -17.91191864, -23.79421234, -1.05232382, -98.42151642, 98.91323853, -15.41037369, -15.15879917, -0.65196562, 0.73497784, -0.18571866, 0.01603193, -0.02042796, -0.08779129, -0.02930164, 100.31300354, 84.58345032, 33.45999908, 0.00000000
1, 29.9301, 2148, -0.19943862, -0.86280811, 0.14818202, 37.70689774, 172.02970886, -16.67919159, -22.94650650, -2.19234133, -97.86611938, 98.81602478, -15.50372505, -13.36914253, -0.65226197, 0.73709178, -0.17475198, 0.02668106, -0.06763656, -0.08973514, -0.00178291, 100.31300354, 84.58345032, 33.45999908, 0.00000000
1, 29.9401, 2149, -0.22021686, -0.85729754, 0.22975956, 38.63619995, 172.59869385, -19.02595329, -22.71265602, -1.66617942, -97.51534271, 98.71932220, -15.57487011, -11.56820774, -0.65237880, 0.73909295, -0.16356996, 0.03726062, -0.04847086, -0.09525174, -0.08513437, 100.31300354, 84.58345032, 33.45999908, 0.00000000
1, 29.9501, 2150, -0.24619982, -0.90750635, 0.22733231, 41.31504440, 168.40634155, -20.45690918, -22.44957542, -1.22771120, -96.57994843, 98.65843201, -15.62324047, -9.80747414, -0.65211314, 0.74110597, -0.15248765, 0.04751817, -0.02339262, -0.04496913, -0.08407245, 100.31300354, 84.58345032, 33.45999908, 0.00000000
1, 29.9601, 2151, -0.26557133, -0.94496346, 0.20490731, 41.42348099, 169.27464294, -22.50567627, -21.92341423, -2.89389062, -95.55685425, 98.59409332, -15.65082359, -8.03428078, -0.65170848, 0.74297535, -0.14118770, 0.05770556, -0.00457507, -0.00746200, -0.06280245, 100.31300354, 84.58345032, 33.45999908, 0.00000000
1, 29.9701, 2152, -0.28022912, -0.92590165, 0.18729149, 42.26065826, 173.00047302, -25.07396698, -21.92341423, -2.89389062, -95.55685425, 98.52610779, -15.65648556, -6.21870708, -0.65115196, 0.74472588, -0.12947081, 0.06798395, 0.00988992, -0.02659756, -0.04631644, 100.31300354, 84.58345032, 33.45999908, 0.00000000
1, 29.9801, 2153, -0.27012858, -0.90686584, 0.18134792, 43.28123093, 177.78512573, -27.42656708, -21.77725792, -1.49079216, -95.35223389, 98.45708466, -15.64395046, -4.35132790, -0.65041399, 0.74635911, -0.11729516, 0.07843254, -0.00008719, -0.04582796, -0.04147547, 100.31300354, 84.58345032, 33.45999908, 0.00000000
1, 29.9901, 2154, -0.25765881, -0.89887178, 0.18173845, 44.85575485, 182.41133118, -29.50957680, -21.13417053, -1.81233561, -94.41683960, 98.38790894, -15.61506557, -2.43259692, -0.64947957, 0.74785590, -0.10467350, 0.08905889, -0.01217099, -0.05409929, -0.04294814, 100.31300354, 84.58345032, 33.45999908, 0.00000000
1, 30.0001, 2155, -0.24147530, -0.90131664, 0.18063438, 46.77959442, 186.20965576, -31.07345390, -21.33878899, -1.25694239, -94.15375519, 98.32806396, -15.57403374, -0.47285828, -0.64828354, 0.74923581, -0.09168948, 0.09983614, -0.02773355, -0.05197836, -0.04283356, 100.31300354, 84.58345032, 33.45999908, 0.00000000
1, 30.0101, 2156, -0.21951477, -0.90196753, 0.17951638, 48.36199188, 188.83744812, -32.60831451, -20.25723457, -0.96463019, -93.07219696, 98.27784729, -15.51969624, 1.51565623, -0.64682913, 0.75047505, -0.07841549, 0.11068103, -0.04886693, -0.05168515, -0.04253313, 100.31300354, 84.58345032, 33.45999908, 0.00000000
1, 30.0201, 2157, -0.20762917, -0.91037881, 0.18310726, 50.00500870, 190.82551575, -34.31692886, -20.25723457, -0.96463019, -93.07219696, 98.24014282, -15.44975662, 3.52647877, -0.64510268, 0.75157320, -0.06487756, 0.12153693, -0.05968747, -0.04367736, -0.04677197, 100.31300354, 84.58345032, 33.45999908, 0.00000000
1, 30.0301, 2158, -0.20685382, -0.92454720, 0.18491988, 51.79449463, 193.96160889, -35.91241074, -20.11107826, -1.22771120, -92.48757935, 98.21695709, -15.36457348, 5.57037640, -0.64307684, 0.75253248, -0.05100421, 0.13245980, -0.05913411, -0.02994666, -0.04903865, 100.31300354, 84.58345032, 33.45999908, 0.00000000
1, 30.0401, 2159, -0.20180894, -0.93259513, 0.18808492, 53.11017227, 196.63421631, -37.23249054, -19.93569183, -0.96463019, -91.08448029, 98.19942474, -15.27219391, 7.64342213, -0.64080113, 0.75328016, -0.03687742, 0.14346763, -0.06266743, -0.02236181, -0.05245595, 100.31300354, 84.58345032, 33.45999908, 0.00000000
1, 30.0501, 2160, -0.19825314, -0.93885434, 0.20061482, 54.00980759, 199.84733582, -38.72718048, -19.14644814, -1.98772287, -90.82139587, 98.18531799, -15.16898632, 9.75061798, -0.63828278, 0.75379246, -0.02244906, 0.15455779, -0.06458099, -0.01661083, -0.06517161, 100.31300354, 84.58345032, 33.45999908, 0.00000000
1, 30.0601, 2161, -0.17954347, -0.94416201, 0.22049426, 54.81076813, 202.47642517, -39.86648560, -19.26337242, 0.00000000, -88.95059967, 98.17581940, -15.05773735, 11.88534451, -0.63551384, 0.75405794, -0.00778049, 0.16570544, -0.08151107, -0.01185444, -0.08513975, 100.31300354, 84.58345032, 33.45999908, 0.00000000
1, 30.0701, 2162, -0.17060633, -0.96119499, 0.22489607, 55.69215393, 205.83473206, -40.88426971, -18.64951706, -0.70154923, -88.27828217, 98.17024231, -14.94087505, 14.05482006, -0.63247973, 0.75405818, 0.00715694, 0.17695940, -0.08852500, 0.00464290, -0.08956957, 100.31300354, 84.58345032, 33.45999908, 0.00000000
1, 30.0801, 2163, -0.17382565, -0.96917880, 0.23297967, 56.09646988, 210.45530701, -41.69064331, -18.64951706, -0.70154923, -88.27828217, 98.16537476, -14.81851864, 16.27064705, -0.62917465, 0.75375736, 0.02242896, 0.18837732, -0.08331120, 0.01206586, -0.09771055, 100.31300354, 84.58345032, 33.45999908, 0.00000000
1, 30.0901, 2164, -0.18318756, -0.97315025, 0.23839909, 56.50505066, 217.70176697, -42.32932281, -18.53259277, -1.75387311, -87.25518799, 98.14578247, -14.70334625, 18.56128502, -0.62561738, 0.75304252, 0.03811654, 0.20019263, -0.07194685, 0.01547123, -0.10329142, 100.31300354, 84.58345032, 33.45999908, 0.00000000
1, 30.1001, 2165, -0.17682531, -0.97651851, 0.23846327, 57.48058701, 226.70086670, -42.49529648, -19.05875397, 0.05846244, -86.40748596, 98.11714172, -14.59816456, 20.94305611, -0.62170994, 0.75191087, 0.05430852, 0.21250296, -0.07646501, 0.01830141, -0.10369124, 100.31300354, 84.58345032, 33.45999908, 0.00000000
1, 30.1101, 2166, -0.17570095, -0.96224618, 0.23448995, 58.58409119, 235.37414551, -42.82839203, -18.12335587, 0.35077462, -85.38439178, 98.08149719, -14.50041294, 23.41288185, -0.61741823, 0.75034118, 0.07099022, 0.22526303, -0.07588047, 0.00351742, -0.10019381, 100.31300354, 84.58345032, 33.45999908, 0.00000000
1, 30.1201, 2167, -0.20396970, -0.95595789, 0.23965849, 59.35005951, 245.55288696, -42.87594604, -18.82490540, 1.37386727, -84.62437439, 98.03160095, -14.41454220, 25.98577881, -0.61271751, 0.74825138, 0.08820514, 0.23857312, -0.04609785, -0.00327321, -0.10609438, 100.31300354, 84.58345032, 33.45999908, 0.00000000
1, 30.1301, 2168, -0.23559360, -0.97342944, 0.24561293, 61.28845215, 254.22454834, -43.57022858, -18.82490540, 1.37386727, -84.62437439, 97.98696136, -14.33075809, 28.64629555, -0.60749799, 0.74571460, 0.10593206, 0.25225881, -0.01308003, 0.01371107, -0.11295110, 100.31300354, 84.58345032, 33.45999908, 0.00000000
1, 30.1401, 2169, -0.23280706, -0.97999167, 0.26637045, 63.05270767, 271.33264160, -44.62205124, -18.73721123, 1.54925454, -83.30897522, 97.91596222, -14.25814819, 31.48316002, -0.60170609, 0.74243647, 0.12460665, 0.26685396, -0.01459917, 0.01977059, -0.13463026, 100.31300354, 84.58345032, 33.45999908, 0.00000000
1, 30.1501, 2170, -0.20711827, -0.97097015, 0.29723233, 64.46370697, 282.53259277, -44.89884186, -18.53259277, 1.95849168, -81.81818390, 97.83432770, -14.19428349, 34.43393326, -0.59532881, 0.73850042, 0.14384267, 0.28197545, -0.03923896, 0.01023540, -0.16666953, 100.31300354, 84.58345032, 33.45999908, 0.00000000
1, 30.1601, 2171, -0.14183696, -0.96221304, 0.32015252, 65.84806061, 287.44458008, -43.69524002, -19.20491028, 2.25080395, -80.67816162, 97.75784302, -14.14484882, 37.43237686, -0.58837432, 0.73403931, 0.16319604, 0.29726934, -0.10360928, 0.00101229, -0.19073318, 100.31300354, 84.58345032, 33.45999908, 0.00000000
1, 30.1701, 2172, -0.08293133, -0.98060656, 0.31746796, 66.65766144, 288.84042358, -40.58767700, -19.87722778, 2.54311609, -79.47968292, 97.68892670, -14.12434769, 40.44031906, -0.58086783, 0.72912920, 0.18233295, 0.31259876, -0.16198894, 0.01911676, -0.18911731, 100.31300354, 84.58345032, 33.45999908, 0.00000000
1, 30.1801, 2173, -0.07079425, -1.00145674, 0.33627158, 67.90037537, 285.20025635, -37.93866730, -19.87722778, 2.54311609, -79.47968292, 97.65078735, -14.11617756, 43.40596771, -0.57285011, 0.72396505, 0.20107648, 0.32754490, -0.17400074, 0.03977317, -0.20880862, 100.31300354, 84.58345032, 33.45999908, 0.00000000
1, 30.1901, 2174, -0.00794708, -1.15205932, 0.31230682, 66.98181915, 282.04339600, -36.61766052, -20.05261612, 2.95235300, -78.42736053, 97.60420227, -14.12138462, 46.33885956, -0.56455553, 0.71836048, 0.21936992, 0.34221670, -0.23678887, 0.19033104, -0.18555968, 100.31300354, 84.58345032, 33.45999908, 0.00000000
1, 30.2001, 2175, 0.21850909, -1.41448784, 0.12345653, 54.81236649, 277.89852905, -37.36774445, -20.84185982, 2.45542240, -77.19964600, 97.44611359, -14.10968208, 49.23030472, -0.55676353, 0.71181047, 0.23699714, 0.35661292, -0.46271700, 0.45282501, 0.00169892, 100.31300354, 84.58345032, 33.45999908, 0.00000000
1, 30.2101, 2176, 0.53910303, -1.43314803, -0.15041679, 31.32514191, 263.91796875, -38.73397064, -21.33878899, 3.80005836, -76.08885956, 97.08914948, -14.05486965, 51.97994614, -0.55043423, 0.70411038, 0.25315559, 0.37035519, -0.78199387, 0.47115779, 0.27157578, 100.31300354, 84.58345032, 33.45999908, 0.00000000
1, 30.2201, 2177, 0.79704016, -1.28239286, -0.32289693, 17.18236351, 236.71121216, -37.15187073, -21.80648994, 3.65390229, -76.20578766, 96.66242981, -13.96516323, 54.44782257, -0.54525042, 0.69629830, 0.26732677, 0.38263196, -1.03817797, 0.31949598, 0.43799579, 100.31300354, 84.58345032, 33.45999908, 0.00000000
1, 30.2301, 2178, 0.92659688, -1.18237042, -0.35229364, 14.22521210, 185.56257629, -31.02499771, -21.80648994, 3.65390229, -76.20578766, 96.32573700, -13.83353043, 56.38749313, -0.54120892, 0.68981987, 0.27864090, 0.39191934, -1.16584182, 0.21833970, 0.46162736, 100.31300354, 84.58345032, 33.45999908, 0.00000000
1, 30.2401, 2179, 0.82269824, -1.12950623, -0.34097219, 12.84448338, 124.26265717, -20.04253006, -22.18649483, 0.55539316, -75.32884979, 96.14501190, -13.76678848, 57.68180847, -0.53807843, 0.68564057, 0.28615001, 0.39810416, -1.06013525, 0.16455117, 0.44607747, 100.31300354, 84.58345032, 33.45999908, 0.00000000
1, 30.2501, 2180, 0.46849674, -1.05292094, -0.24489030, 15.22487068, 61.08130264, -7.68059826, -22.27418900, 3.85852075, -76.05963135, 96.14633179, -13.75420761, 58.31554031, -0.53590786, 0.68402678, 0.29001039, 0.40100393, -0.70568323, 0.08754914, 0.34796065, 100.31300354, 84.58345032, 33.45999908, 0.00000000
1, 30.2601, 2181, -0.00810312, -1.02249694, -0.05403859, 22.81508255, 24.65526772, -0.91644239, -22.36188316, 4.06313944, -74.83191681, 96.31416321, -13.77081013, 58.56899643, -0.53395563, 0.68420219, 0.29202133, 0.40184867, -0.22967455, 0.05705730, 0.15796863, 100.31300354, 84.58345032, 33.45999908, 0.00000000
1, 30.2701, 2182, -0.45172098, -1.04473722, 0.11522041, 26.73584938, 28.47557068, -0.48972002, -22.53726959, 4.15083313, -75.06577301, 96.51193237, -13.79670811, 58.86103821, -0.53165144, 0.68443024, 0.29431951, 0.40283751, 0.21312673, 0.07948754, -0.00909909, 100.31300354, 84.58345032, 33.45999908, 0.00000000
1, 30.2801, 2183, -0.84629792, -1.03738165, 0.21850818, 26.13913918, 71.09037018, -4.25100470, -22.53726959, 4.15083313, -75.06577301, 96.60462952, -13.86400604, 59.59054565, -0.52826673, 0.68311739, 0.29863644, 0.40632659, 0.60676533, 0.07239533, -0.11103630, 100.31300354, 84.58345032, 33.45999908, 0.00000000
1, 30.2901, 2184, -1.08703113, -0.97376752, 0.32744461, 24.63497734, 139.59161377, -10.78378391, -23.03420067, 3.24466538, -74.30575562, 96.50467682, -13.91356659, 61.03194046, -0.52351379, 0.67896205, 0.30657881, 0.41346514, 0.84608126, 0.00883857, -0.22089157, 100.31300354, 84.58345032, 33.45999908, 0.00000000
1, 30.3001, 2185, -1.10674512, -0.88831854, 0.45695096, 24.89220810, 207.80116272, -18.32740021, -23.26804924, 4.64776373, -73.98421478, 96.23557281, -13.95815849, 63.18082809, -0.51707035, 0.67198616, 0.31802368, 0.42418611, 0.86467606, -0.07702117, -0.35382563, 100.31300354, 84.58345032, 33.45999908, 0.00000000
1, 30.3101, 2186, -0.95017093, -0.82889223, 0.59243762, 28.75482178, 269.79711914, -22.54227066, -25.08038521, 4.94007587, -73.51651764, 95.84834290, -14.01278305, 65.97038269, -0.50860929, 0.66246688, 0.33251947, 0.43804702, 0.70689714, -0.13709539, -0.49478114, 100.31300354, 84.58345032, 33.45999908, 0.00000000
1, 30.3201, 2187, -0.69794267, -0.81760609, 0.73585862, 34.43299103, 299.73519897, -24.86287117, -25.81116676, 5.05700064, -72.40573120, 95.44023895, -14.05428791, 69.07029724, -0.49872255, 0.65156782, 0.34848809, 0.45309085, 0.45350504, -0.14910445, -0.64436227, 100.31300354, 84.58345032, 33.45999908, 0.00000000
1, 30.3301, 2188, -0.42181823, -0.86065483, 0.75672358, 37.06834412, 321.27517700, -25.94282913, -25.81116676, 5.05700064, -72.40573120, 95.02256012, -14.08488083, 72.38905334, -0.48759380, 0.63951600, 0.36534518, 0.46882263, 0.17677478, -0.10661677, -0.67168009, 100.31300354, 84.58345032, 33.45999908, 0.00000000
1, 30.3401, 2189, -0.22648320, -0.89029348, 0.63205630, 34.68626022, 333.16308594, -25.03326797, -27.00964546, 5.32008171, -72.23033905, 94.52983856, -14.10666561, 75.83374786, -0.47588184, 0.62627059, 0.38220844, 0.48501396, -0.01868422, -0.07733227, -0.55430257, 100.31300354, 84.58345032, 33.45999908, 0.00000000
1, 30.3501, 2190, -0.13050078, -0.87641132, 0.45241857, 31.66934395, 330.33493042, -22.18799210, -28.12043190, 5.23238802, -71.96726227, 94.01333618, -14.12529945, 79.24758148, -0.46390334, 0.61258161, 0.39834633, 0.50085700, -0.11455855, -0.09150784, -0.38303292, 100.31300354, 84.58345032, 33.45999908, 0.00000000
1, 30.3601, 2191, -0.04509147, -0.83745718, 0.39477423, 33.38428879, 316.01242065, -17.64390182, -29.31891251, 6.10932446, -71.03186035, 93.54948425, -14.15132427, 82.51139069, -0.45175803, 0.59925121, 0.41341710, 0.51565409, -0.20021679, -0.13084528, -0.33343399, 100.31300354, 84.58345032, 33.45999908, 0.00000000
1, 30.3701, 2192, 0.01972172, -0.86445618, 0.38008460, 35.97928619, 291.69683838, -15.13685989, -30.98509216, 5.29085064, -71.23648071, 93.17198944, -14.16537571, 85.52378082, -0.43991560, 0.58677995, 0.42721716, 0.52881867, -0.26532084, -0.10416204, -0.32550108, 100.31300354, 84.58345032, 33.45999908, 0.00000000
1, 30.3801, 2193, 0.09832357, -0.89924240, 0.29913381, 36.47174454, 267.99514771, -11.37912560, -31.68664169, 4.35545158, -70.97339630, 92.87116241, -14.16818428, 88.28846741, -0.42852789, 0.57519001, 0.43981758, 0.54044503, -0.34390831, -0.06950564, -0.25004399, 100.31300354, 84.58345032, 33.45999908, 0.00000000
1, 30.3901, 2194, 0.34433594, -0.84148288, 0.30699888, 38.60281372, 238.36868286, -6.88963890, -31.68664169, 4.35545158, -70.97339630, 92.65417480, -14.20905685, 90.74784851, -0.41769773, 0.56498015, 0.45082447, 0.55053020, -0.59030801, -0.12739581, -0.26143363, 100.31300354, 84.58345032, 33.45999908, 0.00000000
1, 30.4001, 2195, 0.62565190, -0.72466791, 0.38012576, 47.62826920, 194.55094910, -8.80256844, -32.62203979, 5.55393171, -70.59339142, 92.63693237, -14.20587158, 92.75689697, -0.40808189, 0.55691624, 0.46059096, 0.55782562, -0.87212956, -0.24432924, -0.33539563, 100.31300354, 84.58345032, 33.45999908, 0.00000000
1, 30.4101, 2196, 0.76792842, -0.65716076, 0.45555934, 61.29518890, 151.10075378, -15.69065285, -33.26512527, 5.90470600, -70.30107880, 92.86654663, -14.11725521, 94.32120514, -0.39977747, 0.55103737, 0.46968862, 0.56207520, -1.01364160, -0.31208399, -0.40790653, 100.31300354, 84.58345032, 33.45999908, 0.00000000
1, 30.4201, 2197, 0.48634228, -0.78348064, 0.35008007, 70.40248871, 122.24386597, -25.62549591, -34.08359909, 5.37854433, -69.83338165, 93.26161957, -13.92283058, 95.59333038, -0.39263147, 0.54638726, 0.47861528, 0.56411785, -0.72915411, -0.18595406, -0.29751253, 100.31300354, 84.58345032, 33.45999908, 0.00000000
1, 30.4301, 2198, 0.04417015, -1.08613968, 0.00664172, 66.43483734, 124.65135956, -28.68982506, -33.96667480, 4.76468849, -69.74568939, 93.60454559, -13.69864178, 96.89411163, -0.38574868, 0.54119134, 0.48749596, 0.56626636, -0.28245240, 0.11672968, 0.05081636, 100.31300354, 84.58345032, 33.45999908, 0.00000000
1, 30.4401, 2199, -0.18941766, -1.29867089, -0.28734571, 48.82470322, 124.05901337, -26.27148628, -33.96667480, 4.76468849, -69.74568939, 93.78839874, -13.51346207, 98.18511963, -0.37945580, 0.53553563, 0.49530059, 0.56911534, -0.04472209, 0.32917076, 0.34802550, 100.31300354, 84.58345032, 33.45999908, 0.00000000
1, 30.4501, 2200, -0.01971752, -1.23080182, -0.34496877, 37.44038010, 102.93302155, -29.64460373, -34.25898743, 7.27857351, -68.89797974, 93.91257477, -13.28402615, 99.26103210, -0.37473074, 0.53034323, 0.50193632, 0.57129061, -0.21075091, 0.26069731, 0.40841496, 100.31300354, 84.58345032, 33.45999908, 0.00000000
1, 30.4601, 2201, 0.31795746, -1.19736576, -0.32926166, 33.91225433, 78.42419434, -30.00860786, -34.81438065, 6.60625553, -69.13182831, 94.06316376, -13.03706455, 100.08558655, -0.37122673, 0.52620190, 0.50756896, 0.57243007, -0.54427552, 0.22642618, 0.39620638, 100.31300354, 84.58345032, 33.45999908, 0.00000000
1, 30.4701, 2202, 0.68768281, -1.19087291, -0.36421826, 20.08211136, 51.79881668, -28.59188843, -34.58053207, 7.27857351, -69.24875641, 94.14000702, -12.78755474, 100.63630676, -0.36944568, 0.52298379, 0.51155579, 0.57298219, -0.90975833, 0.21916193, 0.43397197, 100.31300354, 84.58345032, 33.45999908, 0.00000000
1, 30.4801, 2203, 0.85722893, -1.18298435, -0.48744991, 8.46368504, -9.02954388, -26.47627449, -34.98976898, 6.60625553, -69.21952820, 94.21279907, -12.46490955, 100.56803131, -0.37116629, 0.52220303, 0.51299948, 0.57128912, -1.07424426, 0.21048969, 0.55889976, 100.31300354, 84.58345032, 33.45999908, 0.00000000
1, 30.4901, 2204, 0.65113330, -1.08727789, -0.30099636, 4.13380766, -70.01432800, -19.54986382, -34.98976898, 6.60625553, -69.21952820, 94.40309143, -12.21834087, 99.86798096, -0.37507898, 0.52494562, 0.51180935, 0.56727356, -0.86355031, 0.11353610, 0.37450737, 100.31300354, 84.58345032, 33.45999908, 0.00000000
1, 30.5001, 2205, 0.33064079, -1.04561269, -0.01968198, 6.34401321, -107.02214050, -12.24035645, -33.67436218, 7.83396673, -68.81028748, 94.69312286, -12.01303482, 98.78639984, -0.38015258, 0.52988803, 0.50914824, 0.56166792, -0.54000282, 0.07093649, 0.09683999, 100.31300354, 84.58345032, 33.45999908, 0.00000000
1, 30.5101, 2206, -0.13057683, -1.04040694, 0.22173756, 7.79868937, -129.42507935, -8.55154514, -33.73282623, 7.13241720, -68.92721558, 95.04152679, -11.81995010, 97.47551727, -0.38592929, 0.53608477, 0.50558877, 0.55502403, -0.07605040, 0.06509271, -0.14007244, 100.31300354, 84.58345032, 33.45999908, 0.00000000
1, 30.5201, 2207, -0.65927911, -1.00983834, 0.33525181, 13.28655243, -128.67842102, -7.93761539, -32.76819611, 7.19087982, -68.66413116, 95.43873596, -11.62529278, 96.17391205, -0.39133656, 0.54238892, 0.50222760, 0.54812175, 0.45565993, 0.03423256, -0.24830261, 100.31300354, 84.58345032, 33.45999908, 0.00000000
1, 30.5301, 2208, -0.94506216, -0.99526894, 0.42951548, 17.51913261, -84.16873932, -12.73172283, -32.21280289, 7.48319197, -68.45951080, 95.79870605, -11.45274353, 95.32849121, -0.39454246, 0.54665190, 0.50068212, 0.54297841, 0.74453568, 0.01944939, -0.33670664, 100.31300354, 84.58345032, 33.45999908, 0.00000000
1, 30.5401, 2209, -0.98333532, -0.96369672, 0.46483147, 19.14427948, -23.49157333, -21.61148643, -32.21280289, 7.48319197, -68.45951080, 96.03224945, -11.21358776, 95.11255646, -0.39568031, 0.54747760, 0.50180572, 0.54027438, 0.78610146, -0.01236747, -0.36716184, 100.31300354, 84.58345032, 33.45999908, 0.00000000
1, 30.5501, 2210, -0.78212976, -0.94366312, 0.42565677, 19.36527824, 29.42504311, -32.02538681, -31.18971062, 6.66471767, -68.43028259, 96.16144562, -10.92551136, 95.44491577, -0.39498231, 0.54534835, 0.50525975, 0.53971916, 0.58963513, -0.03294531, -0.32449040, 100.31300354, 84.58345032, 33.45999908, 0.00000000
1, 30.5601, 2211, -0.36047062, -0.93397665, 0.32322466, 17.67740822, 60.56118393, -36.85257721, -31.89126015, 7.68781042, -68.75182343, 96.21532440, -10.62297821, 96.09780884, -0.39321157, 0.54146302, 0.50992393, 0.54053688, 0.17337120, -0.04330460, -0.21957344, 100.31300354, 84.58345032, 33.45999908, 0.00000000
1, 30.5701, 2212, 0.08297118, -0.90272152, 0.25628948, 17.25959587, 61.33615875, -36.63600540, -31.83279800, 7.92166042, -68.83952332, 96.26696777, -10.32392883, 96.75790405, -0.39140099, 0.53751367, 0.51456368, 0.54139513, -0.26474148, -0.07532218, -0.15058444, 100.31300354, 84.58345032, 33.45999908, 0.00000000
1, 30.5801, 2213, 0.34508899, -0.88380909, 0.12152021, 18.04445267, 32.78968048, -31.91084862, -31.54048538, 8.33089733, -68.69336700, 96.36829376, -9.90345669, 97.12803650, -0.39136124, 0.53452575, 0.51857024, 0.54055870, -0.52096361, -0.09485950, -0.01362144, 100.31300354, 84.58345032, 33.45999908, 0.00000000
1, 30.5901, 2214, 0.27392003, -0.91526639, -0.02314024, 20.41768837, -11.96819496, -25.27887726, -31.54048538, 8.33089733, -68.69336700, 96.58737183, -9.63834858, 97.03590393, -0.39214835, 0.53463906, 0.52029824, 0.53821057, -0.44296890, -0.06395911, 0.13388646, 100.31300354, 84.58345032, 33.45999908, 0.00000000
1, 30.6001, 2215, 0.03666455, -0.98988307, -0.06325977, 22.03394508, -31.39167404, -20.85511208, -31.45279121, 7.36626720, -68.51797485, 96.85537720, -9.39438438, 96.74420929, -0.39352676, 0.53591603, 0.52122456, 0.53502864, -0.20130333, 0.01050363, 0.17772755, 100.31300354, 84.58345032, 33.45999908, 0.00000000
1, 30.6101, 2216, -0.19313957, -1.04215622, -0.02797023, 21.25672913, -30.38527679, -20.97896576, -30.42969894, 7.62934828, -67.67027283, 97.11258698, -9.14915371, 96.46412659, -0.39489532, 0.53710663, 0.52214777, 0.53191715, 0.03260349, 0.06257852, 0.14638443, 100.31300354, 84.58345032, 33.45999908, 0.00000000
1, 30.6201, 2217, -0.31179947, -1.03410280, 0.07095898, 20.13822746, -12.01076317, -23.59383011, -30.98509216, 8.33089733, -68.19643402, 97.32772064, -8.89970112, 96.37316132, -0.39559752, 0.53727967, 0.52376980, 0.52962106, 0.15529679, 0.05417797, 0.05122762, 100.31300354, 84.58345032, 33.45999908, 0.00000000
1, 30.6301, 2218, -0.28411171, -1.00420511, 0.20841201, 20.86790085, 10.92157364, -26.05347633, -30.75124168, 8.65244102, -67.81642914, 97.54089355, -8.66763592, 96.51438904, -0.39514661, 0.53645217, 0.52638984, 0.52819687, 0.13148287, 0.02384855, -0.08256631, 100.31300354, 84.58345032, 33.45999908, 0.00000000
1, 30.6401, 2219, -0.13156180, -0.99103761, 0.29196909, 20.98881531, 25.68218040, -27.12280464, -30.75124168, 8.65244102, -67.81642914, 97.70649719, -8.43191338, 96.80784607, -0.39424112, 0.53473818, 0.52950865, 0.52749383, -0.01731615, 0.01038527, -0.16234356, 100.31300354, 84.58345032, 33.45999908, 0.00000000
1, 30.6501, 2220, -0.01785599, -0.96840441, 0.27476004, 21.75777626, 23.90732574, -26.91200638, -30.83893585, 9.29552746, -67.96258545, 97.88348389, -8.19668674, 97.08380127, -0.39336699, 0.53313428, 0.53258479, 0.52667242, -0.12692407, -0.01241869, -0.14182788, 100.31300354, 84.58345032, 33.45999908, 0.00000000
1, 30.6601, 2221, 0.02550826, -0.96513259, 0.20658538, 21.61421013, 15.48073196, -25.62130928, -31.16047859, 9.03244686, -67.90412140, 98.07218933, -7.96356869, 97.27426147, -0.39282623, 0.53196698, 0.53529817, 0.52550411, -0.16607821, -0.01571355, -0.07029627, 100.31300354, 84.58345032, 33.45999908, 0.00000000
1, 30.6701, 2222, 0.00392558, -0.96149969, 0.14753133, 22.42838097, 7.28686237, -24.24962997, -30.51739311, 8.76936531, -67.67027283, 98.28117371, -7.73314714, 97.38158417, -0.39256307, 0.53126293, 0.53769886, 0.52395982, -0.14034408, -0.01931299, -0.00777476, 100.31300354, 84.58345032, 33.45999908, 0.00000000
1, 30.6801, 2223, -0.04263965, -0.98839462, 0.11030971, 23.20224571, 2.35679197, -23.18521690, -30.40046692, 7.36626720, -67.43642426, 98.49189758, -7.48416710, 97.43992615, -0.39261547, 0.53071803, 0.53994799, 0.52215677, -0.08964493, 0.00764261, 0.03306689, 100.31300354, 84.58345032, 33.45999908, 0.00000000
1, 30.6901, 2224, -0.06226634, -0.99916601, 0.09995577, 22.94373322, 3.23344254, -22.79298401, -30.40046692, 7.36626720, -67.43642426, 98.71225739, -7.26297188, 97.50627136, -0.39244467, 0.53027755, 0.54215676, 0.52044123, -0.06583916, 0.01843757, 0.04707130, 100.31300354, 84.58345032, 33.45999908, 0.00000000
1, 30.7001, 2225, -0.04669088, -0.99935627, 0.12538368, 23.31865501, 8.98502922, -22.83592796, -29.99123001, 9.12014008, -67.78719330, 98.92935944, -7.05032587, 97.63077545, -0.39198363, 0.52958173, 0.54457736, 0.51896793, -0.07773645, 0.01869049, 0.02548874, 100.31300354, 84.58345032, 33.45999908, 0.00000000
1, 30.7101, 2226, -0.01379624, -0.97975934, 0.17164814, 23.40769005, 12.00658226, -22.43204498, -30.45892906, 9.23706532, -66.73487091, 99.14417267, -6.84682465, 97.78549194, -0.39135313, 0.52876627, 0.54708225, 0.51763898, -0.10716030, -0.00083752, -0.01690508, 100.31300354, 84.58345032, 33.45999908, 0.00000000
1, 30.7201, 2227, 0.02215692, -0.95253563, 0.20207730, 23.66766357, 12.64499664, -22.08713913, -29.69891739, 8.44782257, -66.76410675, 99.36134338, -6.64830160, 97.94669342, -0.39066124, 0.52794230, 0.54959983, 0.51633406, -0.13972002, -0.02792444, -0.04343969, 100.31300354, 84.58345032, 33.45999908, 0.00000000
1, 30.7301, 2228, 0.05062962, -0.93752241, 0.21306317, 23.77318954, 10.05840588, -20.94083595, -29.84507370, 9.70476437, -66.99795532, 99.59963226, -6.40968609, 98.08130646, -0.39020640, 0.52715236, 0.55224109, 0.51466423, -0.16464770, -0.04273073, -0.05043311, 100.31300354, 84.58345032, 33.45999908, 0.00000000
1, 30.7401, 2229, 0.05777295, -0.93584836, 0.22339961, 24.03229332, 5.22680759, -19.07884979, -29.17275620, 8.79859638, -66.91026306, 99.83021545, -6.22970533, 98.16533661, -0.38971135, 0.52681082, 0.55437398, 0.51309347, -0.16800997, -0.04414853, -0.05657912, 100.31300354, 84.58345032, 33.45999908, 0.00000000
1, 30.7501, 2230, 0.00113334, -0.94658184, 0.23616092, 25.12606621, 0.30083868, -18.07098770, -29.17275620, 8.79859638, -66.91026306, 100.07736969, -6.05155802, 98.19953156, -0.38935584, 0.52677250, 0.55633783, 0.51127392, -0.10829662, -0.03305390, -0.06532948, 100.31300354, 84.58345032, 33.45999908, 0.00000000
1, 30.7601, 2231, -0.03432724, -0.98062015, 0.21236837, 24.11712837, 1.65596616, -16.83407021, -29.55276108, 10.28938866, -66.17948151, 100.31333160, -5.88816118, 98.24571228, -0.38892251, 0.52669597, 0.55824220, 0.50960416, -0.06983085, 0.00145763, -0.03746831, 100.31300354, 84.58345032, 33.45999908, 0.00000000
1, 30.7701, 2232, -0.01951993, -0.98299384, 0.23113422, 22.42239952, 8.01157284, -16.66100883, -29.49429893, 8.91552162, -66.41333008, 100.52607727, -5.73806190, 98.35505676, -0.38824755, 0.52628386, 0.56027567, 0.50831127, -0.08200994, 0.00421391, -0.05240145, 100.31300354, 84.58345032, 33.45999908, 0.00000000
1, 30.7801, 2233, -0.00416100, -0.99140882, 0.26338577, 21.86182976, 11.68515110, -16.81167793, -29.55276108, 10.28938866, -66.23793793, 100.75267029, -5.56321621, 98.50171661, -0.38747722, 0.52563328, 0.56263208, 0.50696766, -0.09476720, 0.01299339, -0.08092323, 100.31300354, 84.58345032, 33.45999908, 0.00000000
1, 30.7901, 2234, 0.03065135, -0.98240209, 0.28033677, 20.30438995, 12.73043156, -15.92568493, -29.61122513, 10.43554497, -65.91639709, 100.94041443, -5.43001366, 98.65730286, -0.38663045, 0.52496946, 0.56469023, 0.50601292, -0.12682946, 0.00437482, -0.09412850, 100.31300354, 84.58345032, 33.45999908, 0.00000000
1, 30.8001, 2235, 0.08130715, -0.96276510, 0.32031697, 18.31853867, 12.57323933, -14.43195915, -29.61122513, 10.43554497, -65.91639709, 101.10905457, -5.31170034, 98.80887604, -0.38581365, 0.52431625, 0.56658369, 0.50519639, -0.17542948, -0.01494881, -0.13091791, 100.31300354, 84.58345032, 33.45999908, 0.00000000
1, 30.8101, 2236, 0.08818923, -0.95876896, 0.34354809, 17.09240723, 10.00654888, -12.40945148, -29.58199310, 10.52323914, -66.47179413, 101.26843262, -5.20877171, 98.93151855, -0.38508815, 0.52383310, 0.56824130, 0.50438869, -0.18047656, -0.01860763, -0.15130682, 100.31300354, 84.58345032, 33.45999908, 0.00000000
1, 30.8201, 2237, 0.08424246, -0.98696852, 0.35278282, 14.84627819, 9.37080765, -10.66092873, -29.90353584, 10.90324497, -65.82870483, 101.40645599, -5.12211227, 99.04473877, -0.38441783, 0.52338737, 0.56969678, 0.50372046, -0.17494562, 0.00993142, -0.15807220, 100.31300354, 84.58345032, 33.45999908, 0.00000000
1, 30.8301, 2238, 0.09506340, -1.00486648, 0.34996286, 12.49836349, 9.73383141, -9.20277405, -29.17275620, 10.72785759, -65.39023590, 101.58060455, -4.96934938, 99.15989685, -0.38392609, 0.52278596, 0.57156837, 0.50259840, -0.18406892, 0.02816147, -0.15287398, 100.31300354, 84.58345032, 33.45999908, 0.00000000
1, 30.8401, 2239, 0.10293107, -1.00807929, 0.34808129, 11.26264477, 7.76275826, -8.05977821, -29.87430573, 11.07863140, -65.88716888, 101.68508911, -4.90564442, 99.25245667, -0.38338149, 0.52241844, 0.57269013, 0.50211918, -0.18972063, 0.03171610, -0.14835761, 100.31300354, 84.58345032, 33.45999908, 0.00000000
1, 30.8501, 2240, 0.08654207, -1.00864387, 0.33807066, 9.76941395, 5.05498695, -6.79085350, -29.87430573, 11.07863140, -65.88716888, 101.77722168, -4.84908676, 99.31594086, -0.38298357, 0.52218235, 0.57359695, 0.50163311, -0.17228188, 0.03255761, -0.13669682, 100.31300354, 84.58345032, 33.45999908, 0.00000000
1, 30.8601, 2241, 0.04720076, -1.00571728, 0.32695952, 8.09470558, 2.64234090, -5.54763651, -29.61122513, 10.84478188, -65.71177673, 101.85487366, -4.79993582, 99.35326385, -0.38272732, 0.52205795, 0.57429236, 0.50116223, -0.13199346, 0.02986681, -0.12425369, 100.31300354, 84.58345032, 33.45999908, 0.00000000
1, 30.9201, 2242, -0.02793317, -0.96521282, 0.24585019, -0.80158162, 14.04940510, -8.73781967, -29.55276108, 10.96170712, -65.74101257, 102.03077698, -4.50008345, 99.97993469, -0.38078347, 0.51828539, 0.57903129, 0.50110579, -0.05150984, -0.01015308, -0.03956854, 100.31300354, 84.58345032, 33.45999908, 0.00000000
1, 30.9301, 2243, 0.00346846, -0.96788585, 0.22856328, -1.65219247, 12.39770603, -8.43336487, -29.99123001, 10.90324497, -65.59485626, 102.02150726, -4.38162136, 100.11865997, -0.38085020, 0.51707494, 0.58005887, 0.50111717, -0.08161595, -0.00762239, -0.02253793, 100.31300354, 84.58345032, 33.45999908, 0.00000000
1, 30.9401, 2244, -0.00114782, -0.96315324, 0.23429124, -1.70796847, 9.64660072, -8.48070240, -29.69891739, 10.75708866, -65.97486115, 101.99570465, -4.31860733, 100.23087311, -0.38081163, 0.51616603, 0.58068621, 0.50135678, -0.07516725, -0.01255387, -0.02847717, 100.31300354, 84.58345032, 33.45999908, 0.00000000
1, 30.9501, 2245, -0.03553975, -0.96729934, 0.22250742, -0.98948067, 7.47066164, -8.99739170, -29.69891739, 10.75708866, -65.97486115, 101.97873688, -4.24598360, 100.32276917, -0.38087332, 0.51534957, 0.58129513, 0.50144428, -0.03953499, -0.00854895, -0.01710169, 100.31300354, 84.58345032, 33.45999908, 0.00000000
1, 30.9601, 2246, -0.04832143, -0.96660125, 0.20354983, -1.53297436, 8.23837757, -9.25259209, -29.64045525, 11.19555664, -65.30254364, 101.95583344, -4.17243195, 100.42267609, -0.38093129, 0.51446795, 0.58191651, 0.50158495, -0.02542887, -0.00938125, 0.00150162, 100.31300354, 84.58345032, 33.45999908, 0.00000000
1, 30.9701, 2247, -0.03898869, -0.95768476, 0.22058307, -1.44642842, 8.30514431, -9.83046150, -29.99123001, 11.45863724, -65.62408447, 101.93379211, -4.09331417, 100.52439880, -0.38100687, 0.51355618, 0.58256906, 0.50170428, -0.03346954, -0.01850435, -0.01586871, 100.31300354, 84.58345032, 33.45999908, 0.00000000
1, 30.9801, 2248, -0.03479443, -0.94808638, 0.22750214, -1.22808468, 7.77960205, -10.35402679, -29.31891251, 8.62320995, -65.36100769, 101.93302917, -3.98077917, 100.62232208, -0.38118201, 0.51259714, 0.58341974, 0.50156349, -0.03611306, -0.02827905, -0.02300239, 100.31300354, 84.58345032, 33.45999908, 0.00000000
1, 30.9901, 2249, -0.03338441, -0.94928336, 0.21629648, -0.91398942, 8.20766544, -10.66329002, -29.61122513, 10.61093235, -65.15638733, 101.91660309, -3.89325690, 100.72474670, -0.38127404, 0.51166362, 0.58412814, 0.50162220, -0.03562780, -0.02720351, -0.01182773, 100.31300354, 84.58345032, 33.45999908, 0.00000000
1, 31.0001, 2250, -0.02249828, -0.95731378, 0.22126499, -1.18088388, 9.63886738, -10.88867092, -29.40660667, 10.69862556, -65.41946411, 101.89667511, -3.80642700, 100.84163666, -0.38131452, 0.51064616, 0.58488172, 0.50175017, -0.04500684, -0.01934789, -0.01707288, 100.31300354, 84.58345032, 33.45999908, 0.00000000
1, 31.0101, 2251, -0.00627588, -0.96145260, 0.24442570, -1.52768290, 10.32088661, -11.13089180, -29.40660667, 10.69862556, -65.41946411, 101.87297058, -3.71859479, 100.96566010, -0.38134569, 0.50957400, 0.58565235, 0.50191742, -0.05976653, -0.01542601, -0.04056070, 100.31300354, 84.58345032, 33.45999908, 0.00000000
1, 31.0201, 2252, 0.00285966, -0.96423912, 0.25287521, -1.52480233, 10.12485027, -10.94281387, -29.69891739, 10.72785759, -65.39023590, 101.84966278, -3.63214946, 101.08733368, -0.38137770, 0.50851941, 0.58640748, 0.50208110, -0.06740232, -0.01283513, -0.04937742, 100.31300354, 84.58345032, 33.45999908, 0.00000000
1, 31.0301, 2253, 0.01271256, -0.97370386, 0.24904092, -1.92043984, 10.53448391, -10.73522663, -29.31891251, 11.31248188, -65.03945923, 101.85283661, -3.49775505, 101.21311188, -0.38153020, 0.50733298, 0.58747000, 0.50192332, -0.07555136, -0.00353151, -0.04581220, 100.31300354, 84.58345032, 33.45999908, 0.00000000
1, 31.0401, 2254, 0.02556706, -0.97450674, 0.25384232, -2.26315069, 11.01087666, -10.38651466, -29.52353096, 11.10786343, -64.95176697, 101.82215881, -3.41851950, 101.34229279, -0.38152307, 0.50624162, 0.58819580, 0.50218070, -0.08634090, -0.00288555, -0.05067244, 100.31300354, 84.58345032, 33.45999908, 0.00000000
1, 31.0501, 2255, 0.03143813, -0.97519481, 0.24855478, -2.67274594, 11.16960144, -9.88678551, -29.84507370, 8.59397793, -65.21485138, 101.78754425, -3.34445095, 101.47193909, -0.38150311, 0.50515449, 0.58888566, 0.50248188, -0.09087236, -0.00238353, -0.04591636, 100.31300354, 84.58345032, 33.45999908, 0.00000000
1, 31.0601, 2256, 0.04500232, -0.97923422, 0.23707055, -3.19782162, 12.07409763, -9.29770851, -29.84507370, 8.59397793, -65.21485138, 101.74742126, -3.27791739, 101.60919189, -0.38143322, 0.50403982, 0.58955574, 0.50286853, -0.10320080, 0.00147082, -0.03503707, 100.31300354, 84.58345032, 33.45999908, 0.00000000
1, 31.0901, 2257, 0.06992058, -0.97344935, 0.25839442, -4.49577379, 6.89974499, -6.03950834, -29.31891251, 11.19555664, -65.59485626, 101.64829254, -3.02268243, 101.92120361, -0.38186204, 0.50104117, 0.59141254, 0.50335914, -0.12358010, -0.00493704, -0.05787297, 100.31300354, 84.58345032, 33.45999908, 0.00000000
1, 31.1001, 2258, 0.05387358, -0.97437930, 0.25961348, -4.98268890, 4.74637413, -5.01554585, -29.90353584, 11.13709450, -65.33177185, 101.59535980, -2.98315787, 101.97778320, -0.38205591, 0.50040781, 0.59156984, 0.50365710, -0.10681766, -0.00422892, -0.06001263, 100.31300354, 84.58345032, 33.45999908, 0.00000000
1, 31.1101, 2259, 0.04598565, -0.98053885, 0.26811314, -5.40826845, 3.36401963, -4.16677237, -29.90353584, 11.13709450, -65.33177185, 101.53903198, -2.94914436, 102.01905823, -0.38230199, 0.49986482, 0.59162503, 0.50394464, -0.09831884, 0.00169228, -0.06947239, 100.31300354, 84.58345032, 33.45999908, 0.00000000
1, 31.1201, 2260, 0.05441377, -0.97947466, 0.28399152, -5.97322035, 1.73715305, -3.33957887, -29.72814941, 9.12014008, -65.56562042, 101.47801971, -2.91998911, 102.04270935, -0.38261968, 0.49941716, 0.59156489, 0.50421786, -0.10625278, 0.00036890, -0.08633326, 100.31300354, 84.58345032, 33.45999908, 0.00000000
1, 31.1301, 2261, 0.06832227, -0.98248088, 0.28740942, -6.41658449, 0.27595833, -2.84298062, -29.69891739, 11.13709450, -65.77024078, 101.53842163, -2.70150280, 102.05532074, -0.38346744, 0.49863923, 0.59267193, 0.50304246, -0.11884554, 0.00319313, -0.09026127, 100.31300354, 84.58345032, 33.45999908, 0.00000000
1, 31.1401, 2262, 0.10406242, -1.00762475, 0.29702938, -7.45431900, -0.46906817, -1.91864574, -29.81584358, 10.64016342, -65.59485626, 101.46386719, -2.68194890, 102.05447388, -0.38389975, 0.49831200, 0.59241116, 0.50334400, -0.15171061, 0.02826860, -0.09937993, 100.31300354, 84.58345032, 33.45999908, 0.00000000
1, 31.1501, 2263, 0.11545148, -1.00259864, 0.32479161, -9.87061310, -3.37068295, -0.88795638, -29.46506882, 10.64016342, -65.82870483, 101.36660767, -2.66687036, 102.02309418, -0.38454086, 0.49808478, 0.59190166, 0.50367886, -0.16289325, 0.02287355, -0.12863874, 100.31300354, 84.58345032, 33.45999908, 0.00000000
1, 31.1601, 2264, 0.09266283, -0.99716043, 0.30893746, -10.81382561, -6.01674461, 0.18265016, -29.46506882, 10.64016342, -65.82870483, 101.26124573, -2.65721869, 101.96360779, -0.38531175, 0.49799743, 0.59121460, 0.50398296, -0.13983788, 0.01710033, -0.11457606, 100.31300354, 84.58345032, 33.45999908, 0.00000000
1, 31.1701, 2265, 0.05889735, -0.99477899, 0.30505633, -12.48285675, -5.97213221, 1.36168194, -29.69891739, 11.04940033, -65.44869995, 101.13927460, -2.65937090, 101.90225983, -0.38610023, 0.49791226, 0.59040356, 0.50441420, -0.10603829, 0.01432911, -0.11276171, 100.31300354, 84.58345032, 33.45999908, 0.00000000
1, 31.2001, 2266, 0.06464830, -0.97538471, 0.28276309, -15.30913258, -5.57993650, 3.61529541, -29.84507370, 9.61707115, -65.85793304, 100.78813171, -2.65051508, 101.71595764, -0.38849354, 0.49764612, 0.58807892, 0.50555342, -0.11141372, -0.00617683, -0.09624470, 100.31300354, 84.58345032, 33.45999908, 0.00000000
1, 31.2101, 2267, 0.07573728, -0.96039057, 0.26495147, -15.93068790, -5.41863489, 4.66109133, -29.84507370, 9.61707115, -65.85793304, 100.63183594, -2.68674612, 101.65396881, -0.38925427, 0.49758637, 0.58698791, 0.50629449, -0.12302834, -0.02161935, -0.08103432, 100.31300354, 84.58345032, 33.45999908, 0.00000000
1, 31.2201, 2268, 0.06429066, -0.96428096, 0.24040110, -16.22322845, -6.03392887, 5.52645397, -29.17275620, 10.66939449, -66.09178162, 100.47302246, -2.73052955, 101.58444977, -0.39001992, 0.49758697, 0.58582425, 0.50705200, -0.11223370, -0.01816194, -0.05922638, 100.31300354, 84.58345032, 33.45999908, 0.00000000
1, 31.2301, 2269, 0.04685456, -0.97289848, 0.20903404, -16.53276062, -6.67137289, 6.58429241, -29.02659988, 10.64016342, -65.88716888, 100.32209778, -2.74131513, 101.50570679, -0.39096689, 0.49752039, 0.58477473, 0.50759912, -0.09540051, -0.00996130, -0.03063396, 100.31300354, 84.58345032, 33.45999908, 0.00000000
1, 31.2401, 2270, 0.03110170, -0.97474110, 0.17970908, -16.45023346, -5.95877934, 7.40642691, -29.55276108, 9.93861389, -66.26717377, 100.16123962, -2.80412579, 101.43384552, -0.39165300, 0.49760303, 0.58351934, 0.50843328, -0.08005232, -0.00852476, -0.00397989, 100.31300354, 84.58345032, 33.45999908, 0.00000000
1, 31.2501, 2271, 0.02784270, -0.97603691, 0.16435575, -16.59322929, -4.38025570, 7.62113333, -29.49429893, 10.20169544, -66.32563782, 99.99831390, -2.87199354, 101.37733459, -0.39225429, 0.49762031, 0.58230084, 0.50934893, -0.07791468, -0.00764600, 0.00856671, 100.31300354, 84.58345032, 33.45999908, 0.00000000
1, 31.2601, 2272, 0.03951275, -0.98082662, 0.16519436, -16.11322975, -4.28072929, 8.00296879, -29.49429893, 10.20169544, -66.61795044, 99.84021759, -2.94392943, 101.32133484, -0.39281183, 0.49766761, 0.58108902, 0.51025617, -0.09081525, -0.00327966, 0.00499397, 100.31300354, 84.58345032, 33.45999908, 0.00000000
1, 31.2701, 2273, 0.02801532, -0.97640789, 0.16714217, -15.77031422, -4.86894321, 7.23096180, -29.90353584, 10.08477020, -66.61795044, 99.68583679, -3.00742793, 101.26103973, -0.39341766, 0.49771252, 0.57990432, 0.51109284, -0.08049929, -0.00810656, 0.00033052, 100.31300354, 84.58345032, 33.45999908, 0.00000000
1, 31.2801, 2274, -0.00387087, -0.97088778, 0.15390135, -15.18430233, -6.33699512, 6.92561913, -29.08506203, 6.75241137, -66.93949127, 99.53212738, -3.04881358, 101.18526459, -0.39420643, 0.49774280, 0.57873571, 0.51177979, -0.04954523, -0.01399850, 0.01088846, 100.31300354, 84.58345032, 33.45999908, 0.00000000
1, 31.2901, 2275, -0.03810694, -0.96378314, 0.13702451, -14.86437798, -7.71801090, 7.25667763, -29.81584358, 9.35398960, -67.17333984, 99.38840485, -3.10821819, 101.09710693, -0.39491367, 0.49794465, 0.57748944, 0.51244545, -0.01607218, -0.02146372, 0.02511645, 100.31300354, 84.58345032, 33.45999908, 0.00000000
1, 31.3001, 2276, -0.05340348, -0.95964980, 0.13782501, -14.34170818, -8.38301659, 6.84859848, -30.02046204, 9.14937115, -67.52411652, 99.25030518, -3.16272736, 101.00318146, -0.39564908, 0.49817246, 0.57625991, 0.51304060, -0.00176744, -0.02594465, 0.02185518, 100.31300354, 84.58345032, 33.45999908, 0.00000000
1, 31.3101, 2277, -0.05654161, -0.96036029, 0.15045649, -13.50830936, -6.95637226, 5.75032425, -29.64045525, 9.64630222, -67.08564758, 99.11968231, -3.20884538, 100.92522430, -0.39632523, 0.49830842, 0.57516330, 0.51361674, 0.00047701, -0.02558026, 0.00691578, 100.31300354, 84.58345032, 33.45999908, 0.00000000
1, 31.3201, 2278, -0.05640787, -0.96362734, 0.14498495, -12.85832500, -5.01460028, 4.89450312, -29.64045525, 9.64630222, -67.08564758, 98.99448395, -3.24969411, 100.86791229, -0.39691362, 0.49833596, 0.57419938, 0.51421392, -0.00038255, -0.02261391, 0.01018818, 100.31300354, 84.58345032, 33.45999908, 0.00000000
1, 31.3301, 2279, -0.05183743, -0.96491492, 0.13388857, -12.19200611, -4.38316345, 4.21755362, -29.52353096, 9.52937698, -67.40718842, 98.86316681, -3.28035331, 100.81631470, -0.39755654, 0.49826938, 0.57327020, 0.51481819, -0.00556020, -0.02161150, 0.01914237, 100.31300354, 84.58345032, 33.45999908, 0.00000000
1, 31.3401, 2280, -0.04948068, -0.96578920, 0.12970236, -11.50204754, -4.25462914, 3.45821261, -28.99736977, 8.30166626, -67.05641174, 98.75097656, -3.30837774, 100.76888275, -0.39811158, 0.49823618, 0.57245421, 0.51532918, -0.00838064, -0.02103597, 0.02119516, 100.31300354, 84.58345032, 33.45999908, 0.00000000
1, 31.3501, 2281, -0.05047525, -0.97012174, 0.12627882, -10.73003674, -3.56711054, 2.65857220, -29.61122513, 5.29085064, -67.37796021, 98.64601898, -3.32960582, 100.72953033, -0.39863458, 0.49815813, 0.57173079, 0.51580328, -0.00779267, -0.01695911, 0.02275108, 100.31300354, 84.58345032, 33.45999908, 0.00000000
1, 31.3601, 2282, -0.04976838, -0.97976685, 0.13194750, -10.15681839, -2.65132260, 1.70916855, -29.52353096, 9.03244686, -67.26103210, 98.54618073, -3.34282947, 100.70069885, -0.39912957, 0.49801064, 0.57110596, 0.51625484, -0.00880532, -0.00757236, 0.01531535, 100.31300354, 84.58345032, 33.45999908, 0.00000000
1, 31.3701, 2283, -0.04893182, -0.99199140, 0.12769340, -9.15239525, -2.12911701, 0.62221187, -29.52353096, 9.03244686, -67.26103210, 98.45595551, -3.34610367, 100.67866516, -0.39960390, 0.49781987, 0.57059115, 0.51664090, -0.00974877, 0.00442140, 0.01792165, 100.31300354, 84.58345032, 33.45999908, 0.00000000
1, 31.3801, 2284, -0.05202448, -1.00288701, 0.12454165, -8.34613323, -1.38364673, -0.40432239, -29.66968727, 9.35398960, -67.64103699, 98.34445953, -3.33349919, 100.66183472, -0.40022942, 0.49746078, 0.57006294, 0.51708561, -0.00657975, 0.01508230, 0.01945877, 100.31300354, 84.58345032, 33.45999908, 0.00000000
1, 31.3901, 2285, -0.06035704, -1.00477457, 0.12355981, -7.63820219, 0.08128531, -1.69287372, -29.26045036, 5.37854433, -67.46565247, 98.26783752, -3.31704664, 100.66503143, -0.40063283, 0.49710691, 0.56979328, 0.51741064, 0.00206416, 0.01669993, 0.01869016, 100.31300354, 84.58345032, 33.45999908, 0.00000000
1, 31.4001, 2286, -0.06396902, -0.99104452, 0.11858905, -7.07665491, 1.93983066, -2.74234033, -29.43583679, 8.44782257, -68.31335449, 98.19568634, -3.29280686, 100.68812561, -0.40096694, 0.49663609, 0.56965941, 0.51775122, 0.00606410, 0.00277182, 0.02240540, 100.31300354, 84.58345032, 33.45999908, 0.00000000
1, 31.4101, 2287, -0.05293128, -0.98270130, 0.11899125, -6.29712296, 3.46458793, -3.59222507, -29.11429405, 8.65244102, -67.58258057, 98.13037109, -3.26226616, 100.72751617, -0.40123004, 0.49608102, 0.56965065, 0.51808918, -0.00448728, -0.00576835, 0.02087638, 100.31300354, 84.58345032, 33.45999908, 0.00000000
1, 31.4201, 2288, -0.03433966, -0.98135543, 0.12293547, -5.54718637, 4.50087070, -4.41832352, -29.11429405, 8.65244102, -67.58258057, 98.07193756, -3.22491932, 100.77830505, -0.40144649, 0.49546382, 0.56974763, 0.51840526, -0.02247989, -0.00730563, 0.01593056, 100.31300354, 84.58345032, 33.45999908, 0.00000000
1, 31.4301, 2289, -0.02271547, -0.98057413, 0.12336820, -4.78599644, 4.61346817, -5.21400356, -29.02659988, 9.00321579, -67.67027283, 98.00615692, -3.14584541, 100.82788086, -0.40191567, 0.49464735, 0.56996363, 0.51858395, -0.03321945, -0.00827647, 0.01454888, 100.31300354, 84.58345032, 33.45999908, 0.00000000
1, 31.4801, 2290, 0.00342230, -0.98103571, 0.17903788, -3.67711282, 2.28990698, -6.70311689, -28.38351250, 6.95702982, -68.16719818, 97.85260010, -2.79932165, 101.06751251, -0.40328330, 0.49142107, 0.57160830, 0.51877922, -0.05389122, -0.00871237, -0.04469755, 100.31300354, 84.58345032, 33.45999908, 0.00000000
1, 31.4901, 2291, -0.00699098, -0.98255599, 0.18687837, -3.53611851, 2.37986422, -6.77287149, -29.66968727, 8.62320995, -68.19643402, 97.81548309, -2.73549247, 101.10025024, -0.40362388, 0.49085099, 0.57182097, 0.51881975, -0.04162052, -0.00728165, -0.05244445, 100.31300354, 84.58345032, 33.45999908, 0.00000000
1, 31.5001, 2292, -0.01607492, -0.98392761, 0.18314527, -3.50423574, 4.10921478, -6.97742271, -29.28968048, 8.53551579, -67.52411652, 97.77790070, -2.67193866, 101.15035248, -0.40388599, 0.49019322, 0.57210445, 0.51892513, -0.03141449, -0.00604345, -0.04936380, 100.31300354, 84.58345032, 33.45999908, 0.00000000
1, 31.5101, 2293, -0.02015904, -0.98434889, 0.16893578, -3.50290704, 6.86860371, -7.29724216, -29.08506203, 4.64776373, -67.78719330, 97.73911285, -2.60887003, 101.22823334, -0.40402460, 0.48939401, 0.57249874, 0.51913667, -0.02619716, -0.00574151, -0.03583155, 100.31300354, 84.58345032, 33.45999908, 0.00000000
1, 31.5201, 2294, -0.01275410, -0.98609877, 0.15317382, -3.57317448, 9.66258621, -7.63285160, -29.08506203, 4.64776373, -67.78719330, 97.69843292, -2.54611850, 101.33423615, -0.40404174, 0.48844817, 0.57300228, 0.51945859, -0.03246136, -0.00410781, -0.02072800, 100.31300354, 84.58345032, 33.45999908, 0.00000000
1, 31.5301, 2295, 0.00664469, -0.98560107, 0.14753106, -3.66382384, 11.26524448, -7.68112803, -29.49429893, 8.15550995, -67.31949615, 97.66600800, -2.44906378, 101.45549774, -0.40413097, 0.48730460, 0.57373524, 0.51965398, -0.05061153, -0.00474255, -0.01571271, 100.31300354, 84.58345032, 33.45999908, 0.00000000
1, 31.5401, 2296, 0.03209758, -0.98864782, 0.13541980, -3.34878254, 11.70153713, -7.60463476, -29.23121834, 8.53551579, -67.67027283, 97.62702179, -2.38913655, 101.58159637, -0.40403390, 0.48627412, 0.57431829, 0.52005064, -0.07451769, -0.00181748, -0.00410608, 100.31300354, 84.58345032, 33.45999908, 0.00000000
1, 31.5501, 2297, 0.05459995, -0.98777759, 0.12096597, -2.94047213, 10.38842773, -7.16792679, -28.41274452, 8.44782257, -67.69950104, 97.59281921, -2.33174109, 101.69404602, -0.40396482, 0.48533896, 0.57485414, 0.52038580, -0.09595723, -0.00278972, 0.00978719, 100.31300354, 84.58345032, 33.45999908, 0.00000000
1, 31.6401, 2298, 0.01535008, -0.98583305, 0.15572886, -1.95510769, 9.96066475, -6.40199232, -29.08506203, 7.04472351, -67.87489319, 97.38858795, -1.74706471, 102.37510681, -0.40474677, 0.47861752, 0.57895952, 0.52145112, -0.04655913, -0.00562935, -0.02861602, 100.31300354, 84.58345032, 33.45999908, 0.00000000
1, 31.6501, 2299, 0.02889130, -0.98249900, 0.15207510, -2.10379624, 10.49851894, -6.36975384, -29.37737465, 8.59397793, -67.96258545, 97.36400604, -1.69723320, 102.48736572, -0.40459561, 0.47774258, 0.57949972, 0.52177060, -0.05921386, -0.00903817, -0.02533878, 100.31300354, 84.58345032, 33.45999908, 0.00000000
1, 31.6601, 2300, 0.04063253, -0.98227298, 0.15043108, -2.09960580, 10.22911167, -6.02570677, -28.96813774, 8.85705948, -68.34259033, 97.33968353, -1.65043652, 102.59650421, -0.40444154, 0.47689706, 0.58001578, 0.52209014, -0.07011507, -0.00934066, -0.02408401, 100.31300354, 84.58345032, 33.45999908, 0.00000000
1, 31.6701, 2301, 0.04779883, -0.98420691, 0.14569169, -2.05111265, 9.21371651, -5.78763437, -28.41274452, 7.89242887, -68.13796997, 97.31623077, -1.60466599, 102.69522858, -0.40432560, 0.47611108, 0.58048755, 0.52237284, -0.07646477, -0.00747521, -0.01974231, 100.31300354, 84.58345032, 33.45999908, 0.00000000
1, 31.6801, 2302, 0.04738422, -0.98351610, 0.13847795, -1.96129811, 7.74362087, -5.45577049, -28.41274452, 7.89242887, -68.13796997, 97.30463409, -1.48848641, 102.77597809, -0.40460581, 0.47514415, 0.58119601, 0.52224851, -0.07493918, -0.00822850, -0.01287048, 100.31300354, 84.58345032, 33.45999908, 0.00000000
1, 31.6901, 2303, 0.04030405, -0.98558307, 0.13299321, -1.72263813, 5.71868515, -5.17407799, -29.26045036, 8.47705364, -67.61180878, 97.28565216, -1.44436622, 102.83921814, -0.40462410, 0.47455978, 0.58153307, 0.52239031, -0.06613126, -0.00622491, -0.00761374, 100.31300354, 84.58345032, 33.45999908, 0.00000000
1, 31.7001, 2304, 0.03656347, -0.99126172, 0.13489771, -1.80112755, 4.89529848, -4.99991751, -28.82198143, 8.94475269, -68.13796997, 97.26616669, -1.40091431, 102.89404297, -0.40467927, 0.47401899, 0.58183014, 0.52250791, -0.06163571, -0.00060992, -0.00986059, 100.31300354, 84.58345032, 33.45999908, 0.00000000
1, 31.7101, 2305, 0.03919621, -0.98281527, 0.14225473, -1.66660523, 4.13967514, -4.66911840, -28.88044357, 8.53551579, -68.25489807, 97.24824524, -1.35979509, 102.94095612, -0.40475181, 0.47353393, 0.58209264, 0.52259904, -0.06354742, -0.00912773, -0.01752007, 100.31300354, 84.58345032, 33.45999908, 0.00000000
1, 31.7201, 2306, 0.03480046, -0.99020183, 0.14780271, -2.06041503, 4.31440639, -4.83520174, -29.69891739, 7.10318613, -68.07950592, 97.22639465, -1.31723475, 102.98978424, -0.40483916, 0.47301862, 0.58235008, 0.52271122, -0.05844386, -0.00181147, -0.02343683, 100.31300354, 84.58345032, 33.45999908, 0.00000000
1, 31.7301, 2307, 0.02275641, -0.99318433, 0.15385798, -1.88658333, 4.53652000, -5.32285166, -29.69891739, 7.10318613, -68.07950592, 97.23902893, -1.22331548, 103.04431915, -0.40502334, 0.47236615, 0.58297521, 0.52246165, -0.04542088, 0.00111057, -0.02974687, 100.31300354, 84.58345032, 33.45999908, 0.00000000
1, 31.7401, 2308, 0.00836925, -0.99765551, 0.15029360, -1.83318865, 4.48936939, -5.51744223, -29.31891251, 8.27243519, -68.40105438, 97.21949005, -1.17419386, 103.09572601, -0.40512311, 0.47181568, 0.58327681, 0.52254510, -0.02955882, 0.00556652, -0.02614057, 100.31300354, 84.58345032, 33.45999908, 0.00000000
1, 31.7501, 2309, -0.00404120, -0.99483705, 0.14282744, -1.76588416, 4.80369949, -5.52833223, -28.70505714, 8.50628471, -68.40105438, 97.20059204, -1.12532413, 103.15024567, -0.40520459, 0.47125244, 0.58359283, 0.52263743, -0.01627981, 0.00270152, -0.01902575, 100.31300354, 84.58345032, 33.45999908, 0.00000000
1, 31.7601, 2310, -0.00449080, -0.98995161, 0.13925052, -1.53165710, 5.91448832, -6.01309443, -28.82198143, 6.13855600, -68.43028259, 97.18384552, -1.07299352, 103.21636200, -0.40524203, 0.47062176, 0.58397841, 0.52274609, -0.01492930, -0.00223482, -0.01575213, 100.31300354, 84.58345032, 33.45999908, 0.00000000
1, 31.7701, 2311, 0.00474063, -0.98752618, 0.14467452, -1.26846170, 7.58170176, -6.44991112, -29.34814262, 8.33089733, -68.43028259, 97.16948700, -1.01835465, 103.29956055, -0.40520349, 0.46990156, 0.58445263, 0.52289379, -0.02323921, -0.00471862, -0.02140197, 100.31300354, 84.58345032, 33.45999908, 0.00000000
1, 31.7901, 2312, 0.03695417, -0.97438288, 0.14686356, -1.06455994, 8.33574486, -6.59226847, -28.64659500, 6.89856768, -68.19643402, 97.16732788, -0.87029207, 103.48262024, -0.40514165, 0.46829346, 0.58572817, 0.52295697, -0.05286884, -0.01791569, -0.02353944, 100.31300354, 84.58345032, 33.45999908, 0.00000000
1, 31.8001, 2313, 0.05304414, -0.97076488, 0.14879566, -0.81095797, 8.04906464, -6.16417694, -28.99736977, 8.59397793, -67.90412140, 97.15777588, -0.81904793, 103.57009125, -0.40504622, 0.46758160, 0.58622682, 0.52310926, -0.06804498, -0.02157349, -0.02560611, 100.31300354, 84.58345032, 33.45999908, 0.00000000
1, 31.8101, 2314, 0.06563415, -0.97511196, 0.14687605, -0.68306929, 6.35469723, -5.90824795, -29.02659988, 8.79859638, -67.78719330, 97.14982605, -0.76824355, 103.64039612, -0.40502018, 0.46696460, 0.58666039, 0.52319443, -0.07974288, -0.01725454, -0.02380998, 100.31300354, 84.58345032, 33.45999908, 0.00000000
1, 31.8201, 2315, 0.06163505, -0.98156250, 0.14424054, -0.52441764, 3.61288667, -5.53746748, -28.88044357, 7.36626720, -67.99181366, 97.14388275, -0.71773690, 103.68305206, -0.40511060, 0.46649718, 0.58698893, 0.52317291, -0.07485504, -0.01082528, -0.02130445, 100.31300354, 84.58345032, 33.45999908, 0.00000000
1, 31.8301, 2316, 0.04858922, -0.98427808, 0.14031164, -0.31034356, 2.14556789, -5.27722311, -28.88044357, 7.36626720, -67.99181366, 97.16935730, -0.56441510, 103.70874023, -0.40568179, 0.46576303, 0.58776087, 0.52251732, -0.06046904, -0.00811372, -0.01737114, 100.31300354, 84.58345032, 33.45999908, 0.00000000
1, 31.8401, 2317, 0.03767024, -0.99167943, 0.13628295, -0.25280941, 1.86089921, -5.00432301, -28.82198143, 8.44782257, -67.99181366, 97.16648102, -0.51706791, 103.73336029, -0.40582567, 0.46541247, 0.58801776, 0.52242887, -0.04734277, -0.00068718, -0.01304453, 100.31300354, 84.58345032, 33.45999908, 0.00000000
1, 31.8501, 2318, 0.03723007, -0.99526250, 0.13597046, -0.17869966, 1.63319027, -4.92306376, -29.08506203, 8.41859055, -68.54721069, 97.16438293, -0.47022641, 103.75563049, -0.40597451, 0.46507883, 0.58826661, 0.52233016, -0.04608558, 0.00288308, -0.01278617, 100.31300354, 84.58345032, 33.45999908, 0.00000000
1, 31.8601, 2319, 0.04264189, -0.99525046, 0.13167025, -0.04236231, 2.13793397, -4.86018991, -28.96813774, 8.18474102, -67.90412140, 97.16365051, -0.42463514, 103.78281403, -0.40608901, 0.46473029, 0.58853692, 0.52224696, -0.05068047, 0.00286907, -0.00849322, 100.31300354, 84.58345032, 33.45999908, 0.00000000
1, 31.8701, 2320, 0.04963253, -0.99242377, 0.12851399, 0.09481245, 2.57306004, -4.79898643, -29.20198822, 6.89856768, -68.60566711, 97.16426086, -0.38017288, 103.81425476, -0.40617281, 0.46436960, 0.58882636, 0.52217644, -0.05688177, 0.00004283, -0.00530643, 100.31300354, 84.58345032, 33.45999908, 0.00000000
1, 31.8801, 2321, 0.05065522, -0.98546720, 0.13766919, 0.15009406, 2.43221450, -4.71541691, -29.23121834, 8.06781673, -68.40105438, 97.20366669, -0.22384472, 103.84355927, -0.40668654, 0.46365011, 0.58968318, 0.52144843, -0.05666389, -0.00691410, -0.01427191, 100.31300354, 84.58345032, 33.45999908, 0.00000000
1, 31.8901, 2322, 0.05866444, -0.98716247, 0.14820942, 0.10800757, 1.60247171, -4.26145363, -29.23121834, 8.06781673, -68.40105438, 97.20457458, -0.18353099, 103.86473846, -0.40679455, 0.46336150, 0.58991677, 0.52135652, -0.06250265, -0.00518094, -0.02427254, 100.31300354, 84.58345032, 33.45999908, 0.00000000
1, 31.9001, 2323, 0.06198165, -0.98875749, 0.15636764, -0.03982621, 0.66985488, -3.91375327, -28.67582512, 8.12627888, -67.69950104, 97.20404053, -0.14552592, 103.87623596, -0.40694046, 0.46312791, 0.59009635, 0.52124697, -0.06515997, -0.00360175, -0.03242817, 100.31300354, 84.58345032, 33.45999908, 0.00000000
1, 31.9101, 2324, 0.05987534, -0.98374391, 0.15550192, -0.09149273, 0.59308958, -3.63450789, -28.82198143, 8.09704781, -68.31335449, 97.20301819, -0.11019838, 103.88661194, -0.40707958, 0.46291047, 0.59025949, 0.52114666, -0.06241855, -0.00861700, -0.03157151, 100.31300354, 84.58345032, 33.45999908, 0.00000000
1, 31.9201, 2325, 0.05555990, -0.98007822, 0.15288554, -0.18589197, 1.12391078, -3.28765798, -28.82198143, 8.18474102, -68.34259033, 97.20105743, -0.07896728, 103.90182495, -0.40717945, 0.46268338, 0.59042329, 0.52108496, -0.05751992, -0.01228331, -0.02898939, 100.31300354, 84.58345032, 33.45999908, 0.00000000
1, 31.9301, 2326, 0.05240570, -0.97802043, 0.15311892, -0.24294855, 1.51497972, -2.90956259, -28.90967560, 8.36012840, -68.25489807, 97.28937531, 0.10232656, 103.92921448, -0.40763354, 0.46203241, 0.59157932, 0.51999515, -0.05319241, -0.01429711, -0.02887624, 100.31300354, 84.58345032, 33.45999908, 0.00000000
1, 31.9401, 2327, 0.05261602, -0.98487723, 0.15273948, -0.40831575, 2.04391670, -2.50927591, -28.90967560, 8.36012840, -68.25489807, 97.28527069, 0.12464768, 103.95262909, -0.40765890, 0.46179542, 0.59173423, 0.52000946, -0.05096739, -0.00729510, -0.02737823, 100.31300354, 84.58345032, 33.45999908, 0.00000000
1, 31.9901, 2328, 0.04955052, -0.98049843, 0.13658668, -0.69223058, 2.25710344, -1.32633221, -29.20198822, 7.74627304, -68.07950592, 97.29666901, 0.33480424, 104.10886383, -0.40798786, 0.46007144, 0.59315795, 0.51965743, -0.04411688, -0.01160636, -0.01102159, 100.31300354, 84.58345032, 33.45999908, 0.00000000
1, 32.0001, 2329, 0.04717439, -0.97905612, 0.13868846, -0.66591662, 1.57557011, -1.22022903, -28.85121346, 8.76936531, -68.10874176, 97.29007721, 0.34491646, 104.12602234, -0.40798867, 0.45991305, 0.59323263, 0.51971179, -0.04157039, -0.01306602, -0.01324313, 100.31300354, 84.58345032, 33.45999908, 0.00000000
1, 32.0101, 2330, 0.04428376, -0.97970521, 0.14157057, -0.53228700, 0.82703769, -1.18719363, -29.11429405, 7.89242887, -68.48874664, 97.28479004, 0.35564011, 104.13571930, -0.40802121, 0.45979515, 0.59328538, 0.51973033, -0.03850297, -0.01243318, -0.01623164, 100.31300354, 84.58345032, 33.45999908, 0.00000000
1, 32.0201, 2331, 0.03919953, -0.98346090, 0.14133073, -0.63494503, 0.49498668, -1.17627525, -29.20198822, 7.51242304, -68.19643402, 97.27845764, 0.36668471, 104.14210510, -0.40807462, 0.45968920, 0.59332126, 0.51974124, -0.03322934, -0.00868955, -0.01611820, 100.31300354, 84.58345032, 33.45999908, 0.00000000
1, 32.0301, 2332, 0.03506914, -0.98471951, 0.14374927, -0.54164159, 0.13028568, -1.18615580, -28.85121346, 7.65857935, -68.37181854, 97.40663147, 0.54763591, 104.16587067, -0.40838587, 0.45919713, 0.59463435, 0.51842946, -0.02816591, -0.00736543, -0.01806671, 100.31300354, 84.58345032, 33.45999908, 0.00000000
1, 32.0401, 2333, 0.02786935, -0.98796475, 0.14653344, -0.50534856, 0.01460997, -1.43474030, -28.85121346, 7.65857935, -68.37181854, 97.40157318, 0.56182981, 104.16784668, -0.40847039, 0.45910406, 0.59466922, 0.51840526, -0.01852550, -0.00389345, -0.01923371, 100.31300354, 84.58345032, 33.45999908, 0.00000000
1, 32.0501, 2334, 0.02425932, -0.99485743, 0.14719856, -0.51383001, 0.66441190, -1.66450918, -29.37737465, 7.22011089, -68.13796997, 97.39646912, 0.57748026, 104.17653656, -0.40853211, 0.45896932, 0.59473598, 0.51839930, -0.01465546, 0.00298948, -0.02000654, 100.31300354, 84.58345032, 33.45999908, 0.00000000
1, 32.0601, 2335, 0.02319307, -1.00134933, 0.14749874, -0.46703181, 1.12615967, -2.02214718, -28.96813774, 7.42472935, -68.48874664, 97.39189911, 0.59609520, 104.19027710, -0.40858424, 0.45879674, 0.59483570, 0.51839662, -0.01328434, 0.00947301, -0.02040563, 100.31300354, 84.58345032, 33.45999908, 0.00000000
1, 32.0701, 2336, 0.02170074, -1.00500631, 0.14357387, -0.52990568, 1.83103609, -2.39011955, -28.82198143, 7.57088566, -68.37181854, 97.38676453, 0.61747146, 104.21148682, -0.40861905, 0.45857072, 0.59497237, 0.51841229, -0.01143003, 0.01312901, -0.01657434, 100.31300354, 84.58345032, 33.45999908, 0.00000000
1, 32.0801, 2337, 0.02611887, -1.00152421, 0.14353713, -0.46317869, 2.14995337, -2.59368062, -28.67582512, 7.86319780, -68.48874664, 97.41964722, 0.68027747, 104.24297333, -0.40866876, 0.45823753, 0.59546739, 0.51809925, -0.01527818, 0.00966428, -0.01643763, 100.31300354, 84.58345032, 33.45999908, 0.00000000
1, 32.0901, 2338, 0.03397387, -0.99543226, 0.14512014, -0.58461380, 1.87287641, -2.70389581, -28.67582512, 7.86319780, -68.48874664, 97.41400909, 0.70469719, 104.26498413, -0.40871763, 0.45799139, 0.59561545, 0.51810813, -0.02220179, 0.00363078, -0.01760438, 100.31300354, 84.58345032, 33.45999908, 0.00000000
1, 32.1001, 2339, 0.03974200, -0.99031651, 0.14596176, -0.58786064, 2.10330439, -2.87362266, -28.93890572, 6.02163124, -68.40105438, 97.40836334, 0.73049843, 104.28951263, -0.40876231, 0.45772579, 0.59577829, 0.51812041, -0.02753121, -0.00149297, -0.01851709, 100.31300354, 84.58345032, 33.45999908, 0.00000000
1, 32.1101, 2340, 0.04481843, -0.98520708, 0.14799008, -0.59272903, 2.48828673, -2.95201516, -28.85121346, 7.83396673, -67.96258545, 97.40272522, 0.75660229, 104.31795502, -0.40879077, 0.45743841, 0.59595770, 0.51814538, -0.03215324, -0.00661313, -0.02062740, 100.31300354, 84.58345032, 33.45999908, 0.00000000
1, 32.1201, 2341, 0.05320368, -0.98407161, 0.15114371, -0.73675793, 2.67429805, -2.77048731, -29.23121834, 8.18474102, -68.22566223, 97.39569092, 0.78067052, 104.34799194, -0.40880710, 0.45714697, 0.59613001, 0.51819170, -0.04011552, -0.00776178, -0.02386402, 100.31300354, 84.58345032, 33.45999908, 0.00000000
1, 32.1301, 2342, 0.06114027, -0.98870683, 0.15272665, -0.78465605, 2.28425288, -2.49875665, -28.61736298, 7.71704149, -67.84565735, 97.44491577, 0.91968358, 104.37681580, -0.40919697, 0.45653611, 0.59695286, 0.51747471, -0.04714595, -0.00310166, -0.02532479, 100.31300354, 84.58345032, 33.45999908, 0.00000000
1, 32.1401, 2343, 0.07110617, -0.99129593, 0.14741834, -0.87586105, 2.58506417, -1.99969506, -28.61736298, 7.71704149, -67.84565735, 97.43656158, 0.93619096, 104.40500641, -0.40918797, 0.45628378, 0.59708494, 0.51755190, -0.05523574, -0.00039682, -0.01939175, 100.31300354, 84.58345032, 33.45999908, 0.00000000
1, 32.1501, 2344, 0.08582678, -0.99026644, 0.14283422, -1.13859904, 2.36215901, -1.51093292, -28.96813774, 7.83396673, -68.51797485, 97.42555237, 0.94813198, 104.43037415, -0.40917876, 0.45605755, 0.59717774, 0.51765138, -0.06971480, -0.00143874, -0.01495094, 100.31300354, 84.58345032, 33.45999908, 0.00000000
1, 32.1601, 2345, 0.09194552, -0.98716903, 0.14187306, -1.09521866, 0.34871507, -1.05121982, -28.96813774, 7.48319197, -67.87489319, 97.41466522, 0.95808816, 104.43516541, -0.40925175, 0.45594805, 0.59718239, 0.51768494, -0.07563844, -0.00455653, -0.01416268, 100.31300354, 84.58345032, 33.45999908, 0.00000000
1, 32.1701, 2346, 0.09585927, -0.98398960, 0.13788350, -0.96995485, 0.48519430, -0.15573078, -29.28968048, 8.15550995, -68.05027771, 97.40504456, 0.95898837, 104.44017029, -0.40927202, 0.45588347, 0.59716195, 0.51774925, -0.07946410, -0.00775036, -0.01032974, 100.31300354, 84.58345032, 33.45999908, 0.00000000
1, 32.1801, 2347, 0.10046372, -0.98291743, 0.13828440, -1.11773252, -0.36915836, 0.56188238, -29.08506203, 8.18474102, -68.37181854, 97.45018768, 1.27851462, 104.40926361, -0.41087687, 0.45473981, 0.59835398, 0.51610523, -0.08270684, -0.00878910, -0.01066212, 100.31300354, 84.58345032, 33.45999908, 0.00000000
1, 32.1901, 2348, 0.09719589, -0.98519421, 0.14046733, -1.13109648, -2.05698037, 1.22286630, -28.82198143, 7.10318613, -68.05027771, 97.43841553, 1.26898074, 104.38729095, -0.41097355, 0.45485610, 0.59818059, 0.51612669, -0.07533466, -0.00636680, -0.01233157, 100.31300354, 84.58345032, 33.45999908, 0.00000000
1, 32.2001, 2349, 0.08541883, -0.99097359, 0.14421873, -1.32415783, -3.57400990, 1.96031284, -28.82198143, 7.10318613, -68.05027771, 97.42440033, 1.25406694, 104.34932709, -0.41112351, 0.45507246, 0.59791493, 0.51612431, -0.06379183, -0.00062849, -0.01635141, 100.31300354, 84.58345032, 33.45999908, 0.00000000
1, 32.2101, 2350, 0.06891603, -0.98969495, 0.15055533, -1.45776653, -4.14764881, 2.59680581, -28.99736977, 7.42472935, -68.05027771, 97.40892792, 1.23355114, 104.30486298, -0.41127974, 0.45534301, 0.59759730, 0.51612902, -0.04762163, -0.00195817, -0.02298442, 100.31300354, 84.58345032, 33.45999908, 0.00000000
1, 32.2201, 2351, 0.05243772, -0.98946500, 0.15875421, -1.56460726, -4.03719378, 3.03895116, -29.11429405, 5.43700647, -67.84565735, 97.39242554, 1.20850933, 104.26094055, -0.41141453, 0.45562774, 0.59726125, 0.51615936, -0.03157886, -0.00224626, -0.03149854, 100.31300354, 84.58345032, 33.45999908, 0.00000000
1, 32.2301, 2352, 0.04111508, -0.98773479, 0.16380699, -1.89545333, -3.12011242, 3.17017865, -28.79274940, 7.80473518, -68.40105438, 97.42829895, 1.20914114, 104.24411011, -0.41135091, 0.45584136, 0.59735811, 0.51590937, -0.02061128, -0.00400270, -0.03665953, 100.31300354, 84.58345032, 33.45999908, 0.00000000
1, 32.2401, 2353, 0.03468578, -0.99179423, 0.16666362, -2.08478117, -2.14871621, 3.26584649, -28.88044357, 7.71704149, -68.10874176, 97.40698242, 1.17943871, 104.21862030, -0.41139787, 0.45603392, 0.59705722, 0.51604992, -0.01432249, 0.00009701, -0.03917079, 100.31300354, 84.58345032, 33.45999908, 0.00000000
1, 32.2501, 2354, 0.03603241, -0.99052012, 0.16610731, -2.25512433, -1.28117180, 3.34127140, -28.88044357, 7.71704149, -68.10874176, 97.38417053, 1.14786792, 104.20166016, -0.41140288, 0.45618516, 0.59677702, 0.51623648, -0.01620514, -0.00123816, -0.03900054, 100.31300354, 84.58345032, 33.45999908, 0.00000000
1, 32.2601, 2355, 0.03648191, -0.98529887, 0.16654333, -2.25669336, -1.12703431, 3.45012164, -29.05583191, 7.54165459, -67.90412140, 97.36136627, 1.11503077, 104.18610382, -0.41139507, 0.45633486, 0.59649777, 0.51643300, -0.01722999, -0.00652195, -0.03981451, 100.31300354, 84.58345032, 33.45999908, 0.00000000
1, 32.2701, 2356, 0.04247333, -0.98115277, 0.15630920, -2.47291160, 0.56195450, 3.38797545, -29.14352417, 7.48319197, -67.96258545, 97.33676147, 1.08065152, 104.18738556, -0.41131073, 0.45639747, 0.59627193, 0.51670563, -0.02377647, -0.01071600, -0.02997290, 100.31300354, 84.58345032, 33.45999908, 0.00000000
1, 32.2801, 2357, 0.05056597, -0.97922099, 0.14189355, -2.58807778, 1.28948760, 3.51193881, -28.93890572, 7.89242887, -68.31335449, 97.32334137, 1.10346317, 104.19134521, -0.41146344, 0.45622408, 0.59630692, 0.51669687, -0.03220448, -0.01268082, -0.01591947, 100.31300354, 84.58345032, 33.45999908, 0.00000000
1, 32.2901, 2358, 0.05495054, -0.98263168, 0.13054314, -2.55736661, 0.25819799, 3.67975378, -28.90967560, 7.71704149, -68.51797485, 97.29783630, 1.06657195, 104.18927765, -0.41138491, 0.45631248, 0.59605473, 0.51697218, -0.03642226, -0.00928425, -0.00483818, 100.31300354, 84.58345032, 33.45999908, 0.00000000
1, 32.3001, 2359, 0.05275671, -0.97888780, 0.12199854, -2.74348760, -0.51142323, 3.75140953, -28.90967560, 7.71704149, -68.51797485, 97.27030182, 1.02992892, 104.17948914, -0.41135049, 0.45643252, 0.59576339, 0.51722920, -0.03484859, -0.01308664, 0.00323396, 100.31300354, 84.58345032, 33.45999908, 0.00000000
1, 32.3101, 2360, 0.05293287, -0.98216510, 0.11327673, -2.49480867, -0.45991242, 3.87215424, -29.49429893, 7.54165459, -69.16106415, 97.24529266, 0.99202216, 104.17008972, -0.41129792, 0.45656544, 0.59548044, 0.51747954, -0.03565058, -0.00986352, 0.01150523, 100.31300354, 84.58345032, 33.45999908, 0.00000000
1, 32.3201, 2361, 0.05176083, -0.98545599, 0.11312431, -2.40511489, -0.48111251, 4.06329441, -30.13738632, 7.04472351, -68.37181854, 97.22116852, 0.95224601, 104.16027069, -0.41123414, 0.45671234, 0.59519309, 0.51773113, -0.03516964, -0.00663919, 0.01121799, 100.31300354, 84.58345032, 33.45999908, 0.00000000
1, 32.3301, 2362, 0.04665620, -0.98624480, 0.11087792, -2.00539207, -1.17505682, 4.09424400, -29.43583679, 7.19087982, -68.81028748, 97.18070221, 0.95539331, 104.12854767, -0.41155493, 0.45671734, 0.59489489, 0.51781464, -0.03055991, -0.00591258, 0.01299674, 100.31300354, 84.58345032, 33.45999908, 0.00000000
1, 32.3401, 2363, 0.03632402, -0.98600769, 0.11036997, -1.63208628, -1.13942480, 4.19549751, -29.31891251, 7.07395506, -68.43028259, 97.16422272, 0.91511899, 104.11206055, -0.41148844, 0.45692834, 0.59461337, 0.51800454, -0.02036650, -0.00622374, 0.01290372, 100.31300354, 84.58345032, 33.45999908, 0.00000000
1, 32.3501, 2364, 0.02809020, -0.98945856, 0.11242452, -1.53461194, -0.41988930, 4.00109386, -29.31891251, 7.07395506, -68.43028259, 97.14881897, 0.87588650, 104.10298157, -0.41138959, 0.45710006, 0.59436983, 0.51821107, -0.01283162, -0.00282115, 0.01055383, 100.31300354, 84.58345032, 33.45999908, 0.00000000
1, 32.3601, 2365, 0.02322598, -0.99129903, 0.12330806, -1.27029884, -0.22523145, 3.96731687, -29.05583191, 7.60011673, -69.04413605, 97.13610840, 0.83675379, 104.09587097, -0.41127157, 0.45727065, 0.59414655, 0.51841027, -0.00867791, -0.00103913, -0.00058524, 100.31300354, 84.58345032, 33.45999908, 0.00000000
1, 32.3701, 2366, 0.02203617, -0.98856962, 0.13408773, -1.14918160, -0.00859741, 3.69052124, -28.88044357, 7.89242887, -68.51797485, 97.12466431, 0.80009913, 104.09126282, -0.41114998, 0.45742142, 0.59394753, 0.51860178, -0.00817343, -0.00382057, -0.01156069, 100.31300354, 84.58345032, 33.45999908, 0.00000000
1, 32.3801, 2367, 0.02269993, -0.98434007, 0.13784444, -1.14118958, 0.76194268, 3.51599836, -29.40660667, 7.80473518, -67.96258545, 97.15382385, 0.78405023, 104.10813904, -0.41087472, 0.45751205, 0.59409046, 0.51857615, -0.00938718, -0.00806686, -0.01533259, 100.31300354, 84.58345032, 33.45999908, 0.00000000
1, 32.3901, 2368, 0.02270242, -0.98404443, 0.14431977, -1.03638697, 0.88806003, 3.37746191, -29.31891251, 7.83396673, -68.48874664, 97.14363098, 0.74941629, 104.11279297, -0.41071647, 0.45760995, 0.59394109, 0.51878613, -0.00975883, -0.00833535, -0.02146744, 100.31300354, 84.58345032, 33.45999908, 0.00000000
1, 32.4001, 2369, 0.02361327, -0.98622775, 0.14451651, -0.90544182, 1.81342888, 3.32774711, -29.31891251, 7.83396673, -68.48874664, 97.13483429, 0.71412867, 104.12671661, -0.41050732, 0.45766795, 0.59383273, 0.51902455, -0.01128070, -0.00617987, -0.02182129, 100.31300354, 84.58345032, 33.45999908, 0.00000000
1, 32.4101, 2370, 0.02748076, -0.98913348, 0.13955615, -1.03191531, 3.43359160, 3.26281786, -29.28968048, 7.36626720, -68.13796997, 97.12494659, 0.67751431, 104.15679932, -0.41022235, 0.45764434, 0.59377933, 0.51933181, -0.01576727, -0.00329487, -0.01702296, 100.31300354, 84.58345032, 33.45999908, 0.00000000
1, 32.4201, 2371, 0.03138788, -0.99034286, 0.13484184, -0.93475461, 4.18710232, 3.10428023, -29.49429893, 6.34317446, -68.16719818, 97.11611176, 0.64155960, 104.19457245, -0.40990156, 0.45758164, 0.59376353, 0.51965821, -0.02029748, -0.00210420, -0.01245294, 100.31300354, 84.58345032, 33.45999908, 0.00000000
1, 32.4301, 2372, 0.03795524, -0.98674238, 0.12848277, -1.11047626, 3.98000145, 2.96137214, -29.34814262, 7.74627304, -68.40105438, 97.11650848, 0.64841753, 104.22836304, -0.40978199, 0.45737654, 0.59392440, 0.51974928, -0.02727620, -0.00571550, -0.00620359, 100.31300354, 84.58345032, 33.45999908, 0.00000000
1, 32.4401, 2373, 0.04151467, -0.98580194, 0.12639391, -0.98412091, 3.85594344, 3.09701538, -29.72814941, 7.89242887, -68.31335449, 97.10710144, 0.61295986, 104.26286316, -0.40948063, 0.45732656, 0.59389466, 0.52006465, -0.03089999, -0.00665674, -0.00413214, 100.31300354, 84.58345032, 33.45999908, 0.00000000
1, 32.4501, 2374, 0.04334087, -0.98532999, 0.12284359, -0.92030627, 3.04914284, 3.35738993, -29.72814941, 7.89242887, -68.37181854, 97.09826660, 0.57588708, 104.28903198, -0.40920627, 0.45732918, 0.59382856, 0.52035362, -0.03335565, -0.00714868, -0.00072907, 100.31300354, 84.58345032, 33.45999908, 0.00000000
1, 32.4601, 2375, 0.04459567, -0.98636258, 0.12212042, -0.91302979, 2.47187781, 3.46622062, -30.07892418, 7.36626720, -68.37181854, 97.08941650, 0.53846103, 104.30934906, -0.40895671, 0.45736378, 0.59373766, 0.52062303, -0.03525807, -0.00614086, -0.00015919, 100.31300354, 84.58345032, 33.45999908, 0.00000000
1, 32.4701, 2376, 0.04171463, -0.98880351, 0.12250680, -0.71356034, 2.17524195, 3.56176805, -29.64045525, 7.30780458, -68.02104950, 97.08251953, 0.50043911, 104.32660675, -0.40871003, 0.45742393, 0.59364134, 0.52087367, -0.03304080, -0.00372248, -0.00068386, 100.31300354, 84.58345032, 33.45999908, 0.00000000
