SensorId, TimeStamp (s), FrameNumber, AccX (g), AccY (g), AccZ (g), GyroX (deg/s), GyroY (deg/s), GyroZ (deg/s), MagX (uT), MagY (uT), MagZ (uT), EulerX (deg), EulerY (deg), EulerZ (deg), QuatW, QuatX, QuatY, QuatZ, LinAccX (g), LinAccY (g), LinAccZ (g), Pressure (kPa), Altitude (m), Temperature (degC), HeaveMotion (m)
1, 0.0000, 0, -0.22628386, -0.65247858, -0.17264761, 33.87582397, -7.79621649, -62.78702927, -53.20081711, 6.34317446, -72.52265167, 81.56292725, -19.44294739, -6.00068045, 0.75108325, -0.63622111, 0.16138317, -0.07107872, -0.10746741, -0.27942336, 0.03188854, 99.95400238, 114.75510406, 28.86999893, 0.00000000
1, 0.0250, 1, -0.20892423, -0.75164902, -0.13919291, 43.95178223, -5.72337437, -89.11997223, -52.00233841, 6.22624969, -71.64571381, 82.72620392, -17.49534607, -6.48192453, 0.74630195, -0.64564371, 0.15088706, -0.05840192, -0.09320845, -0.19347689, 0.01573831, 99.95400238, 114.75510406, 28.86999893, 0.00000000
1, 0.0300, 2, -0.21709488, -0.75558770, -0.14319246, 45.67840958, -5.29782391, -93.19786835, -51.56386948, 4.79392004, -71.09032440, 82.97986603, -17.03585434, -6.57102108, 0.74521595, -0.64774507, 0.14831875, -0.05550874, -0.07745855, -0.19240814, 0.02357346, 99.95400238, 114.75510406, 28.86999893, 0.00000000
1, 0.0350, 3, -0.23035690, -0.76105905, -0.14884572, 47.97132111, -4.56226873, -96.92504883, -51.56386948, 4.79392004, -71.09032440, 83.24317169, -16.55700874, -6.65628910, 0.74406302, -0.64992934, 0.14561248, -0.05252834, -0.05626775, -0.18984404, 0.03321798, 99.95400238, 114.75510406, 28.86999893, 0.00000000
1, 0.0400, 4, -0.24222615, -0.77105832, -0.15513995, 50.18881607, -3.44695091, -100.53707123, -51.56386948, 4.79392004, -71.09032440, 83.51510620, -16.05917549, -6.73544836, 0.74284554, -0.65219069, 0.14275919, -0.04947472, -0.03612762, -0.18277800, 0.04366784, 99.95400238, 114.75510406, 28.86999893, 0.00000000
1, 0.0450, 5, -0.24268354, -0.78012741, -0.14991163, 52.29857254, -2.22982502, -104.07518768, -50.77462769, 5.58316278, -71.58725739, 83.79500580, -15.54268456, -6.80768013, 0.74156493, -0.65452343, 0.13975750, -0.04635253, -0.02709245, -0.17667508, 0.04278579, 99.95400238, 114.75510406, 28.86999893, 0.00000000
1, 0.0500, 6, -0.23198953, -0.79154980, -0.13322490, 54.23574448, -1.62249267, -108.39678192, -50.77462769, 5.58316278, -71.58725739, 84.08292389, -15.00402641, -6.87634659, 0.74022186, -0.65692586, 0.13660516, -0.04311798, -0.02887563, -0.16824649, 0.03062594, 99.95400238, 114.75510406, 28.86999893, 0.00000000
1, 0.0550, 7, -0.22552744, -0.79562402, -0.12792048, 56.03361511, -1.00830805, -111.59478760, -49.45922089, 4.15083313, -70.97339630, 84.37802124, -14.44879723, -6.94054794, 0.73881578, -0.65938514, 0.13333410, -0.03980676, -0.02605044, -0.16713864, 0.02998545, 99.95400238, 114.75510406, 28.86999893, 0.00000000
1, 0.0600, 8, -0.21642891, -0.80749261, -0.12581642, 58.84813309, 0.70747918, -115.34029388, -49.45922089, 4.15083313, -70.97339630, 84.68407440, -13.87375450, -6.99465179, 0.73732269, -0.66193342, 0.12989098, -0.03643883, -0.02549685, -0.15822148, 0.03277031, 99.95400238, 114.75510406, 28.86999893, 0.00000000
1, 0.0650, 9, -0.21079424, -0.82619035, -0.12924257, 60.62831497, 2.94183183, -117.83346558, -49.45922089, 4.15083313, -70.97339630, 84.99526978, -13.28497314, -7.03515339, 0.73577088, -0.66452783, 0.12629670, -0.03306375, -0.02119581, -0.14241236, 0.04119265, 99.95400238, 114.75510406, 28.86999893, 0.00000000
1, 0.0700, 10, -0.20913701, -0.84706891, -0.13221282, 62.55054092, 5.30500889, -119.83462524, -48.14381790, 4.00467682, -69.97953796, 85.31119537, -12.68527031, -7.06070375, 0.73416084, -0.66716135, 0.12256148, -0.02970473, -0.01269320, -0.12434874, 0.04926394, 99.95400238, 114.75510406, 28.86999893, 0.00000000
1, 0.1000, 11, -0.20753922, -0.89984047, -0.05976022, 74.35402679, 10.56732750, -124.45128632, -47.20841980, 4.85238218, -69.65799713, 87.38059235, -8.98027992, -7.02133703, 0.72282374, -0.68388110, 0.09867066, -0.00983466, 0.04889457, -0.08626489, 0.01106210, 99.95400238, 114.75510406, 28.86999893, 0.00000000
1, 0.1050, 12, -0.19575733, -0.90266442, -0.05602799, 76.18748474, 11.81128120, -124.83055115, -46.03916931, 4.26775789, -69.01490784, 87.75518799, -8.35319042, -6.98952866, 0.72064841, -0.68679351, 0.09453894, -0.00656387, 0.04790898, -0.08540582, 0.01370012, 99.95400238, 114.75510406, 28.86999893, 0.00000000
1, 0.1100, 13, -0.18300666, -0.90234280, -0.05618516, 78.09249115, 13.05252838, -125.07059479, -46.03916931, 4.26775789, -69.01490784, 88.13822937, -7.72487593, -6.94738388, 0.71839124, -0.68973821, 0.09035651, -0.00333007, 0.04600652, -0.08753439, 0.02038733, 99.95400238, 114.75510406, 28.86999893, 0.00000000
1, 0.1150, 14, -0.16012946, -0.90328443, -0.06235386, 81.06143951, 14.60988426, -125.03621674, -46.03916931, 4.26775789, -69.01490784, 88.53497314, -7.09675026, -6.89312983, 0.71602076, -0.69274628, 0.08612166, -0.00015545, 0.03401867, -0.08823633, 0.03338472, 99.95400238, 114.75510406, 28.86999893, 0.00000000
1, 0.1200, 15, -0.14738031, -0.91184616, -0.06214022, 83.15641022, 15.00062466, -124.59787750, -45.83454895, 4.79392004, -68.28412628, 88.94132996, -6.47179651, -6.83238029, 0.71356195, -0.69578373, 0.08188730, 0.00298171, 0.03211391, -0.08116125, 0.04015686, 99.95400238, 114.75510406, 28.86999893, 0.00000000
1, 0.1250, 16, -0.13145828, -0.92551148, -0.06064095, 85.18590546, 14.93654633, -124.09945679, -45.83454895, 4.79392004, -68.28412628, 89.35877228, -5.84909964, -6.76758480, 0.71100605, -0.69885743, 0.07766325, 0.00610231, 0.02699797, -0.06881432, 0.04584494, 99.95400238, 114.75510406, 28.86999893, 0.00000000
1, 0.1300, 17, -0.11570486, -0.94149590, -0.05147228, 87.00421143, 14.72716331, -123.42655945, -44.54837799, 1.57848585, -66.82256317, 89.78566742, -5.23024035, -6.69926786, 0.70836306, -0.70195466, 0.07346307, 0.00920208, 0.02198621, -0.05398693, 0.04405363, 99.95400238, 114.75510406, 28.86999893, 0.00000000
1, 0.1350, 18, -0.10008678, -0.95721507, -0.03342896, 88.54273987, 14.19445992, -122.44232178, -44.54837799, 1.57848585, -66.82256317, 90.22084045, -4.61681509, -6.62901020, 0.70564055, -0.70506549, 0.06930673, 0.01228243, 0.01701170, -0.03926091, 0.03354960, 99.95400238, 114.75510406, 28.86999893, 0.00000000
1, 0.2150, 19, -0.13077459, -1.01572359, 0.09490299, 57.79529572, -18.17225838, -76.23803711, -39.63753128, 4.82315111, -63.72405624, 96.68585968, 3.74568987, -6.37523937, 0.66193032, -0.74678975, 0.01983406, 0.06131952, 0.19419637, 0.02424241, 0.01808042, 99.95400238, 114.75510406, 28.86999893, 0.00000000
1, 0.2200, 20, -0.15336761, -0.99149811, 0.09855527, 55.40815353, -16.39514732, -69.82085419, -38.55597687, 4.35545158, -63.49020767, 96.95876312, 4.09715652, -6.41606331, 0.65993023, -0.74839205, 0.01821345, 0.06379486, 0.22306009, 0.00099128, 0.01911945, 99.95400238, 114.75510406, 28.86999893, 0.00000000
1, 0.2250, 21, -0.17888606, -0.97274065, 0.09840340, 50.58459091, -10.40320396, -64.28868866, -38.55597687, 4.35545158, -63.49020767, 97.20996094, 4.42315626, -6.42852974, 0.65809172, -0.74986118, 0.01655348, 0.06595179, 0.25436664, -0.01679992, 0.02362613, 99.95400238, 114.75510406, 28.86999893, 0.00000000
1, 0.2300, 22, -0.19158283, -0.96456647, 0.10650413, 48.75184631, -4.97951746, -60.14013672, -38.02981567, 5.61239386, -62.78865814, 97.45407104, 4.72519350, -6.41522455, 0.65632051, -0.75128150, 0.01486769, 0.06781258, 0.27240455, -0.02402803, 0.01969657, 99.95400238, 114.75510406, 28.86999893, 0.00000000
1, 0.2350, 23, -0.20154116, -0.96420348, 0.12932399, 47.19973755, 0.79228753, -55.88170242, -38.02981567, 5.61239386, -62.78865814, 97.69280243, 5.00228167, -6.37470818, 0.65460920, -0.75266373, 0.01315115, 0.06936239, 0.28723288, -0.02347307, 0.00093816, 99.95400238, 114.75510406, 28.86999893, 0.00000000
1, 0.2400, 24, -0.20234512, -0.97066927, 0.15446903, 45.36511612, 6.45129442, -51.37699509, -38.02981567, 5.61239386, -62.78865814, 97.92496490, 5.25305986, -6.30792284, 0.65296847, -0.75400132, 0.01141493, 0.07059800, 0.29245058, -0.01610734, -0.02024383, 99.95400238, 114.75510406, 28.86999893, 0.00000000
1, 0.2450, 25, -0.17459358, -0.97126198, 0.17313635, 43.06682205, 12.33733368, -46.33518219, -37.41595840, 5.61239386, -62.67173386, 98.14848328, 5.47451639, -6.21433258, 0.65141565, -0.75528306, 0.00966932, 0.07149670, 0.26863420, -0.01463483, -0.03501130, 99.95400238, 114.75510406, 28.86999893, 0.00000000
1, 0.2500, 26, -0.12866130, -0.96914375, 0.19076471, 40.38058853, 18.09961319, -40.62540436, -37.41595840, 5.61239386, -62.67173386, 98.36145782, 5.66323137, -6.09528446, 0.64996630, -0.75649887, 0.00793932, 0.07204355, 0.22608013, -0.01591962, -0.04885552, 99.95400238, 114.75510406, 28.86999893, 0.00000000
1, 0.2550, 27, -0.07957270, -0.97677326, 0.19591892, 36.67780304, 22.69651604, -34.61497879, -37.18210983, 5.08623219, -62.20403290, 98.55822754, 5.81839037, -5.95707369, 0.64865530, -0.75761759, 0.00626555, 0.07226863, 0.17982325, -0.00750696, -0.05048527, 99.95400238, 114.75510406, 28.86999893, 0.00000000
1, 0.2600, 28, -0.04558633, -0.98150373, 0.19042826, 32.73592377, 26.74071121, -27.42291832, -37.18210983, 5.08623219, -62.20403290, 98.73731232, 5.93448782, -5.80359507, 0.64749408, -0.75863224, 0.00470237, 0.07215668, 0.14803946, -0.00206973, -0.04180266, 99.95400238, 114.75510406, 28.86999893, 0.00000000
1, 0.2850, 29, 0.04344949, -1.06838715, 0.24199229, 13.50343990, 33.47244644, 19.32134819, -37.56211472, 6.02163124, -61.76556396, 99.32860565, 5.82340908, -4.98207426, 0.64413571, -0.76199067, 0.00023961, 0.06677997, 0.05797917, 0.08630399, -0.08275323, 99.95400238, 114.75510406, 28.86999893, 0.00000000
1, 0.2900, 30, 0.08793598, -1.13297021, 0.30908835, 14.76893902, 33.44427109, 26.80573273, -37.56211472, 6.02163124, -61.76556396, 99.41721344, 5.66435146, -4.83789968, 0.64371938, -0.76250345, 0.00022984, 0.06491545, 0.01071796, 0.15076612, -0.14828506, 99.95400238, 114.75510406, 28.86999893, 0.00000000
1, 0.2950, 31, 0.23171885, -1.15121830, 0.39590961, 9.07524490, 29.20501137, 33.08655930, -36.86056519, 3.82928967, -62.02864456, 99.47444916, 5.47749662, -4.72013378, 0.64350712, -0.76284170, 0.00053251, 0.06301446, -0.13641302, 0.16876088, -0.23356667, 99.95400238, 114.75510406, 28.86999893, 0.00000000
1, 0.3000, 32, 0.28844813, -1.19526339, 0.31375420, -2.72447181, 15.50838566, 40.83209610, -36.86056519, 3.82928967, -62.02864456, 99.46540833, 5.26339245, -4.67671633, 0.64370573, -0.76280862, 0.00144657, 0.06135005, -0.19653134, 0.21262997, -0.15113348, 99.95400238, 114.75510406, 28.86999893, 0.00000000
1, 0.3050, 33, 0.29587263, -1.13422096, 0.06320631, -10.69496918, 8.92590904, 49.60981369, -38.14673996, 6.63548660, -61.94095230, 99.41289520, 5.01125526, -4.67295742, 0.64418942, -0.76253086, 0.00281686, 0.05965700, -0.20754333, 0.15148871, 0.09880152, 99.95400238, 114.75510406, 28.86999893, 0.00000000
1, 0.3100, 34, 0.27921051, -1.04202890, 0.09345536, -2.77942395, 5.71630526, 55.60173416, -38.14673996, 6.63548660, -61.94095230, 99.39826202, 4.73224831, -4.68977833, 0.64442080, -0.76246262, 0.00449647, 0.05790098, -0.19572613, 0.05876096, 0.06825052, 99.95400238, 114.75510406, 28.86999893, 0.00000000
1, 0.3150, 35, 0.25593191, -1.07279861, 0.27564731, 5.67507172, 5.99263477, 52.90683746, -38.58520889, 6.63548660, -62.17480087, 99.42620850, 4.46642256, -4.70306587, 0.64436078, -0.76262867, 0.00609946, 0.05621041, -0.17762235, 0.08890784, -0.11364684, 99.95400238, 114.75510406, 28.86999893, 0.00000000
1, 0.3200, 36, 0.38043538, -1.13390887, 0.23672849, 4.69659042, 22.68599319, 41.96027374, -38.58520889, 6.63548660, -62.17480087, 99.45634460, 4.25086403, -4.62444782, 0.64430267, -0.76280767, 0.00680722, 0.05433567, -0.30606037, 0.14986417, -0.07392799, 99.95400238, 114.75510406, 28.86999893, 0.00000000
1, 0.3250, 37, 0.68857110, -1.17934227, 0.01150972, 1.13293791, 43.83347702, 28.80429649, -38.58520889, 6.63548660, -62.17480087, 99.47637177, 4.07308722, -4.43115568, 0.64434218, -0.76293480, 0.00653270, 0.05206703, -0.61685121, 0.19549823, 0.15241116, 99.95400238, 114.75510406, 28.86999893, 0.00000000
1, 0.3300, 38, 1.08563423, -1.26569140, -0.20217732, -4.46024036, 51.06964874, 18.39210892, -39.14060211, 6.89856768, -62.35018921, 99.47087860, 3.94067383, -4.19364405, 0.64454359, -0.76291937, 0.00569595, 0.04985198, -1.01588595, 0.28203231, 0.36702818, 99.95400238, 114.75510406, 28.86999893, 0.00000000
1, 0.3350, 39, 1.09551215, -1.23549628, -0.19985031, -6.59167767, 35.89159393, 17.25126648, -39.14060211, 6.89856768, -62.35018921, 99.44923401, 3.82626700, -4.03024626, 0.64480674, -0.76280802, 0.00524440, 0.04817370, -1.02781415, 0.25163865, 0.36445671, 99.95400238, 114.75510406, 28.86999893, 0.00000000
1, 0.3400, 40, 0.93104368, -1.14642441, 0.00115666, -2.70969605, 1.54008329, 23.32339859, -39.49137497, 6.43086815, -62.61326981, 99.43525696, 3.70991063, -4.04161644, 0.64494389, -0.76273113, 0.00597085, 0.04746537, -0.86581802, 0.16205689, 0.16290076, 99.95400238, 114.75510406, 28.86999893, 0.00000000
1, 0.3450, 41, 0.73168796, -1.16940653, 0.22539087, 1.85874605, -18.47448730, 31.69144249, -39.49137497, 6.43086815, -62.61326981, 99.43750763, 3.56856632, -4.15871954, 0.64493948, -0.76273829, 0.00754888, 0.04718532, -0.66935790, 0.18452030, -0.06185991, 99.95400238, 114.75510406, 28.86999893, 0.00000000
1, 0.3500, 42, 0.59234273, -1.25260973, 0.32990107, 0.92224818, -24.36853218, 40.43107986, -39.49137497, 6.43086815, -62.61326981, 99.43332672, 3.38889050, -4.31203938, 0.64497936, -0.76270211, 0.00958163, 0.04685492, -0.53322524, 0.26737070, -0.16683662, 99.95400238, 114.75510406, 28.86999893, 0.00000000
1, 0.3550, 43, 0.58052760, -1.31294394, 0.27972308, -5.27502298, -21.98812675, 47.92766571, -39.22829437, 6.95702982, -62.87635040, 99.39908600, 3.17016435, -4.45961142, 0.64523822, -0.76248997, 0.01178433, 0.04623599, -0.52493411, 0.32750458, -0.11719376, 99.95400238, 114.75510406, 28.86999893, 0.00000000
1, 0.4200, 44, -1.08954048, -1.11066484, 0.10596458, -16.64501572, -57.83200455, 76.03094482, -39.49137497, 6.54779291, -61.00555420, 98.52899933, -1.07751799, -11.09208202, 0.65017337, -0.75355661, 0.07933536, 0.05597347, 1.07197094, 0.12176350, 0.03823094, 99.95400238, 114.75510406, 28.86999893, 0.00000000
1, 0.4250, 45, -1.11816072, -1.00320816, -0.20088971, -28.29252052, -37.23432541, 69.87004089, -39.49137497, 6.54779291, -61.00555420, 98.39345551, -1.39638031, -11.32722092, 0.65113616, -0.75242072, 0.08262074, 0.05530529, 1.09566498, 0.01460072, 0.34301174, 99.95400238, 114.75510406, 28.86999893, 0.00000000
1, 0.4300, 46, -1.19593310, -0.97732627, -0.36893439, -30.49535751, -17.88068771, 65.24177551, -40.01753998, 6.84010506, -60.77170181, 98.24542236, -1.70679688, -11.46248627, 0.65222245, -0.75127631, 0.08519735, 0.05414149, 1.16839981, -0.01123855, 0.50835431, 99.95400238, 114.75510406, 28.86999893, 0.00000000
1, 0.4350, 47, -1.22725475, -0.97813010, -0.36708540, -31.46771812, -0.54330760, 59.42810059, -40.01753998, 6.84010506, -60.77170181, 98.09024048, -2.00098395, -11.50699997, 0.65338534, -0.75015932, 0.08708634, 0.05257899, 1.19450295, -0.01065799, 0.50376499, 99.95400238, 114.75510406, 28.86999893, 0.00000000
1, 0.4400, 48, -1.16814923, -0.93530011, -0.24506125, -32.65627670, 17.03499794, 53.65798950, -40.10523224, 7.42472935, -62.02864456, 97.92581177, -2.27882528, -11.45959663, 0.65463573, -0.74906415, 0.08828111, 0.05061077, 1.13018847, -0.05390985, 0.37912294, 99.95400238, 114.75510406, 28.86999893, 0.00000000
1, 0.4450, 49, -1.02326393, -0.88580525, -0.22293323, -28.28867531, 37.49210358, 50.40950394, -40.10523224, 7.42472935, -62.02864456, 97.77851868, -2.55415630, -11.30776691, 0.65580988, -0.74814463, 0.08879257, 0.04805116, 0.98044854, -0.10361963, 0.35471356, 99.95400238, 114.75510406, 28.86999893, 0.00000000
1, 0.4500, 50, -0.75343275, -0.86503112, -0.24661668, -18.51564980, 61.08312988, 47.69270325, -40.10523224, 7.42472935, -62.02864456, 97.67377472, -2.83127952, -11.03644848, 0.65674341, -0.74755734, 0.08855826, 0.04476250, 0.70585549, -0.12440185, 0.37711906, 99.95400238, 114.75510406, 28.86999893, 0.00000000
1, 0.4550, 51, -0.51689887, -0.91845930, -0.28508464, -12.58569908, 64.82773590, 47.63636780, -40.63139343, 7.33703566, -61.91172028, 97.59635925, -3.11009431, -10.74599266, 0.65748972, -0.74713826, 0.08822470, 0.04133033, 0.46456254, -0.07086104, 0.41461089, 99.95400238, 114.75510406, 28.86999893, 0.00000000
1, 0.4600, 52, -0.30750510, -1.01052666, -0.29415888, -9.53389263, 65.44257355, 47.78743744, -40.63139343, 7.33703566, -61.91172028, 97.53263855, -3.38965487, -10.45215702, 0.65813071, -0.74679798, 0.08788251, 0.03786181, 0.25032443, 0.02133698, 0.42287606, 99.95400238, 114.75510406, 28.86999893, 0.00000000
1, 0.4650, 53, -0.14502895, -1.08900023, -0.27583790, -8.70642567, 64.55567169, 47.30008698, -41.39140701, 7.30780458, -61.56094742, 97.47183228, -3.66590595, -10.16203022, 0.65873241, -0.74647242, 0.08755028, 0.03443258, 0.08296476, 0.09993073, 0.40373492, 99.95400238, 114.75510406, 28.86999893, 0.00000000
1, 0.5150, 54, -0.24764578, -0.97045767, 0.05032139, 12.15135670, -32.91823578, 37.84101486, -42.82373428, 6.98626137, -62.58403778, 97.51426697, -5.64194202, -10.32985401, 0.65911144, -0.74504042, 0.09992175, 0.02242008, 0.14991729, -0.01635079, 0.07727351, 99.95400238, 114.75510406, 28.86999893, 0.00000000
1, 0.5200, 55, -0.33729175, -0.97189915, 0.10204047, 12.84320068, -28.75993729, 36.07355881, -42.82373428, 6.98626137, -62.58403778, 97.59493256, -5.81443691, -10.49715519, 0.65860760, -0.74521059, 0.10200682, 0.02218029, 0.23652403, -0.01452276, 0.02668343, 99.95400238, 114.75510406, 28.86999893, 0.00000000
1, 0.5250, 56, -0.40843040, -0.97769368, 0.15093949, 12.87983990, -23.32274818, 34.48513031, -42.82373428, 6.98626137, -62.58403778, 97.67401886, -5.96991301, -10.63610172, 0.65811467, -0.74540567, 0.10380931, 0.02188788, 0.30471462, -0.00833848, -0.02107225, 99.95400238, 114.75510406, 28.86999893, 0.00000000
1, 0.5300, 57, -0.44915351, -0.97907376, 0.19660610, 12.76565361, -17.03161621, 33.54991913, -43.34989548, 8.53551579, -61.79479599, 97.74956512, -6.12473011, -10.74331284, 0.65765095, -0.74560547, 0.10539992, 0.02141850, 0.34263909, -0.00657546, -0.06556354, 99.95400238, 114.75510406, 28.86999893, 0.00000000
1, 0.5350, 58, -0.45715919, -0.97587502, 0.23830698, 11.99438190, -9.25774956, 33.00893021, -43.34989548, 8.53551579, -61.79479599, 97.81731415, -6.28195572, -10.81165314, 0.65724587, -0.74579060, 0.10674864, 0.02071556, 0.34782410, -0.00938767, -0.10611512, 99.95400238, 114.75510406, 28.86999893, 0.00000000
1, 0.5400, 59, -0.42786813, -0.97575426, 0.27302033, 10.64771748, -1.02892721, 32.17065048, -43.23297119, 9.06167793, -61.97018433, 97.87393188, -6.44052076, -10.83860111, 0.65692049, -0.74594676, 0.10783237, 0.01977548, 0.31570134, -0.00912332, -0.13977402, 99.95400238, 114.75510406, 28.86999893, 0.00000000
1, 0.5450, 60, -0.37428480, -0.98487234, 0.29605037, 9.67604542, 5.60102177, 31.32452774, -43.23297119, 9.06167793, -61.97018433, 97.92196655, -6.59937525, -10.83207321, 0.65665591, -0.74608320, 0.10869718, 0.01864873, 0.25930563, 0.00038596, -0.16186954, 99.95400238, 114.75510406, 28.86999893, 0.00000000
1, 0.5500, 61, -0.29008156, -0.99600589, 0.31541622, 8.50827026, 10.80107403, 30.48187828, -43.23297119, 9.06167793, -61.97018433, 97.96105194, -6.75762320, -10.79914570, 0.65645206, -0.74619281, 0.10938416, 0.01738253, 0.17230773, 0.01190322, -0.18037973, 99.95400238, 114.75510406, 28.86999893, 0.00000000
1, 0.5550, 62, -0.22753093, -1.00712478, 0.32981184, 7.73254919, 12.94445324, 29.42117119, -43.78836441, 7.86319780, -62.08710861, 97.99479675, -6.91213274, -10.75489044, 0.65628171, -0.74628514, 0.10997452, 0.01608065, 0.10702869, 0.02339935, -0.19408831, 99.95400238, 114.75510406, 28.86999893, 0.00000000
1, 0.5600, 63, -0.16648552, -1.01476800, 0.33328620, 5.46102142, 12.29034138, 28.27777290, -43.78836441, 7.86319780, -62.08710861, 98.01737976, -7.06056166, -10.71317196, 0.65617990, -0.74631596, 0.11054473, 0.01484364, 0.04337188, 0.03141279, -0.19702864, 99.95400238, 114.75510406, 28.86999893, 0.00000000
1, 0.5950, 64, -0.17945176, -1.01748693, 0.17229773, 0.53558099, -1.39895046, 26.50693703, -44.57761002, 8.91552162, -61.94095230, 98.12228394, -8.01375484, -10.74784756, 0.65572244, -0.74596232, 0.11616041, 0.00866477, 0.04017099, 0.03681963, -0.03452063, 99.95400238, 114.75510406, 28.86999893, 0.00000000
1, 0.6000, 65, -0.19807012, -1.02130020, 0.16857810, 0.20159195, -0.28374761, 26.36251068, -44.57761002, 8.91552162, -61.94095230, 98.12644196, -8.14407063, -10.76786613, 0.65572208, -0.74583584, 0.11702538, 0.00791700, 0.05654728, 0.04096625, -0.03081376, 99.95400238, 114.75510406, 28.86999893, 0.00000000
1, 0.6050, 66, -0.20506430, -1.02313542, 0.17342451, -0.46094137, 1.52561581, 26.20375824, -44.54837799, 9.00321579, -62.20403290, 98.12601471, -8.27487946, -10.77873516, 0.65575159, -0.74569076, 0.11783303, 0.00711828, 0.06127051, 0.04311700, -0.03571234, 99.95400238, 114.75510406, 28.86999893, 0.00000000
1, 0.6100, 67, -0.20283453, -1.01888287, 0.16955288, -1.08278251, 2.91675591, 26.06957054, -44.54837799, 9.00321579, -62.20403290, 98.12148285, -8.40599537, -10.78254604, 0.65580755, -0.74552804, 0.11859609, 0.00628140, 0.05679099, 0.03918825, -0.03193872, 99.95400238, 114.75510406, 28.86999893, 0.00000000
1, 0.6150, 68, -0.20260206, -1.01462245, 0.16696365, -1.20077467, 3.88711643, 26.23440933, -44.43145370, 8.97398376, -62.49634552, 98.11565399, -8.53861237, -10.78160191, 0.65587163, -0.74536037, 0.11933652, 0.00540881, 0.05428196, 0.03525400, -0.02948280, 99.95400238, 114.75510406, 28.86999893, 0.00000000
1, 0.6200, 69, -0.20132793, -1.01015890, 0.16644038, -1.32504749, 5.37961006, 26.41177368, -44.43145370, 8.97398376, -62.49634552, 98.11093903, -8.67811012, -10.77416420, 0.65592909, -0.74519771, 0.12007344, 0.00445266, 0.05065043, 0.03112952, -0.02909660, 99.95400238, 114.75510406, 28.86999893, 0.00000000
1, 0.6250, 70, -0.20140150, -1.00642931, 0.17289282, -1.86979473, 6.31469822, 26.44099808, -44.43145370, 8.97398376, -62.49634552, 98.09995270, -8.81345463, -10.76117992, 0.65602577, -0.74500829, 0.12075065, 0.00349878, 0.04833482, 0.02772770, -0.03574592, 99.95400238, 114.75510406, 28.86999893, 0.00000000
1, 0.6300, 71, -0.20039020, -1.00612175, 0.18054959, -2.06330967, 7.63418198, 26.54501724, -44.81145859, 7.62934828, -62.49634552, 98.08694458, -8.95022011, -10.74162102, 0.65613467, -0.74481195, 0.12139311, 0.00250012, 0.04495152, 0.02774046, -0.04365995, 99.95400238, 114.75510406, 28.86999893, 0.00000000
1, 0.6350, 72, -0.19842325, -1.00332451, 0.19116835, -2.86913872, 9.57651043, 26.60157204, -44.81145859, 7.62934828, -62.49634552, 98.06833649, -9.08862400, -10.71232319, 0.65627909, -0.74459124, 0.12198156, 0.00144102, 0.04057976, 0.02525682, -0.05461372, 99.95400238, 114.75510406, 28.86999893, 0.00000000
1, 0.6400, 73, -0.18984492, -0.99816048, 0.19494782, -3.66847873, 10.96356297, 26.57470131, -45.19146347, 9.35398960, -62.29172516, 98.04453278, -9.22785187, -10.67598534, 0.65645593, -0.74434686, 0.12252913, 0.00034189, 0.02959514, 0.02041278, -0.05880544, 99.95400238, 114.75510406, 28.86999893, 0.00000000
1, 0.6800, 74, -0.08994997, -0.94692957, 0.14970881, -8.02874660, 18.90323257, 28.01122665, -45.77608871, 9.32475853, -62.78865814, 97.71462250, -10.39466953, -10.17234135, 0.65869957, -0.74174023, 0.12585369, -0.00986063, -0.09020258, -0.02808996, -0.01920443, 99.95400238, 114.75510406, 28.86999893, 0.00000000
1, 0.6850, 75, -0.07145397, -0.94108248, 0.14733377, -8.37494946, 18.16407585, 28.20833015, -45.77608871, 9.32475853, -62.78865814, 97.65990448, -10.54657841, -10.09976292, 0.65905547, -0.74133795, 0.12624641, -0.01121484, -0.11129751, -0.03358307, -0.01776446, 99.95400238, 114.75510406, 28.86999893, 0.00000000
1, 0.6900, 76, -0.05450828, -0.94113672, 0.14697307, -8.41906643, 15.99695396, 28.50775909, -46.15609360, 9.44168377, -63.11020279, 97.60682678, -10.69847584, -10.03812885, 0.65939909, -0.74093246, 0.12671091, -0.01250742, -0.13085093, -0.03316771, -0.01833924, 99.95400238, 114.75510406, 28.86999893, 0.00000000
1, 0.6950, 77, -0.04951362, -0.94909346, 0.14151414, -8.38284302, 13.09614468, 28.92888832, -46.15609360, 9.44168377, -63.11020279, 97.55650330, -10.85052299, -9.99124050, 0.65972400, -0.74052536, 0.12727235, -0.01371871, -0.13843730, -0.02482781, -0.01381207, 99.95400238, 114.75510406, 28.86999893, 0.00000000
1, 0.7000, 78, -0.05755441, -0.95917618, 0.13532712, -8.38406563, 10.36739540, 29.42469788, -46.15609360, 9.44168377, -63.11020279, 97.50870514, -11.00322056, -9.95829868, 0.66003209, -0.74011570, 0.12792823, -0.01485622, -0.13299695, -0.01434512, -0.00855133, 99.95400238, 114.75510406, 28.86999893, 0.00000000
1, 0.7050, 79, -0.07821711, -0.96378553, 0.13342084, -8.56142712, 7.46635199, 29.77843475, -46.68225479, 10.34785175, -63.13943100, 97.46276855, -11.15578747, -9.94010925, 0.66032821, -0.73969948, 0.12867916, -0.01590940, -0.11494271, -0.00933112, -0.00755941, 99.95400238, 114.75510406, 28.86999893, 0.00000000
1, 0.7100, 80, -0.10441240, -0.96674299, 0.12379000, -8.70071697, 4.35677338, 30.12671280, -46.68225479, 10.34785175, -63.13943100, 97.41917419, -11.30807114, -9.93773270, 0.66060984, -0.73927796, 0.12953085, -0.01687157, -0.09133297, -0.00594374, 0.00118604, 99.95400238, 114.75510406, 28.86999893, 0.00000000
1, 0.7150, 81, -0.13171636, -0.96953356, 0.11185776, -8.81019783, 1.73400176, 30.52126884, -47.67611694, 9.41245270, -63.22712708, 97.37767792, -11.46064758, -9.94876480, 0.66087848, -0.73885155, 0.13047083, -0.01776004, -0.06660784, -0.00270709, 0.01226602, 99.95400238, 114.75510406, 28.86999893, 0.00000000
1, 0.7200, 82, -0.17111002, -0.97214985, 0.09996887, -9.10366917, -0.33758321, 31.10656929, -47.67611694, 9.41245270, -63.22712708, 97.33436584, -11.61247063, -9.96974945, 0.66115934, -0.73840255, 0.13147138, -0.01858337, -0.02979156, 0.00036218, 0.02327064, 99.95400238, 114.75510406, 28.86999893, 0.00000000
1, 0.7250, 83, -0.18806440, -0.96991348, 0.09320473, -9.26179886, -1.88076413, 31.49242592, -47.67611694, 9.41245270, -63.11020279, 97.29448700, -11.76761055, -9.99950027, 0.66141850, -0.73795760, 0.13254692, -0.01938097, -0.01545137, -0.00141562, 0.02922075, 99.95400238, 114.75510406, 28.86999893, 0.00000000
1, 0.8800, 84, -0.12294221, -0.93780518, 0.23352429, -23.88339424, -3.03808355, 51.38534927, -50.57000732, 10.58170128, -64.60099030, 95.32759094, -17.71803093, -10.25682354, 0.67295766, -0.71819198, 0.16859108, -0.05390162, -0.18090989, -0.01132574, -0.14644612, 99.95400238, 114.75510406, 28.86999893, 0.00000000
1, 0.8850, 85, -0.12731934, -0.93064487, 0.18544805, -24.32057571, -4.78453255, 52.89158249, -50.57000732, 10.58170128, -64.60099030, 95.22201538, -17.97954750, -10.30696774, 0.67355436, -0.71710086, 0.17044495, -0.05513138, -0.18073073, -0.01719117, -0.10025145, 99.95400238, 114.75510406, 28.86999893, 0.00000000
1, 0.8900, 86, -0.16581748, -0.92858756, 0.14965399, -24.35088921, -4.92097092, 54.22070313, -51.03770828, 10.58170128, -65.09792328, 95.11681366, -18.24771309, -10.35802174, 0.67414320, -0.71599466, 0.17234336, -0.05639542, -0.14657292, -0.01791057, -0.06641948, 99.95400238, 114.75510406, 28.86999893, 0.00000000
1, 0.8950, 87, -0.19560190, -0.93732548, 0.13627577, -25.90708733, -2.48484707, 55.20993042, -51.03770828, 10.58170128, -65.09792328, 95.00002289, -18.52197075, -10.39626884, 0.67479193, -0.71482426, 0.17420352, -0.05775259, -0.12127127, -0.00782826, -0.05513510, 99.95400238, 114.75510406, 28.86999893, 0.00000000
1, 0.9000, 88, -0.20172295, -0.94225371, 0.14859058, -26.82344246, -2.99958825, 56.01552963, -51.44694519, 11.28325081, -65.36100769, 94.87964630, -18.80011177, -10.43704128, 0.67545831, -0.71361697, 0.17610507, -0.05911028, -0.11976409, -0.00155569, -0.06957825, 99.95400238, 114.75510406, 28.86999893, 0.00000000
1, 0.9050, 89, -0.20631516, -0.94537032, 0.16695011, -27.64001846, -2.92329764, 56.90404892, -51.44694519, 11.28325081, -65.36100769, 94.75520325, -19.08280754, -10.47724533, 0.67614329, -0.71237326, 0.17803289, -0.06048989, -0.11986764, 0.00294230, -0.09012011, 99.95400238, 114.75510406, 28.86999893, 0.00000000
1, 0.9100, 90, -0.21723385, -0.94994891, 0.18025960, -28.52625084, -2.98520756, 57.72005463, -51.44694519, 11.28325081, -65.36100769, 94.62654114, -19.36963654, -10.51753139, 0.67684793, -0.71109164, 0.17998886, -0.06188439, -0.11369403, 0.00895671, -0.10569753, 99.95400238, 114.75510406, 28.86999893, 0.00000000
1, 0.9150, 91, -0.24370445, -0.95703113, 0.18737470, -29.21750069, -4.40975094, 58.78152084, -51.53463745, 11.37094402, -65.18561554, 94.49712372, -19.66129112, -10.56517792, 0.67755419, -0.70977968, 0.18202034, -0.06326036, -0.09202131, 0.01753875, -0.11514893, 99.95400238, 114.75510406, 28.86999893, 0.00000000
1, 1.1600, 92, 0.03507138, -2.01283073, 0.17526720, -76.22495270, 95.44000244, 128.63943481, -64.19175720, 17.24641991, -73.51651764, 78.47746277, -40.00951385, -2.61104631, 0.73252755, -0.58819622, 0.27843437, -0.19975723, -0.67664552, 1.25999570, -0.32885540, 99.95400238, 114.75510406, 28.86999893, 0.00000000
1, 1.1650, 93, 0.12053088, -1.95995927, 0.18034537, -76.78400421, 103.06756592, 127.00564575, -64.19175720, 16.77871895, -73.51651764, 77.55549622, -40.52358246, -1.77624130, 0.73461503, -0.58329028, 0.27905136, -0.20553243, -0.76905757, 1.21532142, -0.34434295, 99.95400238, 114.75510406, 28.86999893, 0.00000000
1, 1.1700, 94, 0.14734311, -1.91544020, 0.17111544, -76.64827728, 106.20551300, 125.46630859, -64.19175720, 16.77871895, -73.51651764, 76.60816956, -41.01216125, -0.90785253, 0.73670495, -0.57836300, 0.27948773, -0.21130240, -0.80240571, 1.17905188, -0.34591880, 99.95400238, 114.75510406, 28.86999893, 0.00000000
1, 1.1750, 95, 0.12871163, -1.79430723, 0.16822997, -75.37959290, 109.64539337, 123.35891724, -65.12715149, 17.88950539, -75.44577789, 75.63552094, -41.47924042, -0.00193730, 0.73877865, -0.57341444, 0.27975336, -0.21711774, -0.78997517, 1.06618476, -0.35393745, 99.95400238, 114.75510406, 28.86999893, 0.00000000
1, 1.1800, 96, 0.10763833, -1.67544723, 0.15789649, -73.19900513, 111.05449677, 120.56057739, -65.12715149, 17.88950539, -75.44577789, 74.65426636, -41.91928101, 0.92515683, 0.74079585, -0.56852132, 0.27986547, -0.22289085, -0.77471304, 0.95558465, -0.35454875, 99.95400238, 114.75510406, 28.86999893, 0.00000000
1, 1.1850, 97, 0.10028021, -1.54846835, 0.16432303, -68.81526184, 106.67369080, 117.42090607, -66.35486603, 19.26337242, -75.97193909, 73.70188904, -42.33845901, 1.83417857, 0.74263752, -0.56381732, 0.27998230, -0.22849412, -0.77285796, 0.83670747, -0.37146887, 99.95400238, 114.75510406, 28.86999893, 0.00000000
1, 1.1900, 98, 0.05492341, -1.41335166, 0.13015382, -65.24350739, 93.20433044, 115.33684540, -66.35486603, 19.26337242, -75.97193909, 72.81421661, -42.75623322, 2.66666675, 0.74420768, -0.55935848, 0.28043419, -0.23373021, -0.73278725, 0.70967126, -0.34697878, 99.95400238, 114.75510406, 28.86999893, 0.00000000
1, 1.1950, 99, -0.04899729, -1.28439844, 0.06938811, -61.14402390, 77.45597839, 114.06803894, -66.35486603, 19.26337242, -75.97193909, 72.00461578, -43.18272018, 3.40804362, 0.74546319, -0.55518246, 0.28131214, -0.23858054, -0.63414097, 0.58879089, -0.29487705, 99.95400238, 114.75510406, 28.86999893, 0.00000000
1, 1.2000, 100, -0.17808807, -1.19671845, 0.01511687, -56.44260788, 65.07058716, 113.67792511, -67.64103699, 19.70184135, -76.99503326, 71.26155853, -43.61950684, 4.08083868, 0.74642634, -0.55127013, 0.28252313, -0.24316619, -0.51043159, 0.50914288, -0.24831797, 99.95400238, 114.75510406, 28.86999893, 0.00000000
1, 1.2050, 101, -0.31012359, -1.07940650, -0.03922607, -52.67790604, 56.39288330, 112.30149841, -67.64103699, 19.70184135, -76.99503326, 70.56649780, -44.05781937, 4.70611906, 0.74717891, -0.54756886, 0.28393349, -0.24753571, -0.38379037, 0.39981142, -0.20082682, 99.95400238, 114.75510406, 28.86999893, 0.00000000
1, 1.2100, 102, -0.47886333, -0.97716796, -0.09951736, -47.98849487, 50.58721924, 110.59617615, -68.02104950, 17.88950539, -78.31043243, 69.91265106, -44.49260330, 5.30098724, 0.74774075, -0.54408544, 0.28543228, -0.25176042, -0.22036353, 0.30545360, -0.14682788, 99.95400238, 114.75510406, 28.86999893, 0.00000000
1, 1.2700, 103, -0.60786897, -0.30483785, -0.16322944, -7.95601749, 61.51073456, 21.87522507, -70.44723511, 23.41420555, -80.06430817, 63.86425781, -47.71286774, 11.99223900, 0.74957365, -0.51693380, 0.29083520, -0.29382607, -0.13163057, -0.29935592, -0.13402824, 99.95400238, 114.75510406, 28.86999893, 0.00000000
1, 1.2750, 104, -0.56817520, -0.23043959, -0.31575719, -12.50637913, 70.96248627, 12.41393089, -70.71031952, 23.53113174, -80.00584412, 63.42278671, -47.61054611, 12.50505829, 0.75059402, -0.51545656, 0.28895032, -0.29567057, -0.16996792, -0.37222925, 0.01370897, 99.95400238, 114.75510406, 28.86999893, 0.00000000
1, 1.2800, 105, -0.62891531, -0.00600521, -0.50756562, -19.16162300, 77.86753082, 2.35789204, -70.71031952, 23.53113174, -80.00584412, 62.94179153, -47.44505692, 13.02727318, 0.75197279, -0.51379246, 0.28669670, -0.29725316, -0.10699536, -0.59555417, 0.19988230, 99.95400238, 114.75510406, 28.86999893, 0.00000000
1, 1.2850, 106, -0.69798315, 0.07045747, -0.58631241, -18.77966309, 74.57621765, -2.63272595, -71.17801666, 23.50189972, -81.11663055, 62.49478912, -47.26212311, 13.50724888, 0.75335759, -0.51223969, 0.28443134, -0.29859933, -0.03556259, -0.67148143, 0.27262440, 99.95400238, 114.75510406, 28.86999893, 0.00000000
1, 1.2900, 107, -0.82698828, 0.13517994, -0.63636112, -10.73642349, 61.72538376, -5.67033243, -71.17801666, 23.50189972, -81.11663055, 62.16054916, -47.09336853, 13.88966846, 0.75443590, -0.51115161, 0.28241321, -0.29965526, 0.09561661, -0.73610383, 0.31763867, 99.95400238, 114.75510406, 28.86999893, 0.00000000
1, 1.2950, 108, -0.90807927, 0.09437863, -0.58204788, -0.91063291, 48.82387924, -7.39985561, -71.17801666, 23.50189972, -81.11663055, 61.94334793, -46.94594955, 14.18018246, 0.75515419, -0.51057374, 0.28065115, -0.30048546, 0.17839336, -0.69574732, 0.25954449, 99.95400238, 114.75510406, 28.86999893, 0.00000000
1, 1.3000, 109, -0.92982012, -0.03260684, -0.42873761, 9.29758549, 33.76072311, -8.90535355, -71.61648560, 23.64805603, -81.02893829, 61.85335541, -46.82684708, 14.36699581, 0.75547767, -0.51054633, 0.27921715, -0.30105442, 0.20125937, -0.56975377, 0.10393656, 99.95400238, 114.75510406, 28.86999893, 0.00000000
1, 1.3050, 110, -0.90361542, -0.14762025, -0.28670791, 16.86449623, 22.37085342, -10.57009125, -71.61648560, 23.64805603, -81.02893829, 61.85940552, -46.72716904, 14.47421551, 0.75551420, -0.51093704, 0.27802160, -0.30140612, 0.17593306, -0.45604795, -0.03898860, 99.95400238, 114.75510406, 28.86999893, 0.00000000
1, 1.3100, 111, -0.82051533, -0.19871655, -0.18065524, 23.31420898, 20.75195885, -13.38980007, -71.06109619, 23.50189972, -81.46740723, 61.91256332, -46.61885834, 14.56116199, 0.75542313, -0.51159483, 0.27673113, -0.30170593, 0.09382088, -0.40654331, -0.14508203, 99.95400238, 114.75510406, 28.86999893, 0.00000000
1, 1.3150, 112, -0.70718193, -0.19246563, -0.08249636, 30.25450516, 25.30201721, -17.64606285, -71.06109619, 23.50189972, -81.46740723, 61.98995590, -46.48106384, 14.66261292, 0.75528651, -0.51247144, 0.27510339, -0.30204889, -0.01820376, -0.41480815, -0.24296010, 99.95400238, 114.75510406, 28.86999893, 0.00000000
1, 1.6400, 113, -0.01993482, -1.06648338, 0.60459000, 2.84405470, 12.84234810, 23.17157173, -35.54516220, 8.27243519, -59.42706680, 103.93549347, 8.32456207, -6.10535002, 0.61056376, -0.78685308, -0.00281882, 0.08981232, 0.16385067, 0.10523854, -0.36812633, 99.95400238, 114.75510406, 28.86999893, 0.00000000
1, 1.6450, 114, -0.07609027, -1.06450450, 0.53981590, -10.28851223, 16.89698982, 38.29751968, -35.95439911, 8.79859638, -58.98859787, 103.88977814, 8.11830807, -6.06871700, 0.61106056, -0.78665137, -0.00199565, 0.08820846, 0.21692839, 0.10278539, -0.30387640, 99.95400238, 114.75510406, 28.86999893, 0.00000000
1, 1.6500, 115, -0.13204113, -1.05071807, 0.47448534, -21.95884323, 20.08149338, 51.00056076, -35.95439911, 8.79859638, -58.98859787, 103.78579712, 7.84648561, -6.03147554, 0.61200249, -0.78614873, -0.00086601, 0.08615375, 0.26861769, 0.08812639, -0.24002373, 99.95400238, 114.75510406, 28.86999893, 0.00000000
1, 1.6550, 116, -0.18251340, -1.02749825, 0.40118346, -31.21029282, 22.90485573, 62.19201279, -35.95439911, 8.79859638, -58.98859787, 103.63563538, 7.51692963, -5.99313259, 0.61329776, -0.78540421, 0.00053760, 0.08370119, 0.31381494, 0.06373253, -0.16897194, 99.95400238, 114.75510406, 28.86999893, 0.00000000
1, 1.6600, 117, -0.20216167, -1.01965857, 0.32893327, -38.68538666, 25.69528961, 72.48375702, -35.86670685, 8.03858471, -59.51476288, 103.44834137, 7.13410330, -5.95223570, 0.61487836, -0.78446090, 0.00219198, 0.08087571, 0.32724530, 0.05447715, -0.09956340, 99.95400238, 114.75510406, 28.86999893, 0.00000000
1, 1.6650, 118, -0.17853898, -1.02732027, 0.24584590, -45.55236435, 28.05360603, 82.12652588, -35.86670685, 8.03858471, -59.51476288, 103.22673798, 6.70171022, -5.90959644, 0.61671764, -0.78332871, 0.00408906, 0.07770935, 0.29654920, 0.06054780, -0.01981457, 99.95400238, 114.75510406, 28.86999893, 0.00000000
1, 1.6700, 119, -0.13976702, -1.14520407, 0.15554462, -51.40388107, 29.22538948, 93.69100952, -36.94826126, 7.77550411, -60.80093384, 102.97250366, 6.20575857, -5.87284756, 0.61880362, -0.78201234, 0.00636289, 0.07415099, 0.24974966, 0.17668308, 0.06645162, 99.95400238, 114.75510406, 28.86999893, 0.00000000
1, 1.6750, 120, -0.07142344, -1.17548132, 0.21467619, -48.92472839, 29.20359039, 102.80754089, -36.94826126, 7.77550411, -60.80093384, 102.73217010, 5.67157078, -5.84386778, 0.62079704, -0.78075451, 0.00892231, 0.07038311, 0.17212348, 0.20494562, 0.00342532, 99.95400238, 114.75510406, 28.86999893, 0.00000000
1, 1.7200, 121, 0.84125334, -1.49205816, -0.22043321, -4.36642265, -25.81828690, 51.11970901, -39.31599045, 7.65857935, -60.45016098, 102.23834991, 2.53596234, -6.30604601, 0.62565166, -0.77784836, 0.02893747, 0.05171701, -0.79552865, 0.51617765, 0.43200618, 99.95400238, 114.75510406, 28.86999893, 0.00000000
1, 1.7250, 122, 0.47893581, -1.67438698, -0.36675680, -4.90751123, -46.91438293, 59.17649460, -39.31599045, 7.65857935, -60.45016098, 102.20227051, 2.29590034, -6.59781456, 0.62588429, -0.77753377, 0.03221613, 0.05169385, -0.43689695, 0.69844407, 0.57656050, 99.95400238, 114.75510406, 28.86999893, 0.00000000
1, 1.7300, 123, 0.15114906, -1.66182995, -0.43765447, -14.06802368, -55.95775223, 64.09001160, -39.31599045, 7.65857935, -60.45016098, 102.11983490, 2.04090595, -6.93873692, 0.62641799, -0.77693224, 0.03588844, 0.05185480, -0.11330435, 0.68561029, 0.64564943, 99.95400238, 114.75510406, 28.86999893, 0.00000000
1, 1.7350, 124, -0.09587135, -1.42550468, -0.55620372, -28.71113968, -62.57915497, 64.78459167, -39.28675842, 8.03858471, -60.94709015, 101.96462250, 1.78844202, -7.31221104, 0.62742954, -0.77590233, 0.03973321, 0.05224157, 0.12953618, 0.44879639, 0.76151758, 99.95400238, 114.75510406, 28.86999893, 0.00000000
1, 1.7400, 125, -0.34663016, -1.23468685, -0.58373296, -30.06315041, -66.04881287, 62.26544952, -39.28675842, 8.03858471, -60.94709015, 101.80381012, 1.55078900, -7.69933319, 0.62846458, -0.77481824, 0.04358426, 0.05281586, 0.37617117, 0.25731584, 0.78599584, 99.95400238, 114.75510406, 28.86999893, 0.00000000
1, 1.7450, 126, -0.27950835, -1.19108582, -0.21430071, -30.66928482, -70.63713837, 67.49172974, -39.78368759, 7.95089149, -60.88862991, 101.64105225, 1.29107511, -8.11349392, 0.62951124, -0.77368295, 0.04773572, 0.05340169, 0.30374438, 0.21243241, 0.41410977, 99.95400238, 114.75510406, 28.86999893, 0.00000000
1, 1.7500, 127, -0.02080230, -1.31234860, 0.14497812, -46.43781281, -136.13578796, 85.76049042, -39.78368759, 7.95089149, -60.88862991, 101.39503479, 1.00494945, -8.86591434, 0.63097095, -0.77189738, 0.05426936, 0.05572214, 0.03923051, 0.33223182, 0.05152591, 99.95400238, 114.75510406, 28.86999893, 0.00000000
1, 1.7550, 128, -0.45366508, -1.27469897, 0.17679520, -49.89739990, -263.88226318, 115.88395691, -39.78368759, 7.95089149, -60.88862991, 101.12625122, 0.69110239, -10.27275848, 0.63224864, -0.76955241, 0.06532675, 0.06150797, 0.46672225, 0.29350090, 0.01398993, 99.95400238, 114.75510406, 28.86999893, 0.00000000
1, 1.7600, 129, -1.35714722, -1.50061095, 0.07592002, -17.87212372, -296.89053345, 144.44880676, -38.96521378, 8.27243519, -60.24554062, 101.02503967, 0.26434681, -11.86758614, 0.63231695, -0.76777792, 0.07832494, 0.06751046, 1.36358845, 0.51900995, 0.10971297, 99.95400238, 114.75510406, 28.86999893, 0.00000000
1, 1.7650, 130, -1.68313301, -1.74317050, 0.15383454, 1.76317894, -215.95075989, 151.98181152, -38.96521378, 8.27243519, -60.24554062, 101.03546143, -0.27700803, -13.07183170, 0.63191766, -0.76662773, 0.08938009, 0.07052121, 1.68035722, 0.76138639, 0.03040503, 99.95400238, 114.75510406, 28.86999893, 0.00000000
1, 1.8650, 131, -0.41241458, -0.98067570, 0.00935496, -15.01001549, 1.08195496, 49.79325104, -42.91143036, 9.44168377, -61.00555420, 98.82293701, -8.42543507, -15.15203190, 0.65055543, -0.74443728, 0.14722726, 0.03024892, 0.26692033, 0.00304668, 0.14004092, 99.95400238, 114.75510406, 28.86999893, 0.00000000
1, 1.8700, 132, -0.41125455, -0.95347941, -0.03299711, -11.80516148, -2.41700625, 48.68759155, -43.40835953, 9.09090900, -61.85326004, 98.75564575, -8.68759346, -15.19838142, 0.65109891, -0.74367070, 0.14896558, 0.02886757, 0.26150906, -0.02360645, 0.18124926, 99.95400238, 114.75510406, 28.86999893, 0.00000000
1, 1.8750, 133, -0.42677414, -0.94448543, -0.04941229, -8.59709263, -3.32895422, 47.18787384, -43.40835953, 9.09090900, -61.85326004, 98.72129059, -8.91845417, -15.25093174, 0.65141100, -0.74311727, 0.15057896, 0.02768677, 0.27284881, -0.03205389, 0.19675331, 99.95400238, 114.75510406, 28.86999893, 0.00000000
1, 1.8800, 134, -0.45684186, -0.93564928, -0.02884893, -6.21911621, -3.36462021, 45.15878296, -43.40835953, 9.09090900, -61.85326004, 98.69879150, -9.13924599, -15.30202961, 0.65164059, -0.74264145, 0.15212965, 0.02654941, 0.29901123, -0.04038846, 0.17560530, 99.95400238, 114.75510406, 28.86999893, 0.00000000
1, 1.8850, 135, -0.48659852, -0.94445002, 0.02665767, -4.02932549, -2.72131824, 42.34206390, -43.05758667, 8.50628471, -61.79479599, 98.68650055, -9.34658909, -15.34773731, 0.65179813, -0.74224430, 0.15357274, 0.02545704, 0.32499662, -0.03113584, 0.11967216, 99.95400238, 114.75510406, 28.86999893, 0.00000000
1, 1.8900, 136, -0.51385641, -0.96753085, 0.06097656, -3.08570123, -2.04595041, 39.19145584, -43.05758667, 8.50628471, -61.79479599, 98.67810822, -9.53885937, -15.38765621, 0.65192425, -0.74189329, 0.15489514, 0.02442626, 0.34879556, -0.00758250, 0.08501463, 99.95400238, 114.75510406, 28.86999893, 0.00000000
1, 1.8950, 137, -0.53782451, -0.98954034, 0.04604067, -3.24901438, -0.77802944, 37.08557129, -43.75913239, 9.20783424, -62.08710861, 98.66767120, -9.72167206, -15.41962051, 0.65206027, -0.74155104, 0.15611279, 0.02341561, 0.36962840, 0.01495497, 0.09960368, 99.95400238, 114.75510406, 28.86999893, 0.00000000
1, 1.9000, 138, -0.55059189, -1.00092053, 0.00673687, -2.76696372, 8.44902515, 33.02300262, -43.75913239, 9.20783424, -62.08710861, 98.65126038, -9.89127636, -15.40218925, 0.65223813, -0.74125755, 0.15693623, 0.02221936, 0.37951273, 0.02686863, 0.13853143, 99.95400238, 114.75510406, 28.86999893, 0.00000000
1, 1.9050, 139, -0.54639608, -1.01009119, -0.01386929, -2.76990008, 16.97107697, 30.59724808, -43.75913239, 9.20783424, -62.08710861, 98.62702179, -10.05521107, -15.34008121, 0.65247083, -0.74098712, 0.15743804, 0.02081711, 0.37252814, 0.03650811, 0.15868539, 99.95400238, 114.75510406, 28.86999893, 0.00000000
1, 1.9100, 140, -0.51200241, -1.01395977, -0.00980707, -3.39142585, 26.76399231, 28.70039749, -44.31452560, 9.76322746, -62.35018921, 98.59055328, -10.21699047, -15.22722721, 0.65278745, -0.74071884, 0.15759829, 0.01915696, 0.33533782, 0.04077499, 0.15406397, 99.95400238, 114.75510406, 28.86999893, 0.00000000
1, 2.0750, 141, -0.12440687, -0.94014108, 0.16271357, -16.63690758, 5.05607891, 44.68591309, -49.34229660, 10.28938866, -63.22712708, 96.47071838, -15.76774502, -11.10347652, 0.66657996, -0.72653246, 0.16241217, -0.03800038, -0.14679196, -0.01659318, -0.05573302, 99.95400238, 114.75510406, 28.86999893, 0.00000000
1, 2.0800, 142, -0.14979127, -0.93375099, 0.14658310, -17.36518860, 3.70584059, 45.53930283, -49.19614029, 10.49400711, -63.78252029, 96.38636780, -15.99631405, -11.11047745, 0.66707665, -0.72569978, 0.16377531, -0.03932348, -0.12518951, -0.02203830, -0.04117543, 99.95400238, 114.75510406, 28.86999893, 0.00000000
1, 2.0850, 143, -0.17491509, -0.92911732, 0.14013635, -18.13803291, 3.11941195, 46.48157120, -49.19614029, 10.49400711, -63.78252029, 96.29910278, -16.22926140, -11.12070274, 0.66758871, -0.72483563, 0.16518594, -0.04064983, -0.10393842, -0.02570984, -0.03634689, 99.95400238, 114.75510406, 28.86999893, 0.00000000
1, 2.0900, 144, -0.19514535, -0.92394328, 0.14097373, -18.98964500, 3.15974283, 47.40473175, -49.19614029, 10.49400711, -63.78252029, 96.20759583, -16.46685028, -11.13086319, 0.66812307, -0.72393626, 0.16662532, -0.04199820, -0.08766967, -0.02990107, -0.03886159, 99.95400238, 114.75510406, 28.86999893, 0.00000000
1, 2.0950, 145, -0.20643221, -0.91567278, 0.14087099, -19.38826180, 3.97081995, 48.30544281, -49.60537720, 10.84478188, -63.95790482, 96.11297607, -16.70936775, -11.13693142, 0.66867089, -0.72301376, 0.16806938, -0.04339534, -0.08042096, -0.03714884, -0.04046032, 99.95400238, 114.75510406, 28.86999893, 0.00000000
1, 2.1000, 146, -0.21131358, -0.91367745, 0.14165556, -19.82945061, 5.37249517, 49.25582886, -49.60537720, 10.84478188, -63.95790482, 96.01411438, -16.95734787, -11.13580990, 0.66923743, -0.72206497, 0.16950232, -0.04486097, -0.07966296, -0.03808396, -0.04301398, 99.95400238, 114.75510406, 28.86999893, 0.00000000
1, 2.1050, 147, -0.20734972, -0.91387427, 0.14394695, -20.29615593, 5.90697050, 50.04564667, -50.16077042, 10.05553913, -64.22098541, 95.91210938, -17.20952988, -11.13186741, 0.66981727, -0.72109187, 0.17094442, -0.04636292, -0.08782272, -0.03679118, -0.04710895, 99.95400238, 114.75510406, 28.86999893, 0.00000000
1, 2.1100, 148, -0.20725603, -0.91803145, 0.14003731, -20.68587112, 6.01769924, 51.10482025, -50.16077042, 10.05553913, -64.22098541, 95.80796814, -17.46704102, -11.12741852, 0.67040431, -0.72009492, 0.17241639, -0.04789625, -0.09217615, -0.03148418, -0.04506028, 99.95400238, 114.75510406, 28.86999893, 0.00000000
1, 2.1150, 149, -0.20001289, -0.92137265, 0.14553592, -21.28184128, 5.56625128, 52.29341507, -50.16077042, 10.05553913, -64.22098541, 95.70161438, -17.73023796, -11.12545681, 0.67100000, -0.71906847, 0.17393918, -0.04944544, -0.10378878, -0.02695994, -0.05243500, 99.95400238, 114.75510406, 28.86999893, 0.00000000
1, 2.1200, 150, -0.18992087, -0.91870189, 0.14263970, -22.47306061, 4.43720818, 53.92911911, -50.42385101, 11.34171295, -64.71791840, 95.59559631, -17.99291039, -11.13108921, 0.67159224, -0.71802884, 0.17550857, -0.05094422, -0.11828054, -0.02839476, -0.05142599, 99.95400238, 114.75510406, 28.86999893, 0.00000000
1, 2.2250, 151, -0.22565480, -1.03737664, 0.23656867, -39.33399582, 5.98952293, 73.31924438, -54.48699188, 12.42326832, -66.03332520, 92.56206512, -24.60584831, -11.12254810, 0.68699610, -0.68854523, 0.21500343, -0.08783772, -0.18984301, 0.12807098, -0.19734307, 99.95400238, 114.75510406, 28.86999893, 0.00000000
1, 2.2300, 152, -0.18256415, -1.07773423, 0.21078221, -40.58245468, 6.51202583, 74.32907104, -55.10084534, 12.45249939, -66.44255829, 92.35212708, -24.97902679, -11.10361767, 0.68798214, -0.68660593, 0.21719374, -0.08988820, -0.23877418, 0.17103884, -0.17494026, 99.95400238, 114.75510406, 28.86999893, 0.00000000
1, 2.2350, 153, -0.15182494, -1.08178782, 0.19128329, -43.38739014, 6.60850430, 76.57534027, -55.10084534, 12.45249939, -66.44255829, 92.12738800, -25.36340714, -11.08299923, 0.68903422, -0.68455118, 0.21945640, -0.09198152, -0.27549058, 0.17780247, -0.15897013, 99.95400238, 114.75510406, 28.86999893, 0.00000000
1, 2.2400, 154, -0.13766305, -1.07905662, 0.17786576, -43.98105240, 6.01281595, 77.97080231, -55.10084534, 12.45249939, -66.44255829, 91.90032959, -25.75460052, -11.06419182, 0.69008231, -0.68245721, 0.22177777, -0.09409212, -0.29575551, 0.17788386, -0.14919195, 99.95400238, 114.75510406, 28.86999893, 0.00000000
1, 2.2450, 155, -0.12977009, -1.08593595, 0.17187189, -44.56435394, 4.64215994, 79.73320770, -55.13007736, 12.59865570, -66.38409424, 91.67295074, -26.15432739, -11.05150414, 0.69111627, -0.68032378, 0.22419173, -0.09620805, -0.30987617, 0.18768206, -0.14685105, 99.95400238, 114.75510406, 28.86999893, 0.00000000
1, 2.2500, 156, -0.12790065, -1.09369636, 0.16205339, -45.53664398, 3.18755770, 81.95425415, -55.13007736, 12.59865570, -66.38409424, 91.44359589, -26.56494141, -11.04543114, 0.69214410, -0.67813438, 0.22671600, -0.09833705, -0.31810433, 0.19850501, -0.14071378, 99.95400238, 114.75510406, 28.86999893, 0.00000000
1, 2.2550, 157, -0.12217229, -1.10881054, 0.15140836, -46.68611908, 1.66342294, 84.10580444, -56.24086380, 13.21251106, -66.99795532, 91.21157837, -26.98612404, -11.04626083, 0.69316977, -0.67588389, 0.22935089, -0.10047318, -0.33033252, 0.21682718, -0.13376155, 99.95400238, 114.75510406, 28.86999893, 0.00000000
1, 2.2600, 158, -0.11590723, -1.11464441, 0.13930516, -48.15554428, 0.26149431, 86.86020660, -56.24086380, 13.21251106, -66.99795532, 90.97512054, -27.42097855, -11.05332470, 0.69419968, -0.67355549, 0.23211177, -0.10263507, -0.34327012, 0.22603583, -0.12537672, 99.95400238, 114.75510406, 28.86999893, 0.00000000
1, 2.2650, 159, -0.12126251, -1.12017345, 0.12463424, -49.42437363, -0.09260090, 89.56694031, -56.24086380, 13.21251106, -66.99795532, 90.73245239, -27.86938667, -11.06055832, 0.69523776, -0.67114979, 0.23496409, -0.10485407, -0.34476459, 0.23511896, -0.11451332, 99.95400238, 114.75510406, 28.86999893, 0.00000000
1, 2.2700, 160, -0.13334097, -1.11492801, 0.10643260, -50.59572220, 0.28857508, 92.14974213, -56.56240845, 13.88482857, -67.08564758, 90.48596954, -28.31620598, -11.06533623, 0.69627988, -0.66871732, 0.23780319, -0.10705718, -0.33959207, 0.23355171, -0.10017861, 99.95400238, 114.75510406, 28.86999893, 0.00000000
1, 2.4200, 161, -0.19496857, -1.29618609, 0.16871306, -64.42304230, 91.93286896, 123.67356110, -68.05027771, 21.07570839, -77.28733826, 70.56523132, -45.65253067, 4.51835680, 0.74296600, -0.54444420, 0.29544666, -0.25356156, -0.51929271, 0.63458079, -0.40169847, 99.95700836, 114.50210571, 29.05999947, 0.00000000
1, 2.4250, 162, -0.37181291, -1.19432425, 0.10297387, -59.77083969, 71.34574890, 121.02051544, -68.05027771, 21.07570839, -77.28733826, 69.70898438, -46.10026932, 5.29699564, 0.74394494, -0.54015249, 0.29665437, -0.25841334, -0.34763831, 0.54158926, -0.34442574, 99.95700836, 114.50210571, 29.05999947, 0.00000000
1, 2.4300, 163, -0.55014253, -1.09866476, 0.00722964, -57.27098846, 58.25310898, 118.81886292, -69.04413605, 21.42648315, -78.48582458, 68.91784668, -46.55305862, 5.99696112, 0.74468923, -0.53609490, 0.29819506, -0.26290688, -0.17452815, 0.45482460, -0.25609004, 99.95700836, 114.50210571, 29.05999947, 0.00000000
1, 2.4350, 164, -0.68185836, -1.04699159, -0.06931086, -53.40165710, 46.82280350, 117.51568604, -69.04413605, 21.42648315, -78.48582458, 68.19070435, -47.01427078, 6.63039064, 0.74518102, -0.53229076, 0.30002135, -0.26713136, -0.04811513, 0.41193238, -0.18598363, 99.95700836, 114.50210571, 29.05999947, 0.00000000
1, 2.4400, 165, -0.83114326, -1.01509631, -0.09837784, -50.14841461, 36.36009216, 116.31353760, -69.04413605, 21.42648315, -78.48582458, 67.52105713, -47.48436737, 7.20287991, 0.74544853, -0.52871150, 0.30211195, -0.27110723, 0.09567963, 0.38867414, -0.16251031, 99.95700836, 114.50210571, 29.05999947, 0.00000000
1, 2.4450, 166, -0.93359059, -0.95183241, -0.11738018, -46.73780060, 30.43693733, 114.69179535, -69.54106903, 23.88190651, -78.57351685, 66.88904572, -47.95401001, 7.74317217, 0.74555486, -0.52531737, 0.30430794, -0.27492994, 0.19264027, 0.33393818, -0.14828904, 99.95700836, 114.50210571, 29.05999947, 0.00000000
1, 2.4500, 167, -1.01940751, -0.87278080, -0.06966840, -42.29590225, 27.19878387, 111.85905457, -69.54106903, 23.88190651, -78.57351685, 66.28999329, -48.41314697, 8.26507187, 0.74552822, -0.52212846, 0.30648217, -0.27863654, 0.27294427, 0.26311985, -0.20021552, 99.95700836, 114.50210571, 29.05999947, 0.00000000
1, 2.4550, 168, -1.04805493, -0.80124772, -0.00552807, -38.50936508, 24.26470375, 104.80059052, -69.65799713, 23.15112495, -78.77813721, 65.72998047, -48.84247208, 8.75647259, 0.74544227, -0.51917845, 0.30853730, -0.28208926, 0.29639277, 0.19934639, -0.26800412, 99.95700836, 114.50210571, 29.05999947, 0.00000000
1, 2.4600, 169, -1.05784118, -0.71273732, 0.06101237, -34.99380875, 1.26384819, 91.93933868, -69.65799713, 23.15112495, -78.77813721, 65.32913208, -49.25833893, 9.05710506, 0.74510914, -0.51678687, 0.31100097, -0.28464404, 0.30119783, 0.11789045, -0.33684361, 99.95700836, 114.50210571, 29.05999947, 0.00000000
1, 2.4650, 170, -1.03905523, -0.61836147, 0.09191673, -31.93223190, -19.69854164, 78.15097809, -69.65799713, 23.15112495, -78.77813721, 65.08248138, -49.65463257, 9.17290688, 0.74458158, -0.51493263, 0.31379393, -0.28631470, 0.27777237, 0.02965618, -0.36828700, 99.95700836, 114.50210571, 29.05999947, 0.00000000
1, 2.5200, 171, -1.26302671, 0.01224990, -0.27695048, -12.38718510, -10.28592110, -30.57028389, -70.00876617, 24.67114830, -79.33352661, 64.05386353, -50.08275223, 7.97635937, 0.75063604, -0.50426388, 0.32456413, -0.27734774, 0.49664837, -0.58862221, -0.00703605, 99.95700836, 114.50210571, 29.05999947, 0.00000000
1, 2.5250, 172, -1.14865935, -0.09505284, -0.10164838, -1.59682190, -11.97644615, -33.20159149, -70.00876617, 24.67114830, -79.33352661, 64.19636536, -49.95975113, 7.77943516, 0.75090313, -0.50482374, 0.32424811, -0.27597222, 0.38295552, -0.48339039, -0.18158908, 99.95700836, 114.50210571, 29.05999947, 0.00000000
1, 2.5300, 173, -1.01102233, -0.11015747, -0.00939895, 4.46972990, -2.96062565, -38.07638168, -70.18415833, 24.11575508, -79.53814697, 64.33251953, -49.79479599, 7.63000107, 0.75122142, -0.50554162, 0.32345524, -0.27471945, 0.24679635, -0.47095954, -0.27296031, 99.95700836, 114.50210571, 29.05999947, 0.00000000
1, 2.5350, 174, -0.85358000, -0.05227431, 0.07214204, 10.35048294, 18.04685402, -44.87126923, -70.18415833, 24.11575508, -79.53814697, 64.40277100, -49.55340195, 7.60503912, 0.75178587, -0.50629485, 0.32175162, -0.27378729, 0.09164552, -0.53206193, -0.35438746, 99.95700836, 114.50210571, 29.05999947, 0.00000000
1, 2.5400, 175, -0.70015210, 0.00578995, 0.07831383, 16.72962570, 38.77134705, -52.76586914, -69.59953308, 23.64805603, -79.56737518, 64.41548920, -49.23144150, 7.69762659, 0.75259054, -0.50711733, 0.31911495, -0.27313945, -0.05836813, -0.59387505, -0.36155808, 99.95700836, 114.50210571, 29.05999947, 0.00000000
1, 2.5450, 176, -0.59875804, 0.03837717, 0.05025633, 23.90436554, 55.30562973, -61.40139771, -69.59953308, 23.64805603, -79.56737518, 64.40065765, -48.83465195, 7.87455845, 0.75356185, -0.50809288, 0.31565493, -0.27266854, -0.15537074, -0.63087177, -0.33545080, 99.95700836, 114.50210571, 29.05999947, 0.00000000
1, 2.5500, 177, -0.51689523, 0.05669134, -0.00626639, 30.35136223, 67.24317932, -70.34754944, -69.59953308, 23.64805603, -79.56737518, 64.38111115, -48.37154770, 8.10173130, 0.75464916, -0.50925285, 0.31152195, -0.27225041, -0.23194039, -0.65428561, -0.28143603, 99.95700836, 114.50210571, 29.05999947, 0.00000000
1, 2.5550, 178, -0.45069227, 0.06530228, -0.10478374, 34.39814377, 71.61840820, -80.00422668, -70.12569427, 23.35574341, -80.29815674, 64.38603973, -47.85540771, 8.32478809, 0.75580466, -0.51061374, 0.30697584, -0.27165949, -0.29204330, -0.66863155, -0.18560791, 99.95700836, 114.50210571, 29.05999947, 0.00000000
1, 2.5600, 179, -0.37781197, 0.06597055, -0.20123278, 35.94523239, 67.80628204, -90.49024200, -70.12569427, 23.35574341, -80.29815674, 64.44499207, -47.30031967, 8.48680592, 0.75698012, -0.51219738, 0.30229667, -0.27065074, -0.35826963, -0.67572367, -0.09156067, 99.95700836, 114.50210571, 29.05999947, 0.00000000
1, 2.5650, 180, -0.25812700, 0.07091287, -0.23907073, 36.29444885, 53.34888840, -104.89521027, -69.42414093, 22.44957542, -79.91815186, 64.60994720, -46.71164703, 8.50747490, 0.75810665, -0.51413739, 0.29776210, -0.26883966, -0.47098511, -0.68796343, -0.05520244, 99.95700836, 114.50210571, 29.05999947, 0.00000000
1, 2.6450, 181, -0.57585078, -0.14868578, -0.23562883, 130.76295471, -51.18323898, -203.75601196, -64.10406494, 14.84945869, -77.08272552, 75.66261292, -34.56578064, 1.53152990, 0.75165689, -0.58872980, 0.22679946, -0.19227940, 0.00573936, -0.64560157, 0.02713799, 99.95700836, 114.50210571, 29.05999947, 0.00000000
1, 2.6500, 182, -0.56789011, -0.17952389, -0.22150443, 130.94680786, -47.64170456, -211.98130798, -64.10406494, 14.84945869, -77.08272552, 76.64418030, -33.59291840, 0.94369471, 0.74956602, -0.59547400, 0.22181347, -0.18536562, 0.01157492, -0.62741566, 0.02451443, 99.95700836, 114.50210571, 29.05999947, 0.00000000
1, 2.6550, 183, -0.54643136, -0.21671689, -0.21988185, 131.38009644, -41.01715469, -219.40020752, -62.84711838, 14.46945286, -76.58579254, 77.58930206, -32.56843948, 0.41078994, 0.74749470, -0.60217565, 0.21638727, -0.17836143, 0.00486840, -0.60283631, 0.03423837, 99.95700836, 114.50210571, 29.05999947, 0.00000000
1, 2.6600, 184, -0.49134454, -0.22031286, -0.24005947, 132.81814575, -31.81113625, -225.15795898, -62.84711838, 14.46945286, -76.58579254, 78.49526978, -31.49910545, -0.05034837, 0.74542058, -0.60882860, 0.21047023, -0.17140079, -0.03455038, -0.61170602, 0.06565772, 99.95700836, 114.50210571, 29.05999947, 0.00000000
1, 2.6650, 185, -0.44829959, -0.21587974, -0.29757953, 138.17439270, -25.86263657, -230.20195007, -60.74247360, 11.72171879, -75.47500610, 79.39307404, -30.39318085, -0.45820901, 0.74319631, -0.61557502, 0.20415725, -0.16445860, -0.06107757, -0.62839437, 0.13447486, 99.95700836, 114.50210571, 29.05999947, 0.00000000
1, 2.6700, 186, -0.42294556, -0.30075777, -0.22420089, 144.85655212, -20.20280647, -232.88621521, -60.74247360, 11.72171879, -75.47500610, 80.28710938, -29.26839447, -0.81033772, 0.74076581, -0.62240833, 0.19753754, -0.15764827, -0.06967670, -0.55574441, 0.07260120, 99.95700836, 114.50210571, 29.05999947, 0.00000000
1, 2.6750, 187, -0.44474724, -0.32204640, -0.08064286, 142.14987183, -9.49358845, -238.90588379, -60.74247360, 11.72171879, -75.47500610, 81.12729645, -28.09590149, -1.08598268, 0.73842716, -0.62906802, 0.19037116, -0.15085670, -0.03057965, -0.54648596, -0.05977961, 99.95700836, 114.50210571, 29.05999947, 0.00000000
1, 2.6800, 188, -0.44148430, -0.28197417, -0.12906449, 140.04699707, -1.82663643, -245.67172241, -59.51476288, 12.10172462, -74.01344299, 81.92465210, -26.88098335, -1.30265796, 0.73614377, -0.63557142, 0.18275811, -0.14401697, -0.01513360, -0.59804332, -0.00043568, 99.95700836, 114.50210571, 29.05999947, 0.00000000
1, 2.6850, 189, -0.46477929, -0.27934021, -0.14971071, 146.50054932, 3.92076588, -253.57373047, -59.51476288, 12.10172462, -74.01344299, 82.72907257, -25.62032318, -1.47236359, 0.73366225, -0.64220762, 0.17467222, -0.13710889, 0.02776336, -0.61202657, 0.03112896, 99.95700836, 114.50210571, 29.05999947, 0.00000000
1, 2.6900, 190, -0.48194423, -0.32119650, -0.07199891, 152.96882629, 2.90939426, -259.95452881, -57.29319000, 11.40017509, -72.99035645, 83.55733490, -24.32648277, -1.63019347, 0.73090696, -0.64899707, 0.16637158, -0.12999383, 0.06502337, -0.58140957, -0.03497257, 99.95700836, 114.50210571, 29.05999947, 0.00000000
1, 2.7250, 191, -0.63988888, -0.85927308, -0.18740655, 183.47120667, 34.07873535, -296.93041992, -54.22391129, 9.12014008, -71.09032440, 89.57842255, -14.49348068, -1.82273436, 0.70535904, -0.69736063, 0.10062850, -0.07765803, 0.38377479, -0.10685609, 0.17361382, 99.95700836, 114.50210571, 29.05999947, 0.00000000
1, 2.7300, 192, -0.56565064, -0.98778987, -0.06858245, 190.13546753, 52.56639099, -301.48193359, -52.41157532, 5.75855017, -70.27185059, 90.46175385, -12.98350620, -1.55421376, 0.70076066, -0.70425332, 0.08918259, -0.07076942, 0.33471605, 0.01500911, 0.06963842, 99.95700836, 114.50210571, 29.05999947, 0.00000000
1, 2.7350, 193, -0.39873040, -1.06521499, 0.03946675, 198.20104980, 64.40454102, -304.21176147, -52.41157532, 5.75855017, -70.27185059, 91.37451935, -11.46482468, -1.20234823, 0.69579285, -0.71118772, 0.07724168, -0.06417281, 0.19338089, 0.08666454, -0.02262408, 99.95700836, 114.50210571, 29.05999947, 0.00000000
1, 2.7400, 194, -0.10483412, -1.14121532, 0.11250012, 202.83081055, 71.16105652, -298.11575317, -50.07307816, 7.36626720, -68.98567963, 92.30898285, -9.98327351, -0.79412931, 0.69050759, -0.71803987, 0.06525107, -0.05796885, -0.07512462, 0.15797663, -0.07903565, 99.95700836, 114.50210571, 29.05999947, 0.00000000
1, 2.7450, 195, 0.11966591, -1.21369457, -0.00375679, 207.16838074, 55.84804535, -288.33575439, -50.07307816, 7.36626720, -68.98567963, 93.28448486, -8.55371094, -0.44262642, 0.68484443, -0.72485304, 0.05400045, -0.05157778, -0.27449441, 0.22717524, 0.05441853, 99.95700836, 114.50210571, 29.05999947, 0.00000000
1, 2.7500, 196, 0.32074663, -1.33450079, -0.22811049, 212.48753357, 27.84559822, -274.83975220, -50.07307816, 7.36626720, -68.98567963, 94.31178284, -7.18857145, -0.21268974, 0.67875278, -0.73168385, 0.04398838, -0.04470569, -0.45115465, 0.34599209, 0.29676700, 99.95700836, 114.50210571, 29.05999947, 0.00000000
1, 2.7550, 197, 0.47829974, -1.44364560, -0.39954430, 215.82617188, -18.29814911, -259.40240479, -47.85150528, 6.51856184, -68.31335449, 95.38541412, -5.88548136, -0.19609982, 0.67228329, -0.73850989, 0.03581977, -0.03681630, -0.58544505, 0.45414782, 0.48699036, 99.95700836, 114.50210571, 29.05999947, 0.00000000
1, 2.7600, 198, 0.51665187, -1.54081547, -0.40845931, 214.68763733, -76.72492981, -244.65652466, -47.85150528, 6.51856184, -68.31335449, 96.47908020, -4.62657309, -0.45411712, 0.66558945, -0.74521536, 0.02983627, -0.02747111, -0.60173744, 0.55106080, 0.51491427, 99.95700836, 114.50210571, 29.05999947, 0.00000000
1, 2.9600, 199, -0.47530755, -0.78243923, 0.40378219, -72.73232269, -286.81216431, 170.90538025, -40.10523224, 10.55247021, -60.12861633, 103.29275513, -0.14078917, -10.89469242, 0.61780220, -0.78058136, 0.07520331, 0.05794676, 0.47393420, -0.19111663, -0.17500213, 99.95700836, 114.50210571, 29.05999947, 0.00000000
1, 2.9650, 200, -1.08278573, -0.73416662, 0.07871188, -50.32180786, -311.24374390, 167.89956665, -39.40368271, 8.47705364, -60.39169693, 103.05432892, -0.60714650, -12.60059357, 0.61883289, -0.77780199, 0.08919054, 0.06414973, 1.07401192, -0.23987859, 0.14413285, 99.95700836, 114.50210571, 29.05999947, 0.00000000
1, 2.9700, 201, -1.73404527, -0.81066775, 0.12745549, -21.96169472, -261.32690430, 159.05395508, -39.40368271, 8.47705364, -60.39169693, 102.96770477, -1.09667039, -14.05212498, 0.61894673, -0.77579236, 0.10161826, 0.06873827, 1.71676481, -0.16384710, 0.09148940, 99.95700836, 114.50210571, 29.05999947, 0.00000000
1, 2.9750, 202, -2.17214966, -0.94067419, 0.19223531, -9.94557190, -198.80032349, 147.21171570, -38.67290115, 9.90938282, -59.42706680, 102.94622803, -1.59307051, -15.18538857, 0.61879820, -0.77423775, 0.11194058, 0.07151325, 2.14603949, -0.03387631, 0.02489173, 99.95700836, 114.50210571, 29.05999947, 0.00000000
1, 2.9800, 203, -2.40142488, -0.77744007, 0.19312574, -16.44060135, -146.36376953, 136.97702026, -38.67290115, 9.90938282, -59.42706680, 102.89350128, -2.09855795, -16.05148697, 0.61903352, -0.77264619, 0.12046824, 0.07282066, 2.36652517, -0.19702396, 0.02290156, 99.95700836, 114.50210571, 29.05999947, 0.00000000
1, 2.9850, 204, -2.36256623, -0.57721329, 0.12333823, -22.73387337, -109.82301331, 130.25167847, -38.67290115, 9.90938282, -59.42706680, 102.80928802, -2.61271954, -16.73150063, 0.61961085, -0.77098447, 0.12775306, 0.07310758, 2.31892490, -0.39709640, 0.09173068, 99.95700836, 114.50210571, 29.05999947, 0.00000000
1, 2.9900, 205, -2.31782389, -0.57573438, 0.02626906, -28.94841385, -71.13877106, 122.77021027, -38.81905746, 10.17246437, -59.92399979, 102.69012451, -3.13401794, -17.21374512, 0.62055957, -0.76928240, 0.13371305, 0.07232856, 2.26534319, -0.39841324, 0.18695828, 99.95700836, 114.50210571, 29.05999947, 0.00000000
1, 2.9950, 206, -2.23129821, -0.64623272, 0.01638696, -38.47373962, -30.59977150, 109.34612274, -38.81905746, 10.17246437, -59.92399979, 102.51484680, -3.63504338, -17.48213196, 0.62200207, -0.76750207, 0.13808942, 0.07060756, 2.16999578, -0.32801914, 0.19410288, 99.95700836, 114.50210571, 29.05999947, 0.00000000
1, 3.0000, 207, -2.07137465, -0.69697297, -0.08252132, -46.20214844, 5.49338150, 96.03855896, -38.52674484, 9.47091484, -59.57322311, 102.29006195, -4.11056376, -17.55797005, 0.62386537, -0.76568395, 0.14101242, 0.06808566, 2.00193787, -0.27738523, 0.28956115, 99.95700836, 114.50210571, 29.05999947, 0.00000000
1, 3.0050, 208, -1.84973633, -0.65977395, -0.17904122, -43.50846863, 36.62574005, 87.10697174, -38.52674484, 9.47091484, -59.57322311, 102.06686401, -4.57527876, -17.46992874, 0.62579089, -0.76407027, 0.14279293, 0.06475073, 1.77242231, -0.31467900, 0.38269579, 99.95700836, 114.50210571, 29.05999947, 0.00000000
1, 3.0700, 209, -0.40631282, -0.92281091, -0.00033211, -13.15131950, -34.29309464, 65.92671204, -44.34375763, 7.89242887, -62.14557266, 99.65330505, -9.97799587, -13.91151047, 0.64597571, -0.74880475, 0.14787166, 0.01186765, 0.23444569, -0.04832800, 0.16319278, 99.95700836, 114.50210571, 29.05999947, 0.00000000
1, 3.0750, 210, -0.61334532, -0.93810916, 0.01322956, -8.68232632, -48.44904709, 63.74475479, -44.10990906, 9.52937698, -61.94095230, 99.66275024, -10.25214863, -14.20796871, 0.64597142, -0.74812293, 0.15131499, 0.01170254, 0.43649387, -0.03220335, 0.14885648, 99.95700836, 114.50210571, 29.05999947, 0.00000000
1, 3.0800, 211, -0.74145049, -0.95228934, 0.02284760, -6.44938660, -42.51469040, 61.08866119, -44.10990906, 9.52937698, -61.94095230, 99.67898560, -10.51804161, -14.47274590, 0.64592481, -0.74751586, 0.15450332, 0.01140440, 0.55997658, -0.01716935, 0.13901767, 99.95700836, 114.50210571, 29.05999947, 0.00000000
1, 3.0850, 212, -0.82406139, -0.95148528, 0.04579426, -5.24092150, -31.38735390, 57.93843079, -44.10990906, 9.52937698, -61.94095230, 99.69165039, -10.77759838, -14.67932606, 0.64590633, -0.74696237, 0.15727389, 0.01082466, 0.63804972, -0.01714586, 0.11595981, 99.95700836, 114.50210571, 29.05999947, 0.00000000
1, 3.0900, 213, -0.87338179, -0.95396650, 0.08314517, -4.10138130, -20.40405273, 54.96091843, -44.92838287, 10.11400127, -62.46711349, 99.70003510, -11.03158283, -14.82844830, 0.64592010, -0.74646109, 0.15963668, 0.00996372, 0.68290043, -0.01387210, 0.07850375, 99.95700836, 114.50210571, 29.05999947, 0.00000000
1, 3.0950, 214, -0.89857888, -0.96878803, 0.10389219, -3.98541665, -10.08963585, 51.91038513, -44.92838287, 10.11400127, -62.46711349, 99.69907379, -11.27912331, -14.92329407, 0.64599705, -0.74598420, 0.16160809, 0.00885268, 0.70377803, 0.00174535, 0.05756049, 99.95700836, 114.50210571, 29.05999947, 0.00000000
1, 3.1000, 215, -0.89917922, -0.98779178, 0.12490050, -4.96721745, 2.72735500, 48.68811417, -45.45454407, 7.92166042, -62.73019409, 99.68030548, -11.52148342, -14.95098686, 0.64619195, -0.74550349, 0.16311170, 0.00742295, 0.70015836, 0.02149909, 0.03614612, 99.95700836, 114.50210571, 29.05999947, 0.00000000
1, 3.1050, 216, -0.87470371, -1.00650036, 0.14473854, -7.21538782, 17.27954102, 45.27795410, -45.45454407, 7.92166042, -62.73019409, 99.63497162, -11.75917149, -14.90242767, 0.64655989, -0.74498487, 0.16409230, 0.00563273, 0.67154926, 0.04089021, 0.01555362, 99.95700836, 114.50210571, 29.05999947, 0.00000000
1, 3.1100, 217, -0.84132153, -1.01192284, 0.15958615, -9.95850658, 31.58363342, 41.86818314, -45.45454407, 7.92166042, -62.73019409, 99.56020355, -11.99182892, -14.77860165, 0.64711541, -0.74441296, 0.16455646, 0.00349398, 0.63413322, 0.04692000, -0.00049824, 99.95700836, 114.50210571, 29.05999947, 0.00000000
1, 3.1150, 218, -0.79326665, -1.00653124, 0.17356682, -12.02244759, 42.65536880, 38.40777206, -45.60070038, 10.26015759, -62.37942123, 99.46216583, -12.21632576, -14.59558487, 0.64781344, -0.74380463, 0.16459422, 0.00110878, 0.58217216, 0.04205856, -0.01604670, 99.95700836, 114.50210571, 29.05999947, 0.00000000
1, 3.1650, 219, -0.20762140, -0.98440874, 0.08107593, -7.64609194, 21.90187073, 25.09839821, -47.96842957, 9.76322746, -63.11020279, 98.48151398, -14.01752377, -12.51969624, 0.65421784, -0.73863035, 0.16116486, -0.02121812, -0.03421487, 0.02455518, 0.06015959, 99.95700836, 114.50210571, 29.05999947, 0.00000000
1, 3.1700, 220, -0.23435068, -0.98051131, 0.11106762, -7.45150185, 17.55203438, 24.99224091, -47.96842957, 9.76322746, -63.11020279, 98.42373657, -14.15314865, -12.44780827, 0.65457898, -0.73820901, 0.16146326, -0.02244191, -0.00987690, 0.02103916, 0.02906154, 99.95700836, 114.50210571, 29.05999947, 0.00000000
1, 3.1750, 221, -0.26968545, -0.97879326, 0.13946515, -7.21122217, 15.32533741, 24.97115898, -48.17304993, 11.25401878, -63.05173874, 98.37335968, -14.28785229, -12.38822269, 0.65489244, -0.73781329, 0.16183546, -0.02359940, 0.02310965, 0.01971343, -0.00038877, 99.95700836, 114.50210571, 29.05999947, 0.00000000
1, 3.1800, 222, -0.32140389, -0.97611868, 0.15165566, -7.17712641, 15.43174839, 24.90315437, -48.17304993, 11.25401878, -63.05173874, 98.32282257, -14.42224312, -12.32786655, 0.65520453, -0.73741758, 0.16220197, -0.02475864, 0.07252401, 0.01746891, -0.01363289, 99.95700836, 114.50210571, 29.05999947, 0.00000000
1, 3.1850, 223, -0.35699654, -0.97240531, 0.16071551, -7.56157351, 20.66273499, 24.50695038, -48.17304993, 11.25401878, -63.05173874, 98.26341248, -14.55835152, -12.24030876, 0.65556526, -0.73700672, 0.16240606, -0.02607188, 0.10580249, 0.01418665, -0.02381003, 99.95700836, 114.50210571, 29.05999947, 0.00000000
1, 3.1900, 224, -0.36546770, -0.96829522, 0.16538079, -7.93136454, 24.70688057, 24.22247696, -48.46535873, 10.93247604, -63.11020279, 98.19661713, -14.69581985, -12.13165855, 0.65596539, -0.73658103, 0.16248526, -0.02750407, 0.11194631, 0.01050818, -0.02966134, 99.95700836, 114.50210571, 29.05999947, 0.00000000
1, 3.1950, 225, -0.35809132, -0.95631790, 0.16595812, -8.26224232, 28.50434875, 24.07183647, -48.46535873, 10.93247604, -63.11020279, 98.12287140, -14.83508396, -12.00320625, 0.65640157, -0.73614055, 0.16245067, -0.02905146, 0.10222617, -0.00103312, -0.03149110, 99.95700836, 114.50210571, 29.05999947, 0.00000000
1, 3.2000, 226, -0.33417010, -0.94338727, 0.16212605, -8.05988598, 32.33970642, 23.98541832, -48.81613541, 10.75708866, -62.84711838, 98.04468536, -14.97642231, -11.85476685, 0.65685666, -0.73569936, 0.16230257, -0.03072075, 0.07593960, -0.01351699, -0.02895855, 99.95700836, 114.50210571, 29.05999947, 0.00000000
1, 3.2050, 227, -0.30374458, -0.93742168, 0.14288731, -7.95458460, 35.46793747, 24.30400658, -48.81613541, 10.75708866, -62.84711838, 97.96249390, -15.12128258, -11.69019985, 0.65732777, -0.73525238, 0.16207403, -0.03250008, 0.04313574, -0.01899804, -0.01108260, 99.95700836, 114.50210571, 29.05999947, 0.00000000
1, 3.2100, 228, -0.26877630, -0.93927026, 0.12451155, -7.79519033, 37.09552002, 24.76139641, -48.81613541, 10.75708866, -62.84711838, 97.87847137, -15.26929760, -11.51727295, 0.65780228, -0.73480153, 0.16181263, -0.03434575, 0.00573190, -0.01664794, 0.00589161, 99.95700836, 114.50210571, 29.05999947, 0.00000000
1, 3.2750, 229, -0.05735087, -0.91415489, 0.24422468, -14.73302174, 20.40777206, 41.38216400, -50.71616364, 10.20169544, -64.63022614, 96.74408722, -17.55602074, -9.91698933, 0.66391295, -0.72719193, 0.16484623, -0.05689763, -0.24398741, -0.03330874, -0.13345703, 99.95700836, 114.50210571, 29.05999947, 0.00000000
1, 3.2800, 230, -0.04977427, -0.90931749, 0.23129581, -15.99777412, 19.45464516, 42.91783524, -50.71616364, 10.20169544, -64.63022614, 96.64170837, -17.78056717, -9.84148693, 0.66444951, -0.72637260, 0.16568173, -0.05864620, -0.25523585, -0.03715447, -0.12231378, 99.95700836, 114.50210571, 29.05999947, 0.00000000
1, 3.2850, 231, -0.04587685, -0.90881908, 0.21282598, -17.15761375, 18.67400742, 44.56144714, -50.71616364, 10.20169544, -64.63022614, 96.53466797, -18.01272202, -9.77050781, 0.66500956, -0.72550637, 0.16659416, -0.06040929, -0.26291329, -0.03660178, -0.10572025, 99.95700836, 114.50210571, 29.05999947, 0.00000000
1, 3.2900, 232, -0.05245266, -0.90788090, 0.20156747, -18.56210136, 17.60517311, 46.51677322, -51.18386459, 9.47091484, -65.09792328, 96.42226410, -18.25387383, -9.70569420, 0.66559762, -0.72458434, 0.16760232, -0.06218500, -0.26026607, -0.03644708, -0.09645244, 99.95700836, 114.50210571, 29.05999947, 0.00000000
1, 3.2950, 233, -0.05238000, -0.90503597, 0.19961894, -19.72519302, 17.07069969, 48.06113815, -51.18386459, 9.47091484, -65.09792328, 96.30477905, -18.50231361, -9.64398384, 0.66621047, -0.72361469, 0.16867723, -0.06398002, -0.26441875, -0.03815856, -0.09655574, 99.95700836, 114.50210571, 29.05999947, 0.00000000
1, 3.3000, 234, -0.05853203, -0.91159821, 0.19197676, -21.09432411, 16.03532791, 50.08691025, -51.50540543, 10.52323914, -64.63022614, 96.18213654, -18.76015091, -9.58820248, 0.66684914, -0.72258925, 0.16984898, -0.06579112, -0.26248184, -0.03039055, -0.09110104, 99.95700836, 114.50210571, 29.05999947, 0.00000000
1, 3.3050, 235, -0.07605346, -0.91788602, 0.18310182, -22.14883995, 15.32942772, 51.55569839, -51.50540543, 10.52323914, -64.63022614, 96.05520630, -19.02482986, -9.53626442, 0.66750741, -0.72151953, 0.17108957, -0.06761467, -0.24928519, -0.02283757, -0.08450551, 99.95700836, 114.50210571, 29.05999947, 0.00000000
1, 3.3100, 236, -0.08824688, -0.93236399, 0.17343967, -23.17711067, 15.39047337, 53.00738525, -51.50540543, 10.52323914, -64.63022614, 95.92285919, -19.29664421, -9.48408222, 0.66818970, -0.72040433, 0.17237598, -0.06947441, -0.24151869, -0.00703806, -0.07720758, 99.95700836, 114.50210571, 29.05999947, 0.00000000
1, 3.3150, 237, -0.09719548, -0.94760394, 0.16648529, -23.92757607, 16.07393837, 54.75078583, -52.06079865, 11.69248772, -64.89330292, 95.78538513, -19.57738113, -9.42845058, 0.66889066, -0.71924698, 0.17369826, -0.07140056, -0.23713908, 0.00958725, -0.07269208, 99.95700836, 114.50210571, 29.05999947, 0.00000000
1, 3.3200, 238, -0.09730989, -0.96309459, 0.16362758, -25.38259888, 16.19412994, 56.48972702, -52.06079865, 11.69248772, -64.89330292, 95.64569092, -19.84814644, -9.37404156, 0.66960341, -0.71808702, 0.17497738, -0.07324838, -0.24158579, 0.02647350, -0.07232192, 99.95700836, 114.50210571, 29.05999947, 0.00000000
1, 3.4600, 239, -0.26832682, -1.10139823, 0.04949751, -55.98733521, 10.04530334, 101.73976135, -58.40397644, 14.38175964, -69.07337189, 89.42445374, -31.04201889, -8.41508293, 0.69670117, -0.66211033, 0.23938768, -0.13751709, -0.24556321, 0.24341862, -0.05941887, 99.95700836, 114.50210571, 29.05999947, 0.00000000
1, 3.4650, 240, -0.24080054, -1.11501205, 0.01949301, -57.17670441, 14.97674179, 104.85187531, -58.40397644, 14.32329750, -69.07337189, 89.08966827, -31.56583214, -8.31847954, 0.69786435, -0.65918368, 0.24229798, -0.14054929, -0.28077021, 0.26183015, -0.03421769, 99.95700836, 114.50210571, 29.05999947, 0.00000000
1, 3.4700, 241, -0.23039784, -1.12669468, -0.00501037, -57.66296768, 17.52407074, 107.40748596, -58.40397644, 14.32329750, -69.07337189, 88.74209595, -32.08790207, -8.20250225, 0.69904715, -0.65621394, 0.24511941, -0.14364184, -0.29892182, 0.27846414, -0.01473371, 99.95700836, 114.50210571, 29.05999947, 0.00000000
1, 3.4750, 242, -0.23010264, -1.13724971, -0.02046765, -58.08491135, 20.59833145, 109.79958344, -59.31014252, 15.11254025, -69.42414093, 88.37846375, -32.63467026, -8.06319714, 0.70022529, -0.65313488, 0.24799128, -0.14696872, -0.30711052, 0.29416928, -0.00448195, 99.95700836, 114.50210571, 29.05999947, 0.00000000
1, 3.4800, 243, -0.23830378, -1.15652335, -0.03357898, -58.14525986, 23.18760300, 112.21057129, -59.31014252, 15.11254025, -69.42414093, 88.00203705, -33.19227600, -7.90294075, 0.70139611, -0.64999139, 0.25084519, -0.15043788, -0.30701816, 0.31886798, 0.00325695, 99.95700836, 114.50210571, 29.05999947, 0.00000000
1, 3.4850, 244, -0.25707397, -1.18339348, -0.05373094, -58.02495956, 25.66152191, 115.14228058, -60.18708038, 15.81408882, -69.89184570, 87.61331940, -33.76312256, -7.72165346, 0.70254868, -0.64678240, 0.25369731, -0.15406348, -0.29647115, 0.35141498, 0.01789877, 99.95700836, 114.50210571, 29.05999947, 0.00000000
1, 3.4900, 245, -0.27228040, -1.22763729, -0.07521065, -58.33664703, 28.61396027, 118.30121613, -60.18708038, 15.81408882, -69.89184570, 87.20777893, -34.34800339, -7.51569366, 0.70369744, -0.64348781, 0.25654128, -0.15786073, -0.28963265, 0.40160188, 0.03371431, 99.95700836, 114.50210571, 29.05999947, 0.00000000
1, 3.4950, 246, -0.28746620, -1.27399695, -0.08731666, -59.45741272, 33.84930801, 121.84033203, -60.18708038, 15.81408882, -69.89184570, 86.77236176, -34.94786835, -7.27012682, 0.70488673, -0.64006001, 0.25932202, -0.16189532, -0.28299040, 0.45417708, 0.03987350, 99.95700836, 114.50210571, 29.05999947, 0.00000000
1, 3.5000, 247, -0.27604640, -1.31517076, -0.07650640, -60.50612640, 41.94242477, 125.34149170, -61.32709503, 15.87255192, -70.33031464, 86.29586029, -35.56108856, -6.96609974, 0.70614475, -0.63647872, 0.26194847, -0.16624551, -0.30314901, 0.50183499, 0.02274119, 99.95700836, 114.50210571, 29.05999947, 0.00000000
1, 3.5050, 248, -0.24307747, -1.36252511, -0.07196420, -61.27537155, 50.45578766, 128.84910583, -61.32709503, 15.87255192, -70.33031464, 85.77604675, -36.18660736, -6.59920263, 0.70746630, -0.63274550, 0.26440388, -0.17092428, -0.34494886, 0.55599260, 0.01142804, 99.95700836, 114.50210571, 29.05999947, 0.00000000
1, 3.7100, 249, -0.65322864, 0.08009631, -0.02072213, 9.21519184, 47.72891617, -55.71655273, -70.76878357, 24.26191139, -80.47354126, 62.64158630, -50.31227493, 10.36372662, 0.75012743, -0.50139940, 0.31915805, -0.28990656, -0.11728859, -0.64619625, -0.27354372, 99.95700836, 114.50210571, 29.05999947, 0.00000000
1, 3.7150, 250, -0.53039664, 0.14339349, -0.02054193, 22.24124908, 57.36480331, -62.17240143, -70.76878357, 24.26191139, -80.47354126, 62.61923599, -49.90392303, 10.53678894, 0.75122446, -0.50226229, 0.31563872, -0.28942490, -0.23569845, -0.71404123, -0.27607620, 99.95700836, 114.50210571, 29.05999947, 0.00000000
1, 3.7200, 251, -0.44433886, 0.15144196, -0.03621735, 33.20426178, 63.74334335, -70.08172607, -70.76878357, 24.26191139, -80.47354126, 62.63317871, -49.46429062, 10.73002052, 0.75221431, -0.50344110, 0.31171638, -0.28905663, -0.31679952, -0.72726691, -0.26277691, 99.95700836, 114.50210571, 29.05999947, 0.00000000
1, 3.7250, 252, -0.36277360, 0.13817501, -0.10126148, 39.11780167, 66.79978180, -79.26780701, -70.73954773, 24.81730461, -80.23969269, 62.69604874, -48.95820999, 10.90399551, 0.75325984, -0.50495267, 0.30728784, -0.28843862, -0.39268428, -0.71985167, -0.20001034, 99.95700836, 114.50210571, 29.05999947, 0.00000000
1, 3.7300, 253, -0.26142949, 0.12075682, -0.16936886, 40.38582993, 62.40671158, -90.32495117, -70.73954773, 24.81730461, -80.23969269, 62.81765366, -48.41327286, 11.00937462, 0.75433952, -0.50669593, 0.30273753, -0.28736955, -0.48770005, -0.70913064, -0.13383472, 99.95700836, 114.50210571, 29.05999947, 0.00000000
1, 3.7350, 254, -0.12266459, 0.09542131, -0.22323807, 39.03942490, 50.23577118, -103.35691071, -70.68108368, 24.17421722, -81.73048401, 63.02573395, -47.83836746, 10.99027061, 0.75543141, -0.50870478, 0.29831010, -0.28557676, -0.61973274, -0.69126904, -0.08112310, 99.95700836, 114.50210571, 29.05999947, 0.00000000
1, 3.7400, 255, -0.03837356, 0.07433438, -0.24373686, 37.54004669, 37.95979691, -120.80599976, -70.68108368, 24.17421722, -81.73048401, 63.32599640, -47.21344376, 10.83563137, 0.75659102, -0.51102769, 0.29391149, -0.28290787, -0.69675684, -0.67872381, -0.06105658, 99.95700836, 114.50210571, 29.05999947, 0.00000000
1, 3.7450, 256, -0.01026347, 0.06810448, -0.28204080, 40.09035492, 14.70717430, -136.60534668, -70.68108368, 24.17421722, -81.73048401, 63.78072357, -46.56908798, 10.48496628, 0.75756365, -0.51390445, 0.28988832, -0.27922118, -0.71719122, -0.68190134, -0.02195452, 99.95700836, 114.50210571, 29.05999947, 0.00000000
1, 3.7500, 257, -0.02711754, 0.06447314, -0.31692547, 45.28245544, 9.68568611, -146.18510437, -70.30107880, 23.47266769, -81.52587128, 64.29531097, -45.89067459, 10.08336830, 0.75844145, -0.51711315, 0.28574169, -0.27515841, -0.69218552, -0.68846858, 0.01457444, 99.95700836, 114.50210571, 29.05999947, 0.00000000
1, 3.7550, 258, -0.07526650, 0.05954577, -0.35707822, 51.59490204, 6.79805756, -152.81893921, -70.30107880, 23.47266769, -81.52587128, 64.85582733, -45.18590164, 9.65679932, 0.75918525, -0.52062356, 0.28145197, -0.27087593, -0.63541949, -0.69424081, 0.05687070, 99.95700836, 114.50210571, 29.05999947, 0.00000000
1, 4.0900, 259, 0.69336069, -0.92530572, 0.49629790, -51.40061951, -76.27875519, 122.79329681, -39.52060699, 10.66939449, -59.36860657, 107.75016785, 3.73773384, -2.88637733, 0.58838403, -0.80753195, 0.00111224, 0.04117381, -0.62746066, -0.02537722, -0.19074032, 99.95700836, 114.50210571, 29.05999947, 0.00000000
1, 4.0950, 260, 0.85998845, -0.89587188, -0.01010966, -39.77318192, -65.61864471, 103.55056000, -39.63753128, 8.27243519, -59.57322311, 107.52353668, 3.34246922, -3.35629749, 0.58995050, -0.80638188, 0.00637728, 0.04081723, -0.80000448, -0.05572027, 0.31218293, 99.95700836, 114.50210571, 29.05999947, 0.00000000
1, 4.1000, 261, 1.03981543, -1.00470817, -0.28026262, -24.05213356, -54.98443985, 85.41183472, -39.63753128, 8.27243519, -59.57322311, 107.38273621, 3.01656914, -3.74678993, 0.59091997, -0.80563867, 0.01075707, 0.04055036, -0.98516798, 0.05238589, 0.58002543, 99.95700836, 114.50210571, 29.05999947, 0.00000000
1, 4.1050, 262, 1.09841371, -1.27335620, -0.06623904, -14.66384315, -84.14131927, 72.81982422, -39.63753128, 8.27243519, -59.57322311, 107.28455353, 2.79331231, -4.25721359, 0.59151089, -0.80507314, 0.01546380, 0.04162800, -1.04865885, 0.31992036, 0.36402851, 99.95700836, 114.50210571, 29.05999947, 0.00000000
1, 4.1100, 263, 1.02143395, -1.53418839, 0.20852509, -13.61484528, -113.42085266, 66.74559021, -40.30984879, 10.28938866, -59.16398621, 107.18695068, 2.64139605, -4.89825869, 0.59201849, -0.80446184, 0.02071594, 0.04388844, -0.97524667, 0.57967007, 0.08708130, 99.95700836, 114.50210571, 29.05999947, 0.00000000
1, 4.1150, 264, 0.97496635, -1.67522359, 0.25332820, -18.98774338, -116.49879456, 65.33853912, -40.30984879, 10.28938866, -59.16398621, 107.06349182, 2.49944973, -5.55163002, 0.59268951, -0.80367929, 0.02598777, 0.04629653, -0.93136269, 0.71993470, 0.04005583, 99.95700836, 114.50210571, 29.05999947, 0.00000000
1, 4.1200, 265, 0.96858042, -1.69040203, -0.00803841, -30.22015381, -113.74612427, 67.08943176, -39.87138367, 10.14323330, -58.78398132, 106.88256073, 2.34874225, -6.19382048, 0.59376234, -0.80256462, 0.03119617, 0.04861167, -0.92692888, 0.73459113, 0.29865712, 99.95700836, 114.50210571, 29.05999947, 0.00000000
1, 4.1250, 266, 0.82627451, -1.75530040, -0.34982267, -36.11844635, -127.31138611, 74.37739563, -39.87138367, 10.14323330, -58.78398132, 106.67458344, 2.17482138, -6.91103983, 0.59499294, -0.80124474, 0.03702956, 0.05117870, -0.78668225, 0.79890478, 0.63659728, 99.95700836, 114.50210571, 29.05999947, 0.00000000
1, 4.2400, 267, -0.00680123, -1.04154837, 0.13061275, -44.14292145, 25.96680832, 81.04232788, -42.06372452, 10.81555080, -60.88862991, 101.65342712, -7.99743605, -16.33857346, 0.63141817, -0.75924492, 0.15349381, 0.03602841, -0.13093743, 0.07142359, 0.06863780, 99.95700836, 114.50210571, 29.05999947, 0.00000000
1, 4.2450, 268, 0.03213121, -1.02192235, 0.06897264, -40.66726685, 16.56708908, 74.78012085, -42.58988571, 8.18474102, -60.77170181, 101.45006561, -8.38083553, -16.33169174, 0.63298404, -0.75764924, 0.15544903, 0.03368406, -0.17646545, 0.05211566, 0.12669356, 99.95700836, 114.50210571, 29.05999947, 0.00000000
1, 4.2500, 269, 0.04085949, -0.92986643, -0.21109550, -36.85431671, 24.06230164, 71.51016998, -42.58988571, 8.18474102, -60.77170181, 101.25942993, -8.75543118, -16.28303909, 0.63446146, -0.75618130, 0.15709178, 0.03115676, -0.19092000, -0.03920039, 0.40348357, 99.95700836, 114.50210571, 29.05999947, 0.00000000
1, 4.2550, 270, 0.04687986, -0.86544716, 0.01540717, -20.03974724, -1.19997609, 73.56826019, -43.37912750, 10.28938866, -61.38555908, 101.17234802, -9.11548996, -16.36085129, 0.63520509, -0.75512195, 0.15952292, 0.02928969, -0.20385259, -0.10342877, 0.17486626, 99.95700836, 114.50210571, 29.05999947, 0.00000000
1, 4.2600, 271, -0.12843500, -0.99355781, 0.19495796, -16.82561493, -55.48228836, 72.37371063, -43.37912750, 10.28938866, -61.38555908, 101.14495850, -9.41759586, -16.70713234, 0.63545507, -0.75407934, 0.16342388, 0.02921987, -0.03442957, 0.02514474, -0.00603866, 99.95700836, 114.50210571, 29.05999947, 0.00000000
1, 4.2650, 272, -0.36654490, -1.00687897, -0.03948691, -22.64554024, -71.71751404, 70.41338348, -43.37912750, 10.28938866, -61.38555908, 101.10320282, -9.69481659, -17.13239670, 0.63576758, -0.75285411, 0.16770127, 0.02977858, 0.19942030, 0.03951092, 0.22696072, 99.95700836, 114.50210571, 29.05999947, 0.00000000
1, 4.2700, 273, -0.53808779, -1.02955115, -0.21134266, -21.22550583, -57.42620087, 67.58123779, -43.26220322, 10.90324497, -61.12247849, 101.03866577, -9.98998737, -17.47977829, 0.63625997, -0.75156766, 0.17155173, 0.02982232, 0.36648369, 0.06311838, 0.39729324, 99.95700836, 114.50210571, 29.05999947, 0.00000000
1, 4.2750, 274, -0.65540773, -1.00332344, -0.15485366, -16.41264725, -44.00587082, 65.98209381, -43.26220322, 10.90324497, -61.12247849, 101.00718689, -10.27239513, -17.76280975, 0.63654649, -0.75055993, 0.17491560, 0.02954838, 0.47867239, 0.03751198, 0.33959457, 99.95700836, 114.50210571, 29.05999947, 0.00000000
1, 4.2800, 275, -0.73912275, -0.98220885, -0.02221878, -13.60671711, -38.22403717, 64.08621216, -43.11604691, 10.64016342, -61.53171539, 100.98558044, -10.55106831, -18.01528168, 0.63677520, -0.74964327, 0.17805804, 0.02911659, 0.55724782, 0.01697043, 0.20625237, 99.95700836, 114.50210571, 29.05999947, 0.00000000
1, 4.2850, 276, -0.78140271, -0.92457044, -0.01650349, -13.96999645, -29.38436508, 61.35715103, -43.11604691, 10.64016342, -61.53171539, 100.95464325, -10.82478046, -18.22105217, 0.63707477, -0.74874133, 0.18086289, 0.02847465, 0.59480184, -0.03990360, 0.19987631, 99.95700836, 114.50210571, 29.05999947, 0.00000000
1, 4.3350, 277, -0.15071864, -0.95308137, 0.14134367, -16.24201012, 52.46551895, 34.48905563, -45.19146347, 10.96170712, -62.55480957, 99.96241760, -13.32521152, -16.81331825, 0.64482403, -0.74158096, 0.18501252, 0.00547692, -0.07920992, -0.00566904, 0.02565673, 99.95700836, 114.50210571, 29.05999947, 0.00000000
1, 4.3400, 278, -0.10786887, -0.95028675, 0.12048250, -16.03744888, 44.35350800, 34.39825058, -45.19146347, 10.96170712, -62.55480957, 99.83747864, -13.53265667, -16.61878967, 0.64570493, -0.74086297, 0.18487053, 0.00320174, -0.12556082, -0.00797058, 0.04435039, 99.95700836, 114.50210571, 29.05999947, 0.00000000
1, 4.3450, 279, -0.11685079, -0.94985187, 0.10150717, -14.95919991, 37.59944534, 34.64416504, -45.98070526, 10.64016342, -62.32095718, 99.72524261, -13.73523331, -16.45813560, 0.64649248, -0.74016792, 0.18492623, 0.00112905, -0.11998661, -0.00788626, 0.06122880, 99.95700836, 114.50210571, 29.05999947, 0.00000000
1, 4.3500, 280, -0.18889315, -0.95985723, 0.09911675, -14.14151192, 31.75404358, 34.66968918, -45.98070526, 10.64016342, -62.32095718, 99.62353516, -13.93276119, -16.32664680, 0.64720333, -0.73949176, 0.18514693, -0.00076242, -0.05130987, 0.00264164, 0.06154832, 99.95700836, 114.50210571, 29.05999947, 0.00000000
1, 4.3550, 281, -0.26723880, -0.96343267, 0.11418711, -13.85582924, 28.72538757, 34.69902039, -46.68225479, 10.99093819, -62.70096207, 99.52642059, -14.12771797, -16.21010971, 0.64787769, -0.73882014, 0.18545339, -0.00255944, 0.02369097, 0.00672792, 0.04450640, 99.95700836, 114.50210571, 29.05999947, 0.00000000
1, 4.3600, 282, -0.33939889, -0.96813416, 0.16760637, -13.79543495, 23.58618927, 34.04997635, -46.68225479, 10.99093819, -62.70096207, 99.43543243, -14.31509304, -16.11876106, 0.64850593, -0.73815304, 0.18588382, -0.00417303, 0.09250897, 0.01188299, -0.01077542, 99.95700836, 114.50210571, 29.05999947, 0.00000000
1, 4.3650, 283, -0.36666971, -0.95318699, 0.17084737, -15.01396751, 21.25792885, 33.37905121, -46.68225479, 10.99093819, -62.70096207, 99.34077454, -14.49714470, -16.03832054, 0.64915240, -0.73745477, 0.18635829, -0.00568294, 0.11667529, -0.00254677, -0.01575373, 99.95700836, 114.50210571, 29.05999947, 0.00000000
1, 4.3700, 284, -0.37865812, -0.93673825, 0.15189533, -14.50604153, 20.39548111, 33.21182251, -46.53609848, 10.23092651, -62.96404648, 99.24903107, -14.69406128, -15.96191883, 0.64977914, -0.73674089, 0.18694177, -0.00727250, 0.12551868, -0.01840089, 0.00151366, 99.95700836, 114.50210571, 29.05999947, 0.00000000
1, 4.3750, 285, -0.38438696, -0.94131410, 0.13785198, -13.90391731, 23.41058731, 32.61002731, -46.53609848, 10.23092651, -62.96404648, 99.15623474, -14.87374783, -15.86909771, 0.65040338, -0.73607433, 0.18732865, -0.00883847, 0.12810789, -0.01322678, 0.01386962, 99.95700836, 114.50210571, 29.05999947, 0.00000000
1, 4.3800, 286, -0.36730501, -0.94437850, 0.14374885, -13.71946621, 28.61600113, 32.03070831, -47.06226349, 10.93247604, -63.69482422, 99.05696869, -15.05450153, -15.74881458, 0.65106213, -0.73541301, 0.18754821, -0.01055637, 0.10796951, -0.00963310, 0.00625681, 99.95700836, 114.50210571, 29.05999947, 0.00000000
1, 4.4650, 287, -0.04467116, -0.96184981, 0.14082032, -21.51086998, 22.46571732, 43.19999695, -50.01461411, 12.13095570, -64.10406494, 97.08040619, -18.48639488, -13.39366245, 0.66307658, -0.72224063, 0.19188301, -0.04334645, -0.27181718, 0.02020781, -0.02501135, 99.95700836, 114.50210571, 29.05999947, 0.00000000
1, 4.4700, 288, -0.07763585, -0.93771648, 0.16831748, -22.02493668, 12.61200714, 45.77584839, -50.57000732, 11.83864307, -64.68869019, 96.96601868, -18.69515800, -13.35888290, 0.66374695, -0.72127914, 0.19286515, -0.04471606, -0.24256179, -0.00300690, -0.05470442, 99.95700836, 114.50210571, 29.05999947, 0.00000000
1, 4.4750, 289, -0.11916354, -0.92838609, 0.16153188, -22.26490784, 6.33750629, 47.34690475, -50.57000732, 11.83864307, -64.68869019, 96.85414886, -18.93426132, -13.35535717, 0.66440368, -0.72022450, 0.19421357, -0.04610407, -0.20473240, -0.01129400, -0.04997410, 99.95700836, 114.50210571, 29.05999947, 0.00000000
1, 4.4800, 290, -0.16696106, -0.92322087, 0.15334807, -22.21893692, 2.88703990, 48.91153336, -50.21923447, 11.75094986, -65.36100769, 96.74857330, -19.17910576, -13.37044430, 0.66502303, -0.71916091, 0.19571015, -0.04742932, -0.16092971, -0.01528272, -0.04381327, 99.95700836, 114.50210571, 29.05999947, 0.00000000
1, 4.4850, 291, -0.21617062, -0.92032683, 0.14791825, -22.44336891, 1.17896771, 50.34586716, -50.21923447, 11.75094986, -65.36100769, 96.64509583, -19.43011665, -13.39494896, 0.66562778, -0.71807837, 0.19730067, -0.04874064, -0.11581884, -0.01694330, -0.04037271, 99.95700836, 114.50210571, 29.05999947, 0.00000000
1, 4.4900, 292, -0.26252252, -0.91793239, 0.14180090, -22.68088341, 0.55080372, 51.77105331, -50.21923447, 11.75094986, -65.36100769, 96.54176331, -19.68790436, -13.42317104, 0.66622776, -0.71697354, 0.19895341, -0.05007146, -0.07366458, -0.01804138, -0.03622088, 99.95700836, 114.50210571, 29.05999947, 0.00000000
1, 4.4950, 293, -0.29862773, -0.91085637, 0.13264443, -23.12510681, 2.22844791, 52.83320999, -50.74539566, 12.39403629, -65.09792328, 96.43341827, -19.95194817, -13.44270611, 0.66684955, -0.71583867, 0.20059018, -0.05148148, -0.04184695, -0.02376358, -0.02906177, 99.95700836, 114.50210571, 29.05999947, 0.00000000
1, 4.5000, 294, -0.31510711, -0.90065777, 0.12117671, -23.66358948, 5.82077932, 53.90715027, -50.74539566, 12.39403629, -65.09792328, 96.31597900, -20.22334099, -13.44333267, 0.66751289, -0.71466607, 0.20215575, -0.05302989, -0.02976179, -0.03255203, -0.01967148, 99.95700836, 114.50210571, 29.05999947, 0.00000000
1, 4.5050, 295, -0.30454728, -0.89170158, 0.12976298, -24.21065712, 10.14242744, 55.06868744, -51.62233353, 9.85092068, -65.30254364, 96.18786621, -20.50283051, -13.42109585, 0.66822392, -0.71345252, 0.20363124, -0.05474157, -0.04488099, -0.04007895, -0.03044244, 99.95700836, 114.50210571, 29.05999947, 0.00000000
1, 4.5100, 296, -0.27064213, -0.89096749, 0.14412330, -25.06752968, 13.65561581, 56.42521286, -51.62233353, 9.85092068, -65.30254364, 96.04880524, -20.79086304, -13.38020706, 0.66898477, -0.71218848, 0.20504688, -0.05659415, -0.08349378, -0.03933156, -0.04711993, 99.95700836, 114.50210571, 29.05999947, 0.00000000
1, 4.5500, 297, -0.18978381, -0.97130024, 0.18290506, -31.97247505, 7.78588247, 67.83526611, -52.93773651, 12.80327415, -66.17948151, 94.76002502, -23.32683372, -12.99306488, 0.67572480, -0.70055091, 0.21754993, -0.07277678, -0.20527202, 0.05537017, -0.10806414, 99.95700836, 114.50210571, 29.05999947, 0.00000000
1, 4.5550, 298, -0.19632998, -0.97720683, 0.16088031, -33.54064560, 5.56427240, 69.87036133, -53.05466080, 10.61093235, -66.32563782, 94.59328461, -23.67770386, -12.99330711, 0.67657268, -0.69888121, 0.21962526, -0.07469544, -0.20425311, 0.06350386, -0.08890702, 99.95700836, 114.50210571, 29.05999947, 0.00000000
1, 4.5600, 299, -0.19977514, -0.96683061, 0.14536388, -34.79254913, 6.55491495, 71.69756317, -53.05466080, 10.61093235, -66.32563782, 94.41796875, -24.03807068, -12.98775959, 0.67745411, -0.69714552, 0.22172835, -0.07668550, -0.20648818, 0.05544471, -0.07633427, 99.95700836, 114.50210571, 29.05999947, 0.00000000
1, 4.5650, 300, -0.19394337, -0.95683348, 0.16880842, -35.85222244, 9.25809669, 73.35283661, -53.05466080, 10.61093235, -66.32563782, 94.23102570, -24.40769196, -12.96684074, 0.67837989, -0.69534481, 0.22380257, -0.07879562, -0.21822831, 0.04779887, -0.10287222, 99.95700836, 114.50210571, 29.05999947, 0.00000000
1, 4.5700, 301, -0.17954251, -0.95303524, 0.21062952, -37.03153610, 10.08033276, 74.96479034, -53.84390640, 12.74481106, -66.93949127, 94.04844666, -24.76703072, -12.94612789, 0.67927319, -0.69358271, 0.22582257, -0.08084045, -0.23855653, 0.04636158, -0.14780751, 99.95700836, 114.50210571, 29.05999947, 0.00000000
1, 4.5750, 302, -0.14632125, -0.96946788, 0.23558648, -38.85837936, 8.68941689, 77.12812805, -53.84390640, 12.74481106, -66.93949127, 93.84703827, -25.15519333, -12.92693901, 0.68025291, -0.69163996, 0.22803266, -0.08301411, -0.27778941, 0.06529132, -0.17595866, 99.95700836, 114.50210571, 29.05999947, 0.00000000
1, 4.5800, 303, -0.13435924, -0.97879469, 0.23445114, -40.50793457, 7.27278233, 78.97312927, -54.31160355, 12.92019844, -66.67640686, 93.64022064, -25.55208206, -12.91464043, 0.68125153, -0.68962485, 0.23034325, -0.08518247, -0.29597771, 0.07733785, -0.17823283, 99.95700836, 114.50210571, 29.05999947, 0.00000000
1, 4.5850, 304, -0.13115782, -0.99784684, 0.22956808, -42.14743042, 5.20956993, 81.64384460, -54.31160355, 12.92019844, -66.67640686, 93.42979431, -25.96164513, -12.91301060, 0.68225801, -0.68753111, 0.23279803, -0.08735072, -0.30556750, 0.09925909, -0.17686875, 99.95700836, 114.50210571, 29.05999947, 0.00000000
1, 4.5900, 305, -0.15817529, -1.01173460, 0.23144753, -43.37168884, 4.06019211, 84.12073517, -54.31160355, 12.92019844, -66.67640686, 93.21569061, -26.38326073, -12.91686249, 0.68326855, -0.68536884, 0.23536214, -0.08954466, -0.28511631, 0.11615194, -0.18235582, 99.95700836, 114.50210571, 29.05999947, 0.00000000
1, 4.5950, 306, -0.17580490, -1.02131629, 0.22791414, -44.96027374, 3.60632753, 86.51368713, -54.60391617, 13.59251690, -66.93949127, 92.99433136, -26.81675339, -12.92217636, 0.68430054, -0.68312442, 0.23801355, -0.09177886, -0.27420259, 0.12889692, -0.18249039, 99.95700836, 114.50210571, 29.05999947, 0.00000000
1, 4.7050, 307, -0.23603137, -1.84670782, 0.20848754, -61.75820923, 53.00808334, 145.81123352, -60.65477753, 17.07103157, -70.50569916, 85.74289703, -39.52497101, -10.96305656, 0.70853800, -0.61368495, 0.30783316, -0.16310586, -0.39850956, 1.07504344, -0.26757526, 99.95700836, 114.50210571, 29.05999947, 0.00000000
1, 4.7100, 308, -0.24999310, -1.94363809, 0.25095880, -61.47269440, 59.42396164, 148.55439758, -60.65477753, 17.07103157, -70.50569916, 85.13948822, -40.24192047, -10.49853802, 0.70989835, -0.60935795, 0.31039399, -0.16847242, -0.39425653, 1.18046618, -0.31755608, 99.95700836, 114.50210571, 29.05999947, 0.00000000
1, 4.7150, 309, -0.24156675, -2.05315256, 0.31297106, -61.76461029, 72.41763306, 151.32147217, -62.14557266, 18.56182289, -71.44110107, 84.46353149, -40.96265793, -9.93166351, 0.71138084, -0.60485351, 0.31260920, -0.17425577, -0.41240680, 1.29876184, -0.38768035, 99.95700836, 114.50210571, 29.05999947, 0.00000000
1, 4.7200, 310, -0.19192992, -2.15987492, 0.37563169, -63.02601624, 91.61457062, 152.14561462, -62.14557266, 18.56182289, -71.44110107, 83.68256378, -41.66731644, -9.22081852, 0.71310264, -0.60013926, 0.31421807, -0.18051203, -0.47154319, 1.41449451, -0.45943791, 99.95700836, 114.50210571, 29.05999947, 0.00000000
1, 4.7250, 311, -0.09217626, -2.25626755, 0.45254618, -65.44982147, 112.44347382, 151.30589294, -62.14557266, 18.56182289, -71.44110107, 82.77279663, -42.35200119, -8.34778214, 0.71513349, -0.59512961, 0.31517395, -0.18727046, -0.58045363, 1.52003527, -0.54665577, 99.95700836, 114.50210571, 29.05999947, 0.00000000
1, 4.7300, 312, 0.04039558, -2.31051755, 0.48128635, -68.90980530, 133.27005005, 148.72671509, -63.11020279, 19.73107338, -72.58111572, 81.72771454, -42.99857712, -7.31176376, 0.71750456, -0.58982962, 0.31541547, -0.19442560, -0.72154719, 1.58361614, -0.58704513, 99.95700836, 114.50210571, 29.05999947, 0.00000000
1, 4.7350, 313, 0.15775445, -2.29636836, 0.45111015, -71.17308807, 151.90853882, 144.85330200, -63.11020279, 19.73107338, -72.58111572, 80.56027222, -43.59672546, -6.12588835, 0.72015953, -0.58430153, 0.31496441, -0.20188954, -0.84660816, 1.57888722, -0.56981146, 99.95700836, 114.50210571, 29.05999947, 0.00000000
1, 4.7400, 314, 0.26318276, -2.25728774, 0.37851948, -70.63780975, 162.50628662, 140.29693604, -65.15638733, 20.43262100, -74.51037598, 79.32083893, -44.14487076, -4.84471941, 0.72291815, -0.57870394, 0.31402937, -0.20946792, -0.95892704, 1.54920435, -0.51094335, 99.95700836, 114.50210571, 29.05999947, 0.00000000
1, 4.7450, 315, 0.24153689, -2.14029121, 0.27375144, -75.14344788, 172.23197937, 135.43345642, -65.15638733, 20.43262100, -74.51037598, 77.98876953, -44.63874054, -3.47531056, 0.72589612, -0.57288420, 0.31267470, -0.21705563, -0.94334072, 1.44156075, -0.42095715, 99.95700836, 114.50210571, 29.05999947, 0.00000000
1, 4.7500, 316, 0.31606129, -1.93642509, 0.31046721, -71.38379669, 204.16816711, 129.69721985, -65.15638733, 20.43262100, -74.51037598, 76.49997711, -45.04483414, -1.86797369, 0.72919005, -0.56689590, 0.31009346, -0.22528438, -1.02328372, 1.24666083, -0.47361448, 99.95700836, 114.50210571, 29.05999947, 0.00000000
1, 4.8350, 317, -0.78877443, -0.16406605, -0.02966619, -31.46154213, -20.04800987, 0.91670239, -70.94416809, 25.16807938, -80.64893341, 64.06179047, -50.59589005, 9.54671001, 0.74494189, -0.50799513, 0.32111156, -0.28963768, 0.01619912, -0.40686542, -0.25005242, 99.95700836, 114.50210571, 29.05999947, 0.00000000
1, 4.8400, 318, -0.86531270, -0.07057939, -0.23956671, -42.66374207, 2.16793299, -17.44450760, -70.53492737, 23.67728615, -80.85355377, 63.88285828, -50.51325989, 9.50191784, 0.74613613, -0.50682211, 0.32119659, -0.28852227, 0.09381971, -0.49991798, -0.04192834, 99.95700836, 114.50210571, 29.05999947, 0.00000000
1, 4.8450, 319, -1.04645050, 0.06879506, -0.57778525, -51.83968353, 19.93903542, -29.80331993, -70.53492737, 23.67728615, -80.85355377, 63.59490967, -50.33604431, 9.53872967, 0.74793410, -0.50529599, 0.32054445, -0.28726619, 0.27754387, -0.63933396, 0.29248884, 99.95700836, 114.50210571, 29.05999947, 0.00000000
1, 4.8500, 320, -1.25059664, 0.17580640, -0.82897276, -51.30017853, 24.05024719, -35.49580383, -70.53492737, 23.67728615, -80.85355377, 63.30413437, -50.12406540, 9.58275127, 0.74984318, -0.50381136, 0.31962365, -0.28591961, 0.48462218, -0.74693835, 0.53912985, 99.95700836, 114.50210571, 29.05999947, 0.00000000
1, 4.8550, 321, -1.46555972, 0.15039209, -0.78089923, -40.10316849, 15.50417423, -36.78844833, -70.71031952, 25.43115997, -81.46740723, 63.11962509, -49.92539597, 9.56125450, 0.75139803, -0.50281405, 0.31881189, -0.28449640, 0.70175457, -0.72294867, 0.48707008, 99.95700836, 114.50210571, 29.05999947, 0.00000000
1, 4.8600, 322, -1.44406343, 0.07383042, -0.60802317, -28.17702293, 0.08622377, -35.94071960, -70.71031952, 25.43115997, -81.46740723, 63.07431793, -49.76544952, 9.43556690, 0.75246227, -0.50238472, 0.31837478, -0.28292716, 0.68180019, -0.64828157, 0.31212404, 99.95700836, 114.50210571, 29.05999947, 0.00000000
1, 4.8650, 323, -1.29386377, -0.06912395, -0.27104917, -11.58892441, -24.28688240, -34.73485184, -70.18415833, 23.50189972, -81.26278687, 63.23638535, -49.66578293, 9.14655304, 0.75280660, -0.50278234, 0.31855783, -0.28109264, 0.53199166, -0.50781775, -0.02409495, 99.95700836, 114.50210571, 29.05999947, 0.00000000
1, 4.8700, 324, -1.12094080, -0.13382624, -0.09242374, -0.90613991, -28.33194160, -35.07241440, -70.18415833, 23.50189972, -81.26278687, 63.47404861, -49.64716339, 8.82707500, 0.75260866, -0.50348026, 0.31925121, -0.27958286, 0.35924065, -0.44520003, -0.20044717, 99.95700836, 114.50210571, 29.05999947, 0.00000000
1, 4.8750, 325, -0.93959224, -0.11431061, -0.05163160, 5.87797070, -19.32835770, -37.71329498, -70.18415833, 23.50189972, -81.26278687, 63.70341873, -49.52147675, 8.56381702, 0.75266993, -0.50443113, 0.31898877, -0.27799913, 0.17867729, -0.46689743, -0.23884356, 99.95700836, 114.50210571, 29.05999947, 0.00000000
1, 4.8800, 326, -0.78330654, -0.01935677, 0.01983448, 13.66261578, 0.37961999, -43.37161255, -70.33031464, 24.26191139, -81.20432281, 63.88153076, -49.32609177, 8.41859436, 0.75290072, -0.50547588, 0.31785816, -0.27676862, 0.02420817, -0.56503093, -0.30882567, 99.95700836, 114.50210571, 29.05999947, 0.00000000
1, 5.1050, 327, 0.55692106, -1.64321029, -0.33802807, 220.25935364, -88.51248169, -249.35490417, -46.44840622, 8.18474102, -65.82870483, 98.86292267, -4.51515722, -2.17673755, 0.65030378, -0.75841522, 0.04003178, -0.01757425, -0.64043450, 0.65851331, 0.48542786, 99.95700836, 114.50210571, 29.05999947, 0.00000000
1, 5.1100, 328, 0.24875025, -1.76354933, -0.24955130, 214.30961609, -120.27117157, -237.24209595, -46.44840622, 8.18474102, -65.82870483, 99.95864868, -3.24455047, -2.57858419, 0.64313161, -0.76490188, 0.03542494, -0.00721139, -0.31022692, 0.78014362, 0.41522151, 99.95700836, 114.50210571, 29.05999947, 0.00000000
1, 5.1150, 329, -0.10878628, -1.74771941, -0.01102722, 206.37173462, -111.43748474, -226.37980652, -44.22683334, 8.38935947, -63.84098053, 101.00366974, -2.02838683, -2.92248487, 0.63609558, -0.77098584, 0.03092895, 0.00256355, 0.06818935, 0.76610458, 0.19418317, 99.95700836, 114.50210571, 29.05999947, 0.00000000
1, 5.1200, 330, -0.35915691, -1.64427328, 0.27474186, 199.58000183, -76.59529877, -214.63174438, -44.22683334, 8.38935947, -63.84098053, 102.00327301, -0.90135902, -3.08525896, 0.62921548, -0.77672487, 0.02586926, 0.01082986, 0.33793455, 0.66502297, -0.07463391, 99.95700836, 114.50210571, 29.05999947, 0.00000000
1, 5.1250, 331, -0.51634514, -1.52509117, 0.48039109, 193.02085876, -49.01794815, -201.97317505, -42.58988571, 9.29552746, -62.43788147, 102.96610260, 0.13982013, -3.10746932, 0.62249106, -0.78215617, 0.02045541, 0.01783974, 0.51312321, 0.54889393, -0.26385921, 99.95700836, 114.50210571, 29.05999947, 0.00000000
1, 5.1300, 332, -0.68168181, -1.42239153, 0.49627346, 186.09951782, -47.83230591, -191.37620544, -42.58988571, 9.29552746, -62.43788147, 103.89403534, 1.12834537, -3.11892509, 0.61592102, -0.78727633, 0.01536164, 0.02452454, 0.69585311, 0.45001036, -0.26410326, 99.95700836, 114.50210571, 29.05999947, 0.00000000
1, 5.1350, 333, -0.94573689, -1.43401825, 0.40330404, 181.24645996, -54.19657516, -186.24333191, -42.58988571, 9.29552746, -62.43788147, 104.79701996, 2.09977293, -3.15177226, 0.60943359, -0.79214847, 0.01060879, 0.03128861, 0.97712833, 0.46604416, -0.15655619, 99.95700836, 114.50210571, 29.05999947, 0.00000000
1, 5.1400, 334, -0.97779471, -1.48107314, 0.27448574, 161.55886841, -28.61086464, -183.91069031, -40.77754974, 9.79245853, -61.38555908, 105.60725403, 3.02663040, -3.04954600, 0.60356438, -0.79643309, 0.00522858, 0.03711025, 1.02590418, 0.51772648, -0.01396712, 99.95700836, 114.50210571, 29.05999947, 0.00000000
1, 5.1450, 335, -0.85614485, -1.48180580, 0.18434797, 149.37622070, -3.09339142, -181.85044861, -40.77754974, 9.79245853, -61.38555908, 106.36620331, 3.90702653, -2.81448984, 0.59806091, -0.80034965, -0.00077273, 0.04198999, 0.92004132, 0.52310920, 0.08915449, 99.95700836, 114.50210571, 29.05999947, 0.00000000
1, 5.1500, 336, -0.65102297, -1.43390071, 0.15655549, 140.01628113, 16.26851082, -176.25733948, -39.66676331, 10.02630806, -61.29786682, 107.08914948, 4.72974730, -2.48285341, 0.59283298, -0.80397671, -0.00710171, 0.04604340, 0.72956574, 0.47987711, 0.12943959, 99.95700836, 114.50210571, 29.05999947, 0.00000000
1, 5.2050, 337, 0.20320714, -1.15320504, 0.36571270, -0.27921489, 24.82119560, 39.72601700, -37.70827103, 11.63402462, -58.25782013, 111.38735962, 8.29833221, -0.40893432, 0.56192338, -0.82401121, -0.03783925, 0.06177211, -0.05872184, 0.23138008, -0.00625783, 99.95700836, 114.50210571, 29.05999947, 0.00000000
1, 5.2100, 338, 0.12747204, -1.14448261, 0.33442566, -11.02186584, 19.61693764, 55.44209671, -37.70827103, 11.63402462, -58.25782013, 111.33162689, 8.00428867, -0.41821754, 0.56242967, -0.82388628, -0.03635840, 0.05968609, 0.01227105, 0.22180296, 0.02444992, 99.95700836, 114.50210571, 29.05999947, 0.00000000
1, 5.2150, 339, 0.12275255, -1.13383389, 0.28769529, -20.10802269, 12.37458420, 69.58126831, -38.14673996, 11.10786343, -58.34551239, 111.22260284, 7.65730286, -0.48698786, 0.56330472, -0.82353586, -0.03421408, 0.05749702, 0.01133024, 0.20987898, 0.06992815, 99.95700836, 114.50210571, 29.05999947, 0.00000000
1, 5.2200, 340, 0.18442103, -1.12742746, 0.21982606, -28.13303185, 2.41737056, 82.55561066, -38.14673996, 11.10786343, -58.34551239, 111.05068207, 7.27148342, -0.62633753, 0.56460857, -0.82290113, -0.03139712, 0.05536310, -0.05670808, 0.20182146, 0.13581245, 99.95700836, 114.50210571, 29.05999947, 0.00000000
1, 5.2250, 341, 0.26504430, -1.12244964, 0.11711920, -36.32851791, -11.31421661, 94.53080750, -38.70213318, 11.42940617, -59.28091049, 110.84284210, 6.84949684, -0.84931397, 0.56614262, -0.82210678, -0.02781086, 0.05338228, -0.14422202, 0.19491787, 0.23577645, 99.95700836, 114.50210571, 29.05999947, 0.00000000
1, 5.2300, 342, 0.31687629, -1.13021493, 0.00611496, -44.52963257, -27.80246735, 105.24858093, -38.70213318, 11.42940617, -59.28091049, 110.58486176, 6.40539455, -1.16707861, 0.56800187, -0.82106608, -0.02344994, 0.05171523, -0.20338616, 0.20051666, 0.34323850, 99.95700836, 114.50210571, 29.05999947, 0.00000000
1, 5.2350, 343, 0.31438249, -1.14228654, -0.08681455, -53.21136093, -45.84904099, 115.40955353, -38.70213318, 11.42940617, -59.28091049, 110.27530670, 5.94335651, -1.58524680, 0.57019532, -0.81975561, -0.01829514, 0.05043063, -0.20860240, 0.21011892, 0.43162835, 99.95700836, 114.50210571, 29.05999947, 0.00000000
1, 5.2400, 344, 0.23398757, -1.15189743, -0.15787354, -62.15104294, -63.29107285, 124.95727539, -38.84828949, 11.22478771, -58.78398132, 109.91506958, 5.46376371, -2.09913969, 0.57272017, -0.81816018, -0.01238239, 0.04952142, -0.13627970, 0.21697362, 0.49709293, 99.95700836, 114.50210571, 29.05999947, 0.00000000
1, 5.2850, 345, 0.91090173, -1.74548542, 0.43456888, -6.88333797, -118.06900024, 62.51811218, -39.52060699, 10.87401295, -59.13475418, 108.00577545, 2.42275882, -8.31095028, 0.58482921, -0.80763966, 0.04622011, 0.05963938, -0.86918992, 0.79470813, -0.12605478, 99.95700836, 114.50210571, 29.05999947, 0.00000000
1, 5.2900, 346, 1.01918268, -1.88232005, 0.01490481, -14.98040771, -96.44876099, 58.57971954, -39.22829437, 9.47091484, -59.07629395, 107.90899658, 2.29176259, -8.86032486, 0.58530349, -0.80688179, 0.05071077, 0.06156448, -0.97865391, 0.93167531, 0.29224268, 99.95700836, 114.50210571, 29.05999947, 0.00000000
1, 5.2950, 347, 0.78351319, -2.04044127, -0.38479009, -24.66504669, -97.89070892, 61.50786591, -39.22829437, 9.47091484, -59.07629395, 107.76470947, 2.14774323, -9.42073250, 0.58610821, -0.80584568, 0.05531481, 0.06348445, -0.74443316, 1.08965206, 0.68892401, 99.95700836, 114.50210571, 29.05999947, 0.00000000
1, 5.3000, 348, 0.25064829, -1.87156999, -0.79853386, -30.39999199, -95.34883881, 69.70346069, -39.11137009, 11.60479355, -58.66705704, 107.59344482, 1.95919669, -9.98095417, 0.58712697, -0.80462837, 0.06012464, 0.06511661, -0.21359231, 0.92046559, 1.09887624, 99.95700836, 114.50210571, 29.05999947, 0.00000000
1, 5.3050, 349, -0.15602764, -1.54352343, -0.68597019, -32.77167511, -91.80617523, 76.58316040, -39.11137009, 11.60479355, -58.66705704, 107.41269684, 1.73079443, -10.53391457, 0.58824021, -0.80331969, 0.06507645, 0.06645214, 0.18902662, 0.59118855, 0.98294532, 99.95700836, 114.50210571, 29.05999947, 0.00000000
1, 5.3100, 350, -0.41141835, -1.11311543, -0.13529555, -42.33331299, -104.64537048, 87.15987396, -39.11137009, 11.60479355, -58.66705704, 107.18458557, 1.46877503, -11.16304874, 0.58966166, -0.80167216, 0.07070008, 0.06798939, 0.43854785, 0.15863903, 0.42881507, 99.95700836, 114.50210571, 29.05999947, 0.00000000
1, 5.3150, 351, -0.20906484, -0.87500405, 0.57431936, -60.98913574, -161.64904785, 101.63687134, -38.14673996, 11.16632557, -58.69628525, 106.85948944, 1.21714497, -12.08475590, 0.59156686, -0.79928589, 0.07824239, 0.07119655, 0.22990844, -0.08227202, -0.28484938, 99.95700836, 114.50210571, 29.05999947, 0.00000000
1, 5.3200, 352, -0.12161684, -0.61556888, 0.86655873, -69.99362946, -285.69113159, 123.40152740, -38.14673996, 11.16632557, -58.69628525, 106.49338531, 1.02824092, -13.63078499, 0.59326577, -0.79616261, 0.08974616, 0.07814477, 0.13820487, -0.34410208, -0.58255380, 99.95700836, 114.50210571, 29.05999947, 0.00000000
1, 5.3250, 353, -0.68048584, -0.58727062, 0.49755979, -45.60618591, -358.84011841, 146.86553955, -37.59134674, 11.19555664, -58.31628036, 106.23588562, 0.82500249, -15.55917072, 0.59385127, -0.79307491, 0.10398883, 0.08694406, 0.69460523, -0.37329930, -0.21979189, 99.95700836, 114.50210571, 29.05999947, 0.00000000
1, 5.3300, 354, -1.50740695, -1.07521510, 0.35594970, 3.46114945, -327.63809204, 161.98695374, -37.59134674, 11.19555664, -58.31628036, 106.23393250, 0.50186998, -17.35792160, 0.59277695, -0.79109246, 0.11809780, 0.09402850, 1.51686239, 0.11446632, -0.08221644, 99.95700836, 114.50210571, 29.05999947, 0.00000000
1, 5.3350, 355, -2.39631128, -2.08309460, 0.43866748, 48.62559509, -225.97172546, 166.99000549, -37.59134674, 11.19555664, -58.31628036, 106.47264862, 0.01693461, -18.67617798, 0.59056538, -0.79050887, 0.12990077, 0.09723190, 2.39777660, 1.12309647, -0.16559073, 99.95700836, 114.50210571, 29.05999947, 0.00000000
1, 5.3650, 356, -0.91253597, -0.34980547, -0.68255591, -88.36497498, 43.27755737, 101.64708710, -38.84828949, 11.40017509, -59.31014252, 104.56278992, -4.16223335, -19.27970123, 0.60755819, -0.77562076, 0.15427609, 0.07405850, 0.84395230, -0.61410427, 0.93224627, 99.95700836, 114.50210571, 29.05999947, 0.00000000
1, 5.3700, 357, -1.15810430, -0.14646614, -0.28043947, -58.92036819, 31.02278519, 97.40486145, -38.84828949, 11.40017509, -59.31014252, 104.26105499, -4.71927452, -19.24922180, 0.61014521, -0.77341413, 0.15678966, 0.07050243, 1.07914579, -0.81887901, 0.52403563, 99.95700836, 114.50210571, 29.05999947, 0.00000000
1, 5.3750, 358, -1.34894753, -0.18483369, 0.26219726, -37.93858719, 65.96227264, 94.64060211, -40.07600021, 10.55247021, -60.12861633, 104.05450439, -5.25881100, -19.04356384, 0.61215341, -0.77195489, 0.15810362, 0.06600943, 1.25904417, -0.78158092, -0.02315434, 99.95700836, 114.50210571, 29.05999947, 0.00000000
1, 5.3800, 359, -1.11821914, -0.43442324, 0.31535697, -31.77869606, 129.85551453, 93.49125671, -40.07600021, 10.55247021, -60.12861633, 103.84613037, -5.86849880, -18.52276993, 0.61436719, -0.77082241, 0.15768036, 0.05935328, 1.01790822, -0.53198504, -0.07980267, 99.95700836, 114.50210571, 29.05999947, 0.00000000
1, 5.3850, 360, -0.59100801, -0.71853423, -0.18235089, -32.83738327, 150.20951843, 95.53216553, -40.07600021, 10.55247021, -60.12861633, 103.61624908, -6.51019001, -17.90200615, 0.61672556, -0.76965797, 0.15676789, 0.05196182, 0.48084533, -0.24685989, 0.41464019, 99.95700836, 114.50210571, 29.05999947, 0.00000000
1, 5.3900, 361, -0.35614032, -0.88287592, -0.39893067, -32.28647614, 99.36585236, 98.16901398, -40.77754974, 10.58170128, -60.62554932, 103.41216278, -7.10338831, -17.53015137, 0.61869150, -0.76833642, 0.15730841, 0.04619761, 0.23595360, -0.08183205, 0.62765706, 99.95700836, 114.50210571, 29.05999947, 0.00000000
1, 5.3950, 362, -0.51949936, -0.96008909, -0.07025146, -33.20145798, 39.06512070, 95.16603088, -40.77754974, 10.58170128, -60.62554932, 103.23694611, -7.61173296, -17.44835854, 0.62025023, -0.76686418, 0.15937287, 0.04253867, 0.38931024, -0.00474753, 0.29514089, 99.95700836, 114.50210571, 29.05999947, 0.00000000
1, 5.4000, 363, -0.62896264, -1.00651789, 0.19440794, -38.45201874, 17.98419380, 84.81062317, -42.41449738, 11.02016926, -60.80093384, 103.04686737, -8.04560089, -17.45670509, 0.62180805, -0.76526594, 0.16165021, 0.03990092, 0.49032974, 0.04154638, 0.02678944, 99.95700836, 114.50210571, 29.05999947, 0.00000000
1, 5.4050, 364, -0.52891666, -1.03264511, 0.06994215, -38.58753204, 32.78598022, 74.61444092, -42.41449738, 11.02016926, -60.80093384, 102.84369659, -8.44622898, -17.37916374, 0.62344784, -0.76374865, 0.16318192, 0.03704732, 0.38356698, 0.06807431, 0.14784293, 99.95700836, 114.50210571, 29.05999947, 0.00000000
1, 5.4100, 365, -0.37218696, -1.08176804, -0.12763612, -32.74642944, 45.48433304, 68.60346985, -42.41449738, 11.02016926, -60.80093384, 102.65853119, -8.83112621, -17.23082542, 0.62496442, -0.76244199, 0.16417393, 0.03389312, 0.22061516, 0.11777052, 0.34227574, 99.95700836, 114.50210571, 29.05999947, 0.00000000
1, 5.6300, 366, -0.10137509, -0.93129694, 0.19591942, -21.08569336, 21.22330856, 50.17540741, -50.71616364, 11.48786926, -64.33791351, 98.42912292, -18.43519211, -13.71178150, 0.65466094, -0.72954893, 0.19310579, -0.04344745, -0.21425191, -0.00774187, -0.05805745, 99.95700836, 114.50210571, 29.05999947, 0.00000000
1, 5.6350, 367, -0.11409666, -0.92535663, 0.18374753, -22.25105476, 17.90547943, 51.58335114, -50.86231995, 11.48786926, -64.16252136, 98.30123901, -18.70357704, -13.65750694, 0.65541667, -0.72844565, 0.19427608, -0.04530777, -0.20592092, -0.01250774, -0.04821743, 99.95700836, 114.50210571, 29.05999947, 0.00000000
1, 5.6400, 368, -0.13141975, -0.92536783, 0.18167831, -22.95221519, 14.54528236, 53.47511292, -50.86231995, 11.48786926, -64.16252136, 98.17551422, -18.97884369, -13.62150383, 0.65615797, -0.72730809, 0.19560279, -0.04710953, -0.19311878, -0.01127075, -0.04847637, 99.95700836, 114.50210571, 29.05999947, 0.00000000
1, 5.6450, 369, -0.15998548, -0.91968322, 0.17058630, -23.91770363, 12.43848991, 55.29494858, -50.86231995, 11.48786926, -64.16252136, 98.04865265, -19.26158142, -13.59717941, 0.65690339, -0.72612667, 0.19704820, -0.04888823, -0.16915232, -0.01565120, -0.03973802, 99.95700836, 114.50210571, 29.05999947, 0.00000000
1, 5.6500, 370, -0.18259522, -0.91711259, 0.15279163, -24.75161934, 11.14190578, 56.78190994, -51.00847626, 10.58170128, -64.22098541, 97.91989899, -19.55075455, -13.58004665, 0.65765607, -0.72490591, 0.19857836, -0.05066114, -0.15123451, -0.01684151, -0.02431812, 99.95700836, 114.50210571, 29.05999947, 0.00000000
1, 5.6550, 371, -0.19088075, -0.92540932, 0.15046778, -25.73898697, 10.78305817, 58.32820892, -51.00847626, 10.58170128, -64.22098541, 97.78691864, -19.84732056, -13.56517792, 0.65842825, -0.72363883, 0.20016840, -0.05245835, -0.14778617, -0.00712748, -0.02441098, 99.95700836, 114.50210571, 29.05999947, 0.00000000
1, 5.6600, 372, -0.19014563, -0.93527365, 0.13921423, -27.26283264, 10.66395950, 59.85201645, -51.62233353, 12.21864891, -64.07482910, 97.64658356, -20.15135193, -13.55124378, 0.65923840, -0.72230893, 0.20181191, -0.05428204, -0.15345228, 0.00423023, -0.01566285, 99.95700836, 114.50210571, 29.05999947, 0.00000000
1, 5.6650, 373, -0.19160280, -0.93825865, 0.12166501, -28.67727089, 10.30381393, 61.29858017, -51.62233353, 12.21864891, -64.07482910, 97.49983978, -20.46229362, -13.53936386, 0.66008079, -0.72092032, 0.20351292, -0.05612332, -0.15701580, 0.00877883, -0.00072735, 99.95700836, 114.50210571, 29.05999947, 0.00000000
1, 5.7800, 374, -0.25908217, -1.09441423, 0.19618589, -54.74978638, 3.72389936, 110.19616699, -56.88395309, 14.35252857, -67.43642426, 92.67131805, -30.21541786, -12.92069721, 0.68355072, -0.67371249, 0.25738797, -0.11234535, -0.24256662, 0.22972703, -0.15726888, 99.95700836, 114.50210571, 29.05999947, 0.00000000
1, 5.7850, 375, -0.28905776, -1.09974396, 0.16781072, -55.69543457, 6.05491972, 112.89268494, -57.55627060, 15.11254025, -68.05027771, 92.39058685, -30.78134346, -12.91348839, 0.68468541, -0.67074960, 0.26079196, -0.11527555, -0.22098994, 0.23986924, -0.13337624, 99.95700836, 114.50210571, 29.05999947, 0.00000000
1, 5.7900, 376, -0.30609089, -1.10938632, 0.13013481, -56.51002884, 9.32621002, 115.64500427, -57.55627060, 15.11254025, -68.05027771, 92.09445190, -31.36159325, -12.88441753, 0.68584615, -0.66769409, 0.26417446, -0.11837099, -0.21249667, 0.25456533, -0.10033645, 99.95700836, 114.50210571, 29.05999947, 0.00000000
1, 5.7950, 377, -0.31273508, -1.12027466, 0.10060067, -57.20027542, 14.09471321, 118.46645355, -57.55627060, 15.11254025, -68.05027771, 91.77822113, -31.95659065, -12.82405758, 0.68704492, -0.66453922, 0.26749110, -0.12167807, -0.21457812, 0.27073073, -0.07565090, 99.95700836, 114.50210571, 29.05999947, 0.00000000
1, 5.8000, 378, -0.30717683, -1.14927197, 0.08105531, -57.96614456, 19.21317291, 121.19207001, -58.40397644, 15.55100822, -68.37181854, 91.43938446, -32.56559372, -12.72947025, 0.68828750, -0.66127998, 0.27072796, -0.12520209, -0.22903796, 0.30522901, -0.06122486, 99.95700836, 114.50210571, 29.05999947, 0.00000000
1, 5.8050, 379, -0.28229675, -1.21402228, 0.07525657, -58.94852829, 24.70095253, 124.41998291, -58.40397644, 15.55100822, -68.37181854, 91.07453156, -33.19078827, -12.59749222, 0.68958062, -0.65789950, 0.27388826, -0.12896533, -0.26301408, 0.37571764, -0.06086462, 99.95700836, 114.50210571, 29.05999947, 0.00000000
1, 5.8100, 380, -0.25918064, -1.25437295, 0.07255890, -59.50279999, 29.96139145, 127.11121368, -59.04706192, 15.98947620, -68.81028748, 90.68512726, -33.82905579, -12.42830372, 0.69091123, -0.65441549, 0.27695978, -0.13294883, -0.29537943, 0.42206895, -0.06383479, 99.95700836, 114.50210571, 29.05999947, 0.00000000
1, 5.8150, 381, -0.21651612, -1.32661152, 0.05768429, -60.56071091, 35.89270401, 130.70118713, -59.04706192, 15.98947620, -68.81028748, 90.26511383, -34.48448944, -12.21668053, 0.69229442, -0.65079576, 0.27994946, -0.13719207, -0.34744072, 0.50063258, -0.05504466, 99.95700836, 114.50210571, 29.05999947, 0.00000000
