SensorId, TimeStamp (s), FrameNumber, AccX (g), AccY (g), AccZ (g), GyroX (deg/s), GyroY (deg/s), GyroZ (deg/s), MagX (uT), MagY (uT), MagZ (uT), EulerX (deg), EulerY (deg), EulerZ (deg), QuatW, QuatX, QuatY, QuatZ, LinAccX (g), LinAccY (g), LinAccZ (g), Pressure (kPa), Altitude (m), Temperature (degC), HeaveMotion (m)
1, -0.0000, 0, -0.25176600, -0.93694258, 0.29076385, 17.74103546, -2.89513445, 6.73585653, -29.20198822, 13.12481689, -56.94241333, 104.64357758, -13.76298714, -58.92908859, -0.57498193, 0.64810205, -0.45026317, -0.21592309, 0.01325777, -0.00340321, -0.04775390, 100.00700378, 110.29517365, 30.92000008, 0.00000000
1, 0.0050, 1, -0.22587045, -0.93274045, 0.30400434, 17.79740143, -1.67535794, 6.72916031, -29.20198822, 13.12481689, -56.94241333, 104.74381256, -13.79107189, -58.94821548, -0.57445800, 0.64843619, -0.45067799, -0.21544838, -0.01316061, -0.00709523, -0.05936569, 100.00700378, 110.29517365, 30.92000008, 0.00000000
1, 0.0100, 2, -0.22082435, -0.93778515, 0.30370554, 17.69144440, -1.74509168, 6.69379520, -29.28968048, 12.89096737, -57.14703369, 104.83650208, -13.82102489, -58.96561050, -0.57398516, 0.64873260, -0.45107609, -0.21498244, -0.01869857, -0.00151697, -0.05751465, 100.00700378, 110.29517365, 30.92000008, 0.00000000
1, 0.0150, 3, -0.22181275, -0.94701862, 0.30061018, 17.33466721, -1.61319351, 6.87674189, -29.28968048, 12.89096737, -57.14703369, 104.92732239, -13.85200214, -58.98261642, -0.57352650, 0.64901739, -0.45147234, -0.21451500, -0.01821972, 0.00824197, -0.05297171, 100.00700378, 110.29517365, 30.92000008, 0.00000000
1, 0.0200, 4, -0.21847855, -0.95489097, 0.31313923, 17.08280182, -1.27733099, 7.30857992, -29.26045036, 13.06635475, -57.43934631, 105.01665497, -13.88547325, -58.99858093, -0.57308507, 0.64929008, -0.45186970, -0.21403201, -0.02213982, 0.01661809, -0.06407247, 100.00700378, 110.29517365, 30.92000008, 0.00000000
1, 0.0250, 5, -0.21188745, -0.96215832, 0.34437937, 16.72372246, -0.87530303, 7.84851551, -29.26045036, 13.06635475, -57.43934631, 105.10391235, -13.92204762, -59.01333237, -0.57266641, 0.64954656, -0.45226872, -0.21353106, -0.02941809, 0.02436589, -0.09390995, 100.00700378, 110.29517365, 30.92000008, 0.00000000
1, 0.0750, 6, -0.10388494, -0.99631333, 0.47899312, 10.67224503, -2.80290604, 10.54356956, -29.43583679, 13.62174797, -56.91318130, 105.80849457, -14.39987278, -58.98502350, -0.57006896, 0.65158182, -0.45538232, -0.20758021, -0.14582004, 0.06347655, -0.21720703, 100.00700378, 110.29517365, 30.92000008, 0.00000000
1, 0.0800, 7, -0.19103083, -0.93808270, 0.25482222, 5.41763449, -12.11009884, 11.86080933, -29.43583679, 13.62174797, -56.91318130, 105.85485077, -14.44045925, -59.06177902, -0.56978118, 0.65137190, -0.45606962, -0.20752048, -0.05880156, 0.00599405, 0.00754003, 100.00700378, 110.29517365, 30.92000008, 0.00000000
1, 0.0850, 8, -0.24032044, -0.94442189, 0.25649941, 9.55882549, -1.46624434, 12.51747227, -29.55276108, 11.31248188, -56.44548416, 105.90898895, -14.49857903, -59.08662033, -0.56959289, 0.65134829, -0.45654744, -0.20706005, -0.01040419, 0.01280124, 0.00654865, 100.00700378, 110.29517365, 30.92000008, 0.00000000
1, 0.0900, 9, -0.18303926, -0.93905282, 0.34413430, 10.66333008, 13.13255882, 12.74622631, -29.55276108, 11.31248188, -56.44548416, 105.95057678, -14.57768822, -59.03929520, -0.56966543, 0.65147960, -0.45667788, -0.20615748, -0.06917878, 0.00780984, -0.08031107, 100.00700378, 110.29517365, 30.92000008, 0.00000000
1, 0.0950, 10, -0.13871546, -0.96220410, 0.43659288, 10.61294174, 11.64493370, 13.76297569, -30.07892418, 13.76790428, -56.73779678, 105.99412537, -14.65968132, -59.00083923, -0.56971842, 0.65157568, -0.45687345, -0.20527263, -0.11511972, 0.03135723, -0.17209676, 100.00700378, 110.29517365, 30.92000008, 0.00000000
1, 0.1000, 11, -0.17623152, -0.95132375, 0.35905540, 6.71057510, -0.86774516, 14.14534569, -30.07892418, 13.76790428, -56.73779678, 106.03403473, -14.72642612, -59.02519608, -0.56963611, 0.65145391, -0.45735651, -0.20481083, -0.07860117, 0.02109361, -0.09405785, 100.00700378, 110.29517365, 30.92000008, 0.00000000
1, 0.1050, 12, -0.24351926, -0.93000078, 0.29378995, 6.24046850, -6.03504610, 14.48384285, -30.07892418, 13.76790428, -56.73779678, 106.08091736, -14.78791237, -59.07653809, -0.56945139, 0.65127635, -0.45798349, -0.20448843, -0.01219305, 0.00034713, -0.02828414, 100.00700378, 110.29517365, 30.92000008, 0.00000000
1, 0.1100, 13, -0.27742431, -0.92922103, 0.27229154, 6.95826387, -0.63521165, 14.70856953, -29.28968048, 14.14791012, -56.65010071, 106.12207031, -14.85765457, -59.10066223, -0.56937134, 0.65115088, -0.45847857, -0.20400086, 0.02063149, 0.00009607, -0.00623969, 100.00700378, 110.29517365, 30.92000008, 0.00000000
1, 0.1150, 14, -0.27270889, -0.92954099, 0.26759222, 7.47783184, 6.43636513, 14.87051010, -29.28968048, 14.14791012, -56.65010071, 106.15686798, -14.93790913, -59.08987808, -0.56941903, 0.65109801, -0.45880634, -0.20329818, 0.01461384, 0.00092825, -0.00104111, 100.00700378, 110.29517365, 30.92000008, 0.00000000
1, 0.1200, 15, -0.25573835, -0.92678690, 0.28885192, 7.91073465, 8.90940762, 15.02910233, -30.40046692, 13.32943535, -56.32855988, 106.19071198, -15.02235699, -59.06710052, -0.56950492, 0.65107429, -0.45908076, -0.20251268, -0.00382454, -0.00133875, -0.02181176, 100.00700378, 110.29517365, 30.92000008, 0.00000000
1, 0.1250, 16, -0.24114411, -0.92730176, 0.30118585, 7.32689667, 7.25966692, 15.34773350, -30.40046692, 13.32943535, -56.32855988, 106.22389984, -15.10606670, -59.05302429, -0.56957668, 0.65101469, -0.45939988, -0.20177752, -0.01986530, -0.00032130, -0.03367470, 100.00700378, 110.29517365, 30.92000008, 0.00000000
1, 0.1300, 17, -0.24054001, -0.92392910, 0.29778811, 6.71942997, 4.60182285, 15.57253361, -30.40046692, 13.32943535, -56.32855988, 106.25756073, -15.18717003, -59.05253983, -0.56961411, 0.65091151, -0.45978588, -0.20112413, -0.02183673, -0.00317338, -0.02983120, 100.00700378, 110.29517365, 30.92000008, 0.00000000
1, 0.1350, 18, -0.24173856, -0.92655683, 0.30521181, 6.58283472, 4.20931816, 15.91543770, -30.16661835, 13.88482857, -56.38702011, 106.29119110, -15.26939392, -59.05455399, -0.56965041, 0.65079421, -0.46019006, -0.20047596, -0.02203342, -0.00003949, -0.03682180, 100.00700378, 110.29517365, 30.92000008, 0.00000000
1, 0.1400, 19, -0.22900996, -0.93250573, 0.30790710, 6.52685928, 5.91379976, 15.99182892, -30.16661835, 13.88482857, -56.38702011, 106.32235718, -15.35434723, -59.04823685, -0.56972265, 0.65068853, -0.46055302, -0.19977854, -0.03618788, 0.00642829, -0.03908812, 100.00700378, 110.29517365, 30.92000008, 0.00000000
1, 0.1450, 20, -0.20896591, -0.92273891, 0.28780591, 6.18578243, 4.69315863, 15.93202400, -30.86816597, 13.82636642, -56.00701523, 106.35340118, -15.43731499, -59.04796219, -0.56977928, 0.65056455, -0.46094155, -0.19912396, -0.05759675, -0.00278827, -0.01853953, 100.00700378, 110.29517365, 30.92000008, 0.00000000
1, 0.1500, 21, -0.22305058, -0.92423284, 0.28563595, 6.10913754, 2.21827912, 15.97916794, -30.86816597, 13.82636642, -56.00701523, 106.38739777, -15.51704788, -59.06013489, -0.56978834, 0.65041572, -0.46139210, -0.19853973, -0.04485929, -0.00077381, -0.01597367, 100.00700378, 110.29517365, 30.92000008, 0.00000000
1, 0.1550, 22, -0.25083858, -0.92548454, 0.27762353, 6.09074211, 0.79080003, 15.94537735, -30.86816597, 13.82636642, -56.00701523, 106.42417145, -15.59247208, -59.07976151, -0.56975669, 0.65026486, -0.46187186, -0.19800854, -0.01834141, 0.00100592, -0.00755302, 100.00700378, 110.29517365, 30.92000008, 0.00000000
1, 0.1600, 23, -0.27289164, -0.92816138, 0.27071816, 6.23519182, 0.61718863, 15.97445107, -30.60508537, 13.35866737, -56.47471619, 106.46098328, -15.66991806, -59.10000610, -0.56972939, 0.65010452, -0.46236271, -0.19746703, 0.00244359, 0.00421515, -0.00020993, 100.00700378, 110.29517365, 30.92000008, 0.00000000
1, 0.1650, 24, -0.30568168, -0.93244195, 0.26260152, 6.10476780, -0.39103207, 15.84692383, -30.60508537, 13.35866737, -56.47471619, 106.49852753, -15.74530411, -59.12516403, -0.56968397, 0.64993453, -0.46287376, -0.19695987, 0.03397731, 0.00903102, 0.00831981, 100.00700378, 110.29517365, 30.92000008, 0.00000000
1, 0.1950, 25, -0.28143197, -0.91743302, 0.33213019, 8.13746071, 10.31587696, 13.09681702, -30.89739799, 13.88482857, -56.24086380, 106.69114685, -16.21821785, -59.08753586, -0.56997377, 0.64943981, -0.46488607, -0.19297352, 0.00162097, -0.00298933, -0.05865731, 100.00700378, 110.29517365, 30.92000008, 0.00000000
1, 0.2000, 26, -0.28586206, -0.91655457, 0.32420444, 7.24436569, 4.70560646, 12.86930561, -30.89739799, 13.88482857, -56.24086380, 106.72631073, -16.28651619, -59.08319092, -0.56997150, 0.64940000, -0.46519363, -0.19237253, 0.00488595, -0.00335733, -0.05028401, 100.00700378, 110.29517365, 30.92000008, 0.00000000
1, 0.2050, 27, -0.28734377, -0.90731108, 0.29881823, 6.45593882, 2.19709110, 12.60923767, -30.89739799, 13.88482857, -56.24086380, 106.76252747, -16.35143471, -59.09149170, -0.56993252, 0.64932525, -0.46556062, -0.19185156, 0.00533700, -0.01208013, -0.02440425, 100.00700378, 110.29517365, 30.92000008, 0.00000000
1, 0.2100, 28, -0.28455028, -0.90616524, 0.25861776, 6.55927849, 2.50798392, 12.75554085, -30.95586014, 14.03098488, -56.38702011, 106.79732513, -16.41604996, -59.09803391, -0.56990367, 0.64925152, -0.46591365, -0.19132932, 0.00156816, -0.01268754, 0.01627894, 100.00700378, 110.29517365, 30.92000008, 0.00000000
1, 0.2150, 29, -0.27555698, -0.92126215, 0.25604153, 7.20325708, 5.22158384, 13.12749290, -30.95586014, 14.03098488, -56.38702011, 106.83168793, -16.48633957, -59.09162903, -0.56991452, 0.64920872, -0.46621472, -0.19070786, -0.00856949, 0.00290782, 0.01931461, 100.00700378, 110.29517365, 30.92000008, 0.00000000
1, 0.2200, 30, -0.25942671, -0.92803943, 0.25682604, 7.17865944, 7.30594254, 13.35274792, -31.45279121, 14.32329750, -55.86085892, 106.86308289, -16.56071091, -59.07519531, -0.56996995, 0.64917785, -0.46646982, -0.19002225, -0.02593167, 0.01018705, 0.01896376, 100.00700378, 110.29517365, 30.92000008, 0.00000000
1, 0.2250, 31, -0.25596806, -0.92582643, 0.27204502, 7.31662178, 7.75054932, 13.74716377, -31.45279121, 14.32329750, -55.86085892, 106.89467621, -16.63762665, -59.05717087, -0.57003349, 0.64914566, -0.46672586, -0.18931127, -0.03070583, 0.00846599, 0.00415083, 100.00700378, 110.29517365, 30.92000008, 0.00000000
1, 0.2300, 32, -0.24621549, -0.92196047, 0.28703299, 7.17322493, 7.94729424, 14.20935726, -31.45279121, 14.32329750, -55.86085892, 106.92546844, -16.71704483, -59.03889084, -0.57010865, 0.64910185, -0.46698859, -0.18858604, -0.04181327, 0.00510314, -0.01042612, 100.00700378, 110.29517365, 30.92000008, 0.00000000
1, 0.2350, 33, -0.22592038, -0.92151976, 0.30003524, 7.04176092, 7.16772032, 14.71823215, -31.51125336, 13.38789845, -56.41625214, 106.95697021, -16.79777718, -59.02531815, -0.57017523, 0.64903766, -0.46728387, -0.18787262, -0.06348756, 0.00518037, -0.02299656, 100.00700378, 110.29517365, 30.92000008, 0.00000000
1, 0.2400, 34, -0.20835368, -0.92016685, 0.29465842, 6.35814428, 4.95842171, 15.09490013, -31.51125336, 13.38789845, -56.41625214, 106.98838043, -16.87712288, -59.02339935, -0.57021922, 0.64893013, -0.46763894, -0.18722613, -0.08237472, 0.00437537, -0.01718863, 100.00700378, 110.29517365, 30.92000008, 0.00000000
1, 0.2450, 35, -0.20419562, -0.91849470, 0.29273397, 6.07377863, 2.09040380, 15.48583698, -31.71587181, 14.67407131, -55.94855118, 107.02275085, -16.95417213, -59.03646851, -0.57021546, 0.64878374, -0.46807405, -0.18665661, -0.08782094, 0.00324580, -0.01482993, 100.00700378, 110.29517365, 30.92000008, 0.00000000
1, 0.2750, 36, -0.33117622, -0.91125119, 0.24026470, 5.78075457, 0.58198839, 18.74851990, -32.18357086, 14.06021595, -56.50394440, 107.24507904, -17.44795799, -59.21368790, -0.57003009, 0.64746410, -0.47138059, -0.18345648, 0.03111693, -0.00040724, 0.04012831, 100.00700378, 110.29517365, 30.92000008, 0.00000000
1, 0.2800, 37, -0.32542032, -0.91621017, 0.23680647, 6.41353130, 4.20312023, 19.03708839, -32.18357086, 14.06021595, -56.50394440, 107.27990723, -17.54502106, -59.22206879, -0.57008666, 0.64726740, -0.47186396, -0.18273100, 0.02378154, 0.00520998, 0.04400862, 100.00700378, 110.29517365, 30.92000008, 0.00000000
1, 0.2850, 38, -0.30834600, -0.91782677, 0.25542799, 6.83209372, 7.89196873, 19.32999992, -31.65740967, 14.46945286, -56.59164047, 107.31140137, -17.64894104, -59.21248627, -0.57020915, 0.64710402, -0.47226661, -0.18188544, 0.00496190, 0.00747046, 0.02578264, 100.00700378, 110.29517365, 30.92000008, 0.00000000
1, 0.2900, 39, -0.28136331, -0.91931725, 0.27565944, 7.12976217, 9.86724472, 19.86402130, -31.65740967, 14.46945286, -56.59164047, 107.34162903, -17.75833321, -59.19387436, -0.57036752, 0.64695221, -0.47263682, -0.18096447, -0.02387041, 0.00962433, 0.00592384, 100.00700378, 110.29517365, 30.92000008, 0.00000000
1, 0.2950, 40, -0.26569512, -0.92363179, 0.29708722, 7.23970222, 9.74792194, 20.52577019, -32.03741455, 12.74481106, -56.00701523, 107.37290955, -17.87072182, -59.17695618, -0.57052493, 0.64678788, -0.47302926, -0.18002795, -0.04144989, 0.01462714, -0.01515599, 100.00700378, 110.29517365, 30.92000008, 0.00000000
1, 0.3000, 41, -0.26752049, -0.92210603, 0.31079137, 6.68148565, 8.96454716, 21.03998756, -32.03741455, 12.74481106, -56.00701523, 107.40285492, -17.98440170, -59.16483307, -0.57068521, 0.64659226, -0.47345084, -0.17911199, -0.04154154, 0.01380965, -0.02856350, 100.00700378, 110.29517365, 30.92000008, 0.00000000
1, 0.3050, 42, -0.26927990, -0.91722798, 0.31186572, 6.11981344, 8.46048069, 21.52585220, -32.03741455, 12.74481106, -56.00701523, 107.43354034, -18.09558105, -59.15702057, -0.57082731, 0.64639080, -0.47388732, -0.17823011, -0.04165613, 0.00965862, -0.02934351, 100.00700378, 110.29517365, 30.92000008, 0.00000000
1, 0.3100, 43, -0.27614954, -0.91420746, 0.30720997, 5.69180965, 8.68699741, 22.09753609, -32.15433884, 13.24174213, -55.89009094, 107.45947266, -18.21392822, -59.14805222, -0.57101691, 0.64614505, -0.47433692, -0.17731550, -0.03669065, 0.00738259, -0.02444657, 100.00700378, 110.29517365, 30.92000008, 0.00000000
1, 0.3850, 44, -0.33902749, -0.91931689, 0.28283542, 9.91094971, 14.39856243, 29.50587273, -33.20666504, 15.08330917, -55.77316666, 107.95214081, -20.31266212, -58.88554764, -0.57424277, 0.64230245, -0.48163757, -0.16036905, -0.00815656, 0.02641133, 0.00378547, 100.00700378, 110.29517365, 30.92000008, 0.00000000
1, 0.3900, 45, -0.34941536, -0.91602695, 0.29034588, 9.72790527, 14.91077042, 29.87092972, -33.20666504, 15.08330917, -55.77316666, 107.99179840, -20.47757721, -58.85871887, -0.57449043, 0.64202523, -0.48216647, -0.15899636, -0.00047385, 0.02426009, -0.00342667, 100.00700378, 110.29517365, 30.92000008, 0.00000000
1, 0.3950, 46, -0.35386336, -0.90655065, 0.28866503, 9.56838417, 16.36897087, 30.01287651, -33.84975052, 16.60333252, -55.68547058, 108.02809906, -20.64543152, -58.82482147, -0.57477289, 0.64174974, -0.48266065, -0.15758236, 0.00124693, 0.01594592, -0.00148157, 100.00700378, 110.29517365, 30.92000008, 0.00000000
1, 0.4000, 47, -0.35474542, -0.89572108, 0.29769060, 9.87096882, 17.86443329, 30.21992874, -33.84975052, 16.60333252, -55.68547058, 108.06327057, -20.81659317, -58.78370285, -0.57507843, 0.64148617, -0.48312381, -0.15611450, -0.00067413, 0.00627997, -0.01026449, 100.00700378, 110.29517365, 30.92000008, 0.00000000
1, 0.4050, 48, -0.34421831, -0.88461947, 0.30552974, 10.10556984, 19.08245468, 30.35112953, -34.40514374, 15.90178299, -55.42238998, 108.09851837, -20.98918915, -58.73714066, -0.57539266, 0.64124006, -0.48356038, -0.15460865, -0.01403562, -0.00363896, -0.01785280, 100.00700378, 110.29517365, 30.92000008, 0.00000000
1, 0.4100, 49, -0.33855474, -0.88324344, 0.31130919, 10.56558514, 19.35670090, 30.70233536, -34.40514374, 15.90178299, -55.42238998, 108.13453674, -21.16500664, -58.68937683, -0.57571042, 0.64099061, -0.48400182, -0.15307152, -0.02256243, -0.00380120, -0.02340051, 100.00700378, 110.29517365, 30.92000008, 0.00000000
1, 0.4150, 50, -0.34385011, -0.88005459, 0.32754833, 10.77498817, 19.76796722, 31.05999374, -34.40514374, 15.90178299, -55.42238998, 108.17095184, -21.34316254, -58.64015198, -0.57603174, 0.64073998, -0.48444277, -0.15150909, -0.02019254, -0.00576733, -0.03943034, 100.00700378, 110.29517365, 30.92000008, 0.00000000
1, 0.4200, 51, -0.34695020, -0.86442673, 0.35295618, 11.50495720, 21.26222038, 31.47189522, -34.20052719, 16.31101990, -56.09470749, 108.20835114, -21.52563286, -58.58403397, -0.57636535, 0.64050716, -0.48486096, -0.14987867, -0.02010280, -0.02015240, -0.06460875, 100.00700378, 110.29517365, 30.92000008, 0.00000000
1, 0.4250, 52, -0.35044259, -0.84062338, 0.38186830, 12.44997692, 22.58766747, 31.73681831, -34.20052719, 16.31101990, -56.09470749, 108.24803162, -21.71144295, -58.52166748, -0.57670021, 0.64029926, -0.48525786, -0.14818420, -0.01968971, -0.04267476, -0.09325789, 100.00700378, 110.29517365, 30.92000008, 0.00000000
1, 0.4300, 53, -0.35642377, -0.84047163, 0.38790488, 13.97998047, 25.36484718, 31.22270584, -34.28821945, 13.53405380, -55.71470261, 108.28957367, -21.89915466, -58.44426727, -0.57704598, 0.64015681, -0.48557848, -0.14639245, -0.01675747, -0.04147922, -0.09906025, 100.00700378, 110.29517365, 30.92000008, 0.00000000
1, 0.4950, 54, -0.32313427, -0.91993201, 0.27766818, 11.53792381, 20.71706772, 41.20298386, -36.39286804, 15.96024513, -55.53931427, 108.74613190, -24.57278633, -57.53715897, -0.58215731, 0.63652456, -0.49088812, -0.12230432, -0.09249869, 0.05783588, 0.01225870, 100.00700378, 110.29517365, 30.92000008, 0.00000000
1, 0.5000, 55, -0.32939884, -0.91051757, 0.28753388, 11.71605968, 20.87351418, 42.01064682, -36.39286804, 15.96024513, -55.53931427, 108.79066467, -24.80505753, -57.50231171, -0.58250022, 0.63603663, -0.49158311, -0.12040375, -0.08992839, 0.05022449, 0.00251756, 100.00700378, 110.29517365, 30.92000008, 0.00000000
1, 0.5050, 56, -0.34010857, -0.90188670, 0.28294116, 12.25055695, 20.99581146, 42.91811371, -37.24057388, 17.39257431, -55.42238998, 108.83707428, -25.03754807, -57.46815109, -0.58282959, 0.63555270, -0.49228176, -0.11849584, -0.08290407, 0.04345910, 0.00723923, 100.00700378, 110.29517365, 30.92000008, 0.00000000
1, 0.5100, 57, -0.35396162, -0.89779484, 0.28112400, 12.91882706, 21.81638908, 43.80546951, -37.24057388, 17.39257431, -55.42238998, 108.88677979, -25.27986908, -57.43186188, -0.58316302, 0.63505614, -0.49300423, -0.11649652, -0.07282029, 0.04129208, 0.00918626, 100.00700378, 110.29517365, 30.92000008, 0.00000000
1, 0.5150, 58, -0.36304039, -0.89779019, 0.28686419, 13.68028259, 23.75263596, 44.68318176, -37.24057388, 17.39257431, -55.42238998, 108.93654633, -25.52948570, -57.38712692, -0.58351868, 0.63456690, -0.49370292, -0.11440425, -0.06766216, 0.04328223, 0.00356577, 100.00700378, 110.29517365, 30.92000008, 0.00000000
1, 0.5200, 59, -0.35669157, -0.90172696, 0.29393333, 14.43472195, 26.27979279, 45.61011505, -37.76673508, 17.27565002, -55.53931427, 108.98495483, -25.78760147, -57.33092880, -0.58390927, 0.63408619, -0.49436378, -0.11220162, -0.07805667, 0.04928194, -0.00339345, 100.00700378, 110.29517365, 30.92000008, 0.00000000
1, 0.5250, 60, -0.33996215, -0.91120505, 0.30833030, 14.74150372, 27.64747429, 46.79552841, -37.76673508, 17.27565002, -55.53931427, 109.03249359, -26.05358696, -57.26978302, -0.58432329, 0.63359088, -0.49502102, -0.10992359, -0.09897012, 0.06088157, -0.01770908, 100.00700378, 110.29517365, 30.92000008, 0.00000000
1, 0.5300, 61, -0.32108405, -0.91803443, 0.32222593, 14.49195004, 27.96498299, 47.99805069, -38.11750793, 14.20637226, -55.86085892, 109.07884216, -26.32582283, -57.20926285, -0.58475304, 0.63306093, -0.49569932, -0.10761070, -0.12212695, 0.06989418, -0.03155673, 100.00700378, 110.29517365, 30.92000008, 0.00000000
1, 0.5350, 62, -0.29313967, -0.92347550, 0.32075036, 14.07944965, 27.15535545, 49.66651154, -38.11750793, 14.20637226, -55.86085892, 109.12620544, -26.60464859, -57.15614700, -0.58518064, 0.63247681, -0.49643910, -0.10528566, -0.15439227, 0.07760496, -0.03003180, 100.00700378, 110.29517365, 30.92000008, 0.00000000
1, 0.5400, 63, -0.27762052, -0.92388225, 0.31437352, 13.77018166, 26.62598228, 51.30528259, -38.11750793, 14.20637226, -55.86085892, 109.17445374, -26.89042473, -57.10897446, -0.58560902, 0.63184255, -0.49723303, -0.10293919, -0.17432451, 0.08037129, -0.02363596, 100.00700378, 110.29517365, 30.92000008, 0.00000000
1, 0.5800, 64, -0.29421273, -1.02068150, 0.31111419, 16.03472137, 25.95155334, 70.18856812, -40.36831284, 16.98333740, -55.07161713, 109.72321320, -29.54131317, -56.94313049, -0.58861488, 0.62515032, -0.50595397, -0.08203883, -0.19817621, 0.20034766, -0.01990621, 100.00700378, 110.29517365, 30.92000008, 0.00000000
1, 0.5850, 65, -0.30775508, -1.04018092, 0.31958091, 15.81639481, 32.81969452, 72.77363586, -40.36831284, 16.98333740, -55.07161713, 109.78479004, -29.93898964, -56.90606308, -0.58916229, 0.62407047, -0.50714451, -0.07892009, -0.19059375, 0.22335185, -0.02863948, 100.00700378, 110.29517365, 30.92000008, 0.00000000
1, 0.5900, 66, -0.29016426, -1.06484866, 0.32182872, 16.61057281, 38.33581924, 75.45382690, -40.36831284, 16.98333740, -55.07161713, 109.83786774, -30.35861969, -56.84450531, -0.58981121, 0.62296295, -0.50826186, -0.07556354, -0.21445331, 0.25170290, -0.03133764, 100.00700378, 110.29517365, 30.92000008, 0.00000000
1, 0.5950, 67, -0.27265221, -1.09266102, 0.31356624, 16.64113998, 39.41476440, 78.42353821, -41.21601868, 19.23414230, -55.21777344, 109.89076996, -30.79408264, -56.78305054, -0.59048438, 0.62178499, -0.50942451, -0.07209927, -0.23845248, 0.28339949, -0.02363026, 100.00700378, 110.29517365, 30.92000008, 0.00000000
1, 0.6000, 68, -0.27745384, -1.11637390, 0.28972521, 15.77104950, 38.50053406, 81.39225769, -41.21601868, 19.23414230, -55.21777344, 109.94470978, -31.24201584, -56.73271942, -0.59116071, 0.62050629, -0.51068085, -0.06860112, -0.24024126, 0.31116909, -0.00043773, 100.00700378, 110.29517365, 30.92000008, 0.00000000
1, 0.6050, 69, -0.29632330, -1.13467705, 0.27211231, 15.33361244, 42.86272812, 83.81524658, -41.71294785, 16.07716942, -55.42238998, 109.98319244, -31.70213318, -56.66185760, -0.59194678, 0.61918318, -0.51184827, -0.06498137, -0.22815610, 0.33363545, 0.01629307, 100.00700378, 110.29517365, 30.92000008, 0.00000000
1, 0.6100, 70, -0.31378424, -1.14044583, 0.26440161, 16.02529335, 48.02980804, 86.48841095, -41.71294785, 16.07716942, -55.42238998, 110.01535797, -32.19031525, -56.56919479, -0.59282315, 0.61780429, -0.51297879, -0.06108584, -0.21778692, 0.34372786, 0.02289010, 100.00700378, 110.29517365, 30.92000008, 0.00000000
1, 0.6150, 71, -0.29479605, -1.17962170, 0.25420830, 18.03844643, 52.75443649, 89.20430756, -41.71294785, 16.07716942, -55.42238998, 110.04565430, -32.69932938, -56.45548248, -0.59374613, 0.61641741, -0.51405472, -0.05694649, -0.24418351, 0.38749540, 0.03188501, 100.00700378, 110.29517365, 30.92000008, 0.00000000
1, 0.6200, 72, -0.27194047, -1.22781527, 0.25147772, 18.61809349, 58.24636841, 91.36087036, -42.67757797, 19.61414719, -54.92546082, 110.06342316, -33.22788620, -56.31499863, -0.59476900, 0.61499757, -0.51503623, -0.05258941, -0.27470946, 0.44045740, 0.03319741, 100.00700378, 110.29517365, 30.92000008, 0.00000000
1, 0.6250, 73, -0.24260585, -1.26064992, 0.25966045, 17.37879753, 64.11003113, 93.33911896, -42.67757797, 19.61414719, -54.92546082, 110.05746460, -33.77580261, -56.14471436, -0.59594709, 0.61350000, -0.51590317, -0.04805013, -0.31198382, 0.47817755, 0.02324514, 100.00700378, 110.29517365, 30.92000008, 0.00000000
1, 0.7100, 74, -0.13870806, -1.60533261, -0.00567907, 33.49340057, 181.37455750, 105.67354584, -51.59310150, 23.73575020, -57.05933762, 107.83287811, -45.42484283, -49.43036652, -0.62399036, 0.58212203, -0.51826704, 0.05629661, -0.57121873, 0.93543255, 0.21996844, 100.00700378, 110.29517365, 30.92000008, 0.00000000
1, 0.7150, 75, -0.19357450, -1.49535275, 0.02377254, 34.55334091, 184.58699036, 104.26441956, -53.55159378, 22.56650162, -57.41011429, 107.26186371, -46.19858170, -48.39135361, -0.62700170, 0.58024144, -0.51576692, 0.06460211, -0.52589619, 0.83254272, 0.18109241, 100.00700378, 110.29517365, 30.92000008, 0.00000000
1, 0.7200, 76, -0.29003918, -1.40677440, 0.07984807, 34.54858398, 187.58360291, 102.75856781, -53.55159378, 22.56650162, -57.41011429, 106.64466095, -46.96192932, -47.30207062, -0.63002914, 0.57833469, -0.51310098, 0.07293620, -0.43879479, 0.75098366, 0.11511049, 100.00700378, 110.29517365, 30.92000008, 0.00000000
1, 0.7250, 77, -0.42018300, -1.31179368, 0.16732426, 33.74116898, 189.31816101, 101.30294037, -53.55159378, 22.56650162, -57.41011429, 105.98169708, -47.71231079, -46.16944122, -0.63306415, 0.57638091, -0.51030719, 0.08124930, -0.31781632, 0.66291511, 0.01731384, 100.00700378, 110.29517365, 30.92000008, 0.00000000
1, 0.7300, 78, -0.50208640, -1.19006538, 0.20165364, 31.94590378, 184.52806091, 99.94972992, -55.33469772, 25.89885902, -57.93627548, 105.30188751, -48.44070435, -45.03940964, -0.63598657, 0.57437390, -0.50757366, 0.08935773, -0.24459389, 0.54811525, -0.02725850, 100.00700378, 110.29517365, 30.92000008, 0.00000000
1, 0.7350, 79, -0.58197653, -1.07526791, 0.23201212, 31.82397270, 171.01889038, 99.66434479, -55.33469772, 25.89885902, -57.93627548, 104.66468048, -49.14164734, -43.97923279, -0.63856220, 0.57237548, -0.50516748, 0.09711041, -0.17294714, 0.44025266, -0.06729792, 100.00700378, 110.29517365, 30.92000008, 0.00000000
1, 0.7400, 80, -0.70601386, -1.00935686, 0.24660455, 33.35097885, 159.40342712, 99.43814850, -56.15317154, 25.48962212, -58.66705704, 104.07222748, -49.81959915, -42.97889328, -0.64079815, 0.57043165, -0.50303644, 0.10459358, -0.05672229, 0.38135600, -0.09098256, 100.00700378, 110.29517365, 30.92000008, 0.00000000
1, 0.7450, 81, -0.79409122, -0.97714472, 0.20397785, 33.35717010, 155.60835266, 97.91047668, -56.15317154, 25.48962212, -58.66705704, 103.47307587, -50.47887802, -41.97966766, -0.64291424, 0.56849962, -0.50093973, 0.11193259, 0.02401483, 0.35621744, -0.05712661, 100.00700378, 110.29517365, 30.92000008, 0.00000000
1, 0.7500, 82, -0.85699415, -0.94232142, 0.17225416, 34.37203598, 156.66117859, 96.48551941, -56.15317154, 25.48962212, -58.66705704, 102.84402466, -51.12546921, -40.94469070, -0.64499259, 0.56658429, -0.49873951, 0.11927223, 0.07980620, 0.32839227, -0.03421569, 100.00700378, 110.29517365, 30.92000008, 0.00000000
1, 0.7550, 83, -0.90593725, -0.92958343, 0.22600295, 37.02143478, 157.83383179, 95.00755310, -58.28704834, 27.30195808, -60.12861633, 102.19223785, -51.75710297, -39.87266541, -0.64699256, 0.56474042, -0.49641892, 0.12663752, 0.12167306, 0.32246464, -0.09685630, 100.00700378, 110.29517365, 30.92000008, 0.00000000
1, 0.7900, 84, -0.58535212, -0.72053230, 0.15631165, 11.54073238, 136.37310791, 46.51847076, -62.29172516, 26.57117844, -63.08097076, 97.20491791, -55.01858139, -32.47009659, -0.65999383, 0.55339974, -0.47927073, 0.16869052, -0.23360565, 0.15067753, -0.08475547, 100.00700378, 110.29517365, 30.92000008, 0.00000000
1, 0.7950, 85, -0.48874444, -0.61476445, 0.14095712, 8.75782871, 129.80958557, 40.29837418, -62.29172516, 26.57117844, -63.08097076, 96.35688019, -55.29419327, -31.38286209, -0.66218936, 0.55185127, -0.47642446, 0.17316246, -0.33303776, 0.04796651, -0.07795824, 100.00700378, 110.29517365, 30.92000008, 0.00000000
1, 0.8000, 86, -0.41834572, -0.52843261, 0.12852371, 6.01547766, 117.22612762, 35.30130005, -62.29172516, 26.57117844, -63.08097076, 95.56796265, -55.52965164, -30.38753891, -0.66420585, 0.55040395, -0.47382790, 0.17712490, -0.40583783, -0.03570480, -0.07353863, 100.00700378, 110.29517365, 30.92000008, 0.00000000
1, 0.8050, 87, -0.38749871, -0.45039219, 0.09522057, 3.00153685, 100.85459137, 31.30402184, -62.99327469, 29.69891739, -63.57789993, 94.87216949, -55.72610855, -29.52493286, -0.66596645, 0.54908895, -0.47161013, 0.18048239, -0.43864226, -0.11139722, -0.04739867, 100.00700378, 110.29517365, 30.92000008, 0.00000000
1, 0.8100, 88, -0.42324123, -0.37948656, 0.06375737, 0.01817449, 82.22528076, 28.51441193, -62.99327469, 29.69891739, -63.57789993, 94.28562927, -55.90039063, -28.81533813, -0.66742897, 0.54785579, -0.46989530, 0.18327871, -0.40457225, -0.18018502, -0.02212942, 100.00700378, 110.29517365, 30.92000008, 0.00000000
1, 0.8150, 89, -0.53328842, -0.27021348, 0.04405104, -1.93700755, 63.85047150, 25.64767838, -62.93481445, 29.93276787, -64.36714172, 93.81761932, -56.05038452, -28.26194954, -0.66857648, 0.54676402, -0.46865818, 0.18551086, -0.29600486, -0.28752536, -0.00753355, 100.00700378, 110.29517365, 30.92000008, 0.00000000
1, 0.8200, 90, -0.57788253, -0.17611599, 0.05900040, 0.73890668, 47.97190094, 23.48253059, -62.93481445, 29.93276787, -64.36714172, 93.47598267, -56.18241501, -27.84558678, -0.66934782, 0.54591882, -0.46780807, 0.18735476, -0.25278249, -0.37991464, -0.02636574, 100.00700378, 110.29517365, 30.92000008, 0.00000000
1, 0.8250, 91, -0.68505472, -0.04385534, 0.09653749, 9.88794422, 22.89108849, 19.54345131, -62.93481445, 29.93276787, -64.36714172, 93.36324310, -56.28647995, -27.65019608, -0.66941905, 0.54562354, -0.46752089, 0.18867241, -0.14677434, -0.51073152, -0.06556737, 100.00700378, 110.29517365, 30.92000008, 0.00000000
1, 0.8300, 92, -0.84670740, 0.00337052, 0.11811272, 14.95358372, 2.98018813, 14.97338390, -63.84098053, 30.95586014, -64.45483398, 93.42231750, -56.36188889, -27.63111687, -0.66900033, 0.54573190, -0.46766502, 0.18948577, 0.01402253, -0.55678189, -0.08736350, 100.00700378, 110.29517365, 30.92000008, 0.00000000
1, 0.8350, 93, -1.01742625, 0.02105158, 0.08932093, 16.48158455, -9.93399334, 9.31818581, -63.84098053, 30.95586014, -64.45483398, 93.58355713, -56.40523911, -27.72563553, -0.66832781, 0.54610580, -0.46803910, 0.18985762, 0.18431467, -0.57358551, -0.05764544, 100.00700378, 110.29517365, 30.92000008, 0.00000000
1, 0.8900, 94, -0.13571243, -0.16486135, -0.11274934, 9.23881245, 39.79132462, -105.18175507, -63.75328827, 27.12657166, -64.83484650, 93.15379333, -53.63151932, -25.38310623, -0.67045766, 0.56422722, -0.44492608, 0.18486509, -0.67058241, -0.42514902, 0.14534913, 100.00700378, 110.29517365, 30.92000008, 0.00000000
1, 0.8950, 95, -0.16598728, -0.16858642, -0.11521387, 9.49517727, 40.23769379, -113.58689880, -63.75328827, 27.12657166, -64.83484650, 92.89074707, -53.07448578, -24.99786568, -0.67191601, 0.56637257, -0.44087532, 0.18270187, -0.63462770, -0.42922091, 0.14540127, 100.00700378, 110.29517365, 30.92000008, 0.00000000
1, 0.9000, 96, -0.21439463, -0.17648453, -0.11156587, 8.70245361, 39.24240112, -121.80274200, -63.75328827, 27.12657166, -64.83484650, 92.63739014, -52.47514725, -24.62694740, -0.67342073, 0.56864339, -0.43664458, 0.18025194, -0.58003426, -0.42964906, 0.13933802, 100.00700378, 110.29517365, 30.92000008, 0.00000000
1, 0.9050, 97, -0.27816877, -0.16685644, -0.12027685, 6.41431618, 38.37387466, -130.03160095, -63.84098053, 28.76351929, -64.95176697, 92.37979889, -51.83528137, -24.26499367, -0.67502832, 0.57096744, -0.43223289, 0.17750449, -0.50951374, -0.44808036, 0.14558253, 100.00700378, 110.29517365, 30.92000008, 0.00000000
1, 0.9100, 98, -0.34101382, -0.14765655, -0.12485283, 4.57813263, 38.44179916, -137.92839050, -63.84098053, 28.76351929, -64.95176697, 92.12687683, -51.15330887, -23.91473579, -0.67669916, 0.57338768, -0.42762792, 0.17446834, -0.43939036, -0.47656530, 0.14764011, 100.00700378, 110.29517365, 30.92000008, 0.00000000
1, 0.9150, 99, -0.38032642, -0.12849684, -0.12507273, 4.08444309, 39.34798813, -145.43670654, -62.99327469, 25.46039200, -65.18561554, 91.87480164, -50.43302155, -23.56540108, -0.67842889, 0.57590252, -0.42279518, 0.17121606, -0.39226413, -0.50545537, 0.14536989, 100.00700378, 110.29517365, 30.92000008, 0.00000000
1, 0.9200, 100, -0.39649805, -0.10957755, -0.11547209, 5.00792980, 40.81295776, -152.49411011, -62.99327469, 25.46039200, -65.18561554, 91.62805939, -49.67671204, -23.21336746, -0.68018442, 0.57853746, -0.41771594, 0.16780020, -0.36777350, -0.53450060, 0.13330197, 100.00700378, 110.29517365, 30.92000008, 0.00000000
1, 0.9250, 101, -0.40522191, -0.09575622, -0.10052979, 7.21827459, 41.82762527, -159.19303894, -62.99327469, 25.46039200, -65.18561554, 91.39634705, -48.88608932, -22.86268616, -0.68191850, 0.58132362, -0.41240102, 0.16424231, -0.35021642, -0.55879259, 0.11597113, 100.00700378, 110.29517365, 30.92000008, 0.00000000
1, 0.9300, 102, -0.41277471, -0.09540188, -0.10335293, 10.45982265, 42.56906891, -167.20851135, -63.31481934, 26.98041534, -65.41946411, 91.18656158, -48.05454254, -22.51535988, -0.68360436, 0.58431339, -0.40681520, 0.16051330, -0.33316752, -0.56998825, 0.11655422, 100.00700378, 110.29517365, 30.92000008, 0.00000000
1, 0.9350, 103, -0.42822170, -0.11548030, -0.12143749, 13.86788368, 44.31486130, -174.92175293, -63.31481934, 26.98041534, -65.41946411, 90.99427795, -47.18375397, -22.16414452, -0.68524790, 0.58749425, -0.40093291, 0.15664853, -0.30760938, -0.56103706, 0.13247621, 100.00700378, 110.29517365, 30.92000008, 0.00000000
1, 0.9700, 104, -0.38305506, -0.23160827, -0.19398716, 23.16731071, 37.39352036, -226.06582642, -61.56094742, 23.26804924, -66.20870972, 90.16026306, -40.08707428, -20.01103592, -0.69542611, 0.61304259, -0.35390478, 0.12374480, -0.26420349, -0.52991724, 0.19492358, 100.00700378, 110.29517365, 30.92000008, 0.00000000
1, 0.9750, 105, -0.39245236, -0.26350054, -0.20120905, 26.76651382, 35.25762558, -233.06782532, -61.56094742, 23.26804924, -66.20870972, 90.14488220, -38.92158890, -19.78104973, -0.69648600, 0.61721689, -0.34644887, 0.11799952, -0.23927507, -0.51093531, 0.20178047, 100.00700378, 110.29517365, 30.92000008, 0.00000000
1, 0.9800, 106, -0.39254326, -0.31102571, -0.18921094, 30.16511345, 32.10537338, -239.88119507, -60.18708038, 22.06957054, -66.67640686, 90.16481781, -37.72198486, -19.57483482, -0.69736546, 0.62154508, -0.33884990, 0.11199999, -0.22297168, -0.47640377, 0.18989103, 100.00700378, 110.29517365, 30.92000008, 0.00000000
1, 0.9850, 107, -0.38498059, -0.35475940, -0.15766346, 32.74220276, 28.94272041, -248.01635742, -60.18708038, 22.06957054, -66.67640686, 90.21444702, -36.48176575, -19.39080620, -0.69808656, 0.62601435, -0.33107477, 0.10569173, -0.21353042, -0.44578317, 0.15894485, 100.00700378, 110.29517365, 30.92000008, 0.00000000
1, 0.9900, 108, -0.38809168, -0.42308015, -0.09504040, 37.71388245, 19.06503487, -255.60594177, -59.54399109, 20.49108505, -65.82870483, 90.32809448, -35.20356369, -19.26835632, -0.69847804, 0.63071167, -0.32332966, 0.09894031, -0.19272280, -0.39060390, 0.09760302, 100.00700378, 110.29517365, 30.92000008, 0.00000000
1, 0.9950, 109, -0.40819040, -0.48676682, -0.05012893, 40.90773010, 12.50574780, -261.30609131, -59.54399109, 20.49108505, -65.82870483, 90.48141479, -33.89688492, -19.18383217, -0.69862276, 0.63553226, -0.31557196, 0.09186661, -0.15412761, -0.33994567, 0.05468484, 100.00700378, 110.29517365, 30.92000008, 0.00000000
1, 1.0000, 110, -0.36158639, -0.52172554, -0.05431593, 43.16392899, 9.81900692, -267.60308838, -59.54399109, 20.49108505, -65.82870483, 90.65449524, -32.55880737, -19.11191368, -0.69859767, 0.64043188, -0.30766979, 0.08454458, -0.18138120, -0.31778607, 0.06151068, 100.00700378, 110.29517365, 30.92000008, 0.00000000
1, 1.0050, 111, -0.24416551, -0.52858102, -0.05848365, 45.03475571, 9.22285461, -275.52786255, -57.43934631, 18.12335587, -65.33177185, 90.83666992, -31.17964745, -19.03855133, -0.69844818, 0.64540285, -0.29950193, 0.07696731, -0.27858919, -0.32361650, 0.06877257, 100.00700378, 110.29517365, 30.92000008, 0.00000000
1, 1.0500, 112, -0.34444514, -1.23054171, 0.01365924, 38.12417984, -51.75228882, -315.24035645, -50.07307816, 13.38789845, -63.66559601, 93.11229706, -17.60867119, -19.92111015, -0.68852037, 0.68847328, -0.22776955, -0.00808592, 0.03528581, 0.28086987, 0.03411518, 100.00700378, 110.29517365, 30.92000008, 0.00000000
1, 1.0550, 113, -0.42840132, -1.31457341, 0.10418101, 38.53495407, -36.35512161, -318.06835938, -50.07307816, 13.38789845, -63.66559601, 93.33025360, -16.01076889, -20.02019310, -0.68683618, 0.69268978, -0.21931605, -0.01837076, 0.14562625, 0.35673088, -0.05256188, 100.00700378, 110.29517365, 30.92000008, 0.00000000
1, 1.0600, 114, -0.49824649, -1.39827728, 0.24155883, 41.81727982, -13.80942154, -318.72943115, -50.07307816, 13.38789845, -63.66559601, 93.52912140, -14.41533470, -19.99554825, -0.68513459, 0.69689125, -0.21012193, -0.02796318, 0.24196997, 0.43292302, -0.18640584, 100.00700378, 110.29517365, 30.92000008, 0.00000000
1, 1.0650, 115, -0.50549042, -1.47540748, 0.33664173, 46.22240067, 4.46073532, -317.89434814, -47.93919754, 12.65711784, -63.66559601, 93.72724915, -12.82973480, -19.87182999, -0.68333334, 0.70110178, -0.20036969, -0.03693053, 0.27586865, 0.50340426, -0.27788058, 100.00700378, 110.29517365, 30.92000008, 0.00000000
1, 1.0700, 116, -0.46267593, -1.49362373, 0.35673279, 49.36812592, 9.74242401, -314.75900269, -47.93919754, 12.65711784, -63.66559601, 93.93788147, -11.26187611, -19.71718788, -0.68135446, 0.70525020, -0.19052102, -0.04560871, 0.25981021, 0.51591933, -0.29398960, 100.00700378, 110.29517365, 30.92000008, 0.00000000
1, 1.0750, 117, -0.43178034, -1.54620814, 0.29417521, 50.42490768, -0.30308971, -310.87573242, -45.71762466, 11.63402462, -63.11020279, 94.16641998, -9.71048260, -19.60956955, -0.67913747, 0.70924246, -0.18105608, -0.05446253, 0.25572175, 0.56376612, -0.22724776, 100.00700378, 110.29517365, 30.92000008, 0.00000000
1, 1.0800, 118, -0.37744358, -1.62075293, 0.16871914, 48.50537109, -20.25185585, -307.61123657, -45.71762466, 11.63402462, -63.11020279, 94.40315247, -8.16854668, -19.59795189, -0.67670321, 0.71297169, -0.17224571, -0.06384051, 0.22828496, 0.63446069, -0.09741567, 100.00700378, 110.29517365, 30.92000008, 0.00000000
1, 1.0850, 119, -0.26679501, -1.69478607, 0.03446153, 45.54079056, -47.78095245, -303.81307983, -45.71762466, 11.63402462, -63.11020279, 94.64250946, -6.63498306, -19.71976471, -0.67404032, 0.71637589, -0.16432738, -0.07397160, 0.14452961, 0.70541412, 0.04139590, 100.00700378, 110.29517365, 30.92000008, 0.00000000
1, 1.0900, 120, -0.14515117, -1.70587444, -0.09160005, 42.23819733, -84.61296082, -295.64056396, -43.49605179, 10.64016342, -62.81789017, 94.88072968, -5.12670755, -20.02267265, -0.67111915, 0.71937364, -0.15770884, -0.08502139, 0.04950278, 0.71417189, 0.17209564, 100.00700378, 110.29517365, 30.92000008, 0.00000000
1, 1.0950, 121, -0.12677465, -1.59181559, -0.24715982, 43.65439606, -124.52510071, -279.29412842, -43.49605179, 10.64016342, -62.81789017, 95.13372803, -3.68148518, -20.52488708, -0.66781640, 0.72202152, -0.15275034, -0.09681744, 0.05701780, 0.59861791, 0.33236521, 100.00700378, 110.29517365, 30.92000008, 0.00000000
1, 1.4750, 122, -0.28641722, -0.92252231, 0.13771883, 11.76608562, -73.57652283, 72.07686615, -35.28208160, 11.95556831, -56.88395309, 101.06373596, -7.07696867, -36.24916840, -0.61777991, 0.72007132, -0.27697730, -0.15208182, 0.16409874, -0.05188423, 0.05004521, 100.00700378, 110.29517365, 30.92000008, 0.00000000
1, 1.4800, 123, -0.41454530, -0.94041014, 0.23085026, 12.94059849, -65.26371002, 70.08682251, -35.28208160, 11.95556831, -56.88395309, 101.17834473, -7.35835838, -36.63955307, -0.61704069, 0.71913815, -0.28102237, -0.15207765, 0.28710365, -0.03316659, -0.04161004, 100.00700378, 110.29517365, 30.92000008, 0.00000000
1, 1.4850, 124, -0.55696672, -0.94794261, 0.33413553, 11.32542992, -58.73867416, 67.56388855, -34.49283981, 13.38789845, -57.26395798, 101.28230286, -7.63294220, -36.99598312, -0.61640519, 0.71822369, -0.28479704, -0.15195440, 0.42448497, -0.02482920, -0.14355066, 100.00700378, 110.29517365, 30.92000008, 0.00000000
1, 1.4900, 125, -0.68541861, -0.92721581, 0.34286651, 7.56688309, -54.64286423, 63.88866806, -34.49283981, 13.38789845, -57.26395798, 101.36593628, -7.89296675, -37.32920837, -0.61590528, 0.71727020, -0.28831750, -0.15184629, 0.54836118, -0.04467099, -0.15120703, 100.00700378, 110.29517365, 30.92000008, 0.00000000
1, 1.4950, 126, -0.84193176, -0.88765287, 0.31033045, 6.65082264, -38.82363510, 58.94945908, -34.49283981, 13.38789845, -57.26395798, 101.43485260, -8.14385891, -37.57978058, -0.61559337, 0.71645051, -0.29124829, -0.15138663, 0.70057201, -0.08333050, -0.11787629, 100.00700378, 110.29517365, 30.92000008, 0.00000000
1, 1.5000, 127, -0.88812107, -0.87589824, 0.24778251, 7.62417603, -20.22261429, 54.89374924, -34.96053696, 13.53405380, -57.32241821, 101.49588013, -8.39292717, -37.73462677, -0.61545593, 0.71582556, -0.29355592, -0.15044208, 0.74261612, -0.09415857, -0.05447934, 100.00700378, 110.29517365, 30.92000008, 0.00000000
1, 1.5050, 128, -0.83957916, -0.87812543, 0.20141122, 9.99604130, 3.33507681, 50.90333176, -34.96053696, 13.53405380, -57.32241821, 101.55238342, -8.67392349, -37.76878738, -0.61556202, 0.71540719, -0.29526088, -0.14865093, 0.68960381, -0.09099002, -0.00716305, 100.00700378, 110.29517365, 30.92000008, 0.00000000
1, 1.5100, 129, -0.71468860, -0.90365529, 0.19612011, 13.15563202, 26.57394409, 47.42107391, -35.42823792, 13.68021011, -56.85472107, 101.60587311, -8.93258667, -37.68475723, -0.61579639, 0.71532428, -0.29610813, -0.14637588, 0.56004375, -0.06455839, -0.00082512, 100.00700378, 110.29517365, 30.92000008, 0.00000000
1, 1.5150, 130, -0.57578963, -0.92372382, 0.23159090, 14.61077785, 43.73357010, 44.09602356, -35.42823792, 13.68021011, -56.85472107, 101.65231323, -9.19216824, -37.51241302, -0.61618161, 0.71542841, -0.29639694, -0.14363594, 0.41657937, -0.04368569, -0.03530925, 100.00700378, 110.29517365, 30.92000008, 0.00000000
1, 1.5200, 131, -0.45350510, -0.92959797, 0.30530316, 14.99369431, 52.67930984, 41.57030487, -35.42823792, 13.68021011, -56.85472107, 101.69226074, -9.44848061, -37.29315567, -0.61664969, 0.71562558, -0.29636589, -0.14067915, 0.28967869, -0.03708097, -0.10817561, 100.00700378, 110.29517365, 30.92000008, 0.00000000
1, 1.5850, 132, -0.38315448, -0.94934440, 0.14358129, 12.97636318, 12.63910866, 37.20649719, -38.05904770, 14.76176548, -56.97164536, 102.27858734, -12.08804989, -36.62971497, -0.61809933, 0.71436012, -0.30604619, -0.11823122, 0.17421517, -0.00658049, 0.06164737, 100.00700378, 110.29517365, 30.92000008, 0.00000000
1, 1.5900, 133, -0.36458278, -0.94293284, 0.20931363, 13.93565750, 18.44657516, 36.49145508, -38.05904770, 14.76176548, -56.97164536, 102.33755493, -12.28571606, -36.57694244, -0.61809623, 0.71434611, -0.30675426, -0.11648453, 0.15211350, -0.01217693, -0.00319348, 100.00700378, 110.29517365, 30.92000008, 0.00000000
1, 1.5950, 134, -0.32952008, -0.94343138, 0.26416343, 14.00748062, 21.18013000, 35.81960297, -38.05904770, 14.76176548, -56.97164536, 102.39367676, -12.48306465, -36.50993347, -0.61812162, 0.71435440, -0.30736688, -0.11466947, 0.11354825, -0.01084073, -0.05716189, 100.00700378, 110.29517365, 30.92000008, 0.00000000
1, 1.6000, 135, -0.27566180, -0.94118285, 0.28729618, 13.67233658, 22.30450821, 35.28983307, -38.49751663, 15.46331501, -56.97164536, 102.44656372, -12.67907619, -36.43687057, -0.61816770, 0.71436375, -0.30792984, -0.11283793, 0.05628778, -0.01220584, -0.07942940, 100.00700378, 110.29517365, 30.92000008, 0.00000000
1, 1.6050, 136, -0.24047716, -0.95115995, 0.28801525, 12.67982197, 21.98653412, 35.11962891, -38.49751663, 15.46331501, -56.97164536, 102.50010681, -12.87457657, -36.36671066, -0.61820239, 0.71436918, -0.30850694, -0.11102240, 0.01777223, -0.00130423, -0.07937270, 100.00700378, 110.29517365, 30.92000008, 0.00000000
1, 1.6100, 137, -0.22787486, -0.95013440, 0.27408311, 12.57334042, 21.92096901, 34.90910339, -38.64366913, 12.80327415, -56.27009583, 102.54739380, -13.06847382, -36.29540253, -0.61827135, 0.71434677, -0.30906096, -0.10922694, 0.00189755, -0.00138134, -0.06473921, 100.00700378, 110.29517365, 30.92000008, 0.00000000
1, 1.6150, 138, -0.21287732, -0.94641459, 0.26037869, 12.38589382, 22.68851662, 34.78957748, -38.64366913, 12.80327415, -56.27009583, 102.59262848, -13.26266384, -36.22019577, -0.61835372, 0.71432221, -0.30958840, -0.10741287, -0.01636475, -0.00415890, -0.05039819, 100.00700378, 110.29517365, 30.92000008, 0.00000000
1, 1.6200, 139, -0.19267620, -0.94357646, 0.26243362, 12.39144135, 22.20369339, 34.67279434, -38.64366913, 12.80327415, -56.27009583, 102.63820648, -13.45582294, -36.14740372, -0.61842656, 0.71429455, -0.31012437, -0.10561664, -0.03985953, -0.00607374, -0.05181981, 100.00700378, 110.29517365, 30.92000008, 0.00000000
1, 1.6250, 140, -0.17569599, -0.94465470, 0.27644941, 11.87307453, 20.94582748, 34.64941025, -39.14060211, 12.39403629, -56.32855988, 102.68243408, -13.64755726, -36.08099747, -0.61849642, 0.71424472, -0.31069010, -0.10386687, -0.06013158, -0.00408863, -0.06522350, 100.00700378, 110.29517365, 30.92000008, 0.00000000
1, 1.6300, 141, -0.18296380, -0.93437409, 0.28281233, 11.67738724, 19.48112106, 34.65204620, -39.14060211, 12.39403629, -56.32855988, 102.72726440, -13.83776283, -36.02204895, -0.61855036, 0.71418071, -0.31129366, -0.10216477, -0.05611401, -0.01344643, -0.07103083, 100.00700378, 110.29517365, 30.92000008, 0.00000000
1, 1.6650, 142, -0.15241934, -0.93876004, 0.24963959, 8.69462013, 10.79406834, 37.07681274, -40.22215652, 15.78485775, -56.18240356, 103.05687714, -15.14063740, -35.82066345, -0.61853737, 0.71327752, -0.31665918, -0.09150850, -0.10857977, -0.00223437, -0.03359674, 100.00700378, 110.29517365, 30.92000008, 0.00000000
1, 1.6700, 143, -0.13350908, -0.94506919, 0.25971836, 8.03746891, 9.53887939, 38.35219574, -40.22215652, 15.78485775, -56.18240356, 103.09662628, -15.33811378, -35.81713104, -0.61856890, 0.71300483, -0.31762460, -0.09006308, -0.13081898, 0.00508436, -0.04318597, 100.00700378, 110.29517365, 30.92000008, 0.00000000
1, 1.6750, 144, -0.13378295, -0.95061636, 0.26270750, 7.21276236, 7.44502926, 39.67981720, -40.68985748, 15.66793346, -56.12393951, 103.13550568, -15.53972054, -35.82586670, -0.61860037, 0.71268094, -0.31868371, -0.08865783, -0.13393033, 0.01168142, -0.04575395, 100.00700378, 110.29517365, 30.92000008, 0.00000000
1, 1.6800, 145, -0.13741946, -0.94846511, 0.27983177, 6.31368160, 5.53376389, 40.62716675, -40.68985748, 15.66793346, -56.12393951, 103.17286682, -15.74377441, -35.84552002, -0.61863488, 0.71231002, -0.31981939, -0.08729841, -0.13375452, 0.01057491, -0.06248350, 100.00700378, 110.29517365, 30.92000008, 0.00000000
1, 1.6850, 146, -0.15418881, -0.94867218, 0.27854654, 5.61866140, 4.42250061, 41.69614792, -41.15755463, 14.99561501, -56.21163177, 103.20877838, -15.95177269, -35.87222290, -0.61867738, 0.71189886, -0.32101467, -0.08595389, -0.12045940, 0.01188090, -0.06087137, 100.00700378, 110.29517365, 30.92000008, 0.00000000
1, 1.6900, 147, -0.17244481, -0.94335377, 0.27439907, 5.80130196, 4.25982666, 42.74150848, -41.15755463, 14.99561501, -56.21163177, 103.24630737, -16.16465759, -35.90115356, -0.61871368, 0.71147490, -0.32224634, -0.08458329, -0.10574065, 0.00770134, -0.05639153, 100.00700378, 110.29517365, 30.92000008, 0.00000000
1, 1.6950, 148, -0.19069423, -0.95262372, 0.28010732, 5.87055540, 4.68461609, 43.94252777, -41.15755463, 14.99561501, -56.21163177, 103.28416443, -16.38385963, -35.92953110, -0.61875582, 0.71103495, -0.32350287, -0.08316568, -0.09115336, 0.01814164, -0.06178095, 100.00700378, 110.29517365, 30.92000008, 0.00000000
1, 1.7000, 149, -0.20251940, -0.95592570, 0.27582869, 5.15292406, 5.42155600, 44.91563416, -40.83601379, 16.92487526, -55.80239487, 103.31785583, -16.60862732, -35.95550919, -0.61883175, 0.71056193, -0.32476580, -0.08170870, -0.08305788, 0.02265758, -0.05722823, 100.00700378, 110.29517365, 30.92000008, 0.00000000
1, 1.7050, 150, -0.20732008, -0.95665491, 0.27376470, 5.39925861, 5.91671276, 46.15112686, -40.83601379, 16.92487526, -55.80239487, 103.35681152, -16.83205032, -35.98206329, -0.61887145, 0.71011597, -0.32602721, -0.08024794, -0.08202489, 0.02463036, -0.05484203, 100.00700378, 110.29517365, 30.92000008, 0.00000000
1, 1.7100, 151, -0.22931172, -0.95529151, 0.26572424, 4.92135859, 7.51608181, 47.56237030, -41.74217987, 16.57410049, -56.03624725, 103.38751221, -17.07207680, -36.00091934, -0.61898839, 0.70960081, -0.32731205, -0.07865711, -0.06391271, 0.02456458, -0.04657190, 100.00700378, 110.29517365, 30.92000008, 0.00000000
1, 1.7750, 152, -0.24216700, -0.85897088, 0.24866052, 0.29279727, 2.86006808, 64.40547180, -43.40835953, 15.11254025, -56.62086868, 103.72050476, -20.77043915, -36.29553604, -0.62140721, 0.70046395, -0.34674975, -0.05447897, -0.11178280, -0.05026574, -0.02888164, 100.00700378, 110.29517365, 30.92000008, 0.00000000
1, 1.7800, 153, -0.24179523, -0.86849856, 0.23838672, -0.05946966, 2.83021116, 65.53090668, -43.40835953, 15.11254025, -56.62086868, 103.74531555, -21.09218788, -36.36352158, -0.62160170, 0.69947952, -0.34867159, -0.05261072, -0.11735631, -0.03869146, -0.01870395, 100.00700378, 110.29517365, 30.92000008, 0.00000000
1, 1.7850, 154, -0.25466210, -0.87462652, 0.21522427, 0.80723721, 1.97737730, 66.55112457, -43.67144012, 17.65565681, -56.44548416, 103.77703857, -21.41784096, -36.43758392, -0.62175381, 0.69849545, -0.35064676, -0.05072713, -0.10971679, -0.03042242, 0.00439853, 100.00700378, 110.29517365, 30.92000008, 0.00000000
1, 1.7900, 155, -0.27814060, -0.87949932, 0.19819625, 1.09060252, 2.39822888, 67.99468231, -43.67144012, 17.65565681, -56.44548416, 103.81057739, -21.75097275, -36.51165009, -0.62190157, 0.69749182, -0.35265210, -0.04878676, -0.09156971, -0.02333571, 0.02138516, 100.00700378, 110.29517365, 30.92000008, 0.00000000
1, 1.7950, 156, -0.29125452, -0.87684155, 0.20552091, 1.81272805, 4.71038103, 69.16226959, -44.43145370, 17.30488205, -56.38702011, 103.84432983, -22.09245872, -36.57547379, -0.62205976, 0.69648874, -0.35462829, -0.04673279, -0.08397450, -0.02373513, 0.01403419, 100.00700378, 110.29517365, 30.92000008, 0.00000000
1, 1.8000, 157, -0.28713539, -0.88083637, 0.22626416, 2.21949649, 6.57300663, 70.07778931, -44.43145370, 17.30488205, -56.38702011, 103.87735748, -22.44057083, -36.63106918, -0.62223053, 0.69547999, -0.35657907, -0.04459069, -0.09374575, -0.01742800, -0.00672765, 100.00700378, 110.29517365, 30.92000008, 0.00000000
1, 1.8050, 158, -0.28155157, -0.88386846, 0.25048417, 2.27168584, 8.39265060, 71.20711517, -44.43145370, 17.30488205, -56.38702011, 103.91095734, -22.78980255, -36.68024826, -0.62239838, 0.69448304, -0.35849074, -0.04240324, -0.10503798, -0.01203424, -0.03098614, 100.00700378, 110.29517365, 30.92000008, 0.00000000
1, 1.8100, 159, -0.29182392, -0.88392580, 0.27050239, 2.04544687, 9.75224304, 72.53932953, -44.60683823, 18.00643158, -56.65010071, 103.93875122, -23.15361595, -36.72298431, -0.62261641, 0.69342387, -0.36042240, -0.04009969, -0.10058276, -0.00953140, -0.05114947, 100.00700378, 110.29517365, 30.92000008, 0.00000000
1, 1.8150, 160, -0.30853283, -0.89064443, 0.26465356, 1.83553648, 9.72281742, 73.69802094, -44.60683823, 18.00643158, -56.65010071, 103.96656799, -23.52300262, -36.76770401, -0.62283576, 0.69233364, -0.36238584, -0.03776830, -0.08976431, -0.00023544, -0.04553770, 100.00700378, 110.29517365, 30.92000008, 0.00000000
1, 1.8200, 161, -0.34868452, -0.89657891, 0.26126668, 2.51846242, 9.35655975, 74.69711304, -45.42531204, 18.59105492, -56.56240845, 103.99949646, -23.89677238, -36.81599426, -0.62302375, 0.69123811, -0.36438647, -0.03540958, -0.05556094, 0.00835418, -0.04239848, 100.00700378, 110.29517365, 30.92000008, 0.00000000
1, 1.8800, 162, -0.22499563, -1.03656268, 0.19412105, -4.57868958, -7.29073238, 98.33130646, -47.47150040, 19.52645493, -56.62086868, 104.22779846, -28.99340439, -37.34648514, -0.62650001, 0.67466539, -0.39027464, -0.00319067, -0.25841269, 0.18738112, 0.01860203, 100.00700378, 110.29517365, 30.92000008, 0.00000000
1, 1.8850, 163, -0.23062901, -1.01276994, 0.15621918, -3.65063047, -1.01421809, 101.30833435, -47.76381302, 20.16954041, -56.82548904, 104.28292084, -29.48336220, -37.49416351, -0.62659365, 0.67284030, -0.39327618, -0.00050388, -0.26005507, 0.16784579, 0.05636937, 100.00700378, 110.29517365, 30.92000008, 0.00000000
1, 1.8900, 164, -0.23416974, -1.00798357, 0.17497472, -1.99907446, 4.10097790, 103.58245850, -47.76381302, 20.16954041, -56.82548904, 104.33548737, -29.99045944, -37.61772537, -0.62671411, 0.67100847, -0.39619613, 0.00242350, -0.26419222, 0.16743025, 0.03732118, 100.00700378, 110.29517365, 30.92000008, 0.00000000
1, 1.8950, 165, -0.24964418, -1.01831949, 0.21758638, -0.94860327, 5.97241592, 105.82197571, -48.14381790, 20.02338409, -57.00087738, 104.39125061, -30.51062584, -37.73521805, -0.62682247, 0.66915262, -0.39912206, 0.00548510, -0.25663057, 0.18228912, -0.00566826, 100.00700378, 110.29517365, 30.92000008, 0.00000000
1, 1.9000, 166, -0.27390134, -1.04225457, 0.24349548, -1.31788898, 4.75601864, 108.49670410, -48.14381790, 20.02338409, -57.00087738, 104.45224762, -31.04214096, -37.86465454, -0.62690592, 0.66722584, -0.40215051, 0.00857815, -0.24037868, 0.21096015, -0.03198273, 100.00700378, 110.29517365, 30.92000008, 0.00000000
1, 1.9050, 167, -0.29988500, -1.05628908, 0.23455583, -2.16359305, 1.79057419, 111.31107330, -48.14381790, 20.02338409, -57.00087738, 104.51969910, -31.57150078, -38.01564789, -0.62694848, 0.66524559, -0.40527791, 0.01156357, -0.22233041, 0.22991902, -0.02337258, 100.00700378, 110.29517365, 30.92000008, 0.00000000
1, 1.9100, 168, -0.33728054, -1.06243849, 0.19191352, -2.71990871, 1.24396813, 113.58351898, -48.87459564, 20.90032196, -56.76702499, 104.59187317, -32.12300873, -38.17553711, -0.62697959, 0.66316134, -0.40853214, 0.01466909, -0.19288787, 0.24122316, 0.01893419, 100.00700378, 110.29517365, 30.92000008, 0.00000000
1, 1.9150, 169, -0.37738347, -1.06353068, 0.15496896, -2.36397696, 4.58136988, 115.44620514, -48.87459564, 20.90032196, -56.76702499, 104.65933228, -32.68753815, -38.32080841, -0.62704295, 0.66103518, -0.41173810, 0.01792811, -0.16097435, 0.24769309, 0.05544942, 100.00700378, 110.29517365, 30.92000008, 0.00000000
1, 1.9200, 170, -0.39949292, -1.05287147, 0.13721134, -0.91138595, 11.31120110, 117.13039398, -49.42998886, 21.33878899, -56.85472107, 104.71643066, -33.26855850, -38.43146133, -0.62716782, 0.65889639, -0.41479623, 0.02145266, -0.14727792, 0.24256319, 0.07262905, 100.00700378, 110.29517365, 30.92000008, 0.00000000
1, 1.9250, 171, -0.39499331, -1.06265461, 0.13657753, 1.04484463, 17.65339470, 119.18453979, -49.42998886, 21.33878899, -56.85472107, 104.76642609, -33.86741257, -38.50980759, -0.62733227, 0.65675062, -0.41772634, 0.02525036, -0.16043594, 0.25806582, 0.07253407, 100.00700378, 110.29517365, 30.92000008, 0.00000000
1, 1.9850, 172, -0.40126279, -1.66344762, 0.32413065, 12.42526722, 75.57646179, 140.96086121, -53.96083069, 24.14498711, -57.99473953, 104.92176819, -42.22940826, -38.11844635, -0.63051265, 0.62747693, -0.44900638, 0.08437934, -0.26912230, 0.94531465, -0.13624576, 100.00700378, 110.29517365, 30.92000008, 0.00000000
1, 1.9900, 173, -0.27203274, -1.76136982, 0.35760564, 11.25792027, 80.96201324, 141.10408020, -53.96083069, 24.14498711, -57.99473953, 104.78495026, -43.01462173, -37.83067703, -0.63125062, 0.62472034, -0.45057732, 0.09070501, -0.40853047, 1.05167127, -0.17353795, 100.00700378, 110.29517365, 30.92000008, 0.00000000
1, 1.9950, 174, -0.25439072, -1.79381609, 0.37209150, 10.37597942, 80.58264923, 142.08775330, -55.21777344, 25.63577843, -58.28704834, 104.63941193, -43.80361176, -37.54079819, -0.63196898, 0.62188989, -0.45216626, 0.09702571, -0.43623099, 1.09272933, -0.19221438, 100.00700378, 110.29517365, 30.92000008, 0.00000000
1, 2.0000, 175, -0.27861857, -1.86515141, 0.37798756, 8.95945263, 80.52244568, 144.10231018, -55.21777344, 25.63577843, -58.28704834, 104.48188019, -44.60175705, -37.24805069, -0.63268363, 0.61894870, -0.45379430, 0.10336761, -0.42200699, 1.17290890, -0.20257199, 100.00700378, 110.29517365, 30.92000008, 0.00000000
1, 2.0050, 176, -0.34233513, -1.92220116, 0.38405377, 7.83089256, 88.71563721, 144.83775330, -55.21777344, 25.63577843, -58.28704834, 104.27101135, -45.40895844, -36.89245987, -0.63355619, 0.61590624, -0.45518023, 0.10989588, -0.36828274, 1.23894572, -0.21368867, 100.00700378, 110.29517365, 30.92000008, 0.00000000
1, 2.0100, 177, -0.37057534, -1.97258341, 0.37415874, 7.78795481, 103.85145569, 144.04234314, -55.97778320, 24.70038033, -58.69628525, 103.97285461, -46.23346710, -36.42005157, -0.63469613, 0.61275637, -0.45611602, 0.11682792, -0.35002208, 1.29842985, -0.20971289, 100.00700378, 110.29517365, 30.92000008, 0.00000000
1, 2.0150, 178, -0.35427642, -2.03231192, 0.35579178, 8.72129345, 120.31575775, 141.93418884, -55.97778320, 24.70038033, -58.69628525, 103.57673645, -47.06517792, -35.81305695, -0.63610971, 0.60955215, -0.45650533, 0.12415189, -0.37626222, 1.36731720, -0.19824626, 100.00700378, 110.29517365, 30.92000008, 0.00000000
1, 2.0200, 179, -0.30246267, -2.05757809, 0.31830838, 7.08268642, 137.38320923, 138.43603516, -57.61473083, 28.09120178, -59.39783478, 103.05718994, -47.89608002, -35.05788422, -0.63788182, 0.60623765, -0.45630482, 0.13179049, -0.43783095, 1.40167642, -0.16876009, 100.00700378, 110.29517365, 30.92000008, 0.00000000
1, 2.0750, 180, -0.81110466, -0.96380973, 0.06306311, -20.34654045, 95.92187500, 108.52835846, -63.95790482, 31.07278633, -63.43174362, 93.90231323, -55.49871063, -23.83428955, -0.66135585, 0.56715798, -0.44452891, 0.20816928, -0.01175477, 0.39668599, -0.02603457, 100.00700378, 110.29517365, 30.92000008, 0.00000000
1, 2.0800, 181, -0.81891692, -0.78617442, 0.04370522, -13.70591164, 110.44235992, 103.81252289, -64.42560577, 31.89126015, -63.69482422, 93.06978607, -56.04967499, -22.90878105, -0.66287833, 0.56374192, -0.44401434, 0.21363232, -0.00939086, 0.22658667, -0.01495548, 100.00700378, 110.29517365, 30.92000008, 0.00000000
1, 2.0850, 182, -0.78515440, -0.73092198, 0.20305334, -7.08734417, 111.79206848, 97.80157471, -64.42560577, 31.89126015, -63.69482422, 92.23077393, -56.56323624, -21.94153595, -0.66429150, 0.56059688, -0.44323248, 0.21907289, -0.04863700, 0.17824838, -0.18266660, 100.00700378, 110.29517365, 30.92000008, 0.00000000
1, 2.0900, 183, -0.73372978, -0.65696347, 0.32881725, -9.09752655, 97.00240326, 90.63945770, -64.42560577, 31.89126015, -63.69482422, 91.46688843, -57.03119278, -21.08158684, -0.66551095, 0.55765146, -0.44270754, 0.22389735, -0.10497280, 0.11080262, -0.31599355, 100.00700378, 110.29517365, 30.92000008, 0.00000000
1, 2.0950, 184, -0.71913821, -0.58340394, 0.36400071, -13.93621540, 71.88887787, 83.02192688, -65.71177673, 32.44665146, -65.01023102, 90.85173035, -57.45312500, -20.43170547, -0.66641808, 0.55494070, -0.44276330, 0.22779064, -0.12375577, 0.04339151, -0.35735989, 100.00700378, 110.29517365, 30.92000008, 0.00000000
1, 2.1000, 185, -0.76262212, -0.53933609, 0.25439793, -19.37639618, 52.28541565, 74.91244507, -65.71177673, 32.44665146, -65.01023102, 90.34846497, -57.83023453, -19.94948578, -0.66714531, 0.55241084, -0.44323951, 0.23086426, -0.08363724, 0.00515864, -0.25279239, 100.00700378, 110.29517365, 30.92000008, 0.00000000
1, 2.1050, 186, -0.77063447, -0.52309048, 0.18640663, -23.25177383, 46.73421478, 63.82306671, -65.68254852, 32.44665146, -64.89330292, 89.87550354, -58.14799500, -19.52264786, -0.66791457, 0.55007654, -0.44366923, 0.23337457, -0.07851902, -0.00611055, -0.18926647, 100.00700378, 110.29517365, 30.92000008, 0.00000000
1, 2.1100, 187, -0.68622983, -0.52521563, 0.16603996, -22.00088882, 52.55026245, 52.62392044, -65.68254852, 32.65127182, -64.89330292, 89.33743286, -58.40915298, -19.01867104, -0.66891921, 0.54788166, -0.44361776, 0.23574582, -0.16542619, 0.00018938, -0.17342293, 100.00700378, 110.29517365, 30.92000008, 0.00000000
1, 2.1150, 188, -0.62196010, -0.50798345, 0.20711221, -23.86762047, 51.94838333, 43.58987427, -65.68254852, 32.65127182, -64.89330292, 88.78817749, -58.62270737, -18.51391220, -0.67004269, 0.54580718, -0.44338319, 0.23779979, -0.23185791, -0.01368430, -0.21927272, 100.00700378, 110.29517365, 30.92000008, 0.00000000
1, 2.1200, 189, -0.57184100, -0.45459086, 0.18334131, -28.63035583, 43.63715744, 33.98830795, -66.50102234, 33.70359421, -65.50716400, 88.27906799, -58.78700256, -18.08514595, -0.67121255, 0.54385966, -0.44320992, 0.23928085, -0.28352106, -0.06429513, -0.19997045, 100.00700378, 110.29517365, 30.92000008, 0.00000000
1, 2.1500, 190, -1.13740456, 0.23301665, -0.11280526, -27.98468781, 4.72274923, -6.41620970, -66.93949127, 32.59280777, -66.26717377, 86.36576080, -59.02195358, -17.04748154, -0.67752600, 0.53572929, -0.44348741, 0.23931478, 0.28023022, -0.74638116, 0.07807535, 100.00700378, 110.29517365, 30.92000008, 0.00000000
1, 2.1550, 191, -1.35569465, 0.18166858, -0.06942576, -18.87015915, 0.03035773, -10.85034275, -66.79333496, 33.23589706, -66.93949127, 86.27415466, -58.99409866, -17.05124664, -0.67802691, 0.53527671, -0.44355571, 0.23878191, 0.49873465, -0.69557965, 0.03307100, 100.00700378, 110.29517365, 30.92000008, 0.00000000
1, 2.1600, 192, -1.37969398, 0.05592252, -0.01139427, -13.47421932, 2.73579264, -15.72679996, -66.79333496, 33.23589706, -66.93949127, 86.19269562, -58.91487503, -17.03501511, -0.67855823, 0.53515232, -0.44324940, 0.23811918, 0.52313888, -0.57079196, -0.02602452, 100.00700378, 110.29517365, 30.92000008, 0.00000000
1, 2.1650, 193, -1.12588739, -0.06064594, 0.14868544, 7.96578312, 10.23222351, -24.37377548, -66.79333496, 33.23589706, -66.93949127, 86.16157532, -58.78970718, -16.95246887, -0.67882383, 0.53575230, -0.44229525, 0.23778711, 0.26993501, -0.45611084, -0.18620130, 100.00700378, 110.29517365, 30.92000008, 0.00000000
1, 2.1700, 194, -0.91039968, -0.12440751, 0.24123330, 14.67208862, 9.46717548, -33.69610596, -66.58871460, 32.79742813, -67.23180389, 86.17581177, -58.61819839, -16.88377953, -0.67901373, 0.53673720, -0.44107565, 0.23728873, 0.05566520, -0.39488333, -0.27843019, 100.00700378, 110.29517365, 30.92000008, 0.00000000
1, 2.1750, 195, -0.75975209, -0.11615546, 0.17626600, 13.18879890, 9.49700546, -42.79008102, -66.58871460, 32.79742813, -67.23180389, 86.18771362, -58.40134811, -16.82102776, -0.67933095, 0.53785056, -0.43965662, 0.23649164, -0.09294891, -0.40609211, -0.21314028, 100.00700378, 110.29517365, 30.92000008, 0.00000000
1, 2.1800, 196, -0.62152308, -0.07656980, 0.07277885, 14.58834076, 15.20049381, -52.13603973, -66.29640198, 32.82666016, -67.23180389, 86.16623688, -58.13591385, -16.71076012, -0.67981803, 0.53912294, -0.43783322, 0.23557590, -0.22860274, -0.44924957, -0.10959860, 100.00700378, 110.29517365, 30.92000008, 0.00000000
1, 2.1850, 197, -0.46235570, -0.05797518, 0.04546867, 18.83462334, 26.67590904, -61.48581696, -66.29640198, 32.82666016, -67.23180389, 86.08100891, -57.81975555, -16.50002861, -0.68051589, 0.54057801, -0.43540245, 0.23473041, -0.38489664, -0.47224510, -0.08279134, 100.00700378, 110.29517365, 30.92000008, 0.00000000
1, 2.1900, 198, -0.31064552, -0.06559332, 0.07701302, 19.86752510, 36.46146774, -69.78340149, -66.29640198, 32.82666016, -67.23180389, 85.93173218, -57.45848846, -16.20674324, -0.68145353, 0.54211485, -0.43247002, 0.23388517, -0.53341889, -0.46975023, -0.11557931, 100.00700378, 110.29517365, 30.92000008, 0.00000000
1, 2.1950, 199, -0.20853989, -0.05795003, 0.06249158, 14.04736805, 36.46995544, -78.08657837, -66.00408936, 31.24817276, -66.88102722, 85.76313782, -57.05545044, -15.92397213, -0.68260467, 0.54362702, -0.42939562, 0.23267993, -0.63179266, -0.48300901, -0.10278903, 100.00700378, 110.29517365, 30.92000008, 0.00000000
1, 2.2400, 200, -0.22525850, -0.08819517, -0.11761795, 17.01528931, -11.57655144, -168.54748535, -65.62408447, 29.69891739, -66.88102722, 86.72785950, -51.18268585, -16.36643982, -0.69122630, 0.56826580, -0.39897910, 0.20023967, -0.55590379, -0.53451139, 0.08067895, 100.00700378, 110.29517365, 30.92000008, 0.00000000
1, 2.2450, 201, -0.24304077, -0.09698075, -0.11408851, 19.33049202, -16.33815765, -175.45553589, -64.57176208, 28.20812607, -67.11487579, 86.98280334, -50.31119156, -16.57368279, -0.69198096, 0.57201856, -0.39495263, 0.19485791, -0.52864051, -0.53756720, 0.07913937, 100.00700378, 110.29517365, 30.92000008, 0.00000000
1, 2.2500, 202, -0.26526392, -0.11220198, -0.10538696, 23.17521286, -21.02571106, -181.99571228, -64.57176208, 28.20812607, -67.11487579, 87.27673340, -49.40758896, -16.80959129, -0.69257146, 0.57600385, -0.39084777, 0.18921514, -0.49640840, -0.53449595, 0.07291788, 100.00700378, 110.29517365, 30.92000008, 0.00000000
1, 2.2550, 203, -0.29843801, -0.13474211, -0.09545782, 27.64761353, -24.53823471, -187.91998291, -63.84098053, 27.03887749, -66.70564270, 87.59873962, -48.47765350, -17.05892944, -0.69300383, 0.58018875, -0.38664407, 0.18339321, -0.45271158, -0.52433318, 0.06592073, 100.00700378, 110.29517365, 30.92000008, 0.00000000
1, 2.2600, 204, -0.32960650, -0.16337785, -0.08887555, 31.60685921, -26.73746490, -193.59608459, -63.84098053, 27.03887749, -66.70564270, 87.94628906, -47.51551819, -17.31720352, -0.69328296, 0.58459127, -0.38229722, 0.17737161, -0.41047704, -0.50826693, 0.06266939, 100.00700378, 110.29517365, 30.92000008, 0.00000000
1, 2.2650, 205, -0.35599181, -0.19766843, -0.08752371, 34.99436951, -28.73123741, -199.33013916, -63.84098053, 27.03887749, -66.70564270, 88.30957794, -46.52395248, -17.57798386, -0.69343370, 0.58916205, -0.37780881, 0.17116794, -0.37243998, -0.48673162, 0.06501950, 100.00700378, 110.29517365, 30.92000008, 0.00000000
1, 2.2700, 206, -0.39157400, -0.24212283, -0.08221207, 37.59802628, -31.00356293, -206.81344604, -63.25635529, 25.69424057, -66.17948151, 88.68536377, -45.49414825, -17.84257698, -0.69347876, 0.59390271, -0.37314633, 0.16470754, -0.32458669, -0.45524395, 0.06368604, 100.00700378, 110.29517365, 30.92000008, 0.00000000
1, 2.2750, 207, -0.40698853, -0.26283488, -0.07467439, 38.25357819, -33.76499557, -213.47741699, -63.25635529, 25.69424057, -66.17948151, 89.06519318, -44.43011475, -18.11319923, -0.69344866, 0.59873819, -0.36835742, 0.15796944, -0.29622126, -0.44771254, 0.06043882, 100.00700378, 110.29517365, 30.92000008, 0.00000000
1, 2.2800, 208, -0.42741662, -0.29752681, -0.05208897, 37.68336487, -38.54535675, -222.10179138, -61.67787170, 24.14498711, -65.59485626, 89.45170593, -43.32207489, -18.40299225, -0.69335002, 0.60367018, -0.36345741, 0.15082091, -0.26208445, -0.42648888, 0.04239331, 100.00700378, 110.29517365, 30.92000008, 0.00000000
1, 2.2850, 209, -0.43726286, -0.32302547, -0.03786087, 36.63902664, -41.91374969, -228.75860596, -61.67787170, 24.14498711, -65.59485626, 89.83408356, -42.17951584, -18.70062065, -0.69319832, 0.60863578, -0.35845417, 0.14334999, -0.23780432, -0.41455975, 0.03288420, 100.00700378, 110.29517365, 30.92000008, 0.00000000
1, 2.3300, 210, -0.48317119, -0.55725741, 0.03741185, 33.48064041, -28.99798203, -286.59716797, -56.38702011, 18.24028015, -63.63636398, 92.57615662, -30.44681931, -20.59047890, -0.68997031, 0.65380019, -0.30318248, 0.06757759, -0.02915091, -0.30079627, -0.00165541, 100.00700378, 110.29517365, 30.92000008, 0.00000000
1, 2.3350, 211, -0.45752206, -0.56645870, 0.09357827, 29.45495415, -21.83250999, -296.40005493, -56.38702011, 18.24028015, -63.63636398, 92.74414825, -28.96107483, -20.63958359, -0.68967104, 0.65859675, -0.29528752, 0.05839134, -0.03260501, -0.30448383, -0.05450851, 100.00700378, 110.29517365, 30.92000008, 0.00000000
1, 2.3400, 212, -0.48268270, -0.59031928, 0.12101050, 26.62152100, -15.05682755, -301.10974121, -56.38702011, 18.24028015, -63.63636398, 92.87562561, -27.45335579, -20.64391708, -0.68943405, 0.66323775, -0.28700998, 0.04921112, 0.01551726, -0.29309601, -0.07928801, 100.00700378, 110.29517365, 30.92000008, 0.00000000
1, 2.3450, 213, -0.51757294, -0.62543464, 0.08817394, 26.45080757, -7.68649530, -304.96292114, -54.16544724, 17.53873062, -63.69482422, 92.98552704, -25.92821503, -20.60241890, -0.68918097, 0.66778898, -0.27834904, 0.04011661, 0.07412075, -0.26989925, -0.04421300, 100.00700378, 110.29517365, 30.92000008, 0.00000000
1, 2.3500, 214, -0.51052779, -0.67723715, 0.05256031, 29.14905357, 0.55741161, -309.35754395, -54.16544724, 17.53873062, -63.69482422, 93.08889771, -24.38327408, -20.51160812, -0.68883246, 0.67233926, -0.26925671, 0.03115460, 0.09141304, -0.22952279, -0.00641812, 100.00700378, 110.29517365, 30.92000008, 0.00000000
1, 2.3550, 215, -0.46804520, -0.74375272, 0.06179436, 31.52304268, 9.02066517, -314.30364990, -52.49926758, 15.72639561, -62.75942612, 93.18711090, -22.81834412, -20.37159157, -0.68838859, 0.67687935, -0.25972506, 0.02232829, 0.07378536, -0.17399061, -0.01346653, 100.01300812, 109.79004669, 31.03999901, 0.00000000
1, 2.3600, 216, -0.44366813, -0.81961191, 0.10188366, 31.95529747, 15.99975014, -320.52230835, -52.49926758, 15.72639561, -62.75942612, 93.27517700, -21.22214890, -20.19079590, -0.68788761, 0.68136680, -0.24973516, 0.01350631, 0.07491491, -0.10866070, -0.05156536, 100.01300812, 109.79004669, 31.03999901, 0.00000000
1, 2.3650, 217, -0.43746203, -0.90532720, 0.11735698, 30.98931313, 20.63252640, -328.18118286, -52.49926758, 15.72639561, -62.75942612, 93.35345459, -19.58928108, -19.98251724, -0.68733144, 0.68576705, -0.23932858, 0.00457817, 0.09515667, -0.03294511, -0.06527591, 100.01300812, 109.79004669, 31.03999901, 0.00000000
1, 2.3700, 218, -0.42459300, -0.99907494, 0.08939797, 31.68518448, 23.18467140, -335.63040161, -50.57000732, 11.57556248, -63.11020279, 93.43561554, -17.92022705, -19.75826454, -0.68663704, 0.69011915, -0.22857203, -0.00449164, 0.10972354, 0.05142983, -0.03555943, 100.01300812, 109.79004669, 31.03999901, 0.00000000
1, 2.3750, 219, -0.33364260, -1.09696329, 0.07804769, 35.42138290, 24.49142838, -342.34170532, -50.57000732, 11.57556248, -63.11020279, 93.53982544, -16.21837234, -19.52442932, -0.68568969, 0.69449657, -0.21752442, -0.01368591, 0.04700145, 0.14056441, -0.02198875, 100.01300812, 109.79004669, 31.03999901, 0.00000000
1, 2.4100, 220, -0.19697833, -1.71657813, -0.17255501, 57.53126144, -159.65277100, -302.81152344, -43.26220322, 11.19555664, -61.76556396, 95.57085419, -4.61477995, -20.37739754, -0.66605198, 0.72357798, -0.15752979, -0.08940987, 0.11012159, 0.72525847, 0.26444644, 100.01300812, 109.79004669, 31.03999901, 0.00000000
1, 2.4150, 221, -0.42496529, -1.63479912, -0.24204654, 65.74374390, -182.31674194, -287.19213867, -40.51446915, 10.49400711, -61.41479111, 95.94744110, -3.09508824, -21.14454079, -0.66154754, 0.72664386, -0.15401597, -0.10306602, 0.36502588, 0.64224899, 0.34004930, 100.01300812, 109.79004669, 31.03999901, 0.00000000
1, 2.4200, 222, -0.62814367, -1.55536103, -0.18415996, 80.87357330, -176.63986206, -270.00372314, -40.51446915, 10.49400711, -61.41479111, 96.37910461, -1.65837562, -21.88070107, -0.65653074, 0.72990006, -0.15091603, -0.11592132, 0.59348971, 0.56227160, 0.28915083, 100.01300812, 109.79004669, 31.03999901, 0.00000000
1, 2.4250, 223, -0.74509817, -1.51627541, 0.03082627, 93.21183014, -140.18853760, -253.09786987, -40.51446915, 10.49400711, -61.41479111, 96.85183716, -0.32046488, -22.43341827, -0.65131700, 0.73344451, -0.14734007, -0.12702873, 0.73369193, 0.52320027, 0.08205762, 100.01300812, 109.79004669, 31.03999901, 0.00000000
1, 2.4300, 224, -0.77653152, -1.51262724, 0.31207475, 94.73974609, -98.64586639, -238.87738037, -37.85442734, 10.28938866, -60.30400467, 97.32094574, 0.92615700, -22.77742767, -0.64629507, 0.73705524, -0.14301963, -0.13637346, 0.78655761, 0.52008557, -0.19106160, 100.01300812, 109.79004669, 31.03999901, 0.00000000
1, 2.4350, 225, -0.77847379, -1.54308200, 0.56193465, 85.30780792, -81.10314178, -228.59466553, -37.85442734, 10.28938866, -60.30400467, 97.73789978, 2.11304259, -23.03150177, -0.64166033, 0.74034059, -0.13845804, -0.14490442, 0.80880839, 0.55154562, -0.43354869, 100.01300812, 109.79004669, 31.03999901, 0.00000000
1, 2.4400, 226, -0.82293171, -1.58213973, 0.61063373, 73.89670563, -85.67874908, -220.49647522, -35.77901077, 10.28938866, -59.31014252, 98.09178925, 3.26446414, -23.30605316, -0.63733923, 0.74313927, -0.13419856, -0.15340653, 0.87333065, 0.59222710, -0.47622430, 100.01300812, 109.79004669, 31.03999901, 0.00000000
1, 2.4450, 227, -0.96696913, -1.55139554, 0.34783602, 42.94798660, -89.72182465, -214.02967834, -35.77901077, 10.81555080, -59.31014252, 98.28433990, 4.38762712, -23.60002518, -0.63396996, 0.74493003, -0.13004138, -0.16202082, 1.03775454, 0.56370348, -0.20983019, 100.01300812, 109.79004669, 31.03999901, 0.00000000
1, 2.4500, 228, -0.99759024, -1.46693969, 0.19100116, 34.98176193, -64.76690674, -207.30450439, -35.77901077, 10.81555080, -59.31014252, 98.44207764, 5.46034575, -23.77197266, -0.63098472, 0.74656588, -0.12534291, -0.16966736, 1.08766782, 0.48143673, -0.05034558, 100.01300812, 109.79004669, 31.03999901, 0.00000000
1, 2.4550, 229, -0.90413880, -1.35609913, 0.18790676, 34.12159729, -35.73075104, -198.25903320, -33.29435730, 10.26015759, -59.63168716, 98.60718536, 6.45907211, -23.80335999, -0.62821192, 0.74827415, -0.12016788, -0.17605527, 1.01193547, 0.37276268, -0.04433221, 100.01300812, 109.79004669, 31.03999901, 0.00000000
1, 2.5150, 230, 0.07039822, -0.87758291, 0.27769506, -0.43904775, -43.75820541, 45.67236328, -29.84507370, 11.10786343, -57.96550751, 99.95935822, 11.38268185, -24.38926125, -0.60940874, 0.75831699, -0.09863554, -0.20939772, 0.12715831, -0.08821040, -0.10919145, 100.01300812, 109.79004669, 31.03999901, 0.00000000
1, 2.5200, 231, -0.00412611, -0.87463844, 0.26427048, -3.97936988, -50.14850235, 62.60047913, -29.84507370, 11.10786343, -57.96550751, 99.88045502, 11.11702061, -24.69563866, -0.60988903, 0.75748360, -0.10200505, -0.20940186, 0.19749573, -0.09217778, -0.09702167, 100.01300812, 109.79004669, 31.03999901, 0.00000000
1, 2.5250, 232, -0.07878496, -0.90957880, 0.28836620, -6.90906286, -57.27417755, 78.45173645, -29.84507370, 11.10786343, -57.96550751, 99.77943420, 10.77875805, -25.05069351, -0.61056900, 0.75642616, -0.10606001, -0.20922795, 0.26661041, -0.05861212, -0.12280487, 100.01300812, 109.79004669, 31.03999901, 0.00000000
1, 2.5300, 233, -0.08327453, -0.97122967, 0.38052705, -6.37455702, -63.00604630, 92.60959625, -28.79274940, 9.64630222, -57.76088715, 99.67625427, 10.37487221, -25.44549942, -0.61132008, 0.75525045, -0.11073776, -0.20885795, 0.26420194, 0.00134869, -0.21661434, 100.01300812, 109.79004669, 31.03999901, 0.00000000
1, 2.5350, 234, -0.00190001, -1.02348542, 0.46882457, -4.68429470, -71.29296112, 101.85463715, -28.79274940, 9.64630222, -57.76088715, 99.57604218, 9.93160152, -25.88832283, -0.61204278, 0.75398034, -0.11595370, -0.20849989, 0.17513752, 0.05183692, -0.30627018, 100.01300812, 109.79004669, 31.03999901, 0.00000000
1, 2.5400, 235, 0.04176637, -1.09700668, 0.46692094, -12.00433350, -75.93742371, 109.93418121, -29.90353584, 10.84478188, -57.70242691, 99.43804932, 9.45131969, -26.35957718, -0.61303639, 0.75240779, -0.12148979, -0.20810845, 0.12340188, 0.12363142, -0.30625200, 100.01300812, 109.79004669, 31.03999901, 0.00000000
1, 2.5450, 236, 0.06694350, -1.01458704, 0.41877964, -24.59165955, -81.91870880, 123.97270203, -29.90353584, 10.84478188, -57.70242691, 99.23521423, 8.90499401, -26.87000084, -0.61451465, 0.75034183, -0.12752885, -0.20759413, 0.08924279, 0.03928743, -0.26088995, 100.01300812, 109.79004669, 31.03999901, 0.00000000
1, 2.5500, 237, 0.12729803, -0.88102281, 0.59836143, -7.25091791, -98.05247498, 137.80891418, -29.90353584, 10.84478188, -57.70242691, 99.11104584, 8.30169010, -27.46943283, -0.61542982, 0.74848264, -0.13460332, -0.20712781, 0.01823348, -0.09656663, -0.44259396, 100.01300812, 109.79004669, 31.03999901, 0.00000000
1, 2.5550, 238, 0.20465995, -1.00964892, 0.67872071, 12.88247776, -96.05489349, 134.34039307, -29.93276787, 10.58170128, -57.43934631, 99.10363007, 7.71512651, -28.05364609, -0.61558104, 0.74720794, -0.14168377, -0.20655794, -0.06967377, 0.03036989, -0.52331811, 100.01300812, 109.79004669, 31.03999901, 0.00000000
1, 2.5600, 239, 0.46472710, -1.34365344, 0.63103497, 14.49090290, -63.30705261, 112.77223206, -29.93276787, 10.58170128, -57.43934631, 99.12488556, 7.20807028, -28.45810127, -0.61571670, 0.74632567, -0.14718887, -0.20549089, -0.33872628, 0.36333534, -0.47482887, 100.01300812, 109.79004669, 31.03999901, 0.00000000
1, 2.6650, 240, -1.23437703, -0.79482651, 0.72113043, 27.29040527, -30.71621895, 98.90956879, -30.51739311, 10.34785175, -57.55627060, 99.04252625, -3.26950812, -41.19465637, -0.61505538, 0.70521832, -0.28482056, -0.20796974, 1.17756867, -0.19253364, -0.56921607, 100.01300812, 109.79004669, 31.03999901, 0.00000000
1, 2.6700, 241, -1.26517284, -0.68880892, 0.53046227, 5.19867802, -45.08351135, 85.77387238, -30.51739311, 10.34785175, -57.55627060, 99.08710480, -3.65791249, -41.48473740, -0.61510360, 0.70388258, -0.28871456, -0.20698020, 1.20169854, -0.29762387, -0.37724894, 100.01300812, 109.79004669, 31.03999901, 0.00000000
1, 2.6750, 242, -1.49815416, -0.67738402, 0.36914295, 5.88262129, -29.40489006, 80.00473022, -30.51739311, 10.34785175, -57.55627060, 99.13140869, -4.02989340, -41.69305420, -0.61526716, 0.70276797, -0.29201108, -0.20565304, 1.42857575, -0.30825520, -0.21588211, 100.01300812, 109.79004669, 31.03999901, 0.00000000
1, 2.6800, 243, -1.72591722, -0.76005113, 0.25435784, 19.93447495, 13.55549526, 75.80232239, -30.51739311, 11.04940033, -57.05933762, 99.23137665, -4.41464329, -41.68589020, -0.61550111, 0.70246112, -0.29414457, -0.20294274, 1.64999950, -0.22469376, -0.10042231, 100.01300812, 109.79004669, 31.03999901, 0.00000000
1, 2.6850, 244, -1.74245358, -0.92182815, 0.19471484, 33.03760910, 61.70426178, 72.78723145, -30.51739311, 11.04940033, -57.05933762, 99.37747955, -4.82288790, -41.43871307, -0.61591405, 0.70296156, -0.29500073, -0.19866966, 1.65968823, -0.06188940, -0.03882276, 100.01300812, 109.79004669, 31.03999901, 0.00000000
1, 2.6900, 245, -1.52966285, -1.10156500, 0.15115112, 36.09735870, 102.20008850, 70.10314941, -31.89126015, 11.57556248, -56.85472107, 99.51932526, -5.25140667, -40.98968506, -0.61671478, 0.70391250, -0.29470330, -0.19318432, 1.43962884, 0.11896304, 0.00738195, 100.01300812, 109.79004669, 31.03999901, 0.00000000
1, 2.6950, 246, -1.11109841, -1.20452833, 0.08018219, 31.04596138, 130.71636963, 65.83467102, -31.89126015, 11.57556248, -56.85472107, 99.61879730, -5.68333817, -40.39645767, -0.61797816, 0.70499682, -0.29345295, -0.18699707, 1.01372850, 0.22305676, 0.08100533, 100.01300812, 109.79004669, 31.03999901, 0.00000000
1, 2.7000, 247, -0.62959564, -1.24746740, -0.00930517, 26.10465622, 141.01274109, 60.25422668, -31.89126015, 11.57556248, -56.85472107, 99.68347168, -6.09718752, -39.74773788, -0.61945254, 0.70607197, -0.29169998, -0.18069924, 0.52516389, 0.26707983, 0.17273027, 100.01300812, 109.79004669, 31.03999901, 0.00000000
1, 2.7050, 248, -0.20284970, -1.26221836, -0.10206302, 22.32834244, 131.71472168, 55.87441254, -33.20666504, 9.23706532, -57.20549393, 99.72234344, -6.48170376, -39.14049530, -0.62090743, 0.70696223, -0.29000241, -0.17486322, 0.09184292, 0.28284562, 0.26719308, 100.01300812, 109.79004669, 31.03999901, 0.00000000
1, 2.7100, 249, 0.10760655, -1.25043058, -0.17009935, 18.05264091, 108.35416412, 53.82973480, -33.20666504, 9.23706532, -57.20549393, 99.75620270, -6.83760643, -38.64812469, -0.62211859, 0.70759404, -0.28885284, -0.16983309, -0.22473034, 0.27197984, 0.33646309, 100.01300812, 109.79004669, 31.03999901, 0.00000000
1, 2.7400, 250, 0.00795129, -0.99378300, 0.35839698, 12.89740086, -32.12087250, 70.80724335, -35.72055054, 11.72171879, -56.35778809, 100.17172241, -8.90713787, -37.82604218, -0.62447041, 0.70725685, -0.29499507, -0.15100454, -0.16230635, 0.02050886, -0.18584633, 100.01300812, 109.79004669, 31.03999901, 0.00000000
1, 2.7450, 251, -0.09677612, -0.89172983, 0.36009502, 1.17946863, -25.50504684, 68.13465881, -35.72055054, 11.72171879, -56.35778809, 100.20802307, -9.22016525, -38.01364136, -0.62454802, 0.70624530, -0.29779816, -0.14991245, -0.06301507, -0.08055837, -0.18699066, 100.01300812, 109.79004669, 31.03999901, 0.00000000
1, 2.7500, 252, 0.00805832, -0.88513207, 0.34232432, 7.98152018, -32.66602707, 65.59899139, -36.50979233, 13.30020428, -56.85472107, 100.28482819, -9.51414394, -38.23516083, -0.62429988, 0.70539796, -0.30075970, -0.14902045, -0.17296180, -0.08609842, -0.16799942, 100.01300812, 109.79004669, 31.03999901, 0.00000000
1, 2.7550, 253, -0.04580361, -0.89526117, 0.34290883, 7.64208317, -59.96261215, 67.89707947, -36.50979233, 13.30020428, -56.85472107, 100.39239502, -9.79166412, -38.59720612, -0.62365395, 0.70437115, -0.30453476, -0.14891478, -0.12394992, -0.07486088, -0.16720985, 100.01300812, 109.79004669, 31.03999901, 0.00000000
1, 2.7600, 254, -0.24260043, -0.97856748, 0.26725101, 8.56778717, -83.44474792, 68.44725037, -36.50979233, 13.30020428, -56.85472107, 100.51869202, -10.05315590, -39.07633209, -0.62271637, 0.70314884, -0.30896297, -0.14949246, 0.06846517, 0.00974009, -0.09020147, 100.01300812, 109.79004669, 31.03999901, 0.00000000
1, 2.7650, 255, -0.46030164, -0.98213518, 0.17307346, -0.07911165, -86.97494507, 64.37207031, -35.86670685, 13.53405380, -57.08856964, 100.60632324, -10.29062080, -39.57022095, -0.62195659, 0.70170695, -0.31329969, -0.15040217, 0.28222618, 0.01450903, 0.00498850, 100.01300812, 109.79004669, 31.03999901, 0.00000000
1, 2.7700, 256, -0.61685681, -0.88229609, 0.09216225, -0.96070570, -65.00860596, 60.20987320, -35.86670685, 13.53405380, -57.08856964, 100.67104340, -10.52711678, -39.95112610, -0.62148559, 0.70042890, -0.31690022, -0.15076265, 0.43495280, -0.08426187, 0.08666942, 100.01300812, 109.79004669, 31.03999901, 0.00000000
1, 2.7750, 257, -0.74074191, -0.86582768, 0.15704487, 4.98505163, -42.28324127, 58.81809235, -35.86670685, 13.53405380, -57.08856964, 100.74597931, -10.77717304, -40.21768570, -0.62112951, 0.69947296, -0.31987578, -0.15038371, 0.55442762, -0.09982490, 0.02258226, 100.01300812, 109.79004669, 31.03999901, 0.00000000
1, 2.8250, 258, -0.25713745, -0.95561790, 0.21046978, 7.69110775, 32.84891510, 27.69550896, -36.50979233, 12.92019844, -56.73779678, 101.06530762, -12.85385990, -39.93553543, -0.62318188, 0.69672137, -0.32884359, -0.13448255, 0.03484739, -0.00170773, -0.02556068, 100.01300812, 109.79004669, 31.03999901, 0.00000000
1, 2.8300, 259, -0.09049273, -0.98117054, 0.17734027, 6.88187361, 29.02652168, 27.01881599, -36.50979233, 12.92019844, -56.73779678, 101.07324982, -13.01403046, -39.81571579, -0.62354487, 0.69669318, -0.32891279, -0.13276592, -0.13446867, 0.02454456, 0.00795697, 100.01300812, 109.79004669, 31.03999901, 0.00000000
1, 2.8350, 260, -0.05571261, -0.98259413, 0.15891279, 5.78056145, 20.13115883, 27.17133141, -36.50979233, 12.92019844, -56.73779678, 101.08554840, -13.16649914, -39.74084473, -0.62381297, 0.69657928, -0.32922199, -0.13133058, -0.17184541, 0.02663144, 0.02651290, 100.01300812, 109.79004669, 31.03999901, 0.00000000
1, 2.8400, 261, -0.06481279, -0.98119676, 0.14275123, 4.70870113, 6.02811623, 28.07564926, -37.18210983, 11.92633724, -56.56240845, 101.10877228, -13.30998707, -39.73794937, -0.62391526, 0.69634056, -0.32993627, -0.13031359, -0.16515967, 0.02589528, 0.04289881, 100.01300812, 109.79004669, 31.03999901, 0.00000000
1, 2.8450, 262, -0.12032759, -0.97990930, 0.13567024, 4.14719677, -0.23755796, 29.16028023, -37.18210983, 11.92633724, -56.56240845, 101.13678741, -13.45282078, -39.76780701, -0.62394953, 0.69603419, -0.33085093, -0.12946491, -0.11205104, 0.02527236, 0.05018554, 100.01300812, 109.79004669, 31.03999901, 0.00000000
1, 2.8500, 263, -0.19769670, -0.97473633, 0.12922423, 3.94380307, -3.78132248, 30.16501427, -37.12364578, 14.11867905, -56.67933273, 101.16831970, -13.59716606, -39.81663895, -0.62394333, 0.69568652, -0.33189091, -0.12869897, -0.03710930, 0.02078509, 0.05684225, 100.01300812, 109.79004669, 31.03999901, 0.00000000
1, 2.8550, 264, -0.28053039, -0.96801841, 0.12677534, 4.66437912, -4.47867250, 30.45469093, -37.12364578, 14.11867905, -56.67933273, 101.19476318, -13.75229454, -39.86661148, -0.62398452, 0.69527781, -0.33298367, -0.12788311, 0.04318684, 0.01477653, 0.05948228, 100.01300812, 109.79004669, 31.03999901, 0.00000000
1, 2.8600, 265, -0.34997496, -0.95077419, 0.13208403, 4.79424477, -0.60163182, 30.05472183, -37.12364578, 14.11867905, -56.67933273, 101.22696686, -13.89910412, -39.89949036, -0.62399578, 0.69497013, -0.33393702, -0.12701109, 0.11005263, -0.00176394, 0.05438668, 100.01300812, 109.79004669, 31.03999901, 0.00000000
1, 2.8650, 266, -0.39300489, -0.92405450, 0.13670354, 5.85247850, 5.80354071, 29.14235497, -37.44519043, 14.00175381, -57.00087738, 101.25650024, -14.04760838, -39.89916611, -0.62406230, 0.69473892, -0.33469322, -0.12595442, 0.15056333, -0.02778272, 0.05007686, 100.01300812, 109.79004669, 31.03999901, 0.00000000
1, 2.8700, 267, -0.41310781, -0.91350198, 0.15113266, 7.30357695, 12.07296181, 28.22175217, -37.44519043, 14.00175381, -57.00087738, 101.28535461, -14.19765377, -39.86628723, -0.62417006, 0.69459409, -0.33525783, -0.12471181, 0.16809404, -0.03763859, 0.03597344, 100.01300812, 109.79004669, 31.03999901, 0.00000000
1, 2.9150, 268, -0.16673449, -0.92693305, 0.22732340, 6.88393831, 14.97150993, 30.67973137, -39.49137497, 14.17714119, -56.67933273, 101.50160217, -15.61163044, -39.16780472, -0.62582475, 0.69404042, -0.33812314, -0.11101400, -0.10225585, -0.01741866, -0.03727775, 100.01300812, 109.79004669, 31.03999901, 0.00000000
1, 2.9200, 269, -0.19683723, -0.92199218, 0.21124054, 6.77068996, 12.72496414, 31.36372185, -39.49137497, 14.17714119, -56.67933273, 101.52705383, -15.77786160, -39.13526917, -0.62595677, 0.69382638, -0.33875576, -0.10967051, -0.07489972, -0.02148388, -0.02100441, 100.01300812, 109.79004669, 31.03999901, 0.00000000
1, 2.9250, 270, -0.21416944, -0.91506732, 0.19169231, 6.48357773, 13.08948040, 32.04205704, -39.46214676, 14.52791595, -57.23472595, 101.55065155, -15.94778728, -39.10159683, -0.62610489, 0.69359469, -0.33939660, -0.10830141, -0.06035570, -0.02750784, -0.00125125, 100.01300812, 109.79004669, 31.03999901, 0.00000000
1, 2.9300, 271, -0.20311463, -0.90819192, 0.18632485, 6.81576157, 15.13635921, 32.50724030, -39.46214676, 14.52791595, -57.23472595, 101.57308960, -16.12204552, -39.05802536, -0.62627381, 0.69337314, -0.33999631, -0.10685252, -0.07430209, -0.03348250, 0.00436105, 100.01300812, 109.79004669, 31.03999901, 0.00000000
1, 2.9350, 272, -0.18326668, -0.90883470, 0.20362009, 7.37451553, 16.16734314, 33.29584885, -39.46214676, 14.52791595, -57.23472595, 101.59698486, -16.30120087, -39.01005936, -0.62644297, 0.69315827, -0.34059334, -0.10534237, -0.09717429, -0.03194219, -0.01267221, 100.01300812, 109.79004669, 31.03999901, 0.00000000
1, 2.9400, 273, -0.16082463, -0.90878296, 0.20871054, 7.09431410, 16.00472069, 34.17184067, -39.52060699, 14.90792179, -56.85472107, 101.61985016, -16.48451042, -38.96385956, -0.62662047, 0.69292021, -0.34121910, -0.10381693, -0.12268330, -0.03104692, -0.01750890, 100.01300812, 109.79004669, 31.03999901, 0.00000000
1, 2.9450, 274, -0.15498501, -0.91042531, 0.20635040, 7.21996164, 14.72169209, 35.43659592, -39.52060699, 14.90792179, -56.85472107, 101.64547729, -16.67273903, -38.92556000, -0.62677890, 0.69265914, -0.34191763, -0.10229333, -0.13163322, -0.02841314, -0.01492661, 100.01300812, 109.79004669, 31.03999901, 0.00000000
1, 2.9500, 275, -0.15655193, -0.92411351, 0.20863585, 6.99826193, 12.96046162, 37.64077759, -39.72522736, 14.38175964, -56.73779678, 101.67316437, -16.87002563, -38.89865112, -0.62692571, 0.69234914, -0.34272909, -0.10076553, -0.13334066, -0.01367205, -0.01697718, 100.01300812, 109.79004669, 31.03999901, 0.00000000
1, 2.9550, 276, -0.13885875, -0.93352842, 0.21106391, 6.96700478, 12.92594814, 39.07749176, -39.72522736, 14.38175964, -56.73779678, 101.70400238, -17.05622482, -38.87489700, -0.62703228, 0.69207591, -0.34350756, -0.09931768, -0.15426932, -0.00320101, -0.01909970, 100.01300812, 109.79004669, 31.03999901, 0.00000000
1, 2.9600, 277, -0.12627992, -0.94218135, 0.23454207, 7.03668118, 13.41034603, 40.70055008, -39.72522736, 14.38175964, -56.73779678, 101.73207092, -17.26897812, -38.84906387, -0.62719381, 0.69171894, -0.34439707, -0.09769115, -0.17026927, 0.00652776, -0.04228685, 100.01300812, 109.79004669, 31.03999901, 0.00000000
1, 2.9800, 278, -0.20661408, -0.94429088, 0.25584412, 4.48496675, 8.12404919, 46.74116135, -40.66062546, 14.90792179, -56.32855988, 101.85025024, -18.17816734, -38.85352707, -0.62777394, 0.68981361, -0.34886917, -0.09136461, -0.10500611, 0.01368912, -0.06283081, 100.01300812, 109.79004669, 31.03999901, 0.00000000
1, 2.9850, 279, -0.23490264, -0.93719280, 0.25407332, 3.96417832, 10.37946606, 48.37889862, -40.66062546, 14.90792179, -56.32855988, 101.87017059, -18.42552185, -38.85195923, -0.62800151, 0.68922937, -0.35005352, -0.08966296, -0.08076906, 0.00797519, -0.06104615, 100.01300812, 109.79004669, 31.03999901, 0.00000000
1, 2.9900, 280, -0.24351828, -0.91722167, 0.24896933, 4.51372623, 12.30213261, 49.74971390, -40.80678177, 15.46331501, -56.85472107, 101.89020538, -18.68153763, -38.84203720, -0.62824416, 0.68864381, -0.35122672, -0.08785716, -0.07634740, -0.01054603, -0.05591190, 100.01300812, 109.79004669, 31.03999901, 0.00000000
1, 2.9950, 281, -0.22280882, -0.92466486, 0.27372032, 6.22399855, 12.35442257, 51.09622574, -40.80678177, 15.46331501, -56.85472107, 101.91915894, -18.94418526, -38.83339310, -0.62843806, 0.68808120, -0.35244349, -0.08598619, -0.10143164, -0.00161894, -0.08048844, 100.01300812, 109.79004669, 31.03999901, 0.00000000
1, 3.0000, 282, -0.19326910, -0.93203509, 0.29194379, 4.79783535, 12.90598106, 52.28424835, -42.18064880, 15.31715870, -56.76702499, 101.94049835, -19.21322060, -38.82329178, -0.62868416, 0.68745959, -0.35367346, -0.08408736, -0.13543645, 0.00729171, -0.09858572, 100.01300812, 109.79004669, 31.03999901, 0.00000000
1, 3.0050, 283, -0.15574954, -0.92324495, 0.27705061, 2.88863087, 15.22366524, 53.73082733, -42.18064880, 15.31715870, -56.76702499, 101.95729828, -19.47463036, -38.80624390, -0.62894863, 0.68685317, -0.35482004, -0.08221396, -0.17731687, 0.00008660, -0.08364056, 100.01300812, 109.79004669, 31.03999901, 0.00000000
1, 3.0100, 284, -0.15303476, -0.92291141, 0.27455765, 1.51370656, 17.47648621, 55.16906738, -42.18064880, 15.31715870, -56.76702499, 101.95528412, -19.76253128, -38.77565765, -0.62936687, 0.68610567, -0.35599521, -0.08014856, -0.18458301, 0.00135808, -0.08139318, 100.01300812, 109.79004669, 31.03999901, 0.00000000
1, 3.0150, 285, -0.13825890, -0.91464400, 0.25383672, 1.08536088, 20.69604683, 55.84714508, -42.18064880, 15.84332085, -56.18240356, 101.94550323, -20.05705643, -38.72896194, -0.62984622, 0.68534279, -0.35709825, -0.07797434, -0.20411652, -0.00520649, -0.06111592, 100.01300812, 109.79004669, 31.03999901, 0.00000000
1, 3.0200, 286, -0.10548469, -0.91010594, 0.24908032, 1.52322233, 20.04492569, 57.01782608, -42.18064880, 15.84332085, -56.18240356, 101.93928528, -20.35663605, -38.68681717, -0.63030177, 0.68456686, -0.35825324, -0.07577991, -0.24177161, -0.00800902, -0.05677034, 100.01300812, 109.79004669, 31.03999901, 0.00000000
1, 3.0250, 287, -0.09870703, -0.92001235, 0.26423058, 1.33847368, 15.21968842, 59.18355942, -42.67757797, 16.34025192, -56.79625702, 101.94158173, -20.66186333, -38.67216492, -0.63069016, 0.68373120, -0.35960266, -0.07367201, -0.25355366, 0.00368446, -0.07229514, 100.01300812, 109.79004669, 31.03999901, 0.00000000
1, 3.0800, 288, -0.31986117, -0.93126488, 0.22859301, -1.51700926, 22.17172432, 73.37142944, -44.86991882, 17.59719276, -56.53317642, 101.95462036, -24.44107628, -38.74152374, -0.63507134, 0.67210501, -0.37757385, -0.04896230, -0.09294277, 0.03958903, -0.04210883, 100.01300812, 109.79004669, 31.03999901, 0.00000000
1, 3.0850, 289, -0.33818126, -0.92891800, 0.18484116, -3.03206539, 21.25869370, 74.59579468, -44.92838287, 17.39257431, -57.17626190, 101.92778778, -24.82796288, -38.71133041, -0.63566279, 0.67083943, -0.37915993, -0.04631565, -0.08064124, 0.03996701, 0.00062709, 100.01300812, 109.79004669, 31.03999901, 0.00000000
1, 3.0900, 290, -0.33155471, -0.91952252, 0.15432854, -4.66050720, 20.93312645, 75.97579956, -44.92838287, 17.39257431, -57.17626190, 101.89392853, -25.22129250, -38.68414307, -0.63629174, 0.66949737, -0.38078785, -0.04366631, -0.09338570, 0.03333369, 0.03008222, 100.01300812, 109.79004669, 31.03999901, 0.00000000
1, 3.0950, 291, -0.29610127, -0.91661704, 0.18968418, -4.45876360, 25.15115929, 77.37068939, -44.92838287, 17.39257431, -57.17626190, 101.85162354, -25.62571716, -38.63528824, -0.63697964, 0.66813785, -0.38233480, -0.04085136, -0.13526087, 0.03317348, -0.00641417, 100.01300812, 109.79004669, 31.03999901, 0.00000000
1, 3.1000, 292, -0.20873043, -0.92072868, 0.24842070, -3.88150477, 27.73467445, 78.79196167, -45.77608871, 17.94796753, -56.91318130, 101.80626678, -26.03969002, -38.57347488, -0.63768804, 0.66676682, -0.38384724, -0.03791135, -0.22925386, 0.04009658, -0.06628247, 100.01300812, 109.79004669, 31.03999901, 0.00000000
1, 3.1050, 293, -0.14386107, -0.94518805, 0.31903845, -4.93836689, 21.44455147, 80.72356415, -45.77608871, 17.94796753, -56.91318130, 101.78163147, -26.43550110, -38.55307388, -0.63823313, 0.66542327, -0.38552260, -0.03525318, -0.30066162, 0.06739125, -0.13791990, 100.01300812, 109.79004669, 31.03999901, 0.00000000
1, 3.1100, 294, -0.11844300, -0.96738636, 0.32556161, -7.97834015, 11.54439354, 82.87478638, -46.50687027, 18.67874908, -57.32241821, 101.75648499, -26.85307503, -38.58366776, -0.63877845, 0.66382629, -0.38758901, -0.03273660, -0.33244193, 0.09261154, -0.14540502, 100.01300812, 109.79004669, 31.03999901, 0.00000000
1, 3.1150, 295, -0.13351864, -1.00273728, 0.28372535, -9.18091011, 5.50083256, 84.63884735, -46.50687027, 18.67874908, -57.32241821, 101.74160767, -27.27322197, -38.64944839, -0.63924992, 0.66214830, -0.38986829, -0.03036511, -0.32379031, 0.13122189, -0.10462602, 100.01300812, 109.79004669, 31.03999901, 0.00000000
1, 3.1200, 296, -0.17905901, -1.05919743, 0.22954383, -10.54016876, 0.83001035, 87.20879364, -46.50687027, 18.67874908, -57.32241821, 101.73368073, -27.70126152, -38.74411011, -0.63967556, 0.66037279, -0.39234501, -0.02807930, -0.28471228, 0.19109219, -0.05146033, 100.01300812, 109.79004669, 31.03999901, 0.00000000
1, 3.1250, 297, -0.19381453, -1.06678092, 0.24475034, -11.23301125, 2.66029835, 89.08395386, -46.76995087, 18.29874229, -57.41011429, 101.71930695, -28.14034653, -38.83104324, -0.64014524, 0.65853828, -0.39481771, -0.02569973, -0.27672821, 0.20208994, -0.06762491, 100.01300812, 109.79004669, 31.03999901, 0.00000000
1, 3.1450, 298, -0.25227734, -1.05525935, 0.27724528, -12.27297974, -0.55326623, 97.85374451, -47.73458099, 18.38643646, -57.81935120, 101.69208527, -29.99894142, -39.23234940, -0.64187366, 0.65069824, -0.40539294, -0.01570487, -0.24657656, 0.20571393, -0.10387550, 100.01300812, 109.79004669, 31.03999901, 0.00000000
1, 3.1500, 299, -0.27427229, -1.05508912, 0.26584014, -12.21292782, 0.88909787, 100.20080566, -47.99766159, 18.24028015, -57.35165024, 101.68846130, -30.49074745, -39.34391022, -0.64229447, 0.64858466, -0.40819693, -0.01307939, -0.23192856, 0.20974311, -0.09343958, 100.01300812, 109.79004669, 31.03999901, 0.00000000
1, 3.1550, 300, -0.29128119, -1.06148112, 0.26139593, -12.40526772, 2.64002228, 102.66359711, -47.99766159, 18.24028015, -57.35165024, 101.68379211, -30.98125076, -39.45068741, -0.64271426, 0.64647025, -0.41095704, -0.01044008, -0.22233753, 0.22043172, -0.09001169, 100.01300812, 109.79004669, 31.03999901, 0.00000000
1, 3.1600, 301, -0.29563519, -1.06966984, 0.25638843, -12.46027565, 4.80908537, 105.16965485, -48.66997910, 18.88336754, -57.46857452, 101.67256927, -31.50137329, -39.54667282, -0.64318877, 0.64423722, -0.41377455, -0.00756825, -0.22557543, 0.23309751, -0.08608647, 100.01300812, 109.79004669, 31.03999901, 0.00000000
1, 3.1650, 302, -0.26408890, -1.09674060, 0.26103324, -12.19395638, 7.00246239, 108.23302460, -48.66997910, 18.88336754, -57.46857452, 101.65893555, -32.03870010, -39.63403702, -0.64368218, 0.64194322, -0.41660732, -0.00454366, -0.26504171, 0.26489252, -0.09187712, 100.01300812, 109.79004669, 31.03999901, 0.00000000
1, 3.1700, 303, -0.24783713, -1.10719442, 0.25324011, -12.45145512, 8.29606819, 110.86099243, -48.66997910, 18.88336754, -57.46857452, 101.64261627, -32.59021759, -39.71739578, -0.64419162, 0.63957977, -0.41946754, -0.00141348, -0.28936636, 0.28030092, -0.08530521, 100.01300812, 109.79004669, 31.03999901, 0.00000000
1, 3.1750, 304, -0.22996713, -1.12323058, 0.22856516, -12.66919613, 9.36779308, 114.04400635, -49.02075195, 19.64337921, -57.96550751, 101.62477112, -33.15843582, -39.79860687, -0.64471102, 0.63713652, -0.42237592, 0.00183249, -0.31547105, 0.30154663, -0.06195172, 100.01300812, 109.79004669, 31.03999901, 0.00000000
1, 3.1800, 305, -0.23759530, -1.13959849, 0.21617770, -12.07873249, 11.15382195, 116.77807617, -49.02075195, 19.64337921, -57.96550751, 101.60679626, -33.74184799, -39.87294388, -0.64523000, 0.63464320, -0.42529899, 0.00521591, -0.31626302, 0.32332146, -0.05098156, 100.01300812, 109.79004669, 31.03999901, 0.00000000
1, 3.1850, 306, -0.25548652, -1.16788208, 0.21913913, -11.45919514, 13.52690983, 119.73609161, -49.80999756, 18.09412384, -57.67319489, 101.58688354, -34.34213257, -39.93707275, -0.64575750, 0.63209486, -0.42822504, 0.00875984, -0.30701584, 0.35722750, -0.05547529, 100.01300812, 109.79004669, 31.03999901, 0.00000000
1, 3.1900, 307, -0.26567167, -1.19967473, 0.21246853, -11.07729053, 14.98941803, 122.81561279, -49.80999756, 18.09412384, -57.67319489, 101.56678009, -34.95896912, -39.99643326, -0.64628196, 0.62948143, -0.43118224, 0.01243795, -0.30562741, 0.39490470, -0.05038873, 100.01300812, 109.79004669, 31.03999901, 0.00000000
1, 3.2400, 308, -0.24272481, -1.81085753, 0.16183750, 0.60335934, 67.31322479, 151.64036560, -53.02542877, 21.86495209, -58.02396774, 100.93060303, -42.11208344, -39.41311264, -0.65268731, 0.60047132, -0.45800364, 0.06054959, -0.42562121, 1.07999146, -0.02372288, 100.01300812, 109.79004669, 31.03999901, 0.00000000
1, 3.2450, 309, -0.11216426, -1.89304924, 0.16688667, 2.43501639, 83.86941528, 153.30860901, -53.02542877, 21.86495209, -58.02396774, 100.69747162, -42.94322586, -39.04749680, -0.65387130, 0.59725064, -0.45960027, 0.06716970, -0.56685293, 1.17118549, -0.03312971, 100.01300812, 109.79004669, 31.03999901, 0.00000000
1, 3.2500, 310, 0.00036380, -1.93704379, 0.18769528, 2.69586086, 97.81571198, 154.30368042, -54.80853653, 22.71265602, -59.01782990, 100.39069366, -43.79062271, -38.57839203, -0.65528536, 0.59394079, -0.46079549, 0.07418225, -0.69017464, 1.22436810, -0.05920177, 100.01300812, 109.79004669, 31.03999901, 0.00000000
1, 3.2550, 311, 0.06593236, -1.96457136, 0.23522715, 2.92130208, 105.81124878, 155.05224609, -54.80853653, 22.71265602, -59.01782990, 100.03229523, -44.64032364, -38.04149628, -0.65681201, 0.59058172, -0.46172357, 0.08137972, -0.76654685, 1.26119184, -0.11275215, 100.01300812, 109.79004669, 31.03999901, 0.00000000
1, 3.2600, 312, 0.11292920, -2.01813483, 0.27811322, 2.50604033, 107.91941833, 155.59849548, -55.45162201, 23.47266769, -59.60245514, 99.64566040, -45.49839783, -37.47496033, -0.65834242, 0.58712935, -0.46260229, 0.08867661, -0.82422531, 1.32423878, -0.16205549, 100.01300812, 109.79004669, 31.03999901, 0.00000000
1, 3.2650, 313, 0.11078671, -2.06115699, 0.28164205, 0.10156088, 109.70825958, 155.67175293, -55.45162201, 23.47266769, -59.60245514, 99.21948242, -46.35547638, -36.87841415, -0.65992516, 0.58355898, -0.46340930, 0.09596689, -0.83254099, 1.37698281, -0.17241478, 100.01300812, 109.79004669, 31.03999901, 0.00000000
1, 3.2700, 314, 0.03010460, -2.07482982, 0.27884302, -2.87890124, 117.68553162, 154.56785583, -55.45162201, 23.47266769, -59.60245514, 98.71504211, -47.20986938, -36.20348740, -0.66170365, 0.57985032, -0.46393809, 0.10336095, -0.76211309, 1.40045071, -0.17725787, 100.01300812, 109.79004669, 31.03999901, 0.00000000
1, 3.2750, 315, -0.02728292, -2.05569673, 0.14419013, -4.71252728, 130.51306152, 152.05772400, -57.23472595, 24.37883568, -59.83630371, 98.10597992, -48.05662537, -35.40854263, -0.66375017, 0.57603914, -0.46400678, 0.11096174, -0.71441984, 1.39130390, -0.05116842, 100.01300812, 109.79004669, 31.03999901, 0.00000000
1, 3.2800, 316, -0.04814057, -2.01385117, 0.10955103, -3.89207172, 135.12725830, 147.28500366, -57.23472595, 24.37883568, -59.83630371, 97.44352722, -48.87680435, -34.54716873, -0.66584218, 0.57228208, -0.46378231, 0.11854778, -0.70307893, 1.35912824, -0.02550139, 100.01300812, 109.79004669, 31.03999901, 0.00000000
1, 3.2850, 317, 0.01313177, -1.92610288, 0.00156126, -7.34734869, 171.96954346, 139.16366577, -59.33937454, 25.98655319, -61.23940277, 96.51374054, -49.67079926, -33.36668777, -0.66875261, 0.56834978, -0.46226278, 0.12673508, -0.77325249, 1.28083646, 0.07181650, 100.01300812, 109.79004669, 31.03999901, 0.00000000
1, 3.3150, 318, -0.40063626, -1.14565766, 0.37143737, -28.69309998, 113.42172241, 125.38603973, -62.70096207, 27.36042023, -63.60713196, 90.16738129, -53.74302292, -25.95788383, -0.68562877, 0.54386169, -0.45285562, 0.17043938, -0.40502939, 0.55143952, -0.37028044, 100.01300812, 109.79004669, 31.03999901, 0.00000000
1, 3.3200, 319, -0.51463223, -1.10480237, 0.58742082, -28.51986885, 102.28549194, 126.48543549, -62.70096207, 27.36042023, -63.60713196, 89.31560516, -54.37268829, -25.07997131, -0.68736529, 0.53974444, -0.45298672, 0.17609112, -0.29805344, 0.51912659, -0.59534717, 100.01300812, 109.79004669, 31.03999901, 0.00000000
1, 3.3250, 320, -0.50132602, -1.06150043, 0.58228129, -33.87943649, 74.86422729, 126.35573578, -64.10406494, 28.12043190, -65.01023102, 88.60198975, -54.99740219, -24.41093636, -0.68865335, 0.53565323, -0.45395827, 0.18098103, -0.31768614, 0.48484236, -0.59765625, 100.01300812, 109.79004669, 31.03999901, 0.00000000
1, 3.3300, 321, -0.61479396, -0.97996426, 0.38751322, -40.34952545, 35.81931305, 123.93012238, -64.10406494, 28.12043190, -65.01023102, 88.11625671, -55.61189651, -24.06353951, -0.68931091, 0.53170133, -0.45608193, 0.18475232, -0.20989601, 0.41261119, -0.40820080, 100.01300812, 109.79004669, 31.03999901, 0.00000000
1, 3.3350, 322, -0.74893016, -0.87873542, 0.13968584, -45.63510513, 15.14304733, 115.58277130, -64.71791840, 27.21426392, -65.03945923, 87.74552155, -56.18711090, -23.88964653, -0.68972540, 0.52790397, -0.45866311, 0.18768179, -0.08088057, 0.32033920, -0.16404843, 100.01300812, 109.79004669, 31.03999901, 0.00000000
1, 3.3400, 323, -0.90698028, -0.76124632, 0.03999403, -37.63787842, 13.04542160, 104.17921448, -64.71791840, 27.21426392, -65.03945923, 87.42593384, -56.70510483, -23.73045349, -0.68998921, 0.52457809, -0.46096727, 0.19037317, 0.07223344, 0.21091178, -0.06743472, 100.01300812, 109.79004669, 31.03999901, 0.00000000
1, 3.3450, 324, -0.91775864, -0.67901325, 0.19522437, -32.48086166, 22.71953011, 94.73986816, -64.71791840, 27.21426392, -65.03945923, 87.05413055, -57.17295456, -23.47923279, -0.69039321, 0.52150548, -0.46271145, 0.19309974, 0.07803650, 0.13559482, -0.22565886, 100.01300812, 109.79004669, 31.03999901, 0.00000000
1, 3.3500, 325, -0.81100506, -0.62038267, 0.43361172, -29.99822998, 18.23091316, 85.20727539, -64.74714661, 28.79274940, -64.83484650, 86.72576141, -57.59362411, -23.26616669, -0.69071782, 0.51872814, -0.46434513, 0.19548310, -0.03338410, 0.08307952, -0.46664250, 100.01300812, 109.79004669, 31.03999901, 0.00000000
1, 3.3800, 326, -0.69826132, -0.21203260, 0.07344744, -56.14178467, -50.55465698, 14.04154491, -64.71791840, 30.78047371, -64.77638245, 87.40078735, -59.00465775, -25.81402779, -0.68932003, 0.50658524, -0.48134661, 0.19108851, -0.15897866, -0.30277091, -0.09917702, 100.01300812, 109.79004669, 31.03999901, 0.00000000
1, 3.3850, 327, -0.80855393, -0.13074522, 0.08416828, -58.31588364, -46.69632721, 3.36511302, -64.54253387, 29.52353096, -64.65945435, 87.49640656, -59.03294373, -26.26558495, -0.68959451, 0.50514299, -0.48331386, 0.18893865, -0.04908730, -0.38349566, -0.10906094, 100.01300812, 109.79004669, 31.03999901, 0.00000000
1, 3.3900, 328, -1.04198873, 0.06685697, 0.10677120, -62.07693100, -44.40674973, -9.29143143, -64.54253387, 29.52353096, -64.65945435, 87.55878448, -58.99725342, -26.70049667, -0.69009697, 0.50382918, -0.48496011, 0.18637609, 0.18444183, -0.58141184, -0.13131453, 100.01300812, 109.79004669, 31.03999901, 0.00000000
1, 3.3950, 329, -1.20828354, 0.10730395, 0.10799903, -62.58620834, -45.67441940, -19.12977600, -64.54253387, 29.52353096, -64.65945435, 87.63162231, -58.91244507, -27.15099907, -0.69065595, 0.50271195, -0.48642752, 0.18347579, 0.35138732, -0.62297255, -0.13234143, 100.01300812, 109.79004669, 31.03999901, 0.00000000
1, 3.4000, 330, -1.45262718, 0.09648769, 0.08653969, -62.38351822, -47.22484589, -30.00043678, -64.16252136, 30.45892906, -64.68869019, 87.71996307, -58.77330017, -27.61915588, -0.69125628, 0.50183678, -0.48769596, 0.18021488, 0.59695137, -0.61408561, -0.11078496, 100.01300812, 109.79004669, 31.03999901, 0.00000000
1, 3.4050, 331, -1.48345077, 0.04316398, 0.09615522, -57.44731522, -41.99445724, -35.75726700, -64.16252136, 30.45892906, -64.68869019, 87.79328918, -58.61946869, -28.03977013, -0.69185644, 0.50113279, -0.48871338, 0.17708762, 0.62915099, -0.56310916, -0.11996766, 100.01300812, 109.79004669, 31.03999901, 0.00000000
1, 3.4100, 332, -1.33491445, -0.00588906, 0.19929899, -42.97956848, -33.60007477, -40.75381851, -64.04560089, 29.46506882, -64.27944946, 87.86522675, -58.42306137, -28.37668037, -0.69239086, 0.50095576, -0.48917300, 0.17420661, 0.48201197, -0.51695299, -0.22227746, 100.01300812, 109.79004669, 31.03999901, 0.00000000
1, 3.4150, 333, -1.12495899, -0.05058993, 0.32486323, -29.70380974, -26.89540291, -46.89713669, -64.04560089, 29.46506882, -64.27944946, 87.94829559, -58.19422913, -28.64950752, -0.69281995, 0.50125670, -0.48919034, 0.17156669, 0.27376357, -0.47575933, -0.34677076, 100.01300812, 109.79004669, 31.03999901, 0.00000000
1, 3.4200, 334, -0.96119893, -0.06059128, 0.32278875, -25.49852180, -23.24617577, -53.80401993, -63.54866791, 28.09120178, -64.33791351, 88.02233124, -57.92998886, -28.88777924, -0.69328183, 0.50180089, -0.48891121, 0.16888513, 0.11236108, -0.46955973, -0.34371799, 100.01300812, 109.79004669, 31.03999901, 0.00000000
1, 3.4250, 335, -0.84676015, -0.02351306, 0.21708280, -25.17652702, -16.27115822, -61.35334778, -63.54866791, 28.09120178, -64.33791351, 88.04219818, -57.62665939, -29.06093788, -0.69393539, 0.50246018, -0.48824945, 0.16613236, 0.00091009, -0.51080883, -0.23747875, 100.01300812, 109.79004669, 31.03999901, 0.00000000
1, 3.4650, 336, -0.20027170, 0.13374016, -0.09793666, -3.41468072, 2.13325357, -138.79724121, -63.19789505, 27.09733963, -65.09792328, 86.72775269, -53.52743530, -28.09636307, -0.70476431, 0.51526809, -0.46640468, 0.14238293, -0.60545033, -0.72456408, 0.06378238, 100.01300812, 109.79004669, 31.03999901, 0.00000000
1, 3.4700, 337, -0.17669004, 0.08247958, -0.08694102, 1.90652406, 3.98518276, -148.81069946, -62.67173386, 25.89885902, -64.65945435, 86.76689148, -52.78346634, -28.13565636, -0.70571542, 0.51830989, -0.46292442, 0.13791890, -0.62143731, -0.68356699, 0.05257449, 100.01300812, 109.79004669, 31.03999901, 0.00000000
1, 3.4750, 338, -0.15300886, 0.03989238, -0.07024606, 4.86977816, 9.74241829, -158.38558960, -62.67173386, 25.89885902, -64.65945435, 86.78565979, -51.98999405, -28.13106155, -0.70674205, 0.52157807, -0.45901179, 0.13334271, -0.63687408, -0.65183419, 0.03552980, 100.01300812, 109.79004669, 31.03999901, 0.00000000
1, 3.4800, 339, -0.13182677, 0.02084079, -0.04287142, 5.45462513, 15.28687572, -167.19920349, -62.67173386, 25.89885902, -64.65945435, 86.77558136, -51.15092850, -28.08603859, -0.70788205, 0.52498150, -0.45470124, 0.12862463, -0.64918417, -0.64415777, 0.00749813, 100.01300812, 109.79004669, 31.03999901, 0.00000000
1, 3.4850, 340, -0.12715228, 0.02549555, -0.03246780, 4.99303770, 16.34680176, -175.30017090, -61.97018433, 24.81730461, -64.04560089, 86.76079559, -50.27109909, -28.03748894, -0.70905936, 0.52849525, -0.45014989, 0.12366347, -0.64431214, -0.66059095, -0.00371974, 100.01300812, 109.79004669, 31.03999901, 0.00000000
1, 3.4900, 341, -0.14548412, 0.02637301, -0.03895057, 4.66183472, 12.74942875, -182.32202148, -61.97018433, 24.81730461, -64.04560089, 86.76912689, -49.35727310, -28.02089119, -0.71016842, 0.53212303, -0.44552255, 0.11838754, -0.61581254, -0.67355430, 0.00205098, 100.01300812, 109.79004669, 31.03999901, 0.00000000
1, 3.4950, 342, -0.16386145, 0.01040537, -0.05001899, 5.56384993, 7.33441353, -188.63175964, -61.09324646, 20.69570351, -64.95176697, 86.81488800, -48.41350555, -28.04784584, -0.71113724, 0.53589374, -0.44088334, 0.11279970, -0.58671069, -0.66992879, 0.01276042, 100.01300812, 109.79004669, 31.03999901, 0.00000000
1, 3.5000, 343, -0.17455520, -0.00903965, -0.04253253, 8.24158478, 1.85999930, -196.19235229, -61.09324646, 20.69570351, -64.95176697, 86.90466309, -47.43348312, -28.11660385, -0.71192521, 0.53988147, -0.43619338, 0.10689223, -0.56475288, -0.66313046, 0.00543100, 100.01300812, 109.79004669, 31.03999901, 0.00000000
1, 3.5050, 344, -0.20098147, -0.02613000, -0.05098456, 13.33080578, -2.59448957, -201.83145142, -61.09324646, 20.69570351, -64.95176697, 87.03668213, -46.43326569, -28.21242332, -0.71249312, 0.54407275, -0.43147427, 0.10083856, -0.52647614, -0.65884864, 0.01449086, 100.01300812, 109.79004669, 31.03999901, 0.00000000
1, 3.5100, 345, -0.24936083, -0.06398894, -0.06961636, 22.07544136, -6.61010790, -208.48806763, -60.65477753, 22.12803268, -64.13329315, 87.23412323, -45.39366150, -28.33725739, -0.71273810, 0.54867655, -0.42662737, 0.09459224, -0.46560475, -0.63402134, 0.03454171, 100.01300812, 109.79004669, 31.03999901, 0.00000000
1, 3.5350, 346, -0.40215802, -0.19564435, 0.03440396, 43.54273987, -23.47470093, -237.02980042, -57.41011429, 19.78953552, -63.75328827, 88.66259003, -39.78091431, -29.10833359, -0.71080005, 0.57487541, -0.40068641, 0.06108949, -0.24175504, -0.56932986, -0.05473822, 100.01300812, 109.79004669, 31.03999901, 0.00000000
1, 3.5400, 347, -0.43869653, -0.24917689, 0.04263704, 45.67239761, -27.35788536, -242.86297607, -57.41011429, 19.78953552, -63.75328827, 89.02100372, -38.56932068, -29.31898689, -0.70979011, 0.58056045, -0.39531016, 0.05364339, -0.18901327, -0.52927351, -0.05866086, 100.01300812, 109.79004669, 31.03999901, 0.00000000
1, 3.5450, 348, -0.47962758, -0.31412980, 0.03152340, 48.09165573, -28.66653442, -248.46321106, -56.32855988, 17.27565002, -63.75328827, 89.38523102, -37.32880020, -29.52522659, -0.70862389, 0.58634967, -0.38977936, 0.04602547, -0.13115288, -0.47770506, -0.04297803, 100.01300812, 109.79004669, 31.03999901, 0.00000000
1, 3.5500, 349, -0.50812012, -0.38286668, 0.00917726, 50.83493042, -27.29674721, -253.79341125, -56.32855988, 17.27565002, -63.75328827, 89.74670410, -36.06052780, -29.71004295, -0.70733225, 0.59223741, -0.38401544, 0.03831789, -0.08502496, -0.42222893, -0.01589009, 100.01300812, 109.79004669, 31.03999901, 0.00000000
1, 3.5550, 350, -0.51142049, -0.46259210, 0.01186160, 53.53699875, -25.47308922, -259.18237305, -56.32855988, 17.27565002, -63.75328827, 90.10501862, -34.76816177, -29.87115669, -0.70591348, 0.59820777, -0.37802130, 0.03055496, -0.06349450, -0.35564381, -0.01366248, 100.01300812, 109.79004669, 31.03999901, 0.00000000
1, 3.5600, 351, -0.51481038, -0.51827228, 0.02285866, 55.60268021, -24.28313828, -265.98043823, -55.01315308, 17.50950050, -63.16866302, 90.45899200, -33.43720245, -30.01251030, -0.70437646, 0.60427916, -0.37173784, 0.02261853, -0.04110093, -0.31300929, -0.01959911, 100.01300812, 109.79004669, 31.03999901, 0.00000000
1, 3.5650, 352, -0.54612482, -0.59805989, 0.05533903, 55.37437820, -24.54426765, -272.64364624, -55.01315308, 17.50950050, -63.16866302, 90.80319977, -32.07222748, -30.14319229, -0.70274591, 0.61036366, -0.36523321, 0.01446310, 0.00993987, -0.24613357, -0.04709109, 100.01300812, 109.79004669, 31.03999901, 0.00000000
1, 3.5700, 353, -0.57134473, -0.63625550, 0.06025447, 52.79118729, -23.94629669, -278.20489502, -52.61619186, 15.78485775, -62.99327469, 91.12381744, -30.67892456, -30.25863647, -0.70109129, 0.61636442, -0.35850900, 0.00610952, 0.05572964, -0.22059196, -0.04708213, 100.01300812, 109.79004669, 31.03999901, 0.00000000
1, 3.5750, 354, -0.54679072, -0.64893889, 0.03313328, 50.64718246, -21.39741135, -283.61999512, -52.61619186, 15.78485775, -62.99327469, 91.41841888, -29.25830650, -30.34841919, -0.69942605, 0.62228709, -0.35150594, -0.00237605, 0.05254208, -0.22022313, -0.01512602, 100.01300812, 109.79004669, 31.03999901, 0.00000000
1, 3.5800, 355, -0.50424576, -0.65731370, 0.02875714, 49.87955856, -17.83923149, -288.50286865, -52.61619186, 15.78485775, -62.99327469, 91.69274139, -27.81340218, -30.40800667, -0.69772303, 0.62816077, -0.34420529, -0.01092598, 0.03199750, -0.22386241, -0.00608397, 100.01300812, 109.79004669, 31.03999901, 0.00000000
1, 3.6400, 356, 0.21854307, -1.30343068, 0.20170988, 86.28870392, 19.99799347, -321.04858398, -43.72990417, 11.02016926, -61.06401443, 94.38119507, -8.94140434, -27.92007065, -0.67127961, 0.69700491, -0.22785002, -0.10794608, -0.38130948, 0.31912616, -0.12968512, 100.01300812, 109.79004669, 31.03999901, 0.00000000
1, 3.6450, 357, 0.17686257, -1.45976377, 0.14462666, 91.52382660, -19.92676544, -313.02340698, -41.71294785, 9.52937698, -60.36246490, 94.83115387, -7.37209225, -27.89596176, -0.66677535, 0.70260745, -0.21932690, -0.11682982, -0.31230289, 0.47206959, -0.06511401, 100.01300812, 109.79004669, 31.03999901, 0.00000000
1, 3.6500, 358, 0.05123041, -1.58014631, 0.05281343, 91.56835938, -63.37290192, -306.73358154, -41.71294785, 9.52937698, -60.36246490, 95.30593109, -5.81551409, -28.07973289, -0.66175085, 0.70778680, -0.21221790, -0.12683557, -0.15943784, 0.59001017, 0.03459222, 100.01300812, 109.79004669, 31.03999901, 0.00000000
1, 3.6550, 359, -0.11850337, -1.63448119, -0.03493436, 89.92993164, -105.79799652, -300.04748535, -41.71294785, 9.52937698, -60.36246490, 95.78401947, -4.27091551, -28.46504784, -0.65629423, 0.71246856, -0.20648916, -0.13794488, 0.03741525, 0.64272797, 0.13034017, 100.01300812, 109.79004669, 31.03999901, 0.00000000
1, 3.6600, 360, -0.32162923, -1.61545765, -0.11960072, 91.52556610, -138.48208618, -290.22607422, -39.46214676, 10.02630806, -59.66091537, 96.27089691, -2.75482535, -29.00466728, -0.65040421, 0.71676999, -0.20197071, -0.14974327, 0.26729542, 0.62291121, 0.22308739, 100.01300812, 109.79004669, 31.03999901, 0.00000000
1, 3.6650, 361, -0.51421165, -1.57592535, -0.10743075, 102.39601135, -149.24494934, -277.54650879, -39.46214676, 10.02630806, -59.66091537, 96.80013275, -1.29094851, -29.59084892, -0.64402294, 0.72104865, -0.19818349, -0.16138998, 0.48562512, 0.58329141, 0.21956348, 100.01300812, 109.79004669, 31.03999901, 0.00000000
1, 3.6700, 362, -0.72262192, -1.53678942, 0.06873751, 114.67043304, -138.41184998, -267.27941895, -36.48056030, 8.65244102, -58.46243668, 97.37554169, 0.12116257, -30.11485672, -0.63728952, 0.72551489, -0.19445786, -0.17226841, 0.71839011, 0.54466152, 0.05283973, 100.01300812, 109.79004669, 31.03999901, 0.00000000
1, 3.6750, 363, -0.83365476, -1.55027771, 0.46550912, 133.59504700, -69.44371033, -247.29878235, -36.48056030, 8.65244102, -58.46243668, 98.03832245, 1.39424884, -30.29504204, -0.63057470, 0.73073071, -0.18955027, -0.18021895, 0.85133588, 0.55913234, -0.33317891, 100.01300812, 109.79004669, 31.03999901, 0.00000000
1, 3.6800, 364, -0.83456326, -1.57592404, 0.76958567, 126.26069641, -43.81921387, -240.67085266, -36.48056030, 8.65244102, -58.46243668, 98.66519928, 2.61807799, -30.33875084, -0.62426245, 0.73578066, -0.18406005, -0.18720371, 0.87301958, 0.58650243, -0.62632805, 100.01300812, 109.79004669, 31.03999901, 0.00000000
1, 3.6850, 365, -0.86316544, -1.60807395, 0.87753600, 106.04524994, -42.04774094, -237.53204346, -34.52206802, 10.64016342, -57.41011429, 99.19102478, 3.82523561, -30.36378670, -0.61855364, 0.74016690, -0.17843217, -0.19418126, 0.92243260, 0.62101233, -0.72502041, 100.01300812, 109.79004669, 31.03999901, 0.00000000
1, 3.7750, 366, 0.05393004, -1.04013276, 0.36722913, -4.65768337, -44.21414185, 101.27291107, -28.70505714, 13.32943535, -55.27623367, 103.26279449, 11.56619930, -28.70647240, -0.57869834, 0.77119970, -0.13277903, -0.22962791, 0.14757636, 0.08645996, -0.14367819, 100.01300812, 109.79004669, 31.03999901, 0.00000000
1, 3.7800, 367, 0.08092637, -0.95499289, 0.05762339, -12.80202484, -64.52202606, 115.89487457, -28.88044357, 13.41712952, -55.71470261, 103.11106110, 11.07471561, -29.16084671, -0.57989937, 0.76955408, -0.13818035, -0.22893146, 0.11322527, -0.00031229, 0.16421019, 100.01300812, 109.79004669, 31.03999901, 0.00000000
1, 3.7850, 368, 0.00295265, -0.93930614, -0.08413716, -15.20918751, -83.20281219, 128.62481689, -28.88044357, 13.41712952, -55.71470261, 102.93185425, 10.54076672, -29.72016525, -0.58117151, 0.76755500, -0.14445354, -0.22854361, 0.18254995, -0.01812359, 0.30334234, 100.01300812, 109.79004669, 31.03999901, 0.00000000
1, 3.7900, 369, -0.23285104, -0.98492873, -0.19123708, -12.69919586, -104.74813843, 144.93942261, -28.88044357, 13.41712952, -55.71470261, 102.74892426, 9.94930267, -30.40175629, -0.58235580, 0.76526171, -0.15183707, -0.22843367, 0.40870124, 0.02517962, 0.40702656, 100.01300812, 109.79004669, 31.03999901, 0.00000000
1, 3.7950, 370, -0.33958417, -1.11784637, -0.01152166, 0.15056719, -103.74991608, 153.00186157, -28.99736977, 13.15404797, -55.56854630, 102.63729858, 9.31580448, -31.08445168, -0.58316052, 0.76320374, -0.15958163, -0.22798590, 0.50423014, 0.15548915, 0.22500786, 100.01300812, 109.79004669, 31.03999901, 0.00000000
1, 3.8000, 371, -0.23713781, -1.28145134, 0.32890636, 8.88658333, -97.18335724, 151.01414490, -28.99736977, 13.15404797, -55.56854630, 102.58253479, 8.68408775, -31.73037529, -0.58366305, 0.76139909, -0.16716872, -0.22729649, 0.39001119, 0.31657809, -0.11611211, 100.01300812, 109.79004669, 31.03999901, 0.00000000
1, 3.8050, 372, 0.02205114, -1.35723269, 0.48382291, -5.90252924, -81.36486053, 145.48036194, -29.26045036, 12.86173630, -55.80239487, 102.47645569, 8.05986118, -32.28984451, -0.58466727, 0.75938630, -0.17402446, -0.22630145, 0.11963946, 0.39019498, -0.27163810, 100.01300812, 109.79004669, 31.03999901, 0.00000000
1, 3.8100, 373, 0.40254363, -1.15853500, 0.49962413, -18.83545494, -81.38657379, 137.33711243, -29.26045036, 12.86173630, -55.80239487, 102.30986786, 7.47537231, -32.83880234, -0.58600676, 0.75705057, -0.18046483, -0.22561719, -0.27123600, 0.18948421, -0.28849846, 100.01300812, 109.79004669, 31.03999901, 0.00000000
1, 3.8150, 374, 0.56392211, -1.10787821, 0.35904247, -11.34619617, -95.40135956, 121.55486298, -29.26045036, 12.86173630, -55.80239487, 102.17933655, 6.98144579, -33.43780518, -0.58680660, 0.75485539, -0.18680765, -0.22573051, -0.44124040, 0.13739862, -0.14960133, 100.01300812, 109.79004669, 31.03999901, 0.00000000
1, 3.8200, 375, 0.52718967, -1.21649778, -0.05211293, -9.36746025, -87.22480774, 100.72831726, -29.55276108, 12.62788677, -56.15317154, 102.07054901, 6.57967234, -33.97312164, -0.58738106, 0.75292927, -0.19226687, -0.22608534, -0.41081941, 0.24542075, 0.25958985, 100.01300812, 109.79004669, 31.03999901, 0.00000000
1, 3.8250, 376, 0.58767366, -1.32197261, -0.17279536, -13.75997448, -65.90344238, 84.36222839, -29.55276108, 12.62788677, -56.15317154, 101.95679474, 6.23486471, -34.38525772, -0.58810163, 0.75121599, -0.19659266, -0.22619140, -0.47719574, 0.34999520, 0.37848347, 100.01300812, 109.79004669, 31.03999901, 0.00000000
1, 3.9550, 377, 0.82942998, -1.54609025, 0.83315033, 12.76286507, 85.13208008, 85.06578827, -33.84975052, 10.20169544, -55.86085892, 101.90532684, -7.13061142, -41.55240250, -0.60498929, 0.71082264, -0.31157783, -0.17787202, -0.95364290, 0.57357246, -0.62881327, 100.01300812, 109.79004669, 31.03999901, 0.00000000
