time,ax,ay,az,aT
0.005000,0.0651,0.3020,-0.6323,0.704
0.006000,0.0683,0.3014,-0.6485,0.718
0.006000,0.0590,0.2829,-0.6251,0.689
0.006000,0.0323,0.2630,-0.5571,0.617
0.006000,0.0263,0.2532,-0.4898,0.552
0.012000,0.0408,0.2677,-0.3895,0.474
0.020000,0.0614,0.2727,-0.2560,0.379
0.021000,0.0691,0.2511,-0.1345,0.293
0.030000,0.0807,0.2173,-0.0536,0.238
0.031000,0.1035,0.1878,-0.0060,0.215
0.033000,0.1331,0.1532,0.0132,0.203
0.038000,0.1334,0.1110,0.0375,0.178
0.051000,0.1283,0.0731,0.0599,0.159
0.052000,0.1249,0.0346,0.0563,0.141
0.054000,0.1425,0.0268,0.0340,0.149
0.077000,0.1503,0.0425,-0.0143,0.157
0.077000,0.1506,0.0436,-0.0671,0.171
0.077000,0.1291,0.0517,-0.0911,0.166
0.078000,0.1097,0.0573,-0.1460,0.191
0.087000,0.0999,0.0702,-0.2008,0.235
0.087000,0.0778,0.0713,-0.2487,0.270
0.088000,0.0508,0.0582,-0.2941,0.304
0.103000,0.0164,0.0571,-0.3275,0.333
0.104000,-0.0037,0.0655,-0.3274,0.334
0.104000,-0.0194,0.0356,-0.4371,0.439
0.119000,0.0325,0.0829,-0.3323,0.344
0.120000,0.0667,0.1258,-0.2614,0.298
0.120000,0.0817,0.1663,-0.1500,0.238
0.124000,0.0541,0.1852,-0.0457,0.198
0.137000,0.0457,0.2372,0.0946,0.259
0.138000,0.0839,0.2840,0.2256,0.372
0.139000,0.0858,0.2561,0.2926,0.398
0.154000,0.0363,0.1371,0.3024,0.334
0.155000,0.0929,0.1092,0.2358,0.276
0.155000,0.1524,0.1274,0.2383,0.310
0.161000,0.0937,0.1223,0.1423,0.210
0.169000,0.0449,0.1351,0.0481,0.150
0.170000,0.0726,0.1589,-0.0160,0.175
0.174000,0.0711,0.1671,-0.1286,0.222
0.194000,-0.0105,0.1618,-0.1941,0.253
0.195000,-0.0294,0.1909,-0.3057,0.362
0.195000,-0.0419,0.2371,-0.3459,0.422
0.195000,-0.0268,0.3479,-0.3147,0.470
0.203000,-0.0156,0.4319,-0.2426,0.496
0.204000,-0.1200,0.4866,-0.2276,0.550
0.220000,-0.1921,0.4996,-0.2287,0.582
0.221000,-0.2463,0.4519,-0.2530,0.573
0.221000,-0.2538,0.3887,-0.2453,0.525
0.224000,-0.2478,0.3028,-0.1746,0.428
0.238000,-0.2254,0.2441,-0.1002,0.347
0.239000,-0.1651,0.1885,0.0183,0.251
0.240000,-0.1046,0.1382,0.1119,0.206
0.254000,-0.0558,0.0714,0.1497,0.175
0.255000,0.0220,-0.0021,0.1698,0.171
0.255000,0.1195,-0.0512,0.1938,0.233
0.270000,0.2107,-0.0780,0.1903,0.294
0.271000,0.3073,-0.0725,0.1520,0.350
0.271000,0.4571,0.0206,-0.1606,0.485
0.274000,0.4703,0.0528,-0.0178,0.474
0.308000,0.4742,-0.0364,0.1284,0.493
0.309000,0.4164,-0.1225,0.1443,0.457
0.309000,0.3636,-0.1357,0.1323,0.410
0.310000,0.3532,-0.0679,0.0777,0.368
0.310000,0.3288,0.0027,-0.0082,0.329
0.310000,0.2654,0.0646,-0.0730,0.283
0.319000,0.2185,0.1041,-0.1769,0.300
0.321000,0.2027,0.1189,-0.2101,0.315
0.321000,0.2113,0.1237,-0.2780,0.370
0.324000,0.2164,0.0904,-0.3618,0.431
0.329000,0.2298,0.0406,-0.4426,0.500
0.335000,0.1797,-0.0472,-0.4676,0.503
0.339000,0.1876,-0.1422,-0.4536,0.511
0.345000,0.2632,-0.2350,-0.4458,0.569
0.350000,0.3650,-0.3071,-0.4198,0.635
0.354000,0.4756,-0.4072,-0.3751,0.730
0.362000,0.5753,-0.5336,-0.3161,0.846
0.365000,0.6946,-0.6532,-0.2662,0.990
0.369000,0.8204,-0.7502,-0.2249,1.134
0.374000,0.8848,-0.7775,-0.2084,1.196
0.405000,0.8388,-0.7669,-0.2116,1.156
0.405000,0.7676,-0.7078,-0.2192,1.067
0.405000,0.7046,-0.5207,-0.3965,0.962
0.406000,0.6047,-0.3961,-0.3471,0.802
0.406000,0.4548,-0.3643,-0.3586,0.684
0.406000,0.3387,-0.3460,-0.3953,0.625
0.415000,0.2792,-0.2981,-0.4116,0.580
0.415000,0.2032,-0.2087,-0.4194,0.511
0.425000,-0.0941,-0.1208,-0.3615,0.393
0.425000,-0.0021,0.0927,-0.3839,0.395
0.437000,-0.0151,0.1807,-0.6493,0.674
0.437000,0.0179,0.1598,-0.8365,0.852
0.439000,0.1334,0.1119,-1.0394,1.054
0.455000,0.3000,0.0452,-1.1869,1.225
0.455000,0.4369,-0.0513,-1.4019,1.469
0.456000,0.4701,-0.1149,-1.3044,1.391
0.469000,0.4554,-0.1699,-1.2341,1.326
0.470000,0.4988,-0.2304,-1.3253,1.435
0.470000,0.6213,-0.2650,-1.4751,1.622
0.474000,0.7636,-0.2518,-1.6362,1.823
0.485000,0.7692,-0.3177,-1.7724,1.958
0.486000,0.7108,-0.4392,-1.9072,2.082
0.489000,0.6201,-0.5238,-2.0877,2.240
0.521000,0.5168,-0.5742,-2.2538,2.382
0.522000,0.5387,-0.5690,-2.4529,2.575
0.523000,0.5111,-0.5238,-2.5738,2.676
0.524000,0.4159,-0.5207,-2.8263,2.904
0.524000,0.3386,-0.7901,-2.8575,2.984
0.526000,0.5769,-1.4327,-2.6196,3.041
0.527000,0.5949,-1.6242,-2.9990,3.462
0.530000,0.3066,-1.6155,-3.3780,3.757
0.535000,-0.1571,-1.4852,-3.3717,3.688
0.540000,-0.6271,-1.3338,-3.1984,3.522
0.548000,-1.1355,-1.1448,-2.8965,3.315
0.550000,-1.6834,-0.9690,-2.6285,3.268
0.555000,-2.0621,-0.8069,-2.3773,3.249
0.561000,-2.0031,-0.6526,-2.2879,3.110
0.565000,-1.6337,-0.6276,-2.4016,2.972
0.570000,-1.1354,-0.7253,-2.6770,2.997
0.575000,-0.5654,-0.7980,-2.9982,3.154
0.587000,0.0224,-0.7530,-3.3312,3.415
0.588000,0.5817,-0.6229,-3.6151,3.714
0.590000,1.0028,-0.5331,-3.9303,4.091
0.596000,1.2052,-0.5133,-4.2327,4.431
0.600000,1.3543,-0.5511,-4.3571,4.596
0.623000,1.4456,-0.6060,-4.2771,4.555
0.625000,1.5000,-0.6898,-4.1030,4.423
0.626000,1.4593,-0.8476,-4.7250,5.017
0.626000,1.1195,-1.0918,-4.2989,4.575
0.627000,0.8999,-1.3387,-5.8037,6.024
0.633000,0.5115,-1.5760,-7.2990,7.485
0.635000,0.1590,-1.7394,-7.8494,8.041
0.640000,-0.0974,-1.9033,-8.0088,8.232
0.646000,-0.1946,-2.0625,-8.0650,8.327
0.650000,-0.1643,-2.2496,-8.0470,8.357
0.655000,-0.0143,-2.4240,-7.9385,8.300
0.661000,0.2769,-2.5164,-7.8305,8.230
0.665000,0.8123,-2.3935,-8.2150,8.595
0.671000,1.1007,-2.4154,-8.3862,8.796
0.675000,0.9549,-2.6660,-8.3684,8.835
0.684000,0.6051,-2.9885,-8.1814,8.731
0.685000,0.2389,-3.2509,-7.8483,8.498
0.696000,-0.0481,-3.4104,-7.4622,8.205
0.698000,-0.2352,-3.4995,-7.0628,7.886
0.700000,-0.3479,-3.5651,-6.6601,7.562
0.705000,-0.3826,-3.6038,-6.2402,7.216
0.727000,-0.3750,-3.6623,-5.8203,6.887
0.728000,-0.3045,-3.7279,-5.4258,6.590
0.728000,-0.2127,-3.8157,-5.0074,6.299
0.729000,-0.1246,-3.9329,-4.6035,6.056
0.730000,-0.1126,-4.0890,-4.2055,5.867
0.735000,-0.2436,-4.2973,-3.7937,5.737
0.740000,-0.5209,-4.5396,-3.5227,5.770
0.745000,-0.8340,-4.7605,-3.4451,5.935
0.751000,-1.1337,-4.9826,-3.4651,6.174
0.756000,-1.3860,-5.2023,-3.4977,6.420
0.761000,-1.6693,-5.4518,-3.6140,6.751
0.765000,-1.9433,-5.6698,-3.8862,7.143
0.770000,-2.0849,-5.7774,-4.3397,7.520
0.775000,-1.9627,-5.7190,-4.9770,7.831
0.780000,-1.6200,-5.5937,-5.6469,8.112
0.785000,-1.1765,-5.5223,-6.2138,8.396
0.792000,-0.6175,-5.4818,-6.5833,8.589
0.801000,-0.0192,-5.4735,-6.5887,8.566
0.802000,0.4482,-5.5955,-5.8685,8.121
0.805000,0.6825,-5.8320,-4.3238,7.292
0.828000,0.6329,-6.0403,-2.5056,6.570
0.829000,0.4847,-6.1438,-1.1689,6.273
0.830000,0.4210,-6.1842,-0.1968,6.202
0.830000,0.4103,-6.1786,0.6642,6.228
0.833000,0.3809,-6.2672,1.2862,6.409
0.836000,0.3836,-6.4997,1.5732,6.698
0.840000,0.2494,-6.8472,1.7152,7.063
0.846000,-0.0827,-7.2137,1.7233,7.417
0.850000,-0.5950,-7.5413,1.5148,7.715
0.855000,-1.1494,-7.7719,1.0675,7.929
0.861000,-1.4657,-7.7854,0.4627,7.936
0.865000,-1.3711,-7.5449,-0.1934,7.671
0.870000,-0.6129,-7.0565,-0.8381,7.132
0.877000,0.8315,-6.4209,-1.4647,6.638
0.880000,2.8011,-5.7767,-1.9915,6.722
0.886000,4.6466,-5.3021,-2.1532,7.372
0.891000,5.9953,-5.0605,-1.8789,8.067
0.896000,6.7966,-4.9614,-1.2703,8.510
0.901000,7.2058,-4.9024,-0.4802,8.729
0.906000,7.3613,-4.8548,0.4268,8.828
0.915000,7.3731,-4.8163,1.3923,8.916
0.917000,7.2985,-4.8644,2.2860,9.064
0.921000,7.1783,-5.0147,2.9753,9.248
0.945000,7.0079,-5.2219,3.4465,9.395
0.947000,6.7924,-5.4915,3.7032,9.487
0.948000,6.5346,-5.8195,3.7914,9.536
0.948000,6.3286,-6.1204,3.7379,9.565
0.949000,6.2584,-6.3349,3.6462,9.623
0.951000,6.3387,-6.4940,3.5968,9.762
0.955000,6.6317,-6.5610,3.5294,9.974
0.961000,7.2880,-6.4817,3.4940,10.360
0.966000,8.2376,-6.2321,3.5309,10.916
0.972000,9.3815,-5.5758,3.7357,11.535
0.977000,10.2791,-5.0988,4.0364,12.164
0.981000,11.0082,-4.7353,4.0879,12.662
0.985000,11.5709,-4.4393,4.0440,13.036
0.990000,11.9215,-4.2091,3.9814,13.255
0.996000,12.0931,-3.9445,3.9423,13.317
1.001000,12.0854,-3.6029,3.9374,13.211
1.005000,11.9202,-3.1616,4.0347,12.976
1.014000,11.6660,-2.6585,4.2724,12.705
1.016000,11.3569,-2.1324,4.5833,12.431
1.020000,10.9523,-1.6521,4.8739,12.101
1.041000,10.5483,-1.1904,5.1579,11.802
1.044000,10.2094,-0.7397,5.3702,11.559
1.045000,9.9243,-0.3273,5.4988,11.351
1.046000,9.7754,0.0712,5.5626,11.248
1.047000,9.7965,0.5381,5.5903,11.292
1.051000,10.0011,1.1370,5.5628,11.500
1.055000,10.4023,1.8450,5.5354,11.927
1.061000,10.9174,2.6464,5.5485,12.529
1.066000,11.4736,3.4709,5.5942,13.228
1.071000,11.9869,4.3252,5.6142,13.925
1.076000,12.4662,5.1659,5.5507,14.591
1.081000,12.8337,5.9397,5.4347,15.150
1.085000,12.9640,6.5862,5.3426,15.491
1.091000,12.8307,7.0770,5.2685,15.571
1.097000,12.4392,7.4254,5.1498,15.375
1.101000,11.8375,7.6223,4.9688,14.930
1.106000,11.1273,7.6553,4.6997,14.301
1.114000,10.3960,7.6147,4.3212,13.592
1.116000,9.7258,7.5375,3.8945,12.906
1.121000,9.1244,7.4295,3.4417,12.260
1.147000,8.5590,7.3036,2.9969,11.644
1.148000,8.0342,7.2124,2.5961,11.104
1.149000,7.5579,7.1518,2.2513,10.646
1.149000,7.1563,7.1245,1.9484,10.284
1.151000,6.8345,7.1378,1.6875,10.025
1.152000,6.6091,7.1798,1.4376,9.864
1.155000,6.4773,7.2334,1.1942,9.783
1.161000,6.4004,7.2911,0.9437,9.748
1.166000,6.3423,7.3383,0.6864,9.723
1.171000,6.2669,7.4036,0.4468,9.710
1.176000,6.1645,7.4389,0.2658,9.665
1.181000,6.0066,7.4325,0.1196,9.557
1.186000,5.8197,7.3942,0.0132,9.410
1.194000,5.6113,7.3337,-0.0339,9.234
1.197000,5.4128,7.2707,-0.0626,9.064
1.201000,5.2361,7.2337,-0.0629,8.930
1.207000,5.0716,7.1869,-0.0398,8.796
1.212000,4.9099,7.1375,-0.0050,8.663
1.216000,4.7560,7.0642,0.0391,8.516
1.221000,4.6098,6.9767,0.0733,8.362
1.233000,4.5074,6.8605,0.1099,8.209
1.235000,4.4129,6.7111,0.1704,8.034
1.237000,4.3217,6.5094,0.2499,7.817
1.241000,4.2408,6.3105,0.3601,7.612
1.276000,4.1637,6.1219,0.4598,7.418
1.280000,4.1045,5.9221,0.5654,7.228
1.281000,4.0610,5.7326,0.6860,7.059
1.282000,4.0260,5.5582,0.8139,6.911
1.283000,3.9996,5.3726,0.9485,6.765
1.283000,3.9910,5.1922,1.0631,6.635
1.284000,3.9745,4.9960,1.1833,6.493
1.285000,3.9737,4.8149,1.2897,6.375
1.286000,3.9648,4.6273,1.3870,6.249
1.293000,3.9238,4.4523,1.4581,6.111
1.296000,3.8773,4.2899,1.5438,5.985
1.301000,3.8656,4.1183,1.6324,5.879
1.306000,3.9011,3.9380,1.7284,5.806
1.312000,3.9526,3.7321,1.7867,5.722
1.316000,4.0057,3.4838,1.8314,5.616
1.323000,4.0605,3.2385,1.8744,5.522
1.329000,4.0858,2.9938,1.8848,5.405
1.332000,4.1006,2.7492,1.8602,5.276
1.340000,4.1128,2.5246,1.8011,5.151
1.341000,4.1340,2.2936,1.7221,5.031
1.354000,4.1237,2.0679,1.6207,4.890
1.356000,4.1108,1.8548,1.4757,4.745
1.356000,4.0521,1.6590,1.2870,4.564
1.365000,3.9739,1.4560,1.0883,4.370
1.366000,3.8888,1.2302,0.9135,4.180
1.371000,3.8132,0.9978,0.7626,4.015
1.377000,3.7355,0.7399,0.6354,3.861
1.381000,3.6269,0.4687,0.5318,3.696
1.387000,3.4998,0.2011,0.4394,3.533
1.392000,3.3465,-0.0540,0.3702,3.367
1.396000,3.2038,-0.3312,0.3311,3.238
1.402000,3.0474,-0.5927,0.3164,3.121
1.406000,2.8799,-0.8576,0.3020,3.020
1.412000,2.7108,-1.1044,0.3068,2.943
1.419000,2.5355,-1.3308,0.3281,2.882
1.424000,2.3416,-1.5615,0.3462,2.836
1.427000,2.1178,-1.7860,0.3299,2.790
1.431000,1.8424,-2.0335,0.2456,2.755
1.437000,1.5394,-2.2992,0.1006,2.769
1.443000,1.2258,-2.6093,-0.1284,2.886
1.449000,0.9208,-2.9467,-0.4025,3.113
1.451000,0.6314,-3.3098,-0.6712,3.436
1.456000,0.3509,-3.7209,-0.9434,3.855
1.466000,0.0409,-4.1828,-1.2379,4.362
1.467000,-0.2984,-4.7046,-1.5638,4.967
1.472000,-0.6476,-5.2541,-1.9296,5.635
1.509000,-1.0186,-5.8164,-2.3602,6.359
1.511000,-1.4187,-6.3718,-2.8542,7.125
1.512000,-1.8354,-6.8989,-3.3641,7.892
1.512000,-2.2475,-7.3662,-3.8407,8.606
1.513000,-2.6407,-7.7297,-4.2663,9.215
1.514000,-3.0078,-8.0030,-4.6471,9.731
1.514000,-3.3467,-8.1638,-4.9684,10.126
1.515000,-3.6359,-8.1909,-5.1564,10.339
1.517000,-3.8921,-8.0740,-5.1618,10.343
1.522000,-4.1229,-7.8140,-5.0391,10.171
1.527000,-4.3688,-7.4596,-4.7897,9.883
1.532000,-4.6133,-7.0066,-4.3938,9.470
1.538000,-4.8732,-6.5204,-3.8576,9.008
1.544000,-5.1580,-6.0304,-3.2715,8.583
1.548000,-5.4772,-5.5508,-2.6349,8.231
1.552000,-5.8094,-5.1037,-1.9831,7.983
1.557000,-6.1449,-4.6845,-1.3508,7.844
1.566000,-6.4910,-4.3289,-0.7771,7.841
1.568000,-6.8403,-4.0724,-0.2839,7.966
1.572000,-7.1475,-3.8930,0.1574,8.141
1.597000,-7.3671,-3.8114,0.5204,8.311
1.598000,-7.4631,-3.8006,0.8203,8.415
1.599000,-7.3737,-3.8603,1.0627,8.391
1.599000,-7.0775,-3.9310,1.2030,8.185
1.600000,-6.6085,-4.0275,1.1900,7.830
1.602000,-6.0650,-4.1438,1.0270,7.417
1.607000,-5.5120,-4.2570,0.7057,7.000
1.611000,-4.9831,-4.3800,0.2558,6.639
1.617000,-4.4665,-4.4942,-0.2714,6.342
1.622000,-3.9910,-4.6074,-0.8363,6.153
1.627000,-3.5736,-4.7582,-1.4140,6.116
1.632000,-3.2166,-4.9250,-1.9867,6.209
1.637000,-2.9271,-5.0843,-2.5586,6.400
1.644000,-2.7244,-5.2310,-3.1147,6.670
1.648000,-2.6153,-5.3480,-3.6161,6.965
1.652000,-2.5519,-5.4205,-4.0127,7.211
1.657000,-2.5101,-5.4578,-4.3020,7.389
1.661000,-2.5135,-5.4454,-4.4782,7.485
1.667000,-2.5476,-5.3972,-4.5613,7.512
1.672000,-2.6145,-5.3033,-4.5452,7.458
1.684000,-2.6947,-5.2136,-4.4211,7.348
1.685000,-2.7762,-5.1489,-4.2119,7.208
1.688000,-2.8537,-5.1062,-3.8924,7.026
1.728000,-2.9223,-5.0400,-3.5295,6.812
1.731000,-2.9771,-4.9259,-3.1047,6.540
1.731000,-3.0298,-4.7520,-2.6669,6.235
1.732000,-3.0685,-4.5231,-2.2454,5.909
1.732000,-3.0811,-4.2466,-1.8355,5.558
1.733000,-3.0602,-3.9582,-1.3799,5.190
1.734000,-3.0015,-3.6542,-0.8957,4.813
1.734000,-2.9359,-3.3398,-0.3928,4.464
1.734000,-2.8516,-3.0201,0.0833,4.154
1.737000,-2.7511,-2.6816,0.5019,3.874
1.744000,-2.6370,-2.3366,0.9019,3.637
1.747000,-2.5139,-1.9926,1.2245,3.434
1.752000,-2.3753,-1.6654,1.4587,3.247
1.757000,-2.2235,-1.3406,1.7060,3.107
1.764000,-2.0517,-1.0331,1.9406,3.007
1.767000,-1.8648,-0.7529,2.1367,2.934
1.772000,-1.6607,-0.5221,2.3116,2.894
1.793000,-1.4513,-0.3260,2.4489,2.865
1.794000,-1.2277,-0.1706,2.5779,2.860
1.794000,-0.9924,-0.0152,2.6962,2.873
1.795000,-0.7455,0.1326,2.7366,2.839
1.798000,-0.5186,0.2798,2.7209,2.784
1.802000,-0.2950,0.4092,2.6515,2.699
1.807000,-0.1249,0.4996,2.5096,2.562
1.813000,-0.0327,0.5671,2.2810,2.351
1.817000,-0.0107,0.5911,2.0138,2.099
1.822000,-0.0300,0.6080,1.6793,1.786
1.828000,-0.0855,0.6231,1.3375,1.478
1.832000,-0.1530,0.6344,0.9932,1.188
1.838000,-0.2179,0.6381,0.7163,0.984
1.845000,-0.2874,0.6743,0.4970,0.886
1.847000,-0.3539,0.7320,0.3637,0.891
1.853000,-0.3886,0.7969,0.3231,0.944
1.858000,-0.4150,0.8839,0.2956,1.020
1.862000,-0.4355,0.9789,0.2858,1.109
1.868000,-0.4232,1.0990,0.3078,1.217
1.873000,-0.3573,1.2483,0.3682,1.350
1.880000,-0.2566,1.4127,0.4455,1.503
1.887000,-0.0949,1.5751,0.5465,1.670
1.888000,0.1085,1.7451,0.6567,1.868
1.927000,0.3484,1.9366,0.7710,2.113
1.927000,0.6059,2.1257,0.8747,2.377
1.927000,0.8370,2.3184,0.9698,2.649
1.928000,1.0466,2.5052,1.0585,2.914
1.928000,1.2250,2.6788,1.1622,3.167
1.928000,1.3745,2.8654,1.2282,3.407
1.929000,1.5095,3.0219,1.2784,3.612
1.929000,1.6445,3.1510,1.3149,3.790
1.933000,1.7860,3.2927,1.3379,3.978
1.940000,1.9533,3.4472,1.3355,4.181
1.944000,2.1032,3.6237,1.3151,4.391
1.948000,2.2592,3.7934,1.2909,4.600
1.952000,2.3927,3.9563,1.2678,4.794
1.957000,2.5086,4.1007,1.2172,4.959
1.962000,2.5991,4.2472,1.1465,5.110
1.969000,2.6762,4.3939,1.0609,5.253
1.973000,2.7448,4.5144,0.9413,5.367
1.978000,2.7857,4.6063,0.7906,5.441
1.983000,2.7940,4.6842,0.6258,5.490
1.988000,2.7796,4.7099,0.4712,5.489
1.999000,2.7350,4.7121,0.3583,5.460
2.002000,2.6942,4.6912,0.2848,5.417
2.004000,2.6453,4.6164,0.2556,5.327
2.008000,2.6126,4.5049,0.2804,5.215
2.033000,2.6347,4.3571,0.3522,5.104
2.035000,2.7021,4.2020,0.4707,5.018
2.035000,2.8289,4.0728,0.6165,4.997
2.036000,3.0129,3.9984,0.7676,5.065
2.037000,3.2442,3.9595,0.9048,5.198
2.038000,3.5060,3.9464,1.0399,5.380
2.046000,3.7743,3.9709,1.1727,5.603
2.049000,4.0347,4.0641,1.3054,5.874
2.054000,4.2937,4.2156,1.4087,6.180
2.057000,4.5058,4.4373,1.4923,6.498
2.064000,4.7043,4.7050,1.5512,6.832
2.068000,4.8772,5.0043,1.5805,7.164
2.073000,5.0554,5.2966,1.5444,7.483
2.078000,5.2509,5.5510,1.4599,7.779
2.084000,5.5228,5.7837,1.3368,8.108
2.088000,5.8899,5.9490,1.2160,8.459
2.101000,6.3063,6.0516,1.1335,8.813
2.103000,6.7666,6.0718,1.0672,9.154
2.104000,7.2655,5.9783,0.9496,9.457
2.109000,7.8123,5.6944,0.7786,9.699
2.137000,8.3564,5.1818,0.5523,9.848
2.138000,8.8451,4.4336,0.3142,9.899
2.139000,9.2190,3.5149,0.0860,9.867
2.139000,9.4427,2.5600,-0.0681,9.784
2.140000,9.4310,1.6629,-0.0936,9.577
2.142000,9.1254,0.9869,0.0252,9.179
2.148000,8.5635,0.6575,0.2634,8.593
2.149000,7.8516,0.7563,0.5560,7.908
2.153000,7.1292,1.2451,0.8844,7.291
2.161000,6.5232,1.9682,1.1872,6.916
2.165000,6.1337,2.7720,1.4369,6.883
2.168000,5.9956,3.5028,1.5458,7.114
2.173000,6.1438,4.0906,1.4913,7.530
2.180000,6.5527,4.4818,1.3176,8.047
2.184000,7.1177,4.6460,1.0806,8.568
2.189000,7.7463,4.5703,0.8402,9.033
2.194000,8.3275,4.3014,0.6349,9.394
2.199000,8.7913,3.8648,0.4885,9.616
2.203000,9.1168,3.3066,0.4341,9.708
2.211000,9.3356,2.6362,0.4637,9.712
2.213000,9.4052,1.8968,0.5741,9.612
2.220000,9.3501,1.1055,0.7072,9.442
2.223000,9.1972,0.2695,0.8314,9.239
2.232000,8.9555,-0.5449,0.9821,9.026
2.233000,8.6065,-1.3327,1.1280,8.782
2.242000,8.1202,-2.0929,1.2522,8.479
2.248000,7.5506,-2.7861,1.3665,8.163
2.249000,6.9343,-3.3444,1.4969,7.843
2.267000,6.2837,-3.7415,1.6387,7.495
2.269000,5.6074,-3.9608,1.7972,7.097
2.269000,4.9177,-4.0144,1.9845,6.651
2.270000,4.2674,-3.9328,2.1677,6.195
2.277000,3.7286,-3.7036,2.3468,5.756
2.279000,3.3393,-3.3628,2.5006,5.358
2.286000,3.1082,-2.9638,2.6313,5.037
2.288000,3.0186,-2.5661,2.7262,4.809
2.302000,3.0409,-2.2115,2.8114,4.695
2.303000,3.1409,-1.9178,2.8571,4.659
2.303000,3.2486,-1.7071,2.8626,4.654
2.309000,3.3303,-1.5609,2.8414,4.648
2.318000,3.3757,-1.4781,2.8027,4.630
2.320000,3.3569,-1.4314,2.7216,4.552
2.323000,3.2472,-1.4359,2.5958,4.398
2.336000,3.0756,-1.4843,2.4299,4.191
2.338000,2.8471,-1.5742,2.2288,3.943
2.339000,2.6002,-1.7123,2.0071,3.704
2.345000,2.3181,-1.8660,1.7579,3.456
2.350000,2.0113,-2.0309,1.5105,3.233
2.353000,1.6843,-2.2196,1.2556,3.056
2.381000,1.3160,-2.4030,1.0008,2.917
2.383000,0.9330,-2.5689,0.7637,2.838
2.383000,0.5640,-2.7166,0.5591,2.830
2.384000,0.2115,-2.8921,0.3948,2.927
2.384000,-0.1288,-3.0766,0.2619,3.090
2.385000,-0.4330,-3.2488,0.1583,3.281
2.388000,-0.7109,-3.3920,0.0652,3.466
2.394000,-0.9552,-3.5228,-0.0122,3.650
2.399000,-1.1709,-3.6340,-0.0590,3.818
2.404000,-1.3559,-3.7454,-0.0848,3.984
2.408000,-1.5097,-3.8579,-0.1083,4.144
2.415000,-1.6280,-3.9650,-0.1053,4.288
2.420000,-1.7012,-4.0694,-0.0856,4.412
2.424000,-1.7558,-4.1903,-0.0516,4.544
2.429000,-1.8182,-4.3206,0.0036,4.688
2.434000,-1.8814,-4.4373,0.0819,4.820
2.438000,-1.9665,-4.5485,0.1831,4.959
2.466000,-2.0784,-4.6596,0.2947,5.111
2.468000,-2.2268,-4.7611,0.4093,5.272
2.468000,-2.4092,-4.8387,0.5172,5.430
2.468000,-2.6063,-4.9088,0.5943,5.589
2.469000,-2.8326,-4.9625,0.6667,5.753
2.469000,-3.0711,-5.0220,0.7107,5.929
2.474000,-3.3100,-5.0781,0.7383,6.106
2.480000,-3.5398,-5.1355,0.7398,6.281
2.484000,-3.7604,-5.2083,0.7126,6.463
2.489000,-3.9529,-5.3153,0.6831,6.659
2.494000,-4.1388,-5.4331,0.6365,6.860
2.499000,-4.2966,-5.5743,0.5702,7.061
2.504000,-4.4385,-5.7036,0.4720,7.243
2.511000,-4.5861,-5.8521,0.3421,7.443
2.514000,-4.7370,-6.0077,0.1973,7.653
2.520000,-4.9057,-6.1487,0.0425,7.866
2.525000,-5.0730,-6.2875,-0.1315,8.080
2.530000,-5.2488,-6.4105,-0.3128,8.291
2.535000,-5.4427,-6.5324,-0.5083,8.518
2.539000,-5.6284,-6.6579,-0.6891,8.745
2.545000,-5.7967,-6.7770,-0.8524,8.959
2.550000,-5.9094,-6.8678,-1.0030,9.116
2.554000,-6.0215,-6.9765,-1.1791,9.291
2.574000,-6.1479,-7.0991,-1.3368,9.486
2.576000,-6.2263,-7.1881,-1.4500,9.620
2.577000,-6.2881,-7.2603,-1.5375,9.727
2.578000,-6.3190,-7.3442,-1.5971,9.819
2.578000,-6.3311,-7.4229,-1.6552,9.896
2.583000,-6.3055,-7.5039,-1.6853,9.945
2.589000,-6.2782,-7.5602,-1.6949,9.972
2.594000,-6.2564,-7.6135,-1.6960,9.999
2.601000,-6.2354,-7.6306,-1.6793,9.996
2.605000,-6.2200,-7.6257,-1.6785,9.983
2.610000,-6.2008,-7.6087,-1.6914,9.960
2.614000,-6.1610,-7.5720,-1.6871,9.906
2.620000,-6.1294,-7.5180,-1.6881,9.846
2.625000,-6.0892,-7.4637,-1.7186,9.785
2.630000,-6.0310,-7.3805,-1.7884,9.698
2.634000,-5.9570,-7.2901,-1.8067,9.586
2.639000,-5.9032,-7.1832,-1.7859,9.468
2.654000,-5.9101,-7.0933,-1.7146,9.391
2.656000,-5.9372,-7.0033,-1.6003,9.320
2.656000,-5.9771,-6.9252,-1.4336,9.260
2.664000,-6.0133,-6.8560,-1.2029,9.198
2.666000,-6.0050,-6.7428,-0.9626,9.080
2.669000,-5.9237,-6.5855,-0.7269,8.887
2.674000,-5.7501,-6.3775,-0.5286,8.603
2.680000,-5.4890,-6.1408,-0.3790,8.245
2.684000,-5.1476,-5.9070,-0.2918,7.841
2.690000,-4.6971,-5.7127,-0.3283,7.403
2.695000,-4.1183,-5.5895,-0.5186,6.962
2.699000,-3.4016,-5.5884,-0.9045,6.605
2.704000,-2.5614,-5.7537,-1.5042,6.475
2.710000,-1.6288,-6.0980,-2.2379,6.697
2.715000,-0.6610,-6.6459,-3.0050,7.324
2.719000,0.2008,-7.3334,-3.7319,8.231
2.724000,0.8947,-8.0892,-4.4202,9.261
2.729000,1.4185,-8.8814,-5.1697,10.374
2.735000,1.6577,-9.6478,-5.8497,11.404
2.739000,1.5070,-10.3582,-6.3341,12.235
2.752000,1.0553,-10.9679,-6.4915,12.789
2.756000,0.4464,-11.3814,-6.2419,12.988
2.758000,-0.2864,-11.5228,-5.6365,12.831
2.760000,-1.0567,-11.4213,-4.7432,12.412
2.790000,-1.8262,-11.1072,-3.6747,11.841
2.793000,-2.5301,-10.6271,-2.5173,11.210
2.796000,-3.1180,-10.0160,-1.3636,10.578
2.797000,-3.5061,-9.2879,-0.1858,9.929
2.797000,-3.6414,-8.4886,0.9697,9.287
2.798000,-3.5096,-7.6996,2.0708,8.711
2.798000,-3.0720,-6.9379,3.0654,8.183
2.800000,-2.3647,-6.2545,3.8862,7.734
2.804000,-1.4521,-5.6921,4.4657,7.379
2.811000,-0.3965,-5.2887,4.7797,7.140
2.814000,0.7039,-5.0585,4.8564,7.048
2.819000,1.7942,-4.9923,4.7048,7.091
2.824000,2.8382,-5.0646,4.3174,7.235
2.830000,3.8046,-5.2252,3.8122,7.504
2.835000,4.6289,-5.4390,3.2138,7.832
2.840000,5.2606,-5.6590,2.5498,8.136
2.845000,5.6711,-5.8471,1.8860,8.361
2.850000,5.8654,-5.9855,1.2499,8.473
2.855000,5.8600,-6.0425,0.6454,8.442
2.860000,5.6937,-6.0187,0.1048,8.286
2.864000,5.3692,-5.8871,-0.3380,7.975
2.869000,4.9633,-5.6349,-0.6782,7.540
2.875000,4.5171,-5.2590,-0.9186,6.993
2.887000,4.0838,-4.7675,-1.0764,6.369
2.889000,3.6942,-4.2169,-1.1505,5.723
2.892000,3.4061,-3.6326,-1.1105,5.102
2.932000,3.2075,-3.0504,-0.9460,4.526
2.933000,3.0887,-2.5137,-0.7068,4.045
2.934000,3.0688,-2.0055,-0.4237,3.690
2.935000,3.1406,-1.5040,-0.1580,3.486
2.935000,3.2814,-1.0019,0.0620,3.432
2.935000,3.4816,-0.4994,0.2476,3.526
2.936000,3.6831,-0.0282,0.3766,3.702
2.936000,3.8709,0.4324,0.4248,3.918
2.937000,4.0040,0.8434,0.4448,4.116
2.940000,4.0823,1.2288,0.4585,4.288
2.945000,4.1094,1.5630,0.4684,4.422
2.950000,4.0688,1.8657,0.4948,4.503
2.954000,3.9652,2.1155,0.5720,4.530
2.964000,3.7962,2.3148,0.6723,4.497
2.966000,3.5930,2.4689,0.8085,4.434
2.969000,3.3824,2.5979,0.9599,4.372
2.975000,3.1542,2.7081,1.1846,4.323
3.008000,2.9257,2.8195,1.4353,4.309
3.009000,2.7208,2.9206,1.7028,4.340
3.010000,2.5182,3.0118,1.9730,4.394
3.010000,2.3300,3.1126,2.2150,4.475
3.010000,2.1854,3.2332,2.4072,4.585
3.011000,2.0763,3.3919,2.5431,4.720
3.011000,1.9768,3.5604,2.6201,4.842
3.016000,1.8987,3.7411,2.6316,4.952
3.020000,1.8541,3.9270,2.5656,5.044
3.026000,1.8188,4.0868,2.4847,5.117
3.030000,1.8172,4.2189,2.3385,5.155
3.036000,1.8555,4.3199,2.1486,5.169
3.041000,1.9317,4.4023,1.9175,5.176
3.045000,2.0144,4.4707,1.7001,5.190
3.050000,2.0796,4.5155,1.5012,5.193
3.054000,2.1345,4.5561,1.3492,5.209
3.060000,2.1866,4.6048,1.2369,5.245
3.064000,2.2307,4.6443,1.1544,5.280
3.069000,2.2910,4.6823,1.1133,5.330
3.076000,2.3915,4.7404,1.1113,5.425
3.081000,2.5177,4.8234,1.1741,5.566
3.086000,2.6242,4.9219,1.2582,5.718
3.090000,2.7184,5.0121,1.3054,5.849
3.126000,2.8116,5.1006,1.2753,5.962
3.127000,2.8805,5.1785,1.1920,6.044
3.127000,2.9537,5.2504,1.0654,6.118
3.128000,3.0600,5.2997,0.9102,6.187
3.128000,3.1874,5.3314,0.7412,6.256
3.128000,3.3792,5.3385,0.5802,6.345
3.129000,3.6298,5.3060,0.4490,6.444
3.129000,3.9514,5.2796,0.3648,6.605
3.136000,4.3362,5.2828,0.3441,6.843
3.141000,4.7646,5.3130,0.3727,7.146
3.145000,5.2145,5.3671,0.4454,7.496
3.150000,5.6571,5.4476,0.5599,7.874
3.155000,6.0602,5.5345,0.7060,8.237
3.160000,6.4311,5.6279,0.8716,8.590
3.165000,6.7576,5.6893,1.0419,8.895
3.169000,7.0205,5.7068,1.2147,9.129
3.175000,7.2225,5.6880,1.3873,9.297
3.181000,7.4042,5.6398,1.5429,9.435
3.186000,7.5610,5.5819,1.7004,9.551
3.191000,7.7075,5.5406,1.8480,9.671
3.197000,7.8678,5.5280,1.9900,9.819
3.200000,8.0560,5.5679,2.1359,10.023
3.206000,8.2600,5.6340,2.2951,10.258
3.241000,8.4720,5.7281,2.4596,10.518
3.244000,8.6605,5.8306,2.6315,10.767
3.245000,8.7913,5.9506,2.7840,10.975
3.245000,8.8353,6.0087,2.9191,11.076
3.246000,8.7636,5.9975,3.0172,11.040
3.246000,8.5930,5.8812,3.0660,10.855
3.247000,8.3625,5.6195,3.0105,10.515
3.247000,8.1896,5.1699,2.8107,10.085
3.252000,8.0729,4.4899,2.4890,9.567
3.255000,7.9887,3.5636,2.1135,8.999
3.261000,7.9069,2.5233,1.7638,8.485
3.266000,7.7631,1.4793,1.4590,8.036
3.271000,7.5037,0.5618,1.2300,7.625
3.276000,7.0744,-0.1354,1.1316,7.166
3.280000,6.4646,-0.5543,1.1967,6.598
3.285000,5.7401,-0.6296,1.3722,5.935
3.290000,4.9999,-0.3416,1.6150,5.265
3.295000,4.4165,0.2497,1.8273,4.786
3.300000,4.0736,1.0341,1.9721,4.642
3.305000,4.0057,1.8934,2.0116,4.866
3.332000,4.1827,2.6994,1.8918,5.326
3.334000,4.5312,3.3144,1.6180,5.842
3.334000,5.0256,3.6872,1.2175,6.351
3.335000,5.6097,3.7998,0.7484,6.817
3.335000,6.2089,3.6736,0.2762,7.220
3.336000,6.7552,3.3627,-0.1323,7.547
3.340000,7.1909,2.9193,-0.4626,7.775
3.345000,7.4802,2.3744,-0.7104,7.880
3.350000,7.5950,1.7256,-0.8498,7.835
3.355000,7.5547,0.9753,-0.8716,7.667
3.361000,7.4136,0.1563,-0.7882,7.457
3.367000,7.1937,-0.7000,-0.5860,7.251
3.370000,6.8888,-1.5332,-0.2730,7.063
3.377000,6.4829,-2.2946,0.1524,6.879
3.381000,5.9672,-2.9311,0.6411,6.679
3.385000,5.3470,-3.3850,1.1354,6.429
3.390000,4.6430,-3.6545,1.6278,6.129
3.396000,3.9082,-3.7371,2.0851,5.795
3.401000,3.1740,-3.6729,2.5146,5.467
3.406000,2.5007,-3.4927,2.8855,5.175
3.418000,1.9118,-3.2253,3.1983,4.928
3.420000,1.4558,-2.9173,3.4317,4.734
3.423000,1.1417,-2.5885,3.5740,4.558
3.453000,0.9667,-2.2606,3.6227,4.378
3.455000,0.9110,-1.9579,3.5803,4.181
3.455000,0.9502,-1.6739,3.4395,3.941
3.456000,1.0309,-1.4242,3.2290,3.677
3.456000,1.1364,-1.1988,2.9587,3.389
3.457000,1.2567,-1.0128,2.6382,3.093
3.457000,1.3795,-0.8646,2.2964,2.815
3.464000,1.4832,-0.7758,1.9451,2.566
3.465000,1.5699,-0.7469,1.6059,2.367
3.471000,1.6443,-0.7474,1.3000,2.225
3.476000,1.6901,-0.8052,1.0157,2.130
3.480000,1.7094,-0.9018,0.7576,2.076
3.486000,1.7000,-1.0253,0.5472,2.059
3.490000,1.6499,-1.1806,0.3964,2.067
3.496000,1.5308,-1.3413,0.3074,2.058
3.502000,1.3496,-1.5079,0.2462,2.039
3.506000,1.1121,-1.6646,0.2174,2.014
3.515000,0.8373,-1.8092,0.2041,2.004
3.517000,0.5183,-1.9391,0.2207,2.019
3.520000,0.1793,-2.0635,0.2550,2.087
3.554000,-0.1676,-2.1795,0.3070,2.207
3.554000,-0.5129,-2.2757,0.3740,2.363
3.555000,-0.8344,-2.3789,0.4491,2.561
3.555000,-1.1323,-2.5112,0.5108,2.802
3.555000,-1.3755,-2.6411,0.5568,3.029
3.555000,-1.5808,-2.8066,0.5899,3.275
3.556000,-1.7338,-3.0027,0.5981,3.519
3.564000,-1.8324,-3.2156,0.5768,3.746
3.567000,-1.8715,-3.4152,0.5408,3.932
3.571000,-1.9040,-3.6096,0.5022,4.112
3.577000,-1.9588,-3.7845,0.4587,4.286
3.581000,-2.0405,-3.9374,0.4082,4.454
3.586000,-2.1516,-4.0638,0.3747,4.614
3.591000,-2.2993,-4.1690,0.3272,4.772
3.596000,-2.4618,-4.2754,0.2855,4.942
3.601000,-2.6201,-4.3784,0.2544,5.109
3.605000,-2.7527,-4.4948,0.2343,5.276
3.613000,-2.8716,-4.6123,0.2299,5.438
3.618000,-2.9793,-4.7309,0.2199,5.595
3.620000,-3.0663,-4.8369,0.2185,5.731
3.642000,-3.1565,-4.9597,0.1875,5.882
3.645000,-3.2332,-5.0737,0.1556,6.018
3.645000,-3.3348,-5.1980,0.1177,6.177
3.646000,-3.4279,-5.2965,0.0856,6.310
3.647000,-3.5148,-5.3956,0.0496,6.440
3.651000,-3.6244,-5.4815,0.0144,6.571
3.655000,-3.7470,-5.5813,-0.0366,6.723
3.661000,-3.8709,-5.6597,-0.0913,6.857
3.666000,-3.9673,-5.7262,-0.1353,6.968
3.671000,-4.0675,-5.7855,-0.1709,7.074
3.677000,-4.1788,-5.8662,-0.2055,7.205
3.681000,-4.2795,-5.9495,-0.2487,7.333
3.685000,-4.3771,-6.0533,-0.2887,7.476
3.692000,-4.4644,-6.1587,-0.3472,7.615
3.696000,-4.5296,-6.2750,-0.3955,7.749
3.701000,-4.5919,-6.3713,-0.4600,7.867
3.705000,-4.6418,-6.4521,-0.5288,7.966
3.715000,-4.6842,-6.5129,-0.6021,8.045
3.719000,-4.7336,-6.5697,-0.6921,8.127
3.721000,-4.7733,-6.6036,-0.7821,8.186
3.758000,-4.8416,-6.6384,-0.8819,8.264
3.761000,-4.8955,-6.6836,-0.9939,8.344
3.763000,-4.9328,-6.7389,-1.1159,8.426
3.765000,-4.9368,-6.8068,-1.2170,8.496
3.767000,-4.9292,-6.8985,-1.3262,8.582
3.768000,-4.9147,-6.9760,-1.4151,8.650
3.772000,-4.9127,-7.0394,-1.4649,8.708
3.772000,-4.9231,-7.0887,-1.4808,8.757
3.773000,-4.9268,-7.1024,-1.4509,8.765
3.774000,-4.9524,-7.0711,-1.3656,8.740
3.778000,-4.9906,-7.0090,-1.2226,8.691
3.781000,-5.0317,-6.9375,-1.0455,8.634
3.787000,-5.0733,-6.8496,-0.8341,8.565
3.792000,-5.0845,-6.7548,-0.6119,8.477
3.796000,-5.0006,-6.6626,-0.4026,8.340
3.801000,-4.7094,-6.5754,-0.2414,8.092
3.806000,-4.1897,-6.4677,-0.1686,7.708
3.813000,-3.4701,-6.3909,-0.2336,7.276
3.816000,-2.6034,-6.4181,-0.4832,6.943
3.821000,-1.6446,-6.6557,-0.9330,6.919
3.834000,-0.6942,-7.1427,-1.5011,7.332
3.836000,0.1117,-7.8433,-2.1448,8.132
3.838000,0.6608,-8.6186,-2.8049,9.088
3.875000,0.8817,-9.3362,-3.4304,9.985
3.877000,0.7245,-9.8588,-4.0062,10.666
3.878000,0.2446,-10.1681,-4.4975,11.121
3.879000,-0.4814,-10.2955,-4.8573,11.394
3.880000,-1.3053,-10.2606,-5.0782,11.523
3.881000,-2.1505,-10.0498,-5.1190,11.482
3.882000,-2.8856,-9.6999,-4.9026,11.245
3.882000,-3.4103,-9.2009,-4.3378,10.729
3.883000,-3.7439,-8.5645,-3.4648,9.969
3.886000,-3.8649,-7.8338,-2.3508,9.046
3.891000,-3.7086,-7.0654,-1.1155,8.057
3.896000,-3.2415,-6.2767,0.1567,7.066
3.902000,-2.4899,-5.5056,1.3773,6.197
3.907000,-1.5590,-4.8093,2.5076,5.643
3.912000,-0.5540,-4.2286,3.4872,5.509
3.917000,0.4464,-3.7694,4.2051,5.665
3.921000,1.3944,-3.4252,4.6272,5.923
3.929000,2.2424,-3.2181,4.7364,6.150
3.931000,2.9641,-3.1395,4.5497,6.272
3.936000,3.5714,-3.1325,4.1465,6.306
3.941000,4.0190,-3.1905,3.6139,6.276
3.959000,4.2710,-3.3225,3.0047,6.189
3.960000,4.3107,-3.5149,2.3564,6.041
3.961000,4.1575,-3.7587,1.6936,5.855
3.961000,3.8423,-4.0169,1.0444,5.656
3.967000,3.4132,-4.2234,0.4322,5.447
3.971000,2.9108,-4.3746,-0.1201,5.256
3.976000,2.3781,-4.4427,-0.5989,5.075
3.981000,1.8628,-4.4346,-0.9982,4.912
3.986000,1.3746,-4.3491,-1.2934,4.741
3.992000,0.9399,-4.1950,-1.5276,4.562
3.996000,0.5659,-3.9695,-1.7106,4.359
4.002000,0.2959,-3.6579,-1.8192,4.096
4.006000,0.1302,-3.3003,-1.8353,3.779
4.013000,0.0783,-2.9148,-1.7773,3.415
4.017000,0.1549,-2.5084,-1.6588,3.011
4.021000,0.3170,-2.1081,-1.4840,2.597
4.027000,0.5264,-1.7290,-1.2666,2.207
4.032000,0.7328,-1.3792,-1.0273,1.869
4.037000,0.8816,-1.0657,-0.7695,1.583
4.041000,0.9797,-0.8048,-0.5018,1.364
4.047000,1.0441,-0.5793,-0.2298,1.216
4.052000,1.0533,-0.3655,0.0531,1.116
4.057000,1.0503,-0.1567,0.3181,1.109
4.067000,1.0374,0.0446,0.5776,1.188
4.068000,1.0173,0.2650,0.8343,1.342
4.072000,1.0011,0.4717,1.0534,1.528
4.107000,0.9435,0.6768,1.2402,1.699
4.109000,0.8563,0.8922,1.3888,1.860
4.110000,0.7202,1.0746,1.4547,1.947
4.110000,0.5543,1.2240,1.4510,1.978
4.111000,0.3708,1.3607,1.4218,2.003
4.112000,0.1857,1.4762,1.3753,2.026
4.113000,0.0210,1.6071,1.3289,2.085
4.115000,-0.0997,1.7513,1.2973,2.182
4.117000,-0.1525,1.9111,1.2953,2.314
4.122000,-0.1351,2.0985,1.3158,2.481
4.127000,-0.0714,2.2899,1.3613,2.665
4.132000,0.0162,2.5053,1.4218,2.881
4.137000,0.1494,2.7186,1.4782,3.098
4.143000,0.3135,2.9725,1.5255,3.356
4.148000,0.4867,3.2355,1.5443,3.618
4.153000,0.6688,3.4859,1.5132,3.859
4.158000,0.8600,3.7000,1.4486,4.066
4.162000,1.0570,3.8744,1.3575,4.239
4.168000,1.2696,4.0189,1.2468,4.395
4.173000,1.4810,4.0978,1.1352,4.503
4.178000,1.6839,4.1616,1.0032,4.600
4.182000,1.8617,4.2030,0.8744,4.679
4.192000,1.9813,4.2132,0.7483,4.716
4.193000,2.0374,4.2132,0.6438,4.724
4.224000,2.0475,4.2061,0.5534,4.711
4.226000,2.0454,4.2118,0.4842,4.707
4.227000,2.0265,4.2210,0.4359,4.703
4.228000,2.0223,4.2390,0.4108,4.715
4.228000,2.0546,4.2831,0.4283,4.770
4.229000,2.1278,4.3359,0.4782,4.853
4.229000,2.2373,4.4193,0.5436,4.983
4.232000,2.3855,4.5357,0.6341,5.164
4.238000,2.5721,4.6729,0.7208,5.382
4.244000,2.7826,4.8091,0.7868,5.612
4.250000,3.0124,4.9517,0.8324,5.855
4.252000,3.2797,5.0591,0.8526,6.089
4.257000,3.5727,5.1555,0.8456,6.329
4.262000,3.8718,5.2452,0.8352,6.573
4.267000,4.1456,5.3255,0.7998,6.796
4.272000,4.4038,5.3895,0.7709,7.002
4.281000,4.6194,5.4340,0.7653,7.173
4.284000,4.8166,5.4666,0.7878,7.328
4.287000,4.9784,5.5015,0.8407,7.467
4.322000,5.1026,5.5029,0.9027,7.559
4.323000,5.2059,5.5258,0.9712,7.654
4.324000,5.2884,5.5513,1.0319,7.736
4.325000,5.3789,5.5772,1.0728,7.822
4.325000,5.4532,5.6246,1.0752,7.908
4.326000,5.4994,5.6770,1.0558,7.974
4.327000,5.5414,5.7415,1.0389,8.047
4.329000,5.5647,5.8060,1.0221,8.107
4.333000,5.5765,5.8921,1.0268,8.177
4.337000,5.5960,5.9759,1.0485,8.254
4.344000,5.6275,6.0498,1.0414,8.328
4.348000,5.7261,6.0948,0.9961,8.422
4.353000,5.9152,6.0197,0.9033,8.488
4.358000,6.2043,5.7552,0.7614,8.497
4.362000,6.6336,5.2562,0.5899,8.484
4.368000,7.1361,4.5587,0.4612,8.480
4.372000,7.6781,3.7442,0.4109,8.552
4.383000,8.1330,2.9135,0.4649,8.652
4.385000,8.4317,2.1551,0.6315,8.726
4.432000,8.5391,1.5506,0.8784,8.723
4.434000,8.4438,1.1960,1.2307,8.616
4.435000,8.1706,1.1512,1.6540,8.415
4.435000,7.7559,1.4520,2.1044,8.166
4.436000,7.2669,1.9688,2.4905,7.930
4.437000,6.8089,2.6083,2.7481,7.792
4.438000,6.4606,3.2791,2.8254,7.777
4.439000,6.2836,3.8875,2.7020,7.867
4.439000,6.3153,4.3470,2.3773,8.027
4.439000,6.5166,4.5827,1.8718,8.184
4.442000,6.8362,4.6060,1.2612,8.339
4.443000,7.2209,4.4335,0.6065,8.495
4.447000,7.5843,4.0673,-0.0199,8.606
4.454000,7.8880,3.5528,-0.5244,8.667
4.461000,8.1161,2.9555,-0.9046,8.685
4.463000,8.2519,2.3231,-1.1323,8.647
4.468000,8.2865,1.6752,-1.2483,8.546
4.473000,8.1749,1.0455,-1.2197,8.331
4.479000,7.9467,0.4106,-1.0566,8.027
4.484000,7.5905,-0.1645,-0.7810,7.632
4.487000,7.1793,-0.6688,-0.4179,7.223
4.496000,6.7377,-1.0972,0.0059,6.826
4.499000,6.2756,-1.4205,0.4684,6.451
4.503000,5.8174,-1.6336,0.9311,6.114
4.507000,5.3585,-1.7433,1.3814,5.802
4.530000,4.9466,-1.7357,1.8049,5.544
4.533000,4.5917,-1.6196,2.2057,5.345
4.533000,4.2887,-1.4243,2.5644,5.196
4.534000,4.0539,-1.1815,2.8831,5.113
4.534000,3.8871,-0.8794,3.1591,5.086
4.538000,3.7687,-0.5619,3.4042,5.109
4.543000,3.6836,-0.2730,3.6131,5.167
4.548000,3.6009,-0.0244,3.7662,5.211
4.553000,3.5393,0.1759,3.8755,5.251
4.560000,3.4724,0.2989,3.9216,5.246
4.562000,3.4191,0.3585,3.8877,5.190
4.568000,3.3363,0.3810,3.7837,5.059
4.573000,3.2212,0.3414,3.6120,4.852
4.580000,3.0412,0.2433,3.3924,4.562
4.583000,2.8057,0.1078,3.1036,4.185
4.588000,2.4984,-0.0672,2.7821,3.740
4.594000,2.1793,-0.2838,2.4312,3.277
4.598000,1.8606,-0.5275,2.0803,2.840
4.604000,1.5479,-0.7989,1.7329,2.457
4.618000,1.2674,-1.0576,1.4083,2.170
4.621000,1.0192,-1.2889,1.0975,1.976
4.622000,0.7963,-1.4951,0.8316,1.887
4.623000,0.5866,-1.6665,0.6036,1.867
4.659000,0.3952,-1.8102,0.4179,1.899
4.661000,0.2025,-1.9390,0.2745,1.969
4.661000,0.0259,-2.0681,0.1803,2.076
4.662000,-0.1587,-2.1909,0.1207,2.200
4.663000,-0.3346,-2.3218,0.1049,2.348
4.664000,-0.5161,-2.4677,0.1257,2.524
4.664000,-0.7032,-2.6007,0.1707,2.699
4.664000,-0.8908,-2.7596,0.2420,2.910
4.668000,-1.0861,-2.9212,0.3152,3.132
4.673000,-1.2820,-3.0947,0.3926,3.373
4.678000,-1.4616,-3.2512,0.4837,3.597
4.684000,-1.6392,-3.4001,0.5833,3.819
4.688000,-1.6621,-3.5254,0.6794,3.956
4.693000,-1.9414,-3.6445,0.7695,4.200
4.700000,-2.0823,-3.7580,0.8274,4.375
4.704000,-2.2213,-3.8684,0.8698,4.545
4.709000,-2.3562,-3.9921,0.8848,4.719
4.714000,-2.4749,-4.1027,0.8823,4.872
4.719000,-2.5824,-4.2081,0.8718,5.014
4.723000,-2.6714,-4.2975,0.8440,5.130
4.728000,-2.7636,-4.3761,0.8037,5.238
4.733000,-2.8423,-4.4538,0.7535,5.337
4.738000,-2.9314,-4.5208,0.7129,5.435
4.768000,-3.0239,-4.5893,0.6697,5.537
4.770000,-3.1053,-4.6575,0.6267,5.633
4.771000,-3.1902,-4.7312,0.5745,5.735
4.772000,-3.2736,-4.8040,0.5202,5.837
4.773000,-3.3629,-4.8877,0.4569,5.950
4.773000,-3.4677,-4.9656,0.3919,6.069
4.774000,-3.5783,-5.0399,0.3372,6.190
4.779000,-3.6829,-5.1424,0.3049,6.333
4.784000,-3.8078,-5.2474,0.2832,6.490
4.789000,-3.9196,-5.3677,0.2791,6.652
4.793000,-4.0375,-5.4980,0.3048,6.828
4.799000,-4.1591,-5.6404,0.3432,7.016
4.804000,-4.2654,-5.7804,0.3822,7.194
4.817000,-4.3851,-5.8945,0.4123,7.358
4.821000,-4.5088,-5.9838,0.4261,7.504
4.821000,-4.6270,-6.0725,0.4216,7.646
4.823000,-4.7207,-6.1725,0.3916,7.781
4.850000,-4.7851,-6.2978,0.3196,7.916
4.853000,-4.8038,-6.4338,0.2371,8.033
4.854000,-4.7672,-6.5595,0.1226,8.110
4.855000,-4.7139,-6.6742,0.0096,8.171
4.855000,-4.6653,-6.7832,-0.1041,8.233
4.856000,-4.6263,-6.8675,-0.2261,8.283
4.860000,-4.5945,-6.9105,-0.3397,8.305
4.864000,-4.5581,-6.9335,-0.4596,8.310
4.869000,-4.5193,-6.9300,-0.5498,8.292
4.873000,-4.5047,-6.9207,-0.6016,8.280
4.878000,-4.5549,-6.9158,-0.6179,8.304
4.884000,-4.6387,-6.9220,-0.6110,8.355
4.889000,-4.7562,-6.9368,-0.5673,8.430
4.894000,-4.9028,-6.9525,-0.4728,8.520
4.900000,-5.0449,-6.9665,-0.3282,8.608
4.904000,-5.1326,-6.9851,-0.1647,8.670
4.911000,-5.1541,-6.9938,0.0031,8.688
4.915000,-5.0904,-7.0332,0.1540,8.683
4.919000,-4.8723,-7.1343,0.2190,8.642
4.923000,-4.4689,-7.3618,0.1105,8.613
4.929000,-3.8445,-7.8042,-0.1966,8.702
4.934000,-3.0257,-8.4807,-0.6942,9.031
4.939000,-2.0916,-9.3173,-1.3101,9.639
4.950000,-1.1664,-10.2359,-1.9846,10.492
4.952000,-0.4963,-11.1461,-2.6516,11.468
4.954000,-0.1790,-11.9306,-3.2673,12.371
4.967000,-0.2668,-12.4641,-3.8692,13.054
4.968000,-0.9340,-12.6811,-4.4513,13.472
4.969000,-1.9125,-12.6222,-4.9451,13.691
5.000000,-2.8841,-12.3454,-5.2472,13.721
5.002000,-3.6625,-11.8876,-5.2868,13.516
5.002000,-4.1568,-11.3084,-5.0236,13.054
5.003000,-4.3961,-10.6602,-4.4303,12.353
5.004000,-4.4065,-9.9872,-3.5564,11.481
5.004000,-4.2308,-9.3161,-2.5247,10.539
5.005000,-3.9169,-8.6985,-1.4716,9.652
5.011000,-3.4761,-8.1521,-0.4788,8.875
5.015000,-2.8750,-7.6281,0.3943,8.161
5.020000,-2.1396,-7.1321,1.1458,7.534
5.024000,-1.2864,-6.6459,1.7596,6.994
5.028000,-0.3394,-6.1802,2.2140,6.574
5.034000,0.6370,-5.7540,2.4657,6.292
5.039000,1.5782,-5.4123,2.5473,6.186
5.047000,2.3765,-5.1892,2.4436,6.209
5.058000,2.9580,-5.1276,2.1348,6.293
5.060000,3.2939,-5.2241,1.6233,6.386
5.061000,3.4012,-5.4278,0.9911,6.482
5.074000,3.3088,-5.7064,0.3155,6.604
5.075000,3.0096,-6.0062,-0.3405,6.727
5.076000,2.5636,-6.3154,-0.9546,6.882
5.079000,2.0476,-6.6021,-1.5180,7.077
5.085000,1.5238,-6.8525,-2.0344,7.309
5.089000,1.0379,-7.0244,-2.4760,7.520
5.095000,0.5899,-7.0428,-2.8393,7.616
5.099000,0.2254,-6.9219,-3.0731,7.577
5.103000,-0.0505,-6.6561,-3.1771,7.376
5.109000,-0.2357,-6.2732,-3.1799,7.037
5.125000,-0.2053,-5.4836,-2.7493,6.138
5.126000,0.0906,-4.9961,-2.2811,5.493
5.126000,0.1163,-4.8473,-2.2429,5.342
5.128000,0.4989,-4.3704,-1.7079,4.719
5.135000,0.9295,-3.9059,-1.1702,4.182
5.140000,1.3980,-3.4042,-0.6246,3.733
5.147000,1.8685,-2.8968,-0.0699,3.448
5.149000,2.2760,-2.3608,0.4903,3.316
5.154000,2.5990,-1.8664,1.0376,3.364
5.186000,2.8155,-1.4047,1.5042,3.488
5.187000,2.9355,-1.0083,1.9688,3.676
5.188000,2.9557,-0.6766,2.3945,3.864
5.188000,2.8765,-0.4038,2.7046,3.969
5.189000,2.6454,-0.1942,2.9311,3.953
5.189000,2.3559,-0.0255,3.0839,3.881
5.191000,2.0466,0.1245,3.1280,3.740
5.196000,1.7490,0.2787,3.1034,3.573
5.199000,1.4865,0.4218,3.0445,3.414
5.204000,1.2837,0.5691,2.9190,3.239
5.211000,1.1739,0.7258,2.7688,3.094
5.214000,1.1522,0.9038,2.6116,2.994
5.219000,1.2473,1.1171,2.4673,2.982
5.224000,1.4378,1.3304,2.3699,3.075
5.229000,1.7248,1.5536,2.3045,3.271
5.235000,2.0391,1.7775,2.2949,3.547
5.240000,2.3684,2.0016,2.3477,3.889
5.246000,2.6861,2.2373,2.4408,4.264
5.250000,2.9750,2.4843,2.5374,4.633
5.254000,3.2164,2.7406,2.6441,4.985
5.267000,3.3852,2.9952,2.7407,5.286
5.270000,3.5011,3.2655,2.7576,5.525
5.272000,3.5615,3.5491,2.7325,5.722
5.274000,3.5807,3.8341,2.6387,5.872
5.311000,3.5683,4.0777,2.5070,5.970
5.314000,3.6301,4.1610,2.5290,6.073
5.314000,3.5858,4.3705,2.3357,6.117
5.315000,3.4313,4.6588,1.8680,6.080
5.315000,3.4010,4.8705,1.6357,6.162
5.316000,3.3895,5.0798,1.4141,6.268
5.316000,3.3943,5.2916,1.2176,6.404
5.318000,3.4181,5.4944,1.0344,6.553
5.319000,3.4840,5.6634,0.8410,6.702
5.325000,3.5970,5.8158,0.6641,6.870
5.330000,3.7544,5.9680,0.5398,7.071
5.334000,3.9582,6.1224,0.4825,7.306
5.342000,4.1630,6.2788,0.4780,7.549
5.352000,4.3510,6.3983,0.5018,7.754
5.353000,4.4961,6.4716,0.5637,7.900
5.353000,4.6153,6.4869,0.5895,7.983
5.360000,4.7156,6.4517,0.6012,8.014
5.364000,4.8139,6.3899,0.6516,8.027
5.369000,4.8984,6.3282,0.7051,8.033
5.373000,4.9926,6.2566,0.7688,8.041
5.392000,5.0850,6.1710,0.8763,8.044
5.393000,5.1756,6.0546,1.0228,8.031
5.393000,5.2526,5.9197,1.2126,8.006
5.394000,5.3402,5.7928,1.4218,8.006
5.399000,5.4410,5.7054,1.6788,8.061
5.404000,5.5403,5.6714,1.9521,8.165
5.409000,5.6290,5.6532,2.2318,8.284
5.414000,5.7003,5.6270,2.4458,8.375
5.420000,5.8309,5.6339,2.5891,8.511
5.424000,6.0688,5.7098,2.7026,8.760
5.431000,6.3947,5.8522,2.8196,9.115
5.434000,6.7668,6.0507,2.9132,9.534
5.439000,7.1564,6.2765,2.9977,9.980
5.445000,7.5913,6.5721,3.0511,10.494
5.449000,8.0659,6.8913,3.1019,11.053
5.455000,8.5531,7.2022,3.1571,11.619
5.459000,9.0350,7.4731,3.2045,12.155
5.464000,9.4530,7.6623,3.2100,12.585
5.469000,9.7205,7.7120,3.0559,12.779
5.474000,9.8969,7.5645,2.7066,12.747
5.485000,9.9921,7.1724,2.1993,12.495
5.487000,9.9397,6.4954,1.6170,11.983
5.489000,9.6621,5.5298,1.0709,11.184
5.534000,9.1468,4.3825,0.6814,10.165
5.536000,8.4799,3.1920,0.6277,9.082
5.537000,7.7115,2.1251,1.0184,8.064
5.538000,7.6806,1.3559,1.7293,7.989
5.539000,6.1687,0.9595,2.5307,6.736
5.539000,5.5172,0.8650,3.2129,6.443
5.540000,5.0418,0.9289,3.6015,6.265
5.540000,4.8951,1.0743,3.6401,6.194
5.543000,5.2432,1.3837,3.3644,6.382
5.544000,6.1505,1.8312,2.8198,7.010
5.547000,7.3651,2.3374,2.0971,8.007
5.550000,8.6420,2.7968,1.3607,9.185
5.555000,9.8042,3.1280,0.7128,10.316
5.561000,10.7471,3.3176,0.1614,11.249
5.565000,11.3983,3.3051,-0.2976,11.872
5.570000,11.7627,3.0687,-0.6396,12.173
5.577000,11.8746,2.6642,-0.8688,12.201
5.580000,11.7733,2.0896,-1.0139,12.000
5.588000,11.5202,1.4086,-1.0561,11.654
5.591000,11.2431,0.6911,-1.0488,11.313
5.596000,10.9669,0.0191,-1.0046,11.013
5.600000,10.7208,-0.5854,-0.8836,10.773
5.605000,10.4764,-1.1204,-0.6482,10.556
5.612000,10.2039,-1.5870,-0.3027,10.331
5.615000,9.8579,-1.9712,0.0941,10.053
5.620000,9.4151,-2.2536,0.5050,9.694
5.624000,8.8522,-2.4339,0.8998,9.225
5.645000,8.2296,-2.5261,1.2994,8.706
5.646000,7.5998,-2.5568,1.7217,8.201
5.646000,6.9832,-2.5296,2.1514,7.733
5.647000,6.3816,-2.4355,2.5494,7.291
5.650000,5.8144,-2.2863,2.8839,6.881
5.655000,5.2744,-2.1110,3.1262,6.485
5.660000,4.7495,-1.9359,3.2618,6.078
5.666000,4.2705,-1.7810,3.2912,5.678
5.671000,3.8454,-1.6641,3.2009,5.273
5.675000,3.4784,-1.6028,3.0179,4.876
5.682000,3.1528,-1.5543,2.7885,4.487
5.685000,2.8566,-1.5427,2.5210,4.110
5.690000,2.5778,-1.5706,2.2809,3.783
5.696000,2.2994,-1.6458,2.0494,3.492
5.700000,2.0128,-1.7262,1.8011,3.205
5.705000,1.7273,-1.8172,1.5201,2.932
5.736000,1.4550,-1.9095,1.2477,2.706
5.738000,1.1888,-2.0173,0.9800,2.538
5.738000,0.9216,-2.1430,0.7436,2.448
5.739000,0.6342,-2.2969,0.5533,2.446
5.739000,0.3154,-2.4650,0.4194,2.520
5.740000,-0.0635,-2.6505,0.3274,2.671
5.746000,-0.4542,-2.8430,0.2610,2.891
5.748000,-0.8374,-3.0755,0.2080,3.194
5.751000,-1.2010,-3.3305,0.1326,3.543
5.755000,-1.5449,-3.5893,0.0683,3.908
5.761000,-1.8589,-3.8493,0.0339,4.275
5.765000,-2.1384,-4.1063,0.0437,4.630
5.770000,-2.3691,-4.3668,0.0855,4.969
5.775000,-2.5462,-4.6187,0.1541,5.276
5.781000,-2.6845,-4.8194,0.2373,5.522
5.786000,-2.8407,-5.0001,0.3030,5.759
5.791000,-3.0297,-5.1354,0.3485,5.973
5.796000,-3.2107,-5.1845,0.3665,6.109
5.801000,-3.3576,-5.1927,0.3948,6.196
5.805000,-3.4898,-5.1747,0.4213,6.256
5.848000,-3.6025,-5.1449,0.4387,6.296
5.850000,-3.6841,-5.1068,0.4398,6.312
5.851000,-3.7346,-5.0730,0.4479,6.315
5.851000,-3.7613,-5.0639,0.4509,6.324
5.852000,-3.8002,-5.0533,0.4488,6.339
5.852000,-3.8180,-5.0773,0.4532,6.369
5.852000,-3.8411,-5.1606,0.4716,6.450
5.853000,-3.8743,-5.2967,0.5013,6.582
5.853000,-3.9438,-5.4863,0.5160,6.776
5.856000,-4.0211,-5.6980,0.5015,6.992
5.860000,-4.1492,-5.9219,0.4960,7.248
5.866000,-4.3114,-6.1792,0.4856,7.550
5.870000,-4.4815,-6.4484,0.4849,7.868
5.876000,-4.6667,-6.7229,0.4987,8.199
5.880000,-4.8790,-7.0173,0.5323,8.563
5.885000,-5.1426,-7.3165,0.5881,8.962
5.891000,-5.4574,-7.5721,0.6473,9.356
5.896000,-5.7926,-7.7598,0.6816,9.707
5.902000,-6.1386,-7.8939,0.6751,10.023
5.906000,-6.4910,-7.9847,0.6137,10.309
5.913000,-6.7923,-8.0352,0.5129,10.534
5.916000,-6.9926,-8.0380,0.3785,10.661
5.920000,-7.0729,-8.0057,0.2492,10.685
5.952000,-7.0213,-7.9436,0.1443,10.603
5.954000,-6.8857,-7.8793,0.0999,10.465
5.954000,-6.7021,-7.8463,0.1315,10.320
5.955000,-6.4969,-7.8862,0.2383,10.220
5.955000,-6.3010,-8.0232,0.4241,10.211
5.956000,-6.1362,-8.2190,0.6903,10.280
5.957000,-6.0599,-8.4187,0.9974,10.421
5.963000,-6.0864,-8.5957,1.3140,10.614
5.967000,-6.2157,-8.7347,1.6219,10.843
5.972000,-6.4290,-8.8355,1.8994,11.091
5.977000,-6.6712,-8.8903,2.1410,11.319
5.981000,-6.8996,-8.9343,2.3128,11.523
5.986000,-7.0162,-8.9911,2.4265,11.660
5.992000,-6.9233,-9.1537,2.4369,11.733
5.998000,-6.6021,-9.5177,2.2813,11.806
6.001000,-6.0838,-10.1308,1.8869,11.967
6.006000,-5.4786,-10.9574,1.2546,12.315
6.012000,-4.9729,-11.8536,0.4997,12.864
6.016000,-4.7483,-12.6519,-0.2343,13.516
6.020000,-4.8454,-13.2266,-0.8278,14.110
6.070000,-5.1993,-13.4406,-1.1742,14.459
6.071000,-5.6184,-13.2973,-1.2330,14.488
6.072000,-5.8444,-12.8656,-0.9950,14.166
6.072000,-5.7649,-12.2269,-0.4562,13.526
6.073000,-5.3323,-11.4272,0.2724,12.613
6.073000,-4.5779,-10.5384,1.0533,11.538
6.074000,-3.5592,-9.6126,1.8740,10.420
6.074000,-2.3887,-8.7141,2.7338,9.440
6.075000,-1.1694,-7.8931,3.6073,8.757
6.075000,-0.0092,-7.1512,4.4192,8.407
6.075000,1.0154,-6.5300,5.0489,8.316
6.081000,1.8519,-6.0314,5.3960,8.302
6.085000,2.4670,-5.6933,5.3608,8.200
6.091000,2.8709,-5.5398,4.8678,7.914
6.096000,3.1524,-5.4843,3.9644,7.465
6.101000,3.3621,-5.5104,2.8507,7.057
6.106000,3.4429,-5.6008,1.6806,6.786
6.112000,3.3257,-5.7829,0.4801,6.688
6.121000,2.5809,-6.4255,-1.8825,7.176
6.122000,2.5773,-6.3265,-1.9382,7.101
6.160000,2.1523,-6.5809,-3.0163,7.552
6.162000,1.8065,-6.8095,-3.9394,8.072
6.162000,1.6022,-6.9516,-4.5585,8.466
6.163000,1.5464,-7.0224,-4.8278,8.661
6.163000,1.5814,-7.0119,-4.7486,8.615
6.164000,1.6473,-6.9107,-4.3848,8.349
6.164000,1.6984,-6.7022,-3.8793,7.928
6.165000,1.7084,-6.4057,-3.3000,7.406
6.166000,1.6512,-6.0349,-2.6984,6.814
6.171000,1.5721,-5.6106,-2.1730,6.219
6.177000,1.5141,-5.1465,-1.7268,5.636
6.181000,1.4868,-4.6429,-1.3819,5.067
6.186000,1.4638,-4.1100,-1.1580,4.514
6.192000,1.4352,-3.5890,-1.0219,3.998
6.197000,1.4229,-3.0914,-0.9426,3.531
6.202000,1.4645,-2.6288,-0.8383,3.124
6.207000,1.5241,-2.1723,-0.6852,2.741
6.212000,1.5656,-1.7320,-0.4645,2.380
6.217000,1.5841,-1.3345,-0.2029,2.081
6.220000,1.5628,-0.9991,0.1019,1.858
6.253000,1.5066,-0.7395,0.4354,1.734
6.255000,1.4439,-0.5494,0.8479,1.762
6.256000,1.3438,-0.4233,1.2793,1.903
6.257000,1.1708,-0.3292,1.7124,2.100
6.257000,0.9705,-0.2475,2.0563,2.287
6.258000,0.7362,-0.1706,2.3162,2.436
6.258000,0.4995,-0.0875,2.4542,2.506
6.265000,0.3035,0.0009,2.5099,2.528
6.266000,0.1724,0.1052,2.4292,2.438
6.272000,0.1639,0.2470,2.2632,2.283
6.277000,0.2489,0.4400,2.0061,2.069
6.282000,0.3962,0.6574,1.7376,1.900
6.286000,0.6154,0.9091,1.4726,1.837
6.294000,0.8980,1.1759,1.2531,1.939
6.298000,1.2058,1.4700,1.0983,2.196
6.302000,1.2680,1.7571,0.9604,2.370
6.307000,1.8185,2.0819,0.8372,2.888
6.314000,2.0552,2.4009,0.7144,3.240
6.316000,2.2486,2.7048,0.6040,3.569
6.321000,2.3835,2.9681,0.5250,3.843
6.337000,2.4576,3.1796,0.4653,4.045
6.339000,2.5023,3.3467,0.4506,4.203
6.339000,2.5294,3.4818,0.4689,4.329
6.341000,2.5679,3.5899,0.5073,4.443
6.387000,2.6396,3.6741,0.5702,4.560
6.389000,2.6722,3.7435,0.6708,4.648
6.389000,2.6806,3.7963,0.7580,4.709
6.390000,2.6745,3.8641,0.8336,4.773
6.390000,2.6684,3.9208,0.8991,4.827
6.393000,2.6698,3.9787,0.9588,4.886
6.394000,2.7077,4.0456,0.9982,4.969
6.394000,2.8005,4.1350,1.0095,5.095
6.395000,2.9176,4.2738,0.9855,5.268
6.396000,3.0683,4.4404,0.9168,5.475
6.397000,3.2382,4.6392,0.8298,5.718
6.401000,3.4174,4.8366,0.7152,5.965
6.408000,3.6109,5.0616,0.5777,6.244
6.411000,3.8248,5.2677,0.4392,6.525
6.417000,4.0523,5.4312,0.3049,6.783
6.422000,4.3025,5.5855,0.1821,7.053
6.430000,4.5610,5.7256,0.0664,7.321
6.431000,4.8012,5.8493,-0.0637,7.568
6.439000,5.0162,5.9613,-0.1696,7.793
6.441000,5.1982,6.0397,-0.2129,7.971
6.472000,5.3546,6.0967,-0.1818,8.116
6.473000,5.5022,6.1038,-0.0573,8.218
6.473000,5.6627,6.0852,0.1221,8.313
6.474000,5.8651,6.0437,0.3224,8.428
6.474000,6.0991,6.0075,0.5122,8.576
6.475000,6.3217,5.9695,0.7201,8.725
6.476000,6.4876,5.9300,0.9002,8.835
6.482000,6.6207,5.9032,1.0573,8.933
6.486000,6.7475,5.9036,1.1867,9.044
6.493000,6.8442,5.9387,1.2429,9.146
6.496000,6.9392,6.0294,1.2044,9.271
6.502000,7.0634,6.1997,1.0836,9.461
6.506000,7.2619,6.4395,0.9167,9.749
6.512000,7.5410,6.7244,0.7279,10.130
6.517000,7.8475,7.0059,0.5962,10.537
6.521000,8.1111,7.3003,0.4949,10.924
6.528000,8.3143,7.5637,0.4025,11.247
6.532000,8.4374,7.7815,0.3188,11.482
6.536000,8.4373,7.8985,0.2315,11.560
6.547000,8.3355,7.8838,0.0925,11.474
6.548000,8.2546,7.6636,-0.1813,11.265
6.551000,8.3262,7.1403,-0.6370,10.987
6.556000,8.5579,6.2285,-1.2534,10.659
6.579000,8.7874,4.9313,-1.7751,10.232
6.581000,8.8386,3.5129,-1.9868,9.716
6.581000,8.6772,2.2041,-1.9017,9.153
6.582000,8.3052,1.1332,-1.5290,8.520
6.582000,7.7724,0.3683,-1.0143,7.847
6.586000,7.2052,-0.0317,-0.4930,7.222
6.593000,6.7431,-0.0594,-0.0756,6.744
6.597000,6.5632,0.2420,0.1785,6.570
6.602000,6.7027,0.7351,0.2203,6.746
6.607000,7.1455,1.3157,0.0896,7.266
6.612000,7.8703,1.9246,-0.1785,8.104
6.618000,8.7962,2.4978,-0.5153,9.158
6.622000,9.8561,2.9951,-0.8551,10.337
6.627000,10.9546,3.3454,-1.1467,11.511
6.632000,11.9562,3.4493,-1.3611,12.518
6.637000,12.8004,3.3226,-1.5025,13.310
6.646000,13.4124,3.0246,-1.5157,13.833
6.648000,13.7694,2.5675,-1.4109,14.078
6.654000,13.8671,1.9707,-1.1789,14.056
6.656000,13.7522,1.2610,-0.8472,13.836
6.687000,13.4763,0.4776,-0.3977,13.491
6.688000,13.0360,-0.3428,0.1513,13.041
6.688000,12.4968,-1.1134,0.8006,12.572
6.689000,11.8749,-1.7991,1.4808,12.101
6.689000,11.1804,-2.3278,2.0996,11.612
6.690000,10.3780,-2.6944,2.5938,11.031
6.692000,9.5020,-2.8889,2.9486,10.360
6.699000,8.5957,-2.9494,3.1760,9.627
6.702000,7.7235,-2.9244,3.2766,8.885
6.708000,6.9610,-2.8648,3.2481,8.198
6.713000,6.3528,-2.7883,3.1131,7.604
6.717000,5.9084,-2.7022,2.9228,7.124
6.722000,5.5869,-2.6093,2.7091,6.735
6.727000,5.3064,-2.5007,2.4432,6.355
6.732000,4.9945,-2.3919,2.1134,5.927
6.739000,4.6521,-2.2866,1.7633,5.475
6.744000,4.2886,-2.2385,1.4558,5.052
6.747000,3.9257,-2.2283,1.2391,4.681
6.757000,3.5803,-2.2823,1.1133,4.389
6.758000,3.2671,-2.3715,1.0591,4.174
6.764000,2.9641,-2.5016,1.0403,4.016
6.766000,2.6799,-2.6824,1.0163,3.926
6.772000,2.3736,-2.9239,0.9993,3.896
6.805000,2.0624,-3.2135,0.9751,3.941
6.809000,1.6941,-3.5219,0.9272,4.017
6.812000,1.2735,-3.8085,0.8461,4.104
6.813000,0.8401,-4.0398,0.7228,4.189
6.814000,0.4176,-4.2186,0.5816,4.279
6.814000,-0.0083,-4.3277,0.4563,4.352
6.815000,-0.4184,-4.4148,0.3709,4.450
6.815000,-0.8316,-4.5009,0.3232,4.588
6.817000,-1.2386,-4.5737,0.3153,4.749
6.822000,-1.5845,-4.6267,0.3541,4.903
6.828000,-1.8953,-4.6527,0.4659,5.046
6.832000,-2.1690,-4.6673,0.6481,5.187
6.837000,-2.4130,-4.6702,0.8791,5.330
6.843000,-2.5986,-4.6734,1.1322,5.466
6.847000,-2.7001,-4.6803,1.4025,5.582
6.852000,-2.7198,-4.6940,1.7087,5.688
6.857000,-2.7059,-4.7158,2.0363,5.806
6.862000,-2.7327,-4.7268,2.3083,5.928
6.867000,-2.8194,-4.6888,2.5200,6.024
6.872000,-2.9373,-4.6450,2.6646,6.108
6.879000,-3.0315,-4.6153,2.7613,6.174
6.894000,-3.0923,-4.6220,2.8034,6.228
6.895000,-3.1222,-4.6565,2.8005,6.267
6.895000,-3.1406,-4.6996,2.7357,6.280
6.897000,-3.1666,-4.7446,2.6163,6.276
6.937000,-3.2242,-4.8129,2.4951,6.308
6.939000,-3.2989,-4.8791,2.3649,6.347
6.939000,-3.4028,-4.9702,2.2427,6.427
6.940000,-3.5262,-5.0846,2.1477,6.550
6.941000,-3.6618,-5.2269,2.0826,6.713
6.942000,-3.7979,-5.4038,2.0572,6.918
6.943000,-3.9391,-5.5983,2.0475,7.145
6.944000,-4.0783,-5.8181,2.0318,7.390
6.944000,-4.1918,-6.0373,2.0197,7.622
6.948000,-4.3107,-6.2874,2.0113,7.884
6.956000,-4.4591,-6.5274,1.9995,8.154
6.958000,-4.6202,-6.7306,1.9868,8.402
6.963000,-4.7822,-6.8992,1.9636,8.621
6.969000,-4.9236,-7.0384,1.9374,8.805
6.973000,-5.0328,-7.1660,1.9033,8.961
6.980000,-5.1170,-7.2921,1.8613,9.101
6.983000,-5.1644,-7.4023,1.8091,9.205
6.987000,-5.1966,-7.5325,1.7344,9.314
6.992000,-5.2067,-7.6663,1.6514,9.413
7.014000,-5.2233,-7.7873,1.5645,9.506
7.018000,-5.2444,-7.9066,1.4873,9.604
7.019000,-5.3012,-8.0460,1.4003,9.737
7.021000,-5.3626,-8.1959,1.3202,9.883
7.021000,-5.4145,-8.3490,1.2392,10.028
7.024000,-5.4571,-8.4742,1.1594,10.146
7.029000,-5.4976,-8.6173,1.0874,10.279
7.033000,-5.5293,-8.7628,1.0372,10.413
7.037000,-5.5739,-8.9134,1.0059,10.561
7.042000,-5.6672,-9.0664,0.9983,10.738
7.048000,-5.7881,-9.1737,1.0022,10.893
7.054000,-5.9414,-9.2612,1.0101,11.049
7.060000,-6.1128,-9.2881,1.0390,11.168
7.063000,-6.2740,-9.2610,1.0911,11.239
7.068000,-6.4131,-9.1942,1.1854,11.272
7.072000,-6.5183,-9.1138,1.3270,11.283
7.078000,-6.5752,-9.0173,1.4966,11.260
7.085000,-6.5914,-8.9235,1.6465,11.215
7.088000,-6.5189,-8.8156,1.7073,11.096
7.103000,-6.2598,-8.7225,1.6365,10.860
7.105000,-5.8140,-8.7091,1.3681,10.560
7.106000,-5.2220,-8.7981,0.8672,10.268
7.152000,-4.5002,-9.0261,0.1563,10.087
7.153000,-3.7201,-9.3847,-0.6395,10.115
7.154000,-2.6784,-10.4391,-2.1305,10.986
7.155000,-2.6834,-10.3979,-2.1381,10.949
7.155000,-2.7201,-10.8688,-2.7147,11.528
7.157000,-3.0927,-11.1873,-3.1048,12.015
7.158000,-3.6026,-11.3327,-3.3043,12.342
7.158000,-4.0850,-11.3372,-3.3015,12.495
7.159000,-4.4848,-11.2736,-3.1225,12.528
7.159000,-4.7804,-11.1731,-2.8145,12.474
7.160000,-4.9337,-11.0538,-2.4255,12.345
7.162000,-4.9038,-10.8867,-1.9409,12.097
7.168000,-4.6931,-10.6528,-1.3414,11.718
7.173000,-4.3373,-10.3766,-0.6609,11.266
7.179000,-3.8265,-10.0581,0.0193,10.761
7.183000,-3.1771,-9.6948,0.6714,10.224
7.188000,-2.3960,-9.2683,1.2784,9.658
7.193000,-1.5906,-8.8326,1.8597,9.165
7.197000,-0.8251,-8.4369,2.4076,8.812
7.204000,-0.1424,-8.0939,2.8525,8.583
7.208000,0.4576,-7.8442,3.1630,8.470
7.213000,0.9779,-7.6823,3.3376,8.433
7.218000,1.4304,-7.6193,3.3521,8.446
7.222000,1.8082,-7.6192,3.1663,8.447
7.254000,2.1283,-7.6649,2.7949,8.432
7.255000,2.4291,-7.7682,2.3130,8.461
7.256000,2.7157,-7.9136,1.8141,8.561
7.257000,2.9905,-8.0642,1.3376,8.704
7.258000,3.2300,-8.1829,0.8816,8.841
7.259000,3.4917,-8.2216,0.4227,8.942
7.259000,3.7687,-8.1947,-0.0139,9.020
7.265000,4.0252,-8.0828,-0.4490,9.041
7.268000,4.2210,-7.8447,-0.8744,8.951
7.273000,4.3608,-7.4757,-1.3128,8.754
7.278000,4.4902,-6.9944,-1.7513,8.494
7.284000,4.6452,-6.4257,-2.1338,8.211
7.288000,4.8255,-5.8231,-2.4097,7.937
7.293000,5.0287,-5.1802,-2.5569,7.659
7.299000,5.2811,-4.4969,-2.5186,7.379
7.303000,5.5650,-3.7956,-2.2719,7.109
7.307000,5.8611,-3.0932,-1.8374,6.877
7.318000,6.0923,-2.4193,-1.2958,6.682
7.320000,6.3157,-1.7936,-0.6677,6.599
7.323000,6.4975,-1.2238,-0.0169,6.612
7.366000,6.5205,-0.7307,0.6578,6.594
7.367000,6.3695,-0.2871,1.3571,6.519
7.367000,6.1741,0.1418,2.0891,6.520
7.367000,5.9821,0.5730,2.7542,6.611
7.368000,5.8315,1.0020,3.2986,6.774
7.368000,5.6862,1.4049,3.6718,6.913
7.368000,5.5774,1.7800,3.8665,7.016
7.369000,5.4899,2.1165,3.9262,7.073
7.369000,5.3902,2.4292,3.8658,7.064
7.374000,5.2709,2.7419,3.6981,6.998
7.379000,5.1367,3.0379,3.4479,6.892
7.383000,5.0235,3.2791,3.1235,6.763
7.388000,4.9123,3.5139,2.7665,6.643
7.393000,4.7352,3.7053,2.4474,6.492
7.399000,4.4546,3.8781,2.1592,6.288
7.404000,4.1351,4.0398,1.8858,6.081
7.408000,3.8415,4.2005,1.6514,5.927
7.413000,3.5739,4.3484,1.4228,5.806
7.419000,3.3111,4.4700,1.2360,5.698
7.424000,3.0383,4.5623,1.0625,5.583
7.436000,2.7870,4.6477,0.8949,5.493
7.437000,2.5335,4.7242,0.7213,5.409
7.439000,2.3282,4.8087,0.5466,5.371
7.477000,2.1620,4.9186,0.3468,5.384
7.479000,2.1440,5.0125,0.1411,5.454
7.479000,2.2214,5.1143,-0.0297,5.576
7.480000,2.2147,5.2811,-0.2016,5.730
7.480000,2.1742,5.4725,-0.3675,5.900
7.481000,2.1670,5.6576,-0.5058,6.079
7.481000,2.1982,5.7959,-0.6286,6.231
7.482000,2.2238,5.9036,-0.7787,6.356
7.485000,2.2587,5.9668,-0.9777,6.455
7.489000,2.2863,5.9858,-1.1918,6.517
7.494000,2.3185,5.9872,-1.3874,6.569
7.499000,2.3343,6.0094,-1.5402,6.628
7.504000,2.3578,6.0697,-1.6406,6.715
7.512000,2.4124,6.1841,-1.6696,6.845
7.515000,2.5198,6.3240,-1.6437,7.003
7.520000,2.6295,6.4749,-1.5436,7.157
7.524000,2.8132,6.6200,-1.4077,7.329
7.530000,3.0418,6.7376,-1.2095,7.491
7.534000,3.3370,6.8302,-0.9494,7.661
7.539000,3.6883,6.8828,-0.6614,7.837
7.549000,4.0596,6.9192,-0.3531,8.030
7.552000,4.4267,6.9369,-0.0488,8.229
7.554000,4.7703,6.9286,0.2412,8.415
7.599000,5.0858,6.8826,0.4810,8.571
7.601000,5.4235,6.8182,0.7281,8.743
7.601000,5.7423,6.7183,0.9987,8.894
7.602000,5.9996,6.6385,1.3046,9.042
7.602000,6.2147,6.5740,1.6212,9.191
7.603000,6.4046,6.5681,1.9243,9.373
7.603000,6.6008,6.6044,2.2183,9.597
7.604000,6.8101,6.7256,2.4834,9.888
7.605000,7.0682,6.9196,2.6787,10.248
7.605000,7.4248,7.1597,2.8159,10.692
7.611000,7.8601,7.4191,2.9021,11.191
7.614000,8.3490,7.6395,2.9323,11.690
7.620000,8.9361,7.8110,2.8393,12.204
7.625000,9.6963,7.8820,2.5640,12.756
7.629000,10.5996,7.7278,2.0907,13.283
7.635000,11.5206,7.1970,1.4832,13.665
7.640000,12.2869,6.3283,0.9058,13.850
7.646000,12.6386,5.3209,0.5192,13.723
7.649000,12.6448,4.3246,0.4183,13.370
7.654000,12.4729,3.4413,0.6831,12.957
7.697000,12.1891,2.7941,1.2106,12.564
7.699000,11.8405,2.5273,1.8476,12.247
7.700000,11.5021,2.7321,2.3627,12.056
7.701000,11.2933,3.3145,2.5451,12.042
7.701000,11.3513,4.0263,2.3149,12.265
7.702000,11.7986,4.6797,1.6872,12.804
7.702000,12.5415,5.1528,0.8396,13.585
7.703000,13.3260,5.3814,-0.0339,14.372
7.704000,13.9305,5.3450,-0.8002,14.942
7.705000,14.2041,5.0622,-1.3917,15.143
7.710000,14.1663,4.5521,-1.8298,14.992
7.714000,13.8769,3.8665,-2.1142,14.560
7.720000,13.4329,3.0851,-2.2540,13.966
7.725000,12.9362,2.2256,-2.2856,13.324
7.730000,12.4244,1.3467,-2.2233,12.693
7.736000,11.9125,0.4415,-2.0990,12.104
7.739000,11.3811,-0.4139,-1.9207,11.549
7.745000,10.7640,-1.1807,-1.6964,10.961
7.749000,10.2799,-1.9274,-1.3407,10.545
7.753000,9.8856,-2.5702,-0.8550,10.250
7.795000,9.4834,-3.0637,-0.3221,9.971
7.801000,9.0176,-3.4016,0.2162,9.640
7.802000,8.4536,-3.5491,0.7133,9.196
7.802000,7.7817,-3.5021,1.1185,8.606
7.804000,7.0956,-3.3346,1.4558,7.974
7.804000,6.5101,-3.1255,1.7541,7.431
7.804000,6.0345,-2.9301,2.0494,7.014
7.805000,5.6513,-2.7638,2.3201,6.705
7.805000,5.3157,-2.6134,2.5349,6.443
7.806000,5.0606,-2.4919,2.6916,6.250
7.811000,4.8522,-2.3997,2.7924,6.091
7.815000,4.6759,-2.3227,2.8306,5.939
7.820000,4.4840,-2.3092,2.7875,5.763
7.826000,4.3074,-2.3329,2.6780,5.583
7.830000,4.0956,-2.4071,2.5074,5.372
7.834000,3.8426,-2.5178,2.2812,5.129
7.840000,3.5527,-2.6730,2.0148,4.881
7.846000,3.2432,-2.8534,1.7231,4.651
7.850000,2.9166,-3.0752,1.4306,4.473
7.856000,2.5518,-3.3309,1.1570,4.353
7.860000,2.1463,-3.5920,0.9023,4.281
7.898000,1.7083,-3.8538,0.6810,4.270
7.899000,1.2666,-4.0879,0.4810,4.307
7.899000,0.8355,-4.2794,0.3431,4.374
7.899000,0.4414,-4.4425,0.2435,4.471
7.899000,0.0721,-4.5851,0.1842,4.589
7.900000,-0.2575,-4.7023,0.1798,4.713
7.900000,-0.5429,-4.8119,0.2059,4.847
7.901000,-0.8082,-4.8970,0.2432,4.969
7.905000,-1.0557,-4.9528,0.2938,5.073
7.909000,-1.3120,-5.0055,0.3551,5.187
7.915000,-1.5819,-5.0492,0.4416,5.310
7.919000,-1.8604,-5.1077,0.5506,5.464
7.924000,-2.1333,-5.1797,0.6678,5.641
7.930000,-2.3934,-5.2576,0.7642,5.827
7.935000,-2.6241,-5.3315,0.8472,6.002
7.939000,-2.8519,-5.4133,0.9525,6.192
7.945000,-3.0433,-5.5037,1.0635,6.378
7.950000,-3.2127,-5.5743,1.1657,6.539
7.954000,-3.3411,-5.6191,1.2592,6.658
7.962000,-3.4408,-5.6858,1.2938,6.771
7.965000,-3.5165,-5.7576,1.2885,6.868
7.969000,-3.5683,-5.8609,1.2387,6.973
7.974000,-3.6204,-5.9798,1.1875,7.090
8.015000,-3.6847,-6.1100,1.0962,7.219
8.017000,-3.7709,-6.2308,1.0033,7.352
8.018000,-3.8957,-6.3301,0.8823,7.485
8.018000,-4.0210,-6.4199,0.7477,7.612
8.019000,-4.1277,-6.5190,0.6018,7.739
8.019000,-4.1944,-6.6235,0.4520,7.853
8.020000,-4.2308,-6.7627,0.3103,7.983
8.020000,-4.2490,-6.9232,0.2101,8.126
8.021000,-4.2612,-7.1120,0.1466,8.292
8.025000,-4.2888,-7.3003,0.0789,8.467
8.030000,-4.3464,-7.4736,0.0212,8.646
8.043000,-4.4482,-7.6205,-0.0383,8.824
8.043000,-4.5826,-7.7752,-0.0809,9.026
8.045000,-4.7233,-7.9073,-0.1064,9.211
8.050000,-4.8537,-8.0380,-0.1220,9.391
8.055000,-4.9645,-8.1669,-0.1133,9.558
8.060000,-5.0533,-8.3059,-0.1092,9.723
8.065000,-5.1275,-8.4482,-0.0976,9.883
8.069000,-5.1899,-8.5830,-0.0839,10.030
8.074000,-5.2404,-8.7178,-0.0730,10.172
8.080000,-5.3105,-8.8381,-0.0458,10.311
8.084000,-5.3596,-8.9342,-0.0169,10.419
8.090000,-5.4141,-9.0037,0.0161,10.506
8.100000,-5.4382,-9.0493,0.0463,10.558
8.102000,-5.4610,-9.0893,0.0591,10.604
8.105000,-5.4801,-9.1195,0.0689,10.640
8.155000,-5.4979,-9.1325,0.0756,10.660
8.158000,-5.5003,-9.1093,0.0721,10.641
8.160000,-5.4896,-8.9592,0.1372,10.508
8.161000,-5.4706,-8.9841,0.1561,10.520
8.162000,-5.4459,-8.8774,0.2698,10.418
8.162000,-5.4272,-8.7735,0.4257,10.325
8.162000,-5.4028,-8.6749,0.5975,10.237
8.163000,-5.3320,-8.6269,0.7590,10.170
8.164000,-5.1455,-8.6582,0.8840,10.110
8.164000,-4.7765,-8.7974,0.9060,10.051
8.165000,-4.2059,-9.0664,0.8439,10.030
8.165000,-3.5295,-9.4920,0.6596,10.148
8.169000,-2.8788,-10.0241,0.3265,10.434
8.176000,-2.4140,-10.5719,-0.1367,10.845
8.180000,-2.2306,-11.0490,-0.6329,11.290
8.185000,-2.3622,-11.3925,-1.0956,11.686
8.189000,-2.6985,-11.5680,-1.4251,11.964
8.217000,-3.1586,-11.6485,-1.6055,12.175
8.219000,-3.6208,-11.5992,-1.6976,12.269
8.219000,-3.9919,-11.4528,-1.7646,12.256
8.220000,-4.1957,-11.2518,-1.8314,12.147
8.220000,-4.1726,-11.0197,-1.8824,11.933
8.223000,-3.9175,-10.7577,-1.8586,11.599
8.224000,-3.4711,-10.4470,-1.6843,11.137
8.231000,-2.9215,-10.1100,-1.3553,10.611
8.234000,-2.3304,-9.7306,-0.8795,10.044
8.239000,-1.7140,-9.3695,-0.3356,9.531
8.244000,-1.1198,-9.0192,0.2333,9.091
8.249000,-0.5228,-8.6886,0.8175,8.743
8.255000,0.0749,-8.3801,1.4035,8.497
8.259000,0.6523,-8.0821,1.9120,8.331
8.264000,1.2002,-7.7810,2.2734,8.195
8.269000,1.7620,-7.4871,2.4715,8.079
8.275000,2.3307,-7.2220,2.5367,8.002
8.281000,2.8751,-7.0025,2.4344,7.952
8.287000,3.3282,-6.8359,2.1060,7.889
8.290000,3.6875,-6.7439,1.5561,7.842
8.302000,3.9358,-6.7245,0.8586,7.839
8.304000,4.0634,-6.7368,0.0706,7.868
8.305000,4.0699,-6.7489,-0.7254,7.914
8.353000,3.9480,-6.7688,-1.4822,7.975
8.354000,3.7142,-6.7593,-2.1683,8.012
8.354000,3.4404,-6.7195,-2.7692,8.041
8.354000,3.1720,-6.6510,-3.2658,8.060
8.354000,2.9379,-6.5583,-3.6136,8.044
8.355000,2.7768,-6.3874,-3.8092,7.938
8.355000,2.7200,-6.1566,-3.8786,7.768
8.355000,2.7821,-5.8154,-3.7900,7.478
8.355000,2.9373,-5.4194,-3.5195,7.098
8.356000,3.1114,-4.9863,-3.1509,6.669
8.365000,3.2402,-4.5574,-2.7483,6.231
8.365000,3.3097,-4.1154,-2.3420,5.777
8.370000,3.3102,-3.7248,-1.9320,5.345
8.374000,3.2300,-3.3943,-1.5050,4.921
8.379000,3.0716,-3.1239,-1.0597,4.507
8.384000,2.8662,-2.8749,-0.5949,4.103
8.390000,2.6379,-2.6473,-0.0538,3.738
8.395000,2.4179,-2.4400,0.5444,3.478
8.403000,2.1843,-2.2380,1.1631,3.336
8.404000,1.9684,-2.0328,1.7475,3.326
8.417000,1.8062,-1.8006,2.2719,3.416
8.417000,1.7191,-1.5341,2.7678,3.601
8.420000,1.7070,-1.2338,3.2571,3.879
8.426000,1.7844,-0.9110,3.7092,4.216
8.430000,1.9768,-0.5322,4.1077,4.590
8.439000,2.2769,-0.0804,4.4387,4.989
8.441000,2.6315,0.4338,4.7076,5.411
8.446000,2.9900,0.9902,4.8883,5.815
8.449000,3.2944,1.5400,4.9595,6.150
8.454000,3.5042,2.0502,4.9265,6.384
8.461000,3.6350,2.5069,4.7752,6.504
8.464000,3.7159,2.9203,4.5494,6.560
8.469000,3.7707,3.2813,4.2595,6.567
8.476000,3.8494,3.6305,3.9421,6.598
8.480000,3.9136,3.9607,3.6140,6.638
8.486000,3.9683,4.3108,3.2849,6.717
8.491000,3.9837,4.6554,2.9330,6.793
8.495000,3.9673,4.9713,2.5776,6.863
8.500000,3.9239,5.2421,2.2521,6.925
8.505000,3.8583,5.4609,1.9731,6.971
8.540000,3.7896,5.6518,1.7617,7.029
8.544000,3.7564,5.8541,1.5933,7.136
8.545000,3.7319,6.0429,1.4456,7.248
8.545000,3.6970,6.2405,1.3157,7.372
8.546000,3.6830,6.4303,1.1526,7.499
8.546000,3.6825,6.6195,0.9753,7.637
8.547000,3.6882,6.8083,0.7858,7.783
8.547000,3.6787,6.9873,0.5793,7.918
8.550000,3.6726,7.1294,0.3703,8.028
8.558000,3.7011,7.2472,0.1420,8.139
8.562000,3.7688,7.3311,-0.0953,8.244
8.565000,3.8781,7.4002,-0.3724,8.363
8.570000,4.0075,7.4381,-0.6454,8.474
8.576000,4.1299,7.4367,-0.8993,8.554
8.580000,4.2263,7.3486,-1.1212,8.551
8.586000,4.2636,7.1886,-1.2890,8.457
8.591000,4.2730,6.9737,-1.3327,8.287
8.595000,4.2550,6.7595,-1.2804,8.089
8.600000,4.2700,6.5660,-1.1366,7.914
8.605000,4.3681,6.3975,-0.9300,7.802
8.633000,4.5327,6.2499,-0.6801,7.750
8.634000,4.7567,6.1375,-0.4323,7.777
8.635000,5.0209,6.0434,-0.1844,7.859
8.635000,5.2941,5.9893,0.0685,7.994
8.636000,5.5790,5.9682,0.3361,8.177
8.637000,5.8847,6.0106,0.6372,8.436
8.641000,6.1636,6.1240,0.9738,8.743
8.645000,6.4349,6.3201,1.2972,9.112
8.651000,6.7055,6.5654,1.5929,9.519
8.655000,6.9874,6.8644,1.8411,9.967
8.661000,7.3450,7.1837,2.0344,10.473
8.665000,7.8155,7.4793,2.1986,11.039
8.670000,8.4032,7.7413,2.3523,11.665
8.675000,9.0949,7.9832,2.5020,12.358
8.681000,9.8821,8.1205,2.6207,13.056
8.688000,10.7900,8.0949,2.6623,13.749
8.693000,11.7625,7.7815,2.5981,14.341
8.699000,12.6263,7.1465,2.4591,14.715
8.709000,13.2002,6.3388,2.3244,14.827
8.710000,13.4899,5.5217,2.3130,14.759
8.713000,13.2243,4.9810,2.3571,14.326
8.724000,13.0609,4.5195,2.5614,14.056
8.724000,12.9850,4.3330,2.8964,13.992
8.751000,12.7119,4.4138,3.1261,13.815
8.751000,12.1917,4.7068,3.0735,13.425
8.752000,11.6544,5.0538,2.7641,13.000
8.752000,11.2796,5.3253,2.2957,12.683
8.752000,11.1120,5.4680,1.7111,12.502
8.753000,11.0810,5.4378,1.0859,12.391
8.756000,11.0453,5.2273,0.4769,12.229
8.763000,10.9425,4.8720,-0.0027,11.978
8.765000,10.7538,4.4031,-0.2996,11.624
8.772000,10.5276,3.8714,-0.4237,11.225
8.777000,10.2958,3.2895,-0.4137,10.816
8.781000,10.0848,2.6811,-0.3129,10.440
8.785000,9.8982,2.0428,-0.1672,10.108
8.790000,9.7123,1.4105,-0.0248,9.814
8.795000,9.5249,0.8130,0.0994,9.560
8.801000,9.3148,0.2434,0.1767,9.320
8.806000,9.0394,-0.2959,0.2262,9.047
8.811000,8.6867,-0.7859,0.2667,8.726
8.816000,8.2604,-1.2156,0.3247,8.356
8.821000,7.7561,-1.5923,0.4024,7.928
8.827000,7.1716,-1.8892,0.5117,7.434
8.831000,6.5603,-2.0987,0.6498,6.918
8.836000,5.9462,-2.2181,0.8237,6.400
8.841000,5.3628,-2.2501,1.0212,5.905
8.851000,4.8468,-2.2290,1.2206,5.473
8.853000,4.4383,-2.1509,1.4263,5.134
8.856000,4.1276,-2.0660,1.6213,4.892
8.906000,3.8881,-1.9843,1.8007,4.722
8.906000,3.7071,-1.8946,1.9497,4.597
8.907000,3.5613,-1.8200,2.0589,4.498
8.907000,3.4427,-1.7640,2.1329,4.417
8.908000,3.3299,-1.7389,2.1650,4.336
8.908000,3.2059,-1.7594,2.1696,4.252
8.908000,3.0708,-1.8232,2.1686,4.178
8.909000,2.8717,-1.9333,2.1404,4.070
8.909000,2.6310,-2.0643,2.0808,3.939
8.909000,2.3654,-2.2048,1.9712,3.787
8.917000,2.0464,-2.3447,1.8023,3.596
8.918000,1.7147,-2.4745,1.5889,3.404
8.922000,1.3851,-2.6082,1.3244,3.236
8.927000,1.0643,-2.7295,1.0716,3.120
8.931000,0.7652,-2.8654,0.8645,3.089
8.935000,0.4730,-2.9973,0.6959,3.113
8.941000,0.1759,-3.1273,0.5731,3.184
8.947000,-0.1189,-3.2433,0.4911,3.282
8.951000,-0.3945,-3.3235,0.4283,3.374
8.956000,-0.6513,-3.3830,0.3990,3.468
8.989000,-0.8888,-3.4321,0.4221,3.570
8.991000,-1.1001,-3.4692,0.4616,3.669
8.992000,-1.2804,-3.5180,0.5126,3.779
8.992000,-1.4347,-3.5786,0.5604,3.896
8.993000,-1.5747,-3.6391,0.6001,4.010
8.994000,-1.7177,-3.6693,0.6340,4.101
8.995000,-1.8440,-3.6891,0.6785,4.180
8.997000,-1.9826,-3.7352,0.7119,4.288
9.001000,-2.1072,-3.8195,0.7295,4.423
9.006000,-2.2010,-3.9227,0.7505,4.560
9.012000,-2.2545,-4.0470,0.7986,4.701
9.016000,-2.3085,-4.1837,0.8665,4.856
9.022000,-2.3772,-4.3024,0.9249,5.002
9.028000,-2.4631,-4.3990,0.9598,5.132
9.032000,-2.5495,-4.5070,0.9783,5.270
9.037000,-2.6219,-4.6288,0.9684,5.407
9.042000,-2.6590,-4.7855,0.9448,5.556
9.047000,-2.6798,-4.9614,0.9195,5.713
9.051000,-2.6870,-5.1356,0.8968,5.865
9.057000,-2.6948,-5.3302,0.8768,6.037
9.099000,-2.7080,-5.5215,0.8546,6.209
9.099000,-2.7267,-5.7308,0.8088,6.398
9.100000,-2.7366,-5.9460,0.7539,6.589
9.100000,-2.7544,-6.1868,0.6781,6.806
9.101000,-2.7731,-6.4492,0.6122,7.047
9.101000,-2.7927,-6.7003,0.5493,7.280
9.101000,-2.8324,-6.9471,0.5062,7.519
9.102000,-2.8970,-7.1916,0.4684,7.767
9.102000,-2.9626,-7.4242,0.4361,8.005
9.106000,-3.0461,-7.6668,0.4193,8.260
9.112000,-3.1261,-7.8938,0.4008,8.500
9.117000,-3.2171,-8.1176,0.3900,8.741
9.126000,-3.3216,-8.3212,0.3607,8.967
9.127000,-3.4349,-8.5235,0.3245,9.195
9.133000,-3.5620,-8.7171,0.2882,9.421
9.139000,-3.7077,-8.8808,0.2567,9.627
9.145000,-3.8437,-9.0157,0.2292,9.804
9.147000,-3.9988,-9.1366,0.2081,9.976
9.151000,-4.1611,-9.2148,0.2072,10.113
9.156000,-4.3356,-9.2572,0.2143,10.224
9.203000,-4.5058,-9.2689,0.2385,10.309
9.204000,-4.6740,-9.2787,0.2652,10.393
9.204000,-4.8310,-9.2739,0.3275,10.462
9.205000,-5.0056,-9.2644,0.4083,10.538
9.205000,-5.1884,-9.2311,0.5220,10.602
9.206000,-5.3722,-9.1642,0.6660,10.644
9.206000,-5.5453,-9.0996,0.8570,10.691
9.206000,-5.6814,-9.0374,1.0593,10.727
9.207000,-5.7138,-9.0223,1.2543,10.753
9.207000,-5.6044,-9.0950,1.3970,10.774
9.214000,-5.3461,-9.2889,1.4259,10.812
9.217000,-4.8887,-9.6067,1.2915,10.856
9.223000,-4.2804,-10.0628,1.0019,10.981
9.228000,-3.6932,-10.6145,0.6169,11.256
9.232000,-3.2945,-11.1209,0.2318,11.601
9.238000,-3.1727,-11.4981,-0.1493,11.929
9.242000,-3.3707,-11.7481,-0.5683,12.235
9.247000,-3.7282,-11.8652,-0.9630,12.474
9.252000,-4.1449,-11.8962,-1.2927,12.664
9.257000,-4.5945,-11.8406,-1.5473,12.795
9.263000,-5.0030,-11.7238,-1.7320,12.864
9.267000,-5.3298,-11.5574,-1.8276,12.858
9.272000,-5.5392,-11.3338,-1.8051,12.743
9.325000,-5.6046,-11.0888,-1.5974,12.527
9.329000,-5.4904,-10.8172,-1.1761,12.188
9.331000,-5.1938,-10.5561,-0.5795,11.779
9.332000,-4.7411,-10.3054,0.1345,11.344
9.333000,-4.1177,-10.0534,0.8752,10.899
9.333000,-3.3185,-9.7724,1.5710,10.439
9.334000,-2.3840,-9.4492,2.1645,9.983
9.334000,-1.3641,-9.0963,2.6082,9.561
9.334000,-0.2916,-8.7553,2.8834,9.222
9.335000,0.7714,-8.4673,2.9257,8.992
9.335000,1.7512,-8.2742,2.7477,8.893
9.335000,2.5954,-8.1744,2.3856,8.902
9.338000,3.2779,-8.1445,1.8686,8.976
9.345000,3.7509,-8.1743,1.2972,9.087
9.347000,3.9863,-8.2531,0.6814,9.191
9.353000,3.9769,-8.3696,0.0456,9.266
9.357000,3.7564,-8.4674,-0.6402,9.285
9.362000,3.3873,-8.5214,-1.3389,9.267
9.367000,2.9560,-8.5254,-2.0111,9.245
9.374000,2.5607,-8.4321,-2.6247,9.195
9.378000,2.2780,-8.2498,-3.1431,9.117
9.383000,2.1178,-7.9730,-3.5516,8.982
9.387000,2.0873,-7.5902,-3.8148,8.748
9.423000,2.1890,-7.1190,-3.9236,8.418
9.424000,2.3919,-6.5724,-3.8409,7.979
9.424000,2.7008,-5.9796,-3.5823,7.475
9.425000,3.0149,-5.3895,-3.1807,6.946
9.425000,3.2962,-4.8140,-2.7069,6.432
9.426000,3.5586,-4.2257,-2.2170,5.953
9.426000,3.7687,-3.6399,-1.7194,5.514
9.426000,3.9046,-3.1267,-1.2006,5.144
9.434000,3.9450,-2.6713,-0.6321,4.806
9.438000,3.8652,-2.2760,-0.0530,4.486
9.443000,3.6680,-1.9611,0.5198,4.192
9.448000,3.3869,-1.7282,1.0532,3.946
9.453000,3.0604,-1.5384,1.5379,3.755
9.457000,2.7102,-1.3478,1.9813,3.618
9.468000,2.3703,-1.1381,2.3526,3.528
9.470000,2.0905,-0.9059,2.6524,3.497
9.473000,2.0359,-0.7030,2.7635,3.504
9.518000,2.0222,-0.4077,2.7723,3.456
9.520000,1.9727,-0.0870,2.7518,3.387
9.520000,1.8350,0.2687,2.8277,3.382
9.521000,1.6765,0.6698,2.9651,3.472
9.521000,1.5923,1.0595,3.0999,3.642
9.522000,1.6328,1.4387,3.1582,3.835
9.522000,1.7929,1.7925,3.1068,4.010
9.523000,2.0697,2.1374,2.9796,4.211
9.523000,2.4939,2.4869,2.7742,4.483
9.524000,3.0126,2.8673,2.5359,4.871
9.529000,3.5449,3.2900,2.2400,5.330
9.534000,3.9639,3.7430,1.9030,5.774
9.538000,4.2595,4.1944,1.5441,6.174
9.543000,4.3789,4.5773,1.2303,6.453
9.547000,4.3560,4.8686,0.9712,6.605
9.553000,4.2286,5.0891,0.7733,6.662
9.559000,4.0451,5.2451,0.6100,6.652
9.562000,3.8537,5.3658,0.4810,6.624
9.567000,3.6787,5.4783,0.3548,6.608
9.572000,3.6061,5.5853,0.2067,6.651
9.580000,3.6124,5.6851,0.0533,6.736
9.584000,3.6391,5.7504,-0.0581,6.805
9.587000,3.6387,5.8033,-0.1202,6.851
9.592000,3.6616,5.8490,-0.1382,6.902
9.634000,3.7341,5.9044,-0.1192,6.987
9.635000,3.8516,5.9410,-0.0971,7.081
9.635000,3.9903,5.9522,-0.1178,7.167
9.636000,4.1187,5.9279,-0.2104,7.221
9.636000,4.2560,5.9093,-0.3792,7.292
9.637000,4.4241,5.8941,-0.5830,7.393
9.637000,4.6013,5.8823,-0.7806,7.509
9.637000,4.7997,5.8693,-0.9524,7.642
9.638000,5.0196,5.8650,-1.0669,7.793
9.643000,5.2672,5.8661,-1.1336,7.965
9.648000,5.5238,5.8850,-1.1403,8.151
9.652000,5.8227,5.9241,-1.1084,8.380
9.657000,6.1375,5.9831,-1.0280,8.633
9.662000,6.5206,6.0597,-0.9445,8.952
9.668000,6.9912,6.1658,-0.8432,9.360
9.673000,7.4716,6.3219,-0.7099,9.813
9.679000,7.8970,6.5855,-0.5399,10.297
9.684000,8.2623,6.9080,-0.3626,10.776
9.687000,8.5765,7.2773,-0.2093,11.250
9.692000,8.6121,7.6713,-0.1111,11.534
9.734000,9.0772,8.0399,-0.0485,12.126
9.735000,9.3005,8.3678,-0.0049,12.511
9.736000,9.5212,8.6310,0.0416,12.851
9.736000,9.7342,8.8079,0.1002,13.128
9.737000,9.9221,8.8575,0.1970,13.302
9.737000,10.0896,8.7799,0.3004,13.378
9.738000,10.2818,8.5200,0.3576,13.358
9.738000,10.5203,8.0089,0.3517,13.227
9.738000,10.7837,7.2349,0.3382,12.990
9.743000,11.0127,6.2348,0.3625,12.660
9.748000,11.1032,5.1388,0.5104,12.245
9.753000,10.9346,4.1275,0.7664,11.713
9.758000,10.5325,3.3933,1.0746,11.118
9.763000,9.9775,3.0567,1.4414,10.534
9.768000,9.4069,3.1779,1.7826,10.088
9.776000,8.9380,3.6415,2.0285,9.862
9.781000,8.6802,4.2484,2.0913,9.888
9.784000,8.6540,4.8466,1.9581,10.110
9.788000,8.9965,5.3536,1.6588,10.599
9.793000,9.4188,5.7203,1.2499,11.090
9.827000,9.8646,5.9764,0.7802,11.560
9.828000,10.2682,6.1043,0.3417,11.951
9.828000,10.5858,6.0552,-0.0101,12.195
9.829000,10.8174,5.8242,-0.2579,12.288
9.829000,10.9583,5.3800,-0.3900,12.214
9.830000,11.0694,4.7237,-0.4519,12.044
9.830000,11.1798,3.8984,-0.4581,11.849
9.833000,11.2759,2.9456,-0.4519,11.663
9.839000,11.2987,1.8947,-0.4502,11.465
9.843000,10.9096,0.9350,-0.5728,10.965
9.848000,10.6258,-0.1290,-0.7118,10.650
9.853000,10.5501,-1.1660,-0.6801,10.636
9.858000,10.4741,-2.1257,-0.5218,10.700
9.865000,10.2929,-2.9866,-0.2951,10.722
9.868000,9.9736,-3.6288,-0.0109,10.613
9.873000,9.4756,-3.9833,0.3349,10.284
9.880000,8.7934,-4.0341,0.7178,9.701
9.884000,8.0420,-3.8149,1.0989,8.969
9.888000,7.3436,-3.4599,1.4758,8.251
9.900000,6.7982,-3.0866,1.8391,7.689
9.902000,6.4198,-2.7480,2.1957,7.320
9.904000,6.1907,-2.4428,2.5452,7.125
9.908000,6.0322,-2.1463,2.8821,7.021
9.934000,5.8765,-1.8574,3.1488,6.921
9.935000,5.6899,-1.5816,3.3307,6.780
9.935000,5.4529,-1.3242,3.4302,6.577
9.936000,5.1943,-1.1120,3.4524,6.335
9.936000,4.9090,-1.0011,3.4050,6.058
9.938000,4.5836,-0.9877,3.2978,5.732
9.943000,4.2346,-1.0652,3.1359,5.376
9.947000,3.8672,-1.2215,2.9389,5.008
9.953000,3.4528,-1.4469,2.7190,4.627
9.959000,2.9969,-1.7098,2.4862,4.253
9.962000,2.5186,-1.9842,2.2643,3.925
9.967000,2.0669,-2.2701,2.0255,3.678
9.972000,1.6369,-2.5655,1.7988,3.535
9.978000,1.2552,-2.8793,1.5943,3.522
9.984000,0.9196,-3.1798,1.4268,3.605
9.988000,0.6110,-3.4574,1.2846,3.739
9.993000,0.3125,-3.6697,1.1390,3.855
9.999000,0.0341,-3.8458,1.0026,3.974
10.003000,-0.2721,-4.0081,0.8515,4.107
10.012000,-0.5607,-4.1636,0.6789,4.256
10.015000,-0.8102,-4.2953,0.5020,4.400
10.019000,-1.0254,-4.4271,0.3377,4.557
10.023000,-1.2376,-4.5575,0.2005,4.727
10.065000,-1.4751,-4.6796,0.1021,4.908
10.068000,-1.7262,-4.8013,0.0375,5.102
10.068000,-1.9883,-4.9150,0.0161,5.302
10.069000,-2.2473,-5.0278,0.0208,5.507
10.069000,-2.5030,-5.1224,0.0467,5.701
10.070000,-2.7246,-5.2211,0.0888,5.890
10.070000,-2.9000,-5.3144,0.1298,6.056
10.071000,-3.0439,-5.4057,0.1887,6.207
10.072000,-3.1419,-5.4877,0.2725,6.329
10.073000,-3.1968,-5.5461,0.3711,6.412
10.080000,-3.2205,-5.6298,0.4678,6.503
10.085000,-3.2443,-5.7321,0.5595,6.610
10.090000,-3.2516,-5.8372,0.6441,6.713
10.094000,-3.2567,-5.9453,0.7283,6.818
10.099000,-3.2790,-6.0681,0.7976,6.943
10.105000,-3.3089,-6.1865,0.8541,7.068
10.111000,-3.3584,-6.3156,0.8980,7.209
10.114000,-3.4109,-6.4347,0.9075,7.339
10.120000,-3.4545,-6.5707,0.8829,7.476
10.134000,-3.5467,-6.7499,0.7503,7.662
10.136000,-3.5248,-6.8744,0.7636,7.763
10.136000,-3.5732,-7.0543,0.6645,7.936
10.139000,-3.6367,-7.2305,0.5680,8.113
10.183000,-3.7443,-7.4419,0.4764,8.344
10.184000,-3.8720,-7.7035,0.3896,8.631
10.184000,-4.0129,-7.9908,0.2813,8.946
10.184000,-4.1742,-8.2748,0.1754,9.270
10.185000,-4.3752,-8.5576,0.0861,9.612
10.185000,-4.6256,-8.8201,0.0228,9.959
10.185000,-4.9018,-9.0582,-0.0266,10.299
10.186000,-5.1897,-9.2601,-0.0764,10.615
10.186000,-5.4871,-9.4181,-0.1530,10.901
10.189000,-5.7513,-9.5390,-0.2372,11.141
10.194000,-5.9874,-9.6368,-0.3339,11.350
10.200000,-6.1883,-9.7072,-0.4408,11.520
10.205000,-6.3880,-9.7681,-0.5417,11.684
10.211000,-6.5508,-9.8103,-0.6364,11.814
10.215000,-6.6601,-9.8027,-0.7037,11.872
10.219000,-6.7281,-9.7334,-0.7027,11.853
10.223000,-6.7835,-9.6029,-0.6290,11.774
10.229000,-6.8311,-9.4689,-0.4775,11.686
10.233000,-6.8520,-9.3500,-0.2748,11.595
10.238000,-6.8200,-9.2560,-0.0301,11.497
10.285000,-6.7351,-9.1509,0.2277,11.365
10.286000,-6.5592,-9.0660,0.4749,11.200
10.286000,-6.2470,-9.0203,0.6208,10.990
10.287000,-5.7410,-9.0455,0.6106,10.731
10.287000,-5.0269,-9.2067,0.3951,10.497
10.288000,-4.1739,-9.5236,0.0295,10.398
10.288000,-3.3398,-10.0212,-0.4264,10.572
10.289000,-2.7252,-10.6398,-0.9543,11.025
10.289000,-2.4760,-11.2186,-1.5145,11.588
10.290000,-2.5991,-11.6660,-2.0290,12.123
10.297000,-2.9918,-11.9257,-2.4268,12.532
10.300000,-3.4699,-12.0443,-2.6891,12.819
10.304000,-3.8950,-12.0972,-2.8469,13.024
10.310000,-4.1692,-12.0786,-2.8689,13.096
10.314000,-4.2709,-12.0007,-2.7093,13.023
10.319000,-4.2050,-11.8870,-2.3733,12.830
10.324000,-4.0239,-11.7305,-1.8422,12.538
10.329000,-3.7682,-11.5458,-1.1138,12.196
10.334000,-3.4376,-11.3020,-0.2817,11.817
10.338000,-2.9551,-11.0042,0.5829,11.409
10.384000,-2.3111,-10.6501,1.4203,10.990
10.385000,-1.5096,-10.2396,2.1740,10.576
10.385000,-0.6341,-9.7978,2.8177,10.215
10.386000,0.2441,-9.3546,3.2872,9.918
10.386000,1.0943,-8.9258,3.5092,9.653
10.387000,1.8666,-8.5625,3.4656,9.424
10.387000,2.5350,-8.2696,3.1477,9.204
10.387000,3.0591,-8.0660,2.5764,9.003
10.388000,3.4223,-7.9511,1.8507,8.852
10.390000,3.6128,-7.9488,1.1082,8.801
10.394000,3.6069,-8.0465,0.3926,8.827
10.399000,3.4310,-8.2284,-0.2618,8.919
10.405000,3.1331,-8.4421,-0.8543,9.045
10.409000,2.7805,-8.6231,-1.3719,9.164
10.415000,2.4116,-8.6786,-1.8358,9.193
10.419000,2.1345,-8.5961,-2.1954,9.125
10.424000,1.9995,-8.4067,-2.4102,8.971
10.429000,2.0404,-8.1420,-2.4451,8.743
10.434000,2.2956,-7.7657,-2.2463,8.404
10.439000,2.6764,-7.3316,-1.8420,8.019
10.454000,3.0323,-6.8544,-1.3368,7.613
10.456000,3.3275,-6.3757,-0.7822,7.234
10.512000,3.5620,-5.8820,-0.2178,6.880
10.514000,3.7766,-5.4005,0.3939,6.602
10.514000,3.9498,-4.9691,1.0259,6.430
10.515000,4.0571,-4.5525,1.6655,6.321
10.516000,4.1202,-4.1188,2.2798,6.256
10.516000,4.1103,-3.6640,2.8306,6.191
10.517000,4.0489,-3.2140,3.2894,6.127
10.517000,3.9694,-2.7859,3.5675,6.020
10.517000,3.9129,-2.3710,3.6675,5.864
10.518000,3.8426,-1.9451,3.5238,5.565
10.518000,3.7566,-1.5425,3.0835,5.099
10.519000,4.0326,-1.2330,2.5740,4.940
10.519000,4.2865,-0.8820,2.0529,4.834
10.522000,4.2575,-0.4972,1.4956,4.540
10.523000,4.0587,-0.0795,0.9762,4.175
10.530000,3.8521,0.3506,0.6046,3.915
10.534000,3.6910,0.7610,0.4217,3.792
10.540000,3.6160,1.1115,0.3649,3.801
10.547000,3.6510,1.4668,0.3452,3.950
10.551000,3.7883,1.8552,0.3772,4.235
10.554000,3.9660,2.2533,0.4560,4.584
10.596000,4.1180,2.6567,0.5793,4.935
10.597000,4.2662,3.0493,0.7137,5.292
10.597000,4.3913,3.4477,0.8185,5.643
10.597000,4.5386,3.8231,0.8392,5.993
10.598000,4.6839,4.1898,0.7766,6.332
10.598000,4.8587,4.5291,0.6531,6.674
10.599000,5.0423,4.8585,0.4889,7.019
10.599000,5.2444,5.1976,0.3158,7.390
10.599000,5.4574,5.5293,0.1271,7.770
10.605000,5.6855,5.8509,-0.0815,8.159
10.611000,5.9259,6.1812,-0.2711,8.567
10.615000,6.1187,6.4920,-0.4608,8.933
10.619000,6.2385,6.7746,-0.6097,9.230
10.625000,6.3002,7.0132,-0.7322,9.456
10.631000,6.2916,7.2078,-0.8094,9.602
10.634000,6.2631,7.3709,-0.8344,9.708
10.640000,6.2004,7.5029,-0.7554,9.763
10.645000,6.0803,7.6571,-0.6189,9.797
10.649000,5.9092,7.8093,-0.5142,9.807
10.654000,5.7190,7.9364,-0.4849,9.794
10.662000,5.5531,8.0388,-0.5596,9.786
10.665000,5.4045,8.0835,-0.7381,9.752
10.669000,5.3047,8.0876,-0.9840,9.722
10.674000,5.2469,8.0661,-1.2558,9.704
10.718000,5.2473,8.0663,-1.5267,9.743
10.719000,5.3014,8.1006,-1.7530,9.839
10.719000,5.4162,8.1234,-1.9222,9.951
10.720000,5.5868,8.1301,-2.0390,10.073
10.720000,5.8131,8.1037,-2.1052,10.193
10.721000,6.0689,8.0662,-2.1157,10.314
10.721000,6.3414,8.0169,-2.0464,10.425
10.721000,6.6477,7.9800,-1.9068,10.560
10.722000,7.0115,7.9579,-1.6829,10.739
10.726000,7.3753,7.9338,-1.4108,10.924
10.730000,7.7341,7.9650,-1.1246,11.159
10.736000,8.0953,8.0445,-0.8533,11.444
10.740000,8.4698,8.1690,-0.6117,11.783
10.744000,8.8268,8.3148,-0.3926,12.133
10.750000,9.1990,8.4480,-0.1915,12.491
10.754000,9.5598,8.5371,0.0061,12.817
10.760000,9.9783,8.4698,0.1665,13.089
10.765000,10.4467,8.1907,0.2008,13.276
10.773000,10.9530,7.6046,0.1317,13.335
10.775000,11.4570,6.7479,0.0557,13.297
10.782000,11.9425,5.7577,0.1691,13.259
10.784000,12.3479,4.7971,0.5977,13.260
10.792000,12.6049,4.0008,1.3485,13.293
10.797000,12.7500,3.5082,2.3373,13.429
10.799000,12.8126,3.3983,3.3359,13.669
10.804000,12.7880,3.6901,4.1394,13.939
10.836000,12.6881,4.2255,4.5437,14.124
10.838000,13.1361,4.6971,4.6074,14.692
10.839000,13.8344,5.0740,4.2796,15.344
10.839000,14.4698,5.2728,3.4522,15.783
10.840000,14.9954,5.2684,2.2867,16.058
10.840000,15.3244,5.0261,1.0304,16.160
10.841000,15.4285,4.5648,-0.1056,16.090
10.847000,15.3324,3.9277,-0.9665,15.857
10.849000,15.0324,3.1939,-1.5157,15.442
10.856000,14.4998,2.4058,-1.7775,14.805
10.861000,14.1260,1.5115,-1.8316,14.324
10.865000,13.7943,0.5619,-1.7054,13.911
10.870000,13.4341,-0.4112,-1.4697,13.520
10.874000,13.0675,-1.3689,-1.1217,13.187
10.880000,12.6349,-2.2656,-0.6343,12.852
10.884000,12.1736,-3.0425,-0.0035,12.548
10.889000,11.6761,-3.6544,0.8020,12.261
10.895000,11.0658,-4.0798,1.7267,11.920
10.900000,10.3240,-4.2991,2.6989,11.504
10.904000,9.5038,-4.3478,3.6019,11.054
10.945000,8.7058,-4.2570,4.3752,10.633
10.945000,7.9815,-4.0565,4.9569,10.234
10.946000,7.3351,-3.8044,5.3262,9.831
10.946000,6.7666,-3.5419,5.4889,9.405
10.946000,6.2927,-3.2955,5.4511,8.954
10.947000,5.8679,-3.1207,5.2809,8.489
10.947000,5.4651,-3.0140,5.0443,8.025
10.947000,5.0738,-2.9862,4.7767,7.581
10.951000,4.7198,-3.0115,4.4578,7.157
10.954000,4.4822,-3.0665,4.1034,6.807
10.959000,4.3560,-3.1372,3.7028,6.521
10.965000,4.2644,-3.2172,3.2791,6.268
10.970000,4.1638,-3.3366,2.8640,6.056
10.975000,4.0001,-3.4700,2.4501,5.835
10.980000,3.7874,-3.6450,2.0378,5.638
10.985000,3.5331,-3.8565,1.6356,5.480
10.990000,3.2351,-4.1044,1.2585,5.375
10.996000,2.8915,-4.3931,0.9195,5.339
11.000000,2.4997,-4.6992,0.6256,5.359
11.006000,2.0467,-4.9912,0.3824,5.408
11.036000,1.5685,-5.2549,0.2017,5.488
11.038000,1.0867,-5.4851,0.0645,5.592
11.039000,0.5993,-5.6856,-0.0083,5.717
11.039000,0.1090,-5.8702,-0.0623,5.872
11.040000,-0.3630,-6.0251,-0.1050,6.037
11.040000,-0.8039,-6.1329,-0.1345,6.187
11.047000,-1.2188,-6.2087,-0.1635,6.329
11.048000,-1.6270,-6.2450,-0.1949,6.456
11.051000,-2.0092,-6.2393,-0.2148,6.558
11.055000,-2.3656,-6.2150,-0.2069,6.653
11.062000,-2.6821,-6.2090,-0.1813,6.766
11.065000,-2.9298,-6.1950,-0.1197,6.854
11.073000,-3.1138,-6.1953,-0.0297,6.934
11.075000,-3.2297,-6.2247,0.1191,7.014
11.081000,-3.3086,-6.2613,0.3094,7.088
11.085000,-3.3724,-6.2777,0.5358,7.146
11.090000,-3.4331,-6.2960,0.7564,7.211
11.095000,-3.5051,-6.2982,0.9517,7.270
11.101000,-3.6007,-6.3039,1.0923,7.341
11.105000,-3.7246,-6.3202,1.1995,7.433
11.147000,-3.8840,-6.3711,1.2635,7.568
11.148000,-4.0695,-6.4526,1.2915,7.737
11.149000,-4.2619,-6.5436,1.2735,7.912
11.149000,-4.4661,-6.6331,1.2167,8.089
11.150000,-4.6703,-6.7304,1.1210,8.268
11.150000,-4.8913,-6.8309,0.9908,8.460
11.151000,-5.1364,-6.9224,0.8235,8.659
11.151000,-5.3959,-7.0463,0.6215,8.897
11.152000,-5.6749,-7.1836,0.4275,9.165
11.155000,-5.9615,-7.3349,0.2272,9.455
11.160000,-6.2630,-7.5096,0.0251,9.779
11.165000,-6.5389,-7.7192,-0.1549,10.118
11.171000,-6.7966,-7.9585,-0.2888,10.470
11.176000,-7.0506,-8.1918,-0.3600,10.814
11.182000,-7.3108,-8.4147,-0.3871,11.154
11.185000,-7.5965,-8.6419,-0.3794,11.512
11.191000,-7.8985,-8.8605,-0.3578,11.875
11.197000,-8.1811,-9.0796,-0.3360,12.226
11.201000,-8.4327,-9.2818,-0.3181,12.544
11.206000,-8.6393,-9.4694,-0.2843,12.821
11.219000,-8.7919,-9.6601,-0.2576,13.065
11.221000,-8.8837,-9.8279,-0.2204,13.250
11.224000,-8.9315,-9.9607,-0.1528,13.379
11.225000,-8.9454,-10.0749,-0.0637,13.473
11.277000,-8.9160,-10.1587,0.0284,13.516
11.280000,-8.7956,-10.2339,0.1169,13.495
11.281000,-8.6039,-10.2639,0.2146,13.395
11.282000,-8.3695,-10.2327,0.3121,13.223
11.282000,-8.1307,-10.1743,0.4025,13.030
11.283000,-7.9090,-10.0796,0.4815,12.821
11.283000,-7.6684,-9.9319,0.5302,12.559
11.284000,-7.4375,-9.7104,0.5657,12.245
11.286000,-7.2066,-9.4465,0.5998,11.897
11.287000,-6.9707,-9.1575,0.6061,11.525
11.288000,-6.6770,-8.8581,0.6083,11.109
11.289000,-6.3612,-8.5776,0.5891,10.695
11.291000,-5.9872,-8.3117,0.5648,10.259
11.297000,-5.5214,-8.0581,0.4872,9.780
11.301000,-4.8846,-7.8251,0.3060,9.230
11.306000,-4.0599,-7.6687,0.0025,8.677
11.311000,-3.0447,-7.6593,-0.4443,8.254
11.317000,-1.9296,-7.8794,-1.0465,8.179
11.322000,-0.8508,-8.3609,-1.7977,8.594
11.326000,0.0509,-9.0988,-2.6602,9.480
11.331000,0.6082,-10.0216,-3.5264,10.641
11.335000,0.7279,-10.9725,-4.2688,11.796
11.340000,0.4531,-11.8279,-4.7991,12.772
11.378000,-0.1281,-12.5046,-5.0027,13.469
11.379000,-0.8390,-13.0147,-4.8870,13.927
11.380000,-1.4984,-13.3655,-4.4725,14.173
11.380000,-2.0156,-13.5469,-3.7964,14.212
11.381000,-2.4053,-13.5746,-2.8847,14.085
11.381000,-2.7008,-13.5028,-1.8182,13.890
11.382000,-2.8063,-13.3310,-0.6772,13.640
11.382000,-2.5924,-13.0446,0.5035,13.309
11.387000,-2.0161,-12.6836,1.6767,12.952
11.392000,-1.0934,-12.1840,2.7911,12.547
11.397000,0.0898,-11.5397,3.7681,12.140
11.401000,1.3569,-10.7724,4.5630,11.777
11.407000,2.6103,-9.8918,5.1116,11.436
11.413000,3.7834,-9.0141,5.3041,11.122
11.416000,4.8120,-8.2128,5.1056,10.802
11.421000,5.6677,-7.5456,4.4817,10.447
11.429000,6.3699,-7.0401,3.5609,10.140
11.432000,6.8540,-6.6943,2.4787,9.896
11.436000,7.0986,-6.4915,1.3275,9.710
11.441000,7.0919,-6.4037,0.1750,9.557
11.491000,6.8892,-6.3764,-0.9388,9.434
11.494000,6.5432,-6.3405,-1.9820,9.324
11.495000,6.1189,-6.2756,-2.9174,9.238
11.496000,5.6593,-6.1452,-3.6771,9.128
11.497000,5.2531,-5.9486,-4.1957,8.977
11.497000,4.9556,-5.6730,-4.4467,8.747
11.498000,4.7878,-5.3419,-4.4015,8.416
11.498000,4.7689,-5.0004,-4.0014,7.985
11.500000,4.8700,-4.6541,-3.2814,7.493
11.501000,4.9855,-4.2848,-2.3944,6.996
11.502000,5.0435,-3.9122,-1.5098,6.559
11.502000,5.0489,-3.5598,-0.7051,6.218
11.507000,5.0298,-3.1891,0.0252,5.956
11.511000,4.9911,-2.8401,0.6827,5.783
11.516000,4.9254,-2.5085,1.2806,5.674
11.522000,4.8014,-2.1943,1.8015,5.578
11.527000,4.6501,-1.8903,2.2565,5.504
11.531000,4.4526,-1.6172,2.6572,5.432
11.536000,4.1938,-1.3452,2.9911,5.324
11.541000,3.8743,-1.0684,3.2746,5.184
11.546000,3.5300,-0.8055,3.4552,5.005
11.551000,3.1610,-0.5560,3.5762,4.805
11.556000,2.8274,-0.2978,3.6427,4.621
11.597000,2.5273,0.0083,3.6864,4.470
11.597000,2.3103,0.3420,3.6648,4.346
11.598000,2.1791,0.7444,3.6072,4.280
11.598000,2.1406,1.1793,3.4952,4.265
11.598000,2.1276,1.6128,3.3269,4.266
11.599000,2.1208,2.0205,3.1149,4.276
11.599000,2.1275,2.4388,2.8984,4.345
11.599000,2.1301,2.8516,2.7070,4.472
11.602000,2.1143,3.2305,2.5363,4.619
11.606000,2.0849,3.5612,2.3844,4.766
11.613000,2.0632,3.8508,2.2374,4.908
11.617000,2.0684,4.1042,2.0789,5.044
11.621000,2.0744,4.3460,1.9209,5.185
11.629000,2.0611,4.5629,1.7709,5.311
11.632000,2.0314,4.7677,1.6333,5.434
11.637000,1.9733,4.9700,1.4985,5.553
11.642000,1.8941,5.1844,1.3424,5.680
11.647000,1.8155,5.3657,1.1699,5.784
11.651000,1.7763,5.5220,0.9977,5.886
11.656000,1.7805,5.6739,0.8302,6.004
11.709000,1.8309,5.8171,0.7055,6.139
11.713000,1.8916,5.9711,0.6159,6.294
11.714000,1.9699,6.1334,0.5826,6.468
11.717000,2.0706,6.2922,0.5811,6.650
11.718000,2.1964,6.4410,0.6017,6.832
11.719000,2.3514,6.5883,0.6555,7.026
11.720000,2.5502,6.7347,0.7210,7.237
11.720000,2.8335,6.9017,0.8099,7.505
11.721000,3.2153,7.0818,0.9175,7.831
11.722000,3.6717,7.2850,1.0531,8.226
11.723000,4.1774,7.5074,1.1898,8.673
11.724000,4.6798,7.7300,1.2747,9.126
11.725000,5.1547,7.9503,1.3125,9.566
11.730000,5.6040,8.1489,1.3060,9.976
11.731000,6.0660,8.3280,1.2674,10.381
11.737000,6.5624,8.4785,1.2472,10.794
11.742000,7.0870,8.6161,1.2332,11.224
11.747000,7.6016,8.7815,1.2063,11.677
11.752000,8.1221,8.9959,1.1664,12.176
11.757000,8.6289,9.2180,1.1137,12.676
11.764000,9.1068,9.4593,1.0890,13.176
11.768000,9.5267,9.7268,1.0996,13.659
11.772000,9.8442,9.9859,1.1618,14.070
11.808000,9.9921,10.2246,1.2683,14.352
11.809000,9.9895,10.3687,1.3897,14.465
11.811000,9.8746,10.3993,1.5140,14.420
11.813000,9.6670,10.3167,1.6218,14.231
11.813000,9.4172,10.1286,1.7248,13.937
11.814000,9.1878,9.7947,1.7967,13.549
11.814000,9.0870,9.2799,1.8017,13.112
11.815000,9.1680,8.4941,1.6302,12.604
11.817000,9.3807,7.4281,1.2477,12.030
11.822000,9.5968,6.1572,0.7970,11.430
11.827000,9.7455,4.7994,0.4397,10.872
11.831000,9.8143,3.4973,0.2932,10.423
11.838000,9.9124,2.3907,0.3619,10.203
11.843000,10.1029,1.5523,0.6666,10.243
11.848000,10.3221,1.0493,1.1985,10.444
11.853000,10.5341,0.9512,1.8532,10.738
11.858000,10.8176,1.3049,2.4476,11.168
11.863000,11.2434,1.9851,2.7494,11.744
11.867000,11.8911,2.8175,2.7216,12.520
11.872000,12.8276,3.6519,2.3561,13.544
11.923000,13.9517,4.3731,1.7649,14.727
11.925000,15.0857,4.8661,1.0887,15.888
11.928000,16.0791,5.0906,0.4129,16.871
11.929000,16.8281,4.9930,-0.1467,17.554
11.931000,17.2298,4.5941,-0.5394,17.840
11.932000,17.2803,3.9517,-0.7439,17.742
11.933000,17.0219,3.1525,-0.7706,17.328
11.934000,16.5304,2.2309,-0.6877,16.694
11.934000,15.8885,1.2042,-0.5365,15.943
11.935000,15.1565,0.1416,-0.3379,15.161
11.936000,14.3449,-0.9396,-0.0496,14.376
11.937000,13.4792,-1.9880,0.3601,13.630
11.938000,12.5438,-2.9404,0.8510,12.912
11.943000,11.5659,-3.7384,1.3949,12.235
11.947000,10.5482,-4.3509,1.9592,11.577
11.953000,9.5382,-4.7828,2.5187,10.963
11.957000,8.5668,-5.0317,3.0488,10.392
11.963000,7.6919,-5.1020,3.5253,9.880
11.967000,6.8801,-5.0675,3.9266,9.404
11.972000,6.1721,-4.9594,4.2149,8.970
11.979000,5.5985,-4.8286,4.4003,8.604
11.983000,5.1362,-4.7165,4.4816,8.289
11.987000,4.7989,-4.6240,4.4690,8.024
12.045000,4.5314,-4.5612,4.3635,7.770
12.047000,4.2881,-4.5042,4.1538,7.479
12.048000,4.0563,-4.4710,3.8476,7.159
12.048000,3.8394,-4.4363,3.4584,6.810
12.049000,3.5986,-4.3917,3.0060,6.424
12.049000,3.3364,-4.3395,2.5156,6.024
12.050000,3.0170,-4.2874,2.0072,5.614
12.050000,2.6859,-4.2566,1.5035,5.253
12.050000,2.3788,-4.2266,1.0432,4.961
12.051000,2.0533,-4.2171,0.6250,4.732
12.051000,1.7475,-4.2313,0.2656,4.586
12.052000,1.4732,-4.2427,-0.0227,4.491
12.052000,1.2281,-4.2681,-0.2422,4.448
12.058000,1.0027,-4.3194,-0.3978,4.452
12.062000,0.7966,-4.3903,-0.4896,4.489
12.069000,0.5913,-4.4931,-0.5081,4.560
12.073000,0.3867,-4.6356,-0.4778,4.676
12.079000,0.1373,-4.8200,-0.4012,4.839
12.084000,-0.1494,-4.9860,-0.2833,4.996
12.088000,-0.4567,-5.1379,-0.1128,5.159
12.096000,-0.7679,-5.2693,0.0813,5.326
12.099000,-1.0706,-5.4184,0.2819,5.530
12.102000,-1.3554,-5.5618,0.4789,5.745
12.107000,-1.6201,-5.6945,0.6578,5.957
12.155000,-1.8264,-5.7876,0.7919,6.120
12.158000,-2.0080,-5.8267,0.8741,6.225
12.159000,-2.1388,-5.8322,0.8901,6.275
12.160000,-2.2091,-5.8525,0.8614,6.315
12.161000,-2.2407,-5.8793,0.7835,6.340
12.161000,-2.2456,-5.9366,0.6851,6.384
12.162000,-2.2336,-6.0176,0.5853,6.445
12.163000,-2.2404,-6.1390,0.4625,6.551
12.163000,-2.2422,-6.2805,0.3502,6.678
12.164000,-2.2532,-6.4517,0.2413,6.838
12.164000,-2.2855,-6.6442,0.1523,7.028
12.168000,-2.3582,-6.8745,0.0736,7.268
12.173000,-2.4593,-7.1253,-0.0022,7.538
12.177000,-2.5744,-7.4060,-0.0680,7.841
12.183000,-2.7394,-7.6812,-0.1259,8.156
12.188000,-2.9474,-7.9557,-0.1811,8.486
12.197000,-3.1840,-8.2159,-0.1999,8.814
12.198000,-3.4373,-8.4540,-0.1966,9.128
12.202000,-3.7004,-8.6840,-0.1811,9.441
12.207000,-3.9471,-8.8984,-0.1628,9.736
12.257000,-4.2182,-9.0834,-0.1681,10.016
12.258000,-4.4734,-9.2657,-0.1827,10.291
12.258000,-4.7058,-9.4315,-0.1851,10.542
12.259000,-4.9370,-9.5807,-0.1660,10.779
12.259000,-5.1816,-9.7252,-0.1731,11.021
12.260000,-5.4590,-9.8671,-0.2044,11.278
12.260000,-5.4177,-9.9852,-0.2547,11.363
12.261000,-6.0679,-10.0897,-0.3220,11.778
12.261000,-6.3423,-10.1668,-0.3919,11.989
12.262000,-6.5979,-10.2284,-0.4403,12.180
12.262000,-6.8373,-10.2718,-0.4794,12.349
12.268000,-7.0562,-10.3112,-0.5189,12.505
12.274000,-7.2497,-10.3328,-0.5491,12.634
12.278000,-7.4113,-10.3497,-0.5872,12.743
12.283000,-7.5314,-10.3816,-0.6236,12.841
12.288000,-7.6128,-10.4235,-0.6465,12.924
12.295000,-7.6939,-10.4492,-0.6584,12.993
12.299000,-7.7723,-10.4969,-0.6474,13.077
12.302000,-7.8653,-10.5182,-0.6257,13.149
12.308000,-7.9753,-10.5202,-0.6030,13.215
12.313000,-8.1001,-10.4790,-0.5481,13.256
12.320000,-8.2277,-10.4040,-0.4681,13.272
12.322000,-8.3010,-10.2900,-0.3556,13.226
12.361000,-8.2794,-10.1396,-0.2222,13.092
12.363000,-8.1389,-9.9696,-0.0484,12.870
12.364000,-7.9228,-9.7660,0.1273,12.576
12.364000,-7.6332,-9.5624,0.2766,12.239
12.365000,-7.1984,-9.3474,0.3520,11.803
12.365000,-6.6108,-9.1624,0.3061,11.302
12.365000,-5.8608,-9.0917,0.1014,10.818
12.366000,-4.9861,-9.1966,-0.2831,10.465
12.369000,-4.0750,-9.4847,-0.8087,10.355
12.374000,-3.2180,-9.9062,-1.4065,10.510
12.379000,-2.4868,-10.3660,-2.0270,10.851
12.383000,-2.0197,-10.8092,-2.6090,11.302
12.388000,-1.8622,-11.1776,-3.1245,11.755
12.394000,-1.9446,-11.4330,-3.4809,12.108
12.399000,-2.1999,-11.6003,-3.6424,12.356
12.403000,-2.5136,-11.7381,-3.5568,12.520
12.408000,-2.8405,-11.8882,-3.2916,12.658
12.413000,-3.1352,-12.0203,-2.8738,12.751
12.418000,-3.3527,-12.0994,-2.2795,12.761
12.423000,-3.4162,-12.0944,-1.5118,12.658
12.431000,-3.2804,-11.9900,-0.5996,12.445
12.433000,-2.8923,-11.7791,0.3611,12.134
12.439000,-2.1945,-11.4432,1.3109,11.725
12.487000,-1.2008,-10.9597,2.1806,11.239
12.488000,0.0054,-10.3659,2.9631,10.781
12.489000,1.3555,-9.7350,3.6397,10.481
12.490000,2.7086,-9.0806,4.1314,10.337
12.490000,3.9074,-8.4598,4.3762,10.295
12.491000,4.8398,-7.9649,4.3219,10.273
12.491000,5.4941,-7.6195,3.9305,10.183
12.492000,5.9235,-7.4493,3.2749,10.065
12.492000,6.1448,-7.4077,2.4732,9.937
12.493000,6.1677,-7.4891,1.6338,9.839
12.497000,6.0211,-7.6491,0.7981,9.767
12.499000,5.7580,-7.8145,-0.0094,9.707
12.505000,5.4526,-7.9258,-0.7637,9.651
12.510000,5.1172,-7.9385,-1.4346,9.553
12.515000,4.8263,-7.8512,-1.9970,9.430
12.520000,4.5895,-7.6543,-2.3996,9.242
12.523000,4.4502,-7.3767,-2.6153,9.003
12.529000,4.4227,-7.0094,-2.6296,8.695
12.534000,4.5526,-6.5664,-2.4570,8.360
12.539000,4.8300,-6.0775,-2.0627,8.032
12.580000,5.1495,-5.5859,-1.5321,7.750
12.581000,5.4199,-5.1094,-0.9649,7.511
12.582000,5.6700,-4.6367,-0.4273,7.337
12.582000,5.9089,-4.1206,0.0268,7.204
12.582000,6.0962,-3.5992,0.3989,7.091
12.582000,6.2428,-3.0826,0.7000,6.998
12.583000,6.3583,-2.5871,1.0040,6.938
12.583000,6.4520,-2.1225,1.2671,6.909
12.586000,6.4731,-1.6846,1.5152,6.858
12.589000,6.3905,-1.2782,1.7623,6.751
12.594000,6.2163,-0.9022,1.9607,6.580
12.599000,5.9451,-0.5701,2.1296,6.341
12.604000,5.6395,-0.2637,2.2596,6.081
12.610000,5.3236,0.0176,2.3632,5.825
12.614000,4.9902,0.2599,2.4358,5.559
12.620000,4.6663,0.4789,2.4992,5.315
12.625000,4.3775,0.6806,2.5320,5.103
12.630000,4.1552,0.9018,2.5588,4.963
12.635000,3.9877,1.1452,2.6112,4.902
12.639000,3.8628,1.4420,2.6582,4.906
12.647000,3.7898,1.7725,2.6807,4.969
12.649000,3.7356,2.1157,2.6670,5.054
12.654000,3.6894,2.4651,2.6341,5.160
12.706000,3.6778,2.8141,2.5822,5.302
12.707000,3.7101,3.1767,2.4878,5.481
12.707000,3.7977,3.5501,2.3870,5.720
12.708000,3.9281,3.9434,2.2655,6.009
12.708000,4.0320,4.3255,2.1519,6.293
12.708000,4.0648,4.6757,2.0055,6.512
12.709000,4.0078,4.9756,1.8237,6.644
12.709000,3.8920,5.1965,1.6212,6.692
12.709000,3.7176,5.3270,1.4148,6.648
12.710000,3.4847,5.3651,1.1805,6.505
12.710000,3.2182,5.3434,0.8825,6.300
12.714000,2.9871,5.2830,0.5427,6.093
12.721000,2.8089,5.2303,0.2071,5.940
12.725000,2.6813,5.2025,-0.0860,5.853
12.729000,2.5709,5.2091,-0.3411,5.819
12.736000,2.4658,5.2264,-0.5296,5.803
12.740000,2.4027,5.2433,-0.6512,5.804
12.748000,2.4215,5.2518,-0.7084,5.826
12.749000,2.5129,5.2906,-0.6871,5.897
12.755000,2.6817,5.3742,-0.6086,6.037
12.760000,2.9014,5.4759,-0.4687,6.215
12.809000,3.1620,5.5836,-0.2604,6.422
12.811000,3.4425,5.6809,-0.0151,6.643
12.812000,3.7631,5.7669,0.2332,6.890
12.812000,4.1123,5.8180,0.4604,7.140
12.813000,4.5019,5.8534,0.6689,7.415
12.813000,4.9198,5.9066,0.8727,7.736
12.814000,5.3036,5.9606,1.0694,8.050
12.815000,5.6801,6.0494,1.2709,8.395
12.816000,6.0650,6.1579,1.4744,8.768
12.817000,6.4732,6.2432,1.6942,9.152
12.817000,6.9069,6.3081,1.9158,9.548
12.820000,7.3710,6.3860,2.1579,9.988
12.825000,7.8703,6.4604,2.4295,10.468
12.830000,8.3908,6.5771,2.7088,11.000
12.835000,8.9242,6.7856,2.9779,11.600
12.840000,9.4681,7.1600,3.2435,12.306
12.847000,10.0407,7.6709,3.4764,13.105
12.851000,10.6529,8.2577,3.6403,13.962
12.854000,11.3366,8.8407,3.7349,14.853
12.907000,12.0427,9.3449,3.7289,15.693
12.908000,12.7570,9.6832,3.5723,16.409
12.908000,13.4618,9.7906,3.2011,16.951
12.909000,14.1344,9.5662,2.5905,17.263
12.909000,14.6908,8.9479,1.8694,17.303
12.909000,15.0242,8.0250,1.2692,17.080
12.910000,15.0739,7.0212,0.9811,16.658
12.910000,14.8609,6.1887,1.0878,16.135
12.911000,14.4303,5.6170,1.5074,15.558
12.911000,13.9035,5.3931,2.0464,15.053
12.911000,13.3534,5.5101,2.4899,14.659
12.916000,12.8879,5.8722,2.6867,14.415
12.920000,12.6089,6.3372,2.5510,14.341
12.925000,12.5152,6.7654,2.0659,14.376
12.930000,12.5790,7.0791,1.3386,14.496
12.935000,12.7845,7.2080,0.4196,14.682
12.940000,13.0181,7.1559,-0.5304,14.865
12.947000,13.1975,6.9246,-1.4017,14.970
12.950000,13.2419,6.5166,-2.1108,14.909
12.954000,13.1540,5.9489,-2.5925,14.668
12.959000,12.9804,5.2578,-2.8514,14.292
12.965000,12.7771,4.4824,-2.9450,13.857
12.970000,12.5857,3.6757,-2.9358,13.436
12.974000,12.3997,2.8833,-2.9125,13.059
13.027000,12.2494,2.1137,-2.9010,12.764
13.028000,12.1206,1.3404,-2.8653,12.527
13.029000,12.0021,0.5734,-2.7264,12.321
13.029000,11.8752,-0.1298,-2.4848,12.133
13.029000,11.7357,-0.7475,-2.1796,11.960
13.030000,11.5977,-1.2491,-1.8185,11.806
13.030000,11.4292,-1.6527,-1.4123,11.634
13.031000,11.1916,-1.9948,-0.9763,11.410
13.031000,10.9331,-2.2443,-0.5138,11.173
13.031000,10.6871,-2.3895,0.0002,10.951
13.032000,10.4393,-2.4403,0.5673,10.736
13.037000,10.1292,-2.4288,1.1550,10.480
13.041000,9.7412,-2.3754,1.6947,10.169
13.045000,9.3083,-2.2929,2.1425,9.823
13.050000,8.8306,-2.2222,2.4979,9.442
13.055000,8.3559,-2.1895,2.7555,9.067
13.061000,7.8891,-2.1927,2.9343,8.698
13.065000,7.4274,-2.2327,3.0722,8.342
13.070000,6.9623,-2.3219,3.1471,7.986
13.075000,6.4817,-2.4659,3.1687,7.625
13.082000,6.0122,-2.6573,3.1658,7.296
13.085000,5.5638,-2.9124,3.1460,7.024
13.090000,5.1169,-3.1818,3.0974,6.775
13.134000,4.6971,-3.4727,3.0279,6.580
13.135000,4.2874,-3.7902,2.9188,6.424
13.136000,3.9001,-4.0934,2.7803,6.301
13.136000,3.5569,-4.3364,2.6063,6.185
13.136000,3.2030,-4.5385,2.4020,6.052
13.137000,2.8477,-4.7126,2.1637,5.916
13.137000,2.5064,-4.8825,1.9305,5.818
13.137000,1.9133,-5.0303,1.4998,5.587
13.138000,1.8483,-5.2156,1.4847,5.729
13.140000,1.5410,-5.3833,1.3017,5.749
13.144000,1.2451,-5.5668,1.1426,5.818
13.149000,0.9700,-5.7716,1.0435,5.945
13.155000,0.7140,-5.9927,0.9806,6.114
13.160000,0.4959,-6.2288,0.9298,6.317
13.165000,0.2846,-6.4913,0.9128,6.561
13.169000,0.0633,-6.7562,0.9363,6.821
13.175000,-0.1702,-7.0420,1.0022,7.115
13.181000,-0.4113,-7.3433,1.1293,7.441
13.186000,-0.6697,-7.6584,1.3195,7.800
13.190000,-0.9212,-7.9053,1.5246,8.104
13.198000,-1.1517,-8.0827,1.7231,8.344
13.200000,-1.3830,-8.2144,1.9034,8.545
13.204000,-1.5744,-8.3195,2.0706,8.717
13.262000,-1.7215,-8.4337,2.2036,8.885
13.263000,-1.8387,-8.5364,2.2763,9.024
13.263000,-1.9381,-8.6137,2.2985,9.123
13.263000,-2.0461,-8.6525,2.2683,9.176
13.264000,-2.1677,-8.6698,2.1884,9.201
13.264000,-2.3148,-8.6775,2.0948,9.222
13.265000,-2.4516,-8.7021,1.9901,9.257
13.265000,-2.5924,-8.7422,1.9006,9.314
13.265000,-2.7208,-8.8051,1.8021,9.390
13.266000,-2.8630,-8.8824,1.7277,9.491
13.266000,-3.0408,-8.9382,1.6674,9.587
13.266000,-3.2566,-8.9796,1.5794,9.682
13.271000,-3.4842,-9.0306,1.4825,9.792
13.275000,-3.7115,-9.1086,1.3692,9.931
13.280000,-3.9583,-9.2308,1.2407,10.120
13.285000,-4.2198,-9.4121,1.1380,10.377
13.290000,-4.4843,-9.6116,1.0459,10.658
13.297000,-4.7783,-9.8432,0.9688,10.984
13.301000,-5.1046,-10.0967,0.8919,11.349
13.305000,-5.4560,-10.3414,0.8100,11.720
13.365000,-5.8095,-10.5848,0.7058,12.095
13.366000,-6.1845,-10.8272,0.5986,12.483
13.366000,-6.5621,-11.0584,0.4978,12.868
13.367000,-6.9428,-11.2611,0.4130,13.236
13.367000,-7.3273,-11.4727,0.3729,13.618
13.367000,-7.6894,-11.6573,0.3487,13.969
13.368000,-8.0061,-11.7750,0.3356,14.243
13.368000,-8.2683,-11.8475,0.3169,14.451
13.369000,-8.4738,-11.8771,0.3143,14.593
13.369000,-8.5991,-11.8565,0.3302,14.650
13.371000,-8.6371,-11.8026,0.3746,14.630
13.372000,-8.5760,-11.6920,0.4600,14.507
13.372000,-8.4255,-11.5222,0.5988,14.287
13.376000,-8.1830,-11.3109,0.7748,13.982
13.381000,-7.8865,-11.0707,0.9859,13.628
13.385000,-7.5502,-10.8189,1.1991,13.247
13.390000,-7.2075,-10.5943,1.4005,12.890
13.396000,-6.8723,-10.4115,1.5832,12.575
13.401000,-6.4918,-10.2830,1.7142,12.281
13.405000,-5.9751,-10.2041,1.7797,11.958
13.448000,-5.2715,-10.2210,1.6847,11.623
13.449000,-4.4216,-10.3752,1.4035,11.365
13.449000,-3.5973,-10.7463,0.9506,11.372
13.450000,-2.9515,-11.2554,0.4067,11.643
13.450000,-2.5749,-11.7664,-0.1530,12.046
13.451000,-2.5657,-12.2118,-0.6558,12.496
13.451000,-2.8474,-12.4755,-1.0335,12.838
13.452000,-3.2551,-12.5542,-1.2295,13.027
13.452000,-3.6360,-12.5353,-1.2752,13.114
13.456000,-3.9397,-12.5120,-1.1965,13.172
13.461000,-4.1234,-12.5214,-1.0483,13.224
13.466000,-4.1991,-12.5461,-0.8283,13.256
13.470000,-4.1550,-12.5212,-0.4985,13.202
13.474000,-3.9645,-12.3845,-0.0188,13.004
13.481000,-3.6087,-12.1618,0.6246,12.701
13.485000,-3.0654,-11.8716,1.3095,12.331
13.490000,-2.3775,-11.5381,1.9736,11.945
13.496000,-1.5803,-11.2078,2.6052,11.615
13.500000,-0.6497,-10.9009,3.1639,11.369
13.505000,0.3265,-10.6018,3.6141,11.206
13.556000,1.2574,-10.3132,3.9104,11.101
13.557000,2.1153,-10.0426,4.0512,11.034
13.558000,2.8835,-9.7947,4.0533,10.985
13.558000,3.5287,-9.5628,3.8930,10.911
13.558000,4.0083,-9.3738,3.5444,10.793
13.559000,4.3249,-9.2255,3.0534,10.637
13.559000,4.5242,-9.1551,2.4992,10.513
13.560000,4.5944,-9.1565,1.9523,10.429
13.560000,4.5333,-9.2185,1.4200,10.371
13.560000,4.3149,-9.2945,0.9049,10.287
13.561000,3.9683,-9.3473,0.3959,10.162
13.565000,3.5942,-9.3399,-0.0965,10.008
13.571000,3.2529,-9.2319,-0.5118,9.802
13.576000,3.0115,-8.9820,-0.8363,9.510
13.580000,2.9160,-8.6183,-1.0529,9.159
13.587000,2.9949,-8.1413,-1.1708,8.753
13.591000,3.2054,-7.6022,-1.1776,8.334
13.595000,3.5929,-6.9521,-1.0707,7.899
13.601000,4.0998,-6.2156,-0.8294,7.492
13.605000,4.6394,-5.4044,-0.4446,7.136
13.610000,5.1180,-4.5910,-0.0062,6.875
13.615000,5.4972,-3.8390,0.4128,6.718
13.620000,5.7501,-3.1516,0.8020,6.606
13.626000,5.8766,-2.5845,1.1151,6.516
13.631000,5.8889,-2.1100,1.3515,6.400
13.635000,5.7909,-1.7232,1.5681,6.242
13.640000,5.6019,-1.4082,1.8216,6.057
13.696000,5.3628,-1.1384,2.1042,5.872
13.697000,5.1117,-0.9035,2.3986,5.718
13.698000,4.8393,-0.6597,2.6782,5.570
13.698000,4.5725,-0.4319,2.9048,5.434
13.699000,4.3104,-0.2025,3.0429,5.280
13.699000,4.0921,0.0468,3.0426,5.099
13.699000,3.9772,0.3280,2.9335,4.953
13.700000,3.9777,0.6363,2.7356,4.869
13.701000,4.0691,0.9784,2.5262,4.888
13.701000,4.2135,1.3664,2.3389,5.009
13.702000,4.3899,1.8097,2.1931,5.230
13.702000,4.5769,2.2561,2.0478,5.498
13.706000,4.6832,2.6525,1.8889,5.704
13.713000,4.7326,3.0038,1.6995,5.857
13.716000,4.7442,3.3269,1.4893,5.983
13.722000,4.7329,3.6347,1.2560,6.098
13.726000,4.7214,3.9281,1.0164,6.225
13.731000,4.7053,4.2224,0.7800,6.370
13.736000,4.6990,4.4961,0.5611,6.528
13.740000,4.6904,4.7494,0.3450,6.684
13.794000,4.7038,4.9999,0.1055,6.866
13.798000,4.7120,5.2369,-0.1287,7.046
13.799000,4.7155,5.4779,-0.3838,7.238
13.801000,4.6927,5.6943,-0.6547,7.408
13.802000,4.6773,5.8818,-0.9369,7.573
13.803000,4.6885,6.0405,-1.2035,7.741
13.805000,4.7550,6.1945,-1.4426,7.941
13.807000,4.8774,6.3518,-1.6158,8.170
13.809000,5.0592,6.5327,-1.7063,8.437
13.812000,5.3008,6.7377,-1.7212,8.744
13.812000,5.5730,6.9449,-1.6846,9.062
13.813000,5.8588,7.1710,-1.6203,9.401
13.813000,6.1848,7.4044,-1.5332,9.769
13.814000,6.5327,7.6413,-1.3992,10.150
13.817000,6.8976,7.8796,-1.2232,10.543
13.821000,7.2315,8.0594,-1.0244,10.876
13.827000,7.5627,8.2117,-0.7698,11.190
13.831000,7.8695,8.3388,-0.4931,11.476
13.837000,8.1545,8.4364,-0.2067,11.735
13.842000,8.4741,8.5302,0.0818,12.024
13.847000,8.8189,8.6181,0.3648,12.336
13.851000,9.1743,8.7239,0.6128,12.675
13.855000,9.5110,8.8259,0.8233,13.001
13.894000,9.8288,8.9049,0.9934,13.300
13.895000,10.0944,8.9731,1.1254,13.553
13.895000,10.3069,9.0038,1.2260,13.741
13.896000,10.4718,9.0261,1.2999,13.886
13.896000,10.5865,9.0736,1.3613,14.009
13.896000,10.6512,9.1870,1.3883,14.134
13.897000,10.7325,9.3874,1.3378,14.321
13.897000,10.8323,9.6148,1.1547,14.530
13.901000,10.9686,9.8183,0.8231,14.744
13.907000,11.1003,9.9352,0.3894,14.902
13.911000,11.1692,9.9270,-0.1191,14.944
13.916000,11.1418,9.7722,-0.6730,14.835
13.921000,11.0663,9.4017,-1.2759,14.577
13.926000,10.9886,8.7325,-1.9793,14.175
13.932000,10.9484,7.7394,-2.7616,13.689
13.936000,10.8987,6.4834,-3.3270,13.110
13.942000,10.6929,5.1930,-3.4510,12.378
13.953000,10.3568,4.0633,-3.1095,11.552
13.955000,9.9497,3.2243,-2.4490,10.742
13.957000,9.5662,2.7244,-1.6828,10.088
14.014000,9.3056,2.5260,-1.0394,9.698
14.016000,9.3447,2.5809,-0.6765,9.718
14.018000,9.7635,2.8308,-0.6452,10.186
14.018000,10.4641,3.1593,-0.8934,10.967
14.019000,11.3674,3.4999,-1.3518,11.971
14.019000,12.3562,3.8271,-1.8961,13.074
14.020000,13.2973,4.0892,-2.4122,14.119
14.020000,14.1316,4.2177,-2.8055,15.012
14.021000,14.7723,4.1687,-3.0518,15.650
14.022000,15.1978,3.9011,-3.1724,16.008
14.022000,15.4162,3.4391,-3.1844,16.113
14.023000,15.4637,2.8326,-3.0759,16.019
14.023000,15.3830,2.1211,-2.8243,15.783
14.028000,15.1507,1.3378,-2.4213,15.401
14.032000,14.7944,0.5001,-1.9428,14.930
14.037000,14.3464,-0.3676,-1.4025,14.419
14.043000,13.7980,-1.2362,-0.7999,13.876
14.048000,13.1019,-2.0579,-0.1390,13.263
14.051000,12.2747,-2.7756,0.5704,12.597
14.056000,11.3527,-3.3652,1.3004,11.912
14.063000,10.4036,-3.8307,2.0064,11.267
14.066000,9.5095,-4.1907,2.6775,10.731
14.074000,8.6987,-4.4238,3.3155,10.307
14.076000,7.9702,-4.5709,3.8955,9.980
14.104000,7.3355,-4.6111,4.3862,9.711
14.105000,6.7754,-4.5634,4.7351,9.442
14.105000,6.2802,-4.4135,4.9091,9.112
14.106000,5.8690,-4.2502,4.9092,8.753
14.106000,5.5432,-4.0769,4.7797,8.378
14.106000,5.2775,-3.9191,4.5531,7.996
14.115000,5.0494,-3.7851,4.2424,7.604
14.116000,4.8064,-3.6538,3.8732,7.173
14.121000,4.5410,-3.5426,3.4488,6.713
14.129000,4.2679,-3.4468,2.9944,6.250
14.135000,3.9960,-3.3940,2.5207,5.817
14.136000,3.6979,-3.3562,2.0653,5.404
14.142000,3.3777,-3.3250,1.6508,5.019
14.146000,3.0310,-3.3411,1.2873,4.691
14.151000,2.6818,-3.4021,0.9947,4.445
14.156000,2.3208,-3.5004,0.7710,4.270
14.162000,1.9646,-3.6368,0.6189,4.180
14.166000,1.6118,-3.7969,0.5195,4.157
14.171000,1.2384,-3.9932,0.4609,4.206
14.221000,0.8684,-4.2278,0.4454,4.339
14.222000,0.4733,-4.4663,0.4703,4.516
14.222000,0.0822,-4.7011,0.5355,4.732
14.223000,-0.2859,-4.9327,0.6262,4.981
14.223000,-0.6234,-5.1703,0.7327,5.259
14.224000,-0.9375,-5.4216,0.8570,5.568
14.224000,-1.2306,-5.6644,0.9937,5.881
14.224000,-1.5292,-5.8792,1.1378,6.180
14.225000,-1.8189,-6.0392,1.2718,6.434
14.225000,-2.1023,-6.1381,1.3738,6.632
14.232000,-2.3673,-6.1735,1.4553,6.770
14.233000,-2.5855,-6.1655,1.4875,6.849
14.240000,-2.7309,-6.1525,1.4822,6.893
14.243000,-2.7869,-6.1274,1.4346,6.883
14.247000,-2.7490,-6.1168,1.3759,6.846
14.252000,-2.6868,-6.1128,1.3060,6.804
14.257000,-2.6315,-6.1136,1.2193,6.767
14.264000,-2.5688,-6.1372,1.1303,6.748
14.267000,-2.5132,-6.1720,1.0364,6.744
14.271000,-2.4646,-6.2394,0.9448,6.775
14.310000,-2.4255,-6.3779,0.8485,6.876
14.311000,-2.4007,-6.5238,0.7737,6.994
14.312000,-2.3781,-6.6751,0.7153,7.122
14.312000,-2.3675,-6.8471,0.6515,7.274
14.312000,-2.3832,-7.0422,0.6014,7.459
14.313000,-2.4371,-7.2816,0.5794,7.700
14.313000,-2.5125,-7.5279,0.5830,7.958
14.313000,-2.6190,-7.7839,0.6027,8.235
14.317000,-2.7472,-8.0644,0.6480,8.544
14.321000,-2.8993,-8.3599,0.7000,8.876
14.327000,-3.0588,-8.6582,0.7440,9.213
14.332000,-3.2497,-8.9925,0.7775,9.593
14.336000,-3.4886,-9.3324,0.7744,9.993
14.341000,-3.7641,-9.6945,0.7414,10.426
14.347000,-4.0715,-10.0651,0.6788,10.879
14.352000,-4.3965,-10.4269,0.5796,11.331
14.356000,-4.7227,-10.7602,0.5082,11.762
14.361000,-5.0552,-11.0432,0.4405,12.153
14.367000,-5.3988,-11.2810,0.3645,12.512
14.371000,-5.7593,-11.5051,0.2607,12.869
14.379000,-6.1056,-11.7062,0.1076,13.203
14.382000,-6.4238,-11.8835,-0.0681,13.509
14.386000,-6.7383,-12.0488,-0.2183,13.807
14.391000,-7.0519,-12.1632,-0.3333,14.064
14.438000,-7.3432,-12.2150,-0.4246,14.259
14.441000,-7.5244,-12.1717,-0.4726,14.318
14.443000,-7.5837,-12.0437,-0.4864,14.241
14.444000,-7.5212,-11.8219,-0.4606,14.019
14.444000,-7.3943,-11.5358,-0.3996,13.708
14.446000,-7.2555,-11.2219,-0.3079,13.367
14.447000,-7.1166,-10.9240,-0.1682,13.039
14.448000,-6.9274,-10.6586,0.0149,12.712
14.449000,-6.6352,-10.4380,0.2297,12.371
14.449000,-6.1396,-10.3008,0.4430,12.000
14.450000,-5.4071,-10.2881,0.6047,11.638
14.453000,-4.4616,-10.4747,0.5883,11.400
14.457000,-3.4200,-10.9305,0.3465,11.458
14.462000,-2.4929,-11.6532,-0.0688,11.917
14.468000,-1.8859,-12.5128,-0.5748,12.667
14.472000,-1.6854,-13.3291,-1.1040,13.480
14.478000,-1.9418,-13.9236,-1.5455,14.143
14.485000,-2.5478,-14.2353,-1.8270,14.576
14.489000,-3.2886,-14.3058,-1.9659,14.810
14.496000,-3.9781,-14.2298,-1.9584,14.905
14.498000,-4.5353,-14.0351,-1.8757,14.868
14.502000,-4.8503,-13.7117,-1.6699,14.640
14.507000,-4.9470,-13.2766,-1.3265,14.230
14.553000,-4.7917,-12.7686,-0.8341,13.664
14.554000,-4.3486,-12.2070,-0.1978,12.960
14.554000,-3.6720,-11.6299,0.5673,12.209
14.555000,-2.8430,-11.0856,1.4006,11.530
14.555000,-1.8540,-10.5777,2.2200,10.966
14.556000,-0.7405,-10.1052,2.9791,10.561
14.556000,0.4143,-9.6644,3.6170,10.327
14.557000,1.5555,-9.2871,4.1018,10.271
14.557000,2.5838,-8.9806,4.3499,10.308
14.557000,3.4730,-8.7568,4.3232,10.365
14.563000,4.1809,-8.6210,4.0181,10.390
14.567000,4.6314,-8.5545,3.4314,10.315
14.572000,4.8490,-8.5496,2.6560,10.181
14.578000,4.8819,-8.6075,1.8152,10.061
14.583000,4.7046,-8.7504,0.9836,9.983
14.588000,4.3505,-8.9450,0.1603,9.948
14.592000,3.9134,-9.1467,-0.6236,9.968
14.599000,3.4555,-9.3061,-1.3658,10.020
14.602000,3.0776,-9.3887,-2.0214,10.085
14.607000,2.8346,-9.3739,-2.5483,10.119
14.613000,2.7342,-9.2730,-2.8997,10.093
14.618000,2.8027,-9.0448,-3.0636,9.952
14.623000,3.0521,-8.6663,-3.0306,9.675
14.674000,3.4875,-8.1484,-2.7562,9.282
14.677000,4.0107,-7.5276,-2.2802,8.829
14.678000,4.4640,-6.9087,-1.6740,8.394
14.678000,4.8975,-6.2867,-1.0524,8.038
14.679000,5.3136,-5.6340,-0.4698,7.759
14.680000,5.6357,-4.9902,0.0604,7.528
14.680000,5.8708,-4.3730,0.5511,7.341
14.681000,6.0213,-3.7724,1.0516,7.183
14.681000,6.0459,-3.2200,1.5487,7.023
14.681000,5.9256,-2.7268,2.0370,6.834
14.682000,5.6771,-2.3212,2.4848,6.618
14.685000,5.3436,-1.9762,2.8637,6.377
14.687000,4.9516,-1.6792,3.1955,6.128
14.694000,4.5304,-1.3951,3.4666,5.873
14.699000,4.1272,-1.1133,3.6660,5.631
14.703000,3.8049,-0.8037,3.7970,5.435
14.708000,3.5801,-0.4638,3.8126,5.251
14.714000,3.4863,-0.0888,3.7379,5.112
14.720000,3.5567,0.3256,3.5834,5.059
14.722000,3.7865,0.7748,3.4120,5.156
14.774000,4.1311,1.2559,3.2765,5.420
14.775000,4.4874,1.7902,3.1435,5.764
14.776000,4.8140,2.3602,2.9840,6.136
14.776000,5.0819,2.9269,2.7740,6.487
14.776000,5.3167,3.5090,2.5231,6.852
14.777000,5.5042,4.0494,2.2240,7.186
14.777000,5.6381,4.5128,1.8794,7.462
14.777000,5.7330,4.9168,1.5274,7.706
14.778000,5.7768,5.3072,1.1680,7.931
14.778000,5.7597,5.6601,0.8273,8.118
14.779000,5.6458,5.9806,0.5100,8.240
14.784000,5.5099,6.2437,0.2371,8.331
14.787000,5.3487,6.4389,0.0081,8.371
14.793000,5.1820,6.5794,-0.1891,8.377
14.799000,5.0433,6.6704,-0.3145,8.368
14.804000,4.9615,6.7579,-0.3853,8.392
14.809000,4.9269,6.8493,-0.4066,8.447
14.814000,4.9231,6.9547,-0.3955,8.530
14.819000,4.9038,7.0612,-0.3838,8.606
14.872000,4.8836,7.1600,-0.4024,8.676
14.872000,4.8506,7.2368,-0.4513,8.724
14.873000,4.8408,7.2965,-0.5277,8.772
14.873000,4.8421,7.3250,-0.5809,8.800
14.873000,4.8720,7.3494,-0.6131,8.839
14.874000,4.9388,7.3877,-0.5859,8.906
14.874000,5.0213,7.4619,-0.5255,9.009
14.874000,5.1242,7.5384,-0.4296,9.125
14.874000,5.2428,7.6079,-0.3197,9.245
14.874000,5.3743,7.6749,-0.2220,9.372
14.875000,5.5096,7.7472,-0.1794,9.508
14.883000,5.7053,7.8072,-0.1726,9.671
14.883000,5.9948,7.8768,-0.1842,9.900
14.888000,6.3395,7.9819,-0.1545,10.194
14.893000,6.6407,8.0481,-0.1241,10.435
14.898000,6.8939,8.0922,-0.0812,10.631
14.903000,7.0872,8.1028,-0.0308,10.765
14.908000,7.2396,8.0724,0.0608,10.843
14.913000,7.3183,8.0161,0.1672,10.856
14.919000,7.3645,8.0061,0.2758,10.882
14.923000,7.4050,8.0667,0.3724,10.956
14.929000,7.5334,8.1862,0.4495,11.134
14.933000,7.7754,8.3378,0.4857,11.411
14.938000,8.1665,8.4783,0.4978,11.782
14.995000,8.7849,8.5786,0.4571,12.287
14.996000,9.6175,8.5497,0.2995,12.872
14.996000,10.6130,8.2810,-0.0098,13.461
14.997000,11.6631,7.7725,-0.3118,14.019
14.997000,12.6523,7.1294,-0.4008,14.528
14.997000,13.4470,6.5672,-0.1489,14.966
14.998000,13.9712,6.2631,0.3795,15.316
14.998000,14.2447,6.3009,1.0167,15.609
14.998000,14.3949,6.6375,1.5535,15.927
14.999000,14.5483,7.1168,1.8553,16.302
14.999000,14.7711,7.5850,1.8631,16.709
14.999000,15.1076,7.9457,1.5830,17.143
15.004000,15.5251,8.1185,1.0601,17.552
15.009000,15.9409,8.0333,0.3563,17.854
15.014000,16.2726,7.6797,-0.3828,17.998
15.020000,16.4584,7.1225,-1.0598,17.965
15.025000,16.4506,6.4286,-1.5593,17.731
15.030000,16.2597,5.6150,-1.8401,17.300
15.034000,15.9085,4.7134,-1.9168,16.702
15.039000,15.4726,3.7894,-1.8378,16.036
15.091000,14.9936,2.8552,-1.6514,15.352
15.092000,14.5358,1.9697,-1.4135,14.737
15.092000,14.1234,1.1282,-1.1484,14.215
15.092000,13.7737,0.3501,-0.8659,13.805
15.093000,13.4416,-0.3502,-0.5621,13.458
15.093000,13.1033,-0.9251,-0.2785,13.139
15.094000,12.7465,-1.4110,-0.0107,12.824
15.094000,12.3558,-1.7999,0.2472,12.489
15.095000,11.8758,-2.1021,0.4996,12.071
15.095000,11.3042,-2.3560,0.7769,11.573
15.095000,10.6369,-2.5613,1.1047,10.997
15.100000,9.9054,-2.7131,1.4775,10.376
15.105000,9.1311,-2.8308,1.8945,9.746
15.110000,8.3564,-2.9173,2.3447,9.156
15.115000,7.5952,-2.9800,2.8036,8.627
15.120000,6.8887,-2.9993,3.2416,8.183
15.125000,6.2535,-2.9871,3.6201,7.819
15.130000,5.6875,-2.9837,3.8982,7.513
15.142000,4.9485,-2.8871,4.1957,7.101
15.142000,4.8580,-3.0187,4.1757,7.082
15.179000,4.6040,-3.0899,4.1737,6.940
15.179000,4.4643,-3.1774,4.0971,6.842
15.180000,4.3738,-3.2770,3.9801,6.761
15.180000,4.2680,-3.4178,3.8424,6.683
15.181000,4.0844,-3.5746,3.6438,6.537
15.181000,3.8170,-3.7360,3.3692,6.315
15.181000,3.4799,-3.8981,3.0601,6.056
15.182000,3.0976,-4.0583,2.7321,5.790
15.185000,2.6727,-4.2162,2.3864,5.533
15.189000,2.2342,-4.3692,2.0526,5.319
15.194000,1.8177,-4.5109,1.7483,5.168
15.199000,1.4313,-4.6487,1.4792,5.084
15.204000,1.0914,-4.7738,1.2696,5.059
15.208000,0.7596,-4.8957,1.1172,5.079
15.214000,0.4551,-5.0499,1.0267,5.173
15.219000,0.1733,-5.1861,0.9887,5.282
15.224000,-0.1269,-5.3074,0.9598,5.395
15.229000,-0.3849,-5.4474,0.9450,5.542
15.233000,-0.5772,-5.5831,0.9704,5.696
15.239000,-0.7327,-5.7549,1.0263,5.891
15.244000,-0.8607,-5.9482,1.0884,6.108
15.249000,-0.9639,-6.1534,1.1470,6.333
15.254000,-1.0543,-6.3689,1.1877,6.564
15.259000,-1.1555,-6.5850,1.2220,6.796
15.308000,-1.2630,-6.7788,1.2708,7.012
15.309000,-1.3934,-6.9358,1.3166,7.196
15.309000,-1.5492,-7.0510,1.3615,7.346
15.310000,-1.7209,-7.1434,1.3931,7.479
15.310000,-1.8870,-7.2211,1.4495,7.603
15.311000,-2.0212,-7.3202,1.4778,7.737
15.311000,-2.1356,-7.4321,1.5185,7.880
15.311000,-2.2303,-7.5661,1.5597,8.041
15.311000,-2.2910,-7.7031,1.5917,8.193
15.311000,-2.3850,-7.8455,1.6142,8.357
15.315000,-2.4833,-7.9605,1.6488,8.500
15.320000,-2.5815,-8.0440,1.6904,8.616
15.325000,-2.6700,-8.1019,1.7252,8.703
15.330000,-2.7560,-8.1656,1.7413,8.792
15.334000,-2.8275,-8.2759,1.7464,8.918
15.339000,-2.8965,-8.4471,1.7285,9.096
15.346000,-2.9772,-8.6611,1.6957,9.314
15.349000,-3.0890,-8.8997,1.6819,9.569
15.355000,-3.2003,-9.1208,1.7122,9.816
15.359000,-3.3492,-9.3298,1.8412,10.082
15.365000,-3.5713,-9.5626,2.0439,10.410
15.369000,-3.8328,-9.8120,2.2976,10.782
15.373000,-4.1164,-10.1144,2.5653,11.217
15.431000,-4.4703,-10.4675,2.8417,11.731
15.434000,-4.8964,-10.8667,3.1103,12.318
15.435000,-5.4140,-11.3108,3.3686,12.984
15.437000,-5.9873,-11.7431,3.6018,13.665
15.438000,-6.5833,-12.1599,3.7780,14.334
15.441000,-7.2020,-12.5316,3.9188,14.976
15.445000,-7.8497,-12.8673,4.0408,15.605
15.447000,-8.5219,-13.1593,4.1265,16.212
15.449000,-9.1814,-13.4254,4.1404,16.783
15.450000,-9.7746,-13.6524,4.0609,17.275
15.451000,-10.2715,-13.8326,3.9003,17.665
15.452000,-10.6661,-13.9657,3.6932,17.957
15.452000,-10.9914,-14.0149,3.4675,18.145
15.454000,-11.2480,-13.9975,3.2509,18.249
15.455000,-11.4203,-13.8802,3.0657,18.234
15.455000,-11.5019,-13.6804,2.9129,18.109
15.459000,-11.4840,-13.4559,2.7797,17.907
15.464000,-11.3478,-13.1878,2.6634,17.601
15.470000,-11.0098,-12.9035,2.5441,17.152
15.475000,-10.3695,-12.6134,2.3939,16.503
15.480000,-9.3665,-12.3524,2.1873,15.656
15.485000,-8.0408,-12.2487,1.9711,14.784
15.490000,-6.4993,-12.3490,1.7465,14.064
15.500000,-4.9567,-12.6288,1.5230,13.652
15.502000,-3.6133,-12.9904,1.2886,13.545
15.504000,-2.5548,-13.2978,1.0311,13.580
15.509000,-1.8141,-13.4123,0.7483,13.555
15.558000,-1.3594,-13.2672,0.4573,13.344
15.560000,-1.1375,-12.8527,0.1850,12.904
15.560000,-1.0655,-12.2037,-0.0358,12.250
15.561000,-1.0614,-11.4660,-0.1436,11.516
15.562000,-1.0000,-10.7735,-0.1130,10.820
15.562000,-0.8019,-10.1691,0.0767,10.201
15.563000,-0.4476,-9.6383,0.4216,9.658
15.563000,0.0414,-9.1377,0.9367,9.186
15.563000,0.6346,-8.6423,1.6322,8.818
15.564000,1.2765,-8.1400,2.4354,8.592
15.564000,1.9312,-7.6525,3.2976,8.554
15.570000,2.5651,-7.2347,4.1125,8.708
15.576000,3.1565,-6.9276,4.7620,8.980
15.579000,3.7100,-6.8018,5.1518,9.304
15.585000,4.2380,-6.8635,5.2222,9.609
15.589000,4.7114,-7.0899,4.9198,9.832
15.598000,5.1138,-7.4091,4.2947,9.974
15.600000,5.4406,-7.7302,3.5025,10.081
15.604000,5.6945,-8.0513,2.6629,10.215
15.608000,5.8329,-8.3424,1.8599,10.348
15.656000,5.8422,-8.5644,1.1362,10.429
15.658000,5.7347,-8.7135,0.4544,10.441
15.659000,5.6116,-8.7794,-0.1935,10.421
15.660000,5.4923,-8.7311,-0.8200,10.347
15.660000,5.4228,-8.5781,-1.3588,10.239
15.661000,5.4057,-8.3318,-1.8136,10.096
15.661000,5.5032,-7.9494,-2.1226,9.899
15.662000,5.7175,-7.4452,-2.2643,9.657
15.662000,6.0007,-6.8780,-2.2435,9.399
15.662000,6.2376,-6.2633,-2.0198,9.067
15.665000,6.3633,-5.6404,-1.6109,8.655
15.670000,6.3995,-5.0280,-1.0757,8.209
15.675000,6.3720,-4.4401,-0.5010,7.783
15.679000,6.3095,-3.8759,0.0280,7.405
15.685000,6.2500,-3.3427,0.5056,7.106
15.690000,6.1503,-2.8481,0.9454,6.843
15.698000,6.0078,-2.3972,1.3681,6.612
15.701000,5.8202,-1.9844,1.8090,6.410
15.704000,5.5989,-1.6209,2.3132,6.271
15.758000,5.3344,-1.2963,2.8754,6.197
15.762000,5.0437,-0.9839,3.4616,6.196
15.763000,4.7243,-0.6834,4.0001,6.228
15.765000,4.3979,-0.3945,4.4503,6.269
15.766000,4.0649,-0.0827,4.8221,6.307
15.767000,3.7534,0.2481,5.1096,6.345
15.770000,3.4974,0.5775,5.2963,6.373
