time,ax,ay,az,aT
0.006000,-0.2563,0.3261,-0.6268,0.752
0.006000,-0.2542,0.3557,-0.4423,0.622
0.007000,-0.2464,0.3500,-0.2922,0.518
0.007000,-0.2084,0.2991,-0.1643,0.400
0.007000,-0.1374,0.2149,-0.0677,0.264
0.014000,-0.0591,0.1166,-0.0262,0.133
0.023000,-0.0137,0.0425,-0.0301,0.054
0.024000,-0.0035,0.0118,-0.0722,0.073
0.027000,-0.0044,-0.0014,-0.1263,0.126
0.033000,-0.0258,0.0127,-0.1972,0.199
0.045000,-0.0791,0.0326,-0.2442,0.259
0.045000,-0.1188,0.0706,-0.2579,0.293
0.068000,-0.1327,0.1025,-0.2572,0.307
0.069000,-0.1498,0.0805,-0.2805,0.328
0.069000,-0.1464,0.0762,-0.2990,0.342
0.069000,-0.1420,0.0343,-0.2961,0.330
0.069000,-0.1127,-0.0307,-0.2501,0.276
0.077000,-0.0422,-0.0832,-0.1897,0.211
0.078000,0.0312,-0.0922,-0.1176,0.153
0.089000,0.0810,-0.0603,-0.0550,0.115
0.090000,0.1143,0.0078,0.0554,0.127
0.091000,0.1119,0.0664,0.1536,0.201
0.105000,0.0516,0.0939,0.2110,0.237
0.106000,-0.0023,0.0664,0.2657,0.274
0.107000,-0.0401,0.0287,0.3062,0.310
0.112000,-0.0637,0.0122,0.3014,0.308
0.122000,-0.0777,0.0217,0.2585,0.271
0.123000,-0.1279,0.0619,0.2063,0.250
0.127000,-0.2457,0.0875,0.1157,0.285
0.139000,-0.3892,0.1082,0.0536,0.407
0.140000,-0.4892,0.1477,0.0221,0.511
0.141000,-0.5289,0.2304,-0.0003,0.577
0.147000,-0.5487,0.3302,-0.0378,0.641
0.153000,-0.5529,0.4381,-0.0736,0.709
0.163000,-0.5081,0.5520,-0.1078,0.758
0.163000,-0.4784,0.6340,-0.1309,0.805
0.187000,-0.4901,0.6485,-0.1262,0.823
0.188000,-0.5455,0.5810,-0.0961,0.803
0.188000,-0.5849,0.5127,-0.0692,0.781
0.189000,-0.5772,0.4843,-0.0167,0.754
0.190000,-0.5507,0.4664,0.0879,0.727
0.197000,-0.5292,0.4444,0.1563,0.708
0.197000,-0.5205,0.3938,0.1863,0.679
0.207000,-0.4918,0.3426,0.2306,0.642
0.208000,-0.4628,0.2713,0.2173,0.579
0.223000,-0.4490,0.2035,0.2423,0.549
0.224000,-0.4438,0.1332,0.2601,0.531
0.224000,-0.4284,0.1224,0.3306,0.555
0.227000,-0.3593,0.1253,0.3607,0.524
0.241000,-0.2766,0.1469,0.3075,0.439
0.242000,-0.2229,0.1612,0.2644,0.382
0.242000,-0.1563,0.1517,0.1766,0.280
0.259000,-0.1409,0.0880,0.0224,0.168
0.259000,-0.1651,-0.0342,-0.1790,0.246
0.259000,-0.1250,-0.1528,-0.3563,0.407
0.263000,-0.0347,-0.1604,-0.4596,0.488
0.305000,-0.0037,-0.1666,-0.4026,0.436
0.305000,0.0661,-0.1289,-0.2616,0.299
0.306000,0.1669,-0.0958,-0.1054,0.219
0.306000,0.2356,-0.0814,0.0065,0.249
0.306000,0.2840,-0.1024,0.0699,0.310
0.306000,0.3112,-0.1294,0.0659,0.343
0.307000,0.3314,-0.1522,0.0185,0.365
0.307000,0.3503,-0.1392,-0.0554,0.381
0.316000,0.3596,-0.1135,-0.1177,0.395
0.316000,0.3943,-0.0674,-0.1733,0.436
0.318000,0.4957,0.0140,-0.2559,0.558
0.323000,0.5779,0.1265,-0.3680,0.697
0.327000,0.4830,0.0733,-0.3809,0.619
0.333000,0.3610,-0.0040,-0.4885,0.607
0.337000,0.3166,-0.0904,-0.5810,0.668
0.342000,0.3292,-0.2045,-0.6328,0.742
0.358000,0.3501,-0.3355,-0.6037,0.774
0.359000,0.3693,-0.4541,-0.5732,0.819
0.359000,0.3767,-0.5812,-0.5583,0.890
0.364000,0.3866,-0.7139,-0.5281,0.969
0.368000,0.3926,-0.8372,-0.4662,1.036
0.373000,0.3671,-0.9107,-0.4058,1.062
0.378000,0.3111,-0.9228,-0.3180,1.024
0.399000,0.2733,-0.8529,-0.2645,0.934
0.400000,0.2657,-0.7447,-0.2762,0.838
0.400000,0.2735,-0.6248,-0.3075,0.748
0.400000,0.2482,-0.5080,-0.3702,0.676
0.404000,0.2226,-0.3923,-0.3852,0.593
0.407000,0.1913,-0.2855,-0.4244,0.546
0.414000,0.1319,-0.1969,-0.5044,0.557
0.417000,0.0601,-0.1172,-0.5991,0.613
0.423000,0.0008,-0.0629,-0.6752,0.678
0.428000,-0.0685,-0.0150,-0.7016,0.705
0.433000,-0.0721,0.0383,-0.6930,0.698
0.438000,-0.1324,0.0803,-0.6588,0.677
0.442000,-0.1511,0.1323,-0.6134,0.645
0.461000,-0.1591,0.1870,-0.5399,0.593
0.462000,-0.1825,0.2396,-0.4360,0.530
0.462000,-0.2491,0.3424,-0.2870,0.512
0.464000,-0.3312,0.4618,-0.1599,0.590
0.467000,-0.4302,0.5430,-0.0663,0.696
0.472000,-0.5240,0.5838,0.0032,0.785
0.477000,-0.5246,0.6208,-0.0135,0.813
0.483000,-0.5176,0.6743,-0.1550,0.864
0.488000,-0.4792,0.6790,-0.2757,0.876
0.492000,-0.4616,0.5689,-0.2697,0.781
0.517000,-0.4558,0.4271,-0.2417,0.670
0.519000,-0.4081,0.3414,-0.2610,0.593
0.519000,-0.3615,0.3521,-0.2558,0.566
0.519000,-0.3630,0.4151,-0.2594,0.609
0.519000,-0.4147,0.4625,-0.2981,0.689
0.523000,-0.5138,0.5201,-0.3958,0.831
0.528000,-0.6790,0.5019,-0.4954,0.979
0.533000,-0.7318,0.4419,-0.6162,1.054
0.538000,-0.6647,0.2999,-0.7246,1.028
0.543000,-0.5619,0.1077,-0.8590,1.032
0.549000,-0.3824,-0.0665,-1.0694,1.138
0.553000,-0.1069,-0.1165,-1.3034,1.313
0.558000,0.4350,-0.9856,-1.5706,1.905
0.576000,0.7655,-1.6061,-2.0625,2.724
0.577000,0.6575,-1.7371,-2.5922,3.189
0.578000,0.5139,-1.2885,-2.7055,3.040
0.578000,0.4031,-0.4271,-2.4191,2.489
0.584000,0.2693,0.5774,-2.0104,2.109
0.589000,0.2830,1.5109,-1.6752,2.274
0.593000,0.5633,2.1371,-1.4442,2.640
0.620000,0.9400,2.2291,-1.4494,2.820
0.622000,1.3399,1.9625,-1.7800,2.969
0.622000,1.5270,1.5345,-2.1872,3.077
0.623000,1.4775,1.0459,-2.5123,3.097
0.623000,1.3518,0.6147,-2.4918,2.901
0.624000,1.3523,0.3384,-2.4201,2.793
0.628000,1.3521,0.1452,-2.3858,2.746
0.633000,1.8057,0.2426,-2.6612,3.225
0.638000,2.2390,0.1013,-2.6190,3.447
0.643000,2.3366,-0.1147,-2.7804,3.634
0.648000,2.1131,-0.3482,-2.8936,3.600
0.653000,1.6878,-0.5187,-2.9676,3.453
0.658000,1.1524,-0.6315,-2.9970,3.272
0.674000,0.6223,-0.6687,-2.8925,3.033
0.675000,0.2292,-0.6620,-2.7418,2.830
0.675000,0.1625,-0.6188,-3.0870,3.153
0.679000,-0.0081,-0.5588,-3.9270,3.967
0.684000,0.4979,-0.4702,-4.4265,4.479
0.688000,0.7098,-0.3611,-5.0452,5.108
0.693000,1.0605,-0.2440,-5.7039,5.807
0.707000,1.4901,-0.1181,-6.2509,6.427
0.709000,1.9427,-0.0343,-6.5793,6.860
0.709000,2.3010,-0.0463,-6.5738,6.965
0.716000,2.4521,-0.1395,-6.0231,6.505
0.720000,2.2303,-0.4082,-4.3696,4.923
0.723000,1.6349,-0.7925,-2.5373,3.121
0.729000,0.9993,-1.2110,-2.0166,2.556
0.733000,0.3845,-1.6739,-2.0384,2.665
0.738000,-0.0288,-2.0016,-1.8772,2.744
0.743000,-0.0118,-2.0508,-1.5523,2.572
0.749000,0.4402,-1.9770,-1.2304,2.370
0.753000,1.0315,-1.8473,-1.0727,2.372
0.758000,1.4383,-1.7619,-1.1271,2.538
0.764000,1.5694,-1.7320,-1.3359,2.692
0.770000,1.4723,-1.7282,-1.6372,2.799
0.773000,1.1805,-1.6951,-1.9966,2.873
0.778000,0.7083,-1.7140,-2.4647,3.085
0.783000,0.2889,-1.7561,-3.0011,3.489
0.788000,0.0403,-1.7742,-3.5140,3.937
0.793000,-0.1233,-1.8299,-3.9327,4.339
0.807000,-0.3712,-1.9512,-4.2648,4.705
0.809000,-0.6238,-2.0383,-4.4837,4.965
0.811000,-0.6588,-2.0146,-4.4145,4.897
0.814000,-0.5391,-1.9900,-4.1219,4.609
0.818000,-0.3314,-2.0526,-3.7800,4.314
0.823000,-0.0456,-2.1698,-3.3516,3.993
0.828000,0.2689,-2.3427,-2.8253,3.680
0.847000,0.5074,-2.5771,-2.2522,3.460
0.849000,0.6375,-2.8215,-1.6850,3.348
0.849000,0.6858,-3.0147,-1.1302,3.292
0.849000,0.6856,-3.2035,-0.6091,3.332
0.854000,0.5946,-3.3753,-0.2249,3.435
0.859000,0.4029,-3.5304,0.0016,3.553
0.864000,0.1516,-3.6641,0.1099,3.669
0.868000,-0.0870,-3.6933,0.1210,3.696
0.873000,-0.1480,-3.5068,-0.0050,3.510
0.879000,-0.0147,-3.1760,-0.3188,3.192
0.884000,0.1986,-2.8383,-0.8689,2.975
0.889000,0.2396,-2.7102,-1.4023,3.061
0.893000,0.2714,-2.6821,-1.9031,3.300
0.901000,0.4693,-2.5530,-2.3772,3.520
0.903000,0.7438,-2.3019,-2.7025,3.627
0.908000,0.8222,-2.1239,-2.7932,3.604
0.932000,0.8609,-1.8770,-2.5332,3.268
0.934000,0.6275,-2.0597,-2.1561,3.047
0.934000,0.5111,-2.3942,-1.8137,3.047
0.935000,0.5035,-2.7570,-1.5819,3.218
0.935000,0.7585,-3.0727,-1.3156,3.427
0.939000,1.0702,-3.2730,-0.8702,3.552
0.943000,1.2360,-3.3535,-0.3113,3.588
0.949000,1.2155,-3.3629,0.1489,3.579
0.954000,0.9646,-3.3613,0.5002,3.533
0.958000,0.6087,-3.3194,0.7509,3.457
0.965000,0.2976,-3.2499,0.9131,3.389
0.969000,0.1279,-3.1360,0.9999,3.294
0.974000,0.0894,-2.9882,0.9988,3.152
0.978000,0.1387,-2.8522,0.8775,2.987
0.984000,0.1414,-2.7806,0.5412,2.836
0.989000,0.0715,-2.7667,0.0496,2.768
0.994000,-0.0519,-2.7735,-0.4565,2.811
1.001000,-0.2283,-2.8863,-0.9667,3.052
1.005000,-0.3741,-3.0733,-1.3810,3.390
1.009000,-0.4463,-3.3079,-1.5438,3.678
1.036000,-0.4118,-3.5132,-1.3089,3.772
1.038000,-0.1914,-3.5903,-0.6822,3.660
1.039000,0.1234,-3.5764,0.1822,3.583
1.039000,0.4270,-3.5185,1.1331,3.721
1.040000,0.5708,-3.4127,2.0717,4.033
1.040000,0.5190,-3.2243,2.7229,4.252
1.043000,0.8103,-3.1763,3.3560,4.691
1.049000,1.1909,-3.2024,3.8477,5.146
1.054000,1.3433,-3.2858,3.9875,5.339
1.061000,1.1912,-3.3007,3.7071,5.105
1.064000,0.8522,-3.1974,3.0727,4.516
1.070000,0.5489,-2.9906,2.1964,3.751
1.074000,0.3198,-2.7712,1.1681,3.024
1.079000,0.2817,-2.5906,0.1535,2.610
1.084000,0.3605,-2.4728,-0.7212,2.601
1.089000,0.4890,-2.4539,-1.4773,2.906
1.094000,0.7197,-2.5096,-2.0331,3.309
1.101000,0.9521,-2.5391,-2.3412,3.583
1.104000,1.0714,-2.5255,-2.2095,3.523
1.108000,1.1134,-2.6962,-2.1617,3.631
1.123000,1.2047,-2.9382,-1.9927,3.749
1.124000,1.4072,-3.0930,-1.4899,3.710
1.125000,1.6440,-3.1251,-0.7080,3.601
1.130000,1.8097,-3.1138,0.1912,3.607
1.134000,1.8779,-3.1143,1.1038,3.801
1.140000,1.8654,-3.1626,2.0196,4.191
1.145000,1.8391,-3.2393,2.9417,4.746
1.150000,1.9069,-3.2335,3.8273,5.361
1.154000,2.0973,-3.1086,4.5770,5.917
1.159000,2.3626,-2.8573,5.1473,6.344
1.163000,2.6765,-2.4921,5.5588,6.654
1.169000,2.9816,-2.0831,5.7737,6.824
1.174000,3.2544,-1.7730,5.7687,6.857
1.178000,3.5071,-1.6438,5.4591,6.693
1.184000,3.6920,-1.6248,4.8504,6.309
1.189000,3.7854,-1.5772,4.0187,5.742
1.194000,3.7585,-1.4486,3.1539,5.116
1.200000,3.5471,-1.2767,2.4007,4.469
1.204000,3.1750,-1.1313,1.8315,3.836
1.209000,2.7121,-1.0515,1.4574,3.253
1.227000,2.3071,-1.0098,1.2682,2.820
1.229000,2.1060,-0.9484,1.2750,2.638
1.229000,2.1062,-0.8556,1.4883,2.717
1.236000,2.2716,-0.7648,1.8558,3.031
1.237000,2.1617,-1.0414,2.3486,3.358
1.239000,2.3585,-0.9848,3.1157,4.030
1.245000,2.7656,-0.7597,3.5886,4.594
1.249000,3.5857,-0.1119,3.9731,5.353
1.254000,4.5615,0.6760,4.2081,6.243
1.259000,5.3468,1.2394,4.3087,6.978
1.263000,5.8507,1.5093,4.2262,7.374
1.269000,6.0660,1.5314,3.9849,7.418
1.274000,5.9357,1.4285,3.6454,7.111
1.279000,5.5542,1.3533,3.2445,6.573
1.283000,5.0508,1.4064,2.8109,5.949
1.289000,4.5673,1.5577,2.3454,5.365
1.294000,4.2163,1.7385,1.8797,4.933
1.300000,4.0502,1.8959,1.4529,4.702
1.304000,3.9060,2.0181,1.0869,4.529
1.309000,3.7314,2.0433,0.7612,4.322
1.314000,3.5378,2.0115,0.5032,4.101
1.319000,3.3137,1.9617,0.3352,3.865
1.324000,3.0115,1.8872,0.2264,3.561
1.329000,2.6032,1.8269,0.1747,3.185
1.341000,2.6540,1.7941,0.1134,3.206
1.342000,1.9008,1.7814,0.0493,2.606
1.344000,1.8015,1.8112,0.0275,2.555
1.350000,1.9010,1.8496,0.2171,2.661
1.354000,2.3015,1.8343,0.6750,3.019
1.359000,3.0314,1.8844,1.4030,3.835
1.364000,3.8898,2.0883,2.2259,4.944
1.369000,4.7893,2.4685,3.0355,6.184
1.374000,5.5417,2.8988,3.7191,7.276
1.380000,6.0504,3.2800,4.3187,8.125
1.384000,6.3006,3.6092,4.7619,8.683
1.390000,6.3262,3.8461,4.9606,8.912
1.394000,6.0698,3.9430,4.8655,8.721
1.400000,5.4877,3.8609,4.4955,8.077
1.405000,4.6869,3.6853,3.8904,7.119
1.409000,3.8170,3.5036,3.0955,6.035
1.415000,3.8527,3.3030,2.1632,5.517
1.420000,2.3449,3.1199,1.1351,4.065
1.424000,2.0202,3.0033,0.0929,3.621
1.435000,1.9729,2.9576,-0.7982,3.644
1.436000,2.0950,2.9226,-1.4435,3.875
1.440000,2.2953,2.9654,-1.8143,4.166
1.445000,2.5274,3.0993,-1.9904,4.467
1.463000,2.5760,2.9008,-1.6906,4.232
1.465000,2.6688,2.5739,-1.2850,3.924
1.466000,3.3700,2.7667,-0.8864,4.449
1.466000,4.3905,3.3049,-0.4237,5.512
1.470000,5.4121,3.9230,0.0209,6.684
1.474000,6.0424,4.2503,0.4635,7.402
1.484000,6.1767,4.1509,0.8988,7.496
1.486000,5.9985,3.8300,1.2699,7.229
1.490000,5.7149,3.5066,1.5109,6.873
1.494000,5.4273,3.2748,1.5714,6.531
1.500000,5.2002,3.1535,1.4472,6.252
1.505000,5.0652,3.1003,1.2210,6.063
1.514000,5.0415,3.0935,0.9704,5.994
1.517000,5.1740,3.1521,0.7036,6.099
1.520000,5.4096,3.2446,0.3974,6.321
1.530000,5.6685,3.2937,0.1124,6.557
1.532000,5.8715,3.2372,-0.1707,6.707
1.540000,6.0047,3.0946,-0.4013,6.767
1.541000,6.0923,2.8616,-0.4931,6.749
1.546000,6.1470,2.5579,-0.4110,6.671
1.553000,6.2480,2.2533,-0.2133,6.645
1.555000,6.3951,2.0241,0.0581,6.708
1.560000,6.5475,1.8966,0.4143,6.829
1.585000,6.7000,1.8725,0.8353,7.007
1.587000,6.7999,1.9517,1.2697,7.187
1.587000,6.8968,2.1026,1.6596,7.399
1.588000,6.9931,2.2769,2.0143,7.625
1.589000,7.1170,2.4313,2.3359,7.875
1.589000,7.2681,2.5679,2.5836,8.130
1.595000,7.3721,2.6838,2.7070,8.299
1.600000,7.3041,2.7836,2.6467,8.252
1.605000,7.0670,2.8529,2.4368,8.001
1.610000,6.7120,2.8971,2.1077,7.608
1.615000,6.3115,2.8569,1.7202,7.138
1.621000,5.9021,2.7449,1.2919,6.636
1.626000,5.5610,2.6215,0.8552,6.207
1.630000,5.3383,2.5179,0.4564,5.920
1.635000,5.2559,2.4608,0.1228,5.805
1.641000,5.2917,2.4402,-0.1474,5.829
1.646000,5.4214,2.3768,-0.3493,5.930
1.650000,5.6255,2.2514,-0.4826,6.078
1.657000,5.8581,2.0563,-0.5499,6.233
1.661000,6.0239,1.8160,-0.5565,6.316
1.669000,6.0846,1.5252,-0.5294,6.295
1.670000,6.0093,1.2607,-0.4476,6.156
1.675000,5.8490,1.0899,-0.2176,5.954
1.702000,5.8048,0.9243,0.0612,5.878
1.703000,5.7803,0.7892,0.3449,5.844
1.703000,5.7785,0.6614,0.5922,5.846
1.704000,5.7630,0.5641,0.7692,5.841
1.704000,5.6907,0.4633,0.8806,5.777
1.705000,5.5688,0.3303,0.9696,5.662
1.712000,5.3803,0.1478,1.0310,5.480
1.716000,5.1574,-0.0974,1.0791,5.270
1.720000,4.8882,-0.3793,1.0613,5.016
1.726000,4.5872,-0.6952,1.0207,4.751
1.731000,4.2597,-1.0232,0.9650,4.486
1.735000,3.9151,-1.3470,0.9112,4.239
1.740000,3.5785,-1.6649,0.8667,4.041
1.745000,3.2641,-1.9701,0.8175,3.899
1.750000,2.9722,-2.2551,0.7541,3.806
1.755000,2.6958,-2.5316,0.6599,3.757
1.760000,2.4588,-2.8376,0.5591,3.796
1.767000,2.2491,-3.1497,0.4641,3.898
1.770000,2.0459,-3.4281,0.3628,4.009
1.779000,1.8323,-3.6781,0.2194,4.115
1.796000,1.6060,-3.8659,0.0751,4.187
1.797000,1.3695,-4.0201,-0.0314,4.247
1.798000,1.1200,-4.1342,-0.0835,4.284
1.799000,0.8872,-4.2185,-0.1435,4.313
1.800000,0.6969,-4.2711,-0.2313,4.334
1.806000,0.5683,-4.3233,-0.3060,4.371
1.813000,0.4484,-4.3466,-0.2768,4.378
1.816000,0.3252,-4.3438,-0.1633,4.359
1.821000,0.1623,-4.3110,-0.0456,4.314
1.826000,-0.0490,-4.2804,-0.0059,4.281
1.832000,-0.3282,-4.2694,-0.0056,4.282
1.836000,-0.6656,-4.2608,0.0128,4.313
1.841000,-1.0394,-4.2523,0.0665,4.378
1.845000,-1.4307,-4.2416,0.1531,4.479
1.850000,-1.8292,-4.2272,0.2585,4.613
1.857000,-2.2017,-4.2020,0.3660,4.758
1.861000,-2.5289,-4.1610,0.4664,4.892
1.865000,-2.7943,-4.0944,0.5307,4.985
1.872000,-2.9885,-4.0433,0.5783,5.061
1.875000,-3.0992,-4.0305,0.6397,5.124
1.892000,-3.1773,-4.0017,0.7219,5.160
1.892000,-3.3016,-3.9379,0.7619,5.195
1.893000,-3.4292,-3.8439,0.7383,5.204
1.895000,-3.5720,-3.7319,0.6800,5.210
1.902000,-3.7063,-3.6356,0.6109,5.228
1.906000,-3.8271,-3.5469,0.5405,5.246
1.913000,-3.9154,-3.4570,0.4594,5.243
1.917000,-3.9786,-3.3658,0.3479,5.223
1.921000,-4.0551,-3.2927,0.2256,5.228
1.927000,-4.1449,-3.2623,0.0973,5.276
1.932000,-4.2335,-3.2471,-0.0271,5.335
1.936000,-4.2949,-3.2548,-0.1571,5.391
1.941000,-4.3146,-3.2687,-0.2854,5.420
1.947000,-4.2952,-3.2747,-0.3754,5.414
1.951000,-4.2824,-3.2971,-0.4316,5.422
1.956000,-4.3193,-3.3626,-0.4941,5.496
1.961000,-4.4128,-3.4749,-0.5478,5.643
1.966000,-4.5462,-3.5766,-0.5680,5.812
1.971000,-4.6550,-3.6103,-0.5257,5.914
1.976000,-4.8181,-3.6451,-0.5094,6.063
1.982000,-4.9614,-3.6882,-0.4305,6.197
1.988000,-5.0894,-3.7170,-0.3277,6.311
1.992000,-5.1998,-3.7051,-0.2112,6.388
2.008000,-5.2784,-3.6788,-0.1078,6.435
2.011000,-5.3490,-3.6452,-0.0114,6.473
2.013000,-5.4069,-3.6164,0.0369,6.505
2.014000,-5.4496,-3.5940,0.0194,6.528
2.016000,-5.4701,-3.5949,-0.0473,6.546
2.021000,-5.4540,-3.5879,-0.0939,6.529
2.026000,-5.4135,-3.5805,-0.1657,6.493
2.031000,-5.3772,-3.5916,-0.2650,6.472
2.036000,-5.3597,-3.6049,-0.3868,6.471
2.040000,-5.3417,-3.6177,-0.4997,6.471
2.046000,-5.3425,-3.6420,-0.6227,6.496
2.051000,-5.3691,-3.6659,-0.7967,6.550
2.057000,-5.3835,-3.6724,-0.9902,6.592
2.062000,-5.3927,-3.6645,-1.1832,6.626
2.066000,-5.3779,-3.6370,-1.3557,6.632
2.071000,-5.3581,-3.6239,-1.5673,6.656
2.076000,-5.3096,-3.6370,-1.7571,6.671
2.088000,-5.2277,-3.7122,-1.9247,6.694
2.090000,-5.1219,-3.8234,-2.0318,6.707
2.090000,-4.9923,-3.9369,-2.0645,6.685
2.097000,-4.6573,-3.9696,-2.1162,6.475
2.101000,-4.5021,-4.0276,-1.9660,6.353
2.106000,-4.6677,-4.1516,-1.6432,6.459
2.111000,-5.1056,-4.3478,-1.2439,6.820
2.116000,-5.5787,-4.5783,-0.8092,7.262
2.121000,-5.8859,-4.7917,-0.5054,7.607
2.126000,-6.0082,-5.0134,-0.4160,7.836
2.131000,-5.9434,-5.2241,-0.4783,7.927
2.136000,-5.7755,-5.4478,-0.6561,7.967
2.141000,-5.6145,-5.6581,-0.8632,8.018
2.148000,-5.4890,-5.8603,-1.0232,8.094
2.151000,-5.4084,-6.0538,-1.1246,8.195
2.157000,-5.3631,-6.2337,-1.1752,8.307
2.163000,-5.3503,-6.4332,-1.1876,8.451
2.171000,-5.3149,-6.6277,-1.1791,8.577
2.173000,-5.2210,-6.8200,-1.1670,8.668
2.176000,-5.0421,-6.9642,-1.1821,8.679
2.181000,-4.7256,-7.0418,-1.2627,8.574
2.186000,-4.2956,-7.0556,-1.4087,8.380
2.191000,-3.7592,-7.0162,-1.6363,8.126
2.200000,-3.1476,-6.9742,-1.9022,7.885
2.202000,-2.5256,-6.9270,-2.1584,7.683
2.206000,-1.9673,-6.8821,-2.3616,7.537
2.211000,-1.5039,-6.8259,-2.4919,7.421
2.228000,-1.1567,-6.7565,-2.5465,7.313
2.229000,-0.9182,-6.6949,-2.5322,7.216
2.230000,-0.7621,-6.6494,-2.4467,7.126
2.232000,-0.6904,-6.5927,-2.2947,7.015
2.236000,-0.6839,-6.5176,-2.0931,6.880
2.241000,-0.6776,-6.4406,-1.8324,6.730
2.247000,-0.6473,-6.3820,-1.5129,6.591
2.252000,-0.5908,-6.3123,-1.1399,6.442
2.256000,-0.5317,-6.1947,-0.7066,6.257
2.261000,-0.4318,-6.0222,-0.2234,6.042
2.266000,-0.2695,-5.8502,0.3927,5.870
2.271000,0.0172,-5.6883,1.8336,5.977
2.276000,0.3011,-5.4334,2.9170,6.174
2.282000,0.4409,-5.2141,2.7106,5.893
2.286000,0.7648,-4.9363,2.2419,5.475
2.290000,1.2674,-4.6349,2.0552,5.226
2.300000,1.6991,-4.3731,1.9406,5.077
2.302000,1.9907,-4.1439,1.6908,4.898
2.328000,2.2682,-3.9251,1.3456,4.729
2.329000,2.6299,-3.6421,1.0253,4.608
2.330000,3.0105,-3.3056,0.7322,4.531
2.330000,3.2539,-2.9523,0.4331,4.415
2.331000,3.3437,-2.6320,0.1169,4.257
2.332000,3.3296,-2.3435,-0.1771,4.076
2.336000,3.2502,-2.0811,-0.4172,3.882
2.341000,3.1368,-1.8636,-0.6249,3.702
2.347000,2.9654,-1.7385,-0.7855,3.526
2.351000,2.7819,-1.6739,-0.8938,3.367
2.356000,2.5797,-1.6186,-0.9473,3.189
2.361000,2.4061,-1.5853,-0.9557,3.036
2.366000,2.2664,-1.5706,-0.8857,2.896
2.372000,2.1772,-1.5598,-0.7590,2.784
2.377000,2.1316,-1.5386,-0.5568,2.687
2.383000,2.1297,-1.5374,-0.2822,2.642
2.387000,2.1109,-1.5763,0.0302,2.635
2.392000,2.0637,-1.6234,0.2910,2.642
2.402000,1.9954,-1.6786,0.4809,2.651
2.403000,1.9492,-1.6888,0.6239,2.653
2.412000,1.9396,-1.6470,0.7513,2.653
2.413000,1.9740,-1.5790,0.8534,2.668
2.443000,2.0610,-1.4694,0.9039,2.688
2.445000,2.1457,-1.3369,0.8981,2.683
2.446000,2.2470,-1.1485,0.8439,2.661
2.446000,2.3337,-0.9260,0.7731,2.627
2.448000,2.3915,-0.6932,0.7386,2.597
2.449000,2.4220,-0.4891,0.7550,2.584
2.449000,2.4281,-0.3110,0.8176,2.581
2.452000,2.4264,-0.1230,0.8834,2.585
2.457000,2.4168,0.1060,0.9451,2.597
2.462000,2.4188,0.3356,1.0126,2.644
2.467000,2.4197,0.5556,1.0739,2.705
2.475000,2.4199,0.7640,1.1574,2.789
2.476000,2.4144,0.9943,1.2682,2.903
2.482000,2.4032,1.2131,1.3792,3.025
2.487000,2.3888,1.4252,1.4950,3.158
2.492000,2.3953,1.6453,1.6034,3.319
2.498000,2.3789,1.8943,1.6778,3.473
2.502000,2.3301,2.1461,1.7273,3.608
2.507000,2.2418,2.4006,1.7568,3.725
2.512000,2.1068,2.6412,1.7686,3.813
2.517000,1.9495,2.8683,1.7818,3.899
2.522000,1.7861,3.1054,1.8013,4.010
2.527000,1.6122,3.3193,1.8436,4.125
2.535000,1.4396,3.5269,1.8630,4.241
2.537000,1.2470,3.6899,1.8571,4.315
2.542000,1.0826,3.8400,1.8379,4.393
2.568000,0.9410,3.9647,1.8339,4.469
2.571000,0.8129,4.1051,1.8210,4.564
2.572000,0.6744,4.2612,1.8088,4.678
2.572000,0.5759,4.4114,1.7494,4.780
2.573000,0.5291,4.5391,1.6502,4.859
2.575000,0.4938,4.6517,1.5376,4.924
2.577000,0.4573,4.7584,1.4023,4.982
2.582000,0.3818,4.8594,1.2325,5.028
2.587000,0.2699,4.9405,1.0286,5.054
2.592000,0.1503,5.0328,0.7957,5.098
2.597000,0.0592,5.0983,0.5557,5.129
2.602000,-0.0156,5.1344,0.3281,5.145
2.607000,-0.0618,5.1605,0.0989,5.162
2.612000,-0.0913,5.1934,-0.1317,5.196
2.617000,-0.0754,5.2522,-0.3514,5.264
2.622000,-0.0097,5.3391,-0.5478,5.367
2.627000,0.0892,5.4254,-0.7136,5.473
2.634000,0.1846,5.4963,-0.8461,5.564
2.637000,0.2648,5.5136,-0.9407,5.599
2.642000,0.2985,5.4749,-0.9804,5.570
2.658000,0.3220,5.4068,-0.9703,5.503
2.659000,0.3618,5.3286,-0.8984,5.416
2.660000,0.4440,5.2235,-0.7603,5.297
2.668000,0.5544,5.1157,-0.5591,5.176
2.669000,0.6521,4.9860,-0.3481,5.040
2.672000,0.7563,4.8703,-0.1898,4.932
2.677000,0.8815,4.7376,-0.1083,4.820
2.682000,1.0659,4.5760,-0.0915,4.699
2.687000,1.3188,4.3902,-0.1174,4.585
2.692000,1.6041,4.1776,-0.1691,4.478
2.698000,1.9001,3.9765,-0.2514,4.414
2.702000,2.1779,3.7724,-0.3494,4.370
2.707000,2.4135,3.5317,-0.4726,4.304
2.712000,2.6288,3.2760,-0.5944,4.242
2.718000,2.8383,2.9961,-0.7166,4.189
2.722000,3.0636,2.7349,-0.7961,4.183
2.727000,3.2546,2.5093,-0.8089,4.188
2.734000,3.3541,2.3146,-0.7195,4.138
2.737000,3.6372,2.1937,-0.6984,4.305
2.742000,3.9194,2.0795,-0.7117,4.494
2.763000,3.9251,1.9956,-0.6974,4.458
2.765000,4.5082,1.9273,-0.6556,4.947
2.765000,4.6420,1.8365,-0.5889,5.027
2.766000,4.6669,1.7353,-0.4789,5.002
2.767000,4.6647,1.6240,-0.3476,4.952
2.772000,4.6595,1.5459,-0.2239,4.914
2.778000,4.7017,1.4915,-0.1489,4.935
2.783000,4.7433,1.4751,-0.1272,4.969
2.788000,4.8153,1.4726,-0.1349,5.037
2.792000,4.9082,1.4602,-0.1549,5.123
2.800000,5.0097,1.4257,-0.1727,5.211
2.803000,5.1174,1.3977,-0.2094,5.309
2.808000,5.2361,1.3881,-0.2338,5.422
2.814000,5.3752,1.3801,-0.2621,5.556
2.818000,5.5010,1.3782,-0.2966,5.679
2.823000,5.6494,1.3752,-0.3202,5.823
2.827000,5.8249,1.3565,-0.3492,5.991
2.833000,6.0109,1.3245,-0.3355,6.164
2.837000,6.1665,1.2552,-0.2861,6.299
2.842000,6.2730,1.1582,-0.1845,6.382
2.852000,6.3519,1.0218,-0.0571,6.434
2.853000,6.4060,0.8701,0.1029,6.466
2.857000,6.5002,0.7058,0.2856,6.545
2.898000,6.6200,0.5336,0.4931,6.660
2.900000,6.7537,0.3993,0.7005,6.802
2.900000,6.8889,0.2645,0.9145,6.954
2.901000,7.0040,0.1507,1.1346,7.097
2.901000,7.0988,0.0674,1.3459,7.226
2.902000,7.1445,0.0384,1.5359,7.308
2.902000,7.1524,0.0683,1.7161,7.356
2.903000,7.1106,0.1473,1.9048,7.363
2.905000,7.0474,0.2658,2.0728,7.351
2.908000,6.9554,0.4211,2.2055,7.309
2.914000,6.8726,0.6108,2.3074,7.275
2.918000,6.7723,0.8367,2.3811,7.227
2.923000,6.6353,1.0630,2.4308,7.146
2.928000,6.4327,1.2582,2.4544,6.999
2.933000,6.2102,1.4058,2.4541,6.824
2.938000,5.9846,1.4866,2.4471,6.634
2.943000,5.7683,1.5224,2.4213,6.438
2.952000,5.5707,1.4916,2.3530,6.228
2.956000,5.4527,1.4116,2.2260,6.056
2.957000,5.4071,1.2727,2.0434,5.919
2.983000,5.4195,1.0822,1.8058,5.814
2.984000,5.4568,0.8496,1.5163,5.727
2.985000,5.4878,0.6034,1.1996,5.650
2.985000,5.4873,0.3682,0.8619,5.567
2.985000,5.4745,0.1581,0.5159,5.501
2.988000,5.4829,-0.0152,0.2102,5.487
2.992000,5.5222,-0.1375,-0.0353,5.524
2.998000,5.5822,-0.2549,-0.2086,5.592
3.003000,5.6656,-0.3552,-0.3068,5.685
3.008000,5.7575,-0.4535,-0.3447,5.786
3.015000,5.8574,-0.5598,-0.3415,5.894
3.018000,5.9482,-0.6722,-0.3164,5.994
3.023000,6.0273,-0.8126,-0.2748,6.088
3.028000,6.0892,-1.0177,-0.2291,6.178
3.033000,6.0939,-1.2702,-0.1582,6.227
3.038000,6.0387,-1.5753,-0.0383,6.241
3.043000,5.9310,-1.9044,0.1346,6.231
3.051000,5.7542,-2.2455,0.3550,6.187
3.053000,5.5177,-2.5631,0.6223,6.116
3.058000,5.2301,-2.8774,0.8998,6.037
3.085000,4.8959,-3.1696,1.1702,5.949
3.086000,4.5014,-3.4609,1.4235,5.854
3.087000,4.0613,-3.7484,1.6548,5.769
3.087000,3.5806,-4.0229,1.8783,5.704
3.088000,3.0679,-4.2655,2.0555,5.642
3.089000,2.5447,-4.4862,2.1938,5.605
3.093000,2.0259,-4.6627,2.2646,5.565
3.099000,1.5429,-4.7637,2.2875,5.505
3.103000,1.0911,-4.8223,2.2675,5.439
3.109000,0.6630,-4.8464,2.1907,5.360
3.114000,0.2334,-4.8342,2.0649,5.262
3.118000,-0.1862,-4.8247,1.8903,5.185
3.123000,-0.6004,-4.8151,1.6792,5.135
3.128000,-1.0139,-4.8052,1.4462,5.119
3.134000,-1.3719,-4.7835,1.2155,5.123
3.138000,-1.6641,-4.7291,1.0094,5.114
3.143000,-1.8839,-4.6332,0.8303,5.070
3.153000,-2.0506,-4.5199,0.6688,5.008
3.155000,-2.1811,-4.4038,0.5227,4.942
3.159000,-2.3119,-4.2978,0.4015,4.897
3.184000,-2.4589,-4.2170,0.3105,4.891
3.185000,-2.6156,-4.1290,0.2448,4.894
3.186000,-2.7626,-4.0599,0.2141,4.915
3.186000,-2.9049,-3.9977,0.2089,4.946
3.186000,-3.0450,-3.9402,0.2122,4.984
3.189000,-3.1951,-3.8881,0.2166,5.037
3.193000,-3.3524,-3.8328,0.2250,5.097
3.198000,-3.5171,-3.8037,0.2396,5.186
3.203000,-3.7036,-3.8032,0.2603,5.315
3.210000,-3.9192,-3.8432,0.2845,5.496
3.214000,-4.1686,-3.8954,0.3095,5.714
3.220000,-4.4396,-3.9626,0.3184,5.959
3.223000,-4.7179,-4.0167,0.3325,6.205
3.228000,-4.9630,-4.0788,0.3443,6.433
3.233000,-5.1892,-4.1631,0.3418,6.662
3.239000,-5.3944,-4.2508,0.3462,6.877
3.243000,-5.6118,-4.3284,0.3357,7.095
3.249000,-5.8489,-4.3821,0.3198,7.315
3.253000,-6.0770,-4.4500,0.2768,7.537
3.259000,-6.2316,-4.5031,0.2213,7.692
3.271000,-6.3057,-4.5606,0.1560,7.784
3.273000,-6.3449,-4.5897,0.0884,7.831
3.274000,-6.3540,-4.5990,0.0235,7.844
3.278000,-6.3930,-4.5917,-0.0507,7.871
3.313000,-6.4452,-4.6134,-0.1341,7.927
3.314000,-6.5225,-4.6377,-0.2214,8.006
3.316000,-6.6011,-4.7054,-0.2835,8.111
3.316000,-6.6547,-4.7867,-0.3153,8.203
3.316000,-6.7048,-4.8724,-0.3336,8.295
3.317000,-6.7492,-4.9958,-0.3453,8.404
3.318000,-6.8071,-5.1374,-0.3458,8.535
3.319000,-6.8953,-5.2807,-0.3329,8.691
3.323000,-7.0066,-5.4195,-0.3017,8.863
3.329000,-7.1507,-5.5421,-0.2433,9.050
3.334000,-7.2918,-5.6670,-0.1721,9.237
3.338000,-7.4300,-5.8153,-0.1127,9.436
3.343000,-7.5559,-5.9793,-0.0963,9.636
3.351000,-7.6505,-6.1348,-0.1352,9.807
3.355000,-7.7187,-6.2547,-0.1981,9.937
3.359000,-7.7463,-6.3607,-0.2664,10.027
3.369000,-7.7430,-6.4311,-0.3264,10.071
3.371000,-7.6922,-6.4516,-0.4000,10.047
3.374000,-7.6035,-6.4369,-0.4754,9.974
3.407000,-7.4986,-6.4301,-0.5575,9.894
3.409000,-7.3200,-6.4029,-0.6223,9.745
3.410000,-7.1682,-6.4439,-0.7151,9.665
3.411000,-7.0074,-6.4886,-0.7276,9.578
3.411000,-6.8182,-6.5250,-0.7005,9.463
3.412000,-6.6032,-6.5128,-0.6285,9.296
3.413000,-6.3670,-6.4785,-0.5239,9.099
3.416000,-6.1215,-6.4224,-0.4296,8.883
3.420000,-5.8524,-6.4502,-0.3645,8.717
3.424000,-5.5788,-6.4970,-0.2975,8.569
3.428000,-5.3292,-6.4936,-0.2571,8.404
3.434000,-5.1299,-6.4649,-0.2481,8.257
3.439000,-5.0548,-6.4942,-0.2510,8.233
3.444000,-4.9315,-6.5048,-0.2822,8.168
3.450000,-4.7504,-6.4989,-0.3265,8.057
3.454000,-4.5402,-6.5339,-0.3908,7.966
3.459000,-4.2865,-6.5819,-0.4940,7.870
3.465000,-3.9630,-6.6334,-0.6744,7.756
3.469000,-3.5911,-6.6745,-0.9154,7.634
3.474000,-3.2403,-6.7057,-1.1787,7.540
3.482000,-2.9153,-6.7658,-1.4526,7.509
3.484000,-2.6399,-6.8759,-1.6988,7.559
3.489000,-2.4212,-7.0249,-1.8982,7.669
3.494000,-2.2878,-7.2218,-2.0584,7.850
3.502000,-2.2250,-7.4300,-2.2009,8.062
3.504000,-2.1800,-7.6634,-2.3331,8.302
3.509000,-2.1190,-7.8850,-2.4671,8.529
3.535000,-2.0564,-8.1195,-2.5953,8.769
3.537000,-2.0015,-8.3587,-2.6866,9.005
3.537000,-1.9922,-8.5592,-2.7479,9.208
3.538000,-2.0161,-8.7300,-2.7696,9.378
3.539000,-1.9844,-8.8819,-2.7419,9.505
3.539000,-1.8634,-9.0090,-2.6500,9.574
3.544000,-1.6410,-9.1058,-2.4866,9.581
3.549000,-1.3600,-9.1608,-2.2419,9.529
3.554000,-0.9891,-9.1575,-1.9326,9.411
3.558000,-0.5187,-9.0824,-1.5779,9.233
3.564000,-0.0419,-8.9616,-1.1825,9.039
3.569000,0.4456,-8.7692,-0.7946,8.816
3.574000,0.9107,-8.5242,-0.4308,8.584
3.579000,1.3652,-8.2395,-0.0958,8.352
3.584000,1.8139,-7.9898,0.2149,8.196
3.589000,2.2571,-7.7412,0.4918,8.079
3.594000,2.6987,-7.5131,0.7460,8.018
3.600000,3.1341,-7.2689,0.9584,7.974
3.604000,3.5632,-6.9948,1.1407,7.933
3.609000,3.9834,-6.6939,1.2951,7.896
3.633000,4.3591,-6.3703,1.4261,7.850
3.635000,4.7273,-6.0263,1.5403,7.813
3.635000,5.0858,-5.6519,1.6448,7.779
3.636000,5.4368,-5.2259,1.7369,7.739
3.636000,5.7703,-4.7608,1.7994,7.694
3.639000,6.0521,-4.2596,1.8394,7.626
3.643000,6.2851,-3.7456,1.8618,7.550
3.649000,6.4963,-3.2495,1.8611,7.498
3.655000,6.7408,-2.7683,1.8136,7.509
3.659000,7.0635,-2.2738,1.7048,7.614
3.664000,7.4921,-1.7666,1.5421,7.850
3.669000,7.9856,-1.2441,1.3237,8.190
3.674000,8.4339,-0.7232,1.0996,8.536
3.680000,8.7266,-0.2444,0.8916,8.775
3.684000,8.8156,0.1754,0.6999,8.845
3.689000,8.7319,0.4936,0.5511,8.763
3.695000,8.4591,0.6869,0.4717,8.500
3.699000,8.0654,0.7735,0.4500,8.115
3.705000,7.5696,0.7965,0.4974,7.628
3.709000,6.9802,0.7767,0.6138,7.050
3.719000,6.3816,0.7556,0.7557,6.470
3.721000,5.8009,0.7532,0.9109,5.920
3.724000,5.3131,0.7587,1.0627,5.471
3.755000,4.8868,0.7766,1.2035,5.092
3.756000,4.5033,0.8100,1.3742,4.777
3.757000,4.1653,0.8591,1.5529,4.528
3.757000,3.8465,0.9362,1.7587,4.332
3.758000,3.5452,1.0464,1.9818,4.194
3.758000,3.2632,1.1896,2.1906,4.106
3.760000,3.0274,1.3733,2.4068,4.104
3.766000,2.8569,1.6191,2.6109,4.195
3.770000,2.7516,1.9197,2.7886,4.363
3.775000,2.6873,2.2342,2.9183,4.553
3.781000,2.6472,2.5746,3.0020,4.759
3.784000,2.6329,2.9259,3.0282,4.966
3.791000,2.6443,3.2785,3.0185,5.182
3.794000,2.6716,3.6585,2.9896,5.428
3.800000,2.7072,4.0178,2.9297,5.662
3.805000,2.7487,4.3539,2.8269,5.874
3.810000,2.7642,4.6664,2.6935,6.056
3.817000,2.7705,4.9554,2.5127,6.209
3.821000,2.7819,5.2160,2.3019,6.344
3.825000,2.7791,5.4313,2.0563,6.438
3.829000,2.7812,5.6039,1.7811,6.505
3.847000,2.7524,5.7314,1.4672,6.525
3.851000,2.7021,5.8304,1.1584,6.530
3.852000,2.6352,5.9273,0.8571,6.543
3.853000,2.5326,5.9959,0.5902,6.536
3.855000,2.4063,6.0696,0.3340,6.538
3.860000,2.2497,6.1105,0.1008,6.512
3.866000,2.0960,6.1233,-0.0685,6.472
3.872000,1.9552,6.1154,-0.1833,6.423
3.876000,1.8156,6.0919,-0.2556,6.362
3.881000,1.6798,6.0505,-0.2953,6.286
3.887000,1.5575,5.9964,-0.3000,6.203
3.891000,1.4585,5.9390,-0.2913,6.122
3.894000,1.4163,5.8763,-0.2718,6.051
3.899000,1.4142,5.8083,-0.2609,5.984
3.905000,1.4427,5.7446,-0.2680,5.929
3.913000,1.5206,5.6635,-0.3052,5.872
3.921000,1.6098,5.5581,-0.3318,5.796
3.925000,1.6955,5.4281,-0.3524,5.698
3.925000,1.7757,5.2785,-0.3457,5.580
3.930000,1.8169,5.1309,-0.2903,5.451
3.937000,1.8432,5.0166,-0.2153,5.349
3.939000,1.8620,4.8997,-0.1351,5.243
3.945000,1.8997,4.7828,-0.0641,5.147
3.950000,2.0019,4.6636,-0.0096,5.075
3.955000,2.1972,4.5540,-0.0050,5.056
3.960000,2.4900,4.4514,-0.0525,5.101
3.966000,2.8488,4.3698,-0.1422,5.218
3.969000,3.2082,4.3018,-0.2762,5.373
3.976000,3.5391,4.2158,-0.4157,5.520
3.983000,3.8198,4.1093,-0.5533,5.638
3.984000,4.0480,3.9654,-0.6384,5.702
3.989000,4.2357,3.7771,-0.6684,5.714
3.995000,4.3902,3.5564,-0.6458,5.687
3.999000,4.5092,3.3680,-0.5711,5.657
4.004000,4.6047,3.1999,-0.4541,5.626
4.010000,4.6577,3.0449,-0.3169,5.574
4.017000,4.6850,2.9199,-0.1597,5.523
4.024000,4.6652,2.8106,0.0074,5.446
4.025000,4.6224,2.6932,0.1817,5.353
4.034000,4.5880,2.5630,0.3772,5.269
4.035000,4.5667,2.4441,0.5790,5.212
4.039000,4.5754,2.3128,0.7722,5.185
4.044000,4.6283,2.2073,0.9231,5.210
4.061000,4.6943,2.1468,1.0121,5.260
4.062000,4.7589,2.1192,1.0250,5.309
4.062000,4.8245,2.1172,0.9670,5.357
4.070000,4.8981,2.1358,0.8338,5.408
4.071000,4.9746,2.1723,0.6499,5.467
4.075000,5.0442,2.1977,0.4709,5.522
4.081000,5.0665,2.1834,0.3139,5.526
4.085000,5.0436,2.1769,0.2007,5.497
4.090000,5.0046,2.1902,0.1244,5.464
4.095000,4.9590,2.2089,0.1619,5.431
4.100000,4.8875,2.2210,0.3054,5.377
4.105000,4.7739,2.2124,0.5349,5.289
4.110000,4.6350,2.1594,0.8187,5.178
4.115000,4.4519,2.0839,1.1012,5.037
4.120000,4.2036,2.0078,1.3816,4.859
4.126000,3.9407,1.9386,1.6213,4.681
4.134000,3.7113,1.8956,1.8178,4.547
4.143000,3.5661,1.8172,1.9827,4.467
4.143000,3.4908,1.6939,2.1303,4.426
4.155000,3.4470,1.5808,2.2510,4.410
4.156000,3.4275,1.4805,2.3470,4.410
4.157000,3.4585,1.3902,2.3780,4.421
4.160000,3.6385,1.2674,2.3519,4.514
4.165000,4.0195,1.1331,2.2763,4.756
4.172000,4.5508,0.9774,2.2113,5.153
4.175000,5.0925,0.7806,2.0922,5.561
4.181000,5.5869,0.5541,1.8834,5.922
4.192000,6.0365,0.3244,1.6171,6.258
4.193000,6.4125,0.1146,1.3730,6.559
4.195000,6.7508,-0.1087,1.1828,6.854
4.200000,7.0416,-0.3362,1.0371,7.125
4.206000,7.3114,-0.5251,0.9364,7.390
4.211000,7.5358,-0.6544,0.8734,7.614
4.217000,7.6843,-0.7382,0.8866,7.770
4.220000,7.7516,-0.7866,0.9376,7.848
4.226000,7.7785,-0.8071,1.0070,7.885
4.236000,7.7768,-0.7759,1.1114,7.894
4.236000,7.7291,-0.7275,1.1881,7.854
4.240000,7.6215,-0.7164,1.2224,7.752
4.245000,7.5089,-0.7503,1.2260,7.645
4.252000,7.3767,-0.8651,1.2541,7.532
4.274000,7.2422,-1.0586,1.3139,7.436
4.275000,7.1000,-1.2736,1.3882,7.346
4.276000,6.9607,-1.5188,1.4740,7.275
4.276000,6.7906,-1.7709,1.5494,7.187
4.284000,6.5683,-2.0440,1.5948,7.061
4.286000,6.3061,-2.3382,1.6102,6.916
4.287000,6.0403,-2.6604,1.5956,6.790
4.291000,5.7539,-3.0229,1.5793,6.689
4.297000,5.4485,-3.4027,1.5542,6.609
4.301000,5.1357,-3.7881,1.5081,6.557
4.305000,4.8185,-4.1621,1.4649,6.533
4.310000,4.4946,-4.4980,1.4149,6.514
4.316000,4.1520,-4.7582,1.3723,6.462
4.320000,3.7848,-4.9555,1.3062,6.371
4.327000,3.3927,-5.0973,1.2215,6.244
4.331000,2.9856,-5.1861,1.1421,6.092
4.336000,2.5925,-5.2361,1.0635,5.939
4.342000,2.2153,-5.2433,0.9764,5.775
4.347000,1.8336,-5.2225,0.8813,5.605
4.350000,1.4614,-5.1914,0.7882,5.450
4.355000,1.0893,-5.1475,0.7260,5.311
4.360000,0.7078,-5.0836,0.7071,5.181
4.369000,0.2932,-5.0377,0.7100,5.096
4.375000,-0.1238,-5.0293,0.7274,5.083
4.376000,-0.5134,-5.0206,0.7429,5.101
4.413000,-0.8546,-5.0098,0.7516,5.137
4.414000,-1.1688,-4.9896,0.7561,5.180
4.414000,-1.4538,-4.9766,0.7637,5.240
4.415000,-1.7169,-4.9714,0.7721,5.316
4.415000,-1.9576,-4.9601,0.7911,5.391
4.415000,-2.2027,-4.9389,0.7989,5.466
4.416000,-2.4281,-4.9075,0.7955,5.533
4.416000,-2.6460,-4.8804,0.7692,5.605
4.421000,-2.8277,-4.8504,0.7153,5.660
4.427000,-2.9831,-4.8063,0.6411,5.693
4.433000,-3.1119,-4.7658,0.5397,5.717
4.436000,-3.2335,-4.7394,0.4136,5.752
4.441000,-3.3599,-4.7155,0.2867,5.797
4.446000,-3.4936,-4.7010,0.1713,5.860
4.450000,-3.6563,-4.7089,0.0479,5.962
4.456000,-3.8404,-4.7302,-0.0595,6.093
4.461000,-4.0557,-4.7798,-0.1440,6.270
4.471000,-4.2663,-4.8623,-0.2152,6.472
4.472000,-4.4649,-4.9511,-0.2519,6.672
4.476000,-4.6781,-5.0418,-0.2590,6.883
4.496000,-4.9343,-5.1325,-0.2633,7.125
4.497000,-5.1883,-5.2119,-0.2575,7.359
4.498000,-5.4138,-5.3010,-0.2515,7.581
4.499000,-5.6396,-5.3853,-0.2262,7.801
4.502000,-5.8180,-5.4405,-0.1986,7.968
4.506000,-5.9778,-5.4890,-0.1781,8.118
4.511000,-6.1095,-5.5458,-0.1526,8.253
4.517000,-6.1799,-5.6066,-0.1220,8.345
4.520000,-6.1842,-5.6644,-0.1099,8.387
4.527000,-6.1418,-5.7121,-0.1210,8.388
4.531000,-6.0792,-5.7602,-0.1554,8.376
4.537000,-5.9797,-5.7979,-0.2153,8.332
4.542000,-5.8433,-5.7905,-0.2619,8.231
4.547000,-5.7061,-5.8027,-0.2639,8.142
4.551000,-5.5584,-5.8493,-0.2547,8.073
4.557000,-5.3788,-5.8855,-0.2605,7.977
4.561000,-5.2056,-5.9153,-0.2600,7.884
4.566000,-5.1368,-5.9703,-0.2509,7.880
4.571000,-5.2371,-6.0575,-0.2483,8.011
4.576000,-5.4943,-6.1950,-0.2886,8.285
4.590000,-5.9015,-6.3933,-0.3536,8.708
4.590000,-6.3990,-6.6366,-0.4467,9.230
4.591000,-6.8870,-6.8670,-0.5864,9.743
4.599000,-7.2463,-7.0857,-0.7641,10.164
4.600000,-7.4609,-7.3011,-0.9932,10.486
4.607000,-7.5384,-7.4984,-1.2605,10.707
4.612000,-7.4719,-7.6543,-1.4997,10.801
4.616000,-7.2690,-7.7659,-1.6360,10.762
4.621000,-6.9055,-7.8244,-1.6232,10.561
4.626000,-6.4007,-7.7949,-1.4334,10.187
4.631000,-5.7831,-7.6592,-1.1268,9.663
4.636000,-5.1265,-7.4380,-0.7511,9.065
4.642000,-4.4976,-7.1874,-0.3638,8.486
4.646000,-3.8937,-6.9587,-0.0171,7.974
4.651000,-3.3336,-6.7552,0.2713,7.538
4.656000,-2.8484,-6.5752,0.4882,7.182
4.661000,-2.4473,-6.4314,0.6322,6.910
4.667000,-2.1542,-6.3236,0.6944,6.716
4.671000,-1.9425,-6.2476,0.6697,6.577
4.676000,-1.8217,-6.2292,0.5575,6.514
4.686000,-1.7583,-6.2585,0.3616,6.511
4.688000,-1.7164,-6.3494,0.1191,6.578
4.691000,-1.6960,-6.4845,-0.1547,6.704
4.736000,-1.7592,-6.6519,-0.4163,6.893
4.737000,-1.9755,-6.8362,-0.6704,7.147
4.738000,-2.2945,-7.0081,-0.9528,7.435
4.739000,-2.6494,-7.1787,-1.2647,7.756
4.739000,-3.0017,-7.3351,-1.5545,8.077
4.740000,-3.2942,-7.5003,-1.7555,8.378
4.741000,-3.4933,-7.6531,-1.8401,8.612
4.741000,-3.5441,-7.7425,-1.8184,8.707
4.742000,-3.4416,-7.7618,-1.7241,8.664
4.744000,-3.2623,-7.7018,-1.5882,8.514
4.746000,-3.0036,-7.5818,-1.4103,8.276
4.759000,-2.4046,-7.3584,-1.0438,7.811
4.763000,-2.4029,-7.2255,-1.0624,7.688
4.765000,-2.1102,-7.0117,-0.8938,7.377
4.768000,-1.8495,-6.7728,-0.7216,7.058
4.771000,-1.6421,-6.5444,-0.5187,6.767
4.777000,-1.4877,-6.3499,-0.2887,6.528
4.781000,-1.3621,-6.1790,-0.0092,6.327
4.789000,-1.2388,-6.0460,0.3137,6.180
4.792000,-1.0865,-5.9221,0.6427,6.055
4.802000,-0.8404,-5.7596,0.9257,5.894
4.803000,-0.4599,-5.5220,1.1082,5.651
4.807000,0.0428,-5.2384,1.1788,5.370
4.811000,0.5790,-4.8993,1.1241,5.060
4.838000,1.0745,-4.5606,1.0185,4.795
4.839000,1.4573,-4.2495,0.8788,4.578
4.840000,1.7038,-3.9822,0.6977,4.387
4.841000,1.8328,-3.7870,0.4940,4.236
4.842000,1.8804,-3.6743,0.2647,4.136
4.843000,1.9426,-3.5889,0.0046,4.081
4.848000,2.1077,-3.4612,-0.2890,4.063
4.852000,2.4187,-3.2767,-0.6403,4.123
4.857000,2.8866,-3.0237,-1.0450,4.309
4.862000,3.4558,-2.7195,-1.4766,4.639
4.868000,3.9487,-2.3844,-1.9039,4.990
4.872000,4.0180,-2.1031,-2.1500,5.019
4.876000,4.2452,-1.8227,-2.5289,5.267
4.882000,4.4700,-1.5713,-2.9669,5.590
4.887000,4.5551,-1.4008,-3.3056,5.800
4.892000,4.3502,-1.3223,-3.4446,5.704
4.902000,3.8511,-1.3226,-3.3656,5.283
4.903000,3.2501,-1.3308,-3.1416,4.712
4.907000,2.6869,-1.3448,-2.8332,4.130
4.912000,2.2043,-1.3743,-2.4629,3.580
4.942000,1.7814,-1.4228,-2.0311,3.053
4.944000,1.4328,-1.4655,-1.5365,2.562
4.944000,1.1325,-1.4710,-0.9918,2.105
4.945000,0.9139,-1.4055,-0.4675,1.740
4.947000,0.7990,-1.2685,0.0196,1.499
4.947000,0.7749,-1.0758,0.4474,1.399
4.949000,0.8847,-0.8321,0.7659,1.436
4.952000,1.1398,-0.5215,0.9850,1.594
4.957000,1.5276,-0.1592,1.1291,1.906
4.962000,1.9853,0.2445,1.2346,2.351
4.967000,2.3988,0.6872,1.3524,2.838
4.972000,2.6938,1.1306,1.4850,3.277
4.977000,2.8581,1.5669,1.6185,3.639
4.982000,2.9201,1.9674,1.7339,3.925
4.988000,2.9355,2.2923,1.8169,4.144
4.993000,2.8843,2.5429,1.8609,4.272
4.997000,2.7789,2.7490,1.8729,4.334
5.003000,2.6125,2.9230,1.8270,4.325
5.007000,2.4739,3.0845,1.7306,4.316
5.012000,2.3943,3.2790,1.5962,4.363
5.042000,2.3620,3.4976,1.4599,4.466
5.043000,2.3425,3.7488,1.2814,4.602
5.043000,2.2764,3.9922,1.0991,4.725
5.044000,2.2114,4.2209,0.8843,4.846
5.044000,2.1571,4.4061,0.6517,4.949
5.045000,2.0922,4.5197,0.4302,4.999
5.050000,2.0045,4.5637,0.2222,4.989
5.052000,1.9205,4.5840,0.0568,4.970
5.057000,1.8379,4.6192,-0.0374,4.972
5.063000,1.7545,4.6764,-0.0604,4.995
5.067000,1.7063,4.7632,-0.0051,5.060
5.072000,1.6951,4.8430,0.1065,5.132
5.077000,1.7402,4.9043,0.2286,5.209
5.082000,1.8485,4.9493,0.3493,5.295
5.087000,1.9814,4.9564,0.4683,5.358
5.092000,2.1100,4.9303,0.5711,5.393
5.101000,2.1866,4.8856,0.6625,5.393
5.103000,2.2106,4.8121,0.7231,5.345
5.107000,2.1921,4.6890,0.7700,5.233
5.112000,2.1554,4.5285,0.8365,5.085
5.138000,2.1295,4.3095,0.9252,4.895
5.140000,2.1148,4.0395,1.0357,4.676
5.140000,2.1090,3.7715,1.1411,4.469
5.141000,2.1053,3.5487,1.2318,4.306
5.142000,2.1111,3.3643,1.3363,4.191
5.142000,2.1315,3.1873,1.4280,4.092
5.149000,2.2028,3.0206,1.4922,4.025
5.152000,2.3535,2.8497,1.5190,3.996
5.157000,2.5716,2.6795,1.5227,4.014
5.163000,2.8260,2.5053,1.4912,4.060
5.168000,3.0639,2.3580,1.3884,4.108
5.173000,3.2853,2.2471,1.2338,4.167
5.177000,3.5072,2.1417,1.0111,4.232
5.183000,3.7318,2.0485,0.7568,4.324
5.187000,3.9806,1.9749,0.4929,4.471
5.192000,4.2728,1.9254,0.2153,4.691
5.197000,4.5989,1.9170,-0.0610,4.983
5.202000,4.9606,1.9416,-0.3262,5.337
5.207000,5.3411,1.9897,-0.5438,5.726
5.213000,5.6971,2.0396,-0.6943,6.091
5.219000,6.0810,2.0719,-0.7801,6.471
5.223000,6.4927,2.0579,-0.7511,6.852
5.227000,6.8510,2.0169,-0.5959,7.166
5.254000,7.1671,2.0035,-0.3154,7.449
5.256000,7.4676,2.0491,0.0295,7.744
5.256000,7.7907,2.1559,0.4117,8.094
5.257000,8.1098,2.2976,0.8043,8.467
5.257000,8.3766,2.4955,1.1920,8.821
5.259000,8.6077,2.7326,1.4834,9.152
5.265000,8.8454,3.0515,1.6808,9.507
5.267000,9.0750,3.4040,1.8322,9.864
5.273000,9.2933,3.7610,1.9424,10.212
5.277000,9.5405,4.0815,2.0425,10.576
5.283000,9.8134,4.3268,2.1131,10.931
5.288000,10.0588,4.4249,2.1449,11.196
5.293000,10.2598,4.4021,2.1162,11.363
5.298000,10.4188,4.2561,2.0416,11.438
5.303000,10.5096,4.0039,1.9285,11.411
5.307000,10.5279,3.6958,1.7337,11.292
5.312000,10.4982,3.4040,1.4344,11.129
5.318000,10.5046,3.1738,1.0697,11.026
5.323000,10.5255,3.0002,0.7051,10.967
5.327000,10.4891,2.7945,0.4080,10.863
5.354000,10.3074,2.5856,0.2078,10.629
5.355000,10.0142,2.3997,0.0826,10.298
5.356000,9.6872,2.2686,-0.0390,9.949
5.357000,9.3575,2.2183,-0.1281,9.618
5.357000,9.0491,2.2056,-0.1365,9.315
5.358000,8.7383,2.2067,-0.0765,9.013
5.365000,8.4511,2.1925,0.0301,8.731
5.368000,8.1713,2.1754,0.1734,8.458
5.373000,7.8988,2.1575,0.3147,8.194
5.377000,7.6933,2.1196,0.4321,7.992
5.383000,7.5142,2.0234,0.5374,7.800
5.388000,7.3804,1.8543,0.6017,7.633
5.393000,7.2771,1.6432,0.6104,7.485
5.398000,7.1982,1.3714,0.5852,7.351
5.402000,7.1025,1.0625,0.5286,7.201
5.408000,6.9783,0.6974,0.4311,7.026
5.419000,6.8498,0.2881,0.3027,6.863
5.421000,6.7384,-0.1466,0.1603,6.742
5.423000,6.6311,-0.5625,0.0165,6.655
5.427000,6.4891,-0.9698,-0.1240,6.562
5.454000,6.3056,-1.3542,-0.2847,6.456
5.456000,6.0858,-1.7274,-0.4463,6.342
5.457000,5.8628,-2.0900,-0.5939,6.252
5.457000,5.6644,-2.4620,-0.6890,6.215
5.457000,5.4425,-2.8321,-0.7220,6.178
5.458000,5.1853,-3.1618,-0.7193,6.116
5.463000,4.8955,-3.4343,-0.6645,6.017
5.468000,4.5757,-3.6758,-0.5674,5.897
5.473000,4.2425,-3.9012,-0.4424,5.780
5.478000,3.9329,-4.1495,-0.2588,5.723
5.483000,3.6227,-4.4140,-0.0290,5.710
5.488000,3.3049,-4.6728,0.2372,5.728
5.493000,2.9678,-4.8971,0.5369,5.751
5.498000,2.6087,-5.0944,0.8073,5.780
5.503000,2.2478,-5.2391,1.0408,5.795
5.508000,1.9183,-5.3484,1.2230,5.812
5.515000,1.6010,-5.4271,1.3562,5.819
5.518000,1.2935,-5.4751,1.4644,5.813
5.523000,0.9648,-5.4899,1.5503,5.786
5.528000,0.6288,-5.4556,1.6016,5.721
5.534000,0.3031,-5.3898,1.6211,5.636
5.539000,-0.0271,-5.3048,1.6351,5.551
5.543000,-0.3521,-5.2320,1.6295,5.491
5.555000,-0.6936,-5.1520,1.5970,5.438
5.557000,-1.0566,-5.0703,1.5402,5.403
5.559000,-1.4261,-4.9827,1.4832,5.391
5.563000,-1.8190,-4.8898,1.4283,5.409
5.606000,-2.1923,-4.8174,1.3711,5.468
5.610000,-2.5340,-4.7464,1.3258,5.541
5.611000,-2.8444,-4.6820,1.2757,5.625
5.613000,-3.1375,-4.6465,1.2330,5.741
5.614000,-3.4399,-4.5975,1.1857,5.863
5.615000,-3.7515,-4.5752,1.1052,6.019
5.616000,-4.0509,-4.5580,0.9895,6.178
5.616000,-4.3381,-4.5574,0.8534,6.350
5.616000,-4.6086,-4.5478,0.7043,6.513
5.617000,-4.8836,-4.5443,0.5640,6.695
5.620000,-5.1633,-4.5667,0.4544,6.908
5.624000,-5.4479,-4.5666,0.3327,7.116
5.629000,-5.7157,-4.5724,0.2304,7.323
5.634000,-5.9575,-4.5680,0.1715,7.509
5.638000,-6.1611,-4.5377,0.1917,7.654
5.643000,-6.3079,-4.4536,0.2787,7.727
5.652000,-6.3812,-4.3422,0.4152,7.730
5.654000,-6.4172,-4.2089,0.5936,7.697
5.658000,-6.4256,-4.0998,0.7729,7.661
5.684000,-6.4090,-3.9831,0.9551,7.606
5.686000,-6.3938,-3.8861,1.1187,7.565
5.687000,-6.3610,-3.8161,1.2682,7.525
5.687000,-6.3345,-3.7662,1.4010,7.502
5.688000,-6.3074,-3.7246,1.5194,7.481
5.688000,-6.3130,-3.6991,1.6018,7.490
5.693000,-6.3132,-3.6792,1.6408,7.489
5.699000,-6.3223,-3.6988,1.6249,7.503
5.703000,-6.3211,-3.7438,1.5538,7.509
5.709000,-6.3146,-3.8116,1.4327,7.514
5.714000,-6.3099,-3.8907,1.2902,7.524
5.720000,-6.3262,-3.9779,1.1358,7.559
5.725000,-6.3706,-4.0877,0.9839,7.633
5.730000,-6.4623,-4.2177,0.8391,7.762
5.734000,-6.5844,-4.3649,0.7229,7.933
5.739000,-6.7132,-4.5460,0.6017,8.130
5.743000,-6.8437,-4.7575,0.5013,8.350
5.777000,-6.9474,-4.9895,0.4073,8.563
5.779000,-7.1152,-5.3685,0.2714,8.917
5.780000,-7.1057,-5.4110,0.2873,8.936
5.780000,-7.1366,-5.5834,0.2446,9.065
5.780000,-7.1603,-5.7399,0.2534,9.180
5.781000,-7.1527,-5.8797,0.2968,9.264
5.782000,-7.1237,-6.0079,0.3580,9.326
5.783000,-7.0636,-6.1410,0.4010,9.368
5.789000,-7.0061,-6.2741,0.4068,9.414
5.794000,-6.9367,-6.4122,0.3920,9.455
5.798000,-6.8844,-6.5595,0.3491,9.515
5.804000,-6.8228,-6.7040,0.3047,9.570
5.809000,-6.7543,-6.8601,0.2563,9.631
5.816000,-6.6453,-7.0108,0.1944,9.662
5.819000,-6.4888,-7.1608,0.1433,9.664
5.825000,-6.3279,-7.3245,0.1056,9.680
5.828000,-6.1791,-7.5090,0.0741,9.725
5.834000,-6.0497,-7.6949,0.0633,9.788
5.839000,-5.9108,-7.8726,0.0562,9.845
5.844000,-5.7577,-8.0490,0.0335,9.896
5.850000,-5.5711,-8.2405,-0.0026,9.947
5.854000,-5.3368,-8.4353,-0.0189,9.982
5.858000,-5.0283,-8.6069,0.0011,9.968
5.879000,-4.5884,-8.7434,0.0137,9.874
5.880000,-4.0027,-8.8429,-0.0589,9.707
5.881000,-3.3457,-8.9417,-0.2726,9.551
5.881000,-2.7321,-9.0415,-0.6042,9.465
5.885000,-2.2121,-9.1855,-0.9774,9.499
5.889000,-1.8237,-9.3833,-1.3591,9.655
5.893000,-1.5569,-9.6252,-1.7106,9.899
5.899000,-1.3443,-9.8865,-1.9810,10.172
5.904000,-1.1712,-10.1391,-2.1546,10.431
5.908000,-1.1496,-10.4009,-2.2285,10.699
5.914000,-1.3005,-10.6186,-2.2089,10.924
5.919000,-1.5705,-10.7483,-2.1024,11.064
5.924000,-1.9065,-10.7818,-1.9317,11.118
5.930000,-2.1761,-10.7610,-1.7146,11.112
5.934000,-2.3242,-10.7322,-1.4467,11.076
5.938000,-2.3647,-10.7490,-1.1199,11.063
5.945000,-2.2351,-10.6774,-0.7364,10.934
5.950000,-1.9757,-10.4750,-0.3366,10.665
5.954000,-1.5721,-10.1634,0.0580,10.284
5.960000,-0.9673,-9.7412,0.4362,9.799
5.966000,-0.1877,-9.2210,0.8221,9.259
5.969000,0.6657,-8.6407,1.2183,8.752
5.974000,1.5542,-8.0332,1.5700,8.331
5.984000,2.4797,-7.4312,1.8318,8.045
5.985000,3.4085,-6.8421,1.9607,7.892
5.989000,4.2889,-6.2938,1.9614,7.865
5.994000,5.0656,-5.7454,1.8507,7.880
6.017000,5.7428,-5.2101,1.6734,7.933
6.019000,6.2914,-4.7172,1.4297,7.992
6.020000,6.8691,-4.3357,1.1913,8.210
6.020000,7.1490,-3.8911,0.9555,8.195
6.020000,7.1749,-3.4320,0.7271,7.987
6.024000,7.0453,-2.9915,0.5682,7.675
6.031000,6.8537,-2.6050,0.4782,7.348
6.034000,6.6579,-2.2808,0.4134,7.050
6.039000,6.4666,-2.0223,0.3725,6.786
6.044000,6.2923,-1.7996,0.3648,6.555
6.050000,6.0824,-1.5981,0.4207,6.303
6.054000,5.8418,-1.3695,0.5156,6.022
6.059000,5.5778,-1.1160,0.6227,5.722
6.065000,5.3101,-0.8534,0.7538,5.431
6.069000,5.0664,-0.6210,0.9106,5.185
6.074000,4.8567,-0.3870,1.0908,4.993
6.083000,4.6835,-0.1537,1.2774,4.857
6.084000,4.5727,0.0481,1.4533,4.798
6.090000,4.4843,0.2356,1.6234,4.775
6.094000,4.4002,0.4366,1.7818,4.767
6.125000,4.3088,0.6371,1.9525,4.773
6.127000,4.2314,0.8493,2.1568,4.825
6.128000,4.1776,1.0682,2.3944,4.932
6.128000,4.1400,1.3204,2.7057,5.119
6.130000,4.0592,1.6468,3.0661,5.347
6.130000,4.0034,1.9944,3.4334,5.639
6.131000,4.0592,2.3085,3.7754,6.005
6.135000,4.2091,2.5771,4.0936,6.412
6.140000,4.3830,2.7570,4.2935,6.726
6.145000,4.4732,2.8723,4.4084,6.906
6.150000,4.5338,2.9630,4.4698,7.022
6.155000,4.5700,3.0702,4.5161,7.121
6.159000,4.5603,3.2036,4.4975,7.162
6.165000,4.5172,3.3728,4.4147,7.160
6.170000,4.4458,3.6188,4.3140,7.174
6.175000,4.3932,3.9838,4.1386,7.232
6.182000,4.2947,4.4078,3.8698,7.270
6.185000,4.1260,4.8543,3.5500,7.293
6.190000,3.9610,5.2921,3.2142,7.350
6.194000,3.7350,5.7161,2.9350,7.432
6.205000,3.4318,6.1078,2.7150,7.514
6.207000,3.1115,6.3837,2.3987,7.496
6.210000,2.7943,6.5399,1.9047,7.363
6.252000,2.4809,6.5509,1.2505,7.116
6.254000,2.1764,6.4480,0.5529,6.828
6.254000,1.9171,6.2629,-0.0604,6.550
6.255000,1.7193,6.0815,-0.4825,6.338
6.255000,1.5687,5.9206,-0.7138,6.166
6.256000,1.4487,5.7997,-0.7931,6.030
6.256000,1.3332,5.7500,-0.7854,5.955
6.256000,1.2558,5.7356,-0.7200,5.915
6.257000,1.1947,5.7039,-0.6135,5.860
6.260000,1.1430,5.6981,-0.5716,5.840
6.266000,1.1509,5.6871,-0.6135,5.835
6.270000,1.2470,5.6614,-0.6910,5.838
6.275000,1.4334,5.5851,-0.7753,5.818
6.285000,1.6453,5.4509,-0.8429,5.756
6.287000,1.8317,5.2993,-0.9197,5.682
6.289000,1.9953,5.1135,-1.0201,5.583
6.294000,2.1360,4.9224,-1.1032,5.478
6.316000,2.3020,4.7572,-1.1403,5.407
6.318000,2.4790,4.5990,-1.1051,5.340
6.319000,2.6811,4.4643,-1.0317,5.309
6.319000,2.8679,4.3651,-0.9399,5.307
6.320000,3.0633,4.2464,-0.8613,5.306
6.325000,3.2506,4.1060,-0.8342,5.303
6.330000,3.4063,3.9630,-0.8564,5.295
6.335000,3.4231,3.8250,-0.9181,5.215
6.340000,3.7006,3.7040,-0.9976,5.330
6.344000,3.9084,3.5783,-1.1089,5.414
6.351000,4.1569,3.4433,-1.2329,5.537
6.355000,4.4601,3.3014,-1.3570,5.713
6.360000,4.8250,3.1714,-1.4667,5.957
6.365000,5.2534,3.0365,-1.5524,6.263
6.371000,5.7283,2.9300,-1.5806,6.625
6.375000,6.2324,2.8323,-1.5514,7.019
6.381000,6.6741,2.7312,-1.5010,7.366
6.385000,7.0057,2.6170,-1.4175,7.612
6.391000,7.2197,2.5182,-1.2680,7.751
6.395000,7.2209,2.4446,-1.0958,7.702
6.401000,7.4928,2.3867,-0.8941,7.914
6.405000,7.5951,2.3658,-0.6804,7.984
6.411000,7.6666,2.3892,-0.4621,8.044
6.419000,7.7096,2.4663,-0.2609,8.099
6.421000,7.7337,2.5682,-0.0725,8.149
6.425000,7.7626,2.6710,0.1031,8.210
6.456000,7.8250,2.7674,0.2753,8.305
6.458000,7.9279,2.8311,0.4462,8.430
6.459000,8.0947,2.8690,0.6085,8.610
6.459000,8.3035,2.9121,0.7426,8.831
6.459000,8.4868,2.9194,0.8510,9.015
6.460000,8.6298,2.8953,0.8882,9.146
6.461000,8.7347,2.8230,0.8643,9.220
6.466000,8.8132,2.6808,0.8300,9.249
6.471000,8.8685,2.4547,0.8046,9.237
6.475000,8.9268,2.1687,0.8097,9.222
6.480000,8.9548,1.8276,0.8257,9.177
6.485000,8.9385,1.4532,0.8285,9.094
6.491000,8.8543,1.0861,0.8277,8.959
6.495000,8.6902,0.7668,0.8543,8.766
6.500000,8.4211,0.5176,0.9585,8.491
6.505000,8.0761,0.3287,1.1234,8.161
6.511000,7.7061,0.2268,1.3270,7.823
6.520000,7.3045,0.1692,1.5738,7.474
6.522000,6.9146,0.1511,1.8110,7.149
6.527000,6.5856,0.1758,2.0145,6.889
6.559000,6.3412,0.2767,2.1510,6.702
6.562000,6.2073,0.4558,2.2353,6.613
6.563000,6.1595,0.6721,2.2581,6.595
6.563000,6.1610,0.9010,2.2320,6.614
6.564000,6.1881,1.1042,2.1410,6.640
6.564000,6.2614,1.2642,1.9880,6.690
6.566000,6.3566,1.3593,1.8213,6.751
6.567000,6.4588,1.3624,1.6585,6.806
6.571000,6.5318,1.2591,1.5187,6.823
6.575000,6.5799,1.0704,1.4144,6.815
6.581000,6.6161,0.7945,1.3454,6.798
6.586000,6.6687,0.4550,1.3072,6.811
6.591000,6.7043,0.0733,1.2804,6.826
6.595000,6.7063,-0.3458,1.2435,6.829
6.601000,6.6720,-0.7718,1.2059,6.824
6.606000,6.5765,-1.2061,1.1485,6.784
6.612000,6.4241,-1.6038,1.0690,6.707
6.623000,6.2130,-1.9863,1.0010,6.599
6.626000,5.9533,-2.3560,0.9449,6.472
6.627000,5.6352,-2.6965,0.9027,6.312
6.661000,5.3009,-3.0183,0.8410,6.158
6.663000,4.9409,-3.3242,0.7528,6.002
6.664000,4.5746,-3.6353,0.6597,5.880
6.665000,4.2192,-3.9275,0.5836,5.794
6.666000,3.8677,-4.2078,0.5171,5.739
6.668000,3.5079,-4.4718,0.4843,5.704
6.668000,3.1485,-4.7249,0.4675,5.697
6.669000,2.8107,-4.9459,0.4787,5.709
6.671000,2.4946,-5.1537,0.5102,5.748
6.675000,2.2051,-5.3171,0.6069,5.788
6.681000,1.9368,-5.4081,0.7540,5.794
6.686000,1.6285,-5.4611,0.9237,5.773
6.691000,1.3109,-5.4813,1.0819,5.739
6.696000,0.9911,-5.4951,1.2111,5.714
6.702000,0.6454,-5.4974,1.3346,5.694
6.706000,0.3071,-5.4807,1.4737,5.684
6.712000,-0.0458,-5.4271,1.6161,5.663
6.716000,-0.3980,-5.3560,1.7808,5.658
6.720000,-0.7668,-5.2731,1.9364,5.669
6.727000,-1.1448,-5.1827,2.1311,5.719
6.737000,-1.5056,-5.0941,2.2786,5.780
6.739000,-1.8472,-4.9911,2.3619,5.823
6.741000,-2.1571,-4.8864,2.3982,5.855
6.791000,-2.4667,-4.7878,2.3926,5.893
6.792000,-2.7568,-4.6904,2.3812,5.939
6.793000,-3.2739,-4.4078,2.3238,5.962
6.794000,-3.3125,-4.5338,2.3018,6.068
6.794000,-3.5661,-4.4587,2.2535,6.138
6.795000,-3.8077,-4.3822,2.1818,6.202
6.795000,-4.0205,-4.3066,2.1014,6.255
6.796000,-4.2094,-4.2512,2.0129,6.312
6.797000,-4.3842,-4.1800,1.9216,6.355
6.797000,-4.5425,-4.1059,1.7919,6.380
6.798000,-4.6985,-4.0465,1.6361,6.413
6.801000,-4.8166,-3.9884,1.4496,6.419
6.806000,-4.9352,-3.9844,1.2855,6.472
6.811000,-5.0544,-3.9817,1.1417,6.535
6.817000,-5.1766,-4.0003,1.0467,6.625
6.821000,-5.3113,-4.0342,0.9819,6.742
6.826000,-5.4515,-4.0672,0.9304,6.865
6.831000,-5.5947,-4.1208,0.8974,7.006
6.836000,-5.7435,-4.1900,0.8759,7.163
6.841000,-5.8954,-4.2945,0.8564,7.344
6.846000,-6.0121,-4.4351,0.8393,7.518
6.853000,-6.1297,-4.5883,0.8177,7.700
6.856000,-6.2266,-4.7706,0.8034,7.885
6.860000,-6.3174,-4.9697,0.7916,8.077
6.888000,-6.3972,-5.1830,0.7823,8.270
6.889000,-6.4614,-5.4228,0.7655,8.470
6.889000,-6.5148,-5.6448,0.7389,8.652
6.890000,-6.5911,-5.8613,0.6995,8.848
6.890000,-6.6807,-6.0599,0.6498,9.043
6.892000,-6.7741,-6.2428,0.5967,9.231
6.897000,-6.8690,-6.3983,0.5547,9.404
6.901000,-6.9679,-6.5560,0.5182,9.581
6.907000,-7.0374,-6.6948,0.4611,9.724
6.912000,-7.0896,-6.8240,0.3854,9.848
6.916000,-7.1270,-6.9505,0.3247,9.960
6.921000,-7.1809,-7.0766,0.2713,10.086
6.926000,-7.2250,-7.1903,0.2035,10.195
6.932000,-7.2642,-7.3051,0.0991,10.303
6.936000,-7.3082,-7.4138,-0.0468,10.410
6.941000,-7.3380,-7.5187,-0.2008,10.508
6.949000,-7.3751,-7.6195,-0.3583,10.610
6.952000,-7.4052,-7.7114,-0.5098,10.703
6.956000,-7.4142,-7.8175,-0.6558,10.794
6.961000,-7.4092,-7.8877,-0.8035,10.852
6.991000,-7.3951,-7.9434,-0.9416,10.894
6.993000,-7.3814,-8.0010,-1.0678,10.938
6.994000,-7.3563,-8.0795,-1.1632,10.988
6.995000,-7.2957,-8.2073,-1.2376,11.051
6.995000,-7.2355,-8.3553,-1.2888,11.128
6.996000,-7.1708,-8.4944,-1.3143,11.194
6.997000,-7.0776,-8.6341,-1.3258,11.243
7.001000,-6.9295,-8.7691,-1.3424,11.257
7.007000,-6.7358,-8.9087,-1.3517,11.250
7.013000,-6.4893,-9.0441,-1.3482,11.213
7.017000,-6.1897,-9.1511,-1.3363,11.128
7.023000,-5.8392,-9.2372,-1.2915,11.004
7.027000,-5.4185,-9.2764,-1.2298,10.813
7.031000,-4.9369,-9.3164,-1.1556,10.607
7.038000,-4.4014,-9.3568,-1.1018,10.399
7.042000,-3.8239,-9.3809,-1.1156,10.192
7.047000,-3.1970,-9.3823,-1.1652,9.980
7.052000,-2.5349,-9.3908,-1.2254,9.804
7.056000,-1.8710,-9.4137,-1.2766,9.682
7.061000,-1.2604,-9.4533,-1.3398,9.631
7.068000,-0.7268,-9.4928,-1.4198,9.626
7.072000,-0.2630,-9.4993,-1.4972,9.620
7.076000,0.1050,-9.4755,-1.5266,9.598
7.104000,0.3964,-9.4242,-1.4745,9.547
7.107000,0.6260,-9.3420,-1.3080,9.454
7.108000,0.7913,-9.2355,-1.0471,9.328
7.109000,0.8686,-9.1181,-0.7402,9.189
7.114000,0.9064,-9.0107,-0.4097,9.065
7.115000,0.9645,-8.8964,-0.0254,8.949
7.115000,1.0889,-8.7479,0.4045,8.825
7.116000,1.2719,-8.4956,0.8648,8.634
7.122000,1.4969,-8.1343,1.3957,8.388
7.127000,1.7640,-7.6934,1.9611,8.133
7.132000,2.0657,-7.2044,2.5175,7.906
7.137000,2.3948,-6.6847,3.0169,7.715
7.142000,2.7875,-6.1790,3.3993,7.583
7.147000,3.2712,-5.6711,3.6547,7.498
7.152000,3.8506,-5.1988,3.7203,7.463
7.158000,4.4699,-4.7944,3.5740,7.466
7.163000,5.0685,-4.4279,3.2707,7.483
7.168000,5.5651,-4.0967,2.8779,7.486
7.173000,5.9246,-3.7459,2.4412,7.422
7.177000,6.1735,-3.3772,2.0017,7.316
7.186000,6.3188,-3.0077,1.5524,7.168
7.188000,6.3769,-2.6133,1.0817,6.976
7.192000,6.3603,-2.2531,0.6284,6.777
7.237000,6.3205,-1.9307,0.1791,6.611
7.239000,6.2196,-1.6500,-0.2512,6.440
7.239000,6.0742,-1.3963,-0.6306,6.264
7.240000,5.8701,-1.1503,-0.9344,6.054
7.240000,5.5977,-0.8973,-1.1811,5.791
7.241000,5.2888,-0.6221,-1.3510,5.494
7.241000,4.9666,-0.3468,-1.4510,5.186
7.242000,4.6197,-0.1063,-1.4614,4.847
7.242000,4.2819,0.0997,-1.3848,4.501
7.243000,3.9606,0.3053,-1.2474,4.164
7.249000,3.6706,0.5134,-1.0543,3.853
7.252000,3.4231,0.7092,-0.8249,3.592
7.260000,3.2712,0.8692,-0.5548,3.430
7.262000,3.1263,1.0439,-0.2662,3.307
7.274000,2.9670,1.2430,0.0547,3.217
7.275000,2.7958,1.4714,0.3879,3.183
7.276000,2.6250,1.7080,0.7042,3.210
7.305000,2.4517,1.9594,1.0029,3.295
7.306000,2.2834,2.2260,1.2767,3.435
7.307000,2.1394,2.5249,1.5326,3.647
7.307000,2.0535,2.8514,1.7941,3.945
7.307000,2.0425,3.2130,2.0509,4.324
7.308000,2.0648,3.5896,2.2448,4.710
7.312000,2.1086,3.9552,2.3514,5.062
7.317000,2.1592,4.3050,2.3562,5.362
7.322000,2.2307,4.6339,2.2715,5.622
7.327000,2.3545,4.9541,2.0931,5.871
7.332000,2.5171,5.2669,1.8789,6.132
7.337000,2.6779,5.5964,1.6556,6.421
7.342000,2.8172,5.9064,1.3999,6.692
7.348000,2.9395,6.1917,1.1097,6.943
7.353000,3.0278,6.4094,0.7978,7.133
7.357000,3.0750,6.5716,0.5243,7.274
7.362000,3.0854,6.6851,0.2467,7.367
7.367000,3.0568,6.7789,-0.0278,7.436
7.373000,2.9749,6.8556,-0.2889,7.479
7.377000,2.8612,6.8864,-0.4952,7.474
7.383000,2.7163,6.8313,-0.6346,7.379
7.388000,2.5449,6.6975,-0.6972,7.199
7.392000,2.3764,6.5261,-0.6951,6.980
7.430000,2.2470,6.3607,-0.6449,6.777
7.434000,2.1424,6.2109,-0.5373,6.592
7.435000,2.0438,6.0554,-0.3702,6.402
7.435000,1.9488,5.8870,-0.1727,6.204
7.436000,1.8817,5.7372,0.0259,6.038
7.439000,1.8856,5.6036,0.2111,5.916
7.439000,1.9725,5.5054,0.3373,5.858
7.440000,2.1112,5.4211,0.4165,5.833
7.440000,2.2989,5.3337,0.4538,5.826
7.442000,2.5208,5.2380,0.4754,5.832
7.450000,2.7553,5.1127,0.4743,5.827
7.453000,2.9711,4.9576,0.4744,5.799
7.458000,3.1923,4.7633,0.4374,5.751
7.465000,3.4308,4.5467,0.3444,5.706
7.468000,3.6723,4.3171,0.2408,5.673
7.473000,3.8951,4.0460,0.1342,5.618
7.477000,4.0851,3.7526,0.0560,5.547
7.483000,4.2403,3.4347,0.0086,5.457
7.487000,4.3898,3.1285,-0.0151,5.391
7.493000,4.5532,2.8485,-0.0200,5.371
7.503000,4.7448,2.6282,0.0036,5.424
7.506000,4.9623,2.4340,0.0439,5.527
7.507000,5.1722,2.2588,0.0790,5.644
7.512000,5.4007,2.0474,0.0442,5.776
7.542000,5.6650,1.7310,-0.0388,5.924
7.543000,6.0496,1.2836,-0.1153,6.185
7.544000,6.5329,0.7678,-0.1684,6.580
7.544000,7.0403,0.2695,-0.1383,7.047
7.544000,7.5565,-0.0661,0.0102,7.557
7.545000,7.9831,-0.1701,0.3510,7.993
7.547000,8.1901,0.0214,0.8893,8.238
7.552000,8.1467,0.4387,1.5069,8.297
7.557000,7.9900,0.9721,2.0973,8.318
7.563000,7.8684,1.5117,2.5687,8.414
7.568000,7.8681,1.9762,2.8756,8.607
7.572000,8.0216,2.3727,3.0028,8.888
7.578000,8.2559,2.6958,2.9700,9.179
7.584000,8.4696,2.9162,2.8323,9.395
7.588000,8.5830,3.0002,2.5995,9.457
7.593000,8.6103,2.9764,2.2957,9.395
7.631000,8.6117,2.8139,1.9501,9.267
7.632000,8.6303,2.5679,1.6159,9.148
7.632000,8.6446,2.2981,1.3507,9.046
7.633000,8.6093,2.0189,1.1687,8.920
7.633000,8.4672,1.7041,1.0388,8.699
7.634000,8.2070,1.3708,0.9509,8.375
7.634000,7.8803,1.0246,0.9121,7.999
7.634000,7.4782,0.6969,0.9274,7.568
7.638000,7.0711,0.4100,0.9704,7.149
7.642000,6.7317,0.1977,1.0340,6.814
7.648000,6.4937,0.1416,1.1350,6.594
7.652000,6.3216,0.2586,1.2425,6.448
7.658000,6.2411,0.5313,1.2516,6.387
7.664000,6.3497,0.9183,1.1248,6.514
7.669000,6.6297,1.3303,0.8752,6.818
7.674000,7.0247,1.6753,0.5733,7.244
7.677000,7.4542,1.9472,0.2507,7.708
7.684000,7.8747,2.1145,-0.0456,8.154
7.688000,8.2230,2.1763,-0.2676,8.510
7.693000,8.4726,2.1178,-0.3623,8.741
7.706000,8.5899,1.9699,-0.3373,8.819
7.707000,8.5940,1.7634,-0.2144,8.776
7.709000,8.4860,1.5181,-0.0229,8.621
7.713000,8.2638,1.2314,0.1767,8.357
7.755000,7.9756,0.9133,0.3268,8.034
7.757000,7.6414,0.5710,0.4321,7.675
7.757000,7.2899,0.1828,0.4784,7.308
7.759000,6.9657,-0.2475,0.5017,6.988
7.759000,6.6375,-0.7133,0.5213,6.696
7.760000,6.2962,-1.1902,0.5709,6.433
7.760000,5.9233,-1.6877,0.6673,6.195
7.761000,5.5504,-2.1621,0.8099,6.011
7.767000,5.1463,-2.6114,0.9889,5.855
7.768000,4.7031,-2.9955,1.1849,5.701
7.768000,4.2302,-3.2909,1.3713,5.532
7.773000,3.7999,-3.5260,1.5236,5.403
7.778000,3.4170,-3.7388,1.6325,5.322
7.783000,3.1002,-3.9322,1.6954,5.287
7.787000,2.8674,-4.1191,1.7029,5.300
7.792000,2.6940,-4.2906,1.6812,5.338
7.799000,2.5321,-4.4517,1.6613,5.384
7.803000,2.3505,-4.5762,1.6266,5.396
7.807000,2.1109,-4.6831,1.5864,5.376
7.812000,1.8059,-4.7423,1.5143,5.296
7.818000,1.4679,-4.8140,1.4298,5.232
7.823000,1.3907,-4.8675,1.3450,5.238
7.827000,0.7563,-4.9098,1.2458,5.122
7.850000,0.4552,-4.9333,1.1660,5.090
7.853000,0.1613,-4.9221,1.0982,5.046
7.853000,-0.1485,-4.9007,1.0425,5.013
7.854000,-0.4578,-4.8604,0.9893,4.981
7.854000,-0.7857,-4.8152,0.9556,4.972
7.857000,-1.1059,-4.7984,0.9650,5.018
7.865000,-1.4330,-4.7939,1.0223,5.107
7.869000,-1.7472,-4.8020,1.1321,5.234
7.874000,-2.0344,-4.7970,1.2415,5.356
7.878000,-2.3043,-4.7595,1.3479,5.457
7.883000,-2.5355,-4.6897,1.4370,5.521
7.888000,-2.7474,-4.6163,1.4969,5.577
7.893000,-2.9521,-4.5402,1.5322,5.628
7.898000,-3.1565,-4.4430,1.5196,5.658
7.903000,-3.3346,-4.3400,1.4496,5.662
7.908000,-3.4769,-4.2409,1.3491,5.647
7.915000,-3.6242,-4.1840,1.2397,5.673
7.918000,-3.8031,-4.1557,1.1313,5.746
7.923000,-4.0083,-4.1233,1.0313,5.842
7.928000,-4.2305,-4.1064,0.9375,5.970
7.937000,-4.4291,-4.0666,0.8501,6.073
7.938000,-4.6088,-4.0350,0.7647,6.173
7.943000,-4.7651,-3.9955,0.7172,6.260
7.982000,-4.9099,-3.9634,0.6621,6.345
7.983000,-5.0576,-3.9514,0.6279,6.449
7.983000,-5.1939,-3.9688,0.5979,6.564
7.984000,-5.3429,-3.9942,0.5839,6.696
7.984000,-5.4926,-4.0273,0.5764,6.835
7.985000,-5.6096,-4.0447,0.5775,6.940
7.985000,-5.6868,-4.0716,0.5799,7.018
7.988000,-5.7386,-4.1132,0.5837,7.085
7.989000,-5.7988,-4.1625,0.5645,7.160
7.993000,-5.8528,-4.2410,0.5437,7.248
7.999000,-5.9225,-4.3373,0.5190,7.359
8.003000,-6.0293,-4.4788,0.5185,7.529
8.008000,-6.1588,-4.6322,0.5109,7.723
8.016000,-6.3111,-4.7852,0.5032,7.936
8.019000,-6.4505,-4.9398,0.4930,8.140
8.024000,-6.5912,-5.0769,0.4709,8.333
8.028000,-6.7143,-5.2014,0.4587,8.506
8.034000,-6.8246,-5.3147,0.4586,8.662
8.039000,-6.9438,-5.4313,0.4467,8.827
8.043000,-7.0552,-5.5583,0.4181,8.991
8.053000,-7.1661,-5.7241,0.3899,9.180
8.055000,-7.2765,-5.9261,0.3526,9.391
8.059000,-7.3626,-6.1227,0.3106,9.581
8.063000,-7.4151,-6.2996,0.2428,9.733
8.104000,-7.4244,-6.4637,0.1611,9.845
8.106000,-7.4146,-6.6151,0.0895,9.937
8.108000,-7.4001,-6.7801,0.0374,10.037
8.110000,-7.4073,-6.9745,0.0093,10.174
8.110000,-7.4197,-7.1695,-0.0261,10.318
8.111000,-7.4251,-7.3647,-0.0713,10.458
8.113000,-7.3928,-7.5549,-0.1503,10.571
8.113000,-7.3370,-7.7256,-0.2202,10.657
8.114000,-7.2339,-7.8980,-0.2811,10.714
8.116000,-7.1100,-8.0504,-0.3551,10.746
8.122000,-6.9555,-8.1804,-0.4158,10.746
8.125000,-6.7873,-8.3214,-0.4584,10.748
8.130000,-6.5814,-8.4469,-0.4734,10.719
8.135000,-6.3257,-8.5687,-0.4630,10.661
8.138000,-6.0082,-8.6848,-0.4318,10.569
8.144000,-5.6288,-8.7712,-0.3773,10.429
8.163000,-5.1969,-8.8069,-0.3014,10.230
8.164000,-4.7100,-8.7947,-0.2160,9.979
8.165000,-4.1560,-8.7444,-0.1277,9.683
8.165000,-3.5587,-8.6506,-0.0434,9.354
8.169000,-2.9657,-8.5613,0.0587,9.061
8.173000,-2.4105,-8.5132,0.1497,8.849
8.178000,-1.8833,-8.5304,0.2128,8.738
8.184000,-1.3935,-8.6300,0.2239,8.745
8.189000,-0.9481,-8.7826,0.1803,8.835
8.194000,-0.5733,-9.0038,0.0505,9.022
8.199000,-0.2569,-9.2189,-0.1680,9.224
8.204000,-0.0107,-9.3847,-0.4703,9.396
8.209000,0.1632,-9.4870,-0.7776,9.520
8.214000,0.2436,-9.5202,-1.0422,9.580
8.219000,0.2593,-9.5145,-1.2552,9.600
8.224000,0.2513,-9.4618,-1.4094,9.569
8.229000,0.2821,-9.3593,-1.4472,9.475
8.235000,0.3758,-9.1930,-1.3470,9.299
8.239000,0.5112,-8.9384,-1.0944,9.020
8.244000,0.6736,-8.6120,-0.7402,8.670
8.253000,0.8633,-8.2135,-0.3419,8.266
8.255000,1.1042,-7.7458,0.0692,7.824
8.259000,1.4250,-7.2669,0.4337,7.418
8.316000,1.8398,-6.7682,0.7758,7.057
8.318000,2.3439,-6.2736,1.0906,6.785
8.319000,2.9457,-5.7860,1.3279,6.627
8.319000,3.6760,-5.2389,1.4781,6.568
8.320000,4.4526,-4.6507,1.5604,6.625
8.320000,5.1861,-4.0682,1.5958,6.782
8.320000,5.7661,-3.5158,1.5316,6.925
8.321000,6.1411,-3.0269,1.3750,6.983
8.321000,6.2874,-2.6368,1.1361,6.912
8.322000,6.2362,-2.3306,0.8463,6.711
8.323000,6.0187,-2.1174,0.5155,6.401
8.324000,5.6573,-2.0289,0.1559,6.012
8.325000,5.1972,-1.9794,-0.2273,5.566
8.328000,4.6918,-1.9385,-0.6048,5.112
8.336000,4.1749,-1.8887,-0.9094,4.672
8.339000,3.6735,-1.8315,-1.1311,4.258
8.343000,3.2306,-1.7737,-1.2651,3.897
8.350000,2.9021,-1.6735,-1.3374,3.607
8.354000,2.6559,-1.5461,-1.3432,3.354
8.360000,2.5116,-1.3840,-1.2633,3.134
8.392000,2.4234,-1.1921,-1.1386,2.931
8.393000,2.3983,-0.9801,-0.9788,2.770
8.394000,2.3885,-0.7551,-0.7578,2.617
8.394000,2.4004,-0.5157,-0.4877,2.503
8.394000,2.3909,-0.2808,-0.2143,2.417
8.395000,2.3529,-0.0624,0.0742,2.355
8.395000,2.2793,0.1373,0.3584,2.311
8.401000,2.1752,0.3070,0.5902,2.275
8.404000,2.0880,0.4820,0.7670,2.276
8.409000,2.0420,0.6626,0.9201,2.336
8.414000,2.0227,0.8466,1.0805,2.444
8.420000,1.9989,1.0341,1.2455,2.572
8.426000,2.0616,1.2393,1.4029,2.785
8.431000,1.9170,1.4534,1.5503,2.862
8.436000,1.8850,1.6969,1.6871,3.046
8.439000,1.9036,1.9823,1.8135,3.293
8.444000,1.9821,2.3141,1.9103,3.596
8.451000,2.1226,2.6871,1.9678,3.949
8.455000,2.3081,3.0895,2.0123,4.350
8.459000,2.4848,3.5200,2.0125,4.755
8.472000,2.6046,3.9378,1.9707,5.116
8.473000,2.6626,4.3093,1.8703,5.400
8.476000,2.6610,4.6442,1.7209,5.622
8.519000,2.6284,4.9184,1.5639,5.792
8.521000,2.5725,5.1396,1.4164,5.919
8.521000,2.4783,5.3217,1.2855,6.010
8.522000,2.3604,5.4675,1.1690,6.069
8.522000,2.2263,5.5916,1.0789,6.114
8.523000,2.1143,5.7015,0.9865,6.160
8.523000,2.0129,5.7783,0.8968,6.184
8.523000,1.9214,5.8504,0.8193,6.212
8.525000,1.8667,5.8656,0.7708,6.204
8.525000,1.8247,5.8360,0.7440,6.160
8.530000,1.7884,5.7786,0.7339,6.093
8.534000,1.7606,5.6913,0.7021,5.999
8.539000,1.7479,5.6050,0.6392,5.906
8.545000,1.7625,5.5222,0.5573,5.823
8.551000,1.7877,5.4381,0.4591,5.743
8.555000,1.8234,5.3289,0.3378,5.642
8.561000,1.8911,5.1825,0.2057,5.521
8.565000,1.9910,5.0087,0.0726,5.390
8.569000,2.1177,4.8215,-0.0539,5.266
8.575000,2.2569,4.6281,-0.1591,5.152
8.584000,2.3511,4.4188,-0.2238,5.010
8.586000,2.3956,4.1793,-0.2168,4.822
8.589000,2.3954,3.8979,-0.1336,4.577
8.594000,2.3770,3.5939,0.0015,4.309
8.635000,2.3792,3.2917,0.1834,4.066
8.636000,2.3925,2.9771,0.3995,3.840
8.637000,2.3932,2.6479,0.6565,3.629
8.637000,2.3553,2.3020,0.9537,3.429
8.638000,2.2913,1.9854,1.2592,3.283
8.638000,2.1990,1.7103,1.5338,3.180
8.639000,2.0859,1.5009,1.7746,3.123
8.639000,1.9360,1.3168,1.9479,3.046
8.640000,1.8046,1.1776,2.0201,2.954
8.645000,1.7305,1.0429,2.0085,2.849
8.650000,1.7736,0.9390,1.9276,2.783
8.654000,1.9315,0.8610,1.8113,2.784
8.659000,2.1895,0.8089,1.6311,2.848
8.665000,2.5474,0.8206,1.3662,3.005
8.670000,2.9832,0.9052,1.0529,3.291
8.675000,3.4696,1.0189,0.7520,3.693
8.681000,3.9558,1.1899,0.5210,4.164
8.685000,4.3958,1.3652,0.3648,4.617
8.691000,4.7606,1.5324,0.2187,5.006
8.696000,5.0263,1.6844,0.0350,5.301
8.705000,5.2289,1.8236,-0.1716,5.540
8.706000,5.3921,1.9091,-0.3743,5.732
8.711000,5.5520,1.9817,-0.5247,5.918
8.755000,5.5746,2.0532,-0.5752,5.968
8.756000,5.9046,2.1452,-0.5284,6.304
8.757000,6.0681,2.2480,-0.3871,6.483
8.757000,6.2179,2.3615,-0.1925,6.654
8.758000,6.3445,2.4592,0.0475,6.805
8.758000,6.4475,2.5317,0.2871,6.933
8.758000,6.5772,2.5743,0.5139,7.082
8.759000,6.7455,2.6252,0.7274,7.275
8.759000,6.9110,2.6363,0.9008,7.451
8.765000,7.0520,2.6124,1.0315,7.591
8.767000,7.1541,2.5464,1.1149,7.675
8.771000,7.1885,2.4597,1.1530,7.685
8.775000,7.1867,2.3860,1.1582,7.660
8.781000,7.1416,2.3419,1.1401,7.602
8.785000,7.0437,2.2750,1.0967,7.483
8.791000,6.9150,2.1878,1.0258,7.325
8.796000,6.7678,2.0852,0.9445,7.144
8.800000,6.6310,1.9912,0.8677,6.978
8.806000,6.5049,1.9036,0.8288,6.828
8.812000,6.4281,1.8513,0.8473,6.743
8.816000,6.4674,1.8604,0.8944,6.789
8.821000,6.5865,1.9355,0.9987,6.937
8.825000,6.7035,2.0642,1.1260,7.104
8.862000,6.7774,2.2296,1.2283,7.240
8.864000,6.8076,2.4072,1.2769,7.333
8.865000,6.8327,2.6043,1.2960,7.426
8.866000,6.8447,2.7915,1.3265,7.510
8.866000,6.8148,2.9376,1.3634,7.545
8.867000,6.7499,3.0401,1.3876,7.532
8.867000,6.6284,3.0940,1.3823,7.444
8.868000,6.4650,3.0683,1.3359,7.280
8.871000,6.2695,2.9871,1.2629,7.059
8.875000,6.0491,2.8599,1.1709,6.793
8.882000,5.8165,2.6989,1.0746,6.502
8.885000,5.5665,2.5111,0.9836,6.185
8.891000,5.3098,2.2829,0.8819,5.847
8.897000,5.0873,2.0404,0.7792,5.536
8.901000,4.8895,1.7528,0.6854,5.239
8.906000,4.7169,1.4371,0.6033,4.968
8.912000,4.5743,1.1028,0.5330,4.735
8.920000,4.4737,0.7739,0.5082,4.568
8.921000,4.3896,0.4414,0.5051,4.441
8.926000,4.3386,0.1339,0.5332,4.373
8.956000,4.3182,-0.1534,0.6044,4.363
8.957000,4.3405,-0.4087,0.6970,4.415
8.957000,4.4408,-0.6324,0.7893,4.555
8.957000,4.5814,-0.8408,0.8599,4.737
8.958000,4.7401,-1.0034,0.9567,4.939
8.958000,4.8664,-1.1663,1.0627,5.116
8.961000,4.9433,-1.3176,1.1922,5.253
8.966000,4.9610,-1.4414,1.3479,5.339
8.971000,4.9084,-1.5537,1.5531,5.378
8.975000,4.8043,-1.6621,1.7957,5.392
8.981000,4.6731,-1.7904,2.0684,5.415
8.985000,4.5100,-1.9219,2.3610,5.441
8.990000,4.3155,-2.0491,2.6608,5.468
8.995000,4.0915,-2.1677,2.9316,5.480
9.000000,3.8608,-2.2693,3.1628,5.483
9.006000,3.6494,-2.3303,3.3614,5.482
9.012000,3.4334,-2.3699,3.5367,5.469
9.016000,3.1939,-2.3904,3.7101,5.448
9.020000,2.9234,-2.3851,3.8863,5.416
9.026000,2.6399,-2.3549,4.0698,5.392
9.049000,2.3502,-2.3194,4.2462,5.379
9.050000,2.0737,-2.2760,4.3866,5.359
9.051000,1.8629,-2.2177,4.4667,5.324
9.052000,1.7340,-2.1594,4.4677,5.256
9.052000,1.7141,-2.1288,4.3777,5.161
9.056000,1.7546,-2.1245,4.2285,5.047
9.060000,1.7980,-2.1397,4.0584,4.928
9.066000,1.7748,-2.1603,3.8821,4.784
9.071000,1.6827,-2.1915,3.6994,4.617
9.076000,1.5143,-2.2316,3.5319,4.444
9.081000,1.2780,-2.2717,3.3820,4.270
9.086000,0.9592,-2.3364,3.2640,4.127
9.091000,0.5680,-2.4204,3.1686,4.028
9.096000,0.1288,-2.5446,3.1173,4.026
9.101000,-0.3322,-2.6639,3.0886,4.092
9.108000,-0.8043,-2.7973,3.0825,4.239
9.111000,-1.2853,-2.9045,3.0844,4.427
9.116000,-1.7631,-2.9828,3.0632,4.625
9.120000,-2.2280,-3.0314,3.0167,4.822
9.126000,-2.6631,-3.0693,2.9619,5.028
9.146000,-3.0617,-3.0995,2.9058,5.237
9.147000,-3.4184,-3.1246,2.8296,5.427
9.147000,-3.7384,-3.1430,2.7429,5.602
9.148000,-4.0050,-3.1709,2.6268,5.744
9.151000,-4.2112,-3.2178,2.5152,5.866
9.156000,-4.3381,-3.3035,2.4056,5.960
9.160000,-4.3832,-3.4238,2.2963,6.017
9.166000,-4.3612,-3.5844,2.1752,6.050
9.171000,-4.3107,-3.7660,2.0426,6.078
9.176000,-4.2509,-3.9235,1.8817,6.083
9.181000,-4.1535,-4.1223,1.6638,6.084
9.186000,-4.0445,-4.3776,1.4137,6.125
9.191000,-3.9123,-4.6349,1.1963,6.182
9.197000,-3.8359,-4.8945,1.0333,6.304
9.201000,-3.8296,-5.1465,0.9385,6.483
9.206000,-3.9533,-5.3761,0.8993,6.734
9.211000,-3.9606,-5.5359,0.8982,6.866
9.219000,-4.5211,-5.6050,0.9422,7.263
9.221000,-4.8668,-5.5885,1.0529,7.485
9.226000,-5.1869,-5.5460,1.2236,7.691
9.260000,-5.4671,-5.4916,1.4140,7.877
9.265000,-5.6862,-5.4901,1.6027,8.065
9.266000,-5.8178,-5.5187,1.7424,8.206
9.267000,-5.8671,-5.5900,1.8334,8.309
9.267000,-5.8104,-5.6754,1.8590,8.332
9.268000,-5.6551,-5.7869,1.8745,8.306
9.268000,-5.4349,-5.9372,1.8584,8.261
9.269000,-5.1930,-6.1235,1.8184,8.232
9.271000,-4.9509,-6.3319,1.7477,8.226
9.276000,-4.7423,-6.5148,1.6702,8.229
9.281000,-4.5623,-6.6579,1.6029,8.229
9.287000,-4.4254,-6.7829,1.5652,8.249
9.292000,-4.3434,-6.9115,1.5566,8.310
9.297000,-4.3067,-6.9978,1.5556,8.363
9.301000,-4.3441,-7.0755,1.5690,8.450
9.306000,-4.4529,-7.1418,1.5871,8.565
9.311000,-4.5879,-7.1606,1.6220,8.658
9.316000,-4.7440,-7.1770,1.6711,8.764
9.321000,-4.9070,-7.1883,1.6979,8.868
9.327000,-5.0410,-7.1821,1.6927,8.936
9.333000,-5.1365,-7.1870,1.6673,8.990
9.337000,-5.1863,-7.1574,1.6215,8.986
9.341000,-5.1761,-7.1244,1.5451,8.941
9.346000,-5.1299,-7.1072,1.4351,8.882
9.387000,-5.0191,-7.0770,1.3082,8.774
9.388000,-4.8316,-7.0700,1.1807,8.644
9.389000,-4.5772,-7.0959,1.0763,8.512
9.392000,-4.2774,-7.1404,1.0185,8.386
9.392000,-3.9034,-7.1987,1.0141,8.251
9.393000,-3.4626,-7.2498,1.0479,8.102
9.393000,-3.0364,-7.2963,1.0813,7.977
9.394000,-2.6317,-7.3429,1.0447,7.870
9.394000,-2.2293,-7.3922,0.8999,7.773
9.397000,-1.8412,-7.4510,0.6566,7.703
9.402000,-1.4839,-7.5107,0.2978,7.662
9.407000,-1.2220,-7.5780,-0.1547,7.677
9.413000,-1.0694,-7.6123,-0.6749,7.717
9.417000,-1.0332,-7.6085,-1.2173,7.774
9.422000,-1.1009,-7.5419,-1.7294,7.816
9.427000,-1.2460,-7.4514,-2.2134,7.872
9.436000,-1.4489,-7.3267,-2.6761,7.934
9.437000,-1.6782,-7.1959,-3.0834,8.007
9.441000,-1.9142,-7.0253,-3.4271,8.048
9.447000,-2.1233,-6.7932,-3.6633,8.005
9.472000,-2.2975,-6.4964,-3.7793,7.859
9.474000,-2.4084,-6.1534,-3.7792,7.612
9.474000,-2.4435,-5.7375,-3.6622,7.232
9.474000,-2.4290,-5.2493,-3.4301,6.725
9.475000,-2.3337,-4.6990,-3.1016,6.095
9.476000,-2.1119,-4.1130,-2.6951,5.352
9.485000,-1.6997,-3.5156,-2.2029,4.483
9.487000,-1.0469,-2.9214,-1.6153,3.499
9.491000,-0.1950,-2.3084,-0.9449,2.502
9.497000,0.7427,-1.7045,-0.2596,1.877
9.501000,1.6268,-1.1328,0.3488,2.013
9.506000,2.3710,-0.6462,0.8079,2.587
9.511000,2.9241,-0.2566,1.1171,3.141
9.516000,3.2624,0.0012,1.2715,3.501
9.521000,3.4102,0.1040,1.2947,3.649
9.526000,3.4443,0.0980,1.1672,3.638
9.531000,3.4229,0.0163,0.8837,3.535
9.536000,3.4125,-0.0440,0.4698,3.445
9.541000,3.4615,-0.0172,-0.0526,3.462
9.546000,3.5649,0.1084,-0.6260,3.621
9.551000,3.7129,0.3016,-1.2163,3.919
9.556000,3.9155,0.5602,-1.8059,4.348
9.561000,4.1378,0.8606,-2.3605,4.841
9.581000,4.3631,1.1528,-2.8741,5.350
9.582000,4.5673,1.4221,-3.3199,5.823
9.583000,4.7573,1.6109,-3.6783,6.226
9.583000,4.9426,1.7264,-3.9110,6.535
9.586000,5.1428,1.8030,-3.9965,6.758
9.591000,5.3254,1.9014,-3.9573,6.902
9.596000,5.4718,2.0583,-3.7722,6.957
9.601000,5.5580,2.2305,-3.4489,6.911
9.606000,5.6009,2.3705,-3.0838,6.819
9.611000,5.6489,2.5008,-2.7174,6.749
9.616000,5.7298,2.6131,-2.3459,6.720
9.621000,5.8199,2.7321,-1.9475,6.718
9.627000,5.9047,2.8695,-1.5084,6.736
9.631000,5.9767,2.9966,-1.0577,6.769
9.636000,6.0479,3.1350,-0.5934,6.838
9.642000,6.1159,3.2563,-0.1229,6.930
9.647000,6.2179,3.4003,0.3338,7.095
9.652000,6.3228,3.5266,0.8003,7.284
9.657000,6.4590,3.6472,1.2426,7.521
9.662000,6.5922,3.7665,1.6554,7.771
9.667000,6.6913,3.8777,2.0310,7.996
9.672000,6.7432,3.9679,2.3663,8.174
9.677000,6.7456,4.0401,2.6708,8.304
9.687000,6.7009,4.0846,2.9491,8.383
9.689000,6.5849,4.0777,3.1748,8.371
9.694000,6.4126,4.0368,3.3550,8.287
9.697000,6.2051,3.9878,3.4827,8.157
9.744000,5.9843,3.8955,3.5509,7.975
9.745000,5.7887,3.7862,3.5769,7.787
9.746000,5.6113,3.6578,3.5634,7.587
9.746000,5.4233,3.4863,3.5132,7.342
9.747000,5.1988,3.2984,3.4146,7.040
9.747000,4.9499,3.1036,3.2586,6.690
9.748000,4.6530,2.9022,3.0796,6.289
9.749000,4.3278,2.7351,2.8754,5.872
9.749000,3.9892,2.5810,2.6778,5.454
9.750000,3.6542,2.4570,2.5274,5.077
9.754000,3.3541,2.3846,2.4245,4.776
9.756000,3.0987,2.3592,2.3593,4.553
9.765000,2.8832,2.3378,2.2956,4.364
9.766000,2.7101,2.3014,2.2264,4.195
9.773000,2.5723,2.2668,2.1492,4.047
9.778000,2.4650,2.2508,2.0591,3.922
9.782000,2.3856,2.2389,1.9613,3.815
9.786000,2.3294,2.2263,1.8822,3.732
9.793000,2.3083,2.1747,1.8434,3.668
9.817000,2.2983,2.0387,1.8902,3.607
9.817000,2.2996,1.8019,2.0268,3.556
9.818000,2.2693,1.4502,2.2270,3.495
9.818000,2.1431,1.0127,2.4566,3.414
9.818000,1.9075,0.5689,2.7009,3.355
9.822000,1.5538,0.2413,2.8931,3.293
9.826000,1.1615,0.0374,3.0376,3.252
9.832000,0.6999,-0.0980,3.1139,3.193
9.837000,0.2580,-0.2147,3.1723,3.190
9.841000,-0.0708,-0.2985,3.2369,3.251
9.847000,-0.2917,-0.3184,3.3219,3.350
9.852000,-0.3503,-0.2606,3.3888,3.417
9.857000,-0.2329,-0.1184,3.3651,3.375
9.861000,-0.0367,0.0664,3.2108,3.212
9.869000,0.2136,0.2621,2.9212,2.941
9.872000,0.4884,0.4657,2.4990,2.589
9.877000,0.7848,0.6695,1.9672,2.221
9.882000,1.0710,0.8540,1.3934,1.954
9.891000,1.3180,1.0499,0.8343,1.880
9.892000,1.4586,1.2572,0.3598,1.959
9.935000,1.4787,1.4711,-0.0081,2.086
9.936000,1.4122,1.6656,-0.2858,2.202
9.937000,1.3101,1.8365,-0.5186,2.315
9.937000,1.2683,1.9961,-0.7083,2.469
9.938000,1.3062,2.1804,-0.8307,2.674
9.938000,1.3587,2.3963,-0.8692,2.889
9.939000,1.3659,2.6414,-0.8170,3.084
9.939000,1.3014,2.8795,-0.6935,3.235
9.939000,1.1439,3.0919,-0.5206,3.338
9.943000,0.9441,3.2666,-0.2892,3.413
9.947000,0.7453,3.3849,-0.0115,3.466
9.953000,0.5452,3.4659,0.2808,3.520
9.958000,0.3704,3.5386,0.5751,3.604
9.963000,0.2041,3.6150,0.8449,3.718
9.967000,0.0633,3.6951,1.0777,3.850
9.972000,-0.0497,3.7932,1.2686,4.000
9.977000,-0.1757,3.8542,1.4174,4.110
9.984000,-0.3172,3.8733,1.5265,4.175
9.986000,-0.4402,3.8533,1.5885,4.191
9.992000,-0.5231,3.7823,1.5891,4.136
9.998000,-0.5634,3.6582,1.5071,3.996
10.004000,-0.5632,3.4764,1.3258,3.763
10.009000,-0.5106,3.2825,1.0579,3.486
10.038000,-0.4296,3.0764,0.7352,3.192
10.039000,-0.3124,2.8538,0.3866,2.897
10.040000,-0.1352,2.6244,0.0468,2.628
10.040000,0.0878,2.4288,-0.2260,2.441
10.040000,0.3446,2.2454,-0.3618,2.300
10.040000,0.6038,2.0789,-0.3460,2.192
10.043000,0.8730,1.9030,-0.1651,2.100
10.048000,1.1187,1.7176,0.1684,2.057
10.052000,1.3264,1.5659,0.6104,2.141
10.057000,1.4844,1.4333,1.0811,2.329
10.063000,1.5642,1.2603,1.4842,2.498
10.068000,1.5759,1.0304,1.7577,2.576
10.072000,1.5392,0.7227,1.9155,2.561
10.077000,1.4642,0.3593,1.9943,2.500
10.083000,1.4162,-0.0498,2.0158,2.464
10.087000,1.4384,-0.5041,2.0089,2.522
10.092000,1.4523,-1.0178,2.0673,2.724
10.101000,1.4370,-1.5590,2.1941,3.051
10.106000,1.4048,-2.0770,2.3031,3.405
10.107000,1.3898,-2.5210,2.3460,3.714
10.112000,1.4926,-2.8312,2.3300,3.959
10.131000,1.7536,-2.9866,2.2960,4.155
10.133000,2.2126,-2.9927,2.2515,4.350
10.133000,2.7700,-2.8700,2.2287,4.569
10.133000,3.3959,-2.6675,2.2207,4.856
10.138000,4.0196,-2.4201,2.2822,5.218
10.142000,4.5946,-2.1790,2.4346,5.638
10.147000,5.0771,-1.9712,2.7163,6.086
10.152000,5.4829,-1.7926,3.1040,6.551
10.157000,5.7612,-1.6793,3.5635,6.979
10.162000,5.9117,-1.6481,4.0627,7.360
10.167000,5.9008,-1.6748,4.6033,7.669
10.172000,5.7672,-1.7159,5.1678,7.932
10.177000,5.5232,-1.7156,5.7213,8.135
10.182000,5.2146,-1.6447,6.2253,8.286
10.188000,4.8323,-1.5266,6.6697,8.377
10.192000,4.3960,-1.3560,7.0137,8.388
10.202000,3.9420,-1.1538,7.2669,8.347
10.204000,3.4852,-0.9079,7.4158,8.244
10.208000,3.0523,-0.6299,7.4557,8.081
10.212000,2.6768,-0.3199,7.4282,7.902
10.240000,2.3659,-0.0067,7.3579,7.729
10.241000,2.1434,0.2760,7.2693,7.584
10.241000,2.0259,0.5352,7.1605,7.461
10.241000,2.0060,0.7275,7.0609,7.376
10.242000,2.0210,0.8551,6.9753,7.312
10.243000,2.0346,0.9152,6.8635,7.217
10.250000,1.9966,0.9387,6.7472,7.099
10.253000,1.9141,0.9663,6.5814,6.922
10.258000,1.7993,0.9834,6.3691,6.691
10.262000,1.6735,0.9827,6.1249,6.425
10.268000,1.5680,0.9639,5.8758,6.157
10.273000,1.4804,0.9008,5.6579,5.917
10.278000,1.4440,0.7956,5.5049,5.746
10.283000,1.4563,0.6531,5.4479,5.677
10.288000,1.4696,0.4686,5.4603,5.674
10.293000,1.4934,0.2542,5.5010,5.706
10.298000,1.5447,0.0389,5.5486,5.760
10.303000,1.6497,-0.1653,5.5693,5.811
10.308000,1.8296,-0.3898,5.5537,5.860
10.324000,2.0226,-0.6512,5.4949,5.891
10.325000,2.1805,-0.9091,5.4053,5.899
10.331000,2.3107,-1.1659,5.2707,5.872
10.332000,2.4083,-1.4074,5.1249,5.835
10.333000,2.4999,-1.6288,4.9802,5.806
10.379000,2.5898,-1.8402,4.8557,5.803
10.380000,2.6619,-2.0675,4.7542,5.828
10.381000,2.7351,-2.2990,4.6517,5.866
10.381000,2.7905,-2.5465,4.5508,5.914
10.382000,2.8400,-2.7646,4.4539,5.962
10.382000,2.8525,-2.9584,4.3803,6.006
10.383000,2.8618,-3.0963,4.3749,6.076
10.383000,2.8269,-3.1717,4.4492,6.152
10.384000,2.7836,-3.1939,4.5760,6.236
10.384000,2.7007,-3.1679,4.7281,6.300
10.388000,2.6210,-3.1321,4.8811,6.364
10.393000,2.5090,-3.0956,5.0151,6.405
10.398000,2.3956,-3.0730,5.1250,6.438
10.403000,2.2688,-3.0474,5.1913,6.433
10.408000,2.1119,-3.0118,5.1900,6.361
10.417000,1.9203,-2.9947,5.1188,6.234
10.418000,1.7298,-2.9631,4.9801,6.048
10.423000,1.5385,-2.9330,4.8105,5.840
10.429000,1.3824,-2.9287,4.6316,5.652
10.460000,1.2711,-2.9908,4.4606,5.519
10.461000,1.2143,-3.1191,4.2717,5.427
10.462000,1.2190,-3.2758,4.0508,5.350
10.462000,1.2428,-3.4386,3.7985,5.272
10.463000,1.2518,-3.5723,3.5390,5.182
10.463000,1.1814,-3.6843,3.3010,5.086
10.464000,1.0103,-3.7721,3.0796,4.973
10.468000,0.7939,-3.8380,2.8773,4.862
10.473000,0.5393,-3.8919,2.7370,4.788
10.478000,0.2640,-3.9324,2.6754,4.764
10.483000,-0.0297,-3.9480,2.6631,4.762
10.488000,-0.3393,-3.9166,2.6900,4.764
10.493000,-0.6813,-3.8262,2.7459,4.759
10.498000,-1.0416,-3.7056,2.8064,4.764
10.503000,-1.4193,-3.5724,2.8648,4.794
10.508000,-1.7760,-3.4628,2.9042,4.856
10.515000,-2.0831,-3.3596,2.9152,4.912
10.519000,-2.3165,-3.2627,2.9315,4.960
10.523000,-2.4600,-3.1701,2.9622,4.988
10.528000,-2.5370,-3.0785,2.9864,4.983
10.534000,-2.5600,-2.9649,2.9897,4.928
10.538000,-2.5483,-2.8556,2.9366,4.824
10.543000,-2.5377,-2.7629,2.8255,4.696
10.552000,-2.5521,-2.7204,2.6644,4.584
10.555000,-2.5822,-2.7097,2.4371,4.467
10.558000,-2.6443,-2.7034,2.1833,4.367
10.599000,-2.7145,-2.7093,1.9415,4.299
10.600000,-2.8025,-2.7154,1.6951,4.254
10.601000,-2.8796,-2.7265,1.4442,4.220
10.601000,-2.9269,-2.7432,1.2081,4.189
10.602000,-2.9656,-2.7714,1.0087,4.182
10.602000,-3.0198,-2.8261,0.8433,4.221
10.602000,-3.1015,-2.9215,0.6995,4.318
10.603000,-3.1915,-3.0333,0.6032,4.444
10.603000,-3.2996,-3.1761,0.5342,4.611
10.608000,-3.4110,-3.3341,0.4687,4.793
10.613000,-3.5138,-3.4979,0.4133,4.975
10.619000,-3.6106,-3.6768,0.3795,5.167
10.624000,-3.7203,-3.8825,0.3597,5.389
10.629000,-3.8431,-4.1122,0.3345,5.638
10.633000,-3.9836,-4.3444,0.2966,5.902
10.639000,-4.1249,-4.5657,0.2655,6.159
10.644000,-4.2527,-4.7619,0.2509,6.389
10.662000,-4.3718,-4.9281,0.2504,6.593
10.663000,-4.4750,-5.0425,0.2526,6.747
10.663000,-4.5554,-5.1223,0.2575,6.860
10.664000,-4.5912,-5.1952,0.2251,6.937
10.669000,-4.5756,-5.2738,0.1485,6.984
10.673000,-4.5182,-5.3939,0.0354,7.036
10.678000,-4.4359,-5.5339,-0.0781,7.093
10.683000,-4.3479,-5.6799,-0.1685,7.155
10.688000,-4.2663,-5.8098,-0.2593,7.213
10.694000,-4.2077,-5.9359,-0.3702,7.285
10.698000,-4.1722,-6.0770,-0.5254,7.390
10.705000,-4.1407,-6.2187,-0.7009,7.504
10.710000,-4.1059,-6.3797,-0.8588,7.635
10.714000,-4.0488,-6.5602,-0.9903,7.772
10.720000,-4.0052,-6.7356,-1.1124,7.915
10.724000,-3.9942,-6.8940,-1.2426,8.064
10.730000,-3.9919,-7.0402,-1.3979,8.213
10.734000,-4.0197,-7.1835,-1.5620,8.379
10.739000,-4.0751,-7.2879,-1.7377,8.529
10.744000,-4.1677,-7.3607,-1.8958,8.669
10.749000,-4.3189,-7.3923,-2.0054,8.793
10.754000,-4.4949,-7.3801,-2.0665,8.885
10.759000,-4.6645,-7.3502,-2.1245,8.961
10.774000,-4.8277,-7.3121,-2.1816,9.030
10.775000,-4.9747,-7.2345,-2.2498,9.064
10.776000,-4.9573,-7.1536,-2.3426,9.013
10.779000,-5.1078,-7.0791,-2.4547,9.068
10.816000,-5.0195,-7.0323,-2.5878,9.019
10.817000,-4.8098,-6.9921,-2.6764,8.899
10.818000,-4.4883,-6.9468,-2.7637,8.720
10.818000,-4.1345,-6.9028,-2.9016,8.553
10.819000,-3.7960,-6.8841,-3.1280,8.461
10.819000,-3.4993,-6.8410,-3.3969,8.401
10.820000,-3.2420,-6.7357,-3.6473,8.318
10.821000,-2.9882,-6.5398,-3.7878,8.127
10.823000,-2.7569,-6.2700,-3.7673,7.817
10.828000,-2.5150,-5.9423,-3.5666,7.373
10.833000,-2.2602,-5.6116,-3.2389,6.862
10.838000,-1.9948,-5.3117,-2.8304,6.341
10.843000,-1.7381,-5.0671,-2.3945,5.868
10.848000,-1.5234,-4.9203,-1.9580,5.510
10.854000,-1.3464,-4.8555,-1.5432,5.270
10.858000,-1.1778,-4.8529,-1.1578,5.126
10.867000,-1.0128,-4.8857,-0.7593,5.047
10.869000,-0.7796,-4.9229,-0.3032,4.993
10.873000,-0.4758,-4.9428,0.1712,4.969
10.878000,-0.1038,-4.9047,0.6532,4.949
10.906000,0.3283,-4.7960,1.1151,4.935
10.907000,0.7752,-4.6261,1.4790,4.918
10.907000,1.1862,-4.3862,1.6604,4.838
10.908000,1.4868,-4.1055,1.5971,4.649
10.909000,1.6894,-3.8077,1.2681,4.354
10.909000,1.7692,-3.5133,0.7010,3.996
10.915000,1.7889,-3.2314,-0.0238,3.694
10.919000,1.7555,-2.9309,-0.8501,3.521
10.924000,1.6499,-2.6357,-1.7116,3.549
10.928000,1.4891,-2.3360,-2.5141,3.741
10.933000,1.2687,-2.0502,-3.2349,4.035
10.938000,0.9810,-1.7911,-3.8349,4.345
10.943000,0.6339,-1.5814,-4.2822,4.609
10.949000,0.2612,-1.3799,-4.5384,4.751
10.955000,-0.0864,-1.1838,-4.5815,4.733
10.960000,-0.3654,-1.0041,-4.4069,4.535
10.967000,-0.5427,-0.8391,-4.0128,4.135
10.972000,-0.6064,-0.6958,-3.4331,3.555
10.975000,-0.5782,-0.6099,-2.7526,2.878
10.980000,-0.5441,-0.5768,-2.0628,2.210
11.025000,-0.5110,-0.5696,-1.3931,1.589
11.026000,-0.4436,-0.5867,-0.7297,1.036
11.027000,-0.3512,-0.6061,-0.0636,0.703
11.027000,-0.2863,-0.5967,0.5663,0.871
11.027000,-0.2037,-0.5610,1.1498,1.295
11.029000,-0.1174,-0.5013,1.6865,1.763
11.030000,0.0205,-0.3958,2.1686,2.205
11.030000,0.1877,-0.2406,2.5715,2.590
11.031000,0.3580,-0.0428,2.8616,2.884
11.031000,0.5072,0.1757,3.0435,3.090
11.036000,0.6377,0.4127,3.1173,3.209
11.039000,0.7856,0.6418,3.1097,3.271
11.045000,0.9617,0.9027,3.0399,3.314
11.050000,1.1685,1.1453,2.9205,3.348
11.055000,1.3867,1.4077,2.7614,3.396
11.059000,1.5849,1.6609,2.5939,3.464
11.064000,1.7511,1.9003,2.3945,3.523
11.069000,1.8726,2.1034,2.1752,3.558
11.077000,1.9522,2.2924,1.9389,3.581
11.080000,1.9755,2.4362,1.7074,3.571
11.085000,1.9405,2.5590,1.4977,3.544
11.089000,1.8930,2.6730,1.2884,3.520
11.094000,1.8406,2.7838,1.0774,3.507
11.126000,1.7808,2.8979,0.8863,3.515
11.127000,1.7448,2.9992,0.7370,3.547
11.127000,1.7331,3.1117,0.6607,3.623
11.128000,1.7862,3.2355,0.6690,3.756
11.128000,1.6893,3.3805,0.7449,3.852
11.128000,1.6859,3.5462,0.8401,4.015
11.136000,1.7186,3.7137,0.9852,4.209
11.136000,1.7755,3.8662,1.1395,4.404
11.139000,1.8994,3.9750,1.2881,4.590
11.144000,2.1093,4.0807,1.4067,4.804
11.149000,2.3810,4.2287,1.4926,5.077
11.154000,2.6869,4.3941,1.5361,5.375
11.159000,2.9764,4.5744,1.5466,5.672
11.164000,3.2203,4.7598,1.5263,5.946
11.169000,3.4349,4.9187,1.4990,6.184
11.174000,3.6011,5.0585,1.4862,6.385
11.180000,3.7372,5.1739,1.5066,6.558
11.184000,3.8314,5.2675,1.5169,6.688
11.189000,3.8645,5.3130,1.5048,6.740
11.194000,3.8080,5.3083,1.4270,6.687
11.199000,3.6792,5.2681,1.2765,6.551
11.205000,3.4950,5.1924,1.0181,6.341
11.210000,3.3134,5.1081,0.6646,6.125
11.216000,3.1804,5.0297,0.2601,5.957
11.225000,3.1271,4.9620,-0.1395,5.867
11.226000,3.1295,4.8906,-0.4954,5.827
11.229000,3.1327,4.7895,-0.8215,5.782
11.267000,3.1127,4.6298,-1.1291,5.692
11.269000,3.0773,4.4144,-1.4036,5.561
11.269000,3.0508,4.1532,-1.6516,5.412
11.270000,3.0576,3.8442,-1.8611,5.253
11.270000,3.0838,3.5213,-2.0032,5.091
11.270000,3.1438,3.2322,-2.0755,4.964
11.271000,3.2451,2.9894,-2.0876,4.881
11.272000,3.4140,2.8285,-2.0253,4.874
11.274000,3.6050,2.7136,-1.9179,4.903
11.281000,3.8397,2.6280,-1.8085,4.992
11.284000,4.1033,2.5643,-1.7283,5.138
11.290000,4.4243,2.4983,-1.6677,5.348
11.294000,4.8022,2.4418,-1.6193,5.625
11.299000,5.2008,2.3946,-1.5570,5.934
11.306000,5.6005,2.3659,-1.4687,6.255
11.311000,5.9818,2.3387,-1.3786,6.569
11.319000,6.3515,2.3152,-1.2820,6.881
11.320000,6.7189,2.3000,-1.1865,7.200
11.325000,7.0456,2.2285,-1.0776,7.468
11.361000,7.2982,2.1413,-0.9365,7.663
11.362000,7.5175,2.0888,-0.8066,7.844
11.363000,7.7344,2.0659,-0.6594,8.033
11.363000,7.9800,2.0513,-0.4834,8.254
11.364000,8.2252,2.0254,-0.3219,8.477
11.364000,8.4699,1.9548,-0.2136,8.695
11.365000,8.6946,1.8274,-0.1777,8.886
11.365000,8.8635,1.6504,-0.1993,9.018
11.370000,8.9719,1.4549,-0.2403,9.092
11.375000,9.0295,1.2551,-0.2451,9.120
11.380000,9.0504,1.0918,-0.2019,9.118
11.385000,9.0327,0.9530,-0.1156,9.084
11.390000,9.0002,0.8432,0.0141,9.040
11.394000,8.9458,0.7745,0.2517,8.983
11.400000,8.8791,0.7683,0.6134,8.933
11.407000,8.8048,0.8148,1.0915,8.909
11.410000,8.6917,0.8756,1.6683,8.894
11.420000,8.5803,0.9507,2.2593,8.924
11.421000,8.4614,1.0163,2.7510,8.955
11.426000,8.3251,1.0722,3.1071,8.950
11.470000,8.2024,1.0993,3.3062,8.912
11.473000,8.0863,1.1117,3.3368,8.818
11.473000,7.9933,1.0997,3.1945,8.678
11.474000,7.9537,1.0386,2.8925,8.527
11.474000,7.9537,0.9263,2.5132,8.393
11.475000,7.9569,0.7429,2.0765,8.257
11.475000,7.9534,0.5098,1.6069,8.130
11.475000,7.9195,0.2625,1.1076,8.001
11.476000,7.8357,-0.0019,0.5672,7.856
11.476000,7.6959,-0.2829,0.0200,7.701
11.481000,7.4667,-0.5929,-0.5357,7.509
11.485000,7.1894,-0.9484,-1.0679,7.330
11.490000,6.8885,-1.3730,-1.5354,7.190
11.495000,6.5620,-1.8262,-1.8972,7.071
11.501000,6.2187,-2.3017,-2.1513,6.971
11.506000,5.8588,-2.7685,-2.2766,6.868
11.511000,5.4829,-3.2260,-2.2905,6.761
11.516000,4.8524,-3.5038,-2.2274,6.386
11.521000,4.2633,-3.7946,-2.1233,6.090
11.526000,4.0998,-4.1346,-1.8376,6.106
11.564000,4.0416,-4.4081,-1.4608,6.156
11.566000,3.9225,-4.6569,-1.1065,6.188
11.567000,3.7232,-4.7831,-0.7850,6.112
11.568000,3.4247,-4.7797,-0.4797,5.900
11.570000,3.0701,-4.6950,-0.1643,5.612
11.572000,2.7249,-4.6089,0.1728,5.357
11.573000,2.4246,-4.5555,0.5052,5.185
11.574000,2.1713,-4.5469,0.8159,5.104
11.575000,1.9627,-4.5877,1.0784,5.105
11.576000,1.7550,-4.6501,1.2760,5.131
11.582000,1.5371,-4.7206,1.4297,5.166
11.586000,1.2944,-4.7975,1.5757,5.213
11.593000,1.0318,-4.8831,1.7497,5.289
11.597000,0.7636,-4.9724,1.9609,5.399
11.602000,0.4632,-5.0422,2.1658,5.507
11.606000,0.1387,-5.1097,2.3165,5.612
11.611000,-0.2125,-5.1850,2.4199,5.726
11.616000,-0.6068,-5.2414,2.4693,5.826
11.620000,-1.0274,-5.2882,2.4938,5.936
11.626000,-1.4501,-5.3009,2.5058,6.040
11.635000,-1.8894,-5.2730,2.5029,6.135
11.636000,-2.3253,-5.2120,2.4547,6.213
11.641000,-2.7677,-5.1280,2.3951,6.300
11.646000,-3.1686,-5.0038,2.3125,6.358
11.671000,-3.5209,-4.8729,2.2193,6.408
11.672000,-3.8370,-4.7408,2.1257,6.459
11.672000,-4.1091,-4.6105,2.0607,6.511
11.673000,-4.3449,-4.4924,1.9984,6.562
11.673000,-4.5492,-4.3866,1.9460,6.612
11.676000,-4.7343,-4.2833,1.9085,6.664
11.683000,-4.8908,-4.1740,1.8812,6.699
11.686000,-5.0089,-4.0883,1.8550,6.726
11.692000,-5.0987,-3.9985,1.8201,6.730
11.696000,-5.1696,-3.9525,1.7746,6.745
11.702000,-5.2363,-3.9431,1.7329,6.780
11.707000,-5.3180,-3.9610,1.6974,6.845
11.712000,-5.4076,-3.9828,1.6635,6.919
11.716000,-5.4977,-4.0120,1.6265,6.998
11.722000,-5.5790,-4.0515,1.5699,7.071
11.727000,-5.6706,-4.0941,1.4913,7.151
11.731000,-5.7535,-4.1469,1.3789,7.225
11.737000,-5.8349,-4.2394,1.2690,7.323
11.740000,-5.9171,-4.3558,1.1568,7.438
11.747000,-5.9955,-4.4893,1.0614,7.565
11.751000,-6.0748,-4.6160,0.9805,7.692
11.756000,-6.1743,-4.7357,0.9092,7.834
11.761000,-6.2869,-4.8489,0.8474,7.985
11.796000,-6.5559,-5.0881,0.7257,8.330
11.797000,-6.5532,-5.1641,0.7381,8.376
11.798000,-6.6569,-5.3613,0.7119,8.577
11.798000,-6.7428,-5.6217,0.6806,8.805
11.799000,-6.7917,-5.9264,0.6488,9.037
11.799000,-6.8684,-6.2333,0.6421,9.297
11.799000,-6.9562,-6.5210,0.6433,9.556
11.801000,-7.0289,-6.7962,0.6712,9.800
11.806000,-7.0961,-7.0181,0.7087,10.006
11.811000,-7.1437,-7.2104,0.7628,10.179
11.816000,-7.1981,-7.3779,0.8332,10.341
11.821000,-7.2545,-7.5485,0.8862,10.507
11.833000,-7.3082,-7.7031,0.9384,10.660
11.835000,-7.3618,-7.8247,0.9775,10.788
11.841000,-7.4416,-7.9393,1.0153,10.929
11.841000,-7.5260,-8.0299,1.0350,11.054
11.849000,-7.5649,-8.1126,1.0604,11.143
11.866000,-7.5775,-8.2138,1.0407,11.224
11.867000,-7.5686,-8.3665,1.0219,11.328
11.867000,-7.4735,-8.4771,1.0444,11.349
11.868000,-7.3307,-8.5337,1.0888,11.303
11.871000,-7.1544,-8.5531,1.1544,11.210
11.877000,-6.9423,-8.5838,1.2290,11.108
11.903000,-6.7016,-8.6137,1.2882,10.989
11.904000,-6.4416,-8.6502,1.3298,10.867
11.905000,-6.1240,-8.6551,1.4038,10.695
11.906000,-5.7605,-8.6379,1.5055,10.491
11.906000,-5.3536,-8.5879,1.6062,10.247
11.907000,-4.9437,-8.5100,1.6893,9.986
11.912000,-4.5401,-8.4310,1.7336,9.731
11.916000,-4.0780,-8.3754,1.7160,9.472
11.921000,-3.5477,-8.3747,1.5872,9.233
11.925000,-2.9657,-8.4216,1.3313,9.027
11.931000,-2.3249,-8.4872,0.9353,8.849
11.936000,-1.7234,-8.5286,0.4355,8.712
11.941000,-1.2184,-8.5301,-0.1126,8.617
11.948000,-0.8577,-8.4923,-0.7039,8.564
11.952000,-0.6672,-8.4243,-1.3040,8.551
11.955000,-0.6373,-8.3515,-1.8357,8.575
11.960000,-0.7316,-8.2776,-2.2483,8.609
11.985000,-0.9186,-8.1687,-2.4912,8.589
11.986000,-1.1405,-8.0122,-2.5142,8.475
11.986000,-1.3013,-7.8054,-2.2965,8.240
11.986000,-1.3553,-7.5781,-1.8508,7.918
11.986000,-1.2646,-7.3438,-1.2093,7.549
11.991000,-1.0744,-7.0898,-0.4640,7.186
11.997000,-0.8065,-6.7780,0.2715,6.831
12.001000,-0.4512,-6.4088,0.9393,6.493
12.006000,-0.0064,-6.0140,1.5058,6.200
12.012000,0.5496,-5.5886,1.9351,5.940
12.017000,1.2156,-5.1522,2.2414,5.749
12.022000,1.9602,-4.7241,2.3938,5.647
12.027000,2.7395,-4.3154,2.3798,5.638
12.031000,3.4571,-3.9414,2.2206,5.694
12.036000,4.0602,-3.5832,1.9690,5.762
12.041000,4.5426,-3.2336,1.6656,5.819
12.047000,4.9067,-2.8946,1.3679,5.859
12.051000,5.1547,-2.5546,1.0857,5.855
12.056000,5.2840,-2.2469,0.8406,5.803
12.060000,5.3046,-1.9685,0.6425,5.694
12.067000,5.1846,-1.7010,0.4627,5.476
12.072000,4.9320,-1.4506,0.3015,5.150
12.076000,4.5975,-1.2093,0.1615,4.757
12.120000,4.2197,-0.9788,0.0406,4.332
12.121000,3.8353,-0.7580,-0.0274,3.910
12.121000,3.5084,-0.5403,-0.0281,3.550
12.122000,3.2347,-0.3128,0.0002,3.250
12.122000,3.0645,-0.0706,0.0526,3.066
12.122000,2.9904,0.1888,0.0936,2.998
12.123000,2.9787,0.4315,0.1352,3.013
12.123000,3.0653,0.6436,0.1772,3.137
12.124000,3.1963,0.8096,0.2315,3.305
12.127000,3.3095,0.9441,0.2980,3.454
12.131000,3.4192,1.0566,0.3691,3.598
12.137000,3.4917,1.1471,0.4591,3.704
12.142000,3.5370,1.2426,0.5508,3.789
12.147000,3.5470,1.3255,0.6108,3.836
12.152000,3.5558,1.4251,0.6508,3.886
12.157000,3.5728,1.5581,0.6446,3.951
12.161000,3.5789,1.7342,0.6186,4.025
12.167000,3.5480,1.9655,0.5873,4.098
12.172000,3.4315,2.2010,0.5267,4.111
12.177000,3.2706,2.4414,0.4416,4.105
12.188000,3.0751,2.6651,0.3466,4.084
12.189000,2.8645,2.8750,0.2635,4.067
12.192000,2.6771,3.0712,0.1997,4.079
12.246000,2.5015,3.2423,0.1500,4.098
12.247000,2.3371,3.4093,0.0931,4.134
12.247000,2.2153,3.5679,0.0195,4.200
12.248000,2.1554,3.7324,-0.0375,4.310
12.249000,2.1237,3.8838,-0.0728,4.427
12.249000,2.1443,4.0248,-0.1011,4.561
12.250000,2.1925,4.1330,-0.1605,4.681
12.251000,2.2493,4.2304,-0.2510,4.798
12.251000,2.3051,4.2954,-0.4011,4.891
12.251000,2.3645,4.3495,-0.6057,4.988
12.252000,2.4492,4.3926,-0.8305,5.097
12.252000,2.5395,4.3838,-1.0345,5.171
12.256000,2.6427,4.3448,-1.2005,5.225
12.261000,2.7324,4.2803,-1.3379,5.251
12.267000,2.8180,4.2047,-1.4419,5.263
12.273000,2.8734,4.1228,-1.5217,5.251
12.277000,2.8630,4.0060,-1.5532,5.163
12.284000,2.7986,3.8784,-1.5270,5.021
12.288000,2.7143,3.7522,-1.4433,4.851
12.292000,2.6105,3.6158,-1.3092,4.648
12.297000,2.5114,3.4718,-1.1444,4.435
12.338000,2.4510,3.3182,-0.9538,4.234
12.339000,2.4556,3.1813,-0.7570,4.089
12.339000,2.4966,3.0757,-0.5422,3.998
12.339000,2.5764,2.9990,-0.3288,3.967
12.340000,2.6877,2.9320,-0.1053,3.979
12.340000,2.8352,2.8722,0.1137,4.037
12.340000,2.9926,2.7864,0.3278,4.102
12.340000,3.1405,2.6886,0.5173,4.166
12.343000,3.2790,2.6030,0.6870,4.243
12.350000,3.4056,2.5343,0.8340,4.326
12.352000,3.5420,2.4993,0.9392,4.436
12.357000,3.7074,2.5052,1.0100,4.587
12.362000,3.9274,2.5324,1.0583,4.791
12.367000,4.1615,2.5546,1.1127,5.008
12.372000,4.3926,2.5599,1.1755,5.218
12.377000,4.6182,2.5626,1.2105,5.419
12.384000,4.8313,2.5603,1.2249,5.603
12.388000,5.0529,2.5671,1.2041,5.794
12.392000,5.2688,2.5759,1.1676,5.980
12.447000,5.4668,2.6034,1.1249,6.159
12.447000,5.6709,2.6328,1.0690,6.343
12.448000,5.9003,2.6809,1.0096,6.559
12.448000,6.1399,2.7640,0.9416,6.799
12.448000,6.3778,2.8749,0.8437,7.046
12.449000,6.5754,2.9800,0.7089,7.254
12.449000,6.7518,3.1006,0.5710,7.452
12.449000,6.8995,3.2150,0.4377,7.624
12.450000,7.0019,3.3136,0.3259,7.753
12.450000,7.1113,3.4035,0.2549,7.888
12.450000,7.2111,3.4655,0.2055,8.003
12.453000,7.3130,3.5260,0.1826,8.121
12.458000,7.4099,3.5777,0.1861,8.230
12.463000,7.4824,3.6421,0.2326,8.325
12.468000,7.5470,3.6760,0.3195,8.401
12.473000,7.5776,3.6843,0.4510,8.438
12.477000,7.5692,3.6910,0.5981,8.442
12.483000,7.5387,3.7057,0.7748,8.436
12.487000,7.5269,3.6901,1.0092,8.443
12.492000,7.5071,3.6779,1.3052,8.461
12.500000,7.4723,3.6643,1.6094,8.477
12.503000,7.4057,3.6685,1.8659,8.473
12.507000,7.3288,3.6906,2.0001,8.446
12.512000,7.2731,3.7137,1.9716,8.401
12.546000,7.2766,3.7331,1.7904,8.372
12.548000,7.4111,3.7723,1.4986,8.450
12.549000,7.6761,3.8189,1.0756,8.641
12.550000,8.0348,3.8294,0.6303,8.923
12.550000,8.4198,3.7480,0.1707,9.218
12.551000,8.7537,3.5553,-0.2975,9.453
12.552000,9.0134,3.2849,-0.7203,9.620
12.552000,9.2010,2.9700,-1.0829,9.729
12.557000,9.2572,2.6082,-1.3515,9.712
12.563000,9.1848,2.2404,-1.5738,9.584
12.567000,9.0492,1.8812,-1.7399,9.405
12.573000,8.8815,1.5399,-1.7924,9.190
12.578000,8.6876,1.2125,-1.6978,8.935
12.584000,8.4413,0.9369,-1.4857,8.622
12.588000,8.1809,0.6989,-1.1783,8.295
12.592000,7.8996,0.4723,-0.8074,7.955
12.598000,7.6235,0.2255,-0.4001,7.637
12.603000,7.3585,-0.0570,0.0144,7.359
12.608000,7.0758,-0.3637,0.3686,7.095
12.612000,6.7995,-0.6681,0.6625,6.864
12.619000,6.5393,-0.9916,0.9294,6.679
12.622000,6.3288,-1.3151,1.1762,6.570
12.627000,6.2321,-1.6247,1.4241,6.596
12.667000,5.9562,-1.9385,1.6492,6.477
12.667000,5.8069,-2.2426,1.8203,6.486
12.668000,5.6479,-2.5323,1.9348,6.485
12.668000,5.4889,-2.7789,1.9452,6.452
12.669000,5.2793,-2.9831,1.8254,6.333
12.669000,5.0418,-3.1318,1.6001,6.147
12.669000,4.7786,-3.2279,1.3058,5.913
12.670000,4.4873,-3.3004,0.9788,5.656
12.674000,4.1801,-3.3492,0.6414,5.395
12.677000,3.8423,-3.3750,0.3080,5.123
12.683000,3.4800,-3.3954,0.0032,4.862
12.688000,3.1191,-3.3967,-0.2395,4.618
12.693000,2.7527,-3.3931,-0.4057,4.388
12.699000,2.3952,-3.3820,-0.4933,4.173
12.702000,2.0588,-3.3799,-0.5361,3.994
12.708000,1.7502,-3.4066,-0.5345,3.867
12.713000,1.4635,-3.4770,-0.4742,3.802
12.718000,1.1621,-3.5749,-0.3510,3.775
12.723000,0.8441,-3.6570,-0.1966,3.758
12.728000,0.4783,-3.7014,-0.0018,3.732
12.775000,0.1100,-3.7063,0.2209,3.714
12.776000,-0.2527,-3.6794,0.4592,3.717
12.777000,-0.5910,-3.6474,0.6869,3.758
12.777000,-0.8857,-3.6032,0.8968,3.817
12.777000,-1.1274,-3.5418,1.0842,3.872
12.778000,-1.2879,-3.4760,1.2541,3.913
12.778000,-1.3787,-3.4213,1.3900,3.942
12.778000,-1.3813,-3.1945,1.5470,3.809
12.779000,-1.4321,-3.3174,1.5412,3.928
12.779000,-1.4166,-3.2877,1.5693,3.909
12.785000,-1.4161,-3.2781,1.5977,3.912
12.787000,-1.4430,-3.2872,1.6028,3.932
12.794000,-1.5133,-3.3422,1.5941,4.000
12.798000,-1.6250,-3.4414,1.5742,4.119
12.803000,-1.7731,-3.5774,1.5646,4.288
12.808000,-1.9693,-3.7284,1.5677,4.499
12.813000,-2.1948,-3.8757,1.5762,4.725
12.819000,-2.4512,-4.0222,1.5685,4.965
12.824000,-2.7243,-4.1492,1.5448,5.198
12.829000,-2.9926,-4.2539,1.5169,5.418
12.834000,-3.2561,-4.3289,1.4969,5.620
12.839000,-3.5099,-4.4458,1.5040,5.861
12.843000,-3.7542,-4.6073,1.5142,6.133
12.889000,-3.9863,-4.7611,1.5274,6.395
12.890000,-4.1802,-4.8791,1.5220,6.603
12.890000,-4.3622,-4.9492,1.5127,6.768
12.890000,-4.5349,-5.0120,1.5114,6.926
12.891000,-4.6888,-5.0729,1.5089,7.071
12.891000,-4.8431,-5.1469,1.4882,7.222
12.892000,-5.0121,-5.2225,1.4519,7.383
12.892000,-5.1768,-5.3065,1.4073,7.546
12.892000,-5.2991,-5.3652,1.3474,7.660
12.893000,-5.3433,-5.4062,1.2867,7.709
12.899000,-5.3382,-5.4382,1.2247,7.718
12.904000,-5.3151,-5.4520,1.1495,7.700
12.908000,-5.2932,-5.4671,1.0703,7.685
12.913000,-5.2657,-5.4859,0.9942,7.669
12.918000,-5.2396,-5.5181,0.9137,7.664
12.923000,-5.1816,-5.5617,0.8314,7.647
12.928000,-5.1422,-5.6230,0.7924,7.661
12.934000,-5.1236,-5.6642,0.7870,7.678
12.938000,-5.1092,-5.7019,0.8007,7.698
12.944000,-5.0800,-5.7169,0.8143,7.691
12.975000,-5.0408,-5.7288,0.8235,7.675
12.976000,-4.9798,-5.7847,0.8328,7.678
12.976000,-4.9256,-5.9064,0.8758,7.740
12.976000,-4.9048,-6.0887,0.9381,7.875
12.977000,-4.9005,-6.3049,1.0051,8.048
12.977000,-4.9391,-6.5071,1.0768,8.240
12.977000,-5.0207,-6.6632,1.1385,8.420
12.985000,-5.0974,-6.7827,1.1831,8.567
12.989000,-5.1551,-6.8724,1.2058,8.675
12.993000,-5.1650,-6.9585,1.1876,8.747
12.998000,-5.1153,-7.0193,1.1095,8.756
13.003000,-5.0228,-7.0575,0.9862,8.718
13.009000,-4.8924,-7.0756,0.8463,8.644
13.013000,-4.7265,-7.0691,0.6947,8.532
13.018000,-4.5369,-7.0458,0.5530,8.398
13.023000,-4.3502,-7.0106,0.4280,8.262
13.028000,-4.1853,-6.9880,0.2959,8.151
13.033000,-4.0470,-6.9996,0.1564,8.087
13.038000,-3.9257,-7.0312,0.0094,8.053
13.043000,-3.8094,-7.0590,-0.1163,8.022
13.054000,-3.7052,-7.0949,-0.2210,8.007
13.056000,-3.5796,-7.1580,-0.3023,8.009
13.059000,-3.4255,-7.2246,-0.3728,8.004
13.119000,-3.2596,-7.3211,-0.4350,8.026
13.120000,-3.1154,-7.4596,-0.4992,8.099
13.121000,-3.0026,-7.6302,-0.5610,8.219
13.121000,-2.9856,-7.7946,-0.6234,8.370
13.122000,-3.0452,-7.9065,-0.6506,8.498
13.122000,-3.1524,-7.9593,-0.6453,8.585
13.123000,-3.2617,-7.9642,-0.5928,8.627
13.123000,-3.3250,-7.9593,-0.5070,8.641
13.123000,-3.3112,-7.9610,-0.4188,8.632
13.124000,-3.2296,-7.9833,-0.3661,8.620
13.124000,-3.0971,-8.0153,-0.3751,8.601
13.125000,-2.9182,-8.0543,-0.4310,8.578
13.125000,-2.7335,-8.0531,-0.5243,8.520
13.129000,-2.5955,-8.0118,-0.6189,8.444
13.135000,-2.4969,-7.9141,-0.6979,8.328
13.140000,-2.4421,-7.7498,-0.7299,8.158
13.144000,-2.4167,-7.5374,-0.7288,7.949
13.148000,-2.4060,-7.3121,-0.6873,7.728
13.154000,-2.3789,-7.0717,-0.5766,7.483
13.159000,-2.3112,-6.8473,-0.4085,7.238
13.164000,-2.2243,-6.6407,-0.1808,7.006
13.169000,-2.1016,-6.4510,0.1019,6.785
13.174000,-1.9931,-6.2679,0.4464,6.592
13.178000,-1.8891,-6.0701,0.8307,6.411
13.188000,-1.7679,-5.8336,1.2213,6.217
13.190000,-1.6100,-5.6055,1.6203,6.053
13.194000,-1.3871,-5.4091,1.9775,5.924
13.251000,-1.0822,-5.2413,2.2641,5.811
13.253000,-0.6740,-5.0954,2.4249,5.683
13.254000,-0.1648,-4.9193,2.4244,5.487
13.255000,0.3924,-4.6902,2.2582,5.220
13.255000,0.9545,-4.4175,1.9746,4.932
13.256000,1.5181,-4.1329,1.5742,4.676
13.256000,2.0426,-3.8699,1.0887,4.509
13.257000,2.4798,-3.6651,0.5448,4.459
13.259000,2.8319,-3.5307,-0.0160,4.526
13.259000,3.0921,-3.4683,-0.5357,4.677
13.260000,3.2859,-3.4340,-0.9994,4.857
13.260000,3.4114,-3.3981,-1.3900,5.012
13.261000,3.4710,-3.3437,-1.7049,5.112
13.264000,3.4553,-3.2586,-1.9464,5.133
13.269000,3.3840,-3.1538,-2.1071,5.083
13.274000,3.3187,-3.0353,-2.1630,4.990
13.280000,3.2716,-2.9142,-2.1165,4.866
13.286000,3.2644,-2.7664,-1.9823,4.716
13.290000,3.3040,-2.6209,-1.7538,4.567
13.293000,3.3622,-2.4983,-1.4290,4.426
13.338000,3.4043,-2.3905,-1.0566,4.292
13.339000,3.4570,-2.2514,-0.6730,4.180
13.340000,3.5395,-2.0858,-0.2738,4.117
13.340000,3.6539,-1.9201,0.1378,4.130
13.341000,3.7424,-1.7808,0.5299,4.178
13.341000,3.7959,-1.6314,0.8780,4.224
13.341000,3.7990,-1.5112,1.2054,4.263
13.342000,3.7979,-1.3308,1.5332,4.307
13.342000,3.8165,-1.1118,1.8302,4.376
13.345000,3.8332,-0.8492,2.1200,4.462
13.350000,3.8389,-0.5425,2.4095,4.565
13.355000,3.8421,-0.2192,2.6574,4.677
13.360000,3.8433,0.1262,2.8324,4.776
13.367000,3.8495,0.4888,2.9370,4.867
13.369000,3.8631,0.8853,2.9763,4.956
13.376000,3.8863,1.3013,2.9551,5.053
13.381000,3.9292,1.7228,2.8832,5.169
13.386000,3.9831,2.1654,2.7562,5.306
13.389000,4.0531,2.6244,2.5815,5.475
13.394000,4.1174,3.0758,2.3833,5.665
13.442000,4.1613,3.5051,2.1550,5.852
13.442000,4.1875,3.9126,1.9300,6.047
13.443000,4.1828,4.2807,1.7208,6.227
13.443000,4.1524,4.5906,1.5106,6.372
13.444000,4.0965,4.8545,1.3139,6.486
13.444000,4.0580,5.0751,1.1235,6.594
13.444000,4.0636,5.2838,0.9059,6.727
13.444000,4.0955,5.5014,0.6616,6.890
13.445000,4.1467,5.7066,0.3717,7.064
13.445000,4.2144,5.9089,0.0749,7.258
13.453000,4.2578,6.0724,-0.2115,7.419
13.455000,4.3125,6.2160,-0.4774,7.581
13.460000,4.3500,6.3353,-0.7131,7.718
13.465000,4.3816,6.4372,-0.9158,7.841
13.471000,4.3859,6.5169,-1.0924,7.931
13.474000,4.3439,6.5509,-1.2501,7.959
13.481000,4.2533,6.5417,-1.3838,7.925
13.485000,4.1315,6.4945,-1.4794,7.838
13.490000,3.9975,6.4260,-1.5222,7.720
13.495000,3.8614,6.3272,-1.5218,7.567
13.502000,3.7404,6.1864,-1.4738,7.378
13.505000,3.6276,6.0015,-1.3688,7.145
13.512000,3.5258,5.8064,-1.2265,6.903
13.516000,3.4451,5.6634,-1.0853,6.717
13.535000,3.3993,5.5438,-0.9597,6.573
13.537000,3.3984,5.4429,-0.8498,6.473
13.539000,3.4591,5.3510,-0.7673,6.418
13.540000,3.5882,5.2299,-0.6932,6.380
13.542000,3.7811,5.0582,-0.6488,6.348
13.545000,4.0251,4.8642,-0.5887,6.341
13.609000,4.2940,4.6361,-0.4963,6.339
13.610000,4.5661,4.4122,-0.3672,6.360
13.611000,4.8247,4.1997,-0.2210,6.400
13.611000,5.0485,3.9964,-0.0771,6.439
13.612000,5.2374,3.8094,0.0423,6.476
13.612000,5.4252,3.6508,0.0990,6.540
13.613000,5.6313,3.5470,0.1217,6.656
13.615000,5.8149,3.4669,0.1345,6.771
13.616000,5.9712,3.3935,0.1133,6.869
13.616000,6.1052,3.3391,0.0656,6.959
13.617000,6.2575,3.3178,0.0177,7.083
13.617000,6.4234,3.3416,-0.0011,7.241
13.617000,6.6169,3.3983,0.0185,7.439
13.618000,6.8522,3.4782,0.0887,7.685
13.620000,7.1050,3.5597,0.1949,7.949
13.625000,7.3318,3.6233,0.2625,8.182
13.630000,7.5634,3.6475,0.2746,8.401
13.635000,7.8331,3.6513,0.2293,8.645
13.639000,8.1333,3.6273,0.1819,8.907
13.644000,8.4420,3.5850,0.1590,9.173
13.677000,8.7230,3.5144,0.1793,9.406
13.679000,8.9304,3.4514,0.2165,9.577
13.679000,9.0379,3.4078,0.2512,9.662
13.679000,9.0575,3.3429,0.2860,9.659
13.680000,9.0231,3.2686,0.3472,9.603
13.680000,8.9727,3.1922,0.4490,9.534
13.680000,8.9114,3.1183,0.5887,9.460
13.685000,8.8177,3.0232,0.7802,9.354
13.690000,8.7061,2.8854,0.9799,9.224
13.696000,8.5982,2.7098,1.1610,9.090
13.700000,8.5370,2.4747,1.3141,8.985
13.706000,8.5377,2.1856,1.4314,8.928
13.712000,8.5902,1.8375,1.5248,8.916
13.717000,8.6586,1.4973,1.5366,8.920
13.721000,8.7262,1.1890,1.4812,8.931
13.725000,8.7426,0.8762,1.3924,8.896
13.730000,8.7037,0.5667,1.2822,8.816
13.778000,8.6217,0.2195,1.1583,8.702
13.780000,8.4972,-0.1218,1.0329,8.561
13.780000,8.3378,-0.4191,0.9281,8.400
13.781000,8.1487,-0.6744,0.8701,8.223
13.782000,7.9417,-0.8691,0.8494,8.034
13.783000,7.7394,-0.9808,0.8783,7.851
13.783000,7.6084,-1.0077,0.9661,7.735
13.784000,7.5415,-0.9643,1.1178,7.685
13.785000,7.5644,-0.8653,1.2687,7.719
13.786000,7.6905,-0.7188,1.4092,7.851
13.786000,7.8697,-0.5511,1.5400,8.038
13.791000,8.0721,-0.4374,1.6154,8.244
13.796000,8.2423,-0.4189,1.6430,8.415
13.801000,8.3753,-0.4793,1.6068,8.541
13.806000,8.4422,-0.6403,1.5285,8.603
13.811000,8.4329,-0.8861,1.3729,8.590
13.818000,8.3610,-1.2347,1.1504,8.530
13.821000,8.2097,-1.6362,0.8946,8.419
13.825000,7.9867,-2.0499,0.6182,8.269
13.877000,7.7043,-2.4254,0.3692,8.086
13.880000,7.3603,-2.7969,0.1789,7.876
13.882000,6.9901,-3.1816,0.0569,7.680
13.884000,6.5983,-3.5751,0.0146,7.505
13.886000,6.2047,-3.9507,0.0489,7.356
13.887000,5.7978,-4.3032,0.1402,7.222
13.890000,5.3774,-4.5994,0.2754,7.081
13.892000,4.9617,-4.8640,0.4393,6.962
13.892000,4.5624,-5.1189,0.6097,6.884
13.893000,4.1964,-5.3541,0.8075,6.850
13.896000,3.8590,-5.5695,1.0128,6.851
13.897000,3.7608,-5.7554,1.2300,6.984
13.898000,3.1715,-5.9076,1.4584,6.862
13.902000,2.8223,-6.0243,1.6523,6.855
13.903000,2.4758,-6.1254,1.8112,6.851
13.908000,2.1439,-6.2177,1.9306,6.854
13.910000,1.8436,-6.3275,2.0130,6.891
13.917000,1.5839,-6.4172,2.0679,6.926
13.921000,1.3513,-6.4898,2.0648,6.943
13.927000,1.1334,-6.5104,1.9917,6.902
13.935000,0.8631,-6.4911,1.8564,6.806
13.936000,0.5359,-6.4272,1.6809,6.665
13.940000,0.1634,-6.3457,1.5016,6.523
13.945000,-0.2392,-6.2617,1.3214,6.404
13.986000,-0.6411,-6.1757,1.1766,6.319
13.988000,-1.0468,-6.0994,1.0650,6.280
13.989000,-1.4277,-6.0327,0.9652,6.274
13.992000,-1.7866,-5.9618,0.8796,6.286
13.993000,-2.1227,-5.8730,0.8086,6.297
13.994000,-2.4509,-5.7957,0.7377,6.336
13.995000,-2.7783,-5.7343,0.6887,6.409
13.997000,-3.1049,-5.6506,0.6546,6.481
13.998000,-3.4165,-5.5826,0.6378,6.576
13.999000,-3.7205,-5.5215,0.6242,6.687
14.003000,-4.0092,-5.4677,0.6094,6.807
14.006000,-4.2711,-5.4387,0.5983,6.941
14.011000,-4.5015,-5.4176,0.5696,7.067
14.016000,-4.7005,-5.4138,0.5305,7.189
14.021000,-4.8899,-5.4161,0.4979,7.314
14.026000,-5.0455,-5.4514,0.4578,7.442
14.032000,-5.2036,-5.4870,0.4077,7.573
14.036000,-5.3666,-5.5204,0.3646,7.708
14.041000,-5.5346,-5.5443,0.3474,7.842
14.046000,-5.7173,-5.5546,0.3204,7.978
14.057000,-5.8954,-5.5689,0.2909,8.115
14.059000,-6.0693,-5.5710,0.2349,8.242
14.061000,-6.2413,-5.5703,0.1836,8.368
14.108000,-6.4091,-5.5859,0.1442,8.503
14.109000,-6.5610,-5.5777,0.1046,8.612
14.110000,-6.7184,-5.5755,0.0598,8.731
14.110000,-6.8410,-5.5560,0.0143,8.813
14.111000,-6.9550,-5.5336,-0.0225,8.888
14.111000,-7.0654,-5.5226,-0.0651,8.968
14.111000,-7.1986,-5.5373,-0.0875,9.082
14.112000,-7.3235,-5.5685,-0.0921,9.201
14.112000,-7.4547,-5.5981,-0.0817,9.323
14.113000,-7.6041,-5.6482,-0.0541,9.472
14.117000,-7.7383,-5.7351,0.0025,9.632
14.121000,-7.8766,-5.8562,0.0663,9.815
14.126000,-8.0047,-6.0113,0.1346,10.011
14.131000,-8.0918,-6.1969,0.2144,10.194
14.136000,-8.1713,-6.3963,0.2721,10.381
14.141000,-8.2508,-6.5901,0.3290,10.565
14.151000,-8.3373,-6.7446,0.3729,10.730
14.152000,-8.4526,-6.8790,0.4089,10.906
14.156000,-8.5800,-6.9876,0.4342,11.074
14.162000,-8.7124,-7.0945,0.4301,11.244
14.203000,-8.8092,-7.1897,0.4014,11.378
14.205000,-8.8633,-7.2707,0.3576,11.469
14.205000,-8.8796,-7.3255,0.3013,11.515
14.205000,-8.8725,-7.3780,0.2227,11.541
14.206000,-8.8206,-7.4089,0.1386,11.520
14.206000,-8.6976,-7.4422,0.0539,11.447
14.206000,-8.5490,-7.4566,-0.0265,11.344
14.207000,-8.3818,-7.4857,-0.1098,11.238
14.207000,-8.2129,-7.5294,-0.1888,11.144
14.213000,-8.0517,-7.5807,-0.2610,11.062
14.217000,-7.9029,-7.6564,-0.3074,11.008
14.222000,-7.7591,-7.7490,-0.3350,10.971
14.227000,-7.6227,-7.8345,-0.3463,10.936
14.232000,-7.4506,-7.9054,-0.3412,10.868
14.237000,-7.2448,-7.9672,-0.3292,10.774
14.241000,-7.0054,-8.0554,-0.3030,10.680
14.248000,-6.7632,-8.1296,-0.2963,10.579
14.252000,-6.5133,-8.1969,-0.2872,10.474
14.257000,-6.2364,-8.2717,-0.2902,10.363
14.261000,-5.9178,-8.3774,-0.3079,10.261
14.266000,-5.5456,-8.5082,-0.3835,10.163
14.272000,-5.1266,-8.6444,-0.5194,10.064
14.277000,-4.6583,-8.7865,-0.6796,9.968
14.289000,-4.1813,-8.9539,-0.8572,9.919
14.290000,-3.6832,-9.1100,-1.0470,9.882
14.291000,-3.1903,-9.2497,-1.2344,9.862
14.296000,-2.6783,-9.3723,-1.4361,9.853
14.349000,-2.1016,-9.5096,-1.6417,9.876
14.351000,-1.4482,-9.6594,-1.8552,9.942
14.351000,-0.7298,-9.8169,-2.0879,10.063
14.352000,-0.0065,-9.9607,-2.3344,10.231
14.353000,0.6453,-10.0837,-2.5895,10.431
14.353000,1.1397,-10.1623,-2.7810,10.597
14.354000,1.4793,-10.1659,-2.8775,10.668
14.355000,1.6811,-10.1353,-2.8166,10.653
14.355000,1.7890,-10.0834,-2.5796,10.561
14.356000,1.8313,-10.0358,-2.1529,10.426
14.356000,1.8447,-9.9959,-1.6254,10.294
14.357000,1.8654,-9.9106,-1.0339,10.137
14.362000,1.8938,-9.7702,-0.3644,9.959
14.367000,1.9136,-9.5762,0.3459,9.772
14.373000,1.9914,-9.3257,1.0477,9.593
14.378000,2.1779,-9.0371,1.6710,9.445
14.385000,2.5448,-8.7369,2.2014,9.362
14.388000,3.0750,-8.3901,2.6289,9.315
14.392000,3.7275,-7.9883,2.9153,9.285
14.397000,4.5355,-7.4957,3.0437,9.275
14.443000,5.4417,-6.8972,3.0738,9.308
14.445000,6.3665,-6.2102,3.0009,9.386
14.447000,7.2896,-5.4649,2.8633,9.550
14.448000,8.0899,-4.6869,2.6587,9.720
14.450000,8.7266,-3.9335,2.4045,9.869
14.451000,9.1612,-3.2266,2.1201,9.942
14.453000,9.4587,-2.5844,1.8252,9.974
14.454000,9.6640,-1.9661,1.5393,9.981
14.456000,9.7813,-1.3791,1.2747,9.960
14.457000,9.8228,-0.8178,1.0078,9.908
14.459000,9.7605,-0.3049,0.7434,9.794
14.460000,9.5807,0.1776,0.4724,9.594
14.462000,9.2498,0.5845,0.2432,9.271
14.467000,8.7755,0.8951,0.0774,8.821
14.473000,8.2255,1.1152,-0.0151,8.301
14.478000,7.6177,1.2560,-0.0294,7.721
14.482000,7.0119,1.3271,-0.0018,7.136
14.487000,6.4523,1.3420,0.0938,6.591
14.492000,5.9249,1.3373,0.2449,6.079
14.500000,5.4591,1.3472,0.4224,5.639
14.504000,5.0628,1.3701,0.6212,5.282
14.507000,4.7523,1.4081,0.8239,5.025
14.512000,4.4945,1.4859,1.0134,4.841
14.570000,4.3063,1.5892,1.1729,4.738
14.573000,4.1876,1.7226,1.2830,4.706
14.574000,4.1095,1.8768,1.3605,4.718
14.575000,4.0938,2.0637,1.3983,4.793
14.576000,4.1107,2.2444,1.3986,4.888
14.577000,4.1414,2.4287,1.3616,4.990
14.580000,4.1736,2.6115,1.2973,5.091
14.581000,4.1905,2.8026,1.2367,5.191
14.582000,4.1971,3.0282,1.1609,5.304
14.583000,4.1927,3.2759,1.0795,5.429
14.585000,4.1798,3.5339,1.0000,5.564
14.585000,4.1681,3.7758,0.9392,5.702
14.586000,4.1432,4.0114,0.9018,5.837
14.587000,4.1005,4.2503,0.8709,5.970
14.588000,4.0346,4.4731,0.8130,6.078
14.593000,3.9628,4.6992,0.7188,6.189
14.606000,3.9043,4.9120,0.5864,6.302
14.610000,3.8663,5.0946,0.4519,6.412
14.610000,3.8489,5.2617,0.3372,6.528
14.612000,3.8251,5.4438,0.2399,6.658
14.653000,3.8237,5.6507,0.1865,6.825
14.654000,3.7800,5.8320,0.1672,6.952
14.655000,3.7420,5.9830,0.1509,7.058
14.656000,3.7215,6.1039,0.1425,7.150
14.657000,3.6950,6.2164,0.1562,7.233
14.657000,3.6690,6.3009,0.1942,7.294
14.657000,3.6318,6.3770,0.2587,7.343
14.658000,3.6025,6.4375,0.3374,7.385
14.659000,3.5858,6.4824,0.4158,7.420
14.663000,3.5748,6.5239,0.4578,7.453
14.667000,3.5594,6.5569,0.4372,7.474
14.673000,3.5590,6.5625,0.3972,7.476
14.677000,3.5855,6.5525,0.3455,7.477
14.682000,3.6268,6.5199,0.3298,7.468
14.687000,3.6518,6.4622,0.3310,7.430
14.692000,3.6820,6.3842,0.3441,7.378
14.700000,3.6626,6.2695,0.3476,7.269
14.703000,3.6415,6.1228,0.3271,7.131
14.707000,3.6266,5.9541,0.3138,6.979
14.713000,3.6633,5.7850,0.3078,6.854
14.757000,3.7493,5.6515,0.3089,6.789
14.758000,3.8677,5.5177,0.3506,6.747
14.758000,4.0162,5.3788,0.4131,6.725
14.758000,4.1588,5.2420,0.4437,6.706
14.759000,4.2837,5.1313,0.4061,6.697
14.759000,4.4195,5.0157,0.2792,6.691
14.759000,4.5951,4.9285,0.1065,6.739
14.760000,4.8317,4.8481,-0.0707,6.845
14.760000,5.1220,4.7839,-0.2308,7.012
14.763000,5.4103,4.7450,-0.3714,7.206
14.767000,5.6581,4.7075,-0.5017,7.377
14.779000,6.0637,4.6137,-0.7365,7.655
14.780000,6.0505,4.6046,-0.7359,7.639
14.784000,6.2120,4.5103,-0.8108,7.719
14.788000,6.3805,4.3979,-0.8415,7.795
14.793000,6.5344,4.3007,-0.8331,7.867
14.800000,6.6615,4.1922,-0.7925,7.911
14.804000,6.7596,4.0629,-0.7346,7.921
14.807000,6.8261,3.9225,-0.6643,7.901
14.813000,6.9019,3.7469,-0.5770,7.875
14.867000,6.9630,3.5435,-0.4896,7.828
14.868000,6.9733,3.3359,-0.4072,7.741
14.868000,6.9382,3.1126,-0.3327,7.612
14.868000,6.8505,2.8831,-0.2805,7.438
14.869000,6.7321,2.6595,-0.2484,7.243
14.869000,6.6073,2.4491,-0.2411,7.051
14.869000,6.5049,2.2641,-0.2440,6.892
14.870000,6.3890,2.1113,-0.2619,6.734
14.870000,6.2673,1.9505,-0.2875,6.570
14.870000,6.1518,1.8079,-0.3230,6.420
14.870000,6.0425,1.6810,-0.3685,6.283
14.874000,5.9467,1.5459,-0.4021,6.157
14.879000,5.8664,1.3738,-0.4143,6.039
14.883000,5.8265,1.1605,-0.3954,5.954
14.888000,5.8410,0.8986,-0.3455,5.920
14.893000,5.9169,0.6025,-0.2958,5.955
14.897000,6.0447,0.2866,-0.2630,6.057
14.903000,6.2167,-0.0637,-0.2494,6.222
14.908000,6.4263,-0.4433,-0.2312,6.446
14.913000,6.6253,-0.8284,-0.2081,6.680
14.918000,6.7611,-1.1809,-0.1661,6.865
14.924000,6.8074,-1.4983,-0.1295,6.972
14.928000,6.7811,-1.7450,-0.1101,7.003
14.935000,6.6974,-1.9562,-0.1292,6.978
14.939000,6.6137,-2.1322,-0.1627,6.951
14.943000,6.5542,-2.2751,-0.1479,6.939
14.998000,6.5068,-2.3564,-0.0777,6.921
14.999000,6.4860,-2.3784,0.0574,6.909
14.999000,6.4627,-2.3321,0.2450,6.875
14.999000,6.4276,-2.2243,0.4559,6.817
15.000000,6.3563,-2.0459,0.6418,6.708
15.000000,6.3181,-1.8403,0.8122,6.631
15.000000,6.3005,-1.6246,0.9646,6.578
15.001000,6.3316,-1.4355,1.1034,6.585
15.001000,6.4211,-1.2798,1.2072,6.658
15.001000,6.5516,-1.1608,1.2688,6.774
15.002000,6.6961,-1.0815,1.3264,6.911
15.003000,6.8352,-1.0616,1.3178,7.042
15.008000,6.8940,-1.1476,1.2650,7.102
15.014000,6.9142,-1.3314,1.1972,7.142
15.019000,6.9386,-1.5851,1.1218,7.205
15.024000,6.8953,-1.9615,0.9742,7.235
15.029000,6.7420,-2.3932,0.8579,7.205
15.036000,6.5056,-2.7963,0.7398,7.120
15.040000,6.2078,-3.1904,0.5937,7.005
15.043000,5.8240,-3.5760,0.4249,6.847
15.085000,5.4115,-3.9632,0.2409,6.712
15.086000,4.9733,-4.3251,0.0876,6.592
15.087000,4.5220,-4.6445,-0.0110,6.482
15.087000,4.0814,-4.9076,-0.0334,6.383
15.087000,3.6551,-5.1315,0.0128,6.300
15.088000,3.2190,-5.2998,0.1227,6.202
15.088000,2.7758,-5.4506,0.2669,6.123
15.088000,2.3447,-5.5690,0.4379,6.058
15.089000,1.9643,-5.6548,0.6303,6.019
15.094000,1.6243,-5.7063,0.8342,5.991
15.099000,1.3328,-5.7337,1.0156,5.974
15.104000,1.0581,-5.7381,1.1742,5.952
15.108000,0.7835,-5.7600,1.3243,5.962
15.115000,0.5256,-5.7945,1.4682,6.001
15.119000,0.2627,-5.8305,1.6055,6.053
15.124000,-0.0093,-5.8682,1.7315,6.118
15.129000,-0.2908,-5.9014,1.8222,6.183
15.134000,-0.5481,-5.9228,1.8703,6.235
15.140000,-0.7719,-5.9084,1.8855,6.250
15.144000,-1.0151,-5.8902,1.8751,6.264
15.152000,-1.3032,-5.8808,1.8345,6.297
15.153000,-1.6437,-5.8736,1.7544,6.347
15.159000,-2.0102,-5.8539,1.6424,6.404
15.197000,-2.3882,-5.8429,1.5203,6.493
15.198000,-2.7776,-5.8332,1.3834,6.607
15.198000,-3.1547,-5.8109,1.2606,6.731
15.198000,-3.5144,-5.7694,1.1304,6.849
15.199000,-3.8689,-5.6973,0.9905,6.958
15.199000,-4.1871,-5.6136,0.8721,7.057
15.199000,-4.4740,-5.5373,0.8044,7.164
15.200000,-4.7393,-5.4570,0.7634,7.268
15.204000,-4.9470,-5.3568,0.7373,7.329
15.209000,-5.0903,-5.2448,0.7311,7.345
15.216000,-5.2244,-5.1426,0.7257,7.367
15.219000,-5.3422,-5.0407,0.7115,7.379
15.223000,-5.4702,-4.9615,0.6888,7.417
15.228000,-5.5891,-4.8917,0.6530,7.456
15.234000,-5.6849,-4.8344,0.6065,7.487
15.239000,-5.7982,-4.7779,0.5493,7.533
15.243000,-5.9028,-4.7389,0.4887,7.585
15.286000,-6.0347,-4.7295,0.4269,7.679
15.287000,-6.1868,-4.7501,0.3760,7.809
15.288000,-6.3565,-4.7850,0.3361,7.963
15.288000,-6.5488,-4.8322,0.3069,8.144
15.288000,-6.7541,-4.8937,0.2932,8.346
15.289000,-6.9749,-4.9431,0.2567,8.553
15.289000,-7.1801,-4.9782,0.2140,8.740
15.289000,-7.3674,-5.0050,0.1701,8.908
15.290000,-7.5537,-5.0260,0.1198,9.074
15.295000,-7.7176,-5.0628,0.0753,9.230
15.300000,-7.8567,-5.1127,0.0388,9.374
15.304000,-7.9832,-5.1826,0.0222,9.518
15.309000,-8.1163,-5.2799,-0.0013,9.683
15.315000,-8.2586,-5.3820,-0.0438,9.858
15.320000,-8.4004,-5.4699,-0.1151,10.025
15.324000,-8.5325,-5.5672,-0.1793,10.190
15.329000,-8.6237,-5.6593,-0.2389,10.318
15.335000,-8.7006,-5.7608,-0.2917,10.439
15.339000,-8.7919,-5.8708,-0.3544,10.578
15.343000,-8.8571,-5.9824,-0.4248,10.697
15.350000,-8.9130,-6.0857,-0.5152,10.805
15.355000,-8.9333,-6.1951,-0.5966,10.888
15.359000,-8.9446,-6.3056,-0.6573,10.963
15.406000,-8.9157,-6.3907,-0.7163,10.993
15.409000,-8.8658,-6.4815,-0.7759,11.010
15.411000,-8.7998,-6.5756,-0.8292,11.016
15.412000,-8.7368,-6.6728,-0.8808,11.029
15.413000,-8.6218,-6.7946,-0.8996,11.014
15.417000,-8.5266,-6.9143,-0.8904,11.014
15.418000,-8.4487,-7.0510,-0.8655,11.038
15.420000,-8.3379,-7.1732,-0.8634,11.033
15.421000,-8.1534,-7.2785,-0.8599,10.963
15.422000,-7.9120,-7.3524,-0.8379,10.833
15.424000,-7.6448,-7.4259,-0.7972,10.687
15.425000,-7.3754,-7.5164,-0.7663,10.558
15.426000,-7.0822,-7.6258,-0.7717,10.436
15.431000,-6.7556,-7.7376,-0.7914,10.302
15.435000,-6.4120,-7.8349,-0.8349,10.159
15.440000,-6.0370,-7.9080,-0.8662,9.987
15.445000,-5.6113,-7.9628,-0.8900,9.782
15.452000,-5.1514,-8.0256,-0.8991,9.579
15.455000,-4.6333,-8.1182,-0.9004,9.391
15.460000,-4.0951,-8.2074,-0.8768,9.214
15.470000,-3.5795,-8.3049,-0.8353,9.082
15.472000,-3.0555,-8.3715,-0.8043,8.948
15.485000,-2.5083,-8.4355,-0.7864,8.836
15.485000,-1.9689,-8.5212,-0.7957,8.782
15.486000,-1.4610,-8.6310,-0.8422,8.794
15.529000,-0.9533,-8.7866,-0.9376,8.888
15.530000,-0.4431,-8.9800,-1.0819,9.056
15.531000,0.0721,-9.2369,-1.2463,9.321
15.532000,0.5782,-9.5347,-1.4286,9.658
15.532000,1.0659,-9.8254,-1.6356,10.017
15.533000,1.5763,-10.0924,-1.8911,10.388
15.535000,2.1001,-10.3039,-2.1490,10.733
15.535000,2.6086,-10.4406,-2.3633,11.018
15.536000,3.1187,-10.4807,-2.5097,11.219
15.536000,3.6187,-10.3744,-2.5400,11.277
15.540000,4.1015,-10.1132,-2.4471,11.184
15.545000,4.5766,-9.7123,-2.2068,10.961
15.550000,5.0036,-9.2149,-1.8146,10.642
15.554000,5.3624,-8.6456,-1.2714,10.253
15.560000,5.6365,-8.0663,-0.6519,9.862
15.564000,5.8451,-7.4724,-0.0289,9.487
15.569000,5.9879,-6.8790,0.6162,9.141
15.574000,6.1155,-6.2804,1.2631,8.857
15.580000,6.2577,-5.7054,1.8532,8.669
15.624000,6.4313,-5.1677,2.3787,8.586
15.624000,6.6671,-4.6676,2.7984,8.606
15.625000,6.9404,-4.2006,3.1118,8.689
15.625000,7.1557,-3.7808,3.3021,8.741
15.625000,7.3591,-3.3576,3.3619,8.760
15.626000,7.5939,-2.9734,3.3560,8.819
15.626000,7.8331,-2.6190,3.2632,8.881
15.626000,8.0832,-2.2468,3.0909,8.941
15.627000,8.2743,-1.8454,2.8732,8.951
15.630000,8.3946,-1.4335,2.6154,8.909
15.635000,8.4064,-1.0221,2.3444,8.787
15.640000,8.3008,-0.6323,2.0563,8.575
15.644000,8.0967,-0.2659,1.7756,8.293
15.650000,7.8110,0.0725,1.5507,7.964
15.655000,7.4447,0.3720,1.3654,7.578
15.659000,7.0422,0.6180,1.2339,7.176
15.667000,6.6334,0.8330,1.1441,6.783
15.672000,6.2231,1.0153,1.0816,6.397
15.674000,5.8549,1.1869,1.0414,6.064
15.679000,5.5120,1.3506,1.0402,5.770
15.726000,5.1976,1.5239,1.0848,5.524
15.727000,4.9062,1.6799,1.1149,5.304
15.729000,4.6813,1.8195,1.1351,5.149
15.730000,4.5159,1.9380,1.1670,5.051
15.731000,4.4026,2.0641,1.2056,5.010
15.731000,4.3298,2.1912,1.2555,5.013
15.732000,4.2894,2.3137,1.3068,5.046
15.732000,4.2577,2.4558,1.3331,5.093
15.732000,4.2513,2.6056,1.3390,5.163
15.733000,4.2797,2.7870,1.3223,5.276
15.737000,4.3358,3.0288,1.2975,5.446
15.740000,4.4278,3.3036,1.2741,5.669
15.746000,4.4767,3.5829,1.2448,5.868
15.750000,4.4585,3.8522,1.1715,6.007
15.756000,4.3755,4.0924,1.0760,6.087
15.762000,4.2280,4.3203,0.9490,6.119
15.764000,4.0666,4.5174,0.8219,6.133
15.770000,3.8814,4.6761,0.6712,6.114
15.782000,3.5319,4.9140,0.4135,6.066
15.783000,3.5731,4.9395,0.4128,6.110
15.784000,3.4259,5.0518,0.3269,6.113
15.792000,3.2942,5.1507,0.2923,6.121
15.795000,3.1776,5.2502,0.2967,6.144
15.800000,3.0740,5.3530,0.3307,6.182
15.804000,3.0072,5.4641,0.3771,6.248
15.809000,2.9438,5.5904,0.4454,6.334
15.867000,2.8742,5.6725,0.5066,6.379
15.869000,2.8006,5.7340,0.5890,6.408
15.869000,2.7303,5.7752,0.6400,6.420
15.870000,2.6754,5.8273,0.6834,6.448
15.870000,2.6094,5.8830,0.7215,6.476
15.870000,2.5493,5.9353,0.7591,6.504
15.871000,2.4832,5.9699,0.7649,6.511
15.871000,2.4322,5.9676,0.7366,6.486
15.871000,2.3822,5.9094,0.6910,6.409
15.872000,2.3167,5.8409,0.6499,6.317
15.872000,2.2500,5.7740,0.6132,6.227
15.872000,2.1872,5.7234,0.5836,6.155
15.875000,2.1520,5.6984,0.5394,6.115
15.879000,2.1684,5.6775,0.4808,6.097
15.886000,2.1931,5.6512,0.4007,6.075
15.890000,2.2262,5.5977,0.3018,6.032
15.895000,2.2602,5.5195,0.1963,5.968
15.899000,2.3071,5.4358,0.0869,5.906
15.905000,2.3645,5.3177,-0.0047,5.820
15.910000,2.4228,5.1678,-0.0545,5.708
