time,ax,ay,az,aT
30.189000,-1.0740,3.0535,3.1197,4.496
30.191000,-0.7621,3.2097,3.3645,4.712
30.191000,-0.4573,3.3157,3.6783,4.973
30.192000,-0.1492,3.3930,3.9128,5.181
30.192000,0.1054,3.4224,4.1183,5.356
30.193000,0.3313,3.3516,4.3855,5.530
30.193000,0.5300,3.2333,4.7048,5.733
30.194000,0.7794,3.0123,5.1670,6.032
30.196000,1.0569,2.7573,5.5809,6.314
30.200000,1.2801,2.5254,5.9110,6.554
30.206000,1.1991,2.2294,6.0478,6.556
30.210000,0.9339,1.8787,5.9537,6.313
30.215000,0.5178,1.4967,5.5192,5.742
30.221000,-0.0922,1.2148,4.9173,5.066
30.225000,-0.6942,1.0045,4.1098,4.287
30.230000,-1.3301,0.7727,3.0875,3.449
30.235000,-1.9302,0.5540,2.1036,2.908
30.245000,-2.3892,0.4063,1.3275,2.763
30.246000,-2.7586,0.3298,0.6633,2.856
30.250000,-3.0792,0.2936,0.0342,3.093
30.292000,-3.2654,0.2999,-0.4691,3.313
30.293000,-3.3596,0.3372,-0.7993,3.470
30.294000,-3.3703,0.4056,-0.8850,3.508
30.295000,-3.3597,0.4686,-0.7906,3.483
30.296000,-3.2656,0.5548,-0.5787,3.363
30.296000,-3.1524,0.5706,-0.2301,3.212
30.296000,-2.9548,0.5343,0.1959,3.009
30.297000,-2.7034,0.4770,0.5152,2.793
30.297000,-2.4045,0.4342,0.7926,2.569
30.300000,-2.1025,0.3534,0.9350,2.328
30.307000,-1.8271,0.2903,0.8633,2.042
30.309000,-1.4961,0.2259,0.6255,1.637
30.315000,-1.1755,0.1782,0.2806,1.222
30.319000,-0.8769,0.0835,0.0054,0.881
30.326000,-0.5804,0.0194,-0.1247,0.594
30.329000,-0.2087,-0.0466,-0.1439,0.258
30.335000,0.1020,-0.1505,0.0312,0.184
30.339000,0.4177,-0.3161,0.3383,0.624
30.345000,0.6813,-0.5033,0.6100,1.044
30.348000,0.8336,-0.7030,0.9018,1.415
30.359000,0.8798,-0.9662,1.1520,1.742
30.360000,0.8775,-1.3058,1.4403,2.133
30.364000,0.8479,-1.6151,1.6310,2.447
30.369000,0.7523,-1.9954,1.5720,2.649
30.413000,0.6432,-2.3254,1.2665,2.725
30.414000,0.5099,-2.6003,0.8630,2.787
30.415000,0.3641,-2.8372,0.2352,2.870
30.415000,0.2026,-3.0140,-0.4520,3.054
30.415000,0.0939,-3.1302,-0.9573,3.275
30.416000,0.0643,-3.2768,-1.5201,3.613
30.416000,0.1198,-3.3694,-2.0570,3.949
30.416000,0.2356,-3.4728,-2.4412,4.252
30.417000,0.3681,-3.5532,-2.7233,4.492
30.418000,0.4219,-3.6584,-2.8126,4.634
30.423000,0.4426,-3.6810,-3.1180,4.844
30.428000,0.3970,-3.7086,-3.4511,5.081
30.433000,0.2420,-3.8126,-3.6710,5.298
30.439000,0.1550,-3.9379,-3.7971,5.473
30.443000,0.0261,-4.0123,-3.8608,5.568
30.447000,-0.0462,-4.0786,-3.9056,5.647
30.454000,-0.1168,-4.1631,-3.9627,5.749
30.459000,-0.1375,-4.1745,-4.0538,5.821
30.464000,-0.2256,-4.2038,-4.0881,5.868
30.468000,-0.2783,-4.2392,-4.1923,5.969
30.474000,-0.2832,-4.2680,-4.3191,6.079
30.478000,-0.2762,-4.2493,-4.2918,6.046
30.483000,-0.2546,-4.1974,-4.2305,5.965
30.524000,-0.2254,-4.1580,-4.1587,5.885
30.526000,-0.2410,-4.1140,-4.1343,5.837
30.527000,-0.3734,-4.0826,-4.1068,5.803
30.528000,-0.5202,-4.0730,-4.0117,5.740
30.528000,-0.5814,-4.0015,-3.9234,5.634
30.529000,-0.7055,-3.9551,-3.7550,5.499
30.529000,-0.8119,-3.8549,-3.6357,5.361
30.530000,-0.8553,-3.7276,-3.5557,5.222
30.530000,-0.8602,-3.6090,-3.5365,5.126
30.532000,-0.8820,-3.4179,-3.4511,4.937
30.539000,-0.9086,-3.2214,-3.3736,4.752
30.543000,-0.8447,-3.0602,-3.2444,4.539
30.548000,-0.7997,-2.8764,-3.0399,4.261
30.552000,-0.7427,-2.6274,-2.8651,3.958
30.558000,-0.7117,-2.4110,-2.6534,3.655
30.562000,-0.6919,-2.1983,-2.4837,3.388
30.567000,-0.6110,-1.9030,-2.3731,3.103
30.581000,-0.5383,-1.6541,-2.1878,2.795
30.584000,-0.4974,-1.5012,-1.9930,2.544
30.584000,-0.2848,-1.1883,-1.9131,2.270
30.623000,-0.0148,-0.7677,-1.6400,1.811
30.624000,0.1293,-0.5674,-1.3628,1.482
30.625000,0.2199,-0.4028,-1.2034,1.288
30.625000,0.4118,-0.2760,-1.0306,1.144
30.625000,0.5741,-0.1439,-0.7057,0.921
30.625000,0.7883,0.0416,-0.4467,0.907
30.625000,0.9422,0.2680,-0.1741,0.995
30.626000,1.0313,0.4492,0.2339,1.149
30.628000,1.1609,0.6545,0.7175,1.514
30.632000,1.2546,0.8258,1.1817,1.911
30.637000,1.1978,0.8286,1.5794,2.148
30.642000,0.9424,0.8090,1.9464,2.309
30.646000,0.6987,0.8261,2.2789,2.523
30.652000,0.4542,0.8007,2.4360,2.604
30.656000,0.1530,0.7521,2.4945,2.610
30.662000,-0.0001,0.6921,2.4787,2.573
30.666000,-0.0089,0.6955,2.2972,2.400
30.672000,0.1811,0.8288,2.1443,2.306
30.677000,0.4260,0.9684,1.9931,2.256
30.681000,0.6779,1.1412,1.9480,2.357
30.688000,1.0854,1.3330,2.0997,2.714
30.692000,1.5467,1.5252,2.3424,3.195
30.698000,2.0225,1.7247,2.7286,3.809
30.702000,2.5162,1.8746,3.3297,4.575
30.712000,2.9167,1.8667,3.7105,5.075
30.713000,3.2128,1.8345,4.1063,5.527
30.716000,3.3818,1.7256,4.4546,5.853
30.723000,3.3959,1.5928,4.8226,6.110
30.753000,3.4186,1.3303,4.9570,6.167
30.754000,3.3684,1.0441,5.0995,6.200
30.754000,3.2333,0.7141,5.3704,6.309
30.755000,2.9230,0.4673,5.7169,6.438
30.755000,2.5329,0.1440,5.9561,6.474
30.756000,2.0036,-0.2056,6.0048,6.334
30.756000,1.4128,-0.5514,5.8592,6.052
30.762000,0.7803,-0.9016,5.5537,5.680
30.766000,0.2320,-1.1649,5.0837,5.221
30.774000,-0.2411,-1.3801,4.4877,4.701
30.777000,-0.5596,-1.5548,3.8331,4.174
30.780000,-0.7168,-1.6042,3.2077,3.657
30.786000,-0.8177,-1.5409,2.6594,3.180
30.791000,-0.8050,-1.4410,2.2905,2.823
30.795000,-0.6179,-1.3511,2.1037,2.575
30.800000,-0.2928,-1.2304,1.9455,2.320
30.808000,0.0215,-1.0511,1.7733,2.062
30.811000,0.3486,-0.8951,1.5466,1.821
30.815000,0.7052,-0.7793,1.1723,1.574
30.820000,0.9912,-0.7151,0.7553,1.437
30.853000,1.2117,-0.6233,0.3265,1.401
30.855000,1.4488,-0.5319,0.0051,1.543
30.856000,1.5594,-0.4978,-0.4437,1.696
30.857000,1.7020,-0.4055,-0.9580,1.995
30.857000,1.7454,-0.3832,-1.2608,2.187
30.858000,1.7887,-0.3469,-1.5081,2.365
30.859000,1.8203,-0.3222,-1.7408,2.539
30.860000,1.8794,-0.3663,-1.8157,2.639
30.865000,1.8501,-0.4240,-1.9003,2.686
30.870000,1.7981,-0.5330,-2.0716,2.794
30.875000,1.6477,-0.6407,-2.2527,2.864
30.881000,1.6074,-0.7132,-2.4680,3.030
30.885000,1.4640,-0.7886,-2.7389,3.204
30.892000,1.3086,-0.8408,-2.8619,3.257
30.896000,1.2349,-0.8624,-2.9022,3.270
30.900000,1.2472,-0.9542,-2.8832,3.283
30.940000,1.3209,-0.9688,-2.7761,3.223
30.940000,1.3604,-0.9829,-2.7218,3.198
30.941000,1.3345,-0.9686,-2.6577,3.128
30.941000,1.3361,-0.9217,-2.5597,3.031
30.941000,1.2909,-0.9715,-2.5090,2.984
30.941000,1.1512,-1.0467,-2.5388,2.978
30.942000,0.8881,-1.0874,-2.5940,2.950
30.942000,0.6593,-1.1038,-2.7747,3.058
30.945000,0.4622,-1.1242,-2.9973,3.234
30.951000,0.2600,-1.1053,-3.1806,3.377
30.955000,0.1004,-1.0590,-3.2674,3.436
30.959000,-0.0278,-1.0327,-3.3488,3.504
30.964000,-0.2563,-1.0117,-3.3413,3.500
30.969000,-0.4409,-1.0032,-3.2546,3.434
30.976000,-0.6320,-1.0263,-3.2610,3.477
30.979000,-0.7516,-1.0142,-3.2981,3.531
30.984000,-0.9291,-0.9838,-3.3419,3.605
30.997000,-1.0357,-0.8323,-3.4689,3.715
31.000000,-1.1797,-0.6578,-3.5069,3.758
31.000000,-1.3086,-0.5173,-3.3940,3.674
31.004000,-1.3863,-0.4161,-3.2329,3.542
31.049000,-1.4657,-0.2704,-2.9809,3.333
31.051000,-1.5010,-0.1064,-2.8029,3.181
31.051000,-1.5090,0.0207,-2.7060,3.098
31.052000,-1.4876,0.1902,-2.5683,2.974
31.052000,-1.4489,0.4308,-2.4497,2.879
31.052000,-1.3333,0.6659,-2.3311,2.767
31.053000,-1.2025,0.9099,-2.1072,2.591
31.054000,-1.0873,1.1919,-1.9027,2.495
31.054000,-0.9682,1.3659,-1.7103,2.393
31.054000,-0.9093,1.5187,-1.5232,2.335
31.060000,-0.8242,1.6335,-1.2576,2.220
31.063000,-0.6864,1.7990,-0.9687,2.155
31.069000,-0.5315,1.9244,-0.5107,2.061
31.076000,-0.4667,2.0934,0.0086,2.145
31.079000,-0.3573,2.2481,0.4841,2.327
31.083000,-0.2773,2.3429,0.8489,2.507
31.088000,-0.3126,2.4662,1.0579,2.702
31.093000,-0.3343,2.5681,1.3621,2.926
31.098000,-0.3042,2.6578,1.7425,3.193
31.103000,-0.2029,2.6755,1.9455,3.314
31.109000,-0.1481,2.7478,2.0481,3.430
31.113000,-0.1828,2.8200,2.1241,3.535
31.118000,-0.2351,2.8615,2.2668,3.658
31.160000,-0.3221,2.8606,2.4018,3.749
31.161000,-0.4219,2.7935,2.3856,3.698
31.161000,-0.5104,2.7400,2.6223,3.827
31.162000,-0.6974,2.5494,2.8699,3.902
31.162000,-0.8149,2.3728,3.0733,3.967
31.162000,-0.9326,2.2220,3.3906,4.160
31.163000,-1.1029,2.0609,3.7212,4.394
31.163000,-1.3207,1.9225,4.2901,4.883
31.163000,-1.6310,1.7099,4.7581,5.313
31.167000,-1.8545,1.4893,5.1089,5.635
31.172000,-2.0348,1.3056,5.4482,5.961
31.178000,-2.1417,1.1817,5.6998,6.202
31.183000,-2.2278,1.1525,5.8642,6.378
31.191000,-2.2657,1.1670,5.8724,6.402
31.193000,-2.2589,1.2844,5.7034,6.268
31.198000,-2.2899,1.4473,5.2904,5.944
31.203000,-2.4287,1.6199,4.7506,5.576
31.210000,-2.4417,1.7793,4.2560,5.219
31.213000,-2.3608,1.8955,3.8252,4.878
31.218000,-2.2105,2.0170,3.6418,4.714
31.227000,-1.9306,2.1780,3.5762,4.611
31.229000,-1.6574,2.2737,3.5587,4.537
31.232000,-1.3714,2.2684,3.7446,4.588
31.237000,-0.9931,2.2767,4.0836,4.780
31.270000,-0.6414,2.2696,4.4059,4.997
31.272000,-0.3489,2.2470,4.6780,5.201
31.272000,-0.0881,2.1014,4.7184,5.166
31.274000,0.1731,1.9308,4.7785,5.157
31.274000,0.4551,1.7021,5.0207,5.321
31.275000,0.7064,1.4534,5.0625,5.314
31.275000,0.8732,1.2490,4.9017,5.133
31.278000,0.8334,1.0744,4.8162,5.004
31.282000,0.6347,0.9142,4.5073,4.643
31.288000,0.2590,0.8040,3.9946,4.083
31.292000,-0.1637,0.7292,3.4244,3.505
31.297000,-0.5654,0.6084,2.7870,2.908
31.302000,-0.8567,0.5018,2.0826,2.307
31.309000,-1.0296,0.3902,1.4737,1.840
31.312000,-1.1619,0.3438,1.0412,1.598
31.317000,-1.1399,0.3458,0.7895,1.429
31.367000,-1.1409,0.3105,0.7303,1.390
31.368000,-1.1717,0.3424,0.4907,1.316
31.370000,-1.1458,0.4853,0.2165,1.263
31.370000,-1.1157,0.5414,0.0508,1.241
31.371000,-1.0811,0.5275,-0.1403,1.211
31.371000,-1.0432,0.5122,-0.4222,1.236
31.371000,-0.8603,0.4671,-0.5794,1.138
31.371000,-0.7295,0.3167,-0.6560,1.031
31.372000,-0.5392,0.1651,-0.6788,0.882
31.372000,-0.2419,0.0479,-0.6645,0.709
31.372000,0.0774,0.0277,-0.5658,0.572
31.379000,0.3862,-0.0150,-0.4212,0.572
31.381000,0.6607,-0.0808,-0.1994,0.695
31.387000,0.9306,-0.1459,0.0517,0.943
31.392000,1.1170,-0.2662,0.3923,1.213
31.396000,1.2543,-0.4205,0.6982,1.496
31.401000,1.3355,-0.6555,0.8838,1.730
31.406000,1.2576,-0.8807,1.0167,1.841
31.411000,1.0974,-1.1614,0.9681,1.868
31.417000,0.8688,-1.4624,0.8440,1.899
31.423000,0.6456,-1.7287,0.6062,1.942
31.426000,0.4468,-1.9581,0.2383,2.023
31.431000,0.2283,-2.1510,-0.2856,2.182
31.435000,0.0177,-2.3237,-0.8699,2.481
31.442000,-0.1545,-2.4834,-1.3495,2.831
31.446000,-0.2914,-2.5650,-1.7249,3.105
31.451000,-0.2334,-2.6404,-2.0247,3.336
31.492000,-0.1466,-2.6838,-2.4160,3.614
31.493000,-0.1361,-2.6919,-2.7128,3.824
31.494000,-0.1110,-2.6718,-2.9607,3.990
31.495000,-0.0279,-2.6495,-3.1838,4.142
31.495000,0.0561,-2.6125,-3.2966,4.207
31.496000,0.0767,-2.5585,-3.3253,4.196
31.496000,0.0918,-2.5306,-3.3706,4.216
31.497000,0.1115,-2.4781,-3.3635,4.179
31.497000,0.1050,-2.4564,-3.3419,4.149
31.500000,0.1446,-2.4721,-3.2394,4.077
31.507000,0.1464,-2.4828,-3.1608,4.022
31.510000,0.1882,-2.4830,-3.1856,4.043
31.516000,0.1556,-2.4988,-3.1156,3.997
31.521000,0.0474,-2.5825,-2.9845,3.947
31.527000,-0.0237,-2.6311,-2.9169,3.928
31.530000,-0.1106,-2.6659,-2.9920,4.009
31.535000,-0.2324,-2.6920,-3.0394,4.067
31.542000,-0.3705,-2.7187,-3.0739,4.120
31.545000,-0.4729,-2.6794,-2.9756,4.032
31.549000,-0.5662,-2.6553,-2.9718,4.025
31.578000,-0.6651,-2.5465,-3.1292,4.089
31.580000,-0.6891,-2.4413,-3.2251,4.103
31.580000,-0.7176,-2.3660,-3.2788,4.107
31.581000,-0.7537,-2.3139,-3.1848,4.008
31.581000,-0.7570,-2.2657,-3.0436,3.869
31.581000,-0.7276,-2.1762,-3.0060,3.782
31.585000,-0.6994,-2.1030,-2.7940,3.566
31.589000,-0.6892,-2.0153,-2.6207,3.377
31.595000,-0.6498,-1.9759,-2.4972,3.250
31.601000,-0.5125,-1.8414,-2.4737,3.126
31.606000,-0.4548,-1.6740,-2.3755,2.941
31.610000,-0.4670,-1.5575,-2.2073,2.742
31.614000,-0.4308,-1.3697,-1.9218,2.399
31.621000,-0.3670,-1.2422,-1.6385,2.089
31.625000,-0.2820,-1.1912,-1.3581,1.828
31.630000,-0.2248,-1.1564,-1.1981,1.680
31.634000,-0.1615,-1.0683,-1.1154,1.553
31.645000,-0.0672,-0.9168,-1.1417,1.466
31.646000,-0.0090,-0.8092,-1.2174,1.462
31.650000,0.0632,-0.5967,-1.2903,1.423
31.695000,0.2189,-0.4391,-1.2914,1.381
31.696000,0.3667,-0.3291,-1.2879,1.379
31.696000,0.5211,-0.1896,-1.1821,1.306
31.696000,0.6801,-0.1977,-0.7877,1.059
31.696000,0.8514,-0.2266,-0.2724,0.922
31.697000,0.9614,-0.2239,0.3472,1.046
31.697000,0.9580,-0.2597,0.8611,1.314
31.698000,0.8746,-0.2676,1.2150,1.521
31.698000,0.6818,-0.2482,1.3978,1.575
31.699000,0.4290,-0.1946,1.5532,1.623
31.704000,0.2161,-0.2127,1.7037,1.730
31.709000,-0.0654,-0.1973,1.5743,1.588
31.714000,-0.3478,-0.1676,1.4908,1.540
31.718000,-0.4923,-0.0708,1.4505,1.533
31.725000,-0.5573,0.0308,1.3434,1.455
31.732000,-0.5033,0.1159,1.3752,1.469
31.734000,-0.3688,0.1868,1.5695,1.623
31.740000,-0.1204,0.2364,1.8114,1.831
31.745000,0.1005,0.2714,1.9960,2.017
31.750000,0.3492,0.2851,1.9939,2.044
31.754000,0.5874,0.3521,1.9364,2.054
31.760000,0.8322,0.4969,1.9738,2.199
31.763000,1.0700,0.6532,2.2248,2.554
31.768000,1.4213,0.7922,2.6007,3.068
31.780000,1.7215,0.8280,3.0440,3.594
31.782000,2.0602,0.7677,3.3848,4.036
31.783000,2.3313,0.7003,3.7281,4.452
31.834000,2.5600,0.5661,4.3537,5.082
31.836000,2.7955,0.3718,4.8551,5.615
31.836000,2.9238,0.0627,5.2610,6.019
31.837000,3.0179,-0.1443,5.7251,6.473
31.837000,3.0068,-0.3696,5.9683,6.693
31.838000,2.8673,-0.5967,6.0126,6.688
31.839000,2.5943,-0.8260,5.8228,6.428
31.840000,2.1391,-1.0607,5.4452,5.946
31.840000,1.5507,-1.2721,4.8324,5.232
31.841000,1.0019,-1.4579,4.1572,4.518
31.842000,0.4654,-1.6331,3.5658,3.949
31.843000,0.0211,-1.7619,2.9769,3.459
31.847000,-0.2545,-1.8114,2.4791,3.081
31.852000,-0.4132,-1.8509,2.1128,2.839
31.857000,-0.4736,-1.7711,1.7634,2.544
31.863000,-0.4479,-1.6009,1.4212,2.187
31.868000,-0.3870,-1.3908,1.0622,1.792
31.878000,-0.3651,-1.2121,0.8654,1.533
31.880000,-0.2425,-1.0933,0.6223,1.281
31.882000,-0.0838,-0.9768,0.3473,1.040
31.886000,0.1240,-0.8738,0.1237,0.891
31.920000,0.3559,-0.8243,-0.0850,0.902
31.922000,0.5824,-0.6985,-0.3053,0.959
31.922000,0.7639,-0.6104,-0.5043,1.100
31.923000,0.9355,-0.5473,-0.6417,1.260
31.923000,1.0866,-0.4922,-0.7633,1.416
31.923000,1.2989,-0.4781,-0.8214,1.609
31.924000,1.3798,-0.4929,-0.8424,1.690
31.928000,1.3872,-0.5343,-0.9364,1.757
31.932000,1.4024,-0.5618,-0.9429,1.781
31.937000,1.4013,-0.6403,-0.9646,1.818
31.942000,1.3189,-0.6292,-0.9485,1.742
31.946000,1.2820,-0.6969,-1.0495,1.797
31.951000,1.2444,-0.7573,-1.2006,1.888
31.956000,1.1168,-0.7963,-1.3393,1.917
31.961000,0.9734,-0.8792,-1.4149,1.929
31.967000,0.8648,-0.9629,-1.5687,2.034
31.983000,0.7588,-1.0644,-1.8339,2.252
31.986000,0.6553,-1.1552,-2.0405,2.435
31.987000,0.5373,-1.1707,-2.1814,2.533
31.987000,0.4926,-1.1830,-2.3810,2.704
32.032000,0.5353,-1.1684,-2.5457,2.852
32.034000,0.5117,-1.0936,-2.8071,3.056
32.034000,0.4170,-1.0086,-3.1127,3.298
32.035000,0.2894,-0.9370,-3.3311,3.472
32.035000,0.1740,-0.9072,-3.3788,3.503
32.035000,0.0591,-0.9671,-3.3709,3.507
32.036000,-0.0458,-1.0113,-3.3577,3.507
32.036000,-0.1214,-1.0591,-3.3413,3.507
32.036000,-0.2540,-0.9957,-3.5324,3.679
32.037000,-0.4244,-0.9666,-3.6989,3.847
32.042000,-0.5155,-0.9232,-3.8294,3.973
32.046000,-0.5364,-0.7837,-3.7807,3.898
32.052000,-0.5367,-0.6577,-3.4960,3.598
32.057000,-0.5344,-0.5498,-3.1214,3.214
32.061000,-0.4924,-0.4673,-2.6355,2.722
32.067000,-0.4314,-0.4702,-2.1697,2.262
32.071000,-0.4460,-0.5423,-1.7905,1.923
32.077000,-0.5296,-0.5858,-1.5886,1.774
32.081000,-0.6633,-0.5128,-1.5036,1.722
32.085000,-0.8313,-0.4121,-1.7625,1.992
32.092000,-1.0019,-0.3003,-2.0685,2.318
32.096000,-1.0306,-0.0573,-2.2497,2.475
32.100000,-0.9777,0.1784,-2.3280,2.531
32.154000,-0.9628,0.3330,-2.2535,2.473
32.156000,-0.9478,0.4643,-1.9477,2.215
32.157000,-0.9536,0.4883,-1.5397,1.876
32.157000,-0.8890,0.4960,-1.1445,1.532
32.158000,-0.8493,0.4970,-0.9055,1.337
32.158000,-0.7818,0.5438,-0.6239,1.138
32.158000,-0.6883,0.5765,-0.1109,0.905
32.159000,-0.6067,0.5755,0.2486,0.872
32.159000,-0.5013,0.6460,0.4715,0.944
32.159000,-0.3529,0.7777,0.7114,1.111
32.159000,-0.1925,0.8965,0.8940,1.281
32.160000,-0.1201,1.0215,1.0028,1.436
32.166000,-0.0468,1.1026,1.0329,1.512
32.170000,0.0347,1.1666,1.1446,1.635
32.177000,0.1563,1.2349,1.3136,1.810
32.181000,0.3036,1.3029,1.4683,1.986
32.185000,0.5254,1.3918,1.6972,2.257
32.191000,0.6564,1.4466,1.8640,2.449
32.195000,0.7091,1.4815,1.9593,2.557
32.200000,0.6785,1.4939,1.9139,2.521
32.204000,0.5521,1.4696,1.7495,2.351
32.243000,0.2938,1.4495,1.5904,2.172
32.245000,-0.0161,1.4028,1.5823,2.115
32.245000,-0.3398,1.3126,1.5866,2.087
32.245000,-0.6155,1.1456,1.6174,2.075
32.246000,-0.7984,1.0024,1.7296,2.153
32.246000,-0.9245,0.8947,1.9520,2.338
32.247000,-0.9646,0.8988,2.2511,2.609
32.247000,-0.9448,0.9282,2.3878,2.731
32.250000,-0.9230,0.9847,2.4176,2.769
32.256000,-0.9285,1.1306,2.3573,2.774
32.259000,-0.9399,1.2939,2.2692,2.776
32.264000,-0.8783,1.4510,2.0888,2.691
32.269000,-0.7992,1.5951,1.8636,2.580
32.274000,-0.7840,1.7553,1.7035,2.569
32.280000,-0.8042,1.9390,1.5772,2.626
32.284000,-0.7881,2.1011,1.5776,2.743
32.290000,-0.8316,2.2514,1.5276,2.845
32.294000,-0.8945,2.3686,1.6041,2.997
32.299000,-0.8812,2.4308,1.7401,3.117
32.316000,-0.7703,2.4552,1.8350,3.160
32.319000,-0.5621,2.4703,2.0348,3.249
32.320000,-0.3491,2.5029,2.2936,3.413
32.321000,-0.0632,2.5462,2.6208,3.655
32.362000,0.1911,2.6002,2.9111,3.908
32.363000,0.4150,2.5814,3.1907,4.125
32.364000,0.6521,2.4777,3.4836,4.324
32.364000,0.7935,2.2726,3.7659,4.469
32.365000,0.8590,1.9830,3.9753,4.525
32.365000,0.9108,1.7091,4.1408,4.571
32.366000,0.8317,1.4458,4.1288,4.453
32.366000,0.7506,1.2766,4.5014,4.739
32.368000,0.6196,1.0162,5.0174,5.157
32.368000,0.3554,0.6802,5.2158,5.272
32.375000,0.0724,0.3969,5.1263,5.142
32.378000,-0.2423,0.1637,5.0194,5.028
32.384000,-0.5958,-0.0629,4.7211,4.759
32.389000,-0.9482,-0.2542,4.1908,4.304
32.393000,-1.1927,-0.3862,3.5649,3.779
32.398000,-1.4187,-0.4558,2.8864,3.248
32.403000,-1.5099,-0.5197,2.2815,2.785
32.409000,-1.4479,-0.5531,1.7400,2.330
32.414000,-1.2930,-0.5345,1.3502,1.944
32.418000,-1.2177,-0.5085,1.0182,1.667
32.427000,-1.0647,-0.4969,0.8421,1.446
32.428000,-0.9347,-0.5113,0.8096,1.338
32.433000,-0.7630,-0.5134,0.8247,1.235
32.478000,-0.5203,-0.5178,0.9092,1.169
32.480000,-0.2324,-0.5863,1.0723,1.244
32.480000,0.0039,-0.7261,1.2996,1.489
32.480000,0.2636,-0.8584,1.4430,1.700
32.481000,0.5450,-0.9543,1.5167,1.873
32.481000,0.7269,-1.0260,1.5329,1.983
32.481000,0.8724,-1.1141,1.5370,2.089
32.482000,0.9177,-1.1944,1.4763,2.109
32.482000,0.9206,-1.3124,1.3461,2.093
32.482000,0.8506,-1.4772,1.1653,2.065
32.488000,0.7672,-1.6607,0.9965,2.083
32.493000,0.6103,-1.8770,0.8445,2.147
32.498000,0.4684,-2.0881,0.6112,2.226
32.503000,0.3937,-2.2799,0.4166,2.351
32.508000,0.2588,-2.4021,0.1457,2.420
32.513000,0.1471,-2.5341,-0.1652,2.544
32.518000,0.0389,-2.6733,-0.4491,2.711
32.525000,-0.0782,-2.7817,-0.6917,2.867
32.527000,-0.2119,-2.8644,-0.9167,3.015
32.532000,-0.2433,-2.9405,-1.1240,3.157
32.537000,-0.2114,-3.0058,-1.3756,3.312
32.570000,-0.2386,-2.9813,-1.8102,3.496
32.571000,-0.2342,-2.9167,-2.0404,3.567
32.572000,-0.1816,-2.8528,-2.1503,3.577
32.572000,-0.0499,-2.8082,-2.3866,3.686
32.573000,0.0318,-2.7304,-2.4430,3.664
32.573000,0.0329,-2.6625,-2.3988,3.584
32.574000,0.0637,-2.6190,-2.4354,3.577
32.577000,0.1263,-2.6021,-2.4263,3.560
32.582000,0.1513,-2.5953,-2.4812,3.594
32.587000,0.2277,-2.5141,-2.5816,3.611
32.594000,0.2361,-2.4471,-2.5959,3.575
32.597000,0.2322,-2.3866,-2.5245,3.482
32.602000,0.2668,-2.2989,-2.4562,3.375
32.607000,0.3237,-2.2673,-2.3627,3.291
32.612000,0.2575,-2.2822,-2.2272,3.199
32.617000,0.1233,-2.3292,-2.0593,3.111
32.623000,0.0479,-2.3317,-1.8520,2.978
32.627000,-0.0141,-2.3214,-1.7556,2.910
32.631000,-0.0703,-2.3221,-1.6934,2.875
32.637000,-0.1548,-2.2982,-1.6055,2.808
32.641000,-0.1556,-2.2047,-1.5849,2.720
32.647000,-0.1131,-2.1131,-1.5432,2.619
32.651000,-0.0421,-1.9951,-1.4396,2.461
32.662000,0.0144,-1.8887,-1.2981,2.292
32.663000,0.0756,-1.7702,-1.2263,2.155
32.667000,0.1561,-1.6280,-1.1475,1.998
32.718000,0.1938,-1.5024,-1.0401,1.838
32.720000,0.1030,-1.4510,-0.9761,1.752
32.721000,0.0563,-1.3517,-0.8811,1.614
32.721000,0.0396,-1.1640,-0.7168,1.368
32.721000,0.0102,-0.9718,-0.7704,1.240
32.722000,0.0686,-0.8273,-0.7022,1.087
32.722000,0.0040,-0.8021,-0.5626,0.980
32.722000,-0.1879,-0.8172,-0.5574,1.007
32.723000,-0.3374,-0.8508,-0.6842,1.143
32.723000,-0.4348,-0.7808,-0.6847,1.126
32.723000,-0.6174,-0.6314,-0.6521,1.098
32.726000,-0.7416,-0.4196,-0.7204,1.116
32.730000,-0.9107,-0.2912,-0.6597,1.162
32.735000,-1.1848,-0.2941,-0.6282,1.373
32.742000,-1.3850,-0.2728,-0.6208,1.542
32.746000,-1.6387,-0.3256,-0.6158,1.781
32.750000,-1.8677,-0.3925,-0.6492,2.016
32.762000,-1.9604,-0.2944,-0.6777,2.095
32.764000,-1.9298,-0.2251,-0.6752,2.057
32.766000,-1.7858,-0.1796,-0.6729,1.917
32.770000,-1.5402,-0.0526,-0.5992,1.654
32.813000,-1.2524,0.1178,-0.4255,1.328
32.815000,-0.9097,0.2864,-0.2122,0.977
32.815000,-0.5876,0.4724,0.0886,0.759
32.816000,-0.2683,0.6111,0.4291,0.793
32.816000,-0.0202,0.7359,0.6658,0.993
32.816000,0.1528,0.8274,0.7824,1.149
32.817000,0.3012,0.8571,0.8052,1.214
32.817000,0.2838,0.9329,0.7748,1.245
32.817000,0.2229,0.9329,0.7893,1.242
32.824000,0.1546,0.9744,0.8078,1.275
32.827000,0.0361,1.0025,0.6986,1.222
32.830000,-0.0395,0.9793,0.5934,1.146
32.835000,-0.1445,0.9671,0.4010,1.057
32.840000,-0.3180,0.9254,0.2098,1.001
32.845000,-0.4363,0.9072,0.1106,1.013
32.849000,-0.5287,0.8405,0.0172,0.993
32.860000,-0.5103,0.8139,-0.0584,0.962
32.860000,-0.4318,0.7651,-0.0469,0.880
32.864000,-0.3296,0.7636,0.1018,0.838
32.870000,-0.1867,0.7448,0.3468,0.843
32.896000,0.0450,0.7516,0.6236,0.978
32.897000,0.3207,0.6928,1.0425,1.292
32.897000,0.5644,0.7000,1.4286,1.688
32.898000,0.7940,0.6937,1.7204,2.018
32.898000,0.9790,0.6217,1.8747,2.204
32.900000,1.1651,0.4983,2.2624,2.593
32.906000,1.3290,0.3803,2.5537,2.904
32.910000,1.3946,0.1912,2.7703,3.107
32.916000,1.3859,-0.0570,2.9362,3.247
32.920000,1.4029,-0.2524,3.1691,3.475
32.924000,1.3953,-0.4527,3.3401,3.648
32.930000,1.2932,-0.6681,3.4543,3.748
32.934000,1.1518,-0.8413,3.4427,3.726
32.941000,0.9445,-0.9942,3.5017,3.761
32.946000,0.7569,-1.1753,3.5145,3.782
32.949000,0.5386,-1.2864,3.5097,3.777
32.960000,0.2675,-1.4240,3.3708,3.669
32.961000,0.0535,-1.5519,3.1622,3.523
32.964000,-0.1450,-1.6347,2.9369,3.364
32.969000,-0.3169,-1.6726,2.6184,3.123
32.999000,-0.3267,-1.6939,2.2353,2.824
33.000000,-0.2517,-1.6792,1.9117,2.557
33.001000,-0.1357,-1.5541,1.6161,2.246
33.001000,0.0281,-1.3996,1.4008,1.980
33.001000,0.2661,-1.2345,1.2271,1.761
33.002000,0.4994,-1.0873,1.1117,1.633
33.008000,0.7237,-0.9695,1.1068,1.640
33.009000,0.9965,-0.8879,1.1881,1.787
33.014000,1.2160,-0.8732,1.2549,1.953
33.019000,1.4263,-0.8512,1.3885,2.165
33.025000,1.7210,-0.8172,1.5460,2.454
33.029000,2.0030,-0.7928,1.8349,2.830
33.033000,2.2903,-0.7327,2.0687,3.172
33.039000,2.5291,-0.6991,2.2330,3.446
33.044000,2.7049,-0.7014,2.3423,3.646
33.048000,2.7803,-0.8090,2.3104,3.704
33.054000,2.8069,-0.9520,2.3021,3.753
33.060000,2.7135,-1.1732,2.1547,3.658
33.064000,2.5070,-1.3699,1.8254,3.390
33.068000,2.3090,-1.5107,1.4362,3.111
33.076000,1.9678,-1.6386,1.0491,2.767
33.079000,1.5972,-1.7488,0.6428,2.454
33.084000,1.2818,-1.8343,0.2796,2.255
33.133000,1.0491,-1.8790,-0.1001,2.154
33.134000,0.8328,-1.9811,-0.4313,2.192
33.134000,0.6511,-2.0903,-0.6615,2.287
33.135000,0.5224,-2.1494,-0.8530,2.371
33.135000,0.3982,-2.1682,-0.9817,2.413
33.136000,0.3550,-2.1706,-1.0382,2.432
33.136000,0.3974,-2.1832,-0.9937,2.431
33.137000,0.4082,-2.1228,-0.9866,2.376
33.137000,0.5004,-2.0325,-0.9979,2.319
33.138000,0.6431,-1.9600,-1.0682,2.323
33.138000,0.6787,-1.8479,-1.1400,2.275
33.143000,0.6892,-1.6959,-1.3165,2.255
33.147000,0.7014,-1.6109,-1.4689,2.290
33.152000,0.7349,-1.5613,-1.6216,2.368
33.157000,0.7734,-1.5010,-1.6865,2.386
33.162000,0.7505,-1.4013,-1.7642,2.375
33.168000,0.7069,-1.3407,-1.9148,2.442
33.172000,0.6449,-1.2950,-1.9472,2.426
33.178000,0.5620,-1.2521,-1.8424,2.297
33.183000,0.4651,-1.2241,-1.6985,2.145
33.188000,0.3707,-1.2280,-1.4963,1.971
33.197000,0.2811,-1.2305,-1.2690,1.790
33.197000,0.2631,-1.2535,-0.9951,1.622
33.202000,0.3427,-1.2327,-0.7531,1.485
33.207000,0.4387,-1.1422,-0.4782,1.314
33.212000,0.5581,-1.0827,-0.1679,1.230
33.217000,0.6298,-1.0064,0.1276,1.194
33.257000,0.7287,-0.9351,0.4755,1.277
33.258000,0.8383,-0.9311,0.7393,1.455
33.259000,0.8253,-0.9539,0.9745,1.594
33.259000,0.7421,-0.9772,0.9971,1.581
33.262000,0.6053,-0.9986,0.9960,1.535
33.263000,0.3551,-1.0395,0.9617,1.460
33.263000,0.1538,-1.0352,0.8679,1.360
33.264000,-0.0207,-1.0287,0.8605,1.341
33.264000,-0.1399,-1.0130,0.8294,1.317
33.266000,-0.2616,-1.0238,0.7771,1.312
33.274000,-0.3191,-1.0085,0.7679,1.307
33.276000,-0.3722,-0.9980,0.8234,1.346
33.282000,-0.4425,-0.9589,0.9458,1.418
33.287000,-0.5202,-0.8915,1.0301,1.458
33.292000,-0.5839,-0.8031,1.0931,1.477
33.297000,-0.6338,-0.7512,1.0918,1.469
33.303000,-0.6990,-0.6379,0.9620,1.349
33.308000,-0.7606,-0.5946,0.8231,1.269
33.313000,-0.8235,-0.5755,0.6105,1.176
33.316000,-0.8092,-0.6068,0.3935,1.085
33.337000,-0.7539,-0.5611,0.1955,0.960
33.338000,-0.6071,-0.4931,0.1599,0.798
33.339000,-0.3278,-0.4000,0.2812,0.589
33.339000,-0.0349,-0.2986,0.4684,0.557
33.341000,0.1982,-0.2010,0.7239,0.777
33.346000,0.3791,-0.1577,0.9091,0.998
33.351000,0.5105,-0.1378,1.1678,1.282
33.356000,0.5496,-0.1702,1.3327,1.452
33.362000,0.5755,-0.2502,1.4232,1.555
33.366000,0.5311,-0.3398,1.4538,1.585
33.372000,0.4717,-0.4484,1.5442,1.676
33.376000,0.3923,-0.5740,1.5367,1.687
33.381000,0.2781,-0.6738,1.5344,1.699
33.386000,0.1937,-0.7001,1.6021,1.759
33.393000,0.1007,-0.7514,1.5604,1.735
33.396000,-0.0300,-0.8399,1.5007,1.720
33.401000,-0.1269,-0.8917,1.4255,1.686
33.414000,-0.2072,-0.9358,1.2179,1.550
33.416000,-0.3288,-1.0367,1.0022,1.479
33.417000,-0.3965,-1.0961,0.8168,1.423
33.420000,-0.4057,-1.0758,0.7046,1.349
33.470000,-0.4090,-1.0427,0.5840,1.263
33.471000,-0.3320,-0.9989,0.4382,1.140
33.471000,-0.2726,-0.8844,0.3005,0.973
33.471000,-0.2206,-0.7900,0.2353,0.853
33.472000,-0.2479,-0.7013,0.1348,0.756
33.472000,-0.2583,-0.6778,0.0494,0.727
33.472000,-0.2519,-0.6716,-0.1481,0.732
33.473000,-0.2647,-0.5891,-0.3498,0.734
33.473000,-0.2825,-0.5281,-0.5490,0.812
33.474000,-0.3293,-0.4623,-0.7120,0.911
33.474000,-0.3356,-0.4224,-0.8538,1.010
33.480000,-0.3827,-0.3889,-0.9241,1.073
33.484000,-0.3558,-0.3188,-0.9519,1.065
33.489000,-0.3097,-0.2621,-0.8991,0.986
33.494000,-0.2087,-0.1735,-0.9235,0.963
33.502000,-0.0770,-0.1010,-0.9938,1.002
33.509000,0.1254,-0.0039,-1.0479,1.055
33.510000,0.2690,0.1587,-1.1122,1.155
33.514000,0.2946,0.2650,-1.0243,1.098
33.519000,0.3701,0.3510,-0.8371,0.980
33.546000,0.5126,0.3570,-0.6608,0.909
33.547000,0.6099,0.3334,-0.4714,0.840
33.547000,0.6646,0.3350,-0.3000,0.802
33.548000,0.6555,0.2804,-0.1009,0.720
33.548000,0.6784,0.2604,0.0850,0.732
33.549000,0.7024,0.2749,0.2557,0.796
33.555000,0.7279,0.2854,0.4327,0.894
33.559000,0.7240,0.2036,0.5800,0.950
33.565000,0.6533,0.1009,0.7458,0.997
33.569000,0.5974,-0.0033,0.8461,1.036
33.575000,0.5184,-0.1115,0.8861,1.033
33.579000,0.3682,-0.1883,0.8827,0.975
33.584000,0.2833,-0.2504,0.7596,0.849
33.590000,0.1003,-0.2645,0.6293,0.690
33.594000,-0.1577,-0.2882,0.5853,0.671
33.599000,-0.4195,-0.3671,0.5608,0.791
33.606000,-0.6619,-0.5112,0.5584,1.006
33.615000,-0.9141,-0.5915,0.4635,1.183
33.616000,-1.1195,-0.6419,0.2884,1.322
33.618000,-1.2145,-0.7008,0.0213,1.402
33.639000,-1.2450,-0.6531,-0.3043,1.438
33.640000,-1.2739,-0.6041,-0.5308,1.506
33.640000,-1.2432,-0.5056,-0.7277,1.527
33.641000,-1.1481,-0.4193,-0.8049,1.463
33.643000,-0.9760,-0.3400,-0.8700,1.351
33.648000,-0.8461,-0.2724,-0.9162,1.277
33.653000,-0.6979,-0.2783,-0.9342,1.199
33.659000,-0.5215,-0.2378,-0.9408,1.102
33.663000,-0.3885,-0.1462,-0.9339,1.022
33.668000,-0.2650,-0.0799,-0.9587,0.998
33.674000,-0.1245,-0.0314,-0.9391,0.948
33.678000,-0.0193,0.0304,-0.8537,0.854
33.683000,0.0770,0.0314,-0.6975,0.702
33.688000,0.0402,0.0028,-0.4804,0.482
33.693000,0.0116,-0.0294,-0.2596,0.262
33.698000,-0.0448,-0.0800,-0.0085,0.092
33.702000,-0.1124,-0.1397,0.2708,0.325
33.709000,-0.2297,-0.2283,0.5117,0.606
33.713000,-0.3945,-0.2909,0.6451,0.810
33.718000,-0.5070,-0.3427,0.6619,0.901
33.725000,-0.5434,-0.3738,0.6412,0.920
33.728000,-0.6071,-0.3603,0.5828,0.916
33.733000,-0.7052,-0.3144,0.6664,1.020
33.777000,-0.7941,-0.2814,0.7050,1.099
33.778000,-0.9001,-0.3140,0.7084,1.188
33.779000,-0.9705,-0.3809,0.6694,1.239
33.779000,-1.1108,-0.3769,0.5761,1.307
33.780000,-1.1488,-0.3618,0.4309,1.279
33.780000,-1.1493,-0.3377,0.2957,1.234
33.780000,-1.1196,-0.2491,0.2445,1.173
33.780000,-1.0234,-0.1605,0.3057,1.080
33.781000,-0.8651,-0.0719,0.4073,0.959
33.783000,-0.6735,-0.0142,0.5613,0.877
33.789000,-0.5776,0.0768,0.7294,0.934
33.792000,-0.5050,0.1555,0.8067,0.964
33.798000,-0.4939,0.2386,0.7932,0.964
33.803000,-0.4916,0.2495,0.7345,0.918
33.807000,-0.5464,0.2554,0.6664,0.899
33.813000,-0.6148,0.2515,0.5819,0.883
33.818000,-0.6591,0.2450,0.4641,0.843
33.824000,-0.6887,0.2051,0.4301,0.837
33.827000,-0.6966,0.1846,0.4057,0.827
33.832000,-0.6995,0.1307,0.3859,0.810
33.837000,-0.6663,0.1221,0.4070,0.790
33.859000,-0.6473,0.1159,0.4281,0.785
33.860000,-0.6307,0.1236,0.4566,0.788
33.860000,-0.6308,0.1041,0.4521,0.783
33.861000,-0.5688,0.0959,0.3550,0.677
33.862000,-0.4787,0.0963,0.2776,0.562
33.867000,-0.4371,0.1488,0.1793,0.495
33.872000,-0.4125,0.1888,0.1698,0.484
33.877000,-0.3995,0.1806,0.2753,0.518
33.882000,-0.3119,0.1672,0.2781,0.450
33.888000,-0.3025,0.1176,0.3410,0.471
33.891000,-0.3522,0.0750,0.3418,0.496
33.897000,-0.4657,0.0247,0.2234,0.517
33.903000,-0.5572,0.0005,0.0216,0.558
33.907000,-0.6249,-0.0047,-0.1534,0.643
33.912000,-0.6524,-0.0386,-0.3475,0.740
33.917000,-0.6111,-0.0435,-0.4482,0.759
33.926000,-0.5157,-0.0121,-0.5083,0.724
33.928000,-0.4426,-0.0039,-0.5331,0.693
33.932000,-0.3388,0.0410,-0.4316,0.550
33.936000,-0.2162,0.0315,-0.2781,0.354
33.973000,-0.1559,0.0680,-0.0367,0.174
33.974000,-0.0689,0.0640,0.2138,0.234
33.974000,-0.0151,0.0552,0.4019,0.406
33.974000,-0.0039,0.0194,0.5281,0.528
33.974000,-0.0138,0.0163,0.5494,0.550
33.975000,-0.0690,-0.0043,0.4636,0.469
33.975000,-0.0356,-0.0279,0.3090,0.312
33.976000,-0.0548,-0.0377,0.2004,0.211
33.981000,-0.0954,-0.0164,0.0417,0.105
33.986000,-0.0879,-0.0478,-0.0426,0.109
33.991000,-0.0517,-0.0431,-0.1245,0.142
33.997000,-0.0085,-0.0191,-0.1802,0.181
34.002000,0.0416,-0.0306,-0.2408,0.246
34.006000,0.0412,0.0299,-0.2847,0.289
34.011000,0.0664,0.0237,-0.2643,0.274
34.017000,0.0720,0.0131,-0.2704,0.280
34.023000,0.1396,0.0028,-0.2673,0.302
34.026000,0.2069,0.0002,-0.2237,0.305
34.031000,0.2067,-0.0427,-0.1614,0.266
34.036000,0.2303,-0.0493,-0.0778,0.248
34.042000,0.2587,-0.0461,-0.0543,0.268
34.046000,0.2895,-0.0594,0.0551,0.301
34.052000,0.3420,-0.0152,0.2026,0.398
34.063000,0.4141,0.0287,0.2998,0.512
34.064000,0.5036,-0.0067,0.3493,0.613
34.066000,0.4835,-0.0281,0.2962,0.568
34.119000,0.4238,-0.0378,0.1811,0.462
34.120000,0.3269,-0.0810,0.0400,0.339
34.121000,0.2378,-0.1123,-0.0794,0.275
34.121000,0.1854,-0.1313,-0.1437,0.269
34.121000,0.1403,-0.1406,-0.1627,0.257
34.121000,0.1431,-0.1520,-0.1795,0.275
34.122000,0.1505,-0.1465,-0.1604,0.264
34.122000,0.1647,-0.1411,-0.1126,0.244
34.122000,0.1976,-0.1287,-0.0671,0.245
34.122000,0.2011,-0.1119,-0.0621,0.238
34.123000,0.2014,-0.0503,-0.1118,0.236
34.126000,0.2511,-0.0323,-0.2017,0.324
34.130000,0.3001,-0.0218,-0.2578,0.396
34.134000,0.2958,0.0243,-0.3113,0.430
34.140000,0.3271,0.0299,-0.3433,0.475
34.145000,0.3322,0.0379,-0.3754,0.503
34.150000,0.3016,0.0535,-0.4531,0.547
34.159000,0.2952,0.0385,-0.5860,0.657
34.160000,0.3175,0.0576,-0.6211,0.700
34.165000,0.2969,0.0845,-0.6782,0.745
34.169000,0.2839,0.1099,-0.6784,0.744
34.204000,0.2426,0.1242,-0.6289,0.685
34.205000,0.2614,0.1226,-0.5873,0.654
34.205000,0.2064,0.1048,-0.5891,0.633
34.206000,0.1682,0.0828,-0.5100,0.543
34.206000,0.1416,0.0731,-0.4289,0.458
34.206000,0.1529,0.0709,-0.3002,0.344
34.206000,0.2139,0.0852,-0.0686,0.240
34.210000,0.2673,0.0751,0.1485,0.315
34.215000,0.3180,0.0427,0.3636,0.485
34.220000,0.2850,0.0476,0.4236,0.513
34.224000,0.2569,0.0515,0.4005,0.479
34.230000,0.1763,0.0595,0.2536,0.315
34.234000,0.1054,0.0861,0.0283,0.139
34.239000,0.0031,0.0601,-0.1418,0.154
34.244000,-0.0871,0.0514,-0.2068,0.230
34.249000,-0.1581,0.0239,-0.2170,0.270
34.257000,-0.1668,0.0139,-0.1821,0.247
34.263000,-0.1657,0.0283,-0.1309,0.213
34.263000,-0.1645,0.0552,-0.0897,0.195
34.269000,-0.1440,0.0560,0.0039,0.155
34.293000,-0.1307,0.0686,0.1094,0.184
34.294000,-0.1388,0.0669,0.1431,0.210
34.294000,-0.1231,0.0983,0.0789,0.176
34.295000,-0.0694,0.1340,0.0271,0.153
34.295000,-0.0066,0.1478,0.0257,0.150
34.299000,0.0269,0.1828,0.0270,0.187
34.306000,0.0623,0.1696,0.0356,0.184
34.309000,0.1452,0.2038,0.0564,0.257
34.313000,0.1610,0.2282,0.0917,0.294
34.318000,0.1243,0.2116,0.1487,0.287
34.325000,0.0543,0.2065,0.1222,0.246
34.329000,-0.0106,0.2060,0.0792,0.221
34.334000,-0.0826,0.1718,0.0220,0.192
34.339000,-0.1351,0.1420,-0.0659,0.207
34.344000,-0.1801,0.1555,-0.1658,0.290
34.349000,-0.2104,0.1597,-0.3279,0.421
34.353000,-0.2380,0.1787,-0.4686,0.555
34.358000,-0.2056,0.1983,-0.6048,0.669
34.364000,-0.2068,0.2616,-0.6886,0.765
34.370000,-0.1533,0.2657,-0.7345,0.796
34.389000,-0.0811,0.3350,-0.6780,0.761
34.391000,-0.0215,0.3953,-0.6291,0.743
34.391000,0.0805,0.4439,-0.4801,0.659
34.391000,0.1584,0.4209,-0.3553,0.573
34.393000,0.1907,0.4266,-0.2355,0.523
34.399000,0.1417,0.4204,-0.0991,0.455
34.402000,0.1363,0.3614,-0.0297,0.387
34.409000,0.1503,0.3693,0.0230,0.399
34.413000,0.0978,0.3484,0.0447,0.365
34.417000,0.0050,0.3155,0.0950,0.330
34.423000,-0.0849,0.2898,0.2194,0.373
34.428000,-0.1431,0.2233,0.3127,0.410
34.433000,-0.1862,0.1687,0.3295,0.414
34.439000,-0.2263,0.1664,0.3464,0.446
34.443000,-0.3044,0.0873,0.3230,0.452
34.448000,-0.4136,0.0796,0.2353,0.482
34.453000,-0.4536,0.0737,0.1337,0.479
34.459000,-0.4754,0.0865,0.0397,0.485
34.462000,-0.4649,0.1134,0.0201,0.479
34.467000,-0.4387,0.1017,0.0317,0.451
34.474000,-0.3632,0.1088,0.0818,0.388
34.477000,-0.2739,0.1276,0.1751,0.349
34.482000,-0.2233,0.1482,0.1992,0.334
34.511000,-0.1680,0.1709,0.2450,0.343
34.512000,-0.0601,0.1955,0.2265,0.305
34.512000,0.0051,0.2580,0.1556,0.301
34.512000,0.0877,0.2700,0.1567,0.324
34.513000,0.1014,0.2962,0.0719,0.321
34.513000,0.1109,0.3032,-0.0416,0.326
34.518000,0.0446,0.2866,-0.2436,0.379
34.522000,-0.0046,0.2826,-0.3763,0.471
34.527000,-0.0871,0.3031,-0.4662,0.563
34.532000,-0.1549,0.2502,-0.3868,0.486
34.537000,-0.2300,0.2100,-0.3437,0.464
34.542000,-0.2455,0.2157,-0.2986,0.443
34.548000,-0.2612,0.1594,-0.2059,0.369
34.553000,-0.2748,0.1632,-0.1779,0.366
34.557000,-0.2791,0.1074,-0.0521,0.304
34.562000,-0.2477,0.0420,0.0400,0.254
34.567000,-0.1827,0.0458,0.2590,0.320
34.574000,-0.1174,0.0710,0.3129,0.342
34.577000,-0.0659,0.0551,0.2425,0.257
34.582000,-0.0328,0.0605,0.1820,0.195
34.586000,-0.0563,0.0898,-0.0147,0.107
34.621000,-0.0957,0.0788,-0.1731,0.213
34.623000,-0.0767,0.0948,-0.3054,0.329
34.623000,-0.0998,0.0974,-0.4789,0.499
34.624000,-0.1533,0.0293,-0.4686,0.494
34.624000,-0.1704,0.0195,-0.4206,0.454
34.624000,-0.1729,0.0628,-0.4305,0.468
34.624000,-0.1257,0.0492,-0.2923,0.322
34.627000,-0.1438,0.0497,-0.2475,0.291
34.632000,-0.1626,0.0285,-0.1714,0.238
34.636000,-0.1227,0.0279,-0.0567,0.138
34.641000,-0.0722,0.0289,-0.0731,0.107
34.647000,-0.0758,-0.0069,-0.0507,0.091
34.651000,-0.0451,0.0161,0.0129,0.050
34.656000,-0.0039,0.0429,0.0532,0.068
34.661000,0.0053,0.0447,0.1132,0.122
34.668000,0.0426,0.0506,0.0947,0.115
34.677000,0.0727,0.0510,0.0574,0.106
34.678000,0.0982,0.0630,0.0563,0.130
34.681000,0.0882,0.0581,-0.0570,0.120
34.686000,0.1120,0.0390,-0.0723,0.139
34.691000,0.0885,0.0609,-0.1140,0.157
34.696000,0.0613,0.0831,-0.1511,0.183
34.700000,0.0136,0.0462,-0.1981,0.204
34.712000,-0.0045,0.0480,-0.2023,0.208
34.712000,-0.0410,0.0216,-0.2833,0.287
34.716000,-0.1084,0.0195,-0.2878,0.308
34.720000,-0.1926,0.0033,-0.2950,0.352
34.752000,-0.1957,0.0090,-0.2688,0.333
34.753000,-0.1725,0.0194,-0.2906,0.338
34.753000,-0.2168,0.0156,-0.2574,0.337
34.753000,-0.2116,-0.0098,-0.1715,0.273
34.753000,-0.1663,0.0124,-0.1383,0.217
34.753000,-0.1528,0.0032,-0.0834,0.174
34.754000,-0.1063,-0.0064,-0.0283,0.110
34.760000,-0.1175,0.0481,0.0055,0.127
34.765000,-0.0756,0.0255,-0.0606,0.100
34.770000,-0.0033,0.0384,-0.1045,0.111
34.775000,0.0235,0.1034,-0.1503,0.184
34.780000,0.0742,0.1180,-0.2481,0.285
34.785000,0.0819,0.1091,-0.3121,0.341
34.793000,0.1041,0.1459,-0.3520,0.395
34.796000,0.0860,0.1544,-0.3777,0.417
34.800000,0.0849,0.1874,-0.3349,0.393
34.842000,0.0867,0.1682,-0.2214,0.291
34.842000,0.0935,0.1567,-0.0402,0.187
34.843000,0.0553,0.1430,0.0135,0.154
34.843000,0.0248,0.1130,0.0643,0.132
34.843000,-0.0528,0.0737,0.1384,0.165
34.843000,-0.0725,0.0725,0.1860,0.212
34.843000,-0.0968,0.0497,0.1503,0.186
34.843000,-0.1377,0.0316,0.0675,0.157
34.845000,-0.1669,0.0348,0.0330,0.174
34.851000,-0.1394,0.0307,0.0297,0.146
34.855000,-0.1127,0.0122,0.0361,0.119
34.859000,-0.0911,0.0386,0.0711,0.122
34.866000,-0.0151,0.0409,0.1202,0.128
34.871000,0.0151,0.0595,0.0931,0.112
34.874000,0.0829,0.1085,0.0166,0.138
34.881000,0.1241,0.1285,0.0215,0.180
34.885000,0.1557,0.1601,-0.0187,0.224
34.895000,0.1992,0.1962,-0.0538,0.285
34.896000,0.2451,0.1987,-0.1456,0.347
34.900000,0.2791,0.2205,-0.1727,0.395
34.929000,0.2326,0.1949,-0.1641,0.345
34.930000,0.1588,0.2057,-0.1772,0.315
34.930000,0.0911,0.1976,-0.1905,0.289
34.930000,0.0098,0.1709,-0.2370,0.292
34.930000,-0.0260,0.1565,-0.2286,0.278
34.931000,-0.0263,0.1327,-0.1373,0.193
34.934000,-0.0605,0.1471,-0.0681,0.173
34.939000,-0.0093,0.0946,-0.0349,0.101
34.944000,-0.0134,0.0993,0.0433,0.109
34.950000,-0.0366,0.0895,0.0307,0.101
34.954000,-0.0384,0.0605,0.0327,0.079
34.959000,-0.0192,0.0505,0.0111,0.055
34.964000,-0.0051,0.0618,-0.0459,0.077
34.971000,-0.0247,0.0681,-0.0667,0.099
34.974000,0.0200,0.0982,-0.0542,0.114
34.979000,0.0881,0.1090,-0.0797,0.161
34.984000,0.1225,0.1057,-0.0695,0.176
34.991000,0.1332,0.1309,-0.0737,0.201
34.994000,0.1681,0.1870,-0.0495,0.256
35.000000,0.1701,0.1335,-0.0231,0.217
35.004000,0.1630,0.1278,-0.0325,0.210
35.009000,0.1729,0.1245,-0.0750,0.226
35.014000,0.1139,0.1069,-0.2334,0.281
35.019000,0.0412,0.1251,-0.3740,0.396
35.063000,0.0138,0.1410,-0.4850,0.505
35.065000,-0.0236,0.1357,-0.4742,0.494
35.065000,-0.0565,0.1330,-0.4494,0.472
35.066000,-0.0947,0.1067,-0.4202,0.444
35.066000,-0.0692,0.1044,-0.3081,0.333
35.066000,-0.0728,0.0832,-0.2421,0.266
35.067000,-0.0291,0.0953,-0.1529,0.183
35.067000,0.0307,0.0813,-0.1145,0.144
35.067000,0.0569,0.1198,-0.0384,0.138
35.070000,0.0666,0.1367,0.0158,0.153
35.072000,0.1003,0.1178,0.0124,0.155
35.078000,0.1034,0.1277,-0.0432,0.170
35.084000,0.0996,0.1092,-0.0891,0.173
35.090000,0.0510,0.0890,-0.0588,0.118
35.094000,0.0551,0.1167,-0.0029,0.129
35.097000,0.0379,0.1160,0.0857,0.149
35.104000,0.0092,0.1201,0.2209,0.252
35.109000,0.0092,0.0811,0.3172,0.328
35.114000,-0.0264,0.0657,0.4226,0.428
35.119000,-0.0759,0.0332,0.4253,0.433
35.129000,-0.0945,0.0287,0.3289,0.343
35.130000,-0.1040,0.0022,0.2929,0.311
35.133000,-0.1216,-0.0031,0.2547,0.282
35.190000,-0.1132,-0.0161,0.2167,0.245
35.191000,-0.0787,-0.0006,0.2052,0.220
35.191000,0.0058,0.0289,0.1677,0.170
35.191000,0.1070,0.1180,0.1304,0.206
35.192000,0.1890,0.1686,0.1672,0.304
35.192000,0.1639,0.1952,0.1897,0.318
35.192000,0.1536,0.1667,0.2291,0.322
35.192000,0.1035,0.1023,0.1536,0.212
35.193000,-0.0084,0.0737,0.0783,0.108
35.193000,-0.0936,0.0284,-0.0806,0.127
35.193000,-0.1786,-0.0119,-0.2059,0.273
35.193000,-0.1825,-0.0255,-0.3480,0.394
35.200000,-0.1844,-0.0077,-0.4662,0.501
35.203000,-0.1509,0.0392,-0.5200,0.543
35.208000,-0.0701,0.0866,-0.4307,0.445
35.212000,0.0510,0.1105,-0.2700,0.296
35.217000,0.1628,0.1106,-0.1263,0.234
35.229000,0.2294,0.1680,-0.0259,0.286
35.230000,0.2365,0.1580,-0.0162,0.285
35.232000,0.2058,0.1526,-0.0589,0.263
35.236000,0.1466,0.1467,-0.1873,0.279
35.283000,0.1016,0.1336,-0.3347,0.374
35.284000,0.0684,0.1206,-0.4317,0.453
35.284000,0.0159,0.1030,-0.4259,0.438
35.285000,-0.0272,0.0833,-0.4275,0.436
35.285000,-0.0680,0.0282,-0.4054,0.412
35.285000,-0.1208,0.0020,-0.3667,0.386
35.286000,-0.1331,-0.0121,-0.3283,0.354
35.286000,-0.1215,-0.0259,-0.3258,0.349
35.286000,-0.1076,-0.0251,-0.3307,0.349
35.288000,-0.0869,0.0024,-0.3143,0.326
35.293000,-0.0496,0.0254,-0.2862,0.292
35.297000,-0.0172,0.0822,-0.1867,0.205
35.301000,0.0010,0.0843,-0.0588,0.103
35.307000,0.0171,0.0959,0.0451,0.107
35.312000,0.0001,0.0858,0.1179,0.146
35.317000,-0.0095,0.0802,0.1286,0.152
35.328000,-0.0240,0.0384,0.0893,0.100
35.329000,-0.0364,0.0416,0.0264,0.061
35.331000,-0.1160,0.0540,-0.0552,0.139
35.336000,-0.1145,0.0326,-0.1151,0.166
35.372000,-0.0844,0.0518,-0.1437,0.175
35.373000,-0.0737,0.0665,-0.1534,0.183
35.373000,-0.0582,0.0410,-0.0271,0.076
35.374000,-0.0591,0.0635,0.1085,0.139
35.374000,-0.0429,0.0930,0.2250,0.247
35.374000,-0.0307,0.0961,0.3102,0.326
35.374000,-0.1089,0.0632,0.2138,0.248
35.377000,-0.1793,0.0182,0.1319,0.223
35.382000,-0.2686,0.0091,0.0167,0.269
35.387000,-0.3006,-0.0192,0.0307,0.303
35.392000,-0.3184,-0.0498,-0.0031,0.322
35.395000,-0.3271,-0.0302,-0.0415,0.331
35.402000,-0.2933,-0.0181,-0.0201,0.295
35.406000,-0.2530,0.0010,-0.0870,0.268
35.410000,-0.1798,0.0128,-0.0796,0.197
35.416000,-0.1310,0.0579,-0.0124,0.144
35.421000,-0.1158,0.0454,0.0357,0.129
35.427000,-0.0937,0.0973,-0.0118,0.136
35.431000,-0.0646,0.0989,-0.0018,0.118
35.436000,-0.0545,0.0693,0.0322,0.094
35.447000,-0.0105,0.0779,0.0374,0.087
35.449000,-0.0046,0.1296,0.0092,0.130
35.451000,-0.0079,0.1159,-0.0664,0.134
35.509000,0.0200,0.0976,-0.1414,0.173
35.510000,-0.0018,0.0798,-0.1874,0.204
35.510000,-0.0253,0.0625,-0.1692,0.182
35.511000,-0.0196,0.0718,-0.1657,0.182
35.511000,-0.0229,0.0957,-0.1861,0.211
35.512000,-0.0592,0.0723,-0.1354,0.164
35.512000,-0.0877,0.0564,-0.1470,0.180
35.512000,-0.0640,0.0930,-0.1490,0.187
35.512000,-0.0314,0.1151,-0.1298,0.176
35.512000,-0.0302,0.1156,-0.0940,0.152
35.513000,-0.0509,0.1304,0.0673,0.155
35.513000,-0.0170,0.0784,0.2202,0.234
35.516000,0.0073,0.0456,0.2983,0.302
35.521000,-0.0183,0.0268,0.3786,0.380
35.526000,-0.0745,-0.0375,0.4015,0.410
35.531000,-0.1419,-0.0378,0.3678,0.396
35.535000,-0.1967,-0.0674,0.2280,0.309
35.545000,-0.2061,-0.0925,0.0730,0.237
35.546000,-0.2061,-0.0795,-0.0640,0.230
35.550000,-0.2088,-0.0641,-0.2095,0.303
35.604000,-0.1545,-0.0321,-0.3015,0.340
35.604000,-0.0626,0.0049,-0.3124,0.319
35.605000,0.0264,0.0562,-0.3448,0.350
35.605000,0.0956,0.0720,-0.3465,0.367
35.605000,0.1050,0.1071,-0.2937,0.330
35.605000,0.1668,0.1540,-0.2298,0.323
35.605000,0.1903,0.1674,-0.1426,0.291
35.606000,0.2041,0.1616,-0.1108,0.283
35.606000,0.1670,0.1474,-0.0582,0.230
35.606000,0.1298,0.1068,-0.0774,0.185
35.606000,0.0545,0.0850,-0.0963,0.140
35.611000,-0.0137,0.0273,-0.1271,0.131
35.615000,-0.0670,0.0507,-0.2185,0.234
35.619000,-0.1034,0.0550,-0.2998,0.322
35.624000,-0.0922,0.0454,-0.3521,0.367
35.629000,-0.0915,0.0700,-0.3521,0.371
35.633000,-0.0600,0.0903,-0.3238,0.341
35.640000,-0.0044,0.1055,-0.2842,0.303
35.644000,0.0008,0.0665,-0.1694,0.182
35.648000,0.0369,0.0687,-0.0273,0.083
35.654000,0.0779,0.0995,0.0732,0.146
35.665000,0.1450,0.0778,0.2392,0.290
35.665000,0.1467,0.0733,0.4237,0.454
35.668000,0.1179,0.0444,0.5294,0.544
35.724000,0.0774,-0.0234,0.5684,0.574
35.724000,-0.0057,-0.0465,0.5577,0.560
35.725000,-0.0864,-0.0704,0.3801,0.396
35.725000,-0.2008,-0.1021,0.2224,0.317
35.726000,-0.2557,-0.0984,0.1153,0.297
35.726000,-0.2704,-0.0878,-0.0655,0.292
35.726000,-0.2548,-0.0559,-0.1647,0.309
35.726000,-0.2375,-0.0576,-0.2303,0.336
35.726000,-0.2091,-0.0378,-0.2982,0.366
35.727000,-0.1622,-0.0085,-0.3350,0.372
35.728000,-0.1491,-0.0101,-0.4029,0.430
35.728000,-0.0934,0.0413,-0.4471,0.459
35.734000,-0.0117,0.0524,-0.4197,0.423
35.739000,0.0627,0.1142,-0.4000,0.421
35.744000,0.1255,0.1600,-0.3735,0.425
35.749000,0.1935,0.1919,-0.2685,0.383
35.754000,0.2837,0.2101,-0.1569,0.386
35.758000,0.3409,0.2118,-0.0575,0.405
35.763000,0.2862,0.2591,-0.0159,0.386
35.767000,0.2011,0.1964,-0.0029,0.281
35.778000,0.1379,0.1553,0.0340,0.210
35.778000,0.0676,0.1476,0.0757,0.179
35.783000,0.0212,0.1134,0.1342,0.177
35.830000,-0.0395,0.0766,0.1952,0.213
35.831000,-0.1336,0.0467,0.2372,0.276
35.831000,-0.2085,0.0189,0.1670,0.268
35.832000,-0.2500,-0.0523,0.1449,0.294
35.832000,-0.3155,-0.0710,0.0848,0.334
35.832000,-0.3384,-0.1092,-0.0181,0.356
35.832000,-0.3497,-0.0949,-0.0682,0.369
35.833000,-0.3522,-0.0880,-0.1588,0.396
35.833000,-0.2908,-0.0810,-0.1871,0.355
35.833000,-0.1962,-0.0262,-0.1986,0.280
35.840000,-0.0757,-0.0193,-0.1959,0.211
35.842000,0.0563,0.0332,-0.1621,0.175
35.847000,0.1497,0.1002,-0.1237,0.219
35.852000,0.1954,0.1622,-0.0878,0.269
35.857000,0.2292,0.2123,-0.0543,0.317
35.863000,0.2562,0.2171,-0.0472,0.339
35.868000,0.2908,0.1908,-0.0043,0.348
35.879000,0.2422,0.1814,0.0599,0.309
35.879000,0.1921,0.1843,0.0857,0.280
35.882000,0.1137,0.1468,0.1495,0.238
35.916000,0.0527,0.1021,0.1966,0.228
35.916000,-0.0219,0.0694,0.2006,0.213
35.916000,-0.0701,0.0582,0.1951,0.215
35.916000,-0.1280,0.0180,0.2137,0.250
35.917000,-0.1669,-0.0178,0.2301,0.285
35.917000,-0.1608,-0.0490,0.1940,0.257
35.917000,-0.1718,-0.0279,0.1751,0.247
35.922000,-0.1018,-0.0219,0.1565,0.188
35.927000,-0.0419,-0.0401,0.0712,0.092
35.931000,-0.0378,-0.0106,-0.0044,0.039
35.937000,0.0114,0.0259,-0.0463,0.054
35.942000,0.0487,0.0600,-0.0236,0.081
35.947000,0.0717,0.0868,-0.0439,0.121
35.951000,0.1020,0.0896,-0.1001,0.169
35.956000,0.1088,0.0639,-0.1849,0.224
35.962000,0.1353,0.0768,-0.2268,0.275
35.966000,0.1384,0.0878,-0.2666,0.313
35.972000,0.1300,0.1064,-0.3186,0.360
35.976000,0.1508,0.1326,-0.2225,0.300
35.981000,0.1218,0.1162,-0.2344,0.289
35.987000,0.0263,0.0930,-0.2466,0.265
36.001000,-0.0236,0.0437,-0.2493,0.254
36.002000,-0.0881,-0.0029,-0.2210,0.238
36.003000,-0.1699,-0.0255,-0.2144,0.275
36.006000,-0.2041,-0.0505,-0.1217,0.243
36.051000,-0.2244,-0.0634,-0.0745,0.245
36.054000,-0.1805,-0.0383,0.0038,0.185
36.055000,-0.1181,-0.0134,0.0534,0.130
36.056000,-0.0941,-0.0366,0.1126,0.151
36.056000,-0.0703,-0.0432,0.1934,0.210
36.056000,-0.0631,-0.0215,0.2504,0.259
36.057000,-0.0463,-0.0097,0.2192,0.224
36.057000,-0.0509,-0.0343,0.2146,0.223
36.057000,-0.0579,0.0054,0.1887,0.197
36.057000,-0.0408,0.0282,0.0959,0.108
36.061000,-0.0282,0.0198,0.0368,0.050
36.066000,-0.0394,-0.0123,-0.0534,0.068
36.072000,0.0068,0.0130,-0.1141,0.115
36.075000,-0.0259,0.0525,-0.1411,0.153
36.082000,-0.0465,0.0157,-0.1466,0.155
36.086000,-0.0530,0.0149,-0.1805,0.189
36.091000,-0.0454,0.0403,-0.2024,0.211
36.098000,-0.0048,0.0587,-0.2242,0.232
36.102000,-0.0097,0.0461,-0.2009,0.206
36.113000,-0.0075,0.0717,-0.1730,0.187
36.113000,-0.0149,0.0545,-0.1953,0.203
36.115000,-0.0436,0.0376,-0.2651,0.271
36.121000,-0.0274,0.0495,-0.2560,0.262
36.152000,-0.0304,0.0520,-0.2091,0.218
36.153000,-0.0452,0.0332,-0.1675,0.177
36.153000,-0.0268,0.0099,-0.1879,0.190
36.153000,-0.0277,0.0296,-0.2035,0.208
36.154000,-0.0193,0.0254,-0.2261,0.228
36.154000,-0.0276,-0.0097,-0.2105,0.213
36.155000,-0.0457,-0.0066,-0.1878,0.193
36.160000,-0.0212,0.0226,-0.2343,0.236
36.165000,-0.0089,-0.0077,-0.1878,0.188
36.170000,-0.0489,-0.0117,-0.1511,0.159
36.175000,-0.0603,-0.0323,-0.1978,0.209
36.179000,-0.0501,-0.0242,-0.2323,0.239
36.184000,0.0283,0.0219,-0.3236,0.326
36.194000,-0.0059,0.0393,-0.2623,0.265
36.195000,-0.0023,0.0591,-0.2372,0.244
36.200000,0.0202,0.0576,-0.2623,0.269
36.205000,0.0186,0.0419,-0.2849,0.289
36.236000,0.0500,0.0931,-0.2006,0.227
36.237000,0.0908,0.0776,-0.1029,0.158
36.239000,0.1265,0.0764,-0.0678,0.163
36.240000,0.1244,0.0660,0.0240,0.143
36.241000,0.1537,0.0391,0.1339,0.208
36.241000,0.1717,0.0883,0.2335,0.303
36.241000,0.1830,0.0729,0.1685,0.259
36.245000,0.1470,0.0668,0.1494,0.220
36.248000,0.1140,0.0700,0.1685,0.215
36.254000,0.1246,0.0447,0.1211,0.179
36.260000,0.1354,0.0503,0.0433,0.151
36.265000,0.0939,0.0750,-0.0078,0.120
36.270000,0.0174,0.1187,-0.0325,0.124
36.275000,-0.0418,0.1146,-0.0191,0.124
36.279000,-0.0368,0.0892,-0.0224,0.099
36.284000,-0.0108,0.0995,0.0314,0.105
36.289000,-0.0257,0.1002,0.1156,0.155
36.293000,-0.0290,0.0794,0.1588,0.180
36.299000,-0.0250,0.0872,0.1685,0.191
36.304000,-0.0304,0.0876,0.1806,0.203
36.309000,-0.0072,0.1092,0.1404,0.178
36.314000,0.0253,0.1211,0.0603,0.138
36.318000,0.0194,0.1379,-0.0051,0.139
36.356000,0.0395,0.1738,0.0438,0.184
36.357000,0.0385,0.1670,0.0755,0.187
36.357000,0.0710,0.1913,0.1947,0.282
36.358000,0.1013,0.2203,0.2985,0.385
36.358000,0.0749,0.2065,0.3468,0.411
36.358000,0.0705,0.1547,0.4090,0.443
36.358000,0.0262,0.1720,0.4495,0.482
36.361000,-0.0296,0.1520,0.4932,0.517
36.363000,-0.0658,0.1292,0.5492,0.568
36.369000,-0.0946,0.0915,0.5457,0.561
36.375000,-0.0683,0.0079,0.4660,0.471
36.379000,-0.1160,-0.0139,0.3915,0.409
36.384000,-0.1803,-0.0025,0.3819,0.422
36.389000,-0.2136,-0.0107,0.2124,0.301
36.393000,-0.2401,-0.0432,0.0816,0.257
36.398000,-0.2431,-0.0066,0.0204,0.244
36.403000,-0.2637,-0.0156,-0.0309,0.266
36.409000,-0.2203,-0.0032,-0.0679,0.231
36.414000,-0.1340,0.0070,-0.1265,0.184
36.419000,-0.0502,0.0628,-0.0536,0.097
36.430000,-0.0072,0.0900,-0.0980,0.133
36.431000,0.0739,0.1124,-0.1759,0.221
36.433000,0.1168,0.1516,-0.1509,0.244
36.479000,0.1022,0.1694,-0.1691,0.260
36.480000,0.1334,0.1754,-0.1898,0.291
36.480000,0.1459,0.1742,-0.1936,0.299
36.480000,0.0867,0.1540,-0.2144,0.278
36.480000,0.0420,0.0767,-0.2256,0.242
36.481000,0.0092,0.0664,-0.1962,0.207
36.481000,-0.0330,0.0754,-0.2100,0.226
36.481000,-0.0248,0.0344,-0.2574,0.261
36.481000,-0.0430,0.0512,-0.2117,0.222
36.482000,-0.0397,0.0609,-0.1470,0.164
36.489000,-0.0412,0.0302,-0.0251,0.057
36.493000,-0.0040,0.0618,0.0368,0.072
36.497000,0.0142,0.0407,0.0723,0.084
36.503000,0.0037,0.0241,0.0984,0.101
36.509000,-0.0429,0.0504,0.0792,0.103
36.513000,-0.0536,0.0238,0.1103,0.125
36.517000,-0.0765,0.0042,0.0627,0.099
36.524000,-0.1450,-0.0156,0.0105,0.146
36.527000,-0.2042,-0.0569,0.0372,0.215
36.532000,-0.2088,-0.0506,0.0043,0.215
36.536000,-0.2160,-0.0708,-0.0189,0.228
36.574000,-0.2117,-0.0670,-0.0660,0.232
36.575000,-0.1861,-0.0656,-0.0963,0.220
36.575000,-0.1705,-0.1046,-0.0431,0.205
36.575000,-0.0642,-0.0430,0.0219,0.080
36.576000,-0.0009,-0.0103,0.1205,0.121
36.576000,0.0579,-0.0087,0.1878,0.197
36.577000,0.0834,-0.0121,0.2193,0.235
36.577000,0.0829,0.0059,0.2772,0.289
36.584000,0.1045,0.0186,0.2491,0.271
36.588000,0.0809,-0.0358,0.2237,0.241
36.592000,0.0719,-0.0068,0.1818,0.196
36.596000,0.0440,-0.0163,0.0875,0.099
36.601000,-0.0722,-0.0355,-0.0497,0.095
36.607000,-0.1187,-0.0377,-0.2179,0.251
36.611000,-0.1463,-0.0827,-0.3095,0.352
36.616000,-0.1563,-0.0907,-0.4175,0.455
36.622000,-0.1547,-0.0603,-0.4180,0.450
36.627000,-0.0849,-0.0273,-0.4330,0.442
36.632000,-0.0089,0.0105,-0.4077,0.408
36.637000,0.0803,0.0484,-0.2501,0.267
36.649000,0.1238,0.0413,-0.0868,0.157
36.653000,0.1199,0.0246,-0.0222,0.124
36.655000,0.1539,-0.0302,0.0682,0.171
36.706000,0.1280,0.0146,0.0941,0.160
36.707000,0.0831,-0.0102,0.0583,0.102
36.707000,0.0030,-0.0114,0.0112,0.016
36.707000,-0.0503,-0.0271,-0.0093,0.058
36.707000,-0.0792,-0.0710,-0.1294,0.168
36.708000,-0.1173,-0.1145,-0.2082,0.265
36.708000,-0.1579,-0.0814,-0.1844,0.256
36.708000,-0.1652,-0.0580,-0.1680,0.243
36.708000,-0.1677,-0.0584,-0.2016,0.269
36.709000,-0.1321,-0.0777,-0.2184,0.267
36.709000,-0.1277,-0.1109,-0.2519,0.303
36.711000,-0.1470,-0.1078,-0.2521,0.311
36.715000,-0.1112,-0.0758,-0.2834,0.314
36.721000,-0.0517,-0.0674,-0.3194,0.331
36.725000,-0.0353,-0.0470,-0.3791,0.384
36.732000,-0.0286,-0.0358,-0.3697,0.373
36.736000,-0.0081,-0.0056,-0.3368,0.337
36.745000,0.0530,0.0295,-0.3016,0.308
36.746000,0.1708,0.0789,-0.2043,0.278
36.750000,0.2282,0.1281,-0.1118,0.285
36.797000,0.2901,0.1412,-0.0527,0.327
36.798000,0.2876,0.1444,-0.0175,0.322
36.798000,0.2253,0.1619,-0.0110,0.278
36.798000,0.1659,0.1100,-0.0427,0.204
36.799000,0.0736,0.0585,-0.0053,0.094
36.799000,-0.0132,0.0027,0.0152,0.020
36.799000,-0.0777,-0.0287,0.0521,0.098
36.799000,-0.1178,-0.0550,0.0839,0.155
36.799000,-0.1550,-0.0570,0.1012,0.194
36.800000,-0.2015,-0.0442,0.0942,0.227
36.811000,-0.2048,-0.0410,0.1710,0.270
36.812000,-0.1509,-0.0449,0.2834,0.324
36.816000,-0.1260,0.0202,0.4008,0.421
36.821000,-0.0656,0.0319,0.4706,0.476
36.825000,-0.0128,0.0190,0.4882,0.489
36.830000,0.0108,0.0508,0.4847,0.487
36.834000,-0.0355,0.0841,0.4363,0.446
36.840000,-0.0536,0.0736,0.3932,0.404
36.848000,-0.0481,0.0961,0.3482,0.364
36.851000,-0.0549,0.0821,0.2987,0.315
36.865000,-0.0450,0.0751,0.1969,0.215
36.865000,-0.0208,0.0680,0.1191,0.139
36.866000,-0.0107,0.0565,0.0556,0.080
36.870000,-0.0166,0.0862,0.0779,0.117
36.919000,0.0143,0.1044,0.1046,0.148
36.920000,0.0005,0.1063,0.1310,0.169
36.920000,0.0354,0.0799,0.1333,0.159
36.921000,0.0352,0.0778,0.1162,0.144
36.921000,0.0018,0.1117,0.1038,0.152
36.921000,-0.0361,0.0858,0.0866,0.127
36.921000,-0.0551,0.0766,0.1293,0.160
36.922000,-0.0551,0.0552,0.1027,0.129
36.922000,-0.0748,0.0145,0.0715,0.104
36.922000,-0.0922,-0.0216,0.0644,0.115
36.930000,-0.1147,-0.0293,0.0623,0.134
36.930000,-0.1376,-0.0636,-0.0041,0.152
36.935000,-0.1252,-0.0432,-0.1444,0.196
36.939000,-0.1254,-0.0231,-0.2413,0.273
36.945000,-0.0377,-0.0101,-0.2760,0.279
36.949000,0.0375,0.0293,-0.2438,0.248
36.956000,0.0982,0.0520,-0.2188,0.245
36.959000,0.1303,0.0915,-0.2083,0.262
36.966000,0.1458,0.0859,-0.2482,0.300
36.969000,0.1905,0.0853,-0.2213,0.304
36.975000,0.1809,0.1161,-0.1898,0.287
36.979000,0.1622,0.0971,-0.1634,0.250
36.984000,0.1394,0.0642,-0.1565,0.219
36.995000,0.1124,0.0626,-0.1808,0.222
36.995000,0.0453,0.0471,-0.2053,0.215
36.998000,-0.0168,0.0248,-0.2323,0.234
37.003000,-0.0148,0.0289,-0.2068,0.209
37.046000,-0.0590,0.0235,-0.1838,0.195
37.046000,-0.0609,0.0037,-0.0365,0.071
37.047000,-0.0609,0.0026,0.0416,0.074
37.047000,-0.0472,-0.0181,0.1271,0.137
37.047000,-0.0219,-0.0441,0.1483,0.156
37.047000,-0.0446,-0.0440,0.1217,0.137
37.048000,-0.0747,-0.0467,0.0596,0.106
37.048000,-0.0761,-0.0328,0.0144,0.084
37.048000,-0.0777,-0.0211,0.0169,0.082
37.054000,-0.0647,-0.0236,0.0648,0.095
37.058000,-0.0728,-0.0234,0.0168,0.078
37.063000,-0.0988,-0.0538,-0.0216,0.115
37.068000,-0.0888,-0.0362,-0.0550,0.111
37.077000,-0.1356,-0.0256,-0.1144,0.179
37.077000,-0.1274,-0.0149,-0.1711,0.214
37.083000,-0.0673,-0.0040,-0.1563,0.170
37.114000,0.0037,0.0450,-0.0848,0.096
37.114000,0.1146,0.1056,0.0004,0.156
37.115000,0.1775,0.0944,0.1347,0.242
37.115000,0.2332,0.0974,0.2229,0.337
37.115000,0.2199,0.0836,0.2321,0.330
37.115000,0.1742,0.0744,0.2176,0.288
37.119000,0.0887,0.0555,0.1252,0.163
37.124000,-0.0079,0.0248,0.0335,0.042
37.127000,-0.0873,0.0109,0.0638,0.109
37.132000,-0.1805,-0.0195,0.0178,0.182
37.137000,-0.2400,-0.0496,0.0172,0.246
37.142000,-0.3111,-0.0652,-0.0332,0.320
37.147000,-0.3228,-0.0972,-0.0832,0.347
37.154000,-0.3560,-0.0959,-0.0448,0.371
37.159000,-0.2610,-0.0660,-0.0472,0.273
37.162000,-0.1861,0.0134,-0.0377,0.190
37.167000,-0.0717,0.0231,-0.0376,0.084
37.173000,0.0536,0.0753,-0.0232,0.095
37.177000,0.1542,0.1198,-0.0087,0.195
37.182000,0.1877,0.1612,-0.0537,0.253
37.187000,0.2330,0.1738,-0.1076,0.310
37.195000,0.1997,0.2007,-0.1660,0.328
37.198000,0.1169,0.1991,-0.2335,0.328
37.203000,0.0870,0.1789,-0.2461,0.316
37.228000,-0.0094,0.1571,-0.2210,0.271
37.229000,-0.0620,0.1385,-0.1396,0.206
37.230000,-0.0688,0.1110,0.0596,0.144
37.230000,-0.0348,0.0817,0.2427,0.258
37.230000,-0.0290,0.0335,0.3816,0.384
37.232000,-0.0347,-0.0050,0.4720,0.473
37.236000,-0.0377,0.0065,0.5120,0.513
37.241000,-0.0789,0.0053,0.5106,0.517
37.247000,-0.1104,-0.0299,0.4760,0.490
37.252000,-0.1395,-0.0178,0.3487,0.376
37.259000,-0.1548,-0.0328,0.2292,0.278
37.261000,-0.1729,-0.0625,0.1172,0.218
37.266000,-0.1677,-0.0207,-0.0184,0.170
37.272000,-0.1344,-0.0219,-0.0295,0.139
37.277000,-0.0896,-0.0327,-0.0024,0.095
37.281000,-0.0832,-0.0364,-0.0159,0.092
37.286000,-0.0388,-0.0258,-0.0676,0.082
37.292000,-0.0234,-0.0031,-0.1169,0.119
37.296000,0.0491,0.0365,-0.1185,0.133
37.302000,0.1313,0.0502,-0.0415,0.147
37.314000,0.2164,0.0474,0.0520,0.228
37.316000,0.2039,0.0735,0.1836,0.284
37.316000,0.2497,0.0829,0.2982,0.398
37.367000,0.2702,0.0491,0.3458,0.442
37.368000,0.1790,0.0222,0.3434,0.388
37.368000,0.0691,-0.0026,0.2671,0.276
37.369000,-0.0069,-0.0994,0.1337,0.167
37.370000,-0.0230,-0.0958,-0.0712,0.122
37.370000,-0.0897,-0.1208,-0.2018,0.252
37.371000,-0.1758,-0.0930,-0.2988,0.359
37.372000,-0.1594,-0.0795,-0.3313,0.376
37.372000,-0.1486,-0.1304,-0.3040,0.363
37.372000,-0.1074,-0.1283,-0.3224,0.363
37.373000,-0.0932,-0.1335,-0.2714,0.317
37.378000,-0.0124,-0.1124,-0.1751,0.208
37.382000,0.0394,-0.1057,-0.1626,0.198
37.387000,0.0359,-0.0871,-0.2313,0.250
37.392000,0.0827,-0.0397,-0.2450,0.262
37.395000,0.1032,-0.0184,-0.2804,0.299
37.400000,0.0858,-0.0540,-0.3352,0.350
37.411000,0.0496,-0.0604,-0.3258,0.335
37.412000,0.0664,-0.0447,-0.2831,0.294
37.415000,0.0884,-0.0429,-0.2361,0.256
37.419000,0.0699,-0.0359,-0.1630,0.181
37.450000,0.0468,-0.0430,-0.1381,0.152
37.450000,-0.0096,-0.0379,-0.0344,0.052
37.451000,-0.0539,-0.0735,0.0620,0.110
37.451000,-0.1102,-0.0971,0.0507,0.155
37.451000,-0.1428,-0.1400,0.0873,0.218
37.451000,-0.1539,-0.1519,0.1455,0.261
37.455000,-0.1366,-0.1306,0.2134,0.285
37.465000,-0.1625,-0.1096,0.2742,0.337
37.465000,-0.1815,-0.1368,0.2754,0.357
37.470000,-0.1766,-0.1333,0.2146,0.308
37.475000,-0.2008,-0.1278,0.1805,0.299
37.482000,-0.1798,-0.1321,0.0987,0.244
37.486000,-0.1375,-0.1294,0.0339,0.192
37.491000,-0.1170,-0.1053,-0.0594,0.168
37.495000,-0.0826,-0.0570,-0.1815,0.207
37.501000,0.0043,0.0251,-0.1890,0.191
37.506000,0.0313,0.0430,-0.0653,0.084
37.509000,0.0967,0.0850,0.0462,0.137
37.515000,0.1265,0.1104,0.1217,0.207
37.520000,0.2332,0.1429,0.1587,0.316
37.531000,0.2300,0.1585,0.1504,0.317
37.532000,0.1957,0.1692,0.1709,0.310
37.536000,0.1976,0.1893,0.2249,0.354
37.574000,0.1424,0.1686,0.2287,0.318
37.575000,0.1138,0.1308,0.2280,0.286
37.575000,0.0710,0.1024,0.2179,0.251
37.576000,-0.0195,0.1214,0.1626,0.204
37.576000,-0.0766,0.1019,0.1004,0.162
37.576000,-0.0765,0.0703,0.0933,0.140
37.576000,-0.0337,0.0744,0.0864,0.119
37.576000,-0.0080,0.0950,0.0485,0.107
37.579000,-0.0015,0.1083,-0.0060,0.109
37.584000,-0.0001,0.1574,-0.0699,0.172
37.590000,0.0420,0.1753,-0.1528,0.236
37.595000,0.0072,0.1719,-0.2406,0.296
37.600000,0.0653,0.1592,-0.2496,0.303
37.604000,0.1159,0.2185,-0.1894,0.312
37.609000,0.1713,0.2399,-0.1175,0.317
37.615000,0.1766,0.2305,-0.0364,0.293
37.619000,0.1681,0.1854,0.0804,0.263
37.628000,0.1338,0.1427,0.1564,0.250
37.629000,0.1097,0.1312,0.1630,0.236
37.634000,0.0690,0.0884,0.1697,0.203
37.676000,0.0046,0.0838,0.1645,0.185
37.677000,-0.0691,0.0718,0.1045,0.144
37.677000,-0.1039,0.0189,0.0799,0.132
37.678000,-0.0648,0.0139,0.0556,0.087
37.678000,-0.0216,0.0279,0.0837,0.091
37.678000,0.0114,0.0607,0.1639,0.175
37.678000,0.0368,0.0644,0.2245,0.236
37.679000,0.0812,0.1224,0.2659,0.304
37.679000,0.0967,0.0868,0.2836,0.312
37.683000,0.0669,0.0700,0.1993,0.222
37.690000,0.0424,0.0840,0.0826,0.125
37.693000,-0.0127,0.0528,-0.0450,0.071
37.698000,-0.1074,0.0221,-0.0980,0.147
37.704000,-0.1202,-0.0246,-0.1248,0.175
37.710000,-0.1895,-0.0632,-0.1992,0.282
37.715000,-0.2248,-0.1033,-0.2187,0.330
37.719000,-0.2620,-0.1259,-0.2266,0.369
37.725000,-0.2635,-0.1265,-0.1657,0.336
37.728000,-0.1986,-0.1126,-0.0462,0.233
37.733000,-0.1604,-0.0822,-0.0061,0.180
37.744000,-0.1061,-0.0594,0.0054,0.122
37.745000,-0.0811,-0.0750,0.0382,0.117
37.748000,-0.0426,-0.0742,0.0734,0.113
37.753000,-0.0523,-0.0904,0.0539,0.117
37.795000,-0.1075,-0.0640,0.0490,0.134
37.796000,-0.1340,-0.0905,0.0586,0.172
37.796000,-0.1037,-0.1123,0.0327,0.156
37.796000,-0.0595,-0.0676,0.0547,0.105
37.797000,-0.0585,-0.0898,0.0527,0.119
37.797000,-0.0861,-0.0786,0.0080,0.117
37.797000,-0.0726,-0.0721,0.0159,0.104
37.797000,-0.0873,-0.0701,-0.0477,0.122
37.797000,-0.0994,-0.0774,-0.0849,0.152
37.803000,-0.1301,-0.0914,-0.1528,0.221
37.807000,-0.1298,-0.0574,-0.1586,0.213
37.813000,-0.0918,-0.0875,-0.1670,0.210
37.818000,-0.0589,-0.0790,-0.1281,0.162
37.823000,-0.0334,-0.0464,0.0123,0.058
37.827000,0.0088,-0.0685,0.0802,0.106
37.832000,0.0105,-0.0881,0.1808,0.201
37.837000,0.0244,-0.0816,0.2024,0.220
37.842000,0.0361,-0.0707,0.1504,0.170
37.847000,0.0450,-0.0816,0.1014,0.138
37.853000,0.0347,-0.0691,0.1196,0.142
37.863000,0.0576,-0.0356,0.0571,0.089
37.863000,0.0709,-0.0359,-0.0095,0.080
37.867000,0.0507,-0.0104,-0.0611,0.080
37.916000,0.0353,0.0077,-0.1620,0.166
37.917000,-0.0038,0.0090,-0.2503,0.250
37.917000,-0.0355,0.0152,-0.3023,0.305
37.917000,-0.0458,0.0051,-0.3494,0.352
37.918000,-0.0423,0.0525,-0.4153,0.421
37.918000,-0.0392,0.0596,-0.3599,0.367
37.918000,-0.0363,0.0625,-0.2556,0.266
37.919000,-0.0096,0.0943,-0.1286,0.160
37.919000,0.0407,0.0667,0.0020,0.078
37.919000,0.0695,0.0774,0.1005,0.145
37.925000,0.0770,0.0783,0.2102,0.237
37.926000,0.0893,0.0340,0.2336,0.252
37.931000,0.0661,0.0041,0.2070,0.217
37.936000,0.0909,0.0456,0.1785,0.205
37.942000,0.0986,0.0581,0.1336,0.176
37.947000,0.1109,0.0563,0.1958,0.232
37.952000,0.1635,0.0687,0.2648,0.319
37.964000,0.1732,0.0926,0.3546,0.405
37.965000,0.2115,0.0782,0.3703,0.434
37.968000,0.1496,0.0516,0.3576,0.391
38.031000,0.1500,0.0675,0.3927,0.426
38.032000,0.1695,0.0876,0.3851,0.430
38.032000,0.1448,0.0960,0.3806,0.418
38.032000,0.1157,0.0944,0.3332,0.365
38.032000,0.0414,0.0350,0.2480,0.254
38.033000,-0.0041,0.0161,0.2012,0.202
38.033000,-0.0326,0.0113,0.0925,0.099
38.033000,-0.0398,-0.0056,-0.0733,0.084
38.033000,-0.0210,0.0420,-0.1528,0.160
38.033000,0.0309,0.0706,-0.2467,0.259
38.033000,0.0374,0.0828,-0.2929,0.307
38.034000,0.0918,0.1383,-0.2818,0.327
38.034000,0.1440,0.1270,-0.2972,0.354
38.038000,0.1722,0.1017,-0.3463,0.400
38.043000,0.1764,0.1222,-0.3692,0.427
38.047000,0.1972,0.1430,-0.3158,0.399
38.050000,0.2108,0.1332,-0.2938,0.385
38.055000,0.2153,0.1525,-0.2147,0.340
38.060000,0.2344,0.1264,-0.0808,0.278
38.065000,0.2036,0.0815,0.0264,0.221
38.070000,0.1708,0.0367,0.0786,0.192
38.076000,0.1097,0.0443,0.0567,0.131
38.080000,0.0416,-0.0295,0.0468,0.069
38.085000,-0.0265,-0.0362,0.0106,0.046
38.137000,-0.0661,-0.0047,0.0247,0.071
38.138000,-0.0675,0.0123,0.0437,0.081
38.138000,-0.0641,-0.0379,0.0197,0.077
38.139000,-0.0921,-0.0475,-0.0042,0.104
38.139000,-0.0916,-0.0573,-0.0326,0.113
38.139000,-0.0770,-0.0169,-0.0827,0.114
38.139000,-0.0773,-0.0026,-0.0872,0.117
38.140000,-0.0684,0.0141,0.0037,0.070
38.140000,-0.0451,0.0213,0.1280,0.137
38.140000,-0.0408,0.0022,0.2210,0.225
38.141000,-0.0575,-0.0170,0.3500,0.355
38.146000,-0.0212,-0.0461,0.3642,0.368
38.150000,-0.0778,-0.0995,0.3571,0.379
38.156000,-0.1602,-0.0934,0.2570,0.317
38.161000,-0.2522,-0.1069,0.0617,0.281
38.165000,-0.2536,-0.0942,-0.0591,0.277
38.170000,-0.2481,-0.1173,-0.1679,0.322
38.175000,-0.2026,-0.0876,-0.1882,0.290
38.179000,-0.1647,-0.0721,-0.1800,0.254
38.184000,-0.1151,-0.0636,-0.1623,0.209
38.197000,-0.0969,-0.0241,-0.0968,0.139
38.198000,-0.0645,-0.0083,-0.1127,0.130
38.199000,-0.0369,0.0193,-0.1884,0.193
38.238000,0.0025,0.0687,-0.1662,0.180
38.239000,0.0466,0.0895,-0.1201,0.157
38.240000,0.0886,0.0961,-0.0432,0.138
38.240000,0.0739,0.0982,0.0431,0.130
38.240000,0.0524,0.0693,0.0694,0.111
38.240000,-0.0020,0.0332,0.1340,0.138
38.240000,-0.0318,-0.0219,0.1211,0.127
38.241000,-0.0992,-0.0410,0.0563,0.121
38.244000,-0.1187,-0.0365,-0.0127,0.125
38.251000,-0.1361,-0.0415,-0.0051,0.142
38.255000,-0.1015,-0.0396,-0.0567,0.123
38.260000,-0.0769,-0.0140,-0.0771,0.110
38.263000,-0.1408,-0.0195,-0.0782,0.162
38.269000,-0.1380,-0.0180,-0.0769,0.159
38.275000,-0.1094,-0.0450,-0.1136,0.164
38.279000,-0.0888,-0.0576,-0.1357,0.172
38.284000,-0.1110,-0.0627,-0.1174,0.173
38.295000,-0.0736,-0.0818,-0.1019,0.150
38.295000,0.0066,-0.0459,-0.0794,0.092
38.298000,0.0389,-0.0101,-0.1024,0.110
38.304000,0.0832,-0.0028,-0.0280,0.088
38.338000,0.1106,0.0094,0.0148,0.112
38.339000,0.1620,-0.0117,0.1450,0.218
38.339000,0.1708,0.0078,0.1887,0.255
38.339000,0.0730,0.0103,0.1941,0.208
38.339000,-0.0121,-0.0375,0.1333,0.139
38.339000,-0.1180,-0.0781,0.1159,0.183
38.340000,-0.2020,-0.1090,0.0655,0.239
38.344000,-0.2264,-0.1206,0.0299,0.258
38.349000,-0.2105,-0.1631,0.0491,0.271
38.354000,-0.2470,-0.1552,0.0538,0.297
38.359000,-0.1908,-0.1141,0.0775,0.235
38.363000,-0.1327,-0.1066,0.0225,0.172
38.368000,-0.0728,-0.0706,-0.0201,0.103
38.373000,-0.0017,-0.0300,-0.0078,0.031
38.378000,0.0636,0.0291,-0.0407,0.081
38.383000,0.1281,0.0735,0.0241,0.150
38.389000,0.1874,0.0724,0.0717,0.213
38.394000,0.2392,0.0855,0.0928,0.270
38.398000,0.2791,0.1032,0.1114,0.318
38.404000,0.2549,0.0921,0.0943,0.287
38.409000,0.2287,0.0621,0.0631,0.245
38.413000,0.2051,0.1036,-0.0438,0.234
38.419000,0.1484,0.1090,-0.0762,0.199
38.431000,0.1659,0.1290,-0.0396,0.214
38.431000,0.2024,0.1156,0.0038,0.233
38.432000,0.1679,0.0835,0.0229,0.189
38.476000,0.1317,0.0590,-0.0010,0.144
38.477000,0.0961,0.0609,-0.0318,0.118
38.477000,0.0585,0.0389,-0.0646,0.095
38.477000,0.0141,0.0028,-0.1922,0.193
38.477000,-0.0186,0.0549,-0.2356,0.243
38.478000,-0.0184,0.0615,-0.1980,0.208
38.478000,0.0148,0.0350,-0.1300,0.135
38.478000,0.0905,0.0420,-0.0151,0.101
38.478000,0.1564,0.0228,0.0539,0.167
38.482000,0.1675,-0.0036,0.0297,0.170
38.489000,0.1502,-0.0157,0.0011,0.151
38.492000,0.1238,-0.0541,0.0063,0.135
38.498000,0.0641,-0.0283,-0.0455,0.084
38.502000,0.0119,-0.0409,-0.1679,0.173
38.508000,-0.0091,-0.0061,-0.2797,0.280
38.512000,-0.0728,-0.0165,-0.3314,0.340
38.517000,-0.0984,-0.0146,-0.3804,0.393
38.528000,-0.1169,-0.0386,-0.3960,0.415
38.529000,-0.1448,-0.0028,-0.4259,0.450
38.532000,-0.1373,-0.0096,-0.4653,0.485
38.537000,-0.1290,0.0247,-0.4772,0.495
38.565000,-0.0951,0.0666,-0.4320,0.447
38.567000,-0.0283,0.0946,-0.3012,0.317
38.568000,0.0144,0.1230,-0.1254,0.176
38.568000,0.1028,0.1324,0.0788,0.185
38.568000,0.1701,0.1179,0.2755,0.345
38.569000,0.2665,0.1273,0.4147,0.509
38.575000,0.2484,0.1435,0.5420,0.613
38.578000,0.2117,0.1424,0.6097,0.661
38.582000,0.1182,0.0978,0.5652,0.586
38.587000,0.0922,0.0603,0.5184,0.530
38.592000,0.0811,0.0323,0.4360,0.445
38.596000,0.0417,0.0090,0.4446,0.447
38.602000,-0.0042,-0.0262,0.4461,0.447
38.606000,-0.0044,-0.0327,0.4451,0.446
38.611000,-0.0403,-0.0371,0.4682,0.471
38.618000,-0.0643,-0.0322,0.4820,0.487
38.630000,-0.0692,-0.0492,0.4506,0.459
38.630000,-0.0695,-0.0547,0.3980,0.408
38.632000,-0.0293,-0.0464,0.3840,0.388
38.636000,-0.0538,-0.0625,0.3130,0.324
38.679000,-0.1358,-0.0527,0.2017,0.249
38.680000,-0.1318,-0.0841,0.0575,0.167
38.680000,-0.1595,-0.1253,-0.0936,0.223
38.681000,-0.1996,-0.0949,-0.2205,0.312
38.681000,-0.2016,-0.0742,-0.3280,0.392
38.681000,-0.1586,-0.0437,-0.4643,0.493
38.681000,-0.1401,-0.1015,-0.5527,0.579
38.682000,-0.1027,-0.0822,-0.5959,0.610
38.682000,-0.0414,-0.0479,-0.6156,0.619
38.686000,-0.0139,-0.0012,-0.6332,0.633
38.692000,-0.0030,0.0246,-0.5795,0.580
38.696000,0.0581,0.0297,-0.5312,0.535
38.701000,0.0907,0.0187,-0.4379,0.448
38.706000,0.1521,0.0082,-0.3332,0.366
38.710000,0.1992,0.0243,-0.2048,0.287
38.716000,0.2202,0.0502,-0.0624,0.234
38.722000,0.2389,0.0354,0.0798,0.254
38.726000,0.2243,0.0491,0.1837,0.294
38.731000,0.1815,0.0338,0.2399,0.303
38.735000,0.1414,0.0158,0.2628,0.299
38.743000,0.0849,-0.0264,0.2571,0.272
38.745000,0.0239,-0.0591,0.2396,0.248
38.750000,-0.0657,-0.0898,0.2199,0.246
38.781000,-0.1792,-0.1134,0.1718,0.273
38.782000,-0.2161,-0.1228,0.0568,0.255
38.782000,-0.2317,-0.1298,-0.0198,0.266
38.782000,-0.2572,-0.1153,-0.0030,0.282
38.783000,-0.2327,-0.0934,-0.0869,0.265
38.783000,-0.1846,-0.1120,-0.0631,0.225
38.786000,-0.1534,-0.0659,-0.0323,0.170
38.791000,-0.1077,-0.0388,-0.0088,0.115
38.795000,-0.0835,-0.0308,0.0003,0.089
38.800000,-0.0643,0.0202,-0.0313,0.074
38.807000,-0.0716,0.0184,-0.0772,0.107
38.810000,-0.0217,0.0047,-0.0608,0.065
38.815000,0.0257,0.0317,-0.0444,0.060
38.820000,0.1088,0.0346,-0.0017,0.114
38.824000,0.1320,0.0494,0.0028,0.141
38.830000,0.1291,0.0785,-0.0358,0.155
38.835000,0.1000,0.0839,-0.0171,0.132
38.849000,0.0470,0.0437,0.0375,0.074
38.850000,0.0134,0.0348,0.0944,0.102
38.850000,-0.0273,0.0115,0.1058,0.110
38.903000,-0.0771,-0.0238,0.0551,0.098
38.903000,-0.1079,-0.0304,0.0475,0.122
38.903000,-0.0719,-0.0369,0.0255,0.085
38.904000,-0.0957,-0.0218,0.0226,0.101
38.904000,-0.1194,0.0197,0.0651,0.137
38.904000,-0.0665,0.0348,0.0836,0.112
38.904000,-0.0399,0.0139,0.1022,0.111
38.904000,0.0102,0.0242,0.0275,0.038
38.904000,0.1198,0.0391,0.0677,0.143
38.905000,0.1907,0.1136,0.1677,0.278
38.905000,0.2140,0.1327,0.2081,0.327
38.912000,0.2205,0.1276,0.2103,0.330
38.914000,0.2225,0.1297,0.2197,0.339
38.920000,0.1577,0.1029,0.1742,0.257
38.924000,0.1438,0.0953,0.2005,0.265
38.929000,0.1278,0.0759,0.2362,0.279
38.934000,0.0787,0.0924,0.2480,0.276
38.940000,0.0273,0.0439,0.1844,0.192
38.944000,-0.0070,0.0291,0.1213,0.125
38.950000,-0.0411,-0.0142,0.1514,0.157
38.954000,-0.0487,-0.0263,0.1480,0.158
38.960000,-0.0422,-0.0126,0.0737,0.086
38.965000,0.0209,-0.0038,0.0808,0.084
38.969000,0.0522,0.0259,0.0215,0.062
38.980000,0.0876,0.0505,-0.0799,0.129
38.981000,0.1318,0.0297,-0.0712,0.153
38.983000,0.1825,0.0445,-0.0720,0.201
39.032000,0.1803,0.0593,-0.1155,0.222
39.032000,0.2020,0.0860,-0.1066,0.244
39.033000,0.2141,0.0842,-0.1168,0.258
39.033000,0.1929,0.0802,-0.1485,0.256
39.033000,0.2007,0.0979,-0.1184,0.253
39.033000,0.2139,0.0589,-0.1030,0.245
39.034000,0.1846,0.0560,-0.0689,0.205
39.034000,0.1509,0.0249,-0.0755,0.171
39.034000,0.1391,0.0131,-0.1202,0.184
39.034000,0.1487,0.0300,-0.1076,0.186
39.041000,0.2175,0.0515,-0.0499,0.229
39.044000,0.2379,0.0777,-0.0403,0.254
39.049000,0.2702,0.0680,-0.0118,0.279
39.054000,0.2478,0.0678,0.0047,0.257
39.059000,0.2021,0.0511,0.0257,0.210
39.064000,0.1974,0.0370,0.0394,0.205
39.067000,0.1335,0.0517,0.0624,0.156
39.075000,0.0965,0.0427,0.0494,0.117
39.078000,0.0979,0.0030,0.0388,0.105
39.082000,0.0545,0.0137,0.0924,0.108
39.113000,0.0714,0.0197,0.1193,0.140
39.113000,0.0551,0.0164,0.0911,0.108
39.114000,0.0417,0.0416,0.0775,0.097
39.114000,0.0759,0.0570,0.0665,0.116
39.114000,0.1146,0.0366,0.0128,0.121
39.114000,0.0911,0.0806,-0.0809,0.146
39.118000,0.0745,0.1007,-0.1050,0.163
39.123000,0.1124,0.0851,-0.0792,0.162
39.128000,0.1144,0.0699,0.0079,0.134
39.132000,0.1406,0.0955,0.0253,0.172
39.137000,0.1006,0.0354,0.0877,0.138
39.142000,0.0684,0.0446,0.1116,0.138
39.148000,0.0133,0.0300,0.1259,0.130
39.153000,-0.0244,-0.0015,0.0452,0.051
39.158000,-0.0661,0.0004,-0.0464,0.081
39.163000,-0.1716,-0.0003,-0.1515,0.229
39.168000,-0.2836,0.0083,-0.1725,0.332
39.177000,-0.3834,-0.0141,-0.2620,0.465
39.177000,-0.4737,-0.0270,-0.3033,0.563
39.183000,-0.5005,-0.0211,-0.3488,0.610
39.186000,-0.5487,-0.0083,-0.3775,0.666
39.225000,-0.5787,0.0020,-0.3799,0.692
39.226000,-0.5378,0.0171,-0.3608,0.648
39.226000,-0.4977,0.0659,-0.3706,0.624
39.226000,-0.4629,0.0983,-0.3329,0.579
39.226000,-0.4354,0.1884,-0.2332,0.529
39.227000,-0.3886,0.2402,-0.1027,0.468
39.227000,-0.3823,0.2995,-0.0442,0.488
39.227000,-0.3895,0.3016,0.0236,0.493
39.232000,-0.4273,0.3421,0.0673,0.551
39.237000,-0.4786,0.3516,0.0367,0.595
39.242000,-0.5605,0.3541,0.0324,0.664
39.247000,-0.7041,0.3065,0.0759,0.772
39.252000,-0.8235,0.2971,0.0308,0.876
39.257000,-0.9238,0.3117,0.0002,0.975
39.261000,-1.0004,0.3550,-0.0137,1.062
39.266000,-1.0582,0.3195,0.0417,1.106
39.282000,-1.1473,0.3391,0.1064,1.201
39.283000,-1.1741,0.2942,0.1783,1.223
39.283000,-1.2011,0.3113,0.2310,1.262
39.287000,-1.2351,0.3067,0.3149,1.311
39.337000,-1.3119,0.3115,0.2960,1.380
39.339000,-1.3503,0.3158,0.3109,1.421
39.339000,-1.3624,0.3244,0.2711,1.426
39.339000,-1.3647,0.3278,0.1671,1.413
39.340000,-1.3979,0.2997,0.0586,1.431
39.340000,-1.4476,0.3027,-0.0329,1.479
39.340000,-1.5136,0.2962,-0.1363,1.548
39.341000,-1.5434,0.2682,-0.2372,1.584
39.341000,-1.5827,0.2691,-0.3525,1.644
39.341000,-1.6291,0.2559,-0.5059,1.725
39.341000,-1.6516,0.2215,-0.6379,1.784
39.346000,-1.6741,0.2045,-0.6840,1.820
39.350000,-1.7585,0.1380,-0.5895,1.860
39.356000,-1.8016,0.0389,-0.5026,1.871
39.361000,-1.8725,-0.0452,-0.4019,1.916
39.366000,-1.9592,-0.1074,-0.3636,1.996
39.370000,-2.0503,-0.2173,-0.3636,2.094
39.377000,-2.2516,-0.3703,-0.4257,2.321
39.382000,-2.2989,-0.4497,-0.2482,2.356
39.387000,-2.2332,-0.3702,-0.1800,2.271
39.396000,-2.3245,-0.4740,-0.3622,2.400
39.397000,-2.3719,-0.6099,-0.4311,2.487
39.400000,-2.3634,-0.6819,-0.4875,2.508
39.440000,-2.3899,-0.7021,-0.5695,2.555
39.441000,-2.3266,-0.7659,-0.6560,2.536
39.442000,-2.2140,-0.7843,-0.6944,2.449
39.442000,-2.1495,-0.7500,-0.7424,2.395
39.442000,-2.0876,-0.7802,-0.8239,2.376
39.442000,-2.0690,-0.8387,-0.8386,2.385
39.443000,-2.0460,-0.8489,-0.8152,2.360
39.443000,-1.9850,-0.8731,-0.8471,2.328
39.445000,-1.9816,-0.9135,-0.8410,2.338
39.449000,-1.9731,-0.9389,-0.8090,2.330
39.455000,-1.9569,-0.9755,-0.7990,2.328
39.460000,-1.9806,-1.0042,-0.8660,2.384
39.465000,-1.9365,-1.0605,-0.8689,2.373
39.473000,-1.9370,-1.1395,-0.8701,2.410
39.476000,-1.8910,-1.1575,-0.9055,2.395
39.481000,-1.8847,-1.1791,-0.9344,2.412
39.486000,-1.8607,-1.2570,-0.8587,2.404
39.490000,-1.8168,-1.3314,-0.6808,2.353
39.494000,-1.7791,-1.3596,-0.4988,2.294
39.500000,-1.8337,-1.4593,-0.3673,2.372
39.512000,-1.9495,-1.6211,-0.2239,2.545
39.514000,-2.0576,-1.7211,-0.1832,2.689
39.515000,-2.1874,-1.7499,-0.1683,2.806
39.519000,-2.3511,-1.7463,-0.1959,2.935
39.560000,-2.5089,-1.7058,-0.2154,3.042
39.562000,-2.6541,-1.6645,-0.2770,3.145
39.562000,-2.8374,-1.5820,-0.4428,3.279
39.563000,-2.9710,-1.5467,-0.5668,3.397
39.563000,-3.0216,-1.4816,-0.6373,3.425
39.564000,-2.9843,-1.3628,-0.6186,3.339
39.564000,-2.8766,-1.2237,-0.5826,3.180
39.564000,-2.9400,-1.0715,-0.5341,3.174
39.567000,-2.9968,-0.9252,-0.3942,3.161
39.570000,-3.0564,-0.8301,-0.2851,3.180
39.574000,-3.0512,-0.7261,-0.2260,3.145
39.580000,-3.0648,-0.6439,-0.1428,3.135
39.585000,-3.0538,-0.5757,-0.1771,3.113
39.589000,-2.9768,-0.4634,-0.1403,3.016
39.594000,-2.8809,-0.3949,0.1658,2.913
39.599000,-2.7722,-0.3079,0.6067,2.854
39.604000,-2.5717,-0.3080,1.0104,2.780
39.609000,-2.3893,-0.3187,1.4463,2.811
39.614000,-2.2242,-0.3525,1.9099,2.953
39.618000,-2.1439,-0.3596,2.2413,3.122
39.630000,-2.0286,-0.3666,2.4719,3.219
39.631000,-1.9550,-0.3907,2.5972,3.274
39.634000,-1.9398,-0.3907,2.1652,2.933
39.678000,-1.7442,-0.2514,2.3694,2.953
39.679000,-1.8847,-0.4012,2.8601,3.449
39.680000,-1.8816,-0.5536,2.9224,3.520
39.680000,-1.6503,-0.5198,2.9347,3.407
39.680000,-1.5091,-0.5393,3.0382,3.435
39.681000,-1.4121,-0.4544,3.0417,3.384
39.681000,-1.3210,-0.3468,3.0674,3.358
39.681000,-1.3100,-0.3719,3.0770,3.365
39.682000,-1.1997,-0.4077,3.1039,3.353
39.684000,-1.1080,-0.5022,3.0552,3.288
39.688000,-1.1547,-0.5624,3.0697,3.328
39.693000,-1.2470,-0.6488,3.2172,3.511
39.699000,-1.3965,-0.7615,3.2490,3.617
39.704000,-1.4820,-0.8482,3.1295,3.565
39.711000,-1.4993,-0.8971,3.1055,3.563
39.713000,-1.6156,-1.0782,3.2054,3.748
39.718000,-1.7035,-1.3170,3.0299,3.717
39.765000,-1.6533,-1.3621,2.7846,3.513
39.766000,-1.5610,-1.2663,2.7519,3.408
39.766000,-1.5937,-1.0492,2.4703,3.121
39.767000,-1.7012,-0.9447,2.0545,2.830
39.767000,-1.8985,-1.0574,1.6073,2.703
39.767000,-1.9350,-1.1174,1.1419,2.509
39.768000,-1.7906,-1.0841,0.8138,2.246
39.768000,-1.6330,-1.0553,0.5630,2.024
39.768000,-1.3042,-1.1496,0.6468,1.855
39.768000,-0.9988,-1.2804,1.0073,1.911
39.775000,-0.8289,-1.4528,1.7473,2.419
39.779000,-0.5465,-1.4782,2.6705,3.101
39.784000,-0.1085,-1.4353,3.7706,4.036
39.787000,0.3890,-1.5285,4.7660,5.020
39.793000,0.8714,-1.7937,5.2528,5.619
39.797000,1.3420,-1.9566,5.7246,6.197
39.802000,1.4210,-2.3036,5.9728,6.557
39.808000,1.3535,-2.7008,5.7156,6.465
39.812000,1.3659,-2.8772,5.2257,6.120
39.817000,1.2233,-2.9850,4.5791,5.601
39.829000,1.0380,-3.1100,3.8380,5.048
39.830000,0.8474,-3.1742,3.2192,4.600
39.836000,0.7192,-3.1637,2.7562,4.257
39.840000,0.6211,-3.2835,2.3074,4.061
39.886000,0.5280,-3.4665,1.8659,3.972
39.889000,0.4528,-3.5713,1.6322,3.953
39.890000,0.5258,-3.6534,1.5206,3.992
39.891000,0.5525,-3.6221,1.4713,3.948
39.892000,0.5753,-3.5908,1.5256,3.944
39.892000,0.6223,-3.5476,1.6477,3.961
39.893000,0.6978,-3.5292,1.7428,3.997
39.893000,0.8503,-3.4712,1.8085,4.005
39.894000,0.9919,-3.4519,1.7893,4.013
39.894000,1.1977,-3.4163,1.6734,3.988
39.895000,1.4336,-3.4110,1.4930,3.990
39.898000,1.6644,-3.3757,1.3337,3.993
39.902000,1.8793,-3.3405,1.0533,3.975
39.909000,2.1105,-3.1850,0.8400,3.912
39.911000,2.2534,-3.1653,0.8247,3.972
39.916000,2.2728,-3.3428,0.5812,4.084
39.926000,2.2424,-3.4132,0.2716,4.093
39.927000,2.3218,-3.3884,0.2333,4.114
39.931000,2.4820,-3.2570,0.2510,4.103
39.936000,2.4956,-3.1848,0.3276,4.059
39.982000,2.4938,-3.2797,0.3248,4.133
39.983000,2.5243,-3.3455,0.2809,4.200
39.984000,2.5836,-3.3681,0.2946,4.255
39.984000,2.7127,-3.3602,0.3303,4.331
39.984000,2.8276,-3.3196,0.3811,4.377
39.984000,2.8997,-3.2012,0.3564,4.334
39.985000,2.9391,-3.1894,0.3543,4.352
39.985000,3.0080,-3.1331,0.2743,4.352
39.985000,3.0519,-3.0828,0.2143,4.343
39.986000,3.0686,-3.0718,0.1742,4.345
39.993000,3.0705,-3.0498,0.1038,4.329
39.997000,3.0265,-3.0695,0.0104,4.311
40.000000,2.9222,-3.0354,-0.0487,4.214
40.006000,2.7909,-3.0193,-0.2166,4.117
40.011000,2.6248,-3.0140,-0.3257,4.010
40.016000,2.5078,-3.0365,-0.3880,3.957
40.021000,2.3582,-3.0342,-0.4893,3.874
40.026000,2.2473,-2.9661,-0.5343,3.759
40.031000,2.1992,-2.9495,-0.5014,3.713
40.035000,2.1543,-3.0753,-0.5868,3.800
40.050000,2.0359,-3.0536,-0.6854,3.734
40.052000,1.9346,-2.8705,-0.6486,3.522
40.053000,1.8197,-2.7341,-0.6347,3.345
40.104000,1.7818,-2.6733,-0.6264,3.273
40.105000,1.7367,-2.6738,-0.4897,3.226
40.106000,1.6107,-2.5679,-0.5095,3.074
40.106000,1.6886,-2.4182,-0.5468,3.000
40.107000,1.6573,-2.3750,-0.5541,2.949
40.107000,1.5192,-2.3496,-0.5840,2.858
40.107000,1.4894,-2.2583,-0.5575,2.762
40.108000,1.4576,-2.2036,-0.4725,2.684
40.110000,1.4237,-2.1405,-0.4078,2.603
40.110000,1.3733,-2.0878,-0.2653,2.513
40.110000,1.3709,-2.0195,-0.0950,2.443
40.114000,1.3876,-1.9600,0.1129,2.404
40.116000,1.4234,-1.8924,0.3128,2.389
40.122000,1.4395,-1.8101,0.6131,2.393
40.126000,1.4884,-1.7449,0.8658,2.451
40.131000,1.5630,-1.6824,1.0997,2.546
40.136000,1.6199,-1.5755,1.2986,2.606
40.151000,1.6233,-1.4911,1.5366,2.687
40.152000,1.6139,-1.4725,1.6894,2.762
40.152000,1.6328,-1.3954,1.8817,2.855
40.155000,1.5820,-1.3073,1.9862,2.856
40.198000,1.6028,-1.2277,2.1227,2.929
40.199000,1.6426,-1.1585,2.2550,3.021
40.199000,1.5987,-1.0641,2.3953,3.070
40.199000,1.6173,-1.0022,2.5915,3.215
40.200000,1.6174,-0.9794,2.8240,3.399
40.200000,1.6135,-0.9391,2.9306,3.475
40.200000,1.6319,-0.8763,2.9782,3.507
40.200000,1.5743,-0.8175,3.0676,3.544
40.201000,1.5241,-0.7461,2.9884,3.437
40.205000,1.5409,-0.6834,3.1160,3.543
40.210000,1.5798,-0.6631,3.3809,3.790
40.214000,1.4716,-0.6282,3.4627,3.815
40.219000,1.3385,-0.6480,3.4955,3.799
40.225000,1.2754,-0.6890,3.5536,3.838
40.230000,1.3111,-0.6963,3.6155,3.908
40.234000,1.2971,-0.7129,3.5185,3.817
40.240000,1.2245,-0.6935,3.3585,3.641
40.244000,1.2079,-0.6852,3.1471,3.440
40.249000,1.2112,-0.6591,3.0706,3.366
40.262000,1.2513,-0.6532,3.0546,3.365
40.263000,1.2762,-0.6532,3.0011,3.326
40.264000,1.3499,-0.6399,2.9314,3.290
40.268000,1.4031,-0.5918,2.9749,3.342
40.311000,1.4829,-0.6047,3.0145,3.413
40.312000,1.5274,-0.6143,2.9807,3.405
40.312000,1.5455,-0.6254,2.9649,3.402
40.313000,1.5274,-0.6046,2.9575,3.383
40.313000,1.5329,-0.6000,2.9895,3.413
40.313000,1.5645,-0.6568,2.9631,3.414
40.314000,1.5981,-0.7010,3.0240,3.491
40.314000,1.6221,-0.7326,3.0767,3.554
40.314000,1.6078,-0.8017,3.0204,3.514
40.318000,1.5629,-0.8508,2.9559,3.450
40.323000,1.5541,-0.8701,2.8351,3.348
40.328000,1.5454,-0.9404,2.6673,3.223
40.334000,1.5515,-0.9467,2.4787,3.074
40.340000,1.6248,-1.0055,2.3454,3.025
40.343000,1.6583,-1.0619,2.2674,3.003
40.348000,1.6899,-1.1343,2.2203,3.012
40.354000,1.7562,-1.1965,2.2709,3.110
40.359000,1.8043,-1.2486,2.4002,3.252
40.363000,1.8678,-1.3504,2.5650,3.448
40.369000,1.8948,-1.4358,2.7131,3.607
40.381000,1.8731,-1.5645,2.8281,3.736
40.384000,1.7667,-1.6842,2.6948,3.636
40.386000,1.6472,-1.8311,2.5171,3.522
40.414000,1.5478,-1.9880,2.2615,3.386
40.415000,1.4161,-2.0902,1.8585,3.135
40.416000,1.2661,-2.2326,1.5086,2.977
40.416000,1.0829,-2.2880,1.2545,2.825
40.416000,0.9721,-2.3644,1.0126,2.750
40.417000,0.8464,-2.3875,0.8019,2.657
40.417000,0.8104,-2.4025,0.6342,2.614
40.423000,0.7993,-2.3859,0.5645,2.579
40.428000,0.8528,-2.4022,0.4827,2.594
40.433000,0.7915,-2.3774,0.4559,2.547
40.437000,0.8094,-2.2638,0.5533,2.467
40.442000,0.8252,-2.2433,0.6027,2.465
40.447000,0.8147,-2.3496,0.7049,2.585
40.453000,0.8567,-2.4057,0.7712,2.668
40.457000,0.9035,-2.4835,0.7755,2.754
40.463000,1.0366,-2.5135,0.7680,2.825
40.468000,1.2084,-2.4785,0.8439,2.884
40.477000,1.4270,-2.3643,0.9603,2.924
40.477000,1.6595,-2.2618,0.9973,2.977
40.482000,1.8230,-2.1997,1.0484,3.043
40.487000,1.9491,-2.1325,1.0586,3.077
40.527000,2.0067,-2.0980,0.9678,3.060
40.529000,2.0401,-2.0819,0.9341,3.061
40.529000,1.9682,-2.1007,0.7754,2.981
40.530000,1.8721,-2.1685,0.6256,2.932
40.530000,1.7970,-2.2136,0.4969,2.894
40.531000,1.5707,-2.2407,0.2575,2.748
40.531000,1.3750,-2.2807,-0.0111,2.663
40.532000,1.1805,-2.3193,-0.3522,2.626
40.532000,0.9937,-2.3392,-0.7109,2.639
40.536000,0.7786,-2.3978,-0.8651,2.665
40.543000,0.6590,-2.3753,-0.9393,2.638
40.548000,0.6514,-2.3250,-0.8162,2.549
40.553000,0.5906,-2.3452,-0.9357,2.593
40.557000,0.5693,-2.2328,-1.1110,2.558
40.561000,0.5587,-2.1360,-1.1269,2.479
40.566000,0.4868,-2.1078,-1.0670,2.412
40.572000,0.5211,-2.0309,-0.9959,2.321
40.578000,0.5613,-1.9940,-1.0667,2.330
40.581000,0.5119,-1.9158,-1.0544,2.246
40.600000,0.5030,-1.8677,-1.1265,2.238
40.601000,0.4412,-1.8210,-1.1468,2.197
40.603000,0.3955,-1.8572,-0.9812,2.137
40.604000,0.3017,-1.8422,-1.2566,2.250
40.648000,0.2980,-1.7329,-1.4058,2.251
40.651000,0.2101,-1.7153,-1.3624,2.201
40.652000,0.1380,-1.6963,-1.2820,2.131
40.653000,0.1225,-1.6283,-1.1763,2.012
40.656000,0.1349,-1.4922,-1.1340,1.879
40.657000,0.1792,-1.4249,-0.9536,1.724
40.658000,0.2099,-1.4047,-0.7169,1.591
40.660000,0.2271,-1.3768,-0.5622,1.504
40.661000,0.2740,-1.2556,-0.4485,1.361
40.662000,0.3699,-1.2013,-0.3925,1.317
40.663000,0.4053,-1.1371,-0.3729,1.263
40.663000,0.3561,-1.0153,-0.2937,1.115
40.669000,0.3466,-0.9697,-0.1217,1.037
40.672000,0.3481,-0.9717,0.0260,1.033
40.677000,0.3203,-0.9590,0.1588,1.024
40.681000,0.3110,-0.9487,0.3656,1.063
40.686000,0.2794,-0.9723,0.6011,1.177
40.691000,0.2853,-0.9940,0.8439,1.335
40.696000,0.2977,-1.0050,1.0037,1.451
40.700000,0.2278,-1.0269,1.0877,1.513
40.716000,0.1426,-1.0264,1.1104,1.519
40.719000,0.0657,-1.0444,1.1080,1.524
40.720000,-0.0082,-1.1193,1.0829,1.557
40.721000,-0.0363,-1.1100,1.0232,1.510
40.766000,-0.0788,-1.1074,0.9861,1.485
40.767000,-0.0833,-1.0804,1.0172,1.486
40.767000,-0.0499,-1.0674,1.0254,1.481
40.767000,-0.0098,-1.0011,1.0704,1.466
40.767000,-0.0081,-0.9556,1.0900,1.450
40.768000,0.0654,-0.9093,1.1678,1.481
40.768000,0.1372,-0.8234,1.3011,1.546
40.768000,0.2799,-0.7768,1.4469,1.666
40.769000,0.3022,-0.7166,1.5834,1.764
40.771000,0.4658,-0.6547,1.8662,2.032
40.776000,0.5543,-0.6222,2.0321,2.196
40.780000,0.5397,-0.5974,1.9378,2.098
40.785000,0.5252,-0.5610,1.8202,1.976
40.790000,0.5105,-0.5580,1.6933,1.854
40.795000,0.4188,-0.4853,1.5426,1.670
40.800000,0.4321,-0.4219,1.4327,1.555
40.815000,0.4492,-0.3632,1.2822,1.406
40.817000,0.4651,-0.2899,1.1845,1.305
40.818000,0.5342,-0.2383,1.0965,1.243
40.820000,0.6154,-0.1893,1.0495,1.231
40.865000,0.7132,-0.1359,0.9477,1.194
40.866000,0.7578,-0.1140,0.8511,1.145
40.866000,0.8353,-0.1165,0.7811,1.150
40.867000,0.8713,-0.1074,0.7307,1.142
40.867000,0.8974,-0.0580,0.6495,1.109
40.868000,0.9183,-0.0088,0.5828,1.088
40.869000,0.9438,0.0810,0.4803,1.062
40.870000,0.9741,0.1661,0.3014,1.033
40.870000,1.0136,0.2181,0.1247,1.044
40.871000,1.0933,0.2589,-0.0523,1.125
40.875000,1.1871,0.3751,-0.2014,1.261
40.879000,1.3406,0.4642,-0.2966,1.449
40.884000,1.5776,0.5193,-0.3093,1.689
40.891000,1.8766,0.5793,-0.2139,1.976
40.894000,2.2118,0.7039,-0.1155,2.324
40.899000,2.5526,0.7639,0.1460,2.668
40.904000,2.8561,0.7857,0.5823,3.019
40.916000,3.1496,0.8192,1.0837,3.430
40.918000,3.3478,0.7492,1.4998,3.744
40.919000,3.4660,0.5799,1.8931,3.992
40.963000,3.4422,0.3421,2.1687,4.083
40.964000,3.2839,0.0833,2.3650,4.048
40.965000,3.1034,-0.1898,2.4540,3.961
40.965000,2.8982,-0.3965,2.3619,3.760
40.965000,2.6033,-0.6517,2.1321,3.427
40.966000,2.2989,-0.8961,1.8178,3.065
40.966000,2.0585,-1.0747,1.2874,2.655
40.967000,1.7755,-1.1920,0.7538,2.267
40.967000,1.5588,-1.2911,0.2885,2.044
40.969000,1.3957,-1.3453,-0.0778,1.940
40.974000,1.3930,-1.3978,-0.4096,2.015
40.978000,1.4755,-1.3459,-0.6378,2.096
40.983000,1.5711,-1.2470,-0.8175,2.166
40.991000,1.6609,-1.1299,-0.8389,2.177
40.994000,1.7597,-1.0138,-0.8144,2.188
40.998000,1.8484,-0.9325,-0.7750,2.211
41.005000,1.8677,-0.8689,-0.8332,2.222
41.009000,1.8967,-0.8326,-0.9745,2.289
41.014000,1.8497,-0.8184,-1.0509,2.279
41.019000,1.7823,-0.7683,-1.2062,2.285
41.030000,1.7521,-0.7346,-1.3425,2.326
41.032000,1.7358,-0.7047,-1.3837,2.329
41.033000,1.7119,-0.6905,-1.4735,2.362
41.080000,1.7403,-0.6985,-1.4494,2.370
41.081000,1.8186,-0.6977,-1.4050,2.402
41.081000,1.8939,-0.6521,-1.2758,2.375
41.081000,1.9662,-0.6503,-1.1550,2.371
41.082000,2.0591,-0.5874,-0.9851,2.357
41.082000,2.1940,-0.4731,-0.7684,2.372
41.082000,2.3227,-0.4035,-0.4664,2.403
41.082000,2.4695,-0.3457,-0.1866,2.501
41.083000,2.6105,-0.3117,0.1121,2.631
41.083000,2.7003,-0.2828,0.3531,2.738
41.089000,2.7513,-0.2616,0.5511,2.818
41.093000,2.8164,-0.2386,0.7613,2.927
41.099000,2.8411,-0.2308,0.9121,2.993
41.104000,2.8112,-0.2189,0.9556,2.977
41.107000,2.7317,-0.2027,0.8870,2.879
41.113000,2.6010,-0.2010,0.8402,2.741
41.117000,2.4525,-0.2421,0.8077,2.593
41.122000,2.3315,-0.2636,0.8133,2.483
41.127000,2.2547,-0.2560,0.7972,2.405
41.132000,2.1333,-0.2406,0.8239,2.299
41.137000,2.0627,-0.2225,0.8671,2.249
41.144000,1.9616,-0.2064,1.0200,2.221
41.148000,1.8634,-0.2113,1.2203,2.237
41.153000,1.7658,-0.2617,1.5113,2.339
41.182000,1.6612,-0.3003,1.7781,2.452
41.183000,1.5403,-0.3921,2.0260,2.575
41.184000,1.4485,-0.4539,2.2576,2.720
41.184000,1.3902,-0.4259,2.3414,2.756
41.185000,1.3062,-0.4639,2.3470,2.726
41.185000,1.2062,-0.4649,2.2890,2.629
41.187000,1.2432,-0.4455,2.2652,2.622
41.192000,1.2354,-0.4416,2.2325,2.589
41.197000,1.2521,-0.4076,2.2220,2.583
41.201000,1.3050,-0.4178,2.2433,2.629
41.206000,1.3510,-0.3722,2.2225,2.627
41.212000,1.3539,-0.3164,2.1286,2.542
41.216000,1.3257,-0.3032,2.0193,2.434
41.225000,1.2853,-0.2799,1.8514,2.271
41.227000,1.1892,-0.3113,1.6443,2.053
41.231000,1.1546,-0.3541,1.3908,1.842
41.236000,1.1311,-0.3554,1.1385,1.644
41.241000,1.1426,-0.3388,0.8898,1.487
41.247000,1.1846,-0.2991,0.7089,1.413
41.251000,1.2357,-0.2052,0.4712,1.338
41.261000,1.2435,-0.2071,0.3343,1.304
41.262000,1.2826,-0.2067,0.2192,1.318
41.267000,1.3151,-0.1966,0.1185,1.335
41.314000,1.3699,-0.2007,0.0753,1.387
41.315000,1.4063,-0.2045,0.0391,1.422
41.315000,1.4581,-0.2008,-0.0450,1.473
41.316000,1.4077,-0.1947,-0.1147,1.426
41.316000,1.3175,-0.1882,-0.1605,1.341
41.316000,1.2973,-0.1935,-0.1849,1.325
41.317000,1.3039,-0.2083,-0.1926,1.334
41.317000,1.3250,-0.1920,-0.1787,1.351
41.317000,1.2987,-0.1734,-0.0834,1.313
41.317000,1.2514,-0.1813,0.0286,1.265
41.323000,1.2020,-0.2205,0.1645,1.233
41.326000,1.1149,-0.2076,0.1571,1.145
41.331000,1.0042,-0.2050,0.1335,1.034
41.337000,0.9010,-0.2650,0.0290,0.940
41.340000,0.8026,-0.2417,-0.1326,0.849
41.346000,0.6968,-0.2281,-0.3535,0.814
41.350000,0.6074,-0.2476,-0.4310,0.785
41.362000,0.5362,-0.2378,-0.4370,0.731
41.362000,0.4906,-0.2130,-0.4123,0.675
41.370000,0.4946,-0.1922,-0.2900,0.605
41.371000,0.5361,-0.1828,-0.1276,0.581
41.412000,0.5621,-0.1995,-0.1162,0.608
41.413000,0.5365,-0.2349,0.0121,0.586
41.413000,0.6433,-0.2292,0.1998,0.712
41.413000,0.7369,-0.1680,0.3416,0.829
41.414000,0.8776,-0.1351,0.5904,1.066
41.414000,1.0304,-0.0988,0.8335,1.329
41.415000,1.1602,-0.1311,1.0710,1.584
41.415000,1.2411,-0.1531,1.3221,1.820
41.415000,1.2881,-0.2053,1.5698,2.041
41.420000,1.2989,-0.2354,1.8575,2.279
41.425000,1.2999,-0.3251,2.0898,2.482
41.430000,1.2963,-0.3910,2.2239,2.604
41.435000,1.1921,-0.4622,2.3342,2.661
41.441000,1.0325,-0.5848,2.2753,2.566
41.445000,0.7883,-0.7396,2.1457,2.403
41.451000,0.5737,-0.8765,1.9958,2.254
41.456000,0.3882,-0.9455,1.8375,2.103
41.460000,0.2241,-1.0615,1.6351,1.962
41.465000,0.0979,-1.1240,1.4007,1.799
41.470000,-0.0101,-1.1617,1.0434,1.561
41.478000,-0.0812,-1.1862,0.7161,1.388
41.481000,-0.1513,-1.1831,0.4163,1.263
41.484000,-0.1417,-1.1282,0.1821,1.152
41.531000,-0.1120,-1.0593,0.0273,1.066
41.532000,-0.0400,-1.0265,-0.1295,1.035
41.534000,0.0340,-0.9960,-0.2383,1.025
41.537000,0.1439,-0.9440,-0.3397,1.014
41.538000,0.2061,-0.9205,-0.4339,1.038
41.538000,0.2948,-0.9013,-0.6193,1.133
41.538000,0.3791,-0.8338,-0.7544,1.187
41.538000,0.3801,-0.8134,-0.8158,1.213
41.538000,0.3743,-0.8114,-0.9039,1.271
41.539000,0.3446,-0.8016,-0.9756,1.309
41.541000,0.3244,-0.8006,-1.0955,1.395
41.544000,0.3680,-0.7297,-1.2946,1.531
41.548000,0.3865,-0.6793,-1.4056,1.608
41.554000,0.3656,-0.5966,-1.3406,1.512
41.559000,0.3749,-0.5700,-1.1593,1.345
41.564000,0.4174,-0.5207,-0.9171,1.134
41.568000,0.5148,-0.5038,-0.7070,1.009
41.577000,0.5786,-0.5361,-0.4740,0.920
41.579000,0.5663,-0.5508,-0.2539,0.830
41.583000,0.5404,-0.5313,-0.0895,0.763
41.620000,0.5347,-0.5496,0.0455,0.768
41.621000,0.5229,-0.5555,0.1585,0.779
41.621000,0.4954,-0.5563,0.1923,0.769
41.622000,0.4117,-0.5973,0.1683,0.745
41.622000,0.3170,-0.6281,0.1151,0.713
41.622000,0.2518,-0.6868,0.0974,0.738
41.623000,0.1894,-0.7186,0.1127,0.752
41.623000,0.1655,-0.7163,0.2089,0.764
41.629000,0.1893,-0.7087,0.3214,0.801
41.634000,0.1867,-0.6817,0.4406,0.833
41.641000,0.1264,-0.7359,0.5836,0.948
41.645000,0.0947,-0.7544,0.6643,1.010
41.649000,0.0222,-0.7923,0.7715,1.106
41.653000,-0.0435,-0.8544,0.8836,1.230
41.658000,-0.0493,-0.8645,0.9506,1.286
41.663000,-0.0720,-0.8921,0.9488,1.304
41.668000,-0.1043,-0.9395,0.8877,1.297
41.677000,-0.1580,-0.9014,0.7554,1.187
41.679000,-0.2335,-0.9403,0.5950,1.137
41.683000,-0.2829,-0.9578,0.4540,1.097
41.727000,-0.3373,-0.9349,0.3636,1.058
41.729000,-0.3871,-0.9429,0.2660,1.053
41.729000,-0.3416,-0.9510,0.1447,1.021
41.730000,-0.2801,-0.9184,0.0020,0.960
41.730000,-0.1884,-0.8570,-0.0928,0.882
41.730000,-0.0882,-0.7357,-0.1183,0.750
41.730000,-0.0153,-0.6645,-0.0483,0.666
41.731000,0.0451,-0.6265,-0.0073,0.628
41.731000,0.1102,-0.6265,0.1146,0.646
41.732000,0.1297,-0.6670,0.2147,0.713
41.741000,0.1043,-0.6521,0.2452,0.704
41.745000,0.0888,-0.6658,0.2708,0.724
41.748000,0.0709,-0.6557,0.2103,0.692
41.752000,0.1483,-0.6145,0.1451,0.649
41.759000,0.3087,-0.5422,0.1970,0.654
41.763000,0.4136,-0.5176,0.3038,0.729
41.768000,0.5259,-0.4666,0.4654,0.843
41.773000,0.5932,-0.4871,0.6671,1.017
41.777000,0.5659,-0.4620,0.8016,1.085
41.782000,0.4966,-0.4848,0.8450,1.094
41.797000,0.3734,-0.5388,0.7953,1.031
41.798000,0.2533,-0.6001,0.7218,0.972
41.798000,0.1335,-0.6302,0.6173,0.892
41.802000,0.0636,-0.6266,0.5248,0.820
41.829000,0.0076,-0.6205,0.5183,0.809
41.830000,0.0111,-0.6620,0.5405,0.855
41.830000,0.0379,-0.6604,0.5673,0.871
41.831000,0.0854,-0.6518,0.6803,0.946
41.831000,0.1371,-0.6459,0.8030,1.040
41.831000,0.1453,-0.6238,0.8279,1.047
41.838000,0.1603,-0.6121,0.8486,1.059
41.842000,0.2205,-0.6203,0.7862,1.025
41.848000,0.2686,-0.5763,0.5758,0.858
41.852000,0.3142,-0.5971,0.3851,0.777
41.858000,0.3619,-0.6082,0.2304,0.744
41.862000,0.4480,-0.5543,0.1855,0.736
41.866000,0.4602,-0.5383,0.1691,0.728
41.873000,0.4970,-0.4835,0.1259,0.705
41.877000,0.5271,-0.5026,0.0731,0.732
41.881000,0.4859,-0.5285,0.0343,0.719
41.888000,0.4904,-0.5493,-0.0141,0.737
41.892000,0.4593,-0.5413,-0.1128,0.719
41.897000,0.4161,-0.5594,-0.2547,0.742
41.902000,0.3894,-0.5744,-0.3728,0.788
41.941000,0.3600,-0.5817,-0.3957,0.790
41.941000,0.3399,-0.5237,-0.3711,0.726
41.942000,0.3960,-0.5203,-0.3136,0.725
41.942000,0.3945,-0.5092,-0.2182,0.680
41.942000,0.3471,-0.4908,-0.1780,0.627
41.942000,0.3158,-0.4988,-0.1092,0.600
41.943000,0.4152,-0.4829,0.0505,0.639
41.943000,0.4520,-0.3883,0.1336,0.611
41.947000,0.4747,-0.3968,0.1904,0.647
41.950000,0.4809,-0.4292,0.2327,0.685
41.957000,0.5021,-0.4731,0.1791,0.713
41.964000,0.5001,-0.4545,0.1325,0.689
41.965000,0.4317,-0.4402,0.1644,0.638
41.970000,0.4070,-0.4087,0.1601,0.599
41.976000,0.4234,-0.4149,0.2175,0.631
41.980000,0.4186,-0.4182,0.2386,0.638
41.986000,0.4139,-0.4141,0.3264,0.670
41.991000,0.4141,-0.3931,0.3853,0.689
41.996000,0.4237,-0.4248,0.4681,0.761
42.000000,0.4358,-0.4135,0.5174,0.793
42.047000,0.4453,-0.4336,0.5334,0.819
42.047000,0.4495,-0.4207,0.5378,0.817
42.047000,0.4700,-0.4226,0.5305,0.825
42.047000,0.4736,-0.3960,0.5044,0.797
42.048000,0.5079,-0.3937,0.5000,0.814
42.048000,0.5038,-0.3938,0.4765,0.797
42.048000,0.5142,-0.3914,0.4577,0.792
42.048000,0.5322,-0.3577,0.4962,0.811
42.049000,0.5197,-0.3454,0.5321,0.820
42.049000,0.5459,-0.3497,0.5703,0.863
42.056000,0.5103,-0.3540,0.5558,0.833
42.060000,0.4463,-0.3920,0.5916,0.838
42.065000,0.4183,-0.3871,0.5917,0.822
42.071000,0.4429,-0.3969,0.5873,0.836
42.075000,0.4384,-0.4069,0.5640,0.822
42.080000,0.4410,-0.4099,0.4930,0.778
42.085000,0.4838,-0.3750,0.4224,0.744
42.090000,0.5644,-0.3357,0.4023,0.770
42.095000,0.7020,-0.3016,0.4064,0.865
42.100000,0.7870,-0.2320,0.4394,0.931
42.106000,0.7980,-0.2130,0.4177,0.926
42.110000,0.8427,-0.2088,0.3556,0.938
42.114000,0.8138,-0.2502,0.2077,0.876
42.120000,0.7062,-0.2893,0.0576,0.765
42.135000,0.6321,-0.3042,-0.1211,0.712
42.135000,0.5243,-0.3235,-0.2401,0.661
42.136000,0.4042,-0.3591,-0.3043,0.620
42.146000,0.4151,-0.3462,-0.2875,0.612
42.146000,0.4376,-0.3854,-0.2592,0.638
42.149000,0.4767,-0.3547,-0.2194,0.633
42.155000,0.5754,-0.3451,-0.0915,0.677
42.160000,0.6693,-0.3138,-0.0021,0.739
42.165000,0.7509,-0.2872,0.0775,0.808
42.170000,0.7583,-0.2607,0.0734,0.805
42.175000,0.7610,-0.2368,0.1244,0.807
42.180000,0.7782,-0.2223,0.1560,0.824
42.184000,0.7812,-0.2294,0.1064,0.821
42.189000,0.7918,-0.2433,0.2000,0.852
42.194000,0.7552,-0.3096,0.3484,0.887
42.200000,0.7386,-0.3184,0.4654,0.929
42.205000,0.6844,-0.3131,0.5156,0.912
42.209000,0.5998,-0.3799,0.4464,0.839
42.214000,0.4869,-0.4089,0.3465,0.724
42.218000,0.3381,-0.4046,0.2135,0.569
42.226000,0.2825,-0.4221,0.0665,0.512
42.229000,0.2169,-0.4418,-0.0589,0.496
42.233000,0.1796,-0.4661,-0.1030,0.510
42.264000,0.2158,-0.4566,-0.0946,0.514
42.265000,0.2632,-0.4062,-0.1079,0.496
42.265000,0.2192,-0.3821,-0.0734,0.447
42.265000,0.2487,-0.3651,-0.0391,0.443
42.265000,0.2731,-0.3575,0.0239,0.451
42.266000,0.3644,-0.3332,0.0532,0.497
42.269000,0.4460,-0.3065,0.0729,0.546
42.274000,0.4444,-0.3227,0.0375,0.551
42.280000,0.4336,-0.2885,-0.0004,0.521
42.284000,0.4062,-0.2611,-0.0194,0.483
42.289000,0.3838,-0.2572,-0.0507,0.465
42.293000,0.3353,-0.2481,0.0468,0.420
42.298000,0.2941,-0.2673,0.2037,0.447
42.303000,0.2750,-0.2743,0.3483,0.522
42.309000,0.2395,-0.3291,0.5191,0.660
42.313000,0.1873,-0.3435,0.5989,0.715
42.318000,0.1638,-0.3725,0.6311,0.751
42.326000,0.1235,-0.3731,0.6443,0.755
42.330000,0.0976,-0.3502,0.6674,0.760
42.333000,0.1098,-0.3850,0.7098,0.815
42.383000,0.1143,-0.3773,0.7406,0.839
42.383000,0.1257,-0.3509,0.7813,0.866
42.384000,0.1344,-0.3825,0.8152,0.910
42.384000,0.1596,-0.3572,0.8159,0.905
42.384000,0.1564,-0.3969,0.7930,0.900
42.385000,0.1890,-0.3652,0.7106,0.821
42.385000,0.1521,-0.3505,0.6381,0.744
42.385000,0.1319,-0.3312,0.5753,0.677
42.386000,0.0998,-0.3335,0.5414,0.644
42.386000,0.1370,-0.3430,0.5147,0.634
42.393000,0.1648,-0.3404,0.4975,0.625
42.394000,0.2069,-0.3188,0.5688,0.684
42.398000,0.2611,-0.2997,0.5804,0.703
42.402000,0.3514,-0.3000,0.5658,0.730
42.408000,0.4087,-0.2599,0.6351,0.799
42.413000,0.4522,-0.2753,0.6209,0.816
42.418000,0.4266,-0.2839,0.5066,0.721
42.422000,0.4130,-0.2330,0.2947,0.558
42.427000,0.3970,-0.2586,0.1260,0.490
42.432000,0.3662,-0.2482,0.0578,0.446
42.437000,0.3422,-0.2136,0.0852,0.412
42.444000,0.3919,-0.2003,0.1338,0.460
42.447000,0.4390,-0.2085,0.2470,0.545
42.451000,0.4212,-0.2048,0.3146,0.564
42.487000,0.4728,-0.2393,0.3869,0.656
42.488000,0.4694,-0.2596,0.4449,0.697
42.488000,0.4903,-0.2416,0.5219,0.756
42.488000,0.4593,-0.2548,0.5798,0.782
42.488000,0.4385,-0.2800,0.6304,0.817
42.489000,0.4206,-0.2792,0.5353,0.736
42.489000,0.4031,-0.3262,0.4476,0.685
42.492000,0.3571,-0.3350,0.3074,0.578
42.497000,0.3516,-0.3152,0.1890,0.509
42.502000,0.3771,-0.3290,0.1330,0.518
42.506000,0.4163,-0.2855,0.0125,0.505
42.512000,0.4073,-0.2755,-0.0480,0.494
42.517000,0.4362,-0.2892,-0.1062,0.534
42.523000,0.4172,-0.3048,-0.1264,0.532
42.527000,0.4484,-0.3009,-0.1015,0.549
42.531000,0.4821,-0.2989,-0.0362,0.568
42.536000,0.4922,-0.3158,0.0048,0.585
42.541000,0.4835,-0.3086,0.0816,0.579
42.548000,0.4964,-0.3347,0.0768,0.604
42.552000,0.4544,-0.3369,0.0553,0.568
42.557000,0.4556,-0.3222,0.0219,0.558
42.562000,0.5019,-0.3530,-0.0020,0.614
42.566000,0.5261,-0.3240,0.0363,0.619
42.586000,0.4925,-0.2854,0.1032,0.579
42.586000,0.4441,-0.2780,0.1128,0.536
42.587000,0.4264,-0.2972,0.2038,0.558
42.587000,0.4204,-0.3403,0.2517,0.597
42.591000,0.4192,-0.3691,0.3307,0.649
42.596000,0.4206,-0.4146,0.4143,0.721
42.601000,0.3793,-0.4431,0.4978,0.767
42.605000,0.3552,-0.4381,0.5070,0.758
42.611000,0.3219,-0.4690,0.5425,0.786
42.616000,0.2602,-0.4952,0.4585,0.723
42.620000,0.2101,-0.5743,0.4106,0.737
42.627000,0.2358,-0.4744,0.4469,0.693
42.631000,0.3059,-0.3800,0.3927,0.626
42.637000,0.3396,-0.3746,0.2959,0.586
42.642000,0.3680,-0.3768,0.2114,0.568
42.648000,0.3940,-0.3670,0.1748,0.566
42.650000,0.4367,-0.3618,0.1070,0.577
42.658000,0.4384,-0.3585,0.0436,0.568
42.661000,0.4904,-0.3383,-0.0718,0.600
42.666000,0.4638,-0.3130,-0.0963,0.568
42.670000,0.4021,-0.2848,-0.0932,0.501
42.715000,0.3902,-0.3256,-0.0424,0.510
42.716000,0.3801,-0.3209,0.1111,0.510
42.717000,0.4362,-0.2759,0.2646,0.580
42.717000,0.4797,-0.2480,0.2605,0.600
42.717000,0.4897,-0.3019,0.2303,0.620
42.717000,0.4063,-0.3581,0.1930,0.575
42.718000,0.3917,-0.3689,0.2084,0.577
42.718000,0.4619,-0.3059,0.2935,0.627
42.718000,0.4674,-0.2530,0.3235,0.622
42.721000,0.4587,-0.2742,0.3508,0.639
42.725000,0.4219,-0.2691,0.4657,0.684
42.730000,0.4406,-0.2617,0.4943,0.712
42.735000,0.4241,-0.3163,0.4040,0.666
42.740000,0.3701,-0.3205,0.3405,0.596
42.745000,0.3758,-0.3247,0.2657,0.563
42.750000,0.3911,-0.2932,0.2105,0.532
42.757000,0.4112,-0.2521,0.0961,0.492
42.761000,0.4006,-0.2228,-0.0082,0.458
42.766000,0.4119,-0.2051,-0.0170,0.460
42.771000,0.4095,-0.2297,-0.0332,0.471
42.777000,0.4502,-0.2179,0.0594,0.504
42.780000,0.4721,-0.2223,0.1461,0.542
42.785000,0.4966,-0.2408,0.1821,0.581
42.821000,0.5305,-0.1642,0.1799,0.584
42.822000,0.5497,-0.1170,0.1968,0.595
42.822000,0.5309,-0.1345,0.1592,0.570
42.822000,0.4910,-0.1638,0.0887,0.525
42.822000,0.4513,-0.1408,0.0426,0.475
42.824000,0.3901,-0.1700,-0.0103,0.426
42.824000,0.3863,-0.1844,-0.0464,0.431
42.825000,0.3800,-0.1675,0.0910,0.425
42.831000,0.3858,-0.1955,0.1699,0.465
42.835000,0.3918,-0.1922,0.2646,0.510
42.840000,0.4122,-0.2078,0.3727,0.593
42.844000,0.3473,-0.1948,0.4584,0.607
42.849000,0.2998,-0.2319,0.5009,0.628
42.854000,0.2694,-0.2429,0.4791,0.601
42.859000,0.1940,-0.2706,0.4245,0.540
42.865000,0.1022,-0.3173,0.3063,0.453
42.869000,0.0460,-0.2613,0.2650,0.375
42.875000,0.0448,-0.2245,0.4708,0.523
42.880000,0.0581,-0.2403,0.5467,0.600
42.884000,0.0451,-0.2492,0.6364,0.685
42.929000,0.0279,-0.2698,0.6304,0.686
42.932000,0.0392,-0.2360,0.5962,0.642
42.933000,0.0527,-0.2246,0.5172,0.566
42.933000,0.0327,-0.2211,0.3407,0.407
42.934000,0.0626,-0.1869,0.1409,0.242
42.934000,0.1205,-0.1719,-0.0802,0.225
42.934000,0.1637,-0.1183,-0.1745,0.267
42.935000,0.2545,-0.0810,-0.1327,0.298
42.935000,0.3335,-0.0241,-0.0460,0.337
42.935000,0.4224,-0.0337,0.1048,0.436
42.940000,0.4782,-0.0168,0.2170,0.525
42.943000,0.4843,-0.0117,0.3099,0.575
42.950000,0.4121,-0.0378,0.3667,0.553
42.955000,0.2831,-0.0953,0.3830,0.486
42.960000,0.2478,-0.1098,0.4736,0.546
42.964000,0.1630,-0.1819,0.4662,0.526
42.969000,0.1409,-0.2712,0.4710,0.561
42.974000,0.0953,-0.2842,0.4186,0.515
42.979000,0.0714,-0.3190,0.3379,0.470
42.984000,0.0165,-0.3229,0.2049,0.383
43.025000,-0.0076,-0.3271,0.0914,0.340
43.027000,-0.0466,-0.3197,-0.0839,0.334
43.027000,-0.0123,-0.3267,-0.2015,0.384
43.028000,0.0570,-0.2812,-0.3021,0.417
43.028000,0.0847,-0.2715,-0.4075,0.497
43.029000,0.0975,-0.2639,-0.4339,0.517
43.029000,0.1671,-0.2608,-0.4389,0.537
43.029000,0.2245,-0.2670,-0.4155,0.543
43.030000,0.3272,-0.2514,-0.4020,0.576
43.033000,0.4559,-0.2164,-0.3981,0.643
43.040000,0.5244,-0.1573,-0.3490,0.649
43.043000,0.5404,-0.1337,-0.2930,0.629
43.049000,0.5542,-0.1026,-0.2661,0.623
43.053000,0.5373,-0.1213,-0.2133,0.591
43.059000,0.5136,-0.1301,-0.1393,0.548
43.063000,0.5023,-0.1528,0.0442,0.527
43.068000,0.5084,-0.1847,0.2154,0.582
43.073000,0.4892,-0.2310,0.3505,0.645
43.078000,0.4347,-0.2176,0.4185,0.641
43.083000,0.3399,-0.2737,0.4148,0.602
43.088000,0.2481,-0.2964,0.3681,0.534
43.098000,0.1757,-0.3644,0.2712,0.487
43.099000,0.1152,-0.3847,0.3157,0.511
43.102000,0.0618,-0.3981,0.2837,0.493
43.148000,0.0009,-0.4164,0.2544,0.488
43.149000,0.0399,-0.3918,0.1750,0.431
43.149000,0.0495,-0.3531,0.0864,0.367
43.150000,0.0729,-0.3193,0.0457,0.331
43.150000,0.0696,-0.3309,0.0529,0.342
43.150000,0.1691,-0.3019,0.0792,0.355
43.150000,0.2396,-0.2992,0.0601,0.388
43.151000,0.2432,-0.2844,0.0505,0.378
43.151000,0.3090,-0.2817,-0.0165,0.419
43.152000,0.3175,-0.2598,-0.0476,0.413
43.158000,0.3308,-0.2472,-0.0525,0.416
43.162000,0.3393,-0.2104,-0.0408,0.401
43.167000,0.3553,-0.1829,-0.0773,0.407
43.172000,0.3837,-0.2125,-0.0614,0.443
43.178000,0.3862,-0.1984,-0.0268,0.435
43.183000,0.3674,-0.1624,0.0863,0.411
43.187000,0.3705,-0.1550,0.2087,0.453
43.192000,0.3837,-0.1641,0.2496,0.486
43.197000,0.4042,-0.1709,0.3071,0.536
43.202000,0.3650,-0.1588,0.2953,0.496
43.240000,0.3184,-0.1706,0.3028,0.471
43.241000,0.2884,-0.1851,0.3320,0.477
43.241000,0.2389,-0.1949,0.3708,0.482
43.241000,0.1986,-0.2361,0.4457,0.542
43.241000,0.1653,-0.2345,0.4944,0.572
43.241000,0.1724,-0.2237,0.5744,0.640
43.242000,0.1865,-0.2468,0.6260,0.698
43.242000,0.1909,-0.2561,0.6348,0.711
43.246000,0.1976,-0.2229,0.6416,0.707
43.251000,0.2283,-0.1831,0.6033,0.671
43.256000,0.2425,-0.1966,0.4747,0.568
43.262000,0.2927,-0.2129,0.2581,0.445
43.267000,0.2256,-0.1815,0.0250,0.291
43.272000,0.2255,-0.1713,-0.1051,0.302
43.276000,0.2707,-0.1510,-0.2713,0.412
43.283000,0.3228,-0.0872,-0.3038,0.452
43.286000,0.3341,-0.0824,-0.3057,0.460
43.291000,0.3814,-0.0960,-0.2388,0.460
43.296000,0.3786,-0.0732,-0.1556,0.416
43.301000,0.3928,-0.0905,-0.0108,0.403
43.317000,0.4572,-0.0908,0.1288,0.484
43.318000,0.4595,-0.1175,0.2205,0.523
43.319000,0.4020,-0.1181,0.3553,0.549
43.322000,0.4113,-0.0975,0.3779,0.567
43.380000,0.3366,-0.1105,0.2905,0.458
43.381000,0.2616,-0.1382,0.2608,0.394
43.381000,0.2507,-0.1469,0.3844,0.482
43.382000,0.3066,-0.1152,0.5104,0.606
43.382000,0.3795,-0.1171,0.6243,0.740
43.382000,0.4074,-0.1650,0.7194,0.843
43.382000,0.3713,-0.1990,0.6831,0.803
43.383000,0.2952,-0.2334,0.6113,0.718
43.383000,0.2652,-0.2513,0.5422,0.654
43.383000,0.1975,-0.2407,0.4517,0.549
43.384000,0.1945,-0.2256,0.3400,0.452
43.384000,0.2109,-0.2298,0.2358,0.391
43.385000,0.2439,-0.2365,0.1509,0.372
43.390000,0.2387,-0.2814,0.0804,0.378
43.395000,0.2619,-0.2761,0.0124,0.381
43.400000,0.2919,-0.2469,0.0020,0.382
43.407000,0.3454,-0.1867,-0.0801,0.401
43.411000,0.3434,-0.1648,-0.1095,0.396
43.415000,0.3245,-0.1907,-0.1461,0.404
43.420000,0.3030,-0.1830,-0.1492,0.384
43.426000,0.3003,-0.1895,-0.1046,0.370
43.430000,0.2926,-0.2125,-0.1128,0.379
43.434000,0.3326,-0.1780,-0.0756,0.385
43.446000,0.3777,-0.1551,-0.0220,0.409
43.447000,0.3921,-0.2086,0.0864,0.452
43.451000,0.4093,-0.2093,0.1109,0.473
43.496000,0.4055,-0.1956,0.1041,0.462
43.497000,0.4093,-0.2319,0.0781,0.477
43.497000,0.3610,-0.2707,0.0593,0.455
43.497000,0.3058,-0.2735,0.0740,0.417
43.497000,0.2411,-0.3003,0.0122,0.385
43.498000,0.2264,-0.3223,-0.0542,0.398
43.499000,0.2209,-0.3208,-0.0533,0.393
43.499000,0.2127,-0.3289,-0.1241,0.411
43.500000,0.2161,-0.3229,-0.1683,0.423
43.500000,0.1976,-0.2979,-0.2219,0.421
43.504000,0.1979,-0.2872,-0.3017,0.461
43.510000,0.2384,-0.2740,-0.4198,0.555
43.515000,0.2353,-0.2629,-0.5356,0.641
43.519000,0.2411,-0.2177,-0.6660,0.741
43.530000,0.2704,-0.1837,-0.6629,0.739
43.531000,0.2610,-0.1533,-0.5554,0.633
43.534000,0.3595,-0.1411,-0.3460,0.519
43.578000,0.4342,-0.1186,-0.0967,0.460
43.579000,0.4879,-0.1005,0.1830,0.531
43.579000,0.4779,-0.0822,0.3641,0.606
43.580000,0.5141,-0.1287,0.5093,0.735
43.580000,0.5127,-0.1133,0.6760,0.856
43.580000,0.4761,-0.1174,0.7806,0.922
43.580000,0.4474,-0.1437,0.7324,0.870
43.581000,0.3474,-0.2040,0.6966,0.805
43.581000,0.1615,-0.2385,0.6446,0.706
43.584000,0.0308,-0.2902,0.5524,0.625
43.590000,-0.0763,-0.3185,0.4415,0.550
43.593000,-0.1364,-0.3758,0.3957,0.563
43.598000,-0.1688,-0.3761,0.3671,0.552
43.603000,-0.1350,-0.3792,0.2670,0.483
43.609000,-0.0899,-0.3491,0.2056,0.415
43.613000,-0.0360,-0.3048,0.1491,0.341
43.618000,0.0388,-0.2678,0.0808,0.282
43.623000,0.0795,-0.2333,0.0246,0.248
43.629000,0.1653,-0.2082,0.0592,0.272
43.633000,0.3372,-0.1446,0.0290,0.368
43.646000,0.4351,-0.0950,0.0249,0.446
43.646000,0.4643,-0.0596,0.0540,0.471
43.650000,0.5300,-0.0549,0.0565,0.536
43.657000,0.5701,-0.0188,0.0683,0.575
43.700000,0.5679,-0.0111,0.0750,0.573
43.702000,0.5159,-0.0079,0.1077,0.527
43.703000,0.4906,-0.0285,0.2025,0.532
43.703000,0.4754,-0.0443,0.3569,0.596
43.703000,0.4365,-0.1078,0.4322,0.624
43.703000,0.4072,-0.1406,0.5244,0.679
43.704000,0.3518,-0.1522,0.5570,0.676
43.704000,0.2317,-0.1788,0.5327,0.608
43.704000,0.1523,-0.2394,0.4943,0.570
43.706000,0.0562,-0.2837,0.4230,0.512
43.710000,0.0198,-0.3188,0.3449,0.470
43.713000,-0.0144,-0.3230,0.1691,0.365
43.717000,0.0133,-0.3010,0.0557,0.306
43.723000,0.0262,-0.2814,-0.0719,0.292
43.727000,0.0843,-0.2833,-0.2017,0.358
43.733000,0.1707,-0.2038,-0.2550,0.368
43.737000,0.2041,-0.1385,-0.3203,0.404
43.742000,0.2564,-0.1853,-0.4192,0.525
43.748000,0.3250,-0.1624,-0.4656,0.591
43.753000,0.3287,-0.1317,-0.4741,0.592
43.762000,0.3201,-0.1388,-0.5332,0.637
43.763000,0.3326,-0.0830,-0.5018,0.608
43.769000,0.3547,-0.0671,-0.3587,0.509
43.819000,0.3794,-0.0934,-0.1207,0.409
43.819000,0.4312,-0.1049,0.1501,0.468
43.820000,0.4264,-0.1422,0.3963,0.599
43.820000,0.3938,-0.1771,0.5799,0.723
43.820000,0.3048,-0.2145,0.6798,0.775
43.820000,0.2165,-0.2500,0.7463,0.816
43.820000,0.0929,-0.2812,0.6961,0.756
43.821000,-0.0092,-0.3010,0.5722,0.647
43.821000,-0.0901,-0.3573,0.5254,0.642
43.821000,-0.1283,-0.3854,0.4384,0.598
43.821000,-0.1460,-0.3922,0.3566,0.550
43.828000,-0.1022,-0.3685,0.3542,0.521
43.833000,-0.0473,-0.3547,0.3402,0.494
43.836000,0.0141,-0.3057,0.3625,0.474
43.842000,0.0823,-0.3003,0.2799,0.419
43.846000,0.0569,-0.2618,0.1619,0.313
43.851000,0.0719,-0.2451,-0.0132,0.256
43.859000,0.0989,-0.2307,-0.1906,0.315
43.862000,0.1352,-0.2492,-0.2988,0.412
43.867000,0.1761,-0.2240,-0.3787,0.474
43.872000,0.2433,-0.2006,-0.3273,0.455
43.904000,0.2963,-0.1957,-0.2742,0.449
43.907000,0.3591,-0.1138,-0.1688,0.413
43.907000,0.4269,-0.0984,-0.1548,0.465
43.907000,0.4302,-0.0804,-0.0885,0.447
43.908000,0.4076,-0.0812,0.0230,0.416
43.908000,0.3567,-0.1057,0.0815,0.381
43.908000,0.3324,-0.1370,0.1421,0.387
43.911000,0.2584,-0.1562,0.1715,0.347
43.916000,0.2325,-0.1587,0.2128,0.353
43.922000,0.1995,-0.1850,0.2946,0.401
43.926000,0.1426,-0.1638,0.3742,0.433
43.931000,0.1120,-0.1907,0.4228,0.477
43.936000,0.1099,-0.2467,0.4477,0.523
43.941000,0.1148,-0.2457,0.4658,0.539
43.946000,0.0932,-0.2835,0.3647,0.471
43.950000,0.0756,-0.2502,0.2379,0.353
43.959000,0.1054,-0.2005,0.1402,0.266
43.961000,0.1467,-0.1915,0.0474,0.246
43.966000,0.1730,-0.1802,0.0027,0.250
43.970000,0.2111,-0.1663,0.0080,0.269
44.007000,0.2398,-0.1282,0.0275,0.273
44.008000,0.3070,-0.1496,0.0371,0.344
44.009000,0.3362,-0.1276,0.0465,0.363
44.009000,0.3755,-0.1101,0.1202,0.409
44.009000,0.3651,-0.1114,0.1982,0.430
44.010000,0.3652,-0.1004,0.2688,0.464
44.010000,0.3707,-0.1108,0.2555,0.464
44.010000,0.3623,-0.1237,0.3019,0.488
44.016000,0.3491,-0.1176,0.2935,0.471
44.020000,0.2473,-0.1142,0.2566,0.374
44.026000,0.1716,-0.1422,0.2415,0.329
44.030000,0.1265,-0.1585,0.2553,0.326
44.036000,0.0425,-0.1918,0.2503,0.318
44.042000,0.0083,-0.2350,0.2407,0.337
44.045000,0.0140,-0.2330,0.2170,0.319
44.051000,0.0264,-0.2382,0.2245,0.328
44.057000,0.0503,-0.1885,0.2393,0.309
44.061000,0.1147,-0.1916,0.2756,0.355
44.066000,0.1765,-0.1636,0.2976,0.383
44.072000,0.2789,-0.1047,0.3363,0.449
44.076000,0.3507,-0.0410,0.3917,0.527
44.080000,0.4063,-0.0444,0.3776,0.557
44.084000,0.4125,-0.0382,0.3182,0.522
44.094000,0.4218,-0.0513,0.2875,0.513
44.095000,0.3527,-0.0787,0.1660,0.398
44.100000,0.2912,-0.1180,0.1091,0.333
44.140000,0.2279,-0.1858,0.0140,0.294
44.141000,0.1572,-0.1961,-0.1073,0.273
44.143000,0.1260,-0.1858,-0.1415,0.265
44.144000,0.0851,-0.1849,-0.2230,0.302
44.144000,0.1106,-0.1767,-0.2350,0.314
44.144000,0.1068,-0.1327,-0.2305,0.287
44.145000,0.1026,-0.1482,-0.1977,0.268
44.145000,0.1312,-0.1303,-0.1699,0.251
44.145000,0.1640,-0.0934,-0.0617,0.199
44.149000,0.1986,-0.0852,0.0241,0.217
44.155000,0.2304,-0.0913,0.0832,0.261
44.159000,0.2027,-0.0903,0.1892,0.292
44.165000,0.2230,-0.0941,0.2351,0.337
44.170000,0.2552,-0.1026,0.2379,0.364
44.175000,0.2282,-0.0875,0.2573,0.355
44.180000,0.2324,-0.0583,0.2979,0.382
44.185000,0.2414,-0.0578,0.3050,0.393
44.214000,0.2197,-0.0384,0.2717,0.351
44.214000,0.2317,-0.0739,0.3028,0.388
44.215000,0.1822,-0.0972,0.2601,0.332
44.215000,0.1474,-0.0897,0.2819,0.330
44.215000,0.1652,-0.0917,0.2775,0.336
44.215000,0.1211,-0.1415,0.2211,0.289
44.219000,0.1177,-0.1580,0.1843,0.270
44.224000,0.0881,-0.1816,0.1148,0.232
44.228000,0.0703,-0.1767,0.0554,0.198
44.233000,0.0856,-0.1909,-0.0247,0.211
44.240000,0.0745,-0.1694,-0.0970,0.209
44.244000,0.0678,-0.1765,-0.1331,0.231
44.249000,0.1086,-0.1976,-0.1406,0.266
44.255000,0.1654,-0.1494,-0.1529,0.270
44.260000,0.2120,-0.1181,-0.1272,0.274
44.265000,0.2533,-0.1080,-0.0332,0.277
44.269000,0.2994,-0.0809,0.1001,0.326
44.273000,0.3574,-0.1038,0.1942,0.420
44.279000,0.3441,-0.0811,0.3110,0.471
44.284000,0.3103,-0.0728,0.4220,0.529
44.295000,0.2772,-0.1130,0.5168,0.597
44.296000,0.1990,-0.1416,0.5305,0.584
44.299000,0.2047,-0.1395,0.5134,0.570
44.304000,0.1484,-0.1403,0.4727,0.515
44.346000,0.1161,-0.1512,0.4516,0.490
44.348000,0.0908,-0.2104,0.3735,0.438
44.349000,0.0345,-0.2413,0.3125,0.396
44.349000,-0.0053,-0.2702,0.1826,0.326
44.349000,-0.0430,-0.2326,0.0580,0.244
44.350000,-0.1122,-0.2310,-0.0807,0.269
44.350000,-0.1055,-0.2559,-0.2430,0.368
44.350000,-0.0996,-0.2566,-0.3693,0.461
44.351000,-0.0368,-0.2331,-0.4717,0.527
44.353000,0.0088,-0.1923,-0.5504,0.583
44.358000,0.0853,-0.2083,-0.5124,0.560
44.363000,0.1379,-0.1828,-0.4822,0.534
44.368000,0.2052,-0.1161,-0.4453,0.504
44.373000,0.2490,-0.1038,-0.4065,0.488
44.378000,0.2836,-0.0981,-0.3755,0.481
44.383000,0.2898,-0.0846,-0.3856,0.490
44.389000,0.2866,-0.0634,-0.3075,0.425
44.393000,0.2598,-0.1302,-0.1774,0.340
44.398000,0.2429,-0.1105,-0.0022,0.267
44.402000,0.2359,-0.1074,0.1463,0.298
44.408000,0.2120,-0.1643,0.2661,0.378
44.412000,0.2048,-0.1855,0.3620,0.455
44.417000,0.1307,-0.2165,0.4628,0.527
44.452000,0.0781,-0.2170,0.5782,0.622
44.453000,0.0301,-0.2179,0.6556,0.691
44.454000,0.0012,-0.2530,0.6448,0.693
44.454000,-0.0588,-0.2720,0.6059,0.667
44.454000,-0.0946,-0.3132,0.5412,0.632
44.455000,-0.0732,-0.2998,0.4315,0.531
44.456000,-0.0807,-0.2989,0.2649,0.407
44.457000,-0.0500,-0.2767,0.0867,0.294
44.462000,-0.0125,-0.2212,-0.0839,0.237
44.467000,0.0102,-0.2206,-0.2424,0.328
44.473000,0.0808,-0.1743,-0.3197,0.373
44.477000,0.1561,-0.1611,-0.4474,0.501
44.482000,0.2268,-0.1380,-0.4891,0.557
44.487000,0.2831,-0.1072,-0.4355,0.530
44.492000,0.3231,-0.0928,-0.4779,0.584
44.497000,0.3662,-0.1287,-0.5514,0.674
44.502000,0.3066,-0.1712,-0.5965,0.692
44.514000,0.2570,-0.1917,-0.6633,0.737
44.514000,0.2051,-0.1999,-0.8116,0.861
44.517000,0.2032,-0.1837,-0.8070,0.852
44.567000,0.2295,-0.1790,-0.8075,0.858
44.569000,0.2338,-0.1665,-0.7725,0.824
44.569000,0.2424,-0.1656,-0.7044,0.763
44.570000,0.2411,-0.1833,-0.6390,0.707
44.570000,0.2823,-0.1530,-0.5738,0.658
44.570000,0.2798,-0.1488,-0.5710,0.653
44.571000,0.3315,-0.1684,-0.5133,0.634
44.572000,0.3346,-0.1112,-0.4438,0.567
44.572000,0.3682,-0.0537,-0.3363,0.502
44.572000,0.3942,-0.0579,-0.1361,0.421
44.573000,0.4683,-0.0354,0.1281,0.487
44.580000,0.4926,-0.0390,0.3679,0.616
44.583000,0.4674,-0.0402,0.5524,0.725
44.587000,0.4169,-0.0584,0.6985,0.816
44.591000,0.2955,-0.0982,0.7728,0.833
44.598000,0.1869,-0.1192,0.7300,0.763
44.602000,0.1145,-0.1381,0.6754,0.699
44.609000,0.0641,-0.1426,0.6114,0.631
44.611000,0.0136,-0.1208,0.6336,0.645
44.616000,0.0349,-0.1228,0.6915,0.703
44.621000,0.0348,-0.1128,0.7541,0.763
44.652000,0.0394,-0.0912,0.8407,0.847
44.652000,0.0440,-0.1033,0.9609,0.967
44.652000,0.0102,-0.0970,1.0361,1.041
44.653000,0.0264,-0.1059,0.9849,0.991
44.653000,0.0064,-0.0653,0.9487,0.951
44.653000,0.0174,-0.0540,0.9178,0.920
44.657000,0.0212,-0.0934,0.8872,0.892
44.661000,0.0205,-0.0829,0.8473,0.852
44.666000,0.0321,-0.0658,0.7887,0.792
44.670000,0.0317,-0.0919,0.7279,0.734
44.675000,0.0770,-0.0586,0.6937,0.700
44.680000,0.1058,0.0079,0.6525,0.661
44.686000,0.1419,0.0237,0.6547,0.670
44.690000,0.1664,0.0150,0.5974,0.620
44.697000,0.1363,0.0132,0.4616,0.481
44.700000,0.1517,0.0037,0.3094,0.345
44.706000,0.1571,-0.0203,0.1434,0.214
44.710000,0.1360,0.0345,-0.0153,0.141
44.715000,0.1981,0.0583,-0.1092,0.234
44.720000,0.2142,0.0365,-0.1814,0.283
44.731000,0.2440,0.0341,-0.2512,0.352
44.733000,0.2590,0.0320,-0.2924,0.392
44.736000,0.3049,0.0542,-0.1975,0.367
44.782000,0.4177,0.1054,-0.0910,0.440
44.784000,0.4733,0.1089,0.0558,0.489
44.784000,0.5249,0.1029,0.1474,0.555
44.784000,0.5055,0.1136,0.1193,0.532
44.785000,0.4297,0.0932,0.0959,0.450
44.785000,0.3666,0.0680,0.0199,0.373
44.786000,0.2970,0.0381,-0.0727,0.308
44.786000,0.2489,0.0082,-0.1294,0.281
44.786000,0.2225,0.0192,-0.1335,0.260
44.786000,0.2056,0.0040,-0.1234,0.240
44.792000,0.1406,-0.0519,-0.1108,0.186
44.794000,0.0802,-0.0360,-0.1197,0.149
44.801000,0.0197,-0.0753,-0.0807,0.112
44.805000,-0.0057,-0.0953,-0.1349,0.165
44.810000,-0.0221,-0.1010,-0.1842,0.211
44.815000,-0.0273,-0.1330,-0.1522,0.204
44.821000,-0.0115,-0.1409,-0.0748,0.160
44.825000,0.0300,-0.1391,0.0096,0.143
44.830000,0.1142,-0.1587,0.1536,0.249
44.834000,0.1936,-0.1567,0.2400,0.346
44.878000,0.2658,-0.1572,0.3336,0.455
44.880000,0.2930,-0.1220,0.4390,0.542
44.880000,0.2633,-0.1398,0.5566,0.631
44.880000,0.2438,-0.1412,0.5379,0.607
44.880000,0.1889,-0.1908,0.5169,0.582
44.881000,0.1396,-0.2263,0.4556,0.528
44.881000,0.1123,-0.2621,0.3444,0.447
44.881000,0.0374,-0.2741,0.2167,0.351
44.883000,-0.0301,-0.2836,0.0723,0.294
44.885000,-0.0306,-0.3074,-0.0098,0.309
44.890000,-0.0194,-0.3022,-0.1254,0.328
44.894000,-0.0397,-0.2656,-0.1382,0.302
44.900000,-0.0271,-0.2455,-0.1871,0.310
44.904000,-0.0079,-0.2228,-0.1666,0.278
44.909000,0.0347,-0.1976,-0.0914,0.220
44.914000,0.0698,-0.2152,0.0483,0.231
44.919000,0.0855,-0.1851,0.1352,0.245
44.924000,0.0986,-0.1789,0.2245,0.303
44.929000,0.1402,-0.1632,0.3782,0.435
44.933000,0.1872,-0.1740,0.4601,0.526
44.948000,0.2086,-0.1897,0.4702,0.548
44.950000,0.2019,-0.1889,0.4516,0.530
44.950000,0.1025,-0.2001,0.3543,0.420
44.953000,0.0179,-0.1874,0.2666,0.326
45.005000,0.0365,-0.1840,0.2314,0.298
45.006000,0.0765,-0.1589,0.2512,0.307
45.006000,0.1428,-0.1671,0.2587,0.339
45.007000,0.1758,-0.1585,0.2543,0.347
45.008000,0.1230,-0.1617,0.2403,0.315
45.008000,0.0656,-0.1362,0.1616,0.221
45.008000,-0.0084,-0.1943,0.1619,0.253
45.008000,-0.0323,-0.1998,0.1359,0.244
45.009000,-0.0779,-0.1957,0.2008,0.291
45.009000,-0.1308,-0.2250,0.2250,0.344
45.009000,-0.1096,-0.2569,0.2325,0.363
45.013000,-0.1147,-0.2745,0.2640,0.398
45.018000,-0.0863,-0.2564,0.2477,0.367
45.023000,-0.0914,-0.2219,0.2437,0.342
45.028000,-0.0297,-0.1829,0.2112,0.281
45.033000,0.0273,-0.1800,0.1860,0.260
45.041000,0.0989,-0.1391,0.1204,0.209
45.045000,0.1609,-0.1250,0.0910,0.223
45.048000,0.1738,-0.1364,0.0518,0.227
45.053000,0.1653,-0.1005,-0.0581,0.202
45.058000,0.1533,-0.1083,-0.1971,0.272
45.063000,0.0789,-0.0872,-0.3240,0.345
45.068000,0.0327,-0.1376,-0.3552,0.382
45.080000,0.0052,-0.1493,-0.3819,0.410
45.081000,0.0326,-0.1772,-0.3778,0.419
45.083000,0.0333,-0.1642,-0.3763,0.412
45.087000,0.0527,-0.1747,-0.3272,0.375
45.132000,0.1292,-0.1467,-0.2401,0.310
45.133000,0.1957,-0.0921,-0.1748,0.278
45.134000,0.2862,-0.0804,-0.0452,0.301
45.134000,0.3866,-0.0544,0.1058,0.405
45.134000,0.4399,-0.0069,0.1776,0.474
45.134000,0.4555,-0.0171,0.1347,0.475
45.135000,0.4476,0.0155,0.0561,0.451
45.135000,0.3419,0.0168,-0.0366,0.344
45.136000,0.2624,0.0012,-0.0884,0.277
45.138000,0.2118,-0.0335,-0.0803,0.229
45.142000,0.1804,-0.0728,-0.1298,0.234
45.147000,0.1228,-0.1048,-0.1746,0.238
45.152000,0.0866,-0.1628,-0.1835,0.260
45.161000,0.0093,-0.1560,-0.2523,0.297
45.163000,-0.0374,-0.1705,-0.2733,0.324
45.167000,-0.0416,-0.1825,-0.2298,0.296
45.204000,-0.0150,-0.1439,-0.2056,0.251
45.205000,0.0637,-0.1340,-0.1529,0.213
45.206000,0.1659,-0.1215,-0.0621,0.215
45.207000,0.2180,-0.1236,-0.0191,0.251
45.207000,0.3106,-0.0541,0.0049,0.315
45.207000,0.3625,-0.0927,0.0459,0.377
45.208000,0.3902,-0.0454,0.0654,0.398
45.208000,0.3868,-0.0056,0.0565,0.391
45.212000,0.3334,-0.0448,0.0427,0.339
45.216000,0.2441,-0.0602,-0.0546,0.257
45.222000,0.2003,-0.0850,-0.1542,0.267
45.226000,0.1352,-0.1333,-0.1560,0.246
45.231000,0.0771,-0.0806,-0.1796,0.211
45.236000,0.0645,-0.1185,-0.1700,0.217
45.242000,0.0615,-0.1007,-0.0939,0.151
45.246000,0.1257,-0.1063,0.0344,0.168
45.251000,0.1497,-0.1115,0.1525,0.241
45.256000,0.2222,-0.1117,0.2656,0.364
45.262000,0.2401,-0.1264,0.3452,0.439
45.266000,0.1818,-0.1055,0.3315,0.393
45.271000,0.1549,-0.1162,0.3063,0.362
45.276000,0.1015,-0.1107,0.2624,0.302
45.282000,0.0573,-0.1322,0.1831,0.233
45.286000,0.0294,-0.1781,0.0590,0.190
45.302000,-0.0112,-0.1933,-0.0097,0.194
45.303000,-0.0525,-0.1871,-0.1068,0.222
45.304000,-0.1063,-0.1787,-0.1630,0.264
45.355000,-0.1224,-0.1678,-0.2096,0.295
45.356000,-0.0912,-0.1662,-0.2276,0.296
45.356000,-0.0458,-0.1522,-0.1598,0.225
45.356000,0.0546,-0.1092,-0.1211,0.172
45.356000,0.1265,-0.0897,-0.0660,0.169
45.357000,0.1526,-0.1119,0.0148,0.190
45.357000,0.1744,-0.1003,0.0803,0.217
45.357000,0.1825,-0.0979,0.0833,0.223
45.357000,0.1698,-0.0931,0.1028,0.219
45.358000,0.1859,-0.0645,0.0864,0.215
45.358000,0.1496,-0.0931,0.0892,0.197
45.361000,0.0825,-0.0882,0.1086,0.162
45.365000,0.0963,-0.1285,0.1729,0.236
45.369000,0.0884,-0.0951,0.2274,0.262
45.376000,0.0826,-0.1169,0.3387,0.368
45.380000,0.0863,-0.1341,0.3946,0.426
45.386000,0.0590,-0.1182,0.4409,0.460
45.393000,0.0488,-0.1301,0.4787,0.498
45.395000,-0.0043,-0.1232,0.4354,0.453
45.399000,-0.0308,-0.1311,0.3494,0.374
45.433000,-0.0547,-0.1416,0.2062,0.256
45.434000,-0.1167,-0.1257,0.0680,0.185
45.434000,-0.1499,-0.1240,-0.0224,0.196
45.435000,-0.1611,-0.0979,-0.0747,0.203
45.435000,-0.1099,-0.0977,-0.0747,0.165
45.435000,-0.0180,-0.0733,-0.1060,0.130
45.442000,0.0189,-0.0869,-0.0682,0.112
45.443000,0.0269,-0.0380,-0.0664,0.081
45.445000,0.0394,0.0061,-0.0880,0.097
45.451000,0.0539,-0.0237,-0.0287,0.066
45.455000,0.0753,-0.0129,0.0348,0.084
45.461000,0.0917,-0.0473,0.0931,0.139
45.465000,0.1195,-0.0627,0.1511,0.203
45.470000,0.1231,-0.0546,0.2397,0.275
45.476000,0.1384,-0.0755,0.3019,0.341
45.480000,0.1461,-0.0967,0.2831,0.333
45.484000,0.1322,-0.1039,0.2244,0.280
45.491000,0.1063,-0.0615,0.1759,0.215
45.494000,0.1185,-0.0220,0.1423,0.186
45.498000,0.1186,-0.0255,0.1088,0.163
45.504000,0.1475,-0.0525,0.1301,0.204
45.532000,0.1907,-0.0292,0.2057,0.282
45.533000,0.1581,-0.0202,0.2164,0.269
45.533000,0.1736,-0.0351,0.2436,0.301
45.534000,0.2058,-0.0073,0.1544,0.257
45.534000,0.2000,-0.0107,0.0968,0.222
45.534000,0.1871,0.0097,0.0635,0.198
45.541000,0.1933,-0.0034,0.0922,0.214
45.543000,0.2186,-0.0069,0.0685,0.229
45.549000,0.2390,-0.0059,0.0071,0.239
45.554000,0.2070,-0.0263,-0.0275,0.210
45.559000,0.1991,-0.0609,-0.1117,0.236
45.563000,0.1793,-0.0832,-0.2214,0.297
45.569000,0.1120,-0.0768,-0.3159,0.344
45.575000,0.0995,-0.0585,-0.4050,0.421
45.579000,0.1437,-0.0993,-0.4675,0.499
45.583000,0.1695,-0.0852,-0.4570,0.495
45.588000,0.2049,-0.1015,-0.3993,0.460
45.594000,0.2401,-0.1079,-0.3275,0.420
45.599000,0.2732,-0.0830,-0.2320,0.368
45.603000,0.2990,-0.0844,-0.2348,0.389
45.621000,0.2982,-0.0449,-0.1013,0.318
45.624000,0.3022,-0.0415,0.0249,0.306
45.625000,0.3208,-0.0716,0.1318,0.354
45.626000,0.3062,-0.0731,0.1909,0.368
