time,ax,ay,az,aT
0.003000,0.2224,0.2902,-0.2659,0.452
0.004000,0.1122,0.4036,-0.3421,0.541
0.005000,0.0903,0.5142,-0.4159,0.668
0.008000,0.0299,0.5675,-0.3320,0.658
0.011000,0.0259,0.5945,-0.1649,0.617
0.017000,-0.0795,0.6166,-0.0438,0.623
0.023000,-0.2290,0.6457,-0.1146,0.695
0.026000,-0.3052,0.5261,-0.1330,0.623
0.031000,-0.2816,0.4755,-0.0705,0.557
0.041000,-0.2612,0.4391,0.0491,0.513
0.042000,-0.2629,0.4216,0.0082,0.497
0.050000,-0.2791,0.4183,-0.1476,0.524
0.052000,-0.3818,0.3575,-0.3798,0.646
0.061000,-0.3946,0.3044,-0.3897,0.633
0.062000,-0.1855,0.2879,-0.1967,0.395
0.066000,-0.0736,0.2651,-0.1422,0.310
0.071000,-0.0007,0.2551,-0.2305,0.344
0.076000,0.0877,0.3419,-0.2944,0.460
0.081000,0.1171,0.3676,-0.3125,0.496
0.087000,0.0466,0.3875,-0.3209,0.505
0.091000,-0.0139,0.3465,-0.4033,0.532
0.096000,-0.1172,0.3208,-0.4856,0.594
0.100000,-0.1225,0.3557,-0.4602,0.594
0.105000,-0.1589,0.4580,-0.3441,0.594
0.111000,-0.1044,0.5485,-0.2855,0.627
0.116000,-0.0308,0.5932,-0.2699,0.652
0.129000,-0.0436,0.6370,-0.2808,0.697
0.130000,-0.0854,0.6582,-0.3921,0.771
0.131000,-0.0964,0.7212,-0.5392,0.906
0.138000,-0.1128,0.7230,-0.6577,0.984
0.145000,-0.1370,0.7167,-0.7498,1.046
0.146000,-0.1425,0.6496,-0.8803,1.103
0.150000,-0.1678,0.6175,-0.9319,1.130
0.164000,-0.1199,0.5584,-0.9359,1.096
0.165000,-0.1487,0.5419,-0.9949,1.143
0.166000,-0.1800,0.5086,-1.0228,1.156
0.173000,-0.1562,0.5281,-1.0698,1.203
0.175000,-0.1281,0.4738,-1.0954,1.200
0.180000,-0.1173,0.3963,-1.0303,1.110
0.186000,-0.1475,0.3718,-0.9152,0.999
0.190000,-0.1446,0.3454,-0.8147,0.897
0.195000,-0.1993,0.3289,-0.7120,0.809
0.200000,-0.2712,0.2573,-0.6169,0.721
0.206000,-0.2909,0.2143,-0.4431,0.572
0.210000,-0.2920,0.1757,-0.3127,0.463
0.215000,-0.3300,0.0692,-0.1661,0.376
0.221000,-0.2567,0.0141,0.1115,0.280
0.225000,-0.1845,0.0291,0.2474,0.310
0.231000,-0.1585,0.0494,0.3878,0.422
0.235000,-0.1257,0.1082,0.4563,0.485
0.240000,-0.1105,0.1649,0.5412,0.576
0.246000,-0.0886,0.2005,0.5997,0.639
0.250000,-0.0840,0.2580,0.6508,0.705
0.263000,-0.0555,0.2373,0.6805,0.723
0.265000,-0.0700,0.2444,0.5812,0.634
0.265000,-0.1276,0.1959,0.4605,0.516
0.272000,-0.1903,0.1044,0.3973,0.453
0.275000,-0.2004,0.0040,0.4107,0.457
0.280000,-0.1963,-0.1269,0.5077,0.559
0.285000,-0.2874,-0.2354,0.5235,0.642
0.295000,-0.3967,-0.2594,0.4200,0.633
0.296000,-0.4092,-0.2393,0.3050,0.564
0.299000,-0.1290,-0.1415,0.3028,0.358
0.304000,0.0873,-0.0833,0.2699,0.296
0.309000,0.0893,-0.1219,0.1847,0.239
0.315000,0.0543,-0.1045,0.1454,0.187
0.320000,-0.0011,-0.1269,0.1041,0.164
0.324000,-0.0576,-0.2229,-0.0109,0.230
0.329000,-0.0752,-0.3351,-0.1352,0.369
0.334000,-0.0994,-0.4754,-0.2376,0.541
0.339000,-0.1382,-0.6273,-0.3663,0.739
0.344000,-0.1917,-0.6616,-0.3706,0.782
0.349000,-0.1069,-0.7122,-0.3464,0.799
0.365000,0.0106,-0.7386,-0.3009,0.798
0.366000,0.0146,-0.7385,-0.2223,0.771
0.367000,0.0318,-0.7553,-0.0986,0.762
0.371000,0.0286,-0.7698,0.0101,0.770
0.375000,-0.0236,-0.7392,0.1925,0.764
0.379000,-0.0910,-0.7282,0.3386,0.808
0.384000,-0.1371,-0.7058,0.4151,0.830
0.390000,-0.1670,-0.6792,0.5201,0.872
0.394000,-0.1661,-0.6316,0.5986,0.886
0.399000,-0.1746,-0.5435,0.6771,0.886
0.404000,-0.2360,-0.4822,0.7436,0.917
0.409000,-0.3210,-0.4738,0.7575,0.949
0.414000,-0.4336,-0.5013,0.6688,0.942
0.419000,-0.5405,-0.5336,0.5901,0.962
0.424000,-0.6508,-0.6039,0.4808,1.010
0.429000,-0.7192,-0.7217,0.3624,1.081
0.433000,-0.8175,-0.9465,0.2635,1.278
0.439000,-1.0561,-1.1275,0.2247,1.561
0.443000,-1.3272,-1.2579,0.1528,1.835
0.448000,-0.8201,-1.3187,0.2174,1.568
0.455000,-0.3689,-1.3391,0.4397,1.457
0.459000,-0.0691,-1.3286,0.5899,1.455
0.463000,0.1104,-1.2996,0.6132,1.441
0.468000,0.1428,-1.3003,0.6626,1.466
0.474000,0.2267,-1.4502,0.5825,1.579
0.479000,0.3826,-1.6826,0.5786,1.820
0.484000,0.0004,-1.5530,0.6341,1.677
0.488000,-0.4809,-1.4255,0.4644,1.574
0.493000,-0.8009,-1.4677,0.3329,1.705
0.498000,-1.0312,-1.5575,0.3425,1.899
0.504000,-1.1047,-1.6661,0.3424,2.028
0.508000,-1.0503,-1.7620,0.3111,2.075
0.513000,-0.9013,-1.7611,0.3347,2.006
0.518000,-0.7346,-1.7234,0.2961,1.897
0.523000,-0.5783,-1.6679,0.1907,1.776
0.527000,-0.5944,-1.7044,0.0999,1.808
0.533000,-0.4982,-1.7301,-0.0001,1.800
0.538000,-0.2969,-1.6489,-0.0614,1.677
0.542000,-0.1680,-1.6355,-0.1943,1.656
0.547000,-0.2045,-1.6919,-0.3054,1.731
0.554000,-0.3585,-1.7487,-0.4640,1.844
0.558000,-0.5066,-1.8446,-0.6393,2.017
0.563000,-0.6894,-1.9983,-0.8192,2.267
0.569000,-0.9954,-2.1023,-0.8675,2.483
0.573000,-1.2305,-2.1569,-0.9180,2.647
0.578000,-1.3372,-2.1164,-1.1071,2.737
0.584000,-1.3598,-2.1105,-1.3463,2.849
0.597000,-1.3078,-2.1048,-1.5686,2.933
0.604000,-1.2323,-2.1088,-1.5853,2.912
0.604000,-1.2083,-2.1363,-1.4250,2.838
0.605000,-1.1750,-2.0818,-1.7454,2.960
0.607000,-0.9527,-1.9244,-1.8264,2.819
0.613000,-0.7183,-1.7213,-1.7067,2.528
0.617000,-0.5591,-1.6133,-1.6850,2.399
0.625000,-0.4567,-1.6056,-1.6634,2.357
0.627000,-0.3940,-1.6288,-1.5580,2.288
0.633000,-0.3666,-1.6213,-1.4742,2.222
0.638000,-0.3599,-1.5977,-1.3400,2.116
0.642000,-0.4120,-1.5891,-1.3205,2.107
0.647000,-0.4464,-1.6199,-1.3819,2.176
0.655000,-0.4912,-1.5892,-1.4643,2.216
0.657000,-0.5294,-1.5612,-1.5605,2.270
0.662000,-0.5832,-1.5190,-1.6420,2.312
0.667000,-0.6087,-1.4570,-1.7470,2.355
0.672000,-0.6112,-1.3441,-1.7894,2.320
0.679000,-0.5997,-1.2393,-1.8173,2.280
0.682000,-0.6034,-1.1408,-1.7756,2.195
0.699000,-0.6073,-1.0050,-1.7195,2.082
0.700000,-0.5581,-0.8842,-1.6584,1.961
0.700000,-0.4810,-0.7935,-1.5351,1.794
0.702000,-0.4732,-0.7470,-1.4452,1.694
0.708000,-0.5134,-0.7166,-1.3814,1.639
0.712000,-0.5606,-0.7021,-1.3723,1.640
0.717000,-0.5576,-0.7180,-1.3271,1.609
0.728000,-0.5968,-0.6878,-1.2387,1.537
0.729000,-0.6773,-0.6668,-1.1405,1.485
0.732000,-0.7594,-0.6453,-1.1353,1.511
0.738000,-0.8744,-0.6927,-1.1847,1.627
0.742000,-0.9331,-0.7080,-1.2959,1.747
0.747000,-0.8600,-0.7175,-1.2895,1.708
0.752000,-0.7053,-0.6443,-1.1778,1.517
0.756000,-0.5940,-0.5432,-0.9251,1.226
0.761000,-0.5310,-0.4790,-1.1222,1.331
0.766000,-0.5073,-0.3247,-1.2688,1.405
0.772000,-0.4388,-0.1902,-1.2145,1.305
0.776000,-0.4192,-0.1282,-1.1365,1.218
0.781000,-0.3329,-0.0766,-1.0227,1.078
0.786000,-0.2261,-0.0621,-0.8949,0.925
0.792000,-0.2131,-0.0846,-0.8772,0.907
0.797000,-0.1528,-0.0631,-0.9098,0.925
0.801000,-0.0931,0.0314,-0.8708,0.876
0.814000,-0.0343,0.1003,-0.8079,0.815
0.815000,-0.0479,0.1846,-0.8458,0.867
0.816000,-0.0221,0.2579,-0.8191,0.859
0.822000,-0.0099,0.2700,-0.7998,0.844
0.830000,-0.0501,0.2762,-0.7543,0.805
0.830000,-0.1330,0.2570,-0.6756,0.735
0.837000,-0.1851,0.2772,-0.6257,0.709
0.847000,-0.3047,0.3199,-0.5974,0.743
0.848000,-0.3632,0.2919,-0.5931,0.754
0.851000,-0.3228,0.3366,-0.5290,0.705
0.857000,-0.2668,0.4203,-0.4266,0.656
0.864000,-0.2264,0.5308,-0.3768,0.689
0.867000,-0.2297,0.5727,-0.3294,0.699
0.871000,-0.1615,0.6128,-0.2365,0.676
0.876000,-0.0429,0.6631,-0.0480,0.666
0.880000,0.0355,0.7690,0.0684,0.773
0.888000,0.1246,0.9138,0.1775,0.939
0.890000,0.1819,1.0447,0.3174,1.107
0.897000,0.2247,1.0947,0.4067,1.189
0.900000,0.3004,1.1239,0.4932,1.264
0.909000,0.3134,1.0844,0.5555,1.258
0.915000,0.3446,1.0649,0.7467,1.346
0.916000,0.3801,1.0963,1.0259,1.549
0.924000,0.4088,1.1402,1.0413,1.597
0.925000,0.4218,1.2371,1.1330,1.730
0.930000,0.4405,1.3457,1.3275,1.941
0.935000,0.3356,1.4468,1.4836,2.099
0.941000,0.2026,1.4395,1.6252,2.181
0.945000,0.0555,1.4194,1.6522,2.179
0.950000,-0.1446,1.3627,1.7488,2.222
0.954000,-0.2875,1.3289,1.8983,2.335
0.960000,-0.3330,1.3183,2.0455,2.456
0.964000,-0.3691,1.3617,2.1786,2.596
0.970000,-0.3961,1.3897,2.2855,2.704
0.975000,-0.4089,1.4334,2.3759,2.805
0.979000,-0.4100,1.4570,2.4163,2.851
0.985000,-0.3752,1.4868,2.5167,2.947
0.989000,-0.3478,1.5081,2.5791,3.008
0.995000,-0.3085,1.4660,2.6370,3.033
1.000000,-0.2125,1.4416,2.6713,3.043
1.012000,-0.1124,1.3536,2.6775,3.002
1.014000,-0.0843,1.2591,2.5884,2.880
1.015000,-0.0670,1.0913,2.4642,2.696
1.040000,-0.0029,0.8983,2.2786,2.449
1.042000,-0.0160,0.7952,2.0870,2.233
1.044000,-0.1322,0.7224,1.8559,1.996
1.045000,-0.1564,0.5704,1.5729,1.680
1.045000,-0.1273,0.5089,1.4870,1.577
1.045000,-0.2575,0.5404,1.4950,1.610
1.049000,-0.3772,0.5618,1.3721,1.530
1.055000,-0.4757,0.5323,1.1494,1.353
1.059000,-0.6926,0.5284,1.0185,1.340
1.065000,-1.0277,0.4545,0.8813,1.428
1.069000,-1.4546,0.2867,0.6565,1.621
1.073000,-1.8786,-0.0302,0.4593,1.934
1.078000,-2.0912,-0.5053,0.3016,2.172
1.084000,-2.0406,-1.0134,0.1755,2.285
1.090000,-1.8265,-1.3595,-0.1084,2.280
1.095000,-1.3573,-1.5303,-0.3664,2.078
1.099000,-0.6910,-1.5295,-0.7065,1.821
1.105000,0.1180,-1.4444,-0.9974,1.759
1.109000,0.9313,-1.2504,-1.1130,1.916
1.114000,1.7440,-0.8897,-0.9483,2.175
1.118000,2.4976,-0.4655,-0.5399,2.597
1.130000,3.0538,-0.0336,-0.0004,3.054
1.133000,3.3379,0.3214,0.4959,3.390
1.136000,3.3234,0.6766,0.9926,3.534
1.151000,3.1290,0.9284,1.6099,3.639
1.154000,2.8860,1.1155,2.3338,3.876
1.155000,2.4620,1.2075,3.0046,4.068
1.156000,1.8919,1.2082,3.5271,4.181
1.159000,1.2831,1.1496,3.8950,4.259
1.163000,0.6123,1.0216,4.0468,4.218
1.168000,-0.0238,0.8474,4.0431,4.131
1.173000,-0.6098,0.6076,3.9875,4.079
1.179000,-1.0246,0.3050,3.8037,3.951
1.183000,-1.0956,0.0479,3.5131,3.680
1.189000,-0.8417,-0.1433,3.2305,3.341
1.194000,-0.2763,-0.0448,2.6250,2.640
1.198000,0.5966,0.2226,1.8136,1.922
1.206000,1.3915,0.5864,1.1481,1.897
1.209000,1.9595,0.9612,0.6154,2.268
1.213000,2.5379,1.2592,0.2512,2.844
1.218000,3.0946,1.5474,0.2244,3.467
1.223000,3.5235,1.7297,0.4194,3.948
1.228000,3.7004,1.8389,0.6352,4.181
1.232000,3.5694,1.8452,0.8595,4.109
1.245000,3.3373,1.7885,1.1326,3.952
1.248000,3.1589,1.6420,1.4263,3.835
1.249000,3.0312,1.5221,1.6666,3.779
1.253000,2.7901,1.4163,1.8399,3.630
1.275000,2.4315,1.3647,1.9510,3.403
1.277000,2.1449,1.4434,2.0070,3.273
1.278000,1.9482,1.5969,2.0289,3.234
1.279000,1.8476,1.7900,1.8245,3.154
1.279000,1.8288,1.9224,1.5208,3.058
1.283000,1.7720,1.9899,1.2613,2.948
1.288000,1.7395,1.9768,0.9906,2.813
1.293000,1.7350,1.9960,0.7427,2.747
1.297000,1.7079,2.0003,0.3907,2.659
1.304000,1.6357,1.9803,0.0356,2.569
1.309000,1.4030,1.8768,-0.2672,2.358
1.313000,1.0116,1.7068,-0.5081,2.048
1.317000,0.5694,1.4584,-0.7039,1.717
1.324000,0.0861,1.2111,-0.8834,1.502
1.327000,-0.2588,0.9554,-1.0325,1.430
1.332000,-0.5253,0.7630,-1.2300,1.540
1.346000,-0.7450,0.5767,-1.4424,1.723
1.354000,-0.8773,0.3681,-1.5739,1.839
1.354000,-0.9728,0.0707,-1.8064,2.053
1.355000,-0.9842,-0.1810,-2.0106,2.246
1.357000,-0.9746,-0.3199,-2.2555,2.478
1.362000,-1.0229,-0.2809,-2.4767,2.694
1.367000,-1.1812,-0.1932,-2.5430,2.811
1.376000,-1.3190,-0.1068,-2.4862,2.816
1.377000,-1.1411,0.0307,-2.5534,2.797
1.381000,-0.7267,0.2239,-2.5842,2.694
1.387000,-0.3582,0.3936,-2.5689,2.623
1.391000,-0.1389,0.5062,-2.6006,2.653
1.396000,-0.0386,0.5568,-2.5138,2.575
1.401000,-0.0246,0.5834,-2.3798,2.450
1.407000,-0.1039,0.5402,-2.1745,2.243
1.412000,-0.1644,0.5010,-2.0031,2.071
1.416000,-0.2446,0.3931,-1.8006,1.859
1.422000,-0.4113,0.2425,-1.5526,1.624
1.426000,-0.5808,0.1679,-1.4001,1.525
1.432000,-0.7127,0.1208,-1.3283,1.512
1.436000,-0.8121,0.0215,-1.3106,1.542
1.442000,-0.9347,-0.0155,-1.4111,1.693
1.446000,-1.1193,-0.0621,-1.5959,1.950
1.451000,-1.2419,-0.1853,-1.7595,2.162
1.463000,-1.3117,-0.2819,-2.0601,2.458
1.464000,-1.3139,-0.3538,-2.3638,2.728
1.466000,-1.2583,-0.3313,-2.6805,2.980
1.488000,-1.1661,-0.4216,-2.9743,3.222
1.489000,-1.0515,-0.4618,-3.2121,3.411
1.489000,-0.8958,-0.5327,-3.4153,3.571
1.490000,-0.7947,-0.5741,-3.5363,3.670
1.490000,-0.7623,-0.6215,-3.5395,3.674
1.496000,-0.7315,-0.5600,-3.4562,3.577
1.500000,-0.7404,-0.5236,-3.2865,3.409
1.506000,-0.7863,-0.4643,-3.0927,3.225
1.511000,-0.8408,-0.4234,-2.8796,3.030
1.516000,-0.7895,-0.2986,-2.6276,2.760
1.521000,-0.6097,-0.2577,-2.3602,2.451
1.525000,-0.4499,-0.2156,-2.0530,2.113
1.530000,-0.3537,-0.2780,-1.8134,1.868
1.538000,-0.2151,-0.4213,-1.7097,1.774
1.541000,0.0044,-0.6701,-1.7045,1.832
1.547000,0.0531,-0.8927,-1.7999,2.010
1.556000,-0.1426,-1.0571,-1.9180,2.195
1.569000,-0.4503,-1.2505,-1.8789,2.301
1.570000,-0.7795,-1.3281,-1.9673,2.498
1.570000,-0.8024,-1.2889,-2.1249,2.612
1.571000,-0.5926,-1.1946,-2.1514,2.531
1.575000,-0.3411,-1.2127,-2.1314,2.476
1.580000,0.0450,-1.2019,-2.1147,2.433
1.585000,0.5337,-1.1624,-2.1275,2.482
1.591000,0.9569,-1.1646,-2.1430,2.620
1.595000,1.1965,-1.1724,-2.1008,2.687
1.599000,1.2495,-1.1360,-1.9957,2.614
1.605000,1.2177,-1.1056,-1.9227,2.530
1.610000,0.9906,-1.1740,-1.7286,2.312
1.614000,0.7007,-1.2214,-1.4402,2.014
1.623000,0.4356,-1.2665,-1.1757,1.782
1.625000,0.2179,-1.3045,-0.9119,1.606
1.630000,-0.0663,-1.3474,-0.6324,1.490
1.635000,-0.2283,-1.4453,-0.4902,1.543
1.640000,-0.1690,-1.5986,-0.3648,1.648
1.645000,0.0154,-1.7927,-0.3167,1.821
1.649000,0.1978,-1.8870,-0.2392,1.912
1.660000,0.3083,-1.8196,-0.1534,1.852
1.661000,0.3812,-1.7932,-0.0335,1.834
1.665000,0.4723,-1.8053,0.1942,1.876
1.669000,0.3652,-1.7797,0.4499,1.872
1.690000,0.4228,-1.7275,0.5606,1.865
1.691000,0.6231,-1.7430,0.7538,1.999
1.692000,0.8099,-1.7687,1.0084,2.191
1.694000,1.0086,-1.8263,1.1885,2.401
1.695000,1.0296,-1.8663,1.4238,2.563
1.699000,0.9240,-1.8091,1.6254,2.602
1.705000,0.9914,-1.7678,1.8577,2.749
1.709000,1.0816,-1.8088,2.0484,2.939
1.714000,1.3105,-1.8915,2.1517,3.150
1.722000,1.6422,-1.9370,2.2967,3.424
1.725000,1.9520,-1.9592,2.3831,3.651
1.730000,2.2980,-1.9586,2.3282,3.813
1.734000,2.6695,-1.9061,2.3074,4.010
1.739000,2.8263,-1.7998,2.4240,4.136
1.744000,2.8772,-1.8005,2.6274,4.292
1.749000,2.8209,-1.9076,2.8641,4.450
1.755000,2.7798,-1.9928,3.1436,4.646
1.760000,2.8933,-2.1273,3.3556,4.915
1.764000,3.0750,-2.2593,3.5407,5.205
1.770000,3.2046,-2.3535,3.6565,5.402
1.774000,3.1688,-2.4835,3.7895,5.529
1.779000,3.0342,-2.6736,3.8133,5.558
1.785000,2.8836,-2.9116,3.8026,5.590
1.791000,2.7289,-3.1075,3.8294,5.636
1.795000,2.6413,-3.2688,3.7909,5.660
1.798000,2.5874,-3.3413,3.7494,5.650
1.804000,2.4981,-3.3775,3.7456,5.628
1.823000,2.4314,-3.3486,3.8435,5.648
1.824000,2.3687,-3.3232,4.0575,5.755
1.824000,2.3222,-3.3621,4.3440,5.964
1.825000,2.3212,-3.3859,4.6479,6.201
1.829000,2.3157,-3.4553,4.9307,6.451
1.834000,2.3035,-3.4999,5.2259,6.698
1.838000,2.3211,-3.5574,5.4637,6.921
1.843000,2.3638,-3.5435,5.4934,6.951
1.848000,2.4319,-3.4480,5.4467,6.890
1.855000,2.5852,-3.2982,5.3499,6.796
1.858000,2.8547,-2.9920,5.1383,6.596
1.864000,3.1157,-2.6939,4.8839,6.389
1.867000,3.4180,-2.2778,4.5871,6.157
1.873000,3.6867,-1.8522,4.3172,5.972
1.878000,3.8404,-1.4140,3.9693,5.701
1.882000,3.9580,-0.9735,3.6031,5.440
1.892000,4.0035,-0.5815,3.2520,5.191
1.894000,4.0558,-0.1606,2.9138,4.997
1.900000,4.1620,0.2186,2.6363,4.932
1.919000,4.2048,0.5946,2.5773,4.968
1.921000,4.1288,0.8393,2.5331,4.916
1.923000,3.8696,0.9793,2.4677,4.693
1.924000,3.4633,1.0377,2.3952,4.337
1.924000,2.9960,1.0164,2.2796,3.899
1.927000,2.5042,0.9539,2.1325,3.425
1.933000,1.9958,0.8521,1.8243,2.835
1.938000,1.4643,0.6831,1.4460,2.168
1.943000,1.0321,0.4663,0.9948,1.507
1.947000,0.6642,0.2858,0.5733,0.923
1.953000,0.3946,0.1018,0.0644,0.413
1.958000,0.1446,-0.0129,-0.4531,0.476
1.962000,-0.0569,-0.0844,-0.9313,0.937
1.967000,-0.1907,-0.1023,-1.3772,1.394
1.973000,-0.2829,-0.1233,-1.7046,1.732
1.977000,-0.4073,-0.1611,-1.9544,2.003
1.983000,-0.5450,-0.1481,-2.1957,2.267
1.989000,-0.6453,-0.1198,-2.3185,2.410
1.993000,-0.8092,-0.0472,-2.3872,2.521
1.997000,-1.0085,0.0195,-2.3680,2.574
2.013000,-1.1861,0.0664,-2.2225,2.520
2.014000,-1.3191,0.0811,-2.0149,2.410
2.015000,-1.3981,0.1042,-1.7717,2.259
2.017000,-1.4694,0.1162,-1.5859,2.165
2.038000,-1.4859,0.1188,-1.3736,2.027
2.039000,-1.5026,0.1550,-1.1826,1.918
2.040000,-1.5446,0.1811,-1.0796,1.893
2.040000,-1.5707,0.2066,-1.0169,1.883
2.047000,-1.6177,0.2289,-0.9321,1.881
2.048000,-1.6073,0.2669,-0.8584,1.842
2.052000,-1.5515,0.3157,-0.8317,1.788
2.066000,-1.4846,0.3489,-0.8828,1.762
2.067000,-1.4308,0.3760,-0.8993,1.731
2.068000,-1.3802,0.4283,-0.8646,1.684
2.083000,-1.2608,0.5084,-0.8910,1.625
2.083000,-1.1563,0.5564,-0.9404,1.591
2.084000,-1.0448,0.6421,-1.0105,1.589
2.087000,-0.8951,0.7244,-1.1563,1.632
2.099000,-0.6951,0.7990,-1.2582,1.645
2.100000,-0.4950,0.8920,-1.3784,1.715
2.101000,-0.2632,0.9245,-1.5076,1.788
2.116000,-0.0782,0.9636,-1.6292,1.894
2.118000,0.1655,1.0068,-1.7936,2.063
2.118000,0.3488,1.0351,-1.9434,2.229
2.123000,0.5149,1.0606,-2.1338,2.438
2.126000,0.7096,1.0906,-2.2857,2.630
2.131000,0.9114,1.1611,-2.4232,2.837
2.136000,1.1585,1.2601,-2.5319,3.056
2.153000,1.4438,1.3423,-2.6239,3.282
2.156000,1.7504,1.4625,-2.6751,3.516
2.156000,2.0686,1.6185,-2.7908,3.832
2.157000,2.2812,1.7383,-2.8347,4.032
2.162000,2.3497,1.8508,-2.8951,4.163
2.167000,2.3198,1.8558,-3.0102,4.229
2.172000,2.2418,1.9257,-3.1178,4.296
2.175000,2.1448,1.9794,-3.2203,4.346
2.182000,2.0386,2.0388,-3.3081,4.388
2.186000,1.8997,2.0348,-3.3621,4.365
2.190000,1.7572,2.0253,-3.4015,4.331
2.195000,1.6067,2.0440,-3.3929,4.274
2.200000,1.5345,2.0597,-3.3174,4.195
2.207000,1.4761,2.1112,-3.2609,4.156
2.211000,1.4142,2.1789,-3.1278,4.066
2.216000,1.4061,2.2439,-2.9395,3.956
2.236000,1.3030,2.3128,-2.6817,3.773
2.237000,1.2147,2.3612,-2.4071,3.584
2.238000,1.1626,2.4132,-2.1491,3.434
2.238000,1.0863,2.4895,-1.8433,3.283
2.240000,1.0768,2.5759,-1.5924,3.214
2.246000,1.0332,2.6813,-1.3296,3.166
2.250000,0.9962,2.7719,-1.1721,3.170
2.255000,0.9057,2.8284,-0.9858,3.129
2.260000,0.7640,2.8123,-0.7733,3.015
2.266000,0.5783,2.7806,-0.5753,2.898
2.274000,0.3943,2.7385,-0.4732,2.807
2.275000,0.2600,2.6519,-0.3164,2.683
2.284000,0.1563,2.5929,-0.1839,2.604
2.291000,0.1191,2.5899,-0.0111,2.593
2.291000,0.0214,2.5804,0.0893,2.582
2.295000,-0.0937,2.5309,0.1008,2.535
2.302000,-0.2077,2.4750,0.1050,2.486
2.310000,-0.3705,2.4080,0.1306,2.440
2.311000,-0.4481,2.2942,0.1034,2.340
2.315000,-0.5172,2.2126,0.1144,2.275
2.331000,-0.6183,2.1206,0.1516,2.214
2.332000,-0.6746,1.9682,0.1554,2.086
2.332000,-0.6238,1.7847,0.2047,1.902
2.337000,-0.5781,1.6872,0.3209,1.812
2.339000,-0.5114,1.5898,0.4204,1.722
2.345000,-0.5125,1.5193,0.4413,1.663
2.350000,-0.4834,1.4923,0.6252,1.689
2.355000,-0.3353,1.4419,0.8573,1.711
2.359000,-0.0682,1.4015,1.1228,1.797
2.363000,0.2846,1.3519,1.3857,1.957
2.369000,0.6175,1.2211,1.6795,2.166
2.375000,0.9021,1.0758,2.0350,2.472
2.379000,1.1286,0.9993,2.3469,2.789
2.385000,1.2903,0.8407,2.6103,3.031
2.390000,1.3777,0.7100,2.8825,3.273
2.395000,1.4533,0.6001,3.0941,3.471
2.400000,1.4719,0.4680,3.2667,3.613
2.405000,1.5078,0.3115,3.4433,3.772
2.410000,1.5132,0.1239,3.5836,3.892
2.414000,1.4360,-0.0540,3.7256,3.993
2.419000,1.4271,-0.1643,3.8719,4.130
2.424000,1.4531,-0.2520,3.9796,4.244
2.429000,1.5088,-0.3363,4.1158,4.397
2.433000,1.5868,-0.3523,4.2927,4.590
2.444000,1.6626,-0.3579,4.4265,4.742
2.445000,1.6976,-0.4558,4.5941,4.919
2.453000,1.7780,-0.5145,4.7594,5.107
2.454000,1.8461,-0.5439,4.9918,5.350
2.469000,1.9475,-0.5588,5.1690,5.552
2.471000,2.0700,-0.5667,5.3436,5.759
2.471000,2.1921,-0.6274,5.4894,5.944
2.473000,2.3324,-0.6793,5.6229,6.125
2.478000,2.5149,-0.7488,5.6916,6.267
2.483000,2.6773,-0.7760,5.6359,6.288
2.488000,2.8147,-0.8208,5.4917,6.225
2.493000,2.8715,-0.8589,5.2835,6.074
2.498000,2.8909,-0.8518,5.0760,5.903
2.505000,2.8656,-0.7967,4.8935,5.726
2.508000,2.8342,-0.7437,4.6903,5.530
2.514000,2.7778,-0.6568,4.5048,5.333
2.519000,2.7374,-0.5504,4.2795,5.110
2.524000,2.7059,-0.3837,3.9809,4.829
2.529000,2.6856,-0.1137,3.6904,4.566
2.532000,2.6239,0.1854,3.4106,4.307
2.540000,2.5471,0.5367,3.0909,4.041
2.543000,2.4578,0.9162,2.7240,3.782
2.547000,2.2720,1.2421,2.4653,3.575
2.571000,2.0545,1.5259,2.2811,3.428
2.573000,1.8487,1.7982,2.0297,3.282
2.573000,1.6591,1.9868,1.8140,3.161
2.574000,1.4576,2.1559,1.6335,3.073
2.575000,1.2748,2.3171,1.4666,3.024
2.578000,1.0894,2.3960,1.2222,2.902
2.582000,0.9226,2.3756,1.0128,2.742
2.589000,0.7815,2.3058,0.7235,2.540
2.593000,0.6328,2.2132,0.5002,2.356
2.598000,0.4862,2.0786,0.2137,2.145
2.604000,0.4091,1.9839,-0.0929,2.028
2.608000,0.3103,1.8625,-0.4551,1.942
2.613000,0.2355,1.7365,-0.7149,1.893
2.617000,0.1589,1.6473,-0.9512,1.909
2.623000,0.0731,1.5258,-1.1470,1.910
2.627000,0.0049,1.3418,-1.2497,1.834
2.632000,-0.0495,1.2273,-1.2955,1.785
2.642000,-0.0730,1.1512,-1.3062,1.743
2.644000,-0.0721,1.1668,-1.3178,1.762
2.647000,-0.0948,1.1564,-1.3160,1.754
2.652000,-0.0856,1.1155,-1.2339,1.666
2.667000,-0.0613,1.1015,-1.1173,1.570
2.668000,0.0405,1.1043,-0.9089,1.431
2.668000,0.1839,1.0618,-0.6974,1.284
2.677000,0.3161,1.0764,-0.4591,1.212
2.678000,0.4609,1.1191,-0.2513,1.236
2.682000,0.5679,1.1419,-0.1170,1.281
2.688000,0.6408,1.1583,-0.0988,1.327
2.691000,0.5972,1.0610,-0.0862,1.221
2.696000,0.5591,0.9572,-0.1101,1.114
2.701000,0.5328,0.8566,-0.1223,1.016
2.707000,0.4199,0.8049,-0.1034,0.914
2.712000,0.3379,0.7298,-0.1972,0.828
2.716000,0.2053,0.6988,-0.3746,0.819
2.722000,0.0751,0.6924,-0.5998,0.919
2.727000,0.0092,0.7258,-0.8412,1.111
2.731000,-0.0688,0.7616,-1.0533,1.302
2.748000,-0.1776,0.8235,-1.3176,1.564
2.756000,-0.2985,0.8619,-1.5522,1.800
2.757000,-0.3935,0.9135,-1.7952,2.052
2.757000,-0.5247,0.9829,-1.8268,2.140
2.781000,-0.6296,1.0492,-1.8001,2.177
2.782000,-0.7340,1.1002,-1.8423,2.268
2.783000,-0.7663,1.1717,-1.9126,2.370
2.783000,-0.8392,1.2254,-1.9297,2.435
2.783000,-0.8932,1.2585,-1.9294,2.471
2.783000,-0.8810,1.2947,-1.9308,2.486
2.790000,-0.8888,1.2521,-1.9077,2.449
2.791000,-0.8498,1.2168,-1.8722,2.389
2.797000,-0.8117,1.2291,-1.8003,2.326
2.800000,-0.7981,1.2288,-1.7188,2.259
2.806000,-0.7733,1.2136,-1.7734,2.284
2.811000,-0.8163,1.1159,-1.8587,2.317
2.815000,-0.8698,0.9961,-1.9914,2.390
2.821000,-0.8048,0.8667,-2.1759,2.477
2.826000,-0.7671,0.7875,-2.3837,2.625
2.830000,-0.6247,0.6633,-2.5405,2.699
2.836000,-0.4233,0.5831,-2.5675,2.667
2.842000,-0.2390,0.5322,-2.6037,2.668
2.846000,-0.0596,0.4824,-2.5845,2.630
2.851000,0.1534,0.4476,-2.5079,2.552
2.862000,0.3406,0.4447,-2.3715,2.437
2.864000,0.4876,0.4202,-2.2929,2.382
2.866000,0.6276,0.3004,-2.2526,2.358
2.905000,0.7005,0.1881,-2.2218,2.337
2.906000,0.7926,0.0016,-2.1598,2.301
2.906000,0.8806,-0.1634,-1.9524,2.148
2.907000,1.0007,-0.3161,-1.8244,2.105
2.907000,1.0814,-0.5023,-1.7567,2.123
2.907000,1.1560,-0.6879,-1.6918,2.161
2.908000,1.2792,-0.8728,-1.7037,2.302
2.908000,1.3289,-1.0828,-1.6773,2.398
2.910000,1.4293,-1.2527,-1.6029,2.486
2.915000,1.4728,-1.4065,-1.5548,2.562
2.921000,1.4665,-1.5171,-1.4396,2.554
2.925000,1.4132,-1.6326,-1.2382,2.489
2.930000,1.3413,-1.6905,-1.0465,2.398
2.934000,1.2747,-1.7361,-0.9049,2.336
2.940000,1.2229,-1.7575,-0.6413,2.235
2.945000,1.2259,-1.7549,-0.3871,2.175
2.950000,1.2746,-1.7238,0.0153,2.144
2.960000,1.3382,-1.6312,0.4579,2.159
2.974000,1.3736,-1.5782,0.8091,2.243
2.975000,1.2880,-1.4984,1.0544,2.240
2.976000,1.1620,-1.3827,1.2803,2.214
2.976000,1.0332,-1.3822,1.3960,2.220
2.989000,0.8923,-1.4278,1.4687,2.234
2.990000,0.6768,-1.4551,1.5366,2.222
2.991000,0.5540,-1.5506,1.6811,2.353
2.994000,0.5310,-1.6713,1.7109,2.450
2.999000,0.5260,-1.7860,1.6451,2.485
3.006000,0.5245,-1.9255,1.6062,2.562
3.009000,0.5816,-2.1019,1.5293,2.664
3.014000,0.6900,-2.2336,1.4744,2.764
3.021000,0.8707,-2.3921,1.3914,2.901
3.025000,1.0493,-2.5627,1.3235,3.069
3.030000,1.2763,-2.7764,1.2730,3.310
3.034000,1.5037,-2.9681,1.1944,3.535
3.039000,1.7200,-3.1257,1.1787,3.757
3.044000,1.9060,-3.2991,1.1325,3.975
3.049000,2.0909,-3.5165,1.1466,4.249
3.056000,2.2172,-3.7372,1.1970,4.507
3.060000,2.3161,-3.9560,1.2479,4.751
3.065000,2.3952,-4.1343,1.2776,4.946
3.069000,2.4763,-4.2432,1.2789,5.077
3.075000,2.5025,-4.2276,1.2542,5.070
3.080000,2.4524,-4.1855,1.2679,5.014
3.083000,2.3812,-4.1745,1.2913,4.976
3.094000,2.2293,-4.1469,1.3076,4.886
3.095000,2.0497,-4.2466,1.3956,4.918
3.100000,1.8666,-4.3590,1.5836,4.999
3.127000,1.7215,-4.5032,1.7590,5.132
3.129000,1.5406,-4.7180,1.8689,5.303
3.130000,1.3766,-4.9723,1.8967,5.497
3.130000,1.2412,-5.1274,1.8353,5.586
3.130000,1.0998,-5.2669,1.7068,5.645
3.131000,0.9543,-5.3403,1.5379,5.639
3.134000,0.8470,-5.3906,1.3552,5.623
3.138000,0.7154,-5.3938,1.2137,5.575
3.143000,0.6119,-5.3661,1.0419,5.500
3.148000,0.4668,-5.2935,0.8303,5.378
3.154000,0.3372,-5.1709,0.5338,5.209
3.158000,0.2586,-4.9745,0.2960,4.990
3.163000,0.2401,-4.6855,0.1193,4.693
3.168000,0.2198,-4.3356,-0.0179,4.341
3.173000,0.1975,-3.9805,-0.1086,3.987
3.179000,0.1155,-3.7015,-0.2269,3.710
3.184000,0.0001,-3.4752,-0.3631,3.494
3.195000,-0.1631,-3.2302,-0.4744,3.269
3.197000,-0.3183,-3.0526,-0.5488,3.118
3.200000,-0.3719,-2.9234,-0.6657,3.021
3.204000,-0.3574,-2.7302,-0.7891,2.864
3.235000,-0.3824,-2.5643,-0.8713,2.735
3.237000,-0.3578,-2.4353,-0.9531,2.639
3.238000,-0.2810,-2.3405,-0.9845,2.555
3.238000,-0.2094,-2.2419,-1.0229,2.473
3.239000,-0.2027,-2.1754,-1.0708,2.433
3.239000,-0.2631,-2.1454,-1.1186,2.434
3.239000,-0.3231,-2.0826,-1.2095,2.430
3.243000,-0.4300,-2.0058,-1.2767,2.416
3.247000,-0.5258,-1.9386,-1.3226,2.405
3.256000,-0.6837,-1.8501,-1.2737,2.348
3.258000,-0.8694,-1.7259,-1.2618,2.308
3.263000,-1.0489,-1.6328,-1.3109,2.342
3.267000,-1.2315,-1.6016,-1.3064,2.406
3.273000,-1.4603,-1.5775,-1.2314,2.477
3.277000,-1.7117,-1.6251,-1.1123,2.609
3.283000,-1.8069,-1.6126,-0.9489,2.601
3.295000,-1.8872,-1.6025,-0.9206,2.641
3.296000,-1.9798,-1.5564,-0.8523,2.659
3.298000,-1.9608,-1.4913,-0.9089,2.626
3.302000,-1.9794,-1.4218,-0.9752,2.625
3.332000,-1.9999,-1.3569,-1.0463,2.634
3.333000,-1.9704,-1.3304,-1.1673,2.649
3.333000,-1.9421,-1.2629,-1.2470,2.631
3.334000,-1.9080,-1.2072,-1.3091,2.610
3.334000,-1.8277,-1.1487,-1.3871,2.566
3.335000,-1.7566,-1.0250,-1.5048,2.530
3.341000,-1.6231,-0.9176,-1.6022,2.458
3.342000,-1.4822,-0.8163,-1.6506,2.364
3.347000,-1.3196,-0.6376,-1.7002,2.245
3.352000,-1.1210,-0.3982,-1.8013,2.159
3.357000,-0.9461,-0.1772,-1.9011,2.131
3.362000,-0.7827,0.0424,-1.9711,2.121
3.366000,-0.5564,0.2502,-1.9159,2.011
3.374000,-0.3094,0.5566,-1.7981,1.908
3.378000,0.0113,0.8672,-1.7162,1.923
3.382000,0.2671,1.1270,-1.7706,2.116
3.387000,0.4127,1.3066,-1.7821,2.248
3.392000,0.5176,1.4128,-1.8944,2.419
3.396000,0.5870,1.4912,-1.9591,2.531
3.401000,0.5971,1.5704,-2.0626,2.660
3.421000,0.5626,1.6172,-2.1905,2.780
3.423000,0.5366,1.6152,-2.3906,2.935
3.423000,0.5189,1.6581,-2.6316,3.153
3.424000,0.5096,1.7128,-2.8369,3.353
3.426000,0.5440,1.7630,-3.0134,3.533
3.431000,0.5694,1.8376,-3.1967,3.731
3.438000,0.5952,1.8604,-3.3270,3.858
3.441000,0.5682,1.8959,-3.3563,3.896
3.447000,0.5170,1.9255,-3.3898,3.933
3.452000,0.4513,1.9848,-3.4156,3.976
3.456000,0.3785,2.0668,-3.3643,3.967
3.462000,0.3372,2.1619,-3.2935,3.954
3.466000,0.3538,2.2843,-3.2178,3.962
3.472000,0.3536,2.3982,-3.1368,3.964
3.476000,0.3488,2.4868,-2.9838,3.900
3.481000,0.3441,2.5735,-2.7923,3.813
3.489000,0.3038,2.6179,-2.6271,3.721
3.491000,0.2927,2.6027,-2.3281,3.504
3.498000,0.2607,2.5931,-1.9719,3.268
3.501000,0.2367,2.6652,-1.7404,3.192
3.508000,0.2989,2.7349,-1.4829,3.125
3.511000,0.2965,2.7976,-1.1942,3.056
3.516000,0.3319,2.8172,-0.8435,2.959
3.527000,0.3192,2.8152,-0.4594,2.870
3.531000,0.2392,2.7532,-0.1427,2.767
3.531000,0.0970,2.7073,0.1809,2.715
3.535000,-0.0136,2.7309,0.4658,2.770
3.558000,-0.0754,2.7160,0.7669,2.823
3.560000,-0.0954,2.7660,1.1153,2.984
3.560000,-0.0979,2.8302,1.3962,3.157
3.561000,-0.1067,2.9062,1.7052,3.371
3.562000,-0.1794,2.9105,1.9923,3.532
3.565000,-0.2114,2.9073,2.3436,3.740
3.571000,-0.1788,2.9226,2.7422,4.012
3.575000,-0.2415,2.9108,3.0420,4.217
3.580000,-0.2829,2.8832,3.3314,4.415
3.585000,-0.3559,2.8181,3.6464,4.622
3.591000,-0.3910,2.7366,3.9101,4.789
3.596000,-0.3590,2.5952,4.1199,4.882
3.600000,-0.3243,2.5114,4.3354,5.021
3.615000,-0.2533,2.4825,4.4251,5.080
3.617000,-0.1277,2.3866,4.3774,4.987
3.617000,0.0068,2.3005,4.2573,4.839
3.645000,0.0951,2.2317,4.2396,4.792
3.646000,0.2020,2.0994,4.1783,4.680
3.646000,0.3798,2.0042,4.1743,4.646
3.647000,0.5519,1.8870,4.1224,4.567
3.647000,0.8139,1.7958,4.1424,4.588
3.648000,1.0750,1.7476,4.2725,4.740
3.651000,1.3138,1.8048,4.4720,4.998
3.656000,1.6021,1.9291,4.6022,5.241
3.660000,1.8535,2.0677,4.7780,5.526
3.664000,2.1183,2.3088,5.0134,5.912
3.672000,2.3656,2.4986,5.2676,6.292
3.674000,2.5789,2.6536,5.6119,6.722
3.680000,2.7599,2.6891,5.8308,6.989
3.684000,2.9063,2.7101,5.9888,7.187
3.691000,3.0106,2.6994,6.0428,7.271
3.695000,3.1182,2.6904,5.9812,7.262
3.699000,3.2265,2.6782,5.8541,7.201
3.711000,3.3164,2.6319,5.6833,7.087
3.713000,3.4119,2.5400,5.4117,6.883
3.715000,3.4769,2.3957,5.0946,6.617
3.719000,3.5663,2.2237,4.8448,6.414
3.742000,3.6205,2.0461,4.5693,6.178
3.744000,3.6591,1.9185,4.3445,5.995
3.745000,3.7039,1.8221,4.1923,5.883
3.745000,3.7427,1.7882,3.9236,5.710
3.746000,3.7377,1.8647,3.6342,5.537
3.749000,3.7674,1.9919,3.3914,5.446
3.755000,3.7481,2.2080,3.0851,5.333
3.759000,3.6468,2.4556,2.7895,5.207
3.763000,3.4754,2.6985,2.5186,5.070
3.768000,3.2679,2.9867,2.3393,5.007
3.774000,3.0485,3.1949,2.2558,4.959
3.779000,2.8867,3.3421,2.1410,4.908
3.783000,2.6891,3.4779,2.0831,4.865
3.788000,2.5275,3.5585,2.0508,4.823
3.793000,2.3945,3.5692,2.0534,4.763
3.798000,2.3232,3.5267,1.9858,4.667
3.806000,2.2911,3.4208,1.8100,4.497
3.809000,2.2122,3.2925,1.7103,4.320
3.813000,2.1485,3.1583,1.5886,4.137
3.818000,2.1165,2.9969,1.4166,3.933
3.828000,2.1018,2.8254,1.2326,3.731
3.830000,2.1187,2.6940,1.1302,3.609
3.834000,2.1369,2.5698,1.0253,3.496
3.864000,2.1870,2.4307,0.8560,3.380
3.866000,2.1451,2.2798,0.6845,3.204
3.866000,2.1100,2.1105,0.5085,3.027
3.867000,1.9932,1.9080,0.4020,2.788
3.867000,1.7792,1.6662,0.2954,2.455
3.867000,1.4992,1.4065,0.1814,2.064
3.870000,1.2453,1.1176,0.1938,1.684
3.874000,0.9824,0.7975,0.2461,1.289
3.878000,0.7037,0.5321,0.2469,0.916
3.883000,0.4600,0.3124,0.2801,0.623
3.888000,0.2943,0.1410,0.2642,0.420
3.894000,0.0748,-0.0041,0.2878,0.297
3.897000,-0.1410,-0.1080,0.2506,0.307
3.902000,-0.3078,-0.1860,0.1978,0.410
3.908000,-0.4280,-0.3235,0.1224,0.550
3.912000,-0.5856,-0.3527,0.0486,0.685
3.917000,-0.6728,-0.4465,-0.0716,0.811
3.927000,-0.7498,-0.5327,-0.2165,0.945
3.928000,-0.7981,-0.5535,-0.3856,1.045
3.932000,-0.7940,-0.5481,-0.6005,1.136
3.959000,-0.7695,-0.5420,-0.7650,1.213
3.960000,-0.7083,-0.5141,-0.9603,1.299
3.960000,-0.7091,-0.4689,-1.0999,1.390
3.960000,-0.7171,-0.3856,-1.2509,1.493
3.960000,-0.7256,-0.3667,-1.4464,1.659
3.963000,-0.7495,-0.3474,-1.6287,1.826
3.968000,-0.8248,-0.3091,-1.7884,1.994
3.973000,-0.8630,-0.3039,-1.9396,2.145
3.978000,-0.9506,-0.3278,-2.0610,2.293
3.982000,-1.0515,-0.3757,-2.1835,2.452
3.988000,-1.1158,-0.3968,-2.2687,2.559
3.993000,-1.1766,-0.4182,-2.3027,2.619
3.997000,-1.2030,-0.4374,-2.2615,2.599
4.001000,-1.1801,-0.4592,-2.2195,2.555
4.007000,-1.1365,-0.5058,-2.1483,2.482
4.012000,-1.0237,-0.5599,-2.0983,2.401
4.016000,-0.9633,-0.6129,-2.1272,2.414
4.021000,-0.8882,-0.7002,-2.1847,2.460
4.027000,-0.7742,-0.8428,-2.2755,2.547
4.032000,-0.6572,-1.0291,-2.4547,2.742
4.047000,-0.5706,-1.2271,-2.6026,2.933
4.048000,-0.4473,-1.4224,-2.8459,3.213
4.049000,-0.2993,-1.5957,-3.1057,3.504
4.052000,-0.1671,-1.7389,-3.2456,3.686
4.080000,-0.0078,-1.8614,-3.4474,3.918
4.082000,0.0998,-1.9700,-3.5821,4.089
4.083000,0.1869,-2.1311,-3.6568,4.237
4.083000,0.2921,-2.3274,-3.6718,4.357
4.083000,0.3703,-2.4874,-3.5988,4.390
4.084000,0.4792,-2.6463,-3.5407,4.446
4.089000,0.5852,-2.7950,-3.3997,4.440
4.092000,0.7123,-2.8902,-3.1781,4.354
4.096000,0.8367,-2.9844,-2.8690,4.224
4.101000,0.8749,-3.0278,-2.5804,4.073
4.107000,0.8605,-3.1141,-2.3216,3.978
4.112000,0.8456,-3.1930,-2.0519,3.888
4.116000,0.7607,-3.2500,-1.8022,3.793
4.123000,0.6419,-3.3027,-1.5678,3.712
4.126000,0.5556,-3.3318,-1.4034,3.658
4.132000,0.4876,-3.4024,-1.2493,3.657
4.138000,0.4637,-3.4232,-1.0717,3.617
4.142000,0.5126,-3.3318,-0.9807,3.511
4.147000,0.5717,-3.2627,-0.9354,3.442
4.151000,0.6448,-3.1651,-0.9281,3.361
4.156000,0.7005,-3.1205,-0.8081,3.299
4.161000,0.7669,-3.0763,-0.6613,3.239
4.166000,0.8796,-3.0685,-0.4326,3.221
4.179000,0.9550,-3.0210,-0.0985,3.170
4.180000,1.0338,-2.9460,0.2263,3.130
4.181000,1.1449,-2.8396,0.5010,3.102
4.185000,1.1678,-2.8099,0.7355,3.131
4.210000,1.1717,-2.8547,0.9755,3.236
4.212000,1.1187,-2.9719,1.1681,3.384
4.212000,1.0445,-3.1616,1.3781,3.604
4.213000,1.0234,-3.4118,1.5480,3.884
4.213000,1.0482,-3.6338,1.5606,4.091
4.216000,1.1073,-3.8320,1.6337,4.310
4.221000,1.1502,-4.0567,1.7886,4.580
4.225000,1.1990,-4.2644,1.9318,4.833
4.230000,1.2396,-4.4887,2.0562,5.090
4.235000,1.2606,-4.6862,2.0394,5.264
4.240000,1.1955,-4.8616,1.9988,5.391
4.245000,1.2025,-5.0098,1.9294,5.502
4.249000,1.1762,-5.1493,1.7859,5.576
4.261000,1.1451,-5.2344,1.6522,5.607
4.263000,1.1831,-5.2692,1.5737,5.625
4.265000,1.2062,-5.3180,1.5458,5.668
4.290000,1.1877,-5.3401,1.4919,5.670
4.291000,1.1274,-5.3906,1.5797,5.729
4.292000,1.1185,-5.4722,1.7563,5.855
4.292000,1.0280,-5.5299,1.9830,5.964
4.293000,0.9662,-5.6222,2.2047,6.116
4.294000,0.9359,-5.7420,2.3639,6.280
4.300000,0.8244,-5.8613,2.3532,6.370
4.305000,0.6653,-6.0019,2.2730,6.452
4.314000,0.4944,-6.1517,2.0926,6.517
4.315000,0.3022,-6.2462,1.8479,6.521
4.319000,0.2060,-6.2633,1.4648,6.436
4.325000,0.1002,-6.1332,0.9939,6.214
4.329000,0.0250,-5.8602,0.5693,5.888
4.334000,-0.0180,-5.5178,0.0716,5.518
4.340000,-0.0528,-5.0869,-0.3075,5.096
4.344000,-0.0580,-4.7081,-0.5969,4.746
4.349000,-0.0075,-4.3168,-0.6891,4.371
4.355000,0.0342,-4.0066,-0.7037,4.068
4.360000,0.1008,-3.7041,-0.5981,3.753
4.365000,0.1662,-3.4022,-0.4369,3.434
4.369000,0.2020,-3.1500,-0.2060,3.163
4.375000,0.2132,-2.8928,-0.0610,2.901
4.379000,0.1953,-2.6843,-0.0092,2.691
4.384000,0.2035,-2.4837,0.0069,2.492
4.397000,0.1998,-2.2295,-0.0558,2.239
4.398000,0.2369,-1.9649,-0.1209,1.983
4.402000,0.2529,-1.6801,-0.1955,1.710
4.432000,0.2192,-1.4881,-0.2726,1.529
4.433000,0.1507,-1.3211,-0.4767,1.413
4.434000,0.0666,-1.1649,-0.6044,1.314
4.434000,-0.0305,-1.0197,-0.7157,1.246
4.435000,-0.1624,-0.9062,-0.7866,1.211
4.435000,-0.3334,-0.8440,-0.8220,1.224
4.435000,-0.5988,-0.8065,-0.8745,1.332
4.443000,-0.8439,-0.8773,-0.9297,1.532
4.444000,-1.0879,-0.9441,-0.9731,1.738
4.449000,-1.2780,-1.0208,-1.0551,1.946
4.453000,-1.5078,-1.1218,-1.1876,2.223
4.464000,-1.6838,-1.2034,-1.3655,2.479
4.464000,-1.8421,-1.2535,-1.5411,2.709
4.469000,-1.9019,-1.3270,-1.7689,2.917
4.474000,-1.9736,-1.3970,-2.0011,3.139
4.478000,-2.0217,-1.4275,-2.0700,3.226
4.483000,-2.0504,-1.4399,-2.3299,3.421
4.506000,-2.0169,-1.4163,-2.6273,3.602
4.507000,-1.8954,-1.3616,-2.8113,3.654
4.508000,-1.7338,-1.2200,-2.8628,3.562
4.508000,-1.5080,-1.0372,-2.8299,3.370
4.508000,-1.2828,-0.7920,-2.8297,3.206
4.514000,-0.9436,-0.4555,-2.6827,2.880
4.519000,-0.5022,-0.0433,-2.3584,2.412
4.522000,-0.0276,0.4130,-2.0722,2.113
4.528000,0.3631,0.8524,-1.8173,2.040
4.533000,0.6670,1.2062,-1.6655,2.162
4.539000,0.9341,1.4575,-1.5160,2.301
4.542000,1.0955,1.6003,-1.3790,2.380
4.547000,1.1640,1.7493,-1.2571,2.449
4.554000,1.1641,1.8705,-1.2774,2.547
4.557000,1.1319,1.9594,-1.3394,2.630
4.564000,1.1082,2.0137,-1.5171,2.754
4.568000,1.0189,2.0435,-1.7866,2.899
4.573000,0.9283,2.0348,-2.0709,3.048
4.577000,0.8797,1.9766,-2.3294,3.179
4.582000,0.8492,1.9222,-2.5595,3.312
4.591000,0.8225,1.8577,-2.7421,3.413
4.593000,0.7827,1.8005,-2.9656,3.557
4.597000,0.6938,1.6884,-3.1102,3.606
4.602000,0.6155,1.6107,-3.2165,3.650
4.623000,0.5378,1.5961,-3.3442,3.744
4.625000,0.4655,1.5995,-3.4356,3.818
4.625000,0.4028,1.6521,-3.4429,3.840
4.626000,0.3686,1.6651,-3.3874,3.793
4.627000,0.3248,1.7058,-3.3172,3.744
4.632000,0.3095,1.7687,-3.1415,3.618
4.638000,0.3372,1.8278,-3.0040,3.532
4.642000,0.3045,1.8371,-2.8063,3.368
4.647000,0.2233,1.8682,-2.6276,3.232
4.654000,0.1823,1.8734,-2.4438,3.085
4.657000,0.1673,1.9054,-2.2002,2.915
4.663000,0.1901,1.9663,-1.9612,2.784
4.668000,0.2102,2.0441,-1.7174,2.678
4.672000,0.3132,2.0908,-1.4090,2.541
4.677000,0.4513,2.1183,-1.1245,2.440
4.682000,0.5956,2.1408,-0.8998,2.397
4.687000,0.6694,2.1507,-0.5578,2.321
4.693000,0.7757,2.1983,-0.1898,2.339
4.697000,0.8765,2.2113,0.1516,2.383
4.701000,0.8808,2.2617,0.4089,2.461
4.707000,0.8272,2.2538,0.6660,2.491
4.712000,0.7323,2.2520,0.8845,2.528
4.716000,0.6184,2.2783,1.0524,2.585
4.729000,0.5694,2.3137,1.2941,2.711
4.730000,0.4779,2.2889,1.5377,2.799
4.732000,0.3727,2.3258,1.7472,2.933
4.771000,0.3138,2.3599,1.9585,3.083
4.773000,0.2580,2.3266,2.2219,3.227
4.773000,0.1766,2.2754,2.4844,3.374
4.774000,0.0693,2.2498,2.7367,3.543
4.774000,-0.0169,2.1942,2.8546,3.601
4.775000,-0.0294,2.1511,3.3308,3.965
4.775000,-0.0223,2.0585,3.5975,4.145
4.775000,-0.0107,1.9756,3.6935,4.189
4.777000,-0.0529,1.9001,3.7580,4.211
4.781000,-0.0986,1.8148,3.7934,4.206
4.786000,-0.0787,1.7369,3.7663,4.148
4.791000,-0.0409,1.6905,3.6935,4.062
4.797000,0.0196,1.5992,3.6182,3.956
4.801000,0.1317,1.5210,3.4712,3.792
4.811000,0.3406,1.4755,3.3604,3.686
4.813000,0.6249,1.4414,3.2880,3.644
4.816000,0.9316,1.4812,3.2329,3.676
4.841000,1.2393,1.6285,3.2379,3.830
4.842000,1.5025,1.7467,3.2313,3.969
4.843000,1.6642,1.8690,3.2415,4.095
4.843000,1.8461,2.0122,3.2424,4.239
4.843000,2.0174,2.1113,3.2792,4.391
4.846000,2.1066,2.1659,3.4234,4.566
4.850000,2.1335,2.1452,3.4068,4.556
4.856000,2.0407,2.0608,3.3994,4.468
4.860000,1.8336,1.8988,3.3484,4.264
4.866000,1.6895,1.8008,3.2588,4.089
4.874000,1.6251,1.7358,3.0947,3.903
4.876000,1.5591,1.6779,3.0382,3.805
4.881000,1.5245,1.5456,2.9911,3.696
4.885000,1.5432,1.4039,2.9917,3.647
4.890000,1.5620,1.1714,3.0377,3.611
4.895000,1.6214,0.9367,2.9831,3.522
4.900000,1.6923,0.7002,2.8476,3.386
4.906000,1.7578,0.4930,2.8082,3.349
4.910000,1.8607,0.3274,2.7765,3.358
4.915000,1.9386,0.1962,2.7240,3.349
4.920000,2.0323,0.0521,2.6029,3.303
4.926000,2.1058,-0.0021,2.4588,3.237
4.930000,2.1372,-0.0428,2.3088,3.146
4.935000,2.1290,0.0545,2.2006,3.062
4.946000,2.1057,0.1989,2.0886,2.972
4.947000,2.0982,0.3472,2.0279,2.939
4.950000,2.0351,0.5970,1.9512,2.882
4.981000,1.9095,0.8764,1.8680,2.811
4.982000,1.7525,1.1513,1.8666,2.807
4.983000,1.6908,1.4381,1.8082,2.863
4.984000,1.6073,1.7385,1.7929,2.970
4.984000,1.5287,1.9823,1.7487,3.054
4.985000,1.3779,2.1595,1.7281,3.090
4.985000,1.2510,2.3081,1.7142,3.135
4.992000,1.1887,2.3944,1.6423,3.137
4.994000,1.1761,2.4299,1.5795,3.128
4.999000,1.1464,2.4478,1.5088,3.096
5.005000,1.2187,2.3860,1.4877,3.065
5.010000,1.2423,2.3113,1.3992,2.974
5.014000,1.2290,2.1998,1.3150,2.842
5.020000,1.2479,2.0420,1.1133,2.639
5.025000,1.2944,1.8838,0.8494,2.438
5.029000,1.3274,1.7276,0.5810,2.255
5.034000,1.3351,1.5956,0.2866,2.100
5.040000,1.3444,1.4621,0.0190,1.986
5.044000,1.3671,1.2960,-0.1429,1.889
5.049000,1.3537,1.1771,-0.3524,1.828
5.079000,1.3099,1.0290,-0.5427,1.752
5.080000,1.2620,0.8589,-0.7307,1.692
5.081000,1.1697,0.6986,-0.8612,1.612
5.082000,1.0475,0.5623,-1.0062,1.558
5.082000,0.9605,0.4359,-1.1276,1.544
5.082000,0.7629,0.3079,-1.2636,1.508
5.084000,0.5100,0.1924,-1.3211,1.429
5.090000,0.3003,0.1281,-1.3816,1.420
5.093000,0.1025,0.0478,-1.4092,1.414
5.099000,-0.0498,-0.0218,-1.4255,1.426
5.103000,-0.1808,-0.0520,-1.3873,1.400
5.109000,-0.2931,-0.0552,-1.3210,1.354
5.113000,-0.4014,-0.1125,-1.2600,1.327
5.118000,-0.4748,-0.1646,-1.2306,1.329
5.124000,-0.5923,-0.1995,-1.0988,1.264
5.128000,-0.6436,-0.1959,-0.9606,1.173
5.133000,-0.6171,-0.1330,-0.9618,1.150
5.144000,-0.6494,-0.0371,-1.0305,1.219
5.145000,-0.6715,0.0078,-1.1305,1.315
5.148000,-0.6931,0.0325,-1.2571,1.436
5.199000,-0.7597,0.0327,-1.4530,1.640
5.200000,-0.8405,0.0178,-1.6200,1.825
5.200000,-0.8784,0.0239,-1.7987,2.002
5.201000,-0.9281,0.0517,-1.9914,2.198
5.201000,-0.9205,0.0912,-2.1527,2.343
5.202000,-0.9682,0.1073,-2.3325,2.528
5.203000,-0.9707,0.0946,-2.4138,2.603
5.203000,-0.9545,0.0464,-2.5017,2.678
5.204000,-0.9723,-0.0131,-2.6035,2.779
5.204000,-0.9498,-0.0673,-2.6665,2.831
5.205000,-0.9180,-0.1066,-2.6933,2.847
5.208000,-0.8577,-0.1141,-2.6408,2.779
5.213000,-0.8334,-0.1691,-2.5954,2.731
5.218000,-0.7660,-0.2070,-2.5548,2.675
5.223000,-0.7487,-0.2708,-2.5596,2.681
5.227000,-0.7094,-0.3171,-2.5739,2.689
5.233000,-0.6697,-0.3535,-2.6123,2.720
5.238000,-0.6798,-0.4419,-2.6387,2.760
5.244000,-0.6414,-0.4717,-2.6580,2.775
5.247000,-0.5186,-0.4815,-2.6583,2.751
5.252000,-0.4409,-0.5262,-2.6347,2.723
5.263000,-0.3698,-0.5503,-2.5802,2.664
5.266000,-0.3220,-0.5570,-2.5139,2.595
5.266000,-0.3426,-0.6105,-2.4337,2.532
5.305000,-0.3571,-0.6368,-2.3731,2.483
5.306000,-0.3607,-0.6478,-2.3585,2.472
5.306000,-0.3941,-0.6697,-2.3229,2.449
5.307000,-0.3736,-0.7076,-2.1658,2.309
5.307000,-0.2755,-0.6560,-2.0308,2.152
5.308000,-0.2262,-0.5393,-1.9228,2.010
5.308000,-0.1713,-0.4651,-1.7986,1.866
5.309000,-0.1158,-0.4479,-1.7034,1.765
5.312000,-0.1127,-0.4497,-1.6299,1.695
5.317000,-0.0974,-0.4993,-1.5566,1.638
5.322000,-0.1058,-0.5372,-1.5935,1.685
5.327000,-0.1786,-0.5894,-1.5896,1.705
5.332000,-0.2204,-0.6293,-1.5427,1.681
5.338000,-0.2884,-0.7047,-1.5722,1.747
5.342000,-0.2726,-0.7170,-1.5920,1.767
5.347000,-0.2592,-0.7093,-1.5662,1.739
5.352000,-0.2699,-0.7436,-1.4995,1.695
5.357000,-0.2928,-0.7766,-1.3992,1.627
5.362000,-0.3567,-0.8132,-1.3130,1.585
5.367000,-0.3730,-0.8772,-1.1884,1.523
5.377000,-0.3632,-0.9066,-1.0900,1.464
5.378000,-0.3152,-0.8706,-0.9725,1.343
5.382000,-0.2721,-0.8648,-0.8717,1.258
5.386000,-0.2287,-0.8416,-0.7807,1.171
5.419000,-0.1494,-0.8321,-0.6826,1.087
5.420000,-0.0198,-0.8123,-0.5248,0.967
5.421000,0.1318,-0.7682,-0.3626,0.860
5.422000,0.2141,-0.7333,-0.2653,0.809
5.422000,0.3038,-0.7151,-0.1179,0.786
5.422000,0.3981,-0.7474,-0.0162,0.847
5.422000,0.4896,-0.7440,0.0713,0.893
5.426000,0.5066,-0.8224,0.0845,0.970
5.431000,0.5115,-0.9012,0.1360,1.045
5.436000,0.5403,-0.9182,0.1588,1.077
5.441000,0.6428,-0.9520,0.1649,1.161
5.446000,0.7447,-0.9690,0.1235,1.228
5.451000,0.8363,-1.0002,0.1182,1.309
5.457000,0.9126,-1.0740,0.1469,1.417
5.461000,0.9569,-1.1283,0.1424,1.486
5.467000,0.9811,-1.1677,0.1670,1.534
5.478000,0.9757,-1.2018,0.1944,1.560
5.481000,1.0319,-1.2258,0.2174,1.617
5.482000,1.1038,-1.2112,0.2598,1.659
5.486000,1.1437,-1.2058,0.2763,1.685
5.516000,1.2808,-1.2003,0.3433,1.789
5.517000,1.3332,-1.1350,0.3962,1.795
5.518000,1.3777,-1.1272,0.4446,1.835
5.518000,1.4290,-1.1054,0.5073,1.876
5.518000,1.5039,-1.1461,0.5127,1.959
5.521000,1.5613,-1.1704,0.5158,2.018
5.522000,1.6087,-1.2142,0.5095,2.079
5.525000,1.6368,-1.3134,0.4674,2.150
5.531000,1.6596,-1.3793,0.3825,2.192
5.535000,1.6488,-1.4975,0.3407,2.253
5.541000,1.6667,-1.6437,0.3398,2.365
5.545000,1.7060,-1.7627,0.3628,2.480
5.550000,1.7427,-1.8926,0.4529,2.612
5.556000,1.7961,-2.0304,0.6339,2.784
5.560000,1.8333,-2.1545,0.8911,2.966
5.565000,1.8470,-2.2386,1.0667,3.092
5.571000,1.8421,-2.3306,1.2706,3.231
5.580000,1.7949,-2.4329,1.4934,3.372
5.582000,1.7010,-2.5047,1.6868,3.466
5.585000,1.6897,-2.6225,1.8917,3.648
