SensorId, TimeStamp (s), FrameNumber, AccX (g), AccY (g), AccZ (g), GyroX (deg/s), GyroY (deg/s), GyroZ (deg/s), MagX (uT), MagY (uT), MagZ (uT), EulerX (deg), EulerY (deg), EulerZ (deg), QuatW, QuatX, QuatY, QuatZ, LinAccX (g), LinAccY (g), LinAccZ (g), Pressure (kPa), Altitude (m), Temperature (degC), HeaveMotion (m)
4, -0.0000, 0, -0.31948462, -1.04289329, 0.20178699, -50.72355270, 36.68892670, 16.04342079, -66.41333008, -16.04793930, -29.93276787, 89.98611450, -15.67960072, 57.66677475, 0.56721896, -0.66010058, -0.25327918, -0.42235008, 0.04957911, 0.08000794, -0.20073417, 100.03400421, 108.02389526, 33.66999817, 0.00000000
3, 0.0000, 0, 0.23174223, -1.02946079, 0.25533003, 19.58445358, -16.01703644, -42.04937744, -49.07921600, -4.67699480, -58.69628525, 102.59151459, 17.01994705, -99.72354126, 0.31036687, -0.56826401, 0.53037834, 0.54721767, 0.06004227, 0.09590288, -0.04717088, 100.10300446, 102.22183228, 33.16999817, 0.00000000
2, 0.0000, 0, -0.02324901, -1.17626226, -0.04774353, 33.61805344, 33.48691940, 11.15881062, -21.13417053, 35.60362244, -58.49166870, 82.75716400, 0.56709272, -91.79234314, 0.51986474, -0.46271282, 0.47208291, 0.54108721, 0.03329635, 0.18438385, -0.07904673, 100.02200317, 109.03336334, 0.00000000, 0.00000000
1, -0.0000, 0, -0.16854846, -0.97671926, 0.21941844, 1.16862690, 24.35485458, -13.57409096, 2.95235300, 17.68488693, -133.49897766, 97.70680237, 0.58302325, -46.28781509, -0.60351998, 0.69373196, -0.29288948, -0.26213640, 0.17823711, -0.01458230, -0.08752669, 100.07000732, 104.99607849, 33.39999771, 0.00000000
5, -0.0000, 0, 0.19108669, -0.93912083, 0.28102171, 11.67430782, 16.80801201, 7.48377466, -19.05875397, 20.78339577, -120.28646088, 107.52667236, 3.16651511, -162.41291809, -0.06830966, 0.13939945, -0.79430008, -0.58735776, -0.13558462, -0.01306850, 0.01940258, 99.98500824, 112.14580536, 32.75999832, 0.00000000
2, 0.0050, 1, -0.02136177, -1.17631519, -0.04804984, 30.33225632, 33.03146744, 10.99709225, -21.13417053, 35.60362244, -58.49166870, 82.91046143, 0.53313661, -91.62160492, 0.52019131, -0.46395320, 0.47227076, 0.53954488, 0.03081535, 0.18408579, -0.07600987, 100.02200317, 109.03336334, 0.00000000, 0.00000000
3, 0.0350, 1, 0.35206512, -0.76440924, 0.38404113, 6.22904968, 6.76083946, -38.66583252, -48.43613052, -4.06313944, -58.19935608, 103.12519836, 18.44910622, -99.45549774, 0.30085340, -0.57581973, 0.52548623, 0.54934788, -0.03645739, -0.15980582, -0.16905898, 100.10300446, 102.22183228, 33.16999817, 0.00000000
3, 0.0400, 2, 0.40623221, -0.74043542, 0.42459494, 4.52658033, 7.23218679, -35.77561188, -48.20227814, -5.61239386, -57.52703857, 103.17326355, 18.61507034, -99.37545013, 0.30004761, -0.57687205, 0.52460027, 0.54953140, -0.08771013, -0.18258116, -0.20876294, 100.10300446, 102.22183228, 33.16999817, 0.00000000
4, 0.0050, 1, -0.32550746, -1.03977036, 0.20895961, -50.48772049, 37.81337738, 19.13001251, -66.50102234, -15.60947037, -30.13738632, 89.68035889, -15.77469444, 57.86349106, 0.56790036, -0.65836287, -0.25273266, -0.42446890, 0.05407034, 0.07732392, -0.21304688, 100.03400421, 108.02389526, 33.66999817, 0.00000000
4, 0.0100, 2, -0.32541010, -1.02530479, 0.20225726, -49.84820175, 37.13444901, 22.87298203, -66.50102234, -15.60947037, -30.13738632, 89.37819672, -15.88752937, 58.05746078, 0.56849676, -0.65668935, -0.25207150, -0.42665035, 0.05215386, 0.06340844, -0.21143796, 100.03400421, 108.02389526, 33.66999817, 0.00000000
2, 0.0350, 2, 0.00238099, -1.07006454, -0.04666235, 8.83022022, 27.13831520, 10.49253654, -21.77725792, 34.66822433, -58.52090073, 83.47418213, 0.31636584, -90.70050049, 0.52310365, -0.46930802, 0.47214949, 0.53215355, 0.00330165, 0.07657927, -0.06715600, 100.02200317, 109.03336334, 0.00000000, 0.00000000
2, 0.0400, 3, -0.00720821, -1.01219130, -0.04632197, 7.35261297, 26.68236351, 10.82629395, -21.77725792, 34.66822433, -58.52090073, 83.51166534, 0.27770814, -90.56181335, 0.52375370, -0.46987200, 0.47193250, 0.53120816, 0.01222831, 0.01862860, -0.06684963, 100.02200317, 109.03336334, 0.00000000, 0.00000000
2, 0.0450, 4, -0.01250874, -0.97450185, -0.04700421, 8.87774372, 26.68160820, 11.28563309, -21.77725792, 34.66822433, -58.52090073, 83.55667114, 0.23666163, -90.42290497, 0.52438229, -0.47046050, 0.47175950, 0.53022003, 0.01681837, -0.01914871, -0.06542369, 100.02200317, 109.03336334, 0.00000000, 0.00000000
1, 0.0050, 1, -0.14018889, -0.96949041, 0.22438851, 1.01443481, 25.17254257, -14.32378674, 2.95235300, 17.68488693, -133.49897766, 97.71311951, 0.63734335, -46.15356445, -0.60364699, 0.69422841, -0.29180324, -0.26174080, 0.15050992, -0.02177577, -0.09214391, 100.07000732, 104.99607849, 33.39999771, 0.00000000
5, 0.0050, 1, 0.20986563, -0.93622726, 0.27035910, 11.91734409, 14.37773800, 7.94621992, -18.38643646, 20.22800255, -120.31569672, 107.58936310, 3.10694885, -162.35629272, -0.06893910, 0.13952801, -0.79461062, -0.58683336, -0.15540716, -0.01568780, 0.03112358, 99.98500824, 112.14580536, 32.75999832, 0.00000000
5, 0.0100, 2, 0.22621363, -0.93174094, 0.25606972, 12.15695286, 12.36474419, 8.07804871, -18.38643646, 20.22800255, -120.31569672, 107.65265656, 3.04973936, -162.30952454, -0.06950061, 0.13960107, -0.79493362, -0.58631212, -0.17276433, -0.01989344, 0.04647807, 99.98500824, 112.14580536, 32.75999832, 0.00000000
5, 0.0150, 3, 0.23940139, -0.93078184, 0.25074941, 12.17567444, 10.94019032, 7.95639420, -18.38643646, 20.22800255, -120.31569672, 107.70520020, 3.04851437, -162.22879028, -0.06985793, 0.14018692, -0.79510498, -0.58589733, -0.18644783, -0.02057129, 0.05276825, 99.98500824, 112.14580536, 32.75999832, 0.00000000
3, 0.0450, 3, 0.45318186, -0.70056301, 0.43850297, 0.38132462, 5.19277859, -33.72756577, -48.20227814, -5.61239386, -57.52703857, 103.19673920, 18.77334404, -99.30814362, 0.29934782, -0.57777297, 0.52369183, 0.54983294, -0.13200651, -0.22146672, -0.22238496, 100.10300446, 102.22183228, 33.16999817, 0.00000000
3, 0.0500, 4, 0.47973797, -0.66555828, 0.45398724, -0.33289889, 2.16557169, -32.14760590, -47.58842468, -3.97544575, -57.41011429, 103.21121216, 18.92736626, -99.25820923, 0.29863414, -0.57855463, 0.52284455, 0.55020529, -0.15600137, -0.25556025, -0.23780480, 100.10300446, 102.22183228, 33.16999817, 0.00000000
3, 0.0550, 5, 0.49635804, -0.65013564, 0.44743592, -0.15020448, -0.49738017, -30.25842285, -47.58842468, -3.97544575, -57.41011429, 103.22153473, 19.07522583, -99.22418213, 0.29789987, -0.57923055, 0.52208310, 0.55061507, -0.17015140, -0.27011502, -0.23127019, 100.10300446, 102.22183228, 33.16999817, 0.00000000
4, 0.0400, 3, -0.06409825, -0.84429163, 0.20860630, -28.02922630, 28.38407326, 18.30100250, -66.64717865, -17.18795586, -30.40046692, 87.97618103, -16.58435822, 58.96802139, 0.57046032, -0.64931560, -0.24792345, -0.43760508, -0.22098026, -0.11364019, -0.24171478, 100.03400421, 108.02389526, 33.66999817, 0.00000000
4, 0.0450, 4, -0.03731003, -0.83961719, 0.22400391, -23.12215042, 27.18478012, 16.21936989, -66.91026306, -16.83718109, -30.63431740, 87.81912231, -16.66040802, 59.11287689, 0.57051086, -0.64839548, -0.24769871, -0.43902841, -0.24907845, -0.11782597, -0.25983113, 100.03400421, 108.02389526, 33.66999817, 0.00000000
2, 0.0500, 5, -0.01395315, -0.97652358, -0.05395810, 8.52500820, 26.23080635, 11.24243546, -21.66033363, 35.80824280, -58.43320465, 83.59980774, 0.19546847, -90.28628540, 0.52500689, -0.47103053, 0.47158691, 0.52924842, 0.01754481, -0.01721880, -0.05768016, 100.02200317, 109.03336334, 0.00000000, 0.00000000
2, 0.0550, 6, -0.01573046, -0.97396255, -0.06418199, 5.73493290, 24.73739433, 10.99808025, -21.66033363, 35.80824280, -58.43320465, 83.62887573, 0.15457425, -90.15724945, 0.52565163, -0.47150651, 0.47137839, 0.52836967, 0.01860654, -0.01984507, -0.04689522, 100.02200317, 109.03336334, 0.00000000, 0.00000000
2, 0.0600, 7, -0.01629568, -0.95353436, -0.07145649, 3.75389290, 24.35478783, 10.70466709, -22.21572685, 35.16515732, -57.70242691, 83.64794159, 0.11487193, -90.03029633, 0.52632177, -0.47193357, 0.47112623, 0.52754551, 0.01847362, -0.04031467, -0.03926522, 100.02200317, 109.03336334, 0.00000000, 0.00000000
5, 0.0200, 4, 0.24797010, -0.93132830, 0.24726553, 12.18405151, 10.34962368, 7.79625416, -18.76644325, 20.92955208, -120.52031708, 107.76808929, 2.99562216, -162.19132996, -0.07034176, 0.14021814, -0.79543239, -0.58538741, -0.19548070, -0.01974222, 0.05721713, 99.98500824, 112.14580536, 32.75999832, 0.00000000
5, 0.0250, 5, 0.26030675, -0.93306154, 0.24523775, 12.22191429, 10.28073978, 7.58585596, -18.76644325, 20.92955208, -120.52031708, 107.83113098, 2.94379473, -162.15393066, -0.07081753, 0.14025490, -0.79575908, -0.58487684, -0.20872578, -0.01771832, 0.06030589, 99.98500824, 112.14580536, 32.75999832, 0.00000000
3, 0.0600, 6, 0.51017493, -0.64880663, 0.42606294, -0.10674429, -0.77504438, -28.58431435, -47.58842468, -3.97544575, -57.41011429, 103.23104858, 19.21524429, -99.19355011, 0.29719794, -0.57986128, 0.52136773, 0.55100816, -0.18162563, -0.27061766, -0.20992823, 100.10300446, 102.22183228, 33.16999817, 0.00000000
3, 0.0650, 7, 0.52027726, -0.64284372, 0.41593230, -0.27815604, -1.29355824, -26.84082413, -47.76381302, -4.53083897, -57.17626190, 103.23820496, 19.34736633, -99.16766357, 0.29653007, -0.58043683, 0.52069837, 0.55139494, -0.18951768, -0.27580047, -0.19985203, 100.10300446, 102.22183228, 33.16999817, 0.00000000
3, 0.0700, 8, 0.51626945, -0.63484997, 0.41473794, 0.12344144, -1.99344933, -24.93086815, -47.76381302, -4.53083897, -57.17626190, 103.24546051, 19.47098732, -99.14768982, 0.29588163, -0.58095646, 0.52009541, 0.55176485, -0.18344103, -0.28305838, -0.19870709, 100.10300446, 102.22183228, 33.16999817, 0.00000000
4, 0.0500, 5, -0.05556240, -0.83399993, 0.22204795, -19.13178444, 25.21805573, 14.56219482, -66.91026306, -16.83718109, -30.63431740, 87.68482208, -16.72821617, 59.24740219, 0.57050002, -0.64759284, -0.24754775, -0.44031072, -0.23199573, -0.12300298, -0.26019913, 100.03400421, 108.02389526, 33.66999817, 0.00000000
4, 0.0550, 6, -0.07711864, -0.83373457, 0.22813147, -15.85227203, 23.42157936, 12.95829678, -66.85179901, -16.01870728, -30.48816109, 87.56951904, -16.78809738, 59.37239456, 0.57044548, -0.64688754, -0.24745981, -0.44146582, -0.21147089, -0.12287652, -0.26826769, 100.03400421, 108.02389526, 33.66999817, 0.00000000
4, 0.0600, 7, -0.08489392, -0.82725531, 0.22601360, -13.64252949, 22.34906387, 11.25099754, -66.85179901, -16.01870728, -30.48816109, 87.46682739, -16.83945656, 59.49156952, 0.57037216, -0.64623845, -0.24743557, -0.44252369, -0.20459595, -0.12900868, -0.26790091, 100.03400421, 108.02389526, 33.66999817, 0.00000000
1, 0.0100, 2, -0.11323853, -0.96925604, 0.22157070, 0.19135956, 25.55232811, -14.47951889, 3.65390229, 18.41566849, -132.97280884, 97.71548462, 0.69216639, -46.01730728, -0.60380089, 0.69470841, -0.29069239, -0.26134774, 0.12452376, -0.02198659, -0.08920008, 100.07000732, 104.99607849, 33.39999771, 0.00000000
1, 0.0400, 3, -0.03836529, -0.97747374, 0.18787217, -0.11338809, 21.46151161, -13.94220543, 4.06313944, 18.32797432, -133.14819336, 97.70500946, 1.02500868, -45.24476624, -0.60475826, 0.69731700, -0.28420836, -0.25931069, 0.05554792, -0.01365336, -0.05552317, 100.07000732, 104.99607849, 33.39999771, 0.00000000
1, 0.0450, 4, -0.03970647, -0.97568583, 0.19119228, -0.21849960, 21.47952461, -13.27444744, 4.06313944, 18.32797432, -133.14819336, 97.70587158, 1.07656801, -45.12950516, -0.60488111, 0.69771785, -0.28323421, -0.25901198, 0.05779451, -0.01542783, -0.05882851, 100.07000732, 104.99607849, 33.39999771, 0.00000000
1, 0.0500, 5, -0.04298424, -0.97417688, 0.19512074, -0.24976321, 21.28764915, -12.54252625, 4.09237051, 18.35720444, -133.03128052, 97.72272491, 1.10978580, -45.02042389, -0.60493940, 0.69814724, -0.28243098, -0.25859550, 0.06178755, -0.01690936, -0.06261237, 100.07000732, 104.99607849, 33.39999771, 0.00000000
2, 0.0650, 8, -0.01561313, -0.94661433, -0.07733205, 3.68044972, 23.14501762, 10.30379868, -22.21572685, 35.16515732, -57.70242691, 83.66654968, 0.07645375, -89.90959167, 0.52695864, -0.47233877, 0.47089133, 0.52675635, 0.01711243, -0.04727281, -0.03305894, 100.02200317, 109.03336334, 0.00000000, 0.00000000
2, 0.0700, 9, -0.01311084, -0.94612586, -0.08592942, 3.18144917, 22.28149414, 9.83651161, -22.21572685, 35.16515732, -57.70242691, 83.68256378, 0.03984563, -89.79344940, 0.52757663, -0.47272161, 0.47065455, 0.52600527, 0.01396441, -0.04779392, -0.02417412, 100.02200317, 109.03336334, 0.00000000, 0.00000000
2, 0.0750, 10, -0.00598932, -0.93890923, -0.09490404, 2.64671302, 21.38352776, 9.33376694, -21.92341423, 35.83747482, -58.52090073, 83.69738770, 0.00397517, -89.68196869, 0.52817416, -0.47308314, 0.47042772, 0.52528286, 0.00621726, -0.05503836, -0.01495074, 100.02200317, 109.03336334, 0.00000000, 0.00000000
5, 0.0450, 6, 0.21204807, -0.95723057, 0.26255399, 9.66521549, 9.00062275, 6.62412405, -17.74334908, 19.87722778, -120.22800446, 108.05125427, 2.74978232, -162.01782227, -0.07259761, 0.14036039, -0.79690278, -0.58307332, -0.16387811, 0.00748873, 0.04675166, 99.98500824, 112.14580536, 32.75999832, 0.00000000
5, 0.0500, 7, 0.19436236, -0.95703739, 0.25774419, 8.87234211, 9.61734581, 6.13383913, -17.74334908, 19.87722778, -120.22800446, 108.09733582, 2.70570683, -161.98158264, -0.07303374, 0.14041987, -0.79713547, -0.58268642, -0.14696631, 0.00751448, 0.05235235, 99.98500824, 112.14580536, 32.75999832, 0.00000000
3, 0.0750, 9, 0.51117676, -0.63158667, 0.41959769, 0.27409792, -2.58461761, -23.15674973, -47.55919266, -4.32622051, -57.84858322, 103.25177765, 19.58664703, -99.13288116, 0.29525840, -0.58142298, 0.51954812, 0.55212283, -0.17641406, -0.28562942, -0.20361504, 100.10300446, 102.22183228, 33.16999817, 0.00000000
2, 0.1050, 11, 0.02799425, -0.95873803, -0.13041526, 3.69107771, 16.22319794, 4.88091421, -22.21572685, 35.95439911, -58.43320465, 83.80616760, -0.14698759, -89.11496735, 0.53093213, -0.47522029, 0.46927541, 0.52159113, -0.03049709, -0.03541288, 0.02244519, 100.02200317, 109.03336334, 0.00000000, 0.00000000
2, 0.1100, 12, 0.03206848, -0.96902466, -0.13404644, 3.28974748, 15.81443024, 3.89935064, -22.53726959, 36.07132339, -58.22858810, 83.82240295, -0.15785106, -89.03425598, 0.53127635, -0.47557649, 0.46906468, 0.52110535, -0.03478143, -0.02515769, 0.02637079, 100.02200317, 109.03336334, 0.00000000, 0.00000000
4, 0.0650, 8, -0.09371797, -0.82581139, 0.22248642, -12.07203579, 21.30238152, 10.01158524, -66.85179901, -16.01870728, -30.48816109, 87.42501068, -16.85783386, 59.59085846, 0.57015502, -0.64585865, -0.24772616, -0.44319493, -0.19632709, -0.13023213, -0.26555240, 100.03400421, 108.02389526, 33.66999817, 0.00000000
4, 0.0700, 9, -0.09748300, -0.82098949, 0.22150944, -10.46650887, 20.32641411, 8.66801548, -66.91026306, -15.40485191, -30.89739799, 87.34125519, -16.89648628, 59.69902420, 0.57006240, -0.64529842, -0.24778502, -0.44409627, -0.19301471, -0.13487190, -0.26555777, 100.03400421, 108.02389526, 33.66999817, 0.00000000
4, 0.0750, 10, -0.09001981, -0.81360435, 0.22502972, -9.21755028, 19.66938782, 6.74464321, -66.91026306, -15.40485191, -30.89739799, 87.26481628, -16.92553139, 59.80335236, 0.56997836, -0.64476055, -0.24790560, -0.44491720, -0.20099552, -0.14203890, -0.27037346, 100.03400421, 108.02389526, 33.66999817, 0.00000000
5, 0.0550, 8, 0.18956272, -0.94960278, 0.25637168, 8.47545052, 10.13455582, 5.49850988, -18.59105492, 20.22800255, -120.08184814, 108.14156342, 2.66382027, -161.94192505, -0.07347409, 0.14051329, -0.79735219, -0.58231193, -0.14290905, 0.00028726, 0.05447136, 99.98500824, 112.14580536, 32.75999832, 0.00000000
5, 0.0600, 9, 0.18956313, -0.95499319, 0.27399933, 8.33707237, 10.13368320, 4.63461113, -18.59105492, 20.22800255, -120.08184814, 108.18513489, 2.62600827, -161.90095520, -0.07389327, 0.14063622, -0.79755974, -0.58194476, -0.14358659, 0.00588587, 0.03757949, 99.98500824, 112.14580536, 32.75999832, 0.00000000
5, 0.0650, 10, 0.18852852, -0.96501482, 0.28300774, 6.62165213, 10.35789871, 3.51416874, -18.59105492, 20.22800255, -120.08184814, 108.20910645, 2.65070701, -161.81387329, -0.07413313, 0.14138193, -0.79755044, -0.58174640, -0.14264004, 0.01607546, 0.02909518, 99.98500824, 112.14580536, 32.75999832, 0.00000000
3, 0.0800, 10, 0.50641727, -0.62402582, 0.41470081, 0.74566507, -3.86972618, -21.32435608, -47.55919266, -4.32622051, -57.84858322, 103.25750732, 19.69486237, -99.12692261, 0.29463789, -0.58182251, 0.51907474, 0.55247861, -0.16984424, -0.29254091, -0.19877550, 100.10300446, 102.22183228, 33.16999817, 0.00000000
1, 0.0550, 6, -0.04516108, -0.96996701, 0.19600098, -0.21796040, 21.79007912, -11.68970203, 4.09237051, 18.35720444, -133.03128052, 97.72377014, 1.15325499, -44.90465164, -0.60508257, 0.69853038, -0.28149611, -0.25824469, 0.06461231, -0.02108636, -0.06333455, 100.07000732, 104.99607849, 33.39999771, 0.00000000
1, 0.0600, 7, -0.03564530, -0.96308017, 0.18705480, -0.15719204, 22.78598976, -11.07085037, 4.67699480, 18.15258598, -132.47587585, 97.72531128, 1.19298935, -44.78435898, -0.60524231, 0.69891810, -0.28055426, -0.25784615, 0.05582734, -0.02794146, -0.05433547, 100.07000732, 104.99607849, 33.39999771, 0.00000000
1, 0.0650, 8, -0.01890569, -0.95987797, 0.19010033, 0.05127219, 23.36212540, -10.32367706, 4.67699480, 18.15258598, -132.47587585, 97.72803497, 1.22863209, -44.66170502, -0.60541034, 0.69930780, -0.27962190, -0.25740740, 0.03971898, -0.03112962, -0.05729253, 100.07000732, 104.99607849, 33.39999771, 0.00000000
2, 0.1150, 13, 0.03905614, -0.98054773, -0.13973981, 2.25343466, 15.26561069, 2.94740415, -22.53726959, 36.07132339, -58.22858810, 83.83345032, -0.16429195, -88.95678711, 0.53160888, -0.47591537, 0.46882308, 0.52067405, -0.04189965, -0.01365730, 0.03227758, 100.02200317, 109.03336334, 0.00000000, 0.00000000
2, 0.1200, 14, 0.04549640, -0.99171215, -0.14519033, 1.11323774, 14.88845158, 2.17136240, -22.85881233, 35.60362244, -58.34551239, 83.83880615, -0.16709229, -88.88161469, 0.53193957, -0.47623497, 0.46854806, 0.52029169, -0.04840476, -0.00250575, 0.03784875, 100.02200317, 109.03336334, 0.00000000, 0.00000000
2, 0.1250, 15, 0.05532908, -1.00458610, -0.14483780, 0.08176696, 14.12925911, 1.52921867, -22.85881233, 35.60362244, -58.34551239, 83.81803894, -0.13374381, -88.81245422, 0.53220397, -0.47657293, 0.46801174, 0.52019441, -0.05795712, 0.01038435, 0.03733925, 100.02200317, 109.03336334, 0.00000000, 0.00000000
4, 0.0800, 11, -0.09237002, -0.81095284, 0.22256146, -8.49861717, 18.69469452, 5.21074247, -66.88102722, -15.40485191, -31.45279121, 87.19351196, -16.94703865, 59.90226364, 0.56991386, -0.64424241, -0.24805884, -0.44566444, -0.19903508, -0.14451393, -0.26910496, 100.03400421, 108.02389526, 33.66999817, 0.00000000
4, 0.0850, 12, -0.10559107, -0.81759971, 0.20952949, -7.81537676, 17.71660614, 3.88694191, -66.88102722, -15.40485191, -31.45279121, 87.12716675, -16.96205330, 59.99576187, 0.56986606, -0.64374536, -0.24823806, -0.44634351, -0.18608968, -0.13772754, -0.25719595, 100.03400421, 108.02389526, 33.66999817, 0.00000000
5, 0.0700, 11, 0.19703555, -0.96211028, 0.26065588, 4.09869003, 12.06693268, 2.55817389, -18.38643646, 19.90645981, -120.28646088, 108.23205566, 2.61969304, -161.76049805, -0.07459269, 0.14161246, -0.79763103, -0.58152092, -0.15119706, 0.01328337, 0.05179605, 99.98500824, 112.14580536, 32.75999832, 0.00000000
5, 0.0750, 12, 0.21557045, -0.95416844, 0.22732729, 2.69383669, 13.23313713, 1.40077925, -18.38643646, 19.90645981, -120.28646088, 108.24828339, 2.59233046, -161.69979858, -0.07507213, 0.14190821, -0.79766482, -0.58134073, -0.17022677, 0.00541553, 0.08542168, 99.98500824, 112.14580536, 32.75999832, 0.00000000
5, 0.0800, 13, 0.22887795, -0.95643663, 0.21019965, 1.87146401, 13.67637825, 0.17781721, -18.03566170, 18.21105003, -120.46185303, 108.26055145, 2.57006669, -161.63507080, -0.07554105, 0.14225505, -0.79766852, -0.58119029, -0.18394658, 0.00773776, 0.10277262, 99.98500824, 112.14580536, 32.75999832, 0.00000000
3, 0.1250, 11, 0.32242486, -0.78358418, 0.23724383, -3.41553450, -21.27259636, -8.76091003, -46.82841110, -4.00467682, -56.35778809, 103.17556000, 20.54343224, -99.65618896, 0.28761339, -0.58201760, 0.51766348, 0.55727792, 0.02821890, -0.12822379, -0.02357336, 100.10300446, 102.22183228, 33.16999817, 0.00000000
3, 0.1300, 12, 0.33807790, -0.79921025, 0.22845352, -4.38576460, -8.87518978, -7.55571651, -46.44840622, -4.09237051, -56.18240356, 103.14065552, 20.59032059, -99.69315338, 0.28734052, -0.58191735, 0.51747620, 0.55769706, 0.01341398, -0.11243416, -0.01547942, 100.10300446, 102.22183228, 33.16999817, 0.00000000
3, 0.1350, 13, 0.38703197, -0.81252313, 0.26383704, -5.72595453, -1.01459229, -6.88936567, -46.44840622, -4.09237051, -56.18240356, 103.15529633, 20.66011047, -99.67354584, 0.28695911, -0.58227205, 0.51714247, 0.55783272, -0.03462902, -0.09881938, -0.05107661, 100.10300446, 102.22183228, 33.16999817, 0.00000000
3, 0.1400, 14, 0.46577075, -0.81648111, 0.30556172, -6.61133575, 2.64188290, -6.55709600, -45.89301300, -4.12160206, -55.77316666, 103.12990570, 20.68903732, -99.65183258, 0.28702703, -0.58240151, 0.51678187, 0.55799687, -0.11258876, -0.09459389, -0.09294761, 100.10300446, 102.22183228, 33.16999817, 0.00000000
1, 0.0700, 9, -0.00221895, -0.96036911, 0.20728749, 0.19133316, 23.72710228, -9.51056004, 4.67699480, 18.15258598, -132.47587585, 97.73155975, 1.25999701, -44.53776932, -0.60558695, 0.69969457, -0.27870581, -0.25693390, 0.02355661, -0.03064678, -0.07438309, 100.07000732, 104.99607849, 33.39999771, 0.00000000
1, 0.0750, 10, 0.02104345, -0.95407450, 0.21098019, 0.00933910, 24.23097038, -8.79518890, 4.35545158, 18.59105492, -132.56358337, 97.73429108, 1.28747475, -44.41181946, -0.60578239, 0.70007271, -0.27779594, -0.25642806, 0.00078147, -0.03692933, -0.07795614, 100.07000732, 104.99607849, 33.39999771, 0.00000000
4, 0.1300, 13, -0.10768545, -0.92652386, 0.09505837, -6.22883034, 5.24154234, 5.47471237, -67.08564758, -16.92487526, -30.22508049, 86.64894867, -17.05809402, 60.61754608, 0.56974673, -0.64024615, -0.24928614, -0.45092115, -0.18554765, -0.02789157, -0.15078494, 100.03400421, 108.02389526, 33.66999817, 0.00000000
4, 0.1350, 14, -0.10479853, -0.94820756, 0.08684526, -5.68546867, 3.82996988, 5.36746836, -67.02718353, -15.69716454, -31.13124847, 86.61418152, -17.08376694, 60.63918304, 0.56975830, -0.64008790, -0.24911954, -0.45122340, -0.18886355, -0.00604138, -0.14316228, 100.03400421, 108.02389526, 33.66999817, 0.00000000
5, 0.0850, 14, 0.23422314, -0.96736783, 0.20473471, 0.72287220, 14.39376926, -0.96340823, -18.03566170, 18.21105003, -120.46185303, 108.26728821, 2.55208707, -161.56515503, -0.07601309, 0.14265594, -0.79763323, -0.58107889, -0.18962201, 0.01870060, 0.10838084, 99.98500824, 112.14580536, 32.75999832, 0.00000000
5, 0.0900, 15, 0.26005059, -0.96824235, 0.18901971, -0.89113784, 15.07091618, -2.03338885, -18.03566170, 18.21105003, -120.46185303, 108.26614380, 2.53812289, -161.49032593, -0.07649159, 0.14310585, -0.79754776, -0.58102268, -0.21570864, 0.01956856, 0.12411263, 99.98500824, 112.14580536, 32.75999832, 0.00000000
3, 0.1450, 15, 0.52283418, -0.81073105, 0.30101347, -6.96780825, 3.43957424, -6.61376429, -45.89301300, -4.12160206, -55.77316666, 103.10423279, 20.71734238, -99.62590790, 0.28712058, -0.58254713, 0.51640105, 0.55814940, -0.16919208, -0.10026851, -0.08884125, 100.10300446, 102.22183228, 33.16999817, 0.00000000
3, 0.1500, 16, 0.55894035, -0.81055343, 0.27026308, -6.35954666, 3.57338929, -6.68865395, -45.89301300, -4.12160206, -55.77316666, 103.08190155, 20.74587440, -99.59918976, 0.28719980, -0.58270514, 0.51603127, 0.55828553, -0.20483592, -0.10036187, -0.05850037, 100.10300446, 102.22183228, 33.16999817, 0.00000000
3, 0.1550, 17, 0.57223707, -0.80306739, 0.25074637, -5.85678911, 4.57004642, -6.75223923, -46.30224991, -3.44928384, -56.32855988, 103.06394958, 20.77358818, -99.56721497, 0.28728712, -0.58289510, 0.51565963, 0.55838573, -0.21767373, -0.10774863, -0.03932481, 100.10300446, 102.22183228, 33.16999817, 0.00000000
4, 0.1400, 15, -0.10926654, -0.96365726, 0.07230242, -5.20915556, 1.93654478, 5.18306589, -67.02718353, -15.69716454, -31.13124847, 86.58467865, -17.10906029, 60.65090561, 0.56978065, -0.63997650, -0.24892032, -0.45146289, -0.18481889, 0.00956857, -0.12912337, 100.03400421, 108.02389526, 33.66999817, 0.00000000
4, 0.1450, 16, -0.12391356, -0.97621197, 0.05492124, -4.62649679, 0.04225902, 5.06616259, -67.11487579, -15.05407715, -30.98509216, 86.56101990, -17.13432884, 60.65271378, 0.56980956, -0.63991565, -0.24868876, -0.45164025, -0.17059360, 0.02227801, -0.11215356, 100.03400421, 108.02389526, 33.66999817, 0.00000000
4, 0.1500, 17, -0.13596268, -0.98231608, 0.04232452, -3.62066245, -1.54123342, 4.98074579, -67.11487579, -15.05407715, -30.98509216, 86.54482269, -17.15965271, 60.64622498, 0.56982917, -0.63991004, -0.24844001, -0.45176032, -0.15896615, 0.02853016, -0.09985124, 100.03400421, 108.02389526, 33.66999817, 0.00000000
2, 0.1300, 16, 0.06676604, -1.01139891, -0.14939398, -1.30288589, 13.81927490, 0.96161383, -22.85881233, 35.60362244, -58.34551239, 83.81137085, -0.13108344, -88.74324036, 0.53253502, -0.47683659, 0.46768117, 0.51991117, -0.06906669, 0.01722551, 0.04162670, 100.02200317, 109.03336334, 0.00000000, 0.00000000
2, 0.1350, 17, 0.07584158, -1.01776624, -0.15152541, -2.50597453, 13.47221279, 0.74201965, -22.42034531, 35.42823792, -57.87781143, 83.79868317, -0.12750611, -88.67587280, 0.53287888, -0.47706878, 0.46732667, 0.51966470, -0.07808287, 0.02361328, 0.04356720, 100.02200317, 109.03336334, 0.00000000, 0.00000000
2, 0.1400, 18, 0.08239850, -1.02271736, -0.14711809, -3.74311113, 12.98593903, 0.58972132, -22.42034531, 35.42823792, -57.87781143, 83.77982330, -0.12341993, -88.61100006, 0.53323489, -0.47726405, 0.46695206, 0.51945686, -0.08457027, 0.02859727, 0.03885711, 100.02200317, 109.03336334, 0.00000000, 0.00000000
1, 0.1150, 11, 0.12282950, -0.97693837, 0.12241354, 2.34910846, 12.94792747, 3.63003206, 5.90470600, 18.47413063, -132.09587097, 97.82973480, 1.31439257, -43.63927841, -0.60684514, 0.70249087, -0.27313602, -0.25227445, -0.10007356, -0.01368542, 0.01242598, 100.07000732, 104.99607849, 33.39999771, 0.00000000
1, 0.1200, 12, 0.11840581, -0.98087573, 0.11506062, 2.62758613, 10.92100048, 5.47099257, 5.90470600, 18.47413063, -132.09587097, 97.84407043, 1.27996302, -43.58884430, -0.60695434, 0.70261604, -0.27304259, -0.25176373, -0.09619841, -0.00971534, 0.02000559, 100.07000732, 104.99607849, 33.39999771, 0.00000000
1, 0.1250, 13, 0.10824683, -0.98281205, 0.10788773, 2.68986130, 9.13500118, 7.35549927, 5.40777540, 18.18181801, -131.24816895, 97.85851288, 1.23738527, -43.54853058, -0.60706079, 0.70270085, -0.27305490, -0.25125670, -0.08673022, -0.00774855, 0.02740196, 100.07000732, 104.99607849, 33.39999771, 0.00000000
1, 0.1300, 14, 0.09688569, -0.98678637, 0.10887917, 2.89260793, 7.49033880, 9.20653534, 5.40777540, 18.18181801, -131.24816895, 97.87373352, 1.18675685, -43.51763916, -0.60716140, 0.70275080, -0.27316967, -0.25074854, -0.07621924, -0.00375771, 0.02663877, 100.07000732, 104.99607849, 33.39999771, 0.00000000
1, 0.1350, 15, 0.08669320, -0.98872018, 0.10650539, 3.12191248, 6.54717350, 10.86364079, 5.05700064, 18.21105003, -131.30664063, 97.88997650, 1.12852991, -43.49255753, -0.60726172, 0.70277655, -0.27336273, -0.25022230, -0.06700489, -0.00180194, 0.02926179, 100.07000732, 104.99607849, 33.39999771, 0.00000000
5, 0.1150, 16, 0.28927785, -0.97839254, 0.15706187, -2.72907519, 12.51671982, -6.95678520, -17.39257431, 19.46799088, -120.05261230, 108.16638947, 2.63053489, -161.11213684, -0.07788972, 0.14613304, -0.79647309, -0.58155733, -0.24419177, 0.02936760, 0.15489632, 99.98500824, 112.14580536, 32.75999832, 0.00000000
5, 0.1200, 17, 0.27389818, -0.99423796, 0.15500681, -3.18037629, 11.81721306, -7.91316175, -17.45103836, 19.73107338, -120.05261230, 108.15364838, 2.64971328, -161.04359436, -0.07811987, 0.14669706, -0.79630160, -0.58161926, -0.22776051, 0.04504430, 0.15628502, 99.98500824, 112.14580536, 32.75999832, 0.00000000
2, 0.1450, 19, 0.08817780, -1.02975154, -0.14095299, -5.43699312, 12.73968697, 0.64741576, -22.82958221, 35.16515732, -57.64396286, 83.75249481, -0.11971969, -88.54731750, 0.53362226, -0.47741300, 0.46654576, 0.51928717, -0.09028326, 0.03567869, 0.03225766, 100.02200317, 109.03336334, 0.00000000, 0.00000000
2, 0.1500, 20, 0.09001821, -1.03399599, -0.14004603, -6.74144840, 12.52825642, 0.77704531, -22.82958221, 35.16515732, -57.64396286, 83.71866608, -0.11674513, -88.48462677, 0.53403521, -0.47752404, 0.46611741, 0.51914519, -0.09206882, 0.03998533, 0.03078208, 100.02200317, 109.03336334, 0.00000000, 0.00000000
4, 0.1550, 18, -0.14459957, -0.98677355, 0.03841472, -1.83798289, -2.67462468, 4.88686514, -67.11487579, -15.05407715, -30.98509216, 86.53930664, -17.18485069, 60.63380814, 0.56981313, -0.63997000, -0.24820083, -0.45182708, -0.15075077, 0.03312615, -0.09607563, 100.03400421, 108.02389526, 33.66999817, 0.00000000
4, 0.1600, 19, -0.14570305, -0.99451691, 0.03904366, 0.43825170, -3.38973689, 4.58062744, -66.79333496, -14.84945869, -31.42355919, 86.54630280, -17.20873833, 60.61754608, 0.56974727, -0.64009738, -0.24799731, -0.45184162, -0.15005481, 0.04099152, -0.09663194, 100.03400421, 108.02389526, 33.66999817, 0.00000000
4, 0.1650, 20, -0.14377514, -1.00134563, 0.04407952, 2.29101443, -4.26554680, 3.47787070, -66.79333496, -14.84945869, -31.42355919, 86.65227509, -17.09885597, 60.58421707, 0.56970441, -0.64043301, -0.24887381, -0.45093721, -0.15124655, 0.04753477, -0.10069375, 100.03400421, 108.02389526, 33.66999817, 0.00000000
3, 0.1600, 18, 0.57631660, -0.79885489, 0.25849724, -6.10773897, 4.19162798, -6.68408346, -46.30224991, -3.44928384, -56.32855988, 103.04402924, 20.80140305, -99.53730774, 0.28737390, -0.58307093, 0.51528829, 0.55850029, -0.22130042, -0.11186364, -0.04741640, 100.10300446, 102.22183228, 33.16999817, 0.00000000
2, 0.1550, 21, 0.08580539, -1.03374493, -0.14118731, -8.78417492, 11.37912083, 0.99342698, -22.82958221, 35.16515732, -57.64396286, 83.67463684, -0.11544056, -88.42752838, 0.53447211, -0.47755682, 0.46567389, 0.51906347, -0.08782485, 0.03981290, 0.03121129, 100.02200317, 109.03336334, 0.00000000, 0.00000000
4, 0.1700, 21, -0.14488265, -1.01228607, 0.04253131, 3.39520955, -4.65751266, 2.22553110, -66.50102234, -16.34025192, -30.83893585, 86.67620850, -17.11131477, 60.56056976, 0.56961632, -0.64063317, -0.24876265, -0.45082548, -0.14930026, 0.05815054, -0.09804577, 100.03400421, 108.02389526, 33.66999817, 0.00000000
4, 0.1750, 22, -0.13687484, -1.01687026, 0.03979433, 4.25413752, -5.42883348, 0.93663144, -66.50102234, -16.34025192, -30.83893585, 86.70574951, -17.11756134, 60.53248978, 0.56953788, -0.64085591, -0.24868521, -0.45065081, -0.15744245, 0.06274901, -0.09483859, 100.03400421, 108.02389526, 33.66999817, 0.00000000
1, 0.1400, 16, 0.07741750, -0.99365604, 0.09811600, 3.60256124, 5.33526039, 12.19567108, 5.05700064, 18.21105003, -131.30664063, 97.90851593, 1.06454825, -43.47439575, -0.60734689, 0.70278609, -0.27363387, -0.24969202, -0.05880067, 0.00316936, 0.03793082, 100.07000732, 104.99607849, 33.39999771, 0.00000000
1, 0.1450, 17, 0.04344810, -1.00272846, 0.07435735, 3.90361905, 4.32477951, 13.78015327, 5.05700064, 18.21105003, -131.30664063, 97.92840576, 0.99339342, -43.46233749, -0.60742795, 0.70277327, -0.27398348, -0.24914691, -0.02597670, 0.01230630, 0.06193431, 100.07000732, 104.99607849, 33.39999771, 0.00000000
1, 0.1500, 18, 0.01783192, -1.00723302, 0.08820274, 4.19702959, 3.81580186, 14.78079987, 5.20315695, 17.77258110, -131.80355835, 97.93614197, 0.91290385, -43.44516754, -0.60761750, 0.70268875, -0.27432498, -0.24854660, -0.00174366, 0.01679909, 0.04826140, 100.07000732, 104.99607849, 33.39999771, 0.00000000
2, 0.1950, 22, 0.07009448, -1.01206720, -0.15309113, -9.98246288, 0.41982177, 1.86715448, -22.30341911, 34.93130493, -57.73165512, 83.23132324, -0.11478142, -88.19821930, 0.53735417, -0.47641549, 0.46270689, 0.51978964, -0.07205696, 0.01901356, 0.03544522, 100.02200317, 109.03336334, 0.00000000, 0.00000000
2, 0.2000, 23, 0.06614084, -1.01722562, -0.14382187, -9.55327797, -1.17429066, 1.98450851, -22.30341911, 34.93130493, -57.73165512, 83.18357086, -0.12532386, -88.20287323, 0.53757393, -0.47612476, 0.46255893, 0.51996028, -0.06827931, 0.02427229, 0.02533596, 100.02200317, 109.03336334, 0.00000000, 0.00000000
2, 0.2050, 24, 0.06344317, -1.01865268, -0.13734116, -9.37165642, -2.38801479, 2.14111471, -22.30341911, 34.93130493, -57.73165512, 83.13673401, -0.13737236, -88.21346283, 0.53776896, -0.47580752, 0.46244678, 0.52014881, -0.06578448, 0.02579683, 0.01804353, 100.02200317, 109.03336334, 0.00000000, 0.00000000
2, 0.2100, 25, 0.05801086, -1.01636159, -0.12886091, -9.68263149, -4.26124620, 2.32027173, -21.86495209, 35.36977386, -58.11166382, 83.08838654, -0.15144259, -88.23323059, 0.53793651, -0.47543678, 0.46237519, 0.52037817, -0.06059065, 0.02360594, 0.00873748, 100.02200317, 109.03336334, 0.00000000, 0.00000000
5, 0.1250, 18, 0.25712147, -1.00543332, 0.14973697, -4.28308678, 11.63135052, -8.81113815, -17.45103836, 19.73107338, -120.05261230, 108.13544464, 2.67346859, -160.97454834, -0.07832778, 0.14728375, -0.79609668, -0.58172357, -0.21058600, 0.05616499, 0.16126783, 99.98500824, 112.14580536, 32.75999832, 0.00000000
5, 0.1300, 19, 0.24077147, -1.01086783, 0.14442940, -4.84743977, 11.27786732, -9.54636955, -17.83104324, 20.25723457, -119.96492004, 108.11441040, 2.70128942, -160.90602112, -0.07850837, 0.14788502, -0.79587364, -0.58185202, -0.19376941, 0.06150956, 0.16623038, 99.98500824, 112.14580536, 32.75999832, 0.00000000
5, 0.1350, 20, 0.21980281, -1.01909554, 0.14809440, -5.34255219, 11.06410789, -10.17320442, -17.83104324, 20.25723457, -119.96492004, 108.09094238, 2.73244929, -160.83755493, -0.07866877, 0.14850087, -0.79563421, -0.58200085, -0.17226866, 0.06963722, 0.16217881, 99.98500824, 112.14580536, 32.75999832, 0.00000000
3, 0.2000, 19, 0.51244736, -0.83600426, 0.22735371, -9.31023788, -2.36506343, -0.22517532, -46.65302658, -6.13855600, -57.23472595, 102.75173187, 21.03578949, -99.53240204, 0.28753486, -0.58312917, 0.51280463, 0.56063855, -0.15350732, -0.07428928, -0.02113107, 100.10300446, 102.22183228, 33.16999817, 0.00000000
3, 0.2050, 20, 0.49088681, -0.83973175, 0.22664802, -9.30745411, -3.56044793, 0.84431684, -46.21455765, -4.09237051, -56.65010071, 102.69815826, 21.03559875, -99.55200195, 0.28771260, -0.58290637, 0.51264304, 0.56092674, -0.13193639, -0.07074741, -0.02126502, 100.10300446, 102.22183228, 33.16999817, 0.00000000
4, 0.2150, 23, -0.13249117, -1.01751816, -0.02676164, 2.45287681, -10.10642147, -4.51946259, -67.11487579, -14.64484024, -30.63431740, 86.97640991, -16.95916367, 60.20256424, 0.56991637, -0.64254022, -0.24882762, -0.44768545, -0.15996978, 0.06258381, -0.02389817, 100.03400421, 108.02389526, 33.66999817, 0.00000000
4, 0.2200, 24, -0.12881158, -1.01407897, -0.03299595, 2.00278616, -11.44633484, -4.91815519, -67.02718353, -14.82022762, -29.87430573, 87.00422668, -16.93760681, 60.14146805, 0.57008052, -0.64276010, -0.24871995, -0.44722039, -0.16260967, 0.05879781, -0.01711945, 100.03400421, 108.02389526, 33.66999817, 0.00000000
1, 0.1550, 19, -0.00611715, -1.01794362, 0.10301317, 4.49357843, 3.03002071, 15.70470428, 5.20315695, 17.77258110, -131.80355835, 97.95886993, 0.83309925, -43.44088745, -0.60768503, 0.70265406, -0.27477410, -0.24798265, 0.02074850, 0.02750155, 0.03365093, 100.07000732, 104.99607849, 33.39999771, 0.00000000
1, 0.1600, 20, -0.02063888, -1.02740026, 0.09084605, 4.64996958, 2.03745675, 16.48525429, 5.32008171, 17.50950050, -131.54048157, 97.98232269, 0.75011653, -43.44208527, -0.60774392, 0.70260316, -0.27527499, -0.24742633, 0.03386555, 0.03701458, 0.04617281, 100.07000732, 104.99607849, 33.39999771, 0.00000000
3, 0.2100, 21, 0.47929788, -0.84209979, 0.22980694, -9.27103901, -4.95550251, 1.56154299, -46.21455765, -4.09237051, -56.65010071, 102.64186096, 21.03341484, -99.57973480, 0.28787574, -0.58263373, 0.51251805, 0.56124049, -0.12037677, -0.06859042, -0.02531045, 100.10300446, 102.22183228, 33.16999817, 0.00000000
3, 0.2150, 22, 0.47279012, -0.84392792, 0.22313307, -8.54955959, -6.58840227, 3.42209959, -46.36071396, -3.80005836, -56.56240845, 102.58531952, 21.02391243, -99.61817932, 0.28802949, -0.58228838, 0.51247835, 0.56155610, -0.11399400, -0.06701044, -0.01952403, 100.10300446, 102.22183228, 33.16999817, 0.00000000
3, 0.2200, 23, 0.46004605, -0.84439200, 0.21329010, -8.36374378, -6.58558369, 4.81833363, -46.36071396, -3.80005836, -56.56240845, 102.52914429, 21.00754929, -99.65821838, 0.28821278, -0.58191413, 0.51247859, 0.56184977, -0.10148257, -0.06683365, -0.01055870, 100.10300446, 102.22183228, 33.16999817, 0.00000000
5, 0.1400, 21, 0.19403423, -1.02520728, 0.16031553, -5.80784941, 11.40690708, -10.98740292, -17.68488693, 20.22800255, -119.55568695, 108.06532288, 2.76697683, -160.76620483, -0.07882336, 0.14915203, -0.79537618, -0.58216614, -0.14591324, 0.07564001, 0.14953396, 99.98500824, 112.14580536, 32.75999832, 0.00000000
5, 0.1450, 22, 0.17969182, -1.02924776, 0.17371120, -5.98492575, 11.50960159, -11.57043076, -17.68488693, 20.22800255, -119.55568695, 108.03894043, 2.80414724, -160.69348145, -0.07896782, 0.14982530, -0.79510903, -0.58233857, -0.13093336, 0.07956881, 0.13569525, 99.98500824, 112.14580536, 32.75999832, 0.00000000
5, 0.1500, 23, 0.16213025, -1.02662730, 0.19155130, -6.38962650, 12.51300907, -11.91107178, -17.68488693, 20.22800255, -119.55568695, 108.01082611, 2.84142208, -160.61546326, -0.07914102, 0.15053442, -0.79482538, -0.58251929, -0.11271957, 0.07682804, 0.11738262, 99.98500824, 112.14580536, 32.75999832, 0.00000000
2, 0.2150, 26, 0.05609415, -1.01498890, -0.12347293, -9.99488354, -5.30320692, 2.54659724, -21.86495209, 35.36977386, -58.11166382, 83.03847504, -0.16728531, -88.25800323, 0.53809464, -0.47503030, 0.46232545, 0.52062994, -0.05894208, 0.02233863, 0.00248776, 100.02200317, 109.03336334, 0.00000000, 0.00000000
2, 0.2200, 27, 0.05616255, -1.01627111, -0.12262504, -10.80081749, -6.03508902, 2.87947655, -21.74802589, 34.66822433, -57.81935120, 82.98455811, -0.18524703, -88.28620148, 0.53826213, -0.47458151, 0.46228144, 0.52090526, -0.05931618, 0.02373350, 0.00072717, 100.02200317, 109.03336334, 0.00000000, 0.00000000
2, 0.2250, 28, 0.05440623, -1.01316154, -0.12026399, -11.53637791, -6.87050772, 3.17638135, -21.74802589, 34.66822433, -57.81935120, 82.92922974, -0.18243980, -88.31950378, 0.53832847, -0.47420007, 0.46215454, 0.52129656, -0.05769981, 0.02074343, -0.00259815, 100.02200317, 109.03336334, 0.00000000, 0.00000000
4, 0.2250, 25, -0.12542520, -1.00938249, -0.03335793, 1.65978754, -12.89166451, -5.18147659, -67.02718353, -14.82022762, -29.87430573, 87.03253174, -16.91508675, 60.07276535, 0.57027489, -0.64299661, -0.24857692, -0.44671181, -0.16562322, 0.05396343, -0.01629093, 100.03400421, 108.02389526, 33.66999817, 0.00000000
4, 0.2300, 26, -0.12535778, -1.00643766, -0.03057403, 1.49466205, -14.40611362, -5.41498041, -67.02718353, -14.82022762, -29.87430573, 87.06229401, -16.89175606, 59.99611664, 0.57049465, -0.64325577, -0.24839945, -0.44615656, -0.16530462, 0.05087597, -0.01859197, 100.03400421, 108.02389526, 33.66999817, 0.00000000
4, 0.2350, 27, -0.12676418, -1.00576866, -0.02623549, 1.25924659, -15.98803711, -5.75290394, -67.67027283, -14.82022762, -30.42969894, 87.09326172, -16.86709976, 59.91115570, 0.57074445, -0.64353585, -0.24818739, -0.44555083, -0.16349262, 0.05005784, -0.02242545, 100.03400421, 108.02389526, 33.66999817, 0.00000000
1, 0.2100, 21, -0.17490925, -0.95999074, 0.18666400, 7.25905657, 1.51653397, 18.82317352, 4.53083897, 16.36948204, -132.30049133, 98.30712891, -0.22968456, -43.54167175, -0.60794616, 0.70202243, -0.28178602, -0.24116945, 0.17084301, -0.02984103, -0.04435126, 100.07000732, 104.99607849, 33.39999771, 0.00000000
1, 0.2150, 22, -0.16464825, -0.95416057, 0.18881099, 7.11303616, 1.79707420, 18.69151306, 4.53083897, 16.36948204, -132.30049133, 98.34296417, -0.32337198, -43.54614639, -0.60794550, 0.70200181, -0.28238466, -0.24053009, 0.15894017, -0.03557621, -0.04584087, 100.07000732, 104.99607849, 33.39999771, 0.00000000
5, 0.1550, 24, 0.14633098, -1.02243578, 0.20366211, -6.33268166, 13.83460522, -12.27812386, -17.27565002, 20.92955208, -119.64337921, 107.98339844, 2.87843657, -160.53059387, -0.07935032, 0.15128995, -0.79453570, -0.58269024, -0.09627236, 0.07251772, 0.10480115, 99.98500824, 112.14580536, 32.75999832, 0.00000000
5, 0.1600, 25, 0.13296349, -1.01302803, 0.21185663, -6.21160603, 15.67810917, -12.48810863, -17.27565002, 20.92955208, -119.64337921, 107.95708466, 2.91364598, -160.43664551, -0.07961731, 0.15209994, -0.79424071, -0.58284509, -0.08228407, 0.06299702, 0.09615764, 99.98500824, 112.14580536, 32.75999832, 0.00000000
4, 0.2400, 28, -0.12854585, -1.00525343, -0.02397334, 0.63181245, -17.36670876, -5.90420198, -67.67027283, -14.82022762, -30.42969894, 87.12314606, -16.84199905, 59.81898117, 0.57102937, -0.64382505, -0.24793287, -0.44490910, -0.16129357, 0.04939047, -0.02418331, 100.03400421, 108.02389526, 33.66999817, 0.00000000
4, 0.2450, 29, -0.13562152, -1.00404799, -0.01908399, -0.27943817, -18.74658203, -6.01452637, -66.76410675, -14.79099655, -29.90353584, 87.15052032, -16.81664276, 59.71959686, 0.57135659, -0.64411670, -0.24762921, -0.44423544, -0.15379456, 0.04803366, -0.02861316, 100.03400421, 108.02389526, 33.66999817, 0.00000000
4, 0.2500, 30, -0.14561646, -1.00357723, -0.02274710, -1.01192403, -20.29792213, -6.16672087, -66.76410675, -14.79099655, -29.90353584, 87.17653656, -16.79087067, 59.61212158, 0.57172364, -0.64441806, -0.24727680, -0.44352201, -0.14337094, 0.04741175, -0.02451588, 100.03400421, 108.02389526, 33.66999817, 0.00000000
3, 0.2250, 24, 0.44898093, -0.84415400, 0.20939380, -7.74928236, -6.13103628, 5.86571884, -46.36071396, -3.80005836, -56.56240845, 102.47647858, 20.98555183, -99.69706726, 0.28841624, -0.58153516, 0.51251453, 0.56210482, -0.09075329, -0.06738725, -0.00748918, 100.10300446, 102.22183228, 33.16999817, 0.00000000
3, 0.2300, 25, 0.44768450, -0.84484029, 0.21945281, -7.35231781, -6.74096918, 6.79804087, -47.23764801, -4.20929527, -56.24086380, 102.42428589, 20.95962524, -99.74015808, 0.28861877, -0.58112520, 0.51259148, 0.56235468, -0.08986532, -0.06703613, -0.01833881, 100.10300446, 102.22183228, 33.16999817, 0.00000000
3, 0.2350, 26, 0.45216122, -0.84344506, 0.22291400, -6.70883894, -9.52807903, 7.84187126, -47.23764801, -4.20929527, -56.24086380, 102.38163757, 20.96516609, -99.79608917, 0.28852853, -0.58078593, 0.51264125, 0.56270599, -0.09451855, -0.06866582, -0.02255099, 100.10300446, 102.22183228, 33.16999817, 0.00000000
1, 0.2200, 23, -0.15786622, -0.94454169, 0.18618479, 6.87194824, 1.13432360, 18.64373207, 4.53083897, 16.36948204, -132.30049133, 98.37760162, -0.41635159, -43.55392075, -0.60794318, 0.70196784, -0.28299674, -0.23991501, 0.15053743, -0.04509279, -0.04258100, 100.07000732, 104.99607849, 33.39999771, 0.00000000
1, 0.2250, 24, -0.15416241, -0.93124199, 0.19560860, 6.95029449, 0.51090032, 18.52271843, 4.23852682, 17.24641991, -132.44665527, 98.41268158, -0.50827539, -43.56474686, -0.60792899, 0.70193034, -0.28362224, -0.23932105, 0.14520080, -0.05830684, -0.05137343, 100.07000732, 104.99607849, 33.39999771, 0.00000000
1, 0.2300, 25, -0.15018833, -0.92424083, 0.21650936, 7.13302803, 0.09561186, 18.47544098, 4.23852682, 17.24641991, -132.44665527, 98.44868469, -0.59966242, -43.57765579, -0.60790330, 0.70189339, -0.28425908, -0.23873866, 0.13957885, -0.06523629, -0.07163778, 100.07000732, 104.99607849, 33.39999771, 0.00000000
2, 0.2300, 29, 0.04900152, -1.01091981, -0.11686632, -12.62394142, -7.81108093, 3.53955698, -22.15726280, 35.31131363, -57.99473953, 82.86623383, -0.20482935, -88.35607147, 0.53851253, -0.47365439, 0.46212399, 0.52162945, -0.05247632, 0.01863217, -0.00704163, 100.02200317, 109.03336334, 0.00000000, 0.00000000
2, 0.2350, 30, 0.04386156, -1.00720513, -0.11921839, -13.49990559, -8.37040806, 3.94421172, -22.15726280, 35.31131363, -57.99473953, 82.79888153, -0.22961287, -88.39514160, 0.53871232, -0.47306702, 0.46209478, 0.52198189, -0.04775863, 0.01506311, -0.00583761, 100.02200317, 109.03336334, 0.00000000, 0.00000000
3, 0.2400, 27, 0.46107191, -0.84534270, 0.23679668, -6.38629818, -11.79511929, 8.89528847, -46.71148682, -4.47237635, -55.77316666, 102.32400513, 20.93432617, -99.86797333, 0.28864488, -0.58021677, 0.51285827, 0.56303561, -0.10364518, -0.06702570, -0.03722217, 100.10300446, 102.22183228, 33.16999817, 0.00000000
3, 0.2450, 28, 0.46730790, -0.84503758, 0.23877916, -6.23923111, -12.61410141, 10.03757191, -46.71148682, -4.47237635, -55.77316666, 102.26517487, 20.89872360, -99.94538879, 0.28876710, -0.57960355, 0.51311785, 0.56336802, -0.11043979, -0.06774444, -0.04009841, 100.10300446, 102.22183228, 33.16999817, 0.00000000
5, 0.2100, 26, 0.06261800, -0.91223580, 0.30498773, -4.09571695, 12.54014587, -12.34263229, -17.59719276, 21.36802101, -119.73107147, 107.78192902, 3.33970857, -159.52308655, -0.08153789, 0.16043893, -0.79164213, -0.58387810, -0.00453264, -0.03836182, -0.00004484, 99.98500824, 112.14580536, 32.75999832, 0.00000000
5, 0.2150, 27, 0.06875776, -0.90812141, 0.31180483, -4.30208778, 11.66852283, -11.88872814, -17.27565002, 20.90032196, -119.84799957, 107.77295685, 3.38350058, -159.43315125, -0.08170384, 0.16127357, -0.79142123, -0.58392459, -0.00994982, -0.04250095, -0.00707726, 99.98500824, 112.14580536, 32.75999832, 0.00000000
4, 0.2550, 31, -0.15641418, -1.00115621, -0.02656826, -1.96376562, -21.02155113, -6.33398914, -66.76410675, -14.79099655, -29.90353584, 87.19883728, -16.76439476, 59.50084305, 0.57212800, -0.64470726, -0.24689238, -0.44279388, -0.13213313, 0.04483891, -0.02031171, 100.03400421, 108.02389526, 33.66999817, 0.00000000
4, 0.2600, 32, -0.16654369, -0.99522233, -0.03333153, -2.45881486, -21.23070908, -6.25737810, -67.20256805, -15.28792763, -30.57585526, 87.21891022, -16.73831177, 59.38852310, 0.57254648, -0.64498830, -0.24649075, -0.44206664, -0.12156760, 0.03875721, -0.01321104, 100.03400421, 108.02389526, 33.66999817, 0.00000000
2, 0.2550, 31, 0.03513632, -0.98045212, -0.14269678, -16.13168716, -9.59631157, 4.95629025, -22.30341911, 34.72668839, -58.52090073, 82.49500275, -0.34424716, -88.56731415, 0.53963739, -0.47041771, 0.46195433, 0.52354264, -0.04100735, -0.01101059, 0.01243898, 100.02200317, 109.03336334, 0.00000000, 0.00000000
2, 0.2600, 32, 0.03148048, -0.96561462, -0.14856932, -16.44269943, -9.84302998, 5.40310335, -22.30341911, 34.72668839, -58.52090073, 82.41307831, -0.37749034, -88.61254883, 0.53989971, -0.46969661, 0.46192119, 0.52394867, -0.03792059, -0.02565736, 0.01689412, 100.02200317, 109.03336334, 0.00000000, 0.00000000
5, 0.2200, 28, 0.07575011, -0.89206642, 0.30848789, -4.46613836, 10.27608299, -11.41967487, -17.27565002, 20.90032196, -119.84799957, 107.75457764, 3.42220235, -159.36668396, -0.08179914, 0.16191378, -0.79119015, -0.58404702, -0.01622590, -0.05859295, -0.00401537, 99.98500824, 112.14580536, 32.75999832, 0.00000000
5, 0.2250, 29, 0.08103918, -0.88120025, 0.30042094, -3.66704941, 9.31217957, -11.25355721, -17.27565002, 20.90032196, -119.84799957, 107.73993683, 3.46160030, -159.30508423, -0.08185974, 0.16252649, -0.79098386, -0.58414793, -0.02083163, -0.06950425, 0.00377621, 99.98500824, 112.14580536, 32.75999832, 0.00000000
5, 0.2300, 30, 0.08662935, -0.88424981, 0.29628128, -2.54903030, 8.59523201, -11.04619312, -17.80181122, 21.28032684, -119.52645111, 107.73071289, 3.50111437, -159.24720764, -0.08189290, 0.16311766, -0.79080969, -0.58421427, -0.02573294, -0.06647135, 0.00772670, 99.98500824, 112.14580536, 32.75999832, 0.00000000
1, 0.2350, 26, -0.15308702, -0.91893816, 0.23187120, 7.13229227, 0.10145034, 18.23022270, 3.71236467, 16.77871895, -132.62203979, 98.48472595, -0.68981975, -43.59040070, -0.60787451, 0.70185912, -0.28488797, -0.23816243, 0.14085844, -0.07045434, -0.08637713, 100.07000732, 104.99607849, 33.39999771, 0.00000000
1, 0.2400, 27, -0.16022019, -0.91970575, 0.22544043, 7.10321665, -0.51708454, 17.86532974, 3.71236467, 16.77871895, -132.62203979, 98.52066803, -0.77772999, -43.60601044, -0.60783482, 0.70182145, -0.28552169, -0.23761494, 0.14646232, -0.06956473, -0.07934843, 100.07000732, 104.99607849, 33.39999771, 0.00000000
1, 0.2450, 28, -0.17272797, -0.92400980, 0.22697586, 7.47004175, -1.51586688, 17.52138329, 3.71236467, 16.77871895, -132.41741943, 98.55854034, -0.86318105, -43.62636185, -0.60776746, 0.70178699, -0.28617501, -0.23710252, 0.15746559, -0.06514608, -0.08028141, 100.07000732, 104.99607849, 33.39999771, 0.00000000
3, 0.2750, 29, 0.43614757, -0.83952022, 0.21551627, -2.29159927, -18.61663628, 14.85295677, -47.26688004, -3.97544575, -55.59777832, 101.94797516, 20.60192299, -100.49030304, 0.28939080, -0.57536125, 0.51560748, 0.56512070, -0.08405560, -0.07612554, -0.02154703, 100.10300446, 102.22183228, 33.16999817, 0.00000000
3, 0.2800, 30, 0.42345005, -0.83981353, 0.21519504, -1.96811485, -18.59111977, 15.12941170, -47.06226349, -4.26775789, -56.00701523, 101.89812469, 20.54711533, -100.60414124, 0.28939486, -0.57453734, 0.51617324, 0.56544036, -0.07224841, -0.07632868, -0.02195742, 100.10300446, 102.22183228, 33.16999817, 0.00000000
4, 0.2850, 33, -0.21094531, -0.94612509, -0.03223781, -2.74213767, -21.34033775, -5.90430498, -66.70564270, -15.46331501, -30.45892906, 87.31320953, -16.58194733, 58.82377625, 0.57476860, -0.64630717, -0.24458832, -0.43829757, -0.07454338, -0.01119980, -0.01276437, 100.03400421, 108.02389526, 33.66999817, 0.00000000
4, 0.2900, 34, -0.21828248, -0.93366915, -0.03061648, -2.88652301, -21.03084946, -5.86065292, -66.70564270, -15.46331501, -30.45892906, 87.33042908, -16.55759048, 58.71274948, 0.57518631, -0.64657414, -0.24417083, -0.43758810, -0.06679904, -0.02379048, -0.01409967, 100.03400421, 108.02389526, 33.66999817, 0.00000000
4, 0.2950, 35, -0.21871087, -0.92730987, -0.02815406, -2.81679893, -20.85605049, -5.99855471, -66.70564270, -15.46331501, -30.45892906, 87.34770966, -16.53246689, 58.60262680, 0.57560223, -0.64683747, -0.24376273, -0.43687892, -0.06595509, -0.03028662, -0.01627861, 100.03400421, 108.02389526, 33.66999817, 0.00000000
5, 0.2350, 31, 0.09240075, -0.89271313, 0.29339975, -1.21562421, 7.67196369, -10.46747684, -17.80181122, 21.28032684, -119.52645111, 107.72785950, 3.53928328, -159.19464111, -0.08189943, 0.16367003, -0.79067665, -0.58423889, -0.03083288, -0.05799252, 0.01052138, 99.98500824, 112.14580536, 32.75999832, 0.00000000
5, 0.2400, 32, 0.09410087, -0.89381254, 0.27908355, 0.11457683, 6.92226648, -9.70937634, -17.12949371, 20.43262100, -119.96492004, 107.73139954, 3.57498407, -159.14678955, -0.08188991, 0.16418186, -0.79058546, -0.58422017, -0.03189951, -0.05684479, 0.02485990, 99.98500824, 112.14580536, 32.75999832, 0.00000000
5, 0.2450, 33, 0.09519441, -0.89699793, 0.28262079, 1.65381610, 6.73125076, -9.17452049, -17.12949371, 20.43262100, -119.96492004, 107.74256134, 3.60842443, -159.10067749, -0.08187638, 0.16467583, -0.79053771, -0.58414757, -0.03239929, -0.05357552, 0.02146277, 99.98500824, 112.14580536, 32.75999832, 0.00000000
2, 0.2650, 33, 0.02671791, -0.95770288, -0.14820239, -16.33164787, -10.39940643, 5.67348671, -22.30341911, 34.72668839, -58.52090073, 82.33174133, -0.41250947, -88.66031647, 0.54015440, -0.46895966, 0.46190894, 0.52435714, -0.03376408, -0.03337682, 0.01511894, 100.02200317, 109.03336334, 0.00000000, 0.00000000
2, 0.2700, 34, 0.02145674, -0.94982862, -0.14952862, -16.04622078, -11.05801773, 5.76934004, -22.24495697, 34.98976898, -58.60859299, 82.25189972, -0.44851083, -88.71123505, 0.54039162, -0.46821198, 0.46192026, 0.52477062, -0.02912629, -0.04105953, 0.01505990, 100.02200317, 109.03336334, 0.00000000, 0.00000000
2, 0.2750, 35, 0.01792113, -0.94151014, -0.14783335, -15.79364109, -11.96033192, 6.00047350, -22.24495697, 34.98976898, -58.60859299, 82.16864014, -0.47961476, -88.76678467, 0.54060131, -0.46745187, 0.46191126, 0.52524006, -0.02618309, -0.04918117, 0.01195683, 100.02200317, 109.03336334, 0.00000000, 0.00000000
1, 0.2500, 29, -0.18212558, -0.93024957, 0.23684566, 7.67556524, -0.91637820, 17.28769112, 4.03390837, 17.48026848, -132.41741943, 98.62884521, -1.00079858, -43.64877701, -0.60762298, 0.70180583, -0.28718176, -0.23619792, 0.16489592, -0.05875020, -0.08924985, 100.07000732, 104.99607849, 33.39999771, 0.00000000
1, 0.2550, 30, -0.18600422, -0.93511450, 0.23773403, 7.99426460, -0.90268511, 16.82828140, 4.03390837, 17.48026848, -132.41741943, 98.66934967, -1.08322191, -43.66572952, -0.60753894, 0.70179915, -0.28780234, -0.23567826, 0.16686045, -0.05370795, -0.08919896, 100.07000732, 104.99607849, 33.39999771, 0.00000000
4, 0.3000, 36, -0.21870391, -0.91842043, -0.02370588, -2.71265888, -20.54267693, -6.16956520, -67.55334473, -16.31101990, -30.04969215, 87.36499786, -16.50639153, 58.49411392, 0.57601464, -0.64709502, -0.24336907, -0.43617278, -0.06552903, -0.03931776, -0.02044432, 100.03400421, 108.02389526, 33.66999817, 0.00000000
4, 0.3050, 37, -0.21770042, -0.90879524, -0.01522105, -2.39739490, -20.02300453, -6.27154255, -67.55334473, -16.31101990, -30.04969215, 87.38304901, -16.47964859, 58.38830948, 0.57641411, -0.64734900, -0.24299717, -0.43547505, -0.06608701, -0.04908846, -0.02863757, 100.03400421, 108.02389526, 33.66999817, 0.00000000
4, 0.3100, 38, -0.21756466, -0.90242422, -0.00921993, -2.08209491, -19.50278091, -6.40841103, -66.38409424, -15.22946453, -29.69891739, 87.40186310, -16.45207977, 58.28520584, 0.57680124, -0.64759904, -0.24264799, -0.43478489, -0.06576478, -0.05560879, -0.03433679, 100.03400421, 108.02389526, 33.66999817, 0.00000000
3, 0.2850, 31, 0.41290534, -0.84029156, 0.21844020, -1.78780758, -18.42489243, 15.33915710, -47.06226349, -4.26775789, -56.00701523, 101.85905457, 20.50839424, -100.71417236, 0.28927043, -0.57381135, 0.51670140, 0.56575859, -0.06247281, -0.07628158, -0.02585065, 100.10300446, 102.22183228, 33.16999817, 0.00000000
3, 0.2900, 32, 0.40598705, -0.83808911, 0.21249767, -1.46449399, -18.39862633, 15.58066750, -47.26688004, -4.35545158, -55.56854630, 101.81214142, 20.45102310, -100.82733154, 0.28927678, -0.57298714, 0.51728725, 0.56605536, -0.05634581, -0.07891646, -0.02052974, 100.10300446, 102.22183228, 33.16999817, 0.00000000
3, 0.2950, 33, 0.38551053, -0.83263481, 0.20253320, -1.07137668, -18.71325684, 15.60767937, -47.26688004, -4.35545158, -55.56854630, 101.76673126, 20.39374352, -100.94208527, 0.28926656, -0.57215875, 0.51788688, 0.56635004, -0.03680596, -0.08486552, -0.01122732, 100.10300446, 102.22183228, 33.16999817, 0.00000000
2, 0.2800, 36, 0.01463802, -0.93725038, -0.14571206, -15.29462528, -13.17318439, 6.12385368, -22.50803757, 35.07746124, -58.19935608, 82.09269714, -0.51896328, -88.82782745, 0.54078788, -0.46666557, 0.46199614, 0.52567232, -0.02352280, -0.05324785, 0.00847423, 100.02200317, 109.03336334, 0.00000000, 0.00000000
2, 0.2850, 37, 0.01470361, -0.93147081, -0.14371967, -14.97597599, -14.45345592, 5.96720839, -22.50803757, 35.07746124, -58.19935608, 82.01844025, -0.55850673, -88.89528656, 0.54093814, -0.46586013, 0.46211499, 0.52612746, -0.02427946, -0.05884136, 0.00519120, 100.02200317, 109.03336334, 0.00000000, 0.00000000
2, 0.2900, 38, 0.01561097, -0.92578596, -0.14348361, -14.69069004, -15.73489571, 5.94945955, -22.50803757, 35.07746124, -58.19935608, 81.94572449, -0.59893674, -88.96903992, 0.54105580, -0.46503192, 0.46226981, 0.52660286, -0.02588693, -0.06434146, 0.00369123, 100.02200317, 109.03336334, 0.00000000, 0.00000000
4, 0.3150, 39, -0.22033681, -0.90298009, -0.00880282, -1.69626737, -18.95012093, -6.40660524, -66.38409424, -15.22946453, -29.69891739, 87.43232727, -16.41058159, 58.18338394, 0.57716823, -0.64787304, -0.24243158, -0.43400949, -0.06241390, -0.05524251, -0.03434206, 100.03400421, 108.02389526, 33.66999817, 0.00000000
4, 0.3200, 40, -0.22416279, -0.90672326, -0.01129572, -1.69971001, -18.50015640, -6.50301075, -66.38409424, -15.22946453, -29.69891739, 87.45144653, -16.38222885, 58.08554077, 0.57753491, -0.64811158, -0.24211724, -0.43334058, -0.05800127, -0.05169038, -0.03144416, 100.03400421, 108.02389526, 33.66999817, 0.00000000
4, 0.3250, 41, -0.22749273, -0.90859932, -0.01229954, -2.02295232, -17.98195457, -6.59130383, -66.88102722, -15.20023346, -30.57585526, 87.46813965, -16.35328865, 57.99040222, 0.57790655, -0.64833081, -0.24181218, -0.43268722, -0.05418691, -0.04996941, -0.03015708, 100.03400421, 108.02389526, 33.66999817, 0.00000000
3, 0.3000, 34, 0.37494177, -0.82964313, 0.19843549, -0.67680663, -18.26870537, 15.60866356, -47.26688004, -4.35545158, -55.56854630, 101.72425842, 20.33592796, -101.05442047, 0.28925619, -0.57134575, 0.51849014, 0.56662405, -0.02718041, -0.08834554, -0.00775571, 100.10300446, 102.22183228, 33.16999817, 0.00000000
3, 0.3050, 35, 0.36034769, -0.82700872, 0.19519597, -0.38841844, -16.71473885, 15.37917900, -47.09149170, -4.29698896, -55.45162201, 101.68626404, 20.27757835, -101.15831757, 0.28926784, -0.57057935, 0.51907468, 0.56685513, -0.01353855, -0.09145463, -0.00506830, 100.10300446, 102.22183228, 33.16999817, 0.00000000
3, 0.3100, 36, 0.35623568, -0.83050221, 0.19285272, -0.42131436, -14.88277435, 15.19139004, -47.09149170, -4.29698896, -55.45162201, 101.65161133, 20.21823883, -101.25236511, 0.28931689, -0.56986165, 0.51963007, 0.56704319, -0.01039325, -0.08842806, -0.00322098, 100.10300446, 102.22183228, 33.16999817, 0.00000000
1, 0.2950, 31, -0.14499350, -0.93558192, 0.19561392, 6.02270174, -3.50311279, 12.69029236, 4.44314528, 15.37562084, -132.85589600, 98.95092773, -1.62425947, -43.78924561, -0.60686356, 0.70179540, -0.29196906, -0.23227988, 0.11641787, -0.05219354, -0.04211421, 100.07000732, 104.99607849, 33.39999771, 0.00000000
1, 0.3000, 32, -0.14084147, -0.92576265, 0.20095812, 5.74971151, -4.51009798, 12.45945263, 4.44314528, 15.37562084, -132.85589600, 99.00095367, -1.72278416, -43.82303619, -0.60672504, 0.70175695, -0.29279187, -0.23172168, 0.11087892, -0.06187248, -0.04674187, 100.07000732, 104.99607849, 33.39999771, 0.00000000
5, 0.2500, 34, 0.06358860, -0.92167288, 0.30861783, 2.79707241, 6.63974810, -8.49462032, -17.12949371, 20.43262100, -119.96492004, 107.75936127, 3.63875341, -159.05601501, -0.08186879, 0.16514806, -0.79052418, -0.58403367, -0.00025512, -0.02878375, -0.00428054, 99.98500824, 112.14580536, 32.75999832, 0.00000000
5, 0.2550, 35, 0.12363322, -0.92692262, 0.31701171, 2.79672909, 6.50041008, -8.11917210, -17.39257431, 21.71879578, -119.46798706, 107.77611542, 3.66749406, -159.01258850, -0.08186594, 0.16560373, -0.79051363, -0.58391929, -0.05979369, -0.02341351, -0.01240413, 99.98500824, 112.14580536, 32.75999832, 0.00000000
2, 0.2950, 39, 0.01493951, -0.92258859, -0.14294001, -14.26571274, -17.18820763, 5.79074335, -22.50803757, 33.70359421, -58.95936966, 81.87527466, -0.63970166, -89.05006409, 0.54113138, -0.46418315, 0.46246511, 0.52710241, -0.02592674, -0.06735764, 0.00192302, 100.02200317, 109.03336334, 0.00000000, 0.00000000
2, 0.3000, 40, 0.01440675, -0.92244208, -0.14051877, -13.70206928, -18.32832146, 5.49829578, -22.50803757, 33.70359421, -58.95936966, 81.80776215, -0.67991704, -89.13687897, 0.54116523, -0.46332690, 0.46269384, 0.52762002, -0.02609832, -0.06732704, -0.00167918, 100.02200317, 109.03336334, 0.00000000, 0.00000000
2, 0.3050, 41, 0.01258967, -0.92488128, -0.13936371, -12.61087227, -19.32774925, 5.07141542, -22.56650162, 34.25898743, -59.10552216, 81.74581909, -0.71883845, -89.22890472, 0.54114646, -0.46248147, 0.46296212, 0.52814531, -0.02496552, -0.06472251, -0.00392315, 100.02200317, 109.03336334, 0.00000000, 0.00000000
1, 0.3050, 33, -0.15357193, -0.91909635, 0.18892211, 5.40329075, -5.37347651, 12.02265739, 4.44314528, 15.37562084, -132.85589600, 99.02922821, -1.77794492, -43.85892105, -0.60661161, 0.70169294, -0.29335663, -0.23149803, 0.12230919, -0.06837425, -0.03406825, 100.07000732, 104.99607849, 33.39999771, 0.00000000
1, 0.3100, 34, -0.17363638, -0.92791402, 0.17557101, 5.67075777, -6.93515491, 11.87687206, 3.59543991, 16.92487526, -132.59280396, 99.05908966, -1.83113933, -43.90240097, -0.60646844, 0.70162183, -0.29396057, -0.23132238, 0.14147386, -0.05942551, -0.02028070, 100.07000732, 104.99607849, 33.39999771, 0.00000000
1, 0.3150, 35, -0.19296230, -0.94638336, 0.18413793, 6.21257353, -7.62658119, 11.85349464, 3.59543991, 16.92487526, -132.59280396, 99.09183502, -1.88364327, -43.94933701, -0.60629916, 0.70155817, -0.29458764, -0.23116161, 0.15985928, -0.04085252, -0.02837634, 100.07000732, 104.99607849, 33.39999771, 0.00000000
3, 0.3150, 37, 0.35289869, -0.83703476, 0.18876150, -0.70596290, -13.32130337, 14.86330605, -47.12072372, -4.00467682, -55.74393463, 101.61857605, 20.15888786, -101.33783722, 0.28940007, -0.56918603, 0.52015018, 0.56720263, -0.00803080, -0.08235595, 0.00041224, 100.10300446, 102.22183228, 33.16999817, 0.00000000
3, 0.3200, 38, 0.35525131, -0.85099566, 0.17986462, -0.84714335, -12.00621796, 14.70554733, -47.12072372, -4.00467682, -55.74393463, 101.58737946, 20.09893990, -101.41620636, 0.28951246, -0.56854427, 0.52064580, 0.56733412, -0.01136308, -0.06885148, 0.00887316, 100.10300446, 102.22183228, 33.16999817, 0.00000000
2, 0.3450, 42, 0.00280393, -0.94981867, -0.12244444, -8.19889736, -25.38845634, 1.35151005, -21.68956375, 33.67436218, -58.40397644, 81.38282776, -0.96785843, -90.14550018, 0.53934979, -0.45588657, 0.46611378, 0.53292334, -0.01958357, -0.03877917, -0.02719742, 100.02200317, 109.03336334, 0.00000000, 0.00000000
2, 0.3500, 43, 0.00098393, -0.95677459, -0.12273824, -8.51890373, -25.76851845, 1.13568163, -21.68956375, 33.67436218, -58.40397644, 81.34239960, -0.99281979, -90.27204895, 0.53902113, -0.45506346, 0.46654436, 0.53358209, -0.01820229, -0.03171068, -0.02759579, 100.02200317, 109.03336334, 0.00000000, 0.00000000
5, 0.2900, 36, 0.13499421, -0.93844688, 0.30356359, -0.37895209, -7.68495846, -3.66876292, -16.63256264, 21.45571518, -119.64337921, 107.84469604, 3.91112638, -158.90628052, -0.08061212, 0.16760615, -0.79042393, -0.58364362, -0.06691898, -0.01122844, 0.00218534, 99.98500824, 112.14580536, 32.75999832, 0.00000000
5, 0.2950, 37, 0.13462895, -0.93967074, 0.29990673, -0.44657457, -11.23134041, -2.76060128, -16.63256264, 21.45571518, -119.64337921, 107.83908081, 3.94147038, -158.95561218, -0.08015773, 0.16741373, -0.79043180, -0.58375084, -0.06601933, -0.00999877, 0.00574078, 99.98500824, 112.14580536, 32.75999832, 0.00000000
4, 0.3300, 42, -0.23100606, -0.91248727, -0.01314705, -2.27310014, -17.74001884, -6.65131187, -66.88102722, -15.20023346, -30.57585526, 87.48319244, -16.32397461, 57.89653015, 0.57828337, -0.64853805, -0.24150999, -0.43204147, -0.05018418, -0.04623635, -0.02905633, 100.03400421, 108.02389526, 33.66999817, 0.00000000
4, 0.3350, 43, -0.23335610, -0.91669774, -0.01698674, -2.48717332, -17.60477829, -6.50464821, -66.82256317, -17.77258110, -30.04969215, 87.49690247, -16.29533768, 57.80341339, 0.57866168, -0.64873838, -0.24120285, -0.43140519, -0.04735161, -0.04217699, -0.02499119, 100.03400421, 108.02389526, 33.66999817, 0.00000000
2, 0.3550, 44, -0.00118568, -0.96267009, -0.12962733, -8.20108891, -26.42540359, 1.02310419, -22.39111328, 34.37591171, -58.93013763, 81.30367279, -1.01781011, -90.40191650, 0.53866947, -0.45423418, 0.46699491, 0.53424931, -0.01646841, -0.02570483, -0.02138016, 100.02200317, 109.03336334, 0.00000000, 0.00000000
2, 0.3600, 45, -0.00290859, -0.96818578, -0.13337126, -7.84900522, -27.04702568, 0.84168047, -22.39111328, 34.37591171, -58.93013763, 81.26680756, -1.04246938, -90.53497314, 0.53829318, -0.45340163, 0.46746394, 0.53492510, -0.01517779, -0.02008265, -0.01828054, 100.02200317, 109.03336334, 0.00000000, 0.00000000
2, 0.3650, 46, -0.00470068, -0.97296035, -0.13820471, -7.10612726, -27.35774612, 0.87539434, -21.86495209, 33.52820587, -59.25167847, 81.23374939, -1.06760526, -90.66952515, 0.53789586, -0.45257798, 0.46795762, 0.53559035, -0.01381966, -0.01520947, -0.01403636, 100.02200317, 109.03336334, 0.00000000, 0.00000000
1, 0.3200, 36, -0.18886225, -0.94916773, 0.18297583, 5.71374846, -7.65498114, 11.40348911, 3.09850907, 16.66179466, -132.94358826, 99.12211609, -1.93388832, -43.99607468, -0.60614008, 0.70148647, -0.29519647, -0.23101979, 0.15487438, -0.03795188, -0.02667987, 100.07000732, 104.99607849, 33.39999771, 0.00000000
1, 0.3250, 37, -0.18624035, -0.94594455, 0.18157311, 5.57767010, -8.24049187, 11.07579613, 3.09850907, 16.66179466, -132.94358826, 99.15181732, -1.98203659, -44.04548264, -0.60597420, 0.70140898, -0.29580936, -0.23090629, 0.15140814, -0.04106209, -0.02475879, 100.07000732, 104.99607849, 33.39999771, 0.00000000
1, 0.3300, 38, -0.18190487, -0.93936658, 0.19025429, 5.75935602, -8.58449364, 10.96012688, 3.09850907, 16.66179466, -132.94358826, 99.18254852, -2.02930832, -44.09652328, -0.60579675, 0.70133418, -0.29642949, -0.23080391, 0.14622186, -0.04754142, -0.03289903, 100.07000732, 104.99607849, 33.39999771, 0.00000000
5, 0.3000, 38, 0.13906492, -0.94461435, 0.30604196, -0.57753330, -12.62380695, -1.80744779, -16.63256264, 21.45571518, -119.64337921, 107.83222198, 3.96940756, -159.01307678, -0.07968050, 0.16715248, -0.79044783, -0.58386922, -0.06996003, -0.00505808, -0.00051501, 99.98500824, 112.14580536, 32.75999832, 0.00000000
5, 0.3050, 39, 0.14198187, -0.94578582, 0.30658478, -0.95919359, -13.98438931, -0.92041510, -17.83104324, 22.27418900, -119.96492004, 107.82289124, 3.99519634, -159.07838440, -0.07918173, 0.16682461, -0.79046524, -0.58400744, -0.07241762, -0.00390297, -0.00121285, 99.98500824, 112.14580536, 32.75999832, 0.00000000
5, 0.3100, 40, 0.14222489, -0.94353378, 0.30037290, -0.95087802, -14.99281216, -0.12719621, -17.83104324, 22.27418900, -119.96492004, 107.81314850, 4.01874113, -159.14973450, -0.07866829, 0.16644365, -0.79049164, -0.58414966, -0.07224268, -0.00617853, 0.00483032, 99.98500824, 112.14580536, 32.75999832, 0.00000000
3, 0.3650, 39, 0.36269173, -0.92432547, 0.15262139, -4.66490316, -5.30329990, 14.16153717, -46.79918289, -4.61853266, -55.83162689, 101.27429962, 19.55292892, -101.93380737, 0.29163927, -0.56348771, 0.52402037, 0.56818211, -0.02775051, 0.00029948, 0.03174309, 100.10300446, 102.22183228, 33.16999817, 0.00000000
3, 0.3700, 40, 0.35582760, -0.92481720, 0.15973315, -4.77457237, -5.50090694, 13.77588463, -46.79918289, -4.61853266, -55.83162689, 101.23609161, 19.49073792, -101.97669220, 0.29197240, -0.56297541, 0.52431059, 0.56825113, -0.02191833, 0.00030899, 0.02408483, 100.10300446, 102.22183228, 33.16999817, 0.00000000
4, 0.3700, 44, -0.25422314, -0.98269802, -0.06661519, -4.10569477, -14.77843380, -6.55787277, -66.79333496, -15.58023930, -30.34200478, 87.53764343, -16.08195877, 57.20624924, 0.58144754, -0.64971495, -0.23922679, -0.42727020, -0.02291227, 0.02275452, 0.02533104, 100.03400421, 108.02389526, 33.66999817, 0.00000000
4, 0.3750, 45, -0.25546876, -0.98669958, -0.07228113, -4.35782671, -14.29621220, -6.54365206, -66.76410675, -15.34638977, -30.04969215, 87.53683472, -16.05233955, 57.13046646, 0.58184218, -0.64980245, -0.23896828, -0.42674428, -0.02117151, 0.02661369, 0.03098617, 100.03400421, 108.02389526, 33.66999817, 0.00000000
4, 0.3800, 46, -0.25455362, -0.98780364, -0.07601585, -4.39794397, -13.71004009, -6.53208637, -66.76410675, -15.34638977, -30.04969215, 87.53493500, -16.02265930, 57.05773926, 0.58223128, -0.64987785, -0.23872347, -0.42623547, -0.02158903, 0.02757604, 0.03468768, 100.03400421, 108.02389526, 33.66999817, 0.00000000
5, 0.3150, 41, 0.14313667, -0.93856955, 0.28971601, -0.44114414, -15.96053982, 0.55992460, -16.45717621, 22.33265114, -120.05261230, 107.80043793, 4.07781935, -159.19917297, -0.07802326, 0.16638981, -0.79042935, -0.58433580, -0.07244608, -0.01115263, 0.01529305, 99.98500824, 112.14580536, 32.75999832, 0.00000000
5, 0.3200, 42, 0.14398773, -0.93247133, 0.27725589, -0.11802669, -16.23520088, 1.03173900, -16.45717621, 22.33265114, -120.05261230, 107.79421234, 4.09772110, -159.27822876, -0.07749047, 0.16593985, -0.79048884, -0.58445412, -0.07261471, -0.01725295, 0.02758767, 99.98500824, 112.14580536, 32.75999832, 0.00000000
5, 0.3250, 43, 0.13833535, -0.92983913, 0.26653498, 0.59602040, -16.26200104, 1.47509503, -16.45717621, 22.33265114, -120.05261230, 107.79147339, 4.11554527, -159.35812378, -0.07696286, 0.16547626, -0.79056954, -0.58454615, -0.06664488, -0.01988233, 0.03824317, 99.98500824, 112.14580536, 32.75999832, 0.00000000
3, 0.3750, 41, 0.34586710, -0.92732173, 0.15894283, -4.95747614, -6.31689167, 13.31382561, -46.79918289, -4.61853266, -55.83162689, 101.19577789, 19.43158150, -102.02328491, 0.29227969, -0.56245089, 0.52459508, 0.56834996, -0.01294322, 0.00234565, 0.02430793, 100.10300446, 102.22183228, 33.16999817, 0.00000000
3, 0.3800, 42, 0.33791679, -0.92531526, 0.15427434, -5.38897848, -6.89526176, 13.13688564, -47.09149170, -4.32622051, -56.29932785, 101.15243530, 19.37382317, -102.07263947, 0.29257986, -0.56191033, 0.52487165, 0.56847489, -0.00594993, -0.00012758, 0.02835533, 100.10300446, 102.22183228, 33.16999817, 0.00000000
3, 0.3850, 43, 0.33574623, -0.92618561, 0.16039266, -5.53251982, -6.68335104, 12.96615505, -47.09149170, -4.32622051, -56.29932785, 101.10360718, 19.31773758, -102.12312317, 0.29289129, -0.56135589, 0.52511889, 0.56863385, -0.00471488, 0.00027212, 0.02154819, 100.10300446, 102.22183228, 33.16999817, 0.00000000
2, 0.3700, 47, -0.00774237, -0.97388154, -0.13759282, -6.78393841, -27.77485847, 1.11410475, -21.86495209, 33.52820587, -59.25167847, 81.20240784, -1.09430921, -90.80594635, 0.53748828, -0.45174661, 0.46847263, 0.53625077, -0.01123813, -0.01419565, -0.01519250, 100.02200317, 109.03336334, 0.00000000, 0.00000000
2, 0.3750, 48, -0.00562432, -0.97378582, -0.13983592, -6.56692839, -28.33103943, 1.38500130, -21.86495209, 33.52820587, -59.25167847, 81.17476654, -1.11929715, -90.94508362, 0.53704554, -0.45092890, 0.46900639, 0.53691548, -0.01381374, -0.01420510, -0.01344845, 100.02200317, 109.03336334, 0.00000000, 0.00000000
2, 0.3800, 49, -0.00902903, -0.97404987, -0.13867921, -6.24315166, -28.57601547, 1.76536381, -22.09880066, 31.97895241, -59.16398621, 81.14630890, -1.14997542, -91.08493805, 0.53662461, -0.45007667, 0.46956411, 0.53756374, -0.01090358, -0.01385731, -0.01508069, 100.02200317, 109.03336334, 0.00000000, 0.00000000
1, 0.3350, 39, -0.17367777, -0.93809342, 0.20865847, 5.57745981, -8.23882389, 11.00573444, 2.71850324, 16.77871895, -133.06050110, 99.21234894, -2.07706523, -44.14592361, -0.60562956, 0.70125699, -0.29703996, -0.23069194, 0.13711956, -0.04873101, -0.05076276, 100.07000732, 104.99607849, 33.39999771, 0.00000000
1, 0.3400, 40, -0.15834999, -0.94003630, 0.20777975, 5.04925156, -8.69442081, 10.93149471, 2.71850324, 16.77871895, -133.06050110, 99.23960876, -2.12406993, -44.19754028, -0.60547179, 0.70116186, -0.29765475, -0.23060268, 0.12096788, -0.04667911, -0.04937480, 100.07000732, 104.99607849, 33.39999771, 0.00000000
4, 0.3850, 47, -0.25635955, -0.98789012, -0.08297273, -4.50702095, -13.36432743, -6.59322834, -66.61795044, -15.87255192, -30.57585526, 87.53196716, -15.99259663, 56.98680878, 0.58262080, -0.64994305, -0.23848699, -0.42573580, -0.01928033, 0.02752024, 0.04159370, 100.03400421, 108.02389526, 33.66999817, 0.00000000
4, 0.3900, 48, -0.25729507, -0.98929042, -0.08738407, -4.86569977, -12.84565163, -6.71565056, -66.61795044, -15.87255192, -30.57585526, 87.52642822, -15.96182251, 56.91854858, 0.58301711, -0.64998800, -0.23826043, -0.42525131, -0.01783146, 0.02877713, 0.04591644, 100.03400421, 108.02389526, 33.66999817, 0.00000000
4, 0.3950, 49, -0.26026294, -0.98821127, -0.09066664, -5.29382896, -12.53626060, -6.70080614, -66.61795044, -15.87255192, -30.57585526, 87.51826477, -15.93105602, 56.85191345, 0.58342183, -0.65001619, -0.23803331, -0.42478028, -0.01434725, 0.02755595, 0.04906655, 100.03400421, 108.02389526, 33.66999817, 0.00000000
5, 0.3300, 44, 0.13608760, -0.92054993, 0.25368106, 2.42039657, -16.13650513, 1.53506017, -17.53873062, 22.65419388, -120.54954529, 107.79786682, 4.13289165, -159.43748474, -0.07642790, 0.16501981, -0.79069632, -0.58457386, -0.06409481, -0.02913103, 0.05115186, 99.98500824, 112.14580536, 32.75999832, 0.00000000
3, 0.3900, 44, 0.32898742, -0.92897606, 0.16558854, -5.56826639, -6.02200937, 12.69469261, -46.68225479, -5.43700647, -55.97778320, 101.06115723, 19.26123238, -102.16735840, 0.29320461, -0.56084430, 0.52536851, 0.56874657, 0.00111976, 0.00260141, 0.01568289, 100.10300446, 102.22183228, 33.16999817, 0.00000000
3, 0.3950, 45, 0.31579459, -0.93171728, 0.16547349, -5.35147572, -4.88483000, 12.63584518, -46.68225479, -5.43700647, -55.97778320, 101.02181244, 19.20389938, -102.20556641, 0.29353711, -0.56036484, 0.52560735, 0.56882703, 0.01337363, 0.00489467, 0.01521428, 100.10300446, 102.22183228, 33.16999817, 0.00000000
3, 0.4000, 46, 0.30520967, -0.93163913, 0.17266858, -5.42154217, -4.26438713, 12.67886543, -46.68225479, -5.43700647, -55.97778320, 100.98322296, 19.14573860, -102.24053955, 0.29388648, -0.55989861, 0.52583730, 0.56889313, 0.02300109, 0.00436759, 0.00745628, 100.10300446, 102.22183228, 33.16999817, 0.00000000
2, 0.3850, 50, -0.00971339, -0.97209126, -0.14037344, -6.06170797, -28.78605843, 2.07602382, -22.09880066, 31.97895241, -59.16398621, 81.11886597, -1.18242061, -91.22557831, 0.53620207, -0.44921657, 0.47013631, 0.53820419, -0.01077970, -0.01573015, -0.01386310, 100.02200317, 109.03336334, 0.00000000, 0.00000000
2, 0.3900, 51, -0.01021040, -0.96996111, -0.14134209, -5.91573238, -28.92687416, 2.38754582, -21.60187149, 33.99590683, -59.51476288, 81.09223175, -1.21657562, -91.36666107, 0.53578031, -0.44834954, 0.47072059, 0.53883624, -0.01087027, -0.01777590, -0.01335516, 100.02200317, 109.03336334, 0.00000000, 0.00000000
4, 0.4000, 50, -0.26360431, -0.98620200, -0.09515730, -5.68413544, -12.53881454, -6.58777285, -66.47179413, -15.78485775, -30.60508537, 87.50811005, -15.90087032, 56.78529358, 0.58383524, -0.65003532, -0.23779553, -0.42431587, -0.01049453, 0.02540810, 0.05338592, 100.03400421, 108.02389526, 33.66999817, 0.00000000
4, 0.4050, 51, -0.26848775, -0.98546296, -0.10033714, -6.03518200, -13.02463341, -6.44950914, -66.47179413, -15.78485775, -30.60508537, 87.49684906, -15.87149239, 56.71618652, 0.58426076, -0.65005559, -0.23753485, -0.42384461, -0.00511587, 0.02453605, 0.05837755, 100.03400421, 108.02389526, 33.66999817, 0.00000000
1, 0.3750, 41, -0.14703678, -0.95799744, 0.24334849, 3.02125931, -11.56961441, 10.99393463, 2.36772871, 16.42794418, -133.41128540, 99.42773438, -2.47745585, -44.62619781, -0.60431081, 0.70023453, -0.30248386, -0.23018162, 0.10339217, -0.02799477, -0.08170994, 100.07000732, 104.99607849, 33.39999771, 0.00000000
1, 0.3800, 42, -0.15473835, -0.96230447, 0.25689575, 3.17565179, -12.60927582, 10.82697964, 2.36772871, 16.42794418, -133.41128540, 99.44685364, -2.52059531, -44.69726181, -0.60415542, 0.70004928, -0.30317914, -0.23023820, 0.11030400, -0.02362402, -0.09496644, 100.07000732, 104.99607849, 33.39999771, 0.00000000
4, 0.4350, 52, -0.27169186, -0.96998644, -0.09678115, -7.96012688, -21.17412758, -3.97445369, -66.70564270, -15.90178299, -30.16661835, 87.40158844, -15.73846340, 56.18264389, 0.58724487, -0.65037280, -0.23494077, -0.42066801, 0.00038534, 0.00848136, 0.05318291, 100.03400421, 108.02389526, 33.66999817, 0.00000000
4, 0.4400, 53, -0.27513981, -0.96478593, -0.09433682, -7.87391710, -23.18295288, -3.45460320, -66.73487091, -16.69102669, -29.75738144, 87.39505005, -15.72646332, 56.06152344, 0.58776909, -0.65056080, -0.23430012, -0.42000207, 0.00404765, 0.00322616, 0.05061166, 100.03400421, 108.02389526, 33.66999817, 0.00000000
1, 0.3850, 43, -0.17257404, -0.96621633, 0.26240498, 3.07629013, -13.23511696, 10.74322414, 1.92926037, 16.31101990, -134.05436707, 99.46566010, -2.56279707, -44.77135086, -0.60399371, 0.69985592, -0.30388728, -0.23031718, 0.12738562, -0.01963408, -0.10020185, 100.07000732, 104.99607849, 33.39999771, 0.00000000
1, 0.3900, 44, -0.19789495, -0.96470404, 0.25674754, 2.51607871, -13.97117043, 10.73281097, 1.92926037, 16.31101990, -134.05436707, 99.48187256, -2.60432291, -44.84908295, -0.60383886, 0.69963998, -0.30460861, -0.23042616, 0.15199336, -0.02105669, -0.09432167, 100.07000732, 104.99607849, 33.39999771, 0.00000000
1, 0.3950, 45, -0.21516128, -0.96071315, 0.25263128, 2.30542111, -14.24653625, 10.51861572, 1.72464192, 14.44022179, -133.99591064, 99.49716187, -2.64455914, -44.92803192, -0.60368425, 0.69941813, -0.30532861, -0.23055185, 0.16856387, -0.02496394, -0.08997855, 100.07000732, 104.99607849, 33.39999771, 0.00000000
5, 0.3350, 45, 0.13778834, -0.92254061, 0.24838610, 3.67643929, -16.19104958, 1.17756438, -17.53873062, 22.65419388, -120.54954529, 107.81053925, 4.15203905, -159.51658630, -0.07587285, 0.16457842, -0.79085237, -0.58455950, -0.06546815, -0.02705795, 0.05662581, 99.98500824, 112.14580536, 32.75999832, 0.00000000
5, 0.3800, 46, 0.09463594, -0.96780819, 0.33090812, 5.38656044, -14.67511654, -0.68254399, -17.91873741, 22.09880066, -120.37416077, 107.99473572, 4.40178156, -160.14932251, -0.07064254, 0.16157533, -0.79240292, -0.58395278, -0.01799597, 0.01949033, -0.02298042, 99.98500824, 112.14580536, 32.75999832, 0.00000000
5, 0.3850, 47, 0.08837645, -0.96984619, 0.33867103, 5.70234489, -14.28939533, -0.39399952, -17.91873741, 22.09880066, -120.37416077, 108.01804352, 4.42574310, -160.21687317, -0.07009822, 0.16124241, -0.79258925, -0.58385748, -0.01131225, 0.02168423, -0.03036936, 99.98500824, 112.14580536, 32.75999832, 0.00000000
5, 0.3900, 48, 0.08260341, -0.96566796, 0.33421636, 5.65828085, -13.76886654, -0.09777459, -18.29874229, 22.74188805, -120.66647339, 108.04125977, 4.44751787, -160.28236389, -0.06957973, 0.16091232, -0.79277462, -0.58375883, -0.00515054, 0.01765856, -0.02554314, 99.98500824, 112.14580536, 32.75999832, 0.00000000
3, 0.4050, 47, 0.30025542, -0.93188506, 0.18329372, -4.92105818, -4.89327240, 12.84083557, -46.38994217, -4.12160206, -56.35778809, 100.94605255, 19.08735847, -102.27888489, 0.29421312, -0.55941927, 0.52609152, 0.56896085, 0.02699646, 0.00416800, -0.00371900, 100.10300446, 102.22183228, 33.16999817, 0.00000000
3, 0.4100, 48, 0.29957497, -0.93401271, 0.19551072, -4.67056417, -5.45241022, 13.07623386, -46.38994217, -4.12160206, -56.35778809, 100.90917206, 19.02832413, -102.32032776, 0.29452652, -0.55892366, 0.52636468, 0.56903315, 0.02670383, 0.00585032, -0.01646718, 100.10300446, 102.22183228, 33.16999817, 0.00000000
2, 0.3950, 52, -0.01218288, -0.96690130, -0.14406313, -5.45292473, -29.03189087, 2.63159204, -21.60187149, 33.99590683, -59.51476288, 81.06801605, -1.25208747, -91.50805664, 0.53535211, -0.44748500, 0.47132212, 0.53945416, -0.00951255, -0.02075547, -0.01106070, 100.02200317, 109.03336334, 0.00000000, 0.00000000
4, 0.4450, 54, -0.27636504, -0.96118242, -0.09081344, -7.61221886, -24.94942093, -2.96899462, -66.73487091, -16.69102669, -29.75738144, 87.39225006, -15.71730423, 55.93136215, 0.58829433, -0.65079194, -0.23360486, -0.41929525, 0.00543791, -0.00042084, 0.04702339, 100.03400421, 108.02389526, 33.66999817, 0.00000000
4, 0.4500, 55, -0.27777296, -0.95674109, -0.08624218, -7.03192472, -26.64784241, -2.38428831, -66.41333008, -15.87255192, -29.69891739, 87.39470673, -15.71146011, 55.79253006, 0.58880877, -0.65107423, -0.23285970, -0.41854873, 0.00695938, -0.00489479, 0.04246611, 100.03400421, 108.02389526, 33.66999817, 0.00000000
4, 0.4550, 56, -0.28078416, -0.95442164, -0.08243239, -6.38214207, -28.13642502, -1.97173810, -66.41333008, -15.87255192, -29.69891739, 87.40243530, -15.70799637, 55.64607239, 0.58931154, -0.65140349, -0.23207608, -0.41776326, 0.01003792, -0.00723830, 0.03876611, 100.03400421, 108.02389526, 33.66999817, 0.00000000
1, 0.4000, 46, -0.23539048, -0.95150101, 0.25239444, 2.05019832, -13.78956604, 10.25233936, 1.72464192, 14.44022179, -133.99591064, 99.54083252, -2.74479842, -45.00662994, -0.60350269, 0.69920784, -0.30641210, -0.23022741, 0.18757249, -0.03403578, -0.08928733, 100.07000732, 104.99607849, 33.39999771, 0.00000000
1, 0.4050, 47, -0.24474445, -0.94259167, 0.25187278, 1.93387270, -13.14727592, 9.56808567, 1.72464192, 14.44022179, -133.99591064, 99.55411530, -2.78117418, -45.07941437, -0.60336363, 0.69899905, -0.30706990, -0.23034942, 0.19574691, -0.04280718, -0.08829772, 100.07000732, 104.99607849, 33.39999771, 0.00000000
1, 0.4100, 48, -0.24540231, -0.93951762, 0.25017416, 1.68576360, -13.37647247, 8.86473751, 2.45542240, 14.96638393, -133.84974670, 99.56624603, -2.81386638, -45.15275192, -0.60322160, 0.69879067, -0.30770963, -0.23050015, 0.19582292, -0.04581440, -0.08638620, 100.07000732, 104.99607849, 33.39999771, 0.00000000
5, 0.3950, 49, 0.08047677, -0.96710342, 0.34273481, 5.68250418, -13.00430870, 0.24149169, -18.29874229, 22.74188805, -120.66647339, 108.06481934, 4.46652222, -160.34475708, -0.06909613, 0.16058995, -0.79296029, -0.58365273, -0.00268134, 0.01924607, -0.03368086, 99.98500824, 112.14580536, 32.75999832, 0.00000000
5, 0.4000, 50, 0.07993059, -0.96681219, 0.35067886, 5.12697458, -11.86454201, 0.94490170, -17.71411896, 22.80035019, -120.72492981, 108.08592987, 4.48043680, -160.40278625, -0.06867376, 0.16027056, -0.79313320, -0.58355558, -0.00186848, 0.01909295, -0.04126837, 99.98500824, 112.14580536, 32.75999832, 0.00000000
5, 0.4050, 51, 0.07865591, -0.95803863, 0.34643167, 4.97753477, -11.51903629, 1.27009439, -17.71411896, 22.80035019, -120.72492981, 108.10636902, 4.49229097, -160.45968628, -0.06827264, 0.15994819, -0.79330313, -0.58345997, -0.00037892, 0.01044554, -0.03668991, 99.98500824, 112.14580536, 32.75999832, 0.00000000
2, 0.4200, 53, -0.03061496, -0.98823100, -0.14376834, -2.84427857, -29.40482521, 2.22137952, -21.57263947, 34.05437088, -60.01169205, 80.98900604, -1.43059039, -92.22143555, 0.53300911, -0.44331342, 0.47453710, 0.54239202, 0.00579531, 0.00087017, -0.01276415, 100.02200317, 109.03336334, 0.00000000, 0.00000000
2, 0.4250, 54, -0.03396277, -0.99306965, -0.14424211, -2.56479716, -29.33334541, 2.01518106, -21.57263947, 34.05437088, -60.27477264, 80.98339844, -1.46588290, -92.36469269, 0.53249460, -0.44252300, 0.47522464, 0.54294062, 0.00854461, 0.00574482, -0.01242208, 100.02200317, 109.03336334, 0.00000000, 0.00000000
2, 0.4300, 55, -0.03473264, -0.99908912, -0.14217895, -2.39176488, -29.26178741, 1.77370131, -21.66033363, 32.79742813, -60.27477264, 80.97512817, -1.49758589, -92.50785065, 0.53197563, -0.44173703, 0.47588170, 0.54351354, 0.00873463, 0.01179716, -0.01459765, 100.02200317, 109.03336334, 0.00000000, 0.00000000
3, 0.4400, 49, 0.33758482, -0.94060147, 0.20969731, -1.81103718, -10.78925228, 14.66036892, -47.50072861, -4.50160789, -56.21163177, 100.72191620, 18.66230011, -102.63162994, 0.29599282, -0.55569464, 0.52852011, 0.56943673, -0.01734021, 0.00982955, -0.03332555, 100.10300446, 102.22183228, 33.16999817, 0.00000000
3, 0.4450, 50, 0.33491054, -0.94241190, 0.21325627, -1.70692182, -12.86394405, 14.87948608, -46.82841110, -5.75855017, -56.18240356, 100.68741608, 18.60114479, -102.71291351, 0.29610717, -0.55500966, 0.52900440, 0.56959563, -0.01567706, 0.01120082, -0.03737045, 100.10300446, 102.22183228, 33.16999817, 0.00000000
5, 0.4100, 52, 0.08133075, -0.95358020, 0.34383965, 5.80142975, -11.71828270, 1.67168689, -17.71411896, 22.80035019, -120.72492981, 108.13077545, 4.50256920, -160.51814270, -0.06786909, 0.15960926, -0.79349726, -0.58333594, -0.00286966, 0.00612634, -0.03371851, 99.98500824, 112.14580536, 32.75999832, 0.00000000
5, 0.4150, 53, 0.08625267, -0.95450646, 0.33736235, 6.37583017, -12.02473164, 2.10583138, -17.48026848, 21.77725792, -120.43261719, 108.16733551, 4.51540995, -160.56195068, -0.06750540, 0.15939157, -0.79372966, -0.58312136, -0.00759822, 0.00723639, -0.02672920, 99.98500824, 112.14580536, 32.75999832, 0.00000000
5, 0.4650, 54, 0.05197093, -0.95987517, 0.29559320, 7.52269554, -19.48660469, 6.00926828, -18.47413063, 22.47880745, -120.81262970, 108.47498322, 4.56947517, -161.47459412, -0.06206871, 0.15350284, -0.79647869, -0.58155495, 0.02775866, 0.01440865, 0.02021733, 99.98500824, 112.14580536, 32.75999832, 0.00000000
1, 0.4150, 49, -0.24179615, -0.94014812, 0.25264037, 1.96366453, -12.97519398, 8.20477295, 2.45542240, 14.96638393, -133.84974670, 99.57967377, -2.84361577, -45.22358322, -0.60306954, 0.69860202, -0.30832133, -0.23065230, 0.19168118, -0.04512467, -0.08862642, 100.07000732, 104.99607849, 33.39999771, 0.00000000
1, 0.4200, 50, -0.23434325, -0.94839025, 0.26223272, 2.16614866, -12.19415474, 7.65997648, 1.28617358, 16.19409561, -133.17742920, 99.59390259, -2.87131810, -45.29011536, -0.60291618, 0.69843340, -0.30889776, -0.23079219, 0.18371058, -0.03683251, -0.09797205, 100.07000732, 104.99607849, 33.39999771, 0.00000000
4, 0.4600, 57, -0.28940254, -0.95442206, -0.07847537, -5.80649137, -29.24860001, -1.37622643, -66.41333008, -15.87255192, -29.69891739, 87.41457367, -15.70772743, 55.49398804, 0.58979738, -0.65177280, -0.23125704, -0.41695496, 0.01867424, -0.00725123, 0.03499592, 100.03400421, 108.02389526, 33.66999817, 0.00000000
4, 0.4650, 58, -0.29844436, -0.95543635, -0.07172608, -5.44475126, -30.18440819, -1.05209327, -66.32563782, -16.42794418, -30.45892906, 87.42272949, -15.71642303, 55.33847427, 0.59028554, -0.65214694, -0.23035049, -0.41618028, 0.02763616, -0.00622299, 0.02843305, 100.03400421, 108.02389526, 33.66999817, 0.00000000
4, 0.4700, 59, -0.30502376, -0.95473295, -0.06574488, -5.47829151, -30.46424294, -0.81218940, -66.32563782, -16.42794418, -30.45892906, 87.43821716, -15.71919727, 55.18019867, 0.59076184, -0.65255034, -0.22948925, -0.41534719, 0.03411326, -0.00690663, 0.02265527, 100.03400421, 108.02389526, 33.66999817, 0.00000000
2, 0.4350, 56, -0.03745921, -1.00304735, -0.14065790, -2.43180656, -28.87851715, 1.50107741, -21.66033363, 32.79742813, -60.27477264, 80.96670532, -1.52766430, -92.64932251, 0.53145808, -0.44096419, 0.47652292, 0.54408538, 0.01092922, 0.01579190, -0.01625865, 100.02200317, 109.03336334, 0.00000000, 0.00000000
2, 0.4400, 57, -0.04169568, -1.00462508, -0.13653374, -2.50601673, -28.80741692, 1.25839877, -21.39725113, 33.87898254, -59.33937454, 80.95797729, -1.55649674, -92.79064178, 0.53093672, -0.44019568, 0.47715530, 0.54466218, 0.01465753, 0.01740647, -0.02052815, 100.02200317, 109.03336334, 0.00000000, 0.00000000
2, 0.4450, 58, -0.04472216, -1.00750864, -0.13404477, -2.65130877, -28.52857018, 1.01847780, -21.39725113, 33.87898254, -59.33937454, 80.94856262, -1.58395040, -92.93075562, 0.53041744, -0.43943474, 0.47777238, 0.54524136, 0.01719844, 0.02032820, -0.02317287, 100.02200317, 109.03336334, 0.00000000, 0.00000000
5, 0.4700, 55, 0.05087879, -0.95376813, 0.30028236, 7.93990707, -18.54348946, 6.10993576, -18.47413063, 22.47880745, -120.81262970, 108.50688171, 4.56990957, -161.57252502, -0.06152611, 0.15284140, -0.79677099, -0.58138645, 0.02879572, 0.00845274, 0.01599391, 99.98500824, 112.14580536, 32.75999832, 0.00000000
5, 0.4750, 56, 0.05258167, -0.95003504, 0.30416292, 8.25039959, -17.67115784, 6.24340916, -19.20491028, 22.15726280, -120.63723755, 108.54064178, 4.56837845, -161.66651917, -0.06101510, 0.15219814, -0.79706895, -0.58120042, 0.02708140, 0.00490072, 0.01265718, 99.98500824, 112.14580536, 32.75999832, 0.00000000
1, 0.4600, 51, -0.25026679, -0.94565320, 0.21356025, 1.01531911, -12.25989342, 2.69564939, 1.08155513, 15.69716454, -133.99591064, 99.70940399, -3.04534912, -45.81915283, -0.60157001, 0.69719750, -0.31324413, -0.23217970, 0.19661617, -0.03898917, -0.04735707, 100.07000732, 104.99607849, 33.39999771, 0.00000000
1, 0.4650, 52, -0.26918319, -0.94278681, 0.20505343, 1.28631198, -11.26853371, 2.11994219, 1.08155513, 15.69716454, -133.99591064, 99.71891022, -3.04636192, -45.87653732, -0.60139823, 0.69708806, -0.31361771, -0.23244861, 0.21552630, -0.04181266, -0.03873251, 100.07000732, 104.99607849, 33.39999771, 0.00000000
2, 0.4500, 59, -0.04762916, -1.01038671, -0.13191906, -3.29081821, -28.14697266, 0.81247598, -21.54340744, 33.55743790, -60.07015610, 80.93595886, -1.61011541, -93.06916046, 0.52991265, -0.43867162, 0.47836068, 0.54583043, 0.01964348, 0.02325151, -0.02549994, 100.02200317, 109.03336334, 0.00000000, 0.00000000
2, 0.4550, 60, -0.05113838, -1.01002479, -0.12797928, -3.82463384, -27.86884499, 0.57067078, -21.54340744, 33.55743790, -60.07015610, 80.92072296, -1.63490188, -93.20636749, 0.52941734, -0.43790719, 0.47892451, 0.54643011, 0.02271500, 0.02294189, -0.02968969, 100.02200317, 109.03336334, 0.00000000, 0.00000000
2, 0.4600, 61, -0.05519838, -1.00917637, -0.12428079, -4.60491371, -27.03792000, 0.47500259, -21.54340744, 33.55743790, -60.07015610, 80.90151978, -1.65859830, -93.33954620, 0.52895129, -0.43714598, 0.47944808, 0.54703170, 0.02635784, 0.02215597, -0.03370310, 100.02200317, 109.03336334, 0.00000000, 0.00000000
4, 0.4750, 60, -0.31363395, -0.95319742, -0.05841259, -5.43985033, -30.84405136, -0.78505147, -66.47179413, -16.48640823, -30.31277466, 87.45443726, -15.72215366, 55.01996231, 0.59123921, -0.65296066, -0.22861771, -0.41450283, 0.04267377, -0.00844038, 0.01559598, 100.03400421, 108.02389526, 33.66999817, 0.00000000
4, 0.4800, 61, -0.32248822, -0.95580399, -0.05101311, -5.47590542, -30.77571487, -0.74813020, -66.47179413, -16.48640823, -30.31277466, 87.47036743, -15.72522354, 54.86009216, 0.59171528, -0.65336788, -0.22774582, -0.41366094, 0.05147619, -0.00583109, 0.00846352, 100.03400421, 108.02389526, 33.66999817, 0.00000000
3, 0.4500, 51, 0.33267930, -0.93926668, 0.21670900, -1.42409492, -15.35697174, 15.23156548, -46.82841110, -5.75855017, -56.18240356, 100.65020752, 18.54052353, -102.80738831, 0.29616562, -0.55425781, 0.52953607, 0.56980342, -0.01445358, 0.00761098, -0.04135218, 100.10300446, 102.22183228, 33.16999817, 0.00000000
3, 0.4550, 52, 0.32597688, -0.94427240, 0.20980437, -0.92658985, -17.53869629, 15.44518185, -47.61765671, -4.38468266, -56.79625702, 100.61194611, 18.48079681, -102.91329956, 0.29616666, -0.55345255, 0.53011286, 0.57004905, -0.00874495, 0.01217321, -0.03500488, 100.10300446, 102.22183228, 33.16999817, 0.00000000
3, 0.4600, 53, 0.31940356, -0.94744611, 0.20310976, -0.57182938, -18.57245445, 15.25440121, -47.61765671, -4.38468266, -56.79625702, 100.57395172, 18.42289734, -103.02430725, 0.29613012, -0.55263007, 0.53070670, 0.57031333, -0.00314002, 0.01491368, -0.02886638, 100.10300446, 102.22183228, 33.16999817, 0.00000000
3, 0.4650, 54, 0.31075725, -0.95426017, 0.19933699, -0.61148250, -19.49467659, 14.85945702, -47.61765671, -4.38468266, -56.79625702, 100.53450775, 18.36771584, -103.13963318, 0.29606304, -0.55179268, 0.53130144, 0.57060528, 0.00458258, 0.02130663, -0.02567446, 100.10300446, 102.22183228, 33.16999817, 0.00000000
3, 0.4700, 55, 0.30738792, -0.95642895, 0.19822429, -0.61507088, -21.01004219, 14.77172852, -47.79304123, -6.22624969, -56.06547546, 100.49272156, 18.31426239, -103.26264954, 0.29595837, -0.55091888, 0.53191286, 0.57093418, 0.00705767, 0.02305976, -0.02517475, 100.10300446, 102.22183228, 33.16999817, 0.00000000
3, 0.4750, 56, 0.30700073, -0.95877415, 0.19546071, -0.68933940, -22.11106300, 14.68964386, -47.79304123, -6.22624969, -56.06547546, 100.44893646, 18.26213264, -103.39118958, 0.29582751, -0.55001789, 0.53253388, 0.57129157, 0.00657895, 0.02499205, -0.02306945, 100.10300446, 102.22183228, 33.16999817, 0.00000000
4, 0.5300, 62, -0.35313997, -0.92413229, -0.07465842, -4.37494516, -17.41772842, -1.12112761, -65.71177673, -16.25255775, -29.84507370, 87.52923584, -15.76250744, 53.55384445, 0.59592599, -0.65630507, -0.22027065, -0.40696052, 0.08148175, -0.03736628, 0.03315782, 100.03400421, 108.02389526, 33.66999817, 0.00000000
4, 0.5350, 63, -0.35000655, -0.91806662, -0.07713760, -3.57787299, -14.99691200, -1.40813065, -65.71177673, -16.25255775, -29.84507370, 87.53256989, -15.75870132, 53.47568512, 0.59619743, -0.65646464, -0.21985741, -0.40652868, 0.07840150, -0.04344899, 0.03568540, 100.03400421, 108.02389526, 33.66999817, 0.00000000
2, 0.5150, 62, -0.09397940, -0.99551404, -0.11537834, -5.52287817, -20.08398819, 1.65219259, -20.52031517, 32.35895920, -60.59631729, 80.67736053, -1.90574574, -94.59356689, 0.52478564, -0.42962664, 0.48421970, 0.55276799, 0.06083234, 0.00924707, -0.04642040, 100.02200317, 109.03336334, 0.00000000, 0.00000000
2, 0.5200, 63, -0.09439205, -0.99198633, -0.11247575, -5.83656025, -19.53325272, 2.04135656, -20.52031517, 32.35895920, -60.59631729, 80.65134430, -1.93165696, -94.68833923, 0.52453136, -0.42897856, 0.48456424, 0.55321050, 0.06079888, 0.00580695, -0.04976357, 100.02200317, 109.03336334, 0.00000000, 0.00000000
2, 0.5250, 64, -0.09365914, -0.98794806, -0.11133054, -6.22132492, -18.77476311, 2.43327856, -20.40339088, 32.00818253, -60.42092896, 80.64101410, -1.97912180, -94.77841187, 0.52432865, -0.42831478, 0.48506171, 0.55348098, 0.05941909, 0.00184289, -0.05122439, 100.02200317, 109.03336334, 0.00000000, 0.00000000
1, 0.4700, 53, -0.28046367, -0.94239759, 0.20904686, 1.30805016, -10.27688885, 1.44225824, 0.49693072, 15.98947620, -133.96667480, 99.72822571, -3.04487205, -45.92847443, -0.60123253, 0.69699824, -0.31394494, -0.23270488, 0.22681224, -0.04218180, -0.04259305, 100.07000732, 104.99607849, 33.39999771, 0.00000000
1, 0.4750, 54, -0.27616721, -0.94268978, 0.20550361, 1.43846524, -9.45750237, 0.72403252, 0.49693072, 15.98947620, -133.96667480, 99.73793030, -3.04051208, -45.97576141, -0.60106665, 0.69692981, -0.31422997, -0.23295337, 0.22258815, -0.04185897, -0.03887421, 100.07000732, 104.99607849, 33.39999771, 0.00000000
1, 0.4800, 55, -0.25517693, -0.94821441, 0.20933424, 1.46753168, -9.05927563, 0.10221516, 0.49693072, 15.98947620, -133.96667480, 99.74765015, -3.03340507, -46.02055740, -0.60089892, 0.69687468, -0.31448588, -0.23320571, 0.20170046, -0.03631737, -0.04249152, 100.07000732, 104.99607849, 33.39999771, 0.00000000
2, 0.5300, 65, -0.09384245, -0.98463041, -0.11066701, -6.53747845, -17.98039436, 2.68699121, -20.40339088, 32.00818253, -60.42092896, 80.61132813, -2.00702333, -94.86496735, 0.52413499, -0.42767394, 0.48536518, 0.55389369, 0.05894347, -0.00139415, -0.05223659, 100.02200317, 109.03336334, 0.00000000, 0.00000000
2, 0.5350, 66, -0.09568449, -0.98388040, -0.11260004, -6.67781305, -17.04682159, 2.90886068, -20.69570351, 32.00818253, -60.50862122, 80.58081818, -2.03530240, -94.94672394, 0.52396876, -0.42704743, 0.48564774, 0.55428648, 0.06029334, -0.00204113, -0.05082055, 100.02200317, 109.03336334, 0.00000000, 0.00000000
2, 0.5400, 67, -0.09720287, -0.98304963, -0.11162946, -6.88991308, -16.04353714, 3.06188631, -20.69570351, 32.91435242, -60.50862122, 80.54911041, -2.06355333, -95.02339935, 0.52383107, -0.42643690, 0.48590481, 0.55466127, 0.06131722, -0.00276446, -0.05233010, 100.02200317, 109.03336334, 0.00000000, 0.00000000
4, 0.5400, 64, -0.35112235, -0.91390508, -0.07866981, -3.02606750, -12.95544720, -1.73169267, -66.00408936, -16.45717621, -29.96199989, 87.53581238, -15.75283909, 53.40805435, 0.59643900, -0.65659904, -0.21951631, -0.40614152, 0.07960717, -0.04763843, 0.03727299, 100.03400421, 108.02389526, 33.66999817, 0.00000000
4, 0.5450, 65, -0.35285318, -0.91302985, -0.08036790, -2.50946164, -10.94855213, -2.05513072, -66.00408936, -16.45717621, -29.96199989, 87.53881836, -15.74492550, 53.35076141, 0.59665209, -0.65670800, -0.21924573, -0.40579832, 0.08146227, -0.04855097, 0.03902362, 100.03400421, 108.02389526, 33.66999817, 0.00000000
4, 0.5500, 66, -0.35396999, -0.91226327, -0.08298185, -2.02754498, -9.04574871, -2.34482455, -66.00408936, -16.45717621, -29.96199989, 87.54156494, -15.73516083, 53.30329132, 0.59683812, -0.65679300, -0.21904151, -0.40549743, 0.08273615, -0.04936387, 0.04168501, 100.03400421, 108.02389526, 33.66999817, 0.00000000
3, 0.4800, 57, 0.30229557, -0.96503842, 0.18592186, -0.58254933, -21.97039604, 14.51537609, -47.47150040, -4.96930695, -56.67933273, 100.40609741, 18.21063805, -103.51876831, 0.29569262, -0.54912508, 0.53315097, 0.57164466, 0.01042970, 0.03084916, -0.01418619, 100.10300446, 102.22183228, 33.16999817, 0.00000000
3, 0.4850, 58, 0.29338011, -0.97190040, 0.17699565, -0.65373260, -21.06665611, 14.21219730, -47.47150040, -4.96930695, -56.67933273, 100.36453247, 18.15311241, -103.64085388, 0.29561308, -0.54823780, 0.53377229, 0.57195747, 0.01844222, 0.03729400, -0.00588885, 100.10300446, 102.22183228, 33.16999817, 0.00000000
5, 0.4800, 57, 0.05750586, -0.94501024, 0.30789506, 8.59005070, -16.31201363, 6.46373415, -19.20491028, 22.15726280, -120.63723755, 108.57658386, 4.56370068, -161.75439453, -0.06055465, 0.15158251, -0.79737282, -0.58099264, 0.02208037, 0.00006783, 0.00951609, 99.98500824, 112.14580536, 32.75999832, 0.00000000
5, 0.4850, 58, 0.05969436, -0.94487596, 0.31439465, 8.79695702, -15.75368309, 6.62105703, -19.20491028, 22.15726280, -120.63723755, 108.61377716, 4.55744076, -161.83988953, -0.06011620, 0.15097597, -0.79768097, -0.58077312, 0.01979430, 0.00013110, 0.00362837, 99.98500824, 112.14580536, 32.75999832, 0.00000000
5, 0.4900, 59, 0.06121268, -0.95049357, 0.31686878, 8.71467304, -14.95541096, 6.72019291, -19.55568504, 22.39111328, -120.28646088, 108.65084839, 4.54949141, -161.92173767, -0.05970854, 0.15038589, -0.79798508, -0.58055055, 0.01814085, 0.00594461, 0.00176944, 99.98500824, 112.14580536, 32.75999832, 0.00000000
3, 0.5450, 59, 0.26934367, -0.94096833, 0.15822574, -4.52413702, -9.52188873, 8.20289993, -47.12072372, -4.29698896, -55.56854630, 99.87675476, 17.63479424, -104.63271332, 0.29594579, -0.54040837, 0.53823131, 0.57504958, 0.03373849, 0.00215539, 0.00539366, 100.10300446, 102.22183228, 33.16999817, 0.00000000
3, 0.5500, 60, 0.26410192, -0.94460624, 0.16219015, -4.66684484, -7.71290684, 7.52665281, -47.12072372, -4.29698896, -55.56854630, 99.83930969, 17.60432434, -104.67934418, 0.29606348, -0.53997779, 0.53839123, 0.57524383, 0.03846277, 0.00552383, 0.00083929, 100.10300446, 102.22183228, 33.16999817, 0.00000000
4, 0.5550, 67, -0.35588336, -0.91061127, -0.08363286, -1.68693566, -7.21168613, -2.66763830, -66.26717377, -18.03566170, -29.40660667, 87.54343414, -15.72338104, 53.26527405, 0.59700257, -0.65685111, -0.21890029, -0.40523741, 0.08483752, -0.05107022, 0.04236628, 100.03400421, 108.02389526, 33.66999817, 0.00000000
4, 0.5600, 68, -0.35526922, -0.91132784, -0.08461775, -1.52286983, -5.48148727, -2.98855782, -66.26717377, -18.03566170, -29.40660667, 87.54370880, -15.70961952, 53.23615646, 0.59715140, -0.65687978, -0.21881621, -0.40501693, 0.08444773, -0.05041722, 0.04336049, 100.03400421, 108.02389526, 33.66999817, 0.00000000
4, 0.5650, 69, -0.35441536, -0.91213012, -0.08816555, -1.10741854, -4.12895298, -3.39157057, -66.03332520, -16.42794418, -29.81584358, 87.48874664, -15.79333401, 53.21952820, 0.59723634, -0.65679729, -0.21802826, -0.40545008, 0.08301606, -0.04943214, 0.04645669, 100.03400421, 108.02389526, 33.66999817, 0.00000000
5, 0.4950, 60, 0.06297381, -0.95829391, 0.32155645, 8.81493759, -14.39820862, 6.73989725, -19.55568504, 22.39111328, -120.28646088, 108.68863678, 4.54061174, -162.00096130, -0.05932008, 0.14980942, -0.79828984, -0.58032036, 0.01623178, 0.01394347, -0.00229383, 99.98500824, 112.14580536, 32.75999832, 0.00000000
5, 0.5000, 61, 0.06552405, -0.96628851, 0.31624115, 8.66327572, -13.77450275, 6.83314705, -19.49722290, 22.21572685, -120.92955017, 108.72591400, 4.53034115, -162.07739258, -0.05895667, 0.14924501, -0.79858929, -0.58009082, 0.01351141, 0.02213431, 0.00364356, 99.98500824, 112.14580536, 32.75999832, 0.00000000
5, 0.5050, 62, 0.07086940, -0.97770089, 0.31380093, 8.40419769, -13.15205002, 6.92716694, -19.49722290, 22.21572685, -120.92955017, 108.76211548, 4.51867580, -162.15104675, -0.05861896, 0.14869231, -0.79888064, -0.57986563, 0.00796807, 0.03373498, 0.00668773, 99.98500824, 112.14580536, 32.75999832, 0.00000000
1, 0.4850, 56, -0.23194781, -0.95103765, 0.21794920, 1.28636241, -8.90827751, -0.45271450, 0.49693072, 15.46331501, -133.64512634, 99.75637817, -3.02368283, -46.06414413, -0.60073304, 0.69682366, -0.31471908, -0.23347054, 0.17861032, -0.03349033, -0.05089880, 100.07000732, 104.99607849, 33.39999771, 0.00000000
1, 0.4900, 57, -0.21198097, -0.94634151, 0.22587335, 0.79486334, -9.56156921, -0.98781210, 0.49693072, 15.46331501, -133.64512634, 99.76277161, -3.01078629, -46.11051178, -0.60056770, 0.69676030, -0.31494823, -0.23377591, 0.15883188, -0.03818959, -0.05864249, 100.07000732, 104.99607849, 33.39999771, 0.00000000
1, 0.4950, 58, -0.20530696, -0.93771851, 0.23397985, 0.62008268, -9.87059402, -1.23831820, -0.46769950, 15.66793346, -134.14205933, 99.76834869, -2.99639082, -46.15818024, -0.60040081, 0.69669247, -0.31517598, -0.23409957, 0.15238366, -0.04682192, -0.06662028, 100.07000732, 104.99607849, 33.39999771, 0.00000000
2, 0.5450, 68, -0.09684644, -0.98272783, -0.11296157, -6.75193834, -15.17625046, 2.97118878, -20.69570351, 32.91435242, -60.50862122, 80.51797485, -2.09068346, -95.09585571, 0.52370667, -0.42585218, 0.48614344, 0.55501878, 0.06048204, -0.00297913, -0.05153635, 100.02200317, 109.03336334, 0.00000000, 0.00000000
2, 0.5500, 69, -0.09573194, -0.98190945, -0.11937813, -6.61530924, -14.13517094, 2.81354070, -20.60800934, 33.32358932, -60.45016098, 80.48737335, -2.11621976, -95.16328430, 0.52359778, -0.42529890, 0.48635840, 0.55535734, 0.05891443, -0.00369263, -0.04564575, 100.02200317, 109.03336334, 0.00000000, 0.00000000
2, 0.5550, 70, -0.09259669, -0.98255587, -0.12464808, -5.98453808, -13.16218853, 2.62249041, -20.60800934, 33.32358932, -60.45016098, 80.45977783, -2.14004993, -95.22605896, 0.52349299, -0.42478746, 0.48656267, 0.55566853, 0.05535657, -0.00294879, -0.04086240, 100.02200317, 109.03336334, 0.00000000, 0.00000000
3, 0.5550, 61, 0.26088291, -0.94463527, 0.16547577, -5.02641296, -6.83201170, 6.80685139, -47.32534409, -4.58930111, -56.35778809, 99.80166626, 17.57661247, -104.72074890, 0.29619220, -0.53958136, 0.53851366, 0.57543486, 0.04121313, 0.00529939, -0.00303782, 100.10300446, 102.22183228, 33.16999817, 0.00000000
3, 0.5600, 62, 0.25758153, -0.94194388, 0.16249841, -5.16922665, -5.47494793, 6.30005503, -47.32534409, -4.58930111, -56.35778809, 99.76557922, 17.55022430, -104.75466919, 0.29634342, -0.53922898, 0.53860295, 0.57560378, 0.04406694, 0.00236544, -0.00063281, 100.10300446, 102.22183228, 33.16999817, 0.00000000
3, 0.5650, 63, 0.25343588, -0.93544704, 0.15903786, -5.09838104, -4.84606457, 5.88724089, -47.32534409, -4.58930111, -56.35778809, 99.73097992, 17.52531433, -104.78493500, 0.29649729, -0.53890294, 0.53867602, 0.57576138, 0.04779254, -0.00436118, 0.00227516, 100.10300446, 102.22183228, 33.16999817, 0.00000000
4, 0.5700, 70, -0.35558975, -0.91205287, -0.08938563, -0.86920196, -2.81352043, -3.65185809, -66.03332520, -16.42794418, -29.81584358, 87.48860931, -15.77571011, 53.20409393, 0.59735256, -0.65678966, -0.21804421, -0.40528253, 0.08364180, -0.04933473, 0.04721974, 100.03400421, 108.02389526, 33.66999817, 0.00000000
4, 0.5750, 71, -0.35515976, -0.91423076, -0.09038994, -0.73825878, -1.39542913, -3.87306786, -66.03332520, -16.42794418, -29.81584358, 87.48712158, -15.75667000, 53.19596863, 0.59745550, -0.65675825, -0.21810576, -0.40514860, 0.08352646, -0.04724491, 0.04820102, 100.03400421, 108.02389526, 33.66999817, 0.00000000
1, 0.5000, 59, -0.20249826, -0.93347800, 0.23575547, 0.73001146, -10.24169731, -1.70424139, -0.46769950, 15.66793346, -134.14205933, 99.82328796, -3.07616305, -46.21047974, -0.60015792, 0.69664747, -0.31601292, -0.23372793, 0.14901088, -0.05094546, -0.06786263, 100.07000732, 104.99607849, 33.39999771, 0.00000000
1, 0.5050, 60, -0.20912868, -0.93570912, 0.23956017, 0.87812036, -10.82217121, -2.14058900, -0.46769950, 15.66793346, -134.14205933, 99.83040619, -3.05645537, -46.26206589, -0.59996039, 0.69658917, -0.31624064, -0.23410054, 0.15511876, -0.04860128, -0.07115485, 100.07000732, 104.99607849, 33.39999771, 0.00000000
5, 0.5100, 63, 0.07341953, -0.98650652, 0.30932295, 8.18160915, -12.70316982, 7.29130793, -19.49722290, 22.21572685, -120.92955017, 108.79734802, 4.50460625, -162.22312927, -0.05830755, 0.14813763, -0.79916728, -0.57964414, 0.00518086, 0.04272152, 0.01175629, 99.98500824, 112.14580536, 32.75999832, 0.00000000
5, 0.5150, 64, 0.06740060, -0.99239689, 0.29890412, 7.88019562, -11.66436768, 7.60851908, -18.44489861, 22.62496376, -120.40338898, 108.81854248, 4.48192835, -162.31318665, -0.05798431, 0.14740746, -0.79941452, -0.57952166, 0.01086919, 0.04874480, 0.02264601, 99.98500824, 112.14580536, 32.75999832, 0.00000000
4, 0.6000, 72, -0.34436557, -0.93217772, -0.09110441, 1.34280837, 4.76828766, -5.09647179, -65.50716400, -17.27565002, -29.90353584, 87.48354340, -15.64018726, 53.24419403, 0.59770709, -0.65640759, -0.21906292, -0.40482938, 0.07465724, -0.02983570, 0.04882479, 100.03400421, 108.02389526, 33.66999817, 0.00000000
4, 0.6050, 73, -0.34664848, -0.93945295, -0.09352042, 2.39523840, 6.25360012, -5.09195042, -65.85793304, -17.45103836, -29.75738144, 87.48710632, -15.61338234, 53.27547455, 0.59766859, -0.65631092, -0.21941416, -0.40485278, 0.07739095, -0.02268857, 0.05128135, 100.03400421, 108.02389526, 33.66999817, 0.00000000
2, 0.5600, 71, -0.09369854, -0.98707014, -0.12639725, -5.11087704, -11.97864819, 2.15760279, -20.57877731, 33.58666992, -61.21017075, 80.43637085, -2.16063023, -95.28336334, 0.52338564, -0.42433441, 0.48675224, 0.55594963, 0.05608077, 0.00165078, -0.03953476, 100.02200317, 109.03336334, 0.00000000, 0.00000000
5, 0.5600, 65, 0.07864087, -0.99282652, 0.26748407, 7.02363777, -0.51851249, 7.47082996, -19.26337242, 22.21572685, -120.69570160, 109.16117096, 4.23502207, -162.66394043, -0.05751829, 0.14390379, -0.80184579, -0.57708478, -0.00464274, 0.05077028, 0.05970772, 99.98500824, 112.14580536, 32.75999832, 0.00000000
5, 0.5650, 66, 0.08459605, -0.99191374, 0.25746047, 6.15791512, 0.02753058, 7.35906410, -19.61414719, 20.60800934, -121.45571136, 109.13687897, 4.20408726, -162.74270630, -0.05737013, 0.14318699, -0.80185366, -0.57726693, -0.01116699, 0.04984035, 0.06980960, 99.98500824, 112.14580536, 32.75999832, 0.00000000
3, 0.5700, 64, 0.24573341, -0.93790174, 0.15817930, -4.70663929, -4.35428238, 5.29457569, -47.38380432, -4.70622635, -56.44548416, 99.69925690, 17.50288963, -104.81213379, 0.29663861, -0.53860813, 0.53873861, 0.57590586, 0.05510837, -0.00211832, 0.00262036, 100.10300446, 102.22183228, 33.16999817, 0.00000000
3, 0.5750, 65, 0.24166632, -0.94777352, 0.15682778, -4.70749378, -3.06297827, 4.57574463, -47.38380432, -4.70622635, -56.44548416, 99.66974640, 17.48291969, -104.83198547, 0.29679221, -0.53836268, 0.53876746, 0.57602930, 0.05883734, 0.00756389, 0.00349519, 100.10300446, 102.22183228, 33.16999817, 0.00000000
3, 0.5800, 66, 0.24820104, -0.95356804, 0.16162433, -4.95662308, -1.22229016, 4.07579231, -47.20841980, -4.18006420, -56.70856476, 99.64199829, 17.46385002, -104.84189606, 0.29698232, -0.53817189, 0.53875440, 0.57612169, 0.05198269, 0.01318035, -0.00174745, 100.10300446, 102.22183228, 33.16999817, 0.00000000
1, 0.5700, 61, -0.17267075, -0.97027767, 0.19313499, 0.55346358, -0.49587500, -10.23274326, 0.40923706, 14.52791595, -134.75592041, 99.91181946, -2.67110801, -46.40705490, -0.59820467, 0.69752556, -0.31532595, -0.23702082, 0.12536122, -0.01403505, -0.02321867, 100.07000732, 104.99607849, 33.39999771, 0.00000000
1, 0.5750, 62, -0.19304886, -0.96260011, 0.17379396, 0.86997026, -0.18141346, -10.15917397, 0.40923706, 14.52791595, -134.75592041, 99.91567993, -2.62088633, -46.39928055, -0.59807110, 0.69768530, -0.31503054, -0.23728049, 0.14666627, -0.02171169, -0.00385545, 100.07000732, 104.99607849, 33.39999771, 0.00000000
4, 0.6100, 74, -0.35337600, -0.94359875, -0.09785133, 3.30346465, 8.05116653, -5.21822643, -65.85793304, -17.45103836, -29.75738144, 87.49270630, -15.58554554, 53.31604004, 0.59758902, -0.65620476, -0.21983187, -0.40491554, 0.08458190, -0.01867539, 0.05568385, 100.03400421, 108.02389526, 33.66999817, 0.00000000
4, 0.6150, 75, -0.35800231, -0.94661874, -0.09984744, 4.56674528, 9.77725983, -5.14403820, -65.18561554, -16.48640823, -29.93276787, 87.47654724, -15.59692478, 53.36903000, 0.59745502, -0.65604234, -0.22001046, -0.40527928, 0.08934658, -0.01569089, 0.05760946, 100.03400421, 108.02389526, 33.66999817, 0.00000000
4, 0.6200, 76, -0.36527726, -0.94758499, -0.10078193, 5.68771791, 11.53530502, -4.92661381, -65.18561554, -16.48640823, -29.93276787, 87.48922729, -15.56978703, 53.42771912, 0.59726846, -0.65593934, -0.22055273, -0.40542635, 0.09675115, -0.01475996, 0.05852384, 100.03400421, 108.02389526, 33.66999817, 0.00000000
3, 0.5850, 67, 0.25584209, -0.95271820, 0.16348881, -5.10005426, -0.31489250, 3.63361502, -47.20841980, -4.18006420, -56.70856476, 99.61625671, 17.40699577, -104.84352112, 0.29742154, -0.53788173, 0.53887117, 0.57605696, 0.04371381, 0.01206228, -0.00401297, 100.10300446, 102.22183228, 33.16999817, 0.00000000
3, 0.5900, 68, 0.25701028, -0.95250297, 0.16512491, -4.92161655, 0.34672982, 3.25498176, -47.20841980, -4.18006420, -56.70856476, 99.59133148, 17.39065742, -104.84457397, 0.29762703, -0.53775001, 0.53881937, 0.57612228, 0.04194077, 0.01159111, -0.00602413, 100.10300446, 102.22183228, 33.16999817, 0.00000000
5, 0.5700, 67, 0.08514319, -0.98714727, 0.24758722, 5.21993923, 0.60745245, 7.28368759, -19.61414719, 20.60800934, -121.45571136, 109.16230774, 4.16868973, -162.75181580, -0.05754222, 0.14296052, -0.80202895, -0.57706219, -0.01229647, 0.04502985, 0.07968646, 99.98500824, 112.14580536, 32.75999832, 0.00000000
5, 0.5750, 68, 0.08636028, -0.97850519, 0.24395622, 4.10320187, 1.25496936, 7.00457048, -19.61414719, 22.47880745, -120.92955017, 109.18241882, 4.13354778, -162.75740051, -0.05773691, 0.14275728, -0.80217278, -0.57689315, -0.01412682, 0.03646794, 0.08368389, 99.98500824, 112.14580536, 32.75999832, 0.00000000
5, 0.5800, 69, 0.09383774, -0.96793145, 0.24226160, 3.23136806, 2.42677331, 6.56986713, -19.61414719, 22.47880745, -120.92955017, 109.19862366, 4.09853697, -162.75674438, -0.05796710, 0.14259657, -0.80228889, -0.57674837, -0.02221323, 0.02595034, 0.08567371, 99.98500824, 112.14580536, 32.75999832, 0.00000000
2, 0.5650, 72, -0.09496076, -0.99060756, -0.12451643, -4.44899082, -10.86479950, 1.69065404, -20.57877731, 33.58666992, -61.21017075, 80.41610718, -2.17800117, -95.33556366, 0.52327824, -0.42393333, 0.48692372, 0.55620664, 0.05702476, 0.00526095, -0.04177497, 100.02200317, 109.03336334, 0.00000000, 0.00000000
2, 0.5700, 73, -0.10123305, -0.99346250, -0.12444117, -3.61331606, -9.57600021, 1.05331028, -20.57877731, 33.58666992, -61.21017075, 80.39981079, -2.19116950, -95.38193512, 0.52316707, -0.42359596, 0.48707408, 0.55643642, 0.06305154, 0.00817430, -0.04214007, 100.02200317, 109.03336334, 0.00000000, 0.00000000
1, 0.5800, 63, -0.20322691, -0.95616341, 0.17213260, 1.66948950, 1.32598650, -10.27363110, 0.40923706, 15.96024513, -134.34667969, 99.92321777, -2.57138181, -46.38396835, -0.59793246, 0.69788301, -0.31470048, -0.23748627, 0.15771581, -0.02816457, -0.00208735, 100.07000732, 104.99607849, 33.39999771, 0.00000000
1, 0.5850, 64, -0.20843413, -0.95563161, 0.16559970, 1.93158841, 3.14358401, -10.44395638, 0.40923706, 15.96024513, -134.34667969, 99.93165588, -2.52260303, -46.35954285, -0.59780902, 0.69810855, -0.31432042, -0.23763758, 0.16379184, -0.02869795, 0.00458422, 100.07000732, 104.99607849, 33.39999771, 0.00000000
1, 0.5900, 65, -0.20234160, -0.95593333, 0.16812499, 2.08772969, 4.85997486, -10.79060745, 0.40923706, 15.96024513, -134.34667969, 99.94050598, -2.47357750, -46.32633972, -0.59770060, 0.69836050, -0.31388634, -0.23774359, 0.15854681, -0.02841112, 0.00222930, 100.07000732, 104.99607849, 33.39999771, 0.00000000
3, 0.6350, 69, 0.25792101, -0.94624448, 0.18516707, -3.64983535, 5.07000732, -2.08615565, -47.64688492, -4.32622051, -57.03010941, 99.46502686, 17.31894684, -104.68597412, 0.29942843, -0.53789341, 0.53774101, 0.57606238, 0.04001061, 0.00463083, -0.02832155, 100.10300446, 102.22183228, 33.16999817, 0.00000000
3, 0.6400, 70, 0.24706069, -0.94458914, 0.18480876, -3.68574810, 5.97566938, -2.49455786, -47.64688492, -4.32622051, -57.03010941, 99.45644379, 17.32633209, -104.65295410, 0.29959244, -0.53805399, 0.53751177, 0.57604116, 0.05072209, 0.00293392, -0.02792992, 100.10300446, 102.22183228, 33.16999817, 0.00000000
2, 0.6000, 74, -0.13304964, -1.01920509, -0.12169585, -1.85339415, -2.48957205, -0.70996118, -20.46185303, 32.24203491, -62.05787659, 80.38242340, -2.26561189, -95.54244232, 0.52275521, -0.42246124, 0.48790979, 0.55695373, 0.09350951, 0.03402466, -0.04520560, 100.02200317, 109.03336334, 0.00000000, 0.00000000
2, 0.6050, 75, -0.13423507, -1.02156043, -0.12641127, -2.27849412, -1.20922315, -0.58859622, -20.46185303, 32.24203491, -62.05787659, 80.37128448, -2.26372004, -95.54889679, 0.52275717, -0.42239243, 0.48787114, 0.55703795, 0.09472799, 0.03640906, -0.04067016, 100.02200317, 109.03336334, 0.00000000, 0.00000000
2, 0.6100, 76, -0.13498525, -1.01953113, -0.12883151, -2.73679066, 0.45052862, -0.25311604, -20.75416565, 33.23589706, -61.53171539, 80.35752106, -2.26209307, -95.54688263, 0.52281106, -0.42234635, 0.48778969, 0.55709368, 0.09550839, 0.03441653, -0.03847323, 100.02200317, 109.03336334, 0.00000000, 0.00000000
5, 0.5850, 70, 0.10064722, -0.95528686, 0.24126010, 2.32945347, 3.42500043, 5.50627851, -19.61414719, 22.47880745, -120.92955017, 109.21077728, 4.06690502, -162.74960327, -0.05821107, 0.14249590, -0.80237311, -0.57663155, -0.02958828, 0.01334188, 0.08690187, 99.98500824, 112.14580536, 32.75999832, 0.00000000
5, 0.5900, 71, 0.11152900, -0.94374645, 0.24759836, 2.15539289, 6.37798309, 4.33597898, -18.29874229, 21.68956375, -120.69570160, 109.22319031, 4.03593588, -162.72656250, -0.05853004, 0.14251003, -0.80243802, -0.57650530, -0.04101436, 0.00183597, 0.08078001, 99.98500824, 112.14580536, 32.75999832, 0.00000000
5, 0.5950, 72, 0.12617794, -0.93587315, 0.25353873, 2.35338831, 8.29284000, 3.02094054, -18.29874229, 21.68956375, -120.69570160, 109.23737335, 4.00801563, -162.69230652, -0.05888176, 0.14261886, -0.80249482, -0.57636356, -0.05616293, -0.00599337, 0.07507268, 99.98500824, 112.14580536, 32.75999832, 0.00000000
1, 0.5950, 66, -0.16377899, -0.96060789, 0.17707793, 2.14440894, 6.04577589, -10.83316898, 0.90616781, 15.52177715, -134.25898743, 99.94942474, -2.42535138, -46.28725052, -0.59760600, 0.69862682, -0.31342047, -0.23781380, 0.12080643, -0.02375998, -0.00647508, 100.07000732, 104.99607849, 33.39999771, 0.00000000
1, 0.6000, 67, -0.11540194, -0.96908319, 0.19400249, 2.22943187, 7.91889763, -10.47413445, 0.90616781, 15.52177715, -134.25898743, 99.97081757, -2.40720677, -46.23936844, -0.59752923, 0.69891155, -0.31308025, -0.23761797, 0.07295392, -0.01528999, -0.02302619, 100.07000732, 104.99607849, 33.39999771, 0.00000000
1, 0.6050, 68, -0.08327017, -0.97352993, 0.21555562, 1.69662237, 7.94061470, -10.11631393, 1.08155513, 15.84332085, -134.25898743, 99.97717285, -2.36416984, -46.19152451, -0.59748137, 0.69917560, -0.31258187, -0.23761761, 0.04129208, -0.01086002, -0.04427516, 100.07000732, 104.99607849, 33.39999771, 0.00000000
5, 0.6000, 73, 0.14003621, -0.93351680, 0.26667285, 2.98092127, 10.17786884, 1.80533862, -19.76030350, 22.12803268, -121.07570648, 109.25541687, 3.98272014, -162.64712524, -0.05926500, 0.14281927, -0.80255479, -0.57619119, -0.07047432, -0.00828207, 0.06222829, 99.98500824, 112.14580536, 32.75999832, 0.00000000
5, 0.6050, 74, 0.15389328, -0.93617111, 0.27900851, 3.10895896, 11.91806126, 0.58820546, -19.76030350, 22.12803268, -121.07570648, 109.27479553, 3.96028304, -162.59170532, -0.05967775, 0.14310631, -0.80260563, -0.57600647, -0.08473322, -0.00554332, 0.05021933, 99.98500824, 112.14580536, 32.75999832, 0.00000000
4, 0.6250, 77, -0.37044835, -0.94428170, -0.09775419, 6.77840805, 12.63804531, -4.72050619, -65.18561554, -16.48640823, -29.93276787, 87.50582886, -15.54344273, 53.49217987, 0.59703624, -0.65584689, -0.22113705, -0.40559971, 0.10237001, -0.01819935, 0.05575343, 100.03400421, 108.02389526, 33.66999817, 0.00000000
4, 0.6300, 78, -0.37382013, -0.94006795, -0.09007673, 7.66039658, 13.22357082, -4.55425978, -66.32563782, -16.86641312, -30.19584846, 87.52604675, -15.51783180, 53.55971527, 0.59676987, -0.65576828, -0.22174737, -0.40578547, 0.10617487, -0.02254746, 0.04839346, 100.03400421, 108.02389526, 33.66999817, 0.00000000
4, 0.6350, 79, -0.37966114, -0.93225342, -0.08308613, 8.36598873, 13.70744324, -4.52567768, -66.32563782, -16.86641312, -30.19584846, 87.54915619, -15.49228096, 53.62975693, 0.59647781, -0.65569949, -0.22238183, -0.40597874, 0.11244510, -0.03049752, 0.04177913, 100.03400421, 108.02389526, 33.66999817, 0.00000000
3, 0.6450, 71, 0.24117821, -0.94980156, 0.18353666, -3.39798307, 8.12395096, -3.10153747, -47.64688492, -5.46623802, -56.76702499, 99.45274353, 17.33495522, -104.60831451, 0.29978478, -0.53828645, 0.53724736, 0.57597065, 0.05674312, 0.00817555, -0.02674580, 100.10300446, 102.22183228, 33.16999817, 0.00000000
3, 0.6500, 72, 0.23768160, -0.95671618, 0.17192169, -3.18300653, 10.10427094, -3.88448691, -47.64688492, -5.46623802, -56.76702499, 99.45337677, 17.34581566, -104.55277252, 0.29999873, -0.53858972, 0.53694391, 0.57585871, 0.06041097, 0.01514048, -0.01515466, 100.10300446, 102.22183228, 33.16999817, 0.00000000
3, 0.6550, 73, 0.23982854, -0.96838021, 0.16942777, -3.18019867, 12.94541264, -4.51518631, -47.73458099, -5.08623219, -57.17626190, 99.45858765, 17.35745430, -104.48199463, 0.30026323, -0.53897899, 0.53658831, 0.57568800, 0.05845582, 0.02687517, -0.01260109, 100.10300446, 102.22183228, 33.16999817, 0.00000000
2, 0.6150, 77, -0.13609867, -1.01587939, -0.13052610, -3.44237685, 1.90220797, 0.04329757, -20.75416565, 33.23589706, -61.53171539, 80.33994293, -2.26070690, -95.53746033, 0.52291602, -0.42231318, 0.48766342, 0.55713093, 0.09664620, 0.03081161, -0.03705952, 100.02200317, 109.03336334, 0.00000000, 0.00000000
2, 0.6200, 78, -0.13609934, -1.01189780, -0.12974240, -4.24886560, 3.73150158, 0.76208645, -20.75416565, 33.23589706, -61.53171539, 80.31794739, -2.26132727, -95.51840973, 0.52309221, -0.42229074, 0.48748901, 0.55713516, 0.09664749, 0.02689242, -0.03820988, 100.02200317, 109.03336334, 0.00000000, 0.00000000
2, 0.6250, 79, -0.13651231, -1.00788713, -0.12677965, -4.91524124, 4.73116922, 1.26055622, -20.43262100, 33.44051361, -61.53171539, 80.32836914, -2.33916903, -95.49131775, 0.52350277, -0.42206350, 0.48778224, 0.55666488, 0.09636962, 0.02292874, -0.04128361, 100.02200317, 109.03336334, 0.00000000, 0.00000000
5, 0.6400, 75, 0.14926648, -0.96730685, 0.26866335, -1.49999857, 18.29659843, -2.91360188, -19.02952385, 22.30341911, -120.28646088, 109.33805084, 3.89053512, -161.99559021, -0.06308416, 0.14696947, -0.80223984, -0.57517970, -0.08134346, 0.02590862, 0.06172412, 99.98500824, 112.14580536, 32.75999832, 0.00000000
5, 0.6450, 76, 0.15346020, -0.96479732, 0.26544464, -2.54774737, 19.11862564, -3.11764026, -19.02952385, 22.30341911, -120.28646088, 109.33179474, 3.87359166, -161.90000916, -0.06369148, 0.14755134, -0.80210304, -0.57515466, -0.08583316, 0.02335138, 0.06486773, 99.98500824, 112.14580536, 32.75999832, 0.00000000
2, 0.6300, 80, -0.13602205, -0.99890649, -0.12436689, -5.58022404, 5.76465511, 1.86384380, -20.43262100, 33.44051361, -61.53171539, 80.29924011, -2.34350967, -95.46131134, 0.52377349, -0.42203635, 0.48754933, 0.55663490, 0.09515262, 0.01400685, -0.04386684, 100.02200317, 109.03336334, 0.00000000, 0.00000000
2, 0.6350, 81, -0.13407777, -0.98978430, -0.12322783, -5.71649981, 6.62672043, 2.36281610, -20.43262100, 32.68050385, -61.73633194, 80.26923370, -2.34956312, -95.42662811, 0.52407706, -0.42201629, 0.48730248, 0.55658042, 0.09310909, 0.00497702, -0.04552038, 100.02200317, 109.03336334, 0.00000000, 0.00000000
1, 0.6100, 69, -0.05458825, -0.97104919, 0.22340716, 1.41756880, 7.61145639, -9.55977154, 1.08155513, 15.84332085, -134.25898743, 99.98227692, -2.32359862, -46.14579010, -0.59744304, 0.69942117, -0.31210619, -0.23761651, 0.01331176, -0.01336712, -0.05195639, 100.07000732, 104.99607849, 33.39999771, 0.00000000
