time,ax,ay,az,aT
20.878000,-1.2855,-1.1467,1.7617,2.464
20.879000,-1.3511,-1.2008,1.3425,2.252
20.880000,-1.3868,-1.2429,1.0289,2.128
20.881000,-1.3669,-1.2591,0.6416,1.966
20.881000,-1.2677,-1.2347,0.1972,1.781
20.881000,-1.0755,-1.1672,-0.1322,1.593
20.882000,-0.8740,-1.1380,-0.3777,1.484
20.883000,-0.6461,-1.0707,-0.7143,1.440
20.883000,-0.4395,-1.0246,-1.1825,1.625
20.883000,-0.2443,-0.9443,-1.4958,1.786
20.884000,0.0377,-0.8965,-1.7165,1.937
20.884000,0.3305,-0.7685,-1.8763,2.054
20.884000,0.5539,-0.6917,-1.9921,2.180
20.885000,0.7161,-0.6512,-2.0021,2.224
20.885000,0.9019,-0.5799,-1.9570,2.232
20.885000,1.0688,-0.5712,-1.8925,2.247
20.889000,1.1321,-0.5583,-1.7610,2.167
20.894000,1.0731,-0.5939,-1.7703,2.154
20.899000,1.0695,-0.6614,-1.9920,2.356
20.905000,0.9560,-0.7747,-2.3856,2.684
20.910000,0.7228,-0.8330,-2.6855,2.903
20.914000,0.5249,-0.8551,-3.0355,3.197
20.922000,0.3810,-0.8242,-3.4764,3.593
20.983000,0.3116,-0.7492,-3.7955,3.881
20.984000,0.3396,-0.6656,-3.9908,4.060
20.984000,0.4147,-0.5901,-3.9359,4.001
20.984000,0.4872,-0.5009,-3.8154,3.879
20.985000,0.5072,-0.4484,-3.6460,3.708
20.985000,0.4893,-0.4640,-3.4013,3.468
20.985000,0.3712,-0.5506,-3.2339,3.301
20.985000,0.1915,-0.5719,-3.1844,3.241
20.986000,0.0187,-0.5836,-3.0679,3.123
20.986000,-0.2072,-0.5568,-2.9851,3.044
20.986000,-0.3935,-0.5782,-2.9092,2.992
20.986000,-0.5289,-0.5448,-2.8427,2.942
20.987000,-0.5828,-0.5617,-2.7784,2.894
20.990000,-0.5263,-0.5472,-2.5731,2.683
20.997000,-0.4074,-0.4773,-2.2916,2.376
20.999000,-0.2254,-0.4073,-1.9961,2.050
21.003000,0.0038,-0.2965,-1.6604,1.687
21.009000,0.2683,-0.1572,-1.3275,1.363
21.015000,0.5212,-0.0303,-0.8991,1.040
21.019000,0.7175,0.0477,-0.5424,0.901
21.026000,0.8192,0.1460,-0.3195,0.891
21.029000,0.8819,0.1615,-0.1917,0.917
21.034000,0.9152,0.2115,-0.1111,0.946
21.038000,0.9621,0.2481,-0.0060,0.994
21.112000,1.0064,0.2618,0.0686,1.042
21.113000,1.0266,0.2625,0.0766,1.062
21.113000,0.9153,0.2596,0.0134,0.952
21.113000,0.7396,0.2440,0.0105,0.779
21.114000,0.5206,0.1749,-0.0088,0.549
21.114000,0.2724,0.1050,-0.0755,0.302
21.114000,0.0157,0.0414,-0.1129,0.121
21.114000,-0.1858,0.0773,-0.1374,0.244
21.114000,-0.3852,0.1238,-0.2351,0.468
21.115000,-0.5280,0.1404,-0.3174,0.632
21.115000,-0.6456,0.1870,-0.4034,0.784
21.115000,-0.6721,0.1993,-0.4838,0.852
21.115000,-0.5718,0.2780,-0.4917,0.804
21.116000,-0.4905,0.3583,-0.4272,0.743
21.116000,-0.3614,0.4525,-0.3933,0.700
21.119000,-0.1658,0.6134,-0.1916,0.664
21.124000,0.0774,0.7784,0.1251,0.792
21.128000,0.3138,0.8972,0.4876,1.068
21.133000,0.4935,0.9720,0.8838,1.403
21.138000,0.6436,0.9764,1.2063,1.680
21.143000,0.6830,0.8913,1.2685,1.694
21.154000,0.7385,0.8653,1.1115,1.590
21.154000,0.8464,0.9350,1.2894,1.804
21.223000,0.8882,0.9235,1.6655,2.101
21.224000,0.9581,1.0052,2.0219,2.453
21.224000,0.9280,1.0889,2.3849,2.781
21.225000,0.8871,1.1358,2.6139,2.985
21.225000,0.8308,1.1936,2.7330,3.096
21.225000,0.7011,1.1853,2.6758,3.009
21.225000,0.5289,1.1568,2.3516,2.674
21.226000,0.3805,1.1728,1.8512,2.224
21.226000,0.2236,1.1958,1.3302,1.803
21.226000,0.0934,1.2864,0.9744,1.616
21.226000,0.0274,1.4112,0.7357,1.592
21.227000,-0.0874,1.5348,0.6448,1.667
21.227000,-0.1725,1.6500,0.6512,1.782
21.227000,-0.2112,1.7254,0.7479,1.892
21.228000,-0.1964,1.8259,0.8485,2.023
21.233000,-0.1514,1.9079,0.9056,2.117
21.238000,-0.0997,1.9096,0.9451,2.133
21.241000,-0.0435,1.9125,0.8185,2.081
21.247000,-0.0157,1.9001,0.6600,2.012
21.251000,-0.0452,1.8968,0.5024,1.963
21.259000,-0.1220,1.8695,0.4078,1.917
21.264000,-0.2727,1.8162,0.4378,1.888
21.267000,-0.4137,1.6986,0.7216,1.891
21.272000,-0.5018,1.5861,1.0221,1.952
21.344000,-0.5511,1.4449,1.3083,2.026
21.345000,-0.6192,1.3250,1.5950,2.164
21.345000,-0.6845,1.1733,1.8657,2.308
21.345000,-0.7138,1.1161,2.1590,2.533
21.345000,-0.7530,1.0763,2.3512,2.693
21.346000,-0.8764,1.0555,2.3257,2.700
21.346000,-0.9504,1.0180,2.1951,2.600
21.346000,-0.9856,0.9735,2.2419,2.635
21.346000,-0.9605,0.8980,2.3365,2.681
21.347000,-0.9255,0.7987,2.4121,2.704
21.347000,-0.8520,0.6902,2.4662,2.699
21.348000,-0.6847,0.5797,2.6086,2.759
21.348000,-0.4783,0.4529,2.9134,2.987
21.348000,-0.2918,0.3187,3.1202,3.150
21.348000,-0.1155,0.2656,3.1740,3.187
21.353000,0.0491,0.1429,3.2758,3.279
21.357000,0.1643,0.0367,3.3634,3.368
21.361000,0.3338,-0.0604,3.3722,3.389
21.367000,0.4649,-0.1626,3.3404,3.377
21.371000,0.5871,-0.3059,3.3494,3.414
21.377000,0.6625,-0.4045,3.3157,3.405
21.381000,0.6602,-0.5570,3.1320,3.249
21.386000,0.5107,-0.7370,2.8560,2.993
21.438000,0.3172,-0.9613,2.6075,2.797
21.439000,0.1198,-1.1273,2.1666,2.445
21.439000,-0.1183,-1.3042,1.6269,2.088
21.439000,-0.3333,-1.4010,1.0028,1.755
21.440000,-0.5043,-1.5182,0.4069,1.651
21.440000,-0.6447,-1.6243,-0.1134,1.751
21.440000,-0.6757,-1.6499,-0.6033,1.882
21.440000,-0.6558,-1.6597,-0.9458,2.020
21.441000,-0.6259,-1.6610,-1.2318,2.161
21.441000,-0.4931,-1.6088,-1.6213,2.337
21.441000,-0.3657,-1.5984,-1.8513,2.473
21.446000,-0.2389,-1.6207,-1.8737,2.489
21.451000,-0.1318,-1.6591,-1.9805,2.587
21.456000,0.1016,-1.6107,-2.1238,2.667
21.461000,0.3158,-1.5092,-2.1048,2.609
21.465000,0.5616,-1.4527,-2.2038,2.699
21.470000,0.7443,-1.4077,-2.3106,2.806
21.477000,0.9081,-1.3954,-2.3776,2.903
21.481000,0.9788,-1.4152,-2.4626,3.004
21.485000,0.9280,-1.5056,-2.6206,3.162
21.546000,0.8616,-1.5941,-2.8327,3.363
21.547000,0.7505,-1.6017,-3.1875,3.645
21.548000,0.5733,-1.6902,-3.4512,3.885
21.548000,0.3157,-1.7490,-3.9423,4.324
21.549000,0.1948,-1.7272,-4.4532,4.780
21.549000,-0.0191,-1.6862,-4.7144,5.007
21.550000,-0.2140,-1.6565,-4.9994,5.271
21.550000,-0.3829,-1.5687,-5.0857,5.336
21.551000,-0.5046,-1.4585,-5.0840,5.313
21.551000,-0.5605,-1.4407,-4.9918,5.226
21.552000,-0.6202,-1.4244,-4.7231,4.972
21.552000,-0.5541,-1.4385,-4.4263,4.687
21.553000,-0.4768,-1.3877,-4.2423,4.489
21.555000,-0.4764,-1.3844,-3.9988,4.258
21.560000,-0.4785,-1.3671,-3.7048,3.978
21.565000,-0.5121,-1.3097,-3.3578,3.640
21.571000,-0.5175,-1.2582,-2.8713,3.177
21.578000,-0.5064,-1.1892,-2.2642,2.607
21.579000,-0.4138,-1.1584,-1.7344,2.126
21.584000,-0.3306,-1.1400,-1.1834,1.676
21.589000,-0.2538,-1.1870,-0.7473,1.425
21.642000,-0.1851,-1.2473,-0.5354,1.370
21.643000,-0.1841,-1.2227,-0.5045,1.335
21.643000,-0.2679,-1.1612,-0.4942,1.290
21.644000,-0.4773,-1.1079,-0.5358,1.320
21.644000,-0.6546,-1.0150,-0.4952,1.305
21.644000,-0.7545,-0.9539,-0.5115,1.319
21.644000,-0.8512,-0.9315,-0.5253,1.367
21.645000,-0.9230,-0.8972,-0.4577,1.366
21.645000,-1.0080,-0.8988,-0.3760,1.402
21.645000,-1.1494,-0.8670,-0.3446,1.480
21.645000,-1.2280,-0.8185,-0.3636,1.520
21.650000,-1.4020,-0.7364,-0.3396,1.620
21.654000,-1.4520,-0.6209,-0.1746,1.589
21.658000,-1.5788,-0.5009,-0.0837,1.659
21.664000,-1.6035,-0.3817,-0.0306,1.649
21.668000,-1.5333,-0.2748,0.0013,1.558
21.674000,-1.4426,-0.2207,-0.0481,1.460
21.680000,-1.3217,-0.1763,-0.1068,1.338
21.686000,-1.0936,-0.0718,-0.1706,1.109
21.689000,-0.9666,-0.0192,-0.2374,0.996
21.694000,-0.8759,0.0105,-0.1471,0.888
21.699000,-0.7689,0.0269,0.0424,0.771
21.703000,-0.5999,0.0541,0.3263,0.685
21.775000,-0.5122,0.0321,0.6424,0.822
21.776000,-0.4551,0.0995,0.7851,0.913
21.776000,-0.3829,0.1342,1.4266,1.483
21.776000,-0.3734,0.1140,2.1435,2.179
21.776000,-0.3087,0.0310,2.7331,2.751
21.777000,-0.2916,-0.0102,3.2560,3.269
21.777000,-0.3624,-0.0917,3.5239,3.544
21.777000,-0.5764,-0.1326,3.5066,3.556
21.777000,-0.8743,-0.0663,3.2478,3.364
21.778000,-1.2408,0.0142,2.7476,3.015
21.778000,-1.6073,0.1330,2.1997,2.728
21.778000,-1.8886,0.2887,1.6443,2.521
21.778000,-2.0764,0.4410,1.2387,2.458
21.778000,-2.0732,0.6786,0.9348,2.373
21.779000,-1.9733,1.0181,0.7996,2.360
21.784000,-1.7772,1.3372,0.6655,2.322
21.789000,-1.4773,1.6627,0.4844,2.276
21.794000,-1.2145,1.9661,0.3590,2.339
21.798000,-0.8566,2.1521,0.1238,2.320
21.803000,-0.3605,2.3676,-0.0688,2.396
21.813000,0.3162,2.6875,-0.2840,2.721
21.814000,1.1227,3.0562,-0.3708,3.277
21.818000,1.6844,3.3429,-0.4688,3.772
21.822000,1.9705,3.3194,-0.3018,3.872
21.882000,2.3604,3.1139,0.2869,3.918
21.883000,2.8196,2.8057,1.1264,4.134
21.883000,3.2882,2.4980,2.1014,4.633
21.884000,3.8282,2.2234,3.1884,5.456
21.884000,4.2815,1.9375,4.3666,6.415
21.884000,4.4184,1.5891,5.3450,7.115
21.884000,4.2215,1.1293,5.9598,7.390
21.885000,3.7922,0.6336,6.1908,7.288
21.885000,3.3242,0.2213,5.9769,6.843
21.885000,2.7782,-0.1005,5.4503,6.118
21.886000,2.0933,-0.3245,4.6234,5.086
21.886000,1.3014,-0.5148,3.7378,3.991
21.894000,0.5847,-0.6946,2.9033,3.042
21.894000,0.1188,-0.7807,2.3118,2.443
21.897000,-0.3306,-0.8117,1.6381,1.858
21.902000,-0.6234,-0.7728,0.9106,1.347
21.909000,-0.9124,-0.7096,0.3087,1.196
21.911000,-1.1632,-0.7030,-0.1394,1.366
21.916000,-1.3146,-0.6912,-0.4123,1.541
21.923000,-1.4673,-0.8465,-0.5364,1.777
21.972000,-1.3188,-0.6814,-0.5642,1.588
21.972000,-1.0273,-0.5485,-0.6891,1.353
21.973000,-0.8547,-0.5455,-0.7679,1.272
21.973000,-0.7777,-0.6391,-0.7979,1.284
21.973000,-0.6428,-0.6907,-0.8342,1.259
21.973000,-0.5207,-0.7288,-0.9798,1.327
21.974000,-0.4010,-0.7581,-1.2488,1.515
21.974000,-0.2883,-0.7776,-1.3217,1.560
21.974000,-0.1651,-0.7446,-1.2366,1.453
21.974000,-0.0277,-0.7357,-1.1730,1.385
21.976000,0.1266,-0.7293,-1.1595,1.376
21.981000,0.2000,-0.7517,-1.1364,1.377
21.986000,0.2679,-0.7741,-1.1228,1.390
21.992000,0.2857,-0.8420,-1.1091,1.421
21.996000,0.2969,-0.8283,-1.1026,1.411
22.001000,0.2973,-0.8502,-0.9887,1.337
22.006000,0.2921,-0.8792,-0.9155,1.302
22.011000,0.4208,-0.8580,-0.8830,1.301
22.015000,0.5761,-0.8606,-0.9581,1.411
22.020000,0.7150,-0.8444,-1.2193,1.647
22.074000,0.7631,-0.7994,-1.4827,1.849
22.075000,0.7585,-0.7112,-1.7435,2.030
22.076000,0.6768,-0.6180,-1.9538,2.158
22.076000,0.5345,-0.5797,-2.0948,2.238
22.076000,0.3263,-0.5628,-2.2978,2.388
22.076000,0.1614,-0.5458,-2.4766,2.541
22.076000,0.1011,-0.5744,-2.5833,2.648
22.077000,0.0061,-0.6126,-2.7209,2.789
22.077000,-0.1168,-0.5791,-2.7721,2.834
22.077000,-0.2605,-0.5983,-2.8471,2.921
22.077000,-0.3368,-0.6653,-2.7331,2.833
22.083000,-0.4867,-0.6871,-2.3989,2.542
22.085000,-0.5500,-0.7002,-2.0478,2.233
22.091000,-0.6179,-0.7172,-1.7198,1.963
22.095000,-0.6590,-0.7193,-1.4747,1.768
22.101000,-0.6613,-0.7496,-1.2858,1.629
22.106000,-0.6983,-0.7677,-1.0837,1.500
22.111000,-0.8201,-0.8189,-0.9568,1.503
22.115000,-0.9761,-0.8650,-0.8620,1.563
22.121000,-1.0154,-0.8746,-0.8450,1.584
22.186000,-0.9813,-0.7877,-0.8149,1.499
22.187000,-0.9739,-0.7694,-0.7837,1.468
22.187000,-0.9616,-0.7592,-0.9551,1.553
22.189000,-0.9301,-0.6944,-1.0877,1.591
22.190000,-0.7955,-0.5964,-1.2511,1.598
22.192000,-0.6725,-0.4693,-1.4243,1.643
22.193000,-0.5970,-0.3534,-1.4830,1.637
22.194000,-0.5670,-0.3182,-1.3460,1.495
22.195000,-0.5534,-0.3352,-1.1976,1.361
22.196000,-0.3722,-0.2729,-1.0448,1.142
22.197000,-0.2148,-0.2563,-0.8251,0.890
22.198000,0.0504,-0.1038,-0.7273,0.736
22.198000,0.1225,-0.0477,-0.5934,0.608
22.199000,0.1526,-0.0400,-0.5287,0.552
22.200000,0.1909,0.0242,-0.3080,0.363
22.203000,0.2281,0.1254,-0.3427,0.430
22.205000,0.2423,0.2971,-0.2761,0.472
22.210000,0.2835,0.4766,-0.1320,0.570
22.215000,0.2630,0.6207,-0.1566,0.692
22.219000,0.1525,0.7653,-0.2996,0.836
22.227000,0.0405,0.8438,-0.6016,1.037
22.230000,-0.0858,0.9144,-0.8215,1.232
22.234000,-0.1791,0.9944,-0.9213,1.367
22.239000,-0.2300,1.1173,-1.0090,1.523
22.312000,-0.2149,1.2240,-1.0564,1.631
22.314000,-0.1798,1.2641,-1.0059,1.625
22.315000,-0.1416,1.3577,-0.7623,1.564
22.315000,-0.0504,1.4254,-0.3926,1.479
22.315000,0.0605,1.4049,0.0531,1.407
22.315000,0.1887,1.3845,0.4529,1.469
22.316000,0.2986,1.3303,0.7737,1.568
22.316000,0.4978,1.3522,1.2907,1.934
22.316000,0.6988,1.3376,1.8961,2.423
22.317000,0.8783,1.3239,2.3560,2.842
22.318000,1.0846,1.3613,2.7376,3.244
22.318000,1.2560,1.3151,3.0225,3.527
22.319000,1.3717,1.3288,3.1341,3.670
22.319000,1.4059,1.4094,3.0560,3.647
22.320000,1.3680,1.5165,2.7573,3.431
22.320000,1.3085,1.5934,2.2877,3.080
22.324000,1.1837,1.6791,1.7667,2.710
22.329000,1.0506,1.7435,1.2939,2.412
22.334000,0.9636,1.7731,0.8975,2.209
22.338000,0.8958,1.7920,0.6225,2.098
22.346000,0.7995,1.8127,0.4853,2.040
22.348000,0.7055,1.8017,0.4736,1.992
22.353000,0.6475,1.8019,0.5564,1.994
22.411000,0.6447,1.8467,0.8029,2.114
22.412000,0.6544,1.8780,1.0722,2.259
22.412000,0.6938,1.9100,1.1541,2.337
22.412000,0.7230,1.9019,1.1492,2.337
22.413000,0.6776,1.8679,0.9787,2.215
22.413000,0.5866,1.8397,0.6857,2.049
22.414000,0.4714,1.8364,0.4398,1.946
22.414000,0.3226,1.9017,0.2429,1.944
22.414000,0.0447,1.9616,-0.1563,1.968
22.414000,-0.1456,2.0456,-0.6362,2.147
22.415000,-0.3260,2.1110,-0.8765,2.309
22.415000,-0.6021,2.1799,-1.0047,2.475
22.419000,-0.8885,2.1827,-1.0087,2.563
22.423000,-1.0784,2.1414,-0.9175,2.567
22.429000,-1.1563,2.0651,-0.8433,2.513
22.434000,-1.1566,1.8919,-0.6471,2.310
22.439000,-1.0562,1.7702,-0.3867,2.097
22.444000,-0.8385,1.7046,0.0624,1.901
22.447000,-0.4797,1.7022,0.6618,1.888
22.453000,-0.0772,1.6383,1.3806,2.144
22.457000,0.3534,1.5455,2.2334,2.739
22.521000,0.6890,1.3682,2.9385,3.314
22.521000,1.0098,1.1516,3.6565,3.964
22.522000,1.3317,0.9475,4.4429,4.734
22.522000,1.5201,0.7023,5.2264,5.488
22.522000,1.6843,0.4770,5.9145,6.168
22.523000,1.7658,0.2544,6.4072,6.651
22.523000,1.7064,-0.0552,6.6549,6.870
22.523000,1.5619,-0.3587,6.5793,6.772
22.524000,1.2393,-0.7469,6.0969,6.266
22.524000,0.7854,-1.0596,5.3663,5.526
22.524000,0.3146,-1.3245,4.5091,4.710
22.525000,-0.2273,-1.4526,3.8145,4.088
22.525000,-0.6579,-1.5252,3.1246,3.539
22.528000,-0.9426,-1.6550,2.6285,3.246
22.532000,-1.1577,-1.8586,2.0273,2.984
22.538000,-1.2928,-2.0047,1.2951,2.714
22.542000,-1.3520,-2.0239,0.5659,2.499
22.547000,-1.3583,-2.0211,-0.0361,2.435
22.552000,-1.3192,-1.9794,-0.5257,2.436
22.556000,-1.2193,-1.8965,-0.8862,2.423
22.562000,-1.1062,-1.8273,-1.1657,2.433
22.567000,-0.9206,-1.8005,-1.2975,2.403
22.571000,-0.7148,-1.7874,-1.3916,2.375
22.637000,-0.5052,-1.8577,-1.4454,2.407
22.638000,-0.2621,-1.8797,-1.4592,2.394
22.639000,-0.0492,-1.8629,-1.4665,2.371
22.639000,0.1916,-1.8122,-1.5222,2.374
22.639000,0.4135,-1.7560,-1.6626,2.453
22.639000,0.5646,-1.6749,-1.8277,2.543
22.639000,0.7080,-1.5539,-2.0065,2.635
22.640000,0.7918,-1.5051,-2.1678,2.755
22.640000,0.8406,-1.5213,-2.3190,2.898
22.640000,0.7901,-1.4679,-2.5178,3.020
22.641000,0.7786,-1.3998,-2.6784,3.121
22.641000,0.7869,-1.3476,-2.8801,3.276
22.641000,0.8009,-1.3282,-2.8740,3.266
22.641000,0.7586,-1.3484,-2.9619,3.342
22.647000,0.7009,-1.4200,-3.0220,3.412
22.652000,0.7401,-1.3780,-3.1044,3.476
22.657000,0.7513,-1.3155,-3.1400,3.486
22.661000,0.7753,-1.2661,-3.0953,3.433
22.667000,0.8289,-1.1919,-3.0706,3.396
22.672000,0.8571,-1.1408,-3.0825,3.397
22.677000,0.8404,-1.0819,-3.1571,3.442
22.683000,0.7738,-1.0438,-3.1607,3.417
22.689000,0.7290,-1.0095,-3.2152,3.448
22.739000,0.7104,-1.0102,-3.2344,3.462
22.739000,0.6562,-0.9642,-3.1232,3.334
22.740000,0.6692,-0.9245,-3.0607,3.267
22.740000,0.6564,-0.8742,-2.9012,3.100
22.740000,0.6083,-0.9116,-2.6924,2.907
22.741000,0.5032,-0.9459,-2.4988,2.719
22.741000,0.3988,-0.9772,-2.2605,2.495
22.741000,0.3237,-0.9604,-1.9846,2.228
22.741000,0.2206,-0.9937,-1.7163,1.995
22.742000,0.1615,-1.0176,-1.4577,1.785
22.742000,0.0727,-1.0445,-1.2948,1.665
22.746000,-0.0151,-1.0530,-1.2582,1.641
22.751000,-0.1019,-1.0024,-1.2475,1.604
22.756000,-0.2434,-0.9789,-1.2935,1.640
22.760000,-0.3938,-0.9081,-1.3941,1.710
22.766000,-0.4887,-0.8948,-1.4706,1.789
22.771000,-0.5643,-0.8358,-1.5807,1.875
22.777000,-0.6898,-0.7812,-1.6362,1.940
22.780000,-0.7336,-0.7161,-1.7330,2.014
22.785000,-0.7823,-0.6285,-1.8522,2.107
22.860000,-0.8651,-0.5158,-1.8695,2.123
22.861000,-1.0421,-0.4139,-1.7538,2.082
22.861000,-1.1704,-0.3084,-1.4958,1.924
22.861000,-1.2166,-0.2424,-1.1266,1.676
22.861000,-1.1281,-0.2399,-0.6201,1.309
22.861000,-0.9407,-0.2583,-0.1026,0.981
22.862000,-0.6755,-0.2048,0.3902,0.807
22.862000,-0.5166,-0.1418,0.6865,0.871
22.862000,-0.3291,-0.0314,1.0519,1.103
22.862000,-0.2773,-0.0650,1.4627,1.490
22.862000,-0.2387,-0.0226,1.6821,1.699
22.862000,-0.1749,0.0763,1.8371,1.847
22.862000,-0.2246,0.1647,1.9997,2.019
22.863000,-0.3036,0.3069,2.1461,2.189
22.863000,-0.3471,0.4740,2.2742,2.349
22.864000,-0.4269,0.6012,2.1568,2.279
22.869000,-0.5338,0.6601,1.8778,2.061
22.874000,-0.6276,0.7800,1.4996,1.803
22.880000,-0.7877,0.8993,1.0314,1.579
22.885000,-0.9478,1.0021,0.4966,1.466
22.890000,-1.1108,1.1630,0.0383,1.609
22.894000,-1.2201,1.2847,-0.2318,1.787
22.899000,-1.1613,1.4201,-0.3477,1.867
22.904000,-1.0377,1.5528,-0.3768,1.905
22.960000,-0.8348,1.7190,-0.2907,1.933
22.961000,-0.5641,1.8759,-0.1402,1.964
22.964000,-0.2059,1.9254,0.1176,1.940
22.965000,0.1807,1.8702,0.4562,1.933
22.966000,0.6202,1.8369,0.7919,2.094
22.966000,1.0155,1.8111,1.1844,2.390
22.966000,1.3149,1.7759,1.5740,2.713
22.967000,1.6030,1.7720,1.9367,3.076
22.968000,1.8565,1.7225,2.2370,3.379
22.969000,1.9852,1.6396,2.6157,3.670
22.969000,2.0089,1.4298,2.9751,3.864
22.970000,1.8820,1.1691,3.2681,3.948
22.971000,1.6996,0.9431,3.3326,3.858
22.975000,1.4442,0.7181,3.3440,3.713
22.980000,1.0767,0.5967,3.3598,3.578
22.985000,0.6101,0.4654,3.3501,3.437
22.988000,0.2161,0.3215,3.2289,3.252
22.995000,-0.1283,0.2030,2.9896,2.999
23.000000,-0.3453,0.0721,2.6919,2.715
23.003000,-0.4795,-0.0238,2.4126,2.460
23.074000,-0.4998,-0.0411,2.1512,2.209
23.075000,-0.4020,-0.0589,1.9818,2.023
23.076000,-0.3225,-0.0558,1.9426,1.970
23.077000,-0.2872,-0.0512,1.7658,1.790
23.077000,-0.0970,0.0176,1.5204,1.524
23.079000,0.0181,-0.0051,1.3167,1.317
23.081000,0.0567,-0.0779,1.0894,1.094
23.082000,0.0936,-0.1956,0.8862,0.912
23.083000,0.1698,-0.3152,0.7860,0.864
23.084000,0.1948,-0.4168,0.7403,0.872
23.084000,0.2388,-0.5729,0.7733,0.992
23.085000,0.3044,-0.6728,0.8798,1.149
23.086000,0.3898,-0.7388,1.0483,1.340
23.086000,0.4669,-0.7859,1.2503,1.549
23.087000,0.5621,-0.8048,1.4024,1.712
23.088000,0.6545,-0.8732,1.5387,1.886
23.089000,0.6988,-0.9241,1.5997,1.975
23.093000,0.7383,-0.9796,1.5569,1.982
23.099000,0.7944,-1.0499,1.3728,1.902
23.103000,0.8091,-1.1134,1.0356,1.722
23.113000,0.8320,-1.1084,0.5049,1.475
23.115000,0.8053,-1.0607,-0.0829,1.334
23.118000,0.7209,-1.0132,-0.6968,1.425
23.124000,0.7215,-0.9753,-1.2199,1.720
23.193000,0.7162,-0.9607,-1.6333,2.026
23.194000,0.6593,-0.9213,-2.0715,2.361
23.195000,0.6841,-0.8759,-2.6375,2.862
23.196000,0.7207,-0.8000,-2.9560,3.146
23.196000,0.6834,-0.7843,-3.1518,3.319
23.197000,0.5772,-0.7426,-3.4094,3.537
23.198000,0.5022,-0.7173,-3.6382,3.742
23.199000,0.4538,-0.6964,-3.6948,3.787
23.200000,0.4155,-0.6463,-3.7110,3.790
23.201000,0.4376,-0.6508,-3.6700,3.753
23.202000,0.3552,-0.6358,-3.5983,3.671
23.203000,0.3096,-0.5702,-3.5436,3.602
23.204000,0.2889,-0.5426,-3.3839,3.439
23.205000,0.2574,-0.5289,-3.1889,3.243
23.206000,0.2349,-0.4958,-2.9226,2.974
23.208000,0.1928,-0.4983,-2.6305,2.684
23.209000,0.1365,-0.5535,-2.3076,2.377
23.214000,0.1096,-0.5800,-2.0831,2.165
23.218000,0.0379,-0.5876,-1.9161,2.005
23.222000,-0.0426,-0.5837,-1.7825,1.876
23.227000,-0.1055,-0.5466,-1.6871,1.777
23.235000,-0.2058,-0.4716,-1.7399,1.814
23.237000,-0.2173,-0.4184,-1.8188,1.879
23.309000,-0.1522,-0.3555,-1.8594,1.899
23.309000,-0.1399,-0.3021,-1.8643,1.894
23.309000,-0.0490,-0.2625,-1.7882,1.808
23.310000,0.0657,-0.2010,-1.6600,1.673
23.310000,0.1684,-0.1009,-1.5011,1.514
23.310000,0.3258,-0.0485,-1.2971,1.338
23.311000,0.4690,0.0326,-1.0743,1.173
23.311000,0.5189,0.0967,-0.8732,1.020
23.311000,0.5785,0.1171,-0.6863,0.905
23.311000,0.6004,0.1083,-0.5662,0.832
23.311000,0.5746,0.1226,-0.3956,0.708
23.312000,0.5040,0.0454,-0.1170,0.519
23.312000,0.4678,-0.0139,0.1571,0.494
23.312000,0.4446,-0.0290,0.3578,0.571
23.312000,0.3988,0.0215,0.4586,0.608
23.317000,0.3710,0.0345,0.4408,0.577
23.322000,0.2824,0.0438,0.4454,0.529
23.326000,0.1450,0.0802,0.4128,0.445
23.331000,0.0663,0.1226,0.2447,0.282
23.336000,-0.0979,0.1855,0.1205,0.242
23.344000,-0.2664,0.2116,-0.0196,0.341
23.349000,-0.4040,0.2465,-0.1423,0.494
23.350000,-0.4826,0.2475,-0.2023,0.579
23.355000,-0.4691,0.2769,-0.2236,0.589
23.413000,-0.4191,0.2775,-0.2162,0.547
23.414000,-0.3109,0.3020,-0.1153,0.448
23.414000,-0.1445,0.2953,0.0501,0.333
23.415000,-0.0158,0.3197,0.1557,0.356
23.415000,0.0821,0.3747,0.4553,0.595
23.415000,0.1665,0.4340,0.7909,0.917
23.415000,0.2640,0.5521,1.1387,1.293
23.415000,0.3463,0.6759,1.5182,1.698
23.416000,0.4571,0.7407,1.8243,2.021
23.416000,0.5176,0.8035,2.0335,2.247
23.416000,0.5359,0.8550,2.0763,2.309
23.416000,0.4712,0.8878,2.0297,2.265
23.422000,0.3505,0.9838,1.9364,2.200
23.426000,0.1932,1.0837,1.6621,1.994
23.431000,0.0323,1.1564,1.3122,1.749
23.438000,-0.1113,1.2842,0.9939,1.628
23.441000,-0.3193,1.3576,0.7377,1.578
23.446000,-0.4346,1.4226,0.5122,1.573
23.450000,-0.4959,1.4459,0.3433,1.567
23.454000,-0.4798,1.4518,0.3098,1.560
23.518000,-0.4176,1.4696,0.4708,1.599
23.519000,-0.2705,1.4942,0.7712,1.703
23.519000,-0.0766,1.5515,1.0796,1.892
23.519000,0.1194,1.6509,1.4271,2.185
23.519000,0.3803,1.6793,1.7209,2.434
23.520000,0.6327,1.7082,1.8010,2.562
23.520000,0.7937,1.6966,1.8640,2.643
23.520000,0.8687,1.7045,1.8691,2.675
23.520000,0.8013,1.7061,1.7585,2.578
23.521000,0.5510,1.7037,1.5036,2.338
23.521000,0.2352,1.6499,1.3028,2.115
23.521000,-0.1173,1.5450,0.9740,1.830
23.521000,-0.5340,1.3919,0.5818,1.600
23.530000,-0.8817,1.3274,0.2025,1.606
23.531000,-1.1706,1.2346,-0.0974,1.704
23.535000,-1.4354,1.1570,-0.3612,1.879
23.540000,-1.6173,1.1329,-0.5913,2.061
23.544000,-1.7270,1.1814,-0.6731,2.198
23.549000,-1.7847,1.1589,-0.6112,2.214
23.555000,-1.7648,1.1371,-0.4010,2.137
23.634000,-1.6437,1.0773,-0.0925,1.967
23.635000,-1.3855,0.9912,0.4149,1.753
23.635000,-0.9921,0.8543,1.0544,1.681
23.636000,-0.5630,0.7474,1.6926,1.934
23.636000,-0.0756,0.6674,2.3416,2.436
23.636000,0.2874,0.5853,2.9277,2.999
23.636000,0.4846,0.4952,3.3630,3.434
23.637000,0.5912,0.3562,3.4783,3.546
23.637000,0.6223,0.1323,3.6256,3.681
23.637000,0.4565,-0.1431,3.7258,3.756
23.638000,0.2449,-0.4295,3.5161,3.551
23.638000,0.0015,-0.6861,3.1716,3.245
23.638000,-0.2215,-0.8816,2.8094,2.953
23.638000,-0.4320,-1.0257,2.4222,2.666
23.638000,-0.6420,-1.0611,2.0988,2.438
23.639000,-0.8881,-1.1625,1.6644,2.216
23.639000,-1.0781,-1.3608,1.1744,2.096
23.645000,-1.1890,-1.5365,0.6933,2.063
23.649000,-1.2435,-1.6083,0.1711,2.040
23.653000,-1.2473,-1.6431,-0.3158,2.087
23.660000,-1.1868,-1.6527,-0.6864,2.147
23.664000,-1.1534,-1.6706,-1.1104,2.314
23.668000,-1.0183,-1.5842,-1.5474,2.437
23.673000,-0.8993,-1.4773,-1.7415,2.454
23.731000,-0.7842,-1.3929,-1.9657,2.534
23.731000,-0.5704,-1.3788,-2.1267,2.598
23.732000,-0.3463,-1.3653,-2.1817,2.597
23.732000,-0.1592,-1.3356,-2.1882,2.569
23.732000,0.0827,-1.2324,-2.1894,2.514
23.733000,0.3298,-1.1561,-2.1592,2.471
23.733000,0.5375,-1.0395,-2.1071,2.410
23.733000,0.6637,-0.8946,-2.0549,2.337
23.734000,0.7903,-0.7381,-2.0433,2.312
23.734000,0.8510,-0.6748,-2.0750,2.342
23.734000,0.8366,-0.6570,-2.0923,2.347
23.734000,0.8288,-0.6318,-2.1984,2.433
23.739000,0.8085,-0.6252,-2.3095,2.526
23.744000,0.7754,-0.6396,-2.3636,2.568
23.749000,0.6791,-0.6533,-2.3322,2.515
23.754000,0.6035,-0.5634,-2.3708,2.510
23.760000,0.5245,-0.5399,-2.3909,2.507
23.763000,0.5203,-0.5085,-2.2799,2.393
23.768000,0.4882,-0.5030,-2.1575,2.269
23.773000,0.3756,-0.4927,-2.0761,2.167
23.836000,0.2969,-0.5206,-1.9780,2.067
23.836000,0.2376,-0.5463,-1.9086,1.999
23.837000,0.1471,-0.5555,-1.8103,1.899
23.837000,0.1330,-0.5580,-1.7118,1.805
23.837000,0.1139,-0.5348,-1.5747,1.667
23.838000,0.1475,-0.5552,-1.3274,1.446
23.838000,0.2124,-0.5954,-1.0774,1.249
23.839000,0.2592,-0.6198,-0.8558,1.088
23.839000,0.3192,-0.6332,-0.7844,1.057
23.839000,0.3092,-0.6836,-0.7626,1.070
23.839000,0.2484,-0.7086,-0.8238,1.115
23.840000,0.1176,-0.7414,-0.9132,1.182
23.840000,-0.0279,-0.7342,-0.9853,1.229
23.848000,-0.2194,-0.7396,-1.1668,1.399
23.849000,-0.4597,-0.7742,-1.3669,1.637
23.853000,-0.6560,-0.7971,-1.5641,1.874
23.862000,-0.8638,-0.7914,-1.8015,2.149
23.862000,-1.0789,-0.8385,-1.9621,2.391
23.867000,-1.2800,-0.7945,-2.1606,2.634
23.872000,-1.4514,-0.7048,-2.3711,2.868
23.942000,-1.6248,-0.6026,-2.4262,2.982
23.943000,-1.8030,-0.4999,-2.4242,3.062
23.943000,-1.8835,-0.3968,-2.2671,2.974
23.943000,-1.8666,-0.2599,-2.0578,2.790
23.944000,-1.7500,-0.1015,-1.8106,2.520
23.944000,-1.5648,0.0664,-1.4201,2.114
23.944000,-1.3610,0.1980,-0.9605,1.678
23.944000,-1.0636,0.2863,-0.5085,1.213
23.945000,-0.7963,0.3237,-0.1952,0.881
23.945000,-0.5609,0.3300,0.0365,0.652
23.945000,-0.3588,0.3222,0.2532,0.545
23.945000,-0.1684,0.3243,0.5173,0.633
23.945000,-0.0894,0.2792,0.7806,0.834
23.946000,-0.0308,0.2967,1.0503,1.092
23.947000,0.0127,0.3601,1.4340,1.479
23.954000,-0.0422,0.4643,1.8385,1.897
23.957000,-0.0873,0.4484,2.2642,2.310
23.962000,-0.1059,0.4627,2.5872,2.630
23.967000,-0.2154,0.4179,2.6934,2.734
23.972000,-0.3874,0.4048,2.6192,2.678
23.978000,-0.6156,0.4877,2.2551,2.388
23.981000,-0.9008,0.5878,1.7470,2.052
23.985000,-1.2176,0.6602,1.2575,1.871
24.055000,-1.5025,0.7701,0.8003,1.868
24.055000,-1.6297,0.8774,0.4444,1.903
24.056000,-1.5689,0.9632,0.2851,1.863
24.056000,-1.3777,1.0998,0.2260,1.777
24.056000,-1.1180,1.2395,0.2120,1.683
24.056000,-0.8634,1.4490,0.2837,1.710
24.057000,-0.6249,1.7048,0.3473,1.849
24.057000,-0.4262,1.9422,0.3814,2.025
24.057000,-0.2474,2.1112,0.3332,2.152
24.057000,-0.1117,2.2170,0.2765,2.237
24.058000,0.0361,2.2506,0.1177,2.254
24.058000,0.2180,2.2510,-0.0312,2.262
24.058000,0.4124,2.2069,-0.2833,2.263
24.058000,0.6029,2.1288,-0.4860,2.265
24.063000,0.7962,2.0820,-0.6450,2.320
24.067000,1.0257,2.0266,-0.5887,2.346
24.072000,1.2434,2.0298,-0.1452,2.385
24.075000,1.5377,2.0173,0.6681,2.623
24.080000,1.9255,1.8758,1.6415,3.150
24.085000,2.3454,1.6570,2.5652,3.851
24.091000,2.5275,1.4311,3.3904,4.464
24.095000,2.5873,1.3313,4.1800,5.093
24.100000,2.5449,1.1741,5.1650,5.876
24.105000,2.3243,0.9051,5.9017,6.407
24.111000,2.0217,0.5882,6.3049,6.647
24.117000,1.6634,0.2607,6.5338,6.747
24.120000,1.2586,-0.0469,6.3999,6.523
24.164000,0.8758,-0.3875,6.1334,6.208
24.165000,0.4649,-0.6461,5.5910,5.647
24.165000,-0.1019,-0.8153,4.8755,4.944
24.165000,-0.7158,-0.9804,4.1277,4.303
24.165000,-1.1674,-1.1002,3.4332,3.789
24.166000,-1.3787,-1.1741,2.8919,3.412
24.166000,-1.4606,-1.2259,2.3314,3.012
24.166000,-1.3541,-1.3198,1.8113,2.618
24.166000,-1.2010,-1.4006,1.3097,2.263
24.170000,-0.9847,-1.3414,0.7429,1.822
24.175000,-0.6744,-1.2067,0.3905,1.436
24.179000,-0.3919,-1.0251,0.1684,1.110
24.185000,-0.1346,-0.8806,-0.0739,0.894
24.191000,0.2008,-0.7925,-0.2121,0.845
24.194000,0.5356,-0.7894,-0.3251,1.008
24.200000,0.7773,-0.8118,-0.3983,1.192
24.205000,1.0226,-0.7950,-0.5659,1.414
24.211000,1.2744,-0.8085,-0.8109,1.713
24.215000,1.4041,-0.7610,-1.0929,1.935
24.220000,1.4484,-0.7576,-1.4527,2.187
24.297000,1.4270,-0.7524,-1.8402,2.447
24.298000,1.4167,-0.7713,-2.2416,2.762
24.299000,1.3987,-0.7682,-2.6022,3.052
24.299000,1.3322,-0.7929,-2.8937,3.283
24.299000,1.2961,-0.8501,-3.0709,3.440
24.299000,1.2952,-0.8465,-3.3252,3.668
24.300000,1.2338,-0.8488,-3.6329,3.930
24.300000,1.1453,-0.8664,-3.8340,4.094
24.301000,1.0702,-0.8369,-3.9954,4.220
24.301000,0.9175,-0.8775,-4.1987,4.386
24.301000,0.8226,-0.9331,-4.3385,4.513
24.302000,0.7542,-0.9367,-4.4246,4.585
24.302000,0.7075,-0.9575,-4.3544,4.514
24.303000,0.6941,-0.9408,-4.3786,4.532
24.303000,0.5729,-0.8795,-4.2990,4.425
24.304000,0.5135,-0.8001,-4.1272,4.235
24.304000,0.4682,-0.8512,-3.7988,3.921
24.309000,0.3794,-0.8607,-3.4403,3.567
24.313000,0.2929,-0.9011,-3.1614,3.300
24.320000,0.1753,-0.9700,-2.8661,3.031
24.324000,0.0861,-1.0391,-2.6164,2.816
24.329000,0.0085,-1.0917,-2.4264,2.661
24.333000,-0.0188,-1.0777,-2.2364,2.483
24.338000,-0.0920,-1.0763,-2.0627,2.328
24.404000,-0.1393,-1.0442,-1.9368,2.205
24.404000,-0.1151,-1.0221,-1.7963,2.070
24.406000,-0.1414,-0.9840,-1.6197,1.900
24.408000,-0.1082,-0.9964,-1.4955,1.800
24.409000,-0.0464,-0.9927,-1.3830,1.703
24.410000,0.0538,-0.9391,-1.3110,1.614
24.413000,0.1518,-0.9601,-1.3178,1.637
24.414000,0.2426,-0.8999,-1.1952,1.516
24.414000,0.2479,-0.8019,-0.9794,1.290
24.415000,0.2778,-0.7357,-0.7945,1.118
24.415000,0.3015,-0.6820,-0.6836,1.012
24.415000,0.3120,-0.6245,-0.5077,0.863
24.416000,0.3164,-0.5248,-0.3674,0.715
24.416000,0.3244,-0.4361,-0.2550,0.600
24.416000,0.3026,-0.3633,-0.1537,0.497
24.419000,0.2292,-0.2631,-0.1950,0.400
24.423000,0.1137,-0.1740,-0.2400,0.318
24.427000,-0.0823,-0.1006,-0.3390,0.363
24.434000,-0.2111,-0.0307,-0.3653,0.423
24.438000,-0.2780,-0.0023,-0.4220,0.505
24.444000,-0.3577,0.0281,-0.4424,0.570
24.448000,-0.4002,0.0701,-0.4671,0.619
24.452000,-0.4011,0.0593,-0.3816,0.557
24.523000,-0.4274,0.0892,-0.2842,0.521
24.523000,-0.4935,0.2218,-0.0408,0.543
24.524000,-0.4772,0.3568,0.3099,0.672
24.525000,-0.4309,0.4461,0.6029,0.865
24.526000,-0.3207,0.5348,0.8578,1.061
24.526000,-0.2834,0.6635,1.2086,1.408
24.527000,-0.2683,0.8005,1.5957,1.805
24.528000,-0.3009,0.9149,1.7631,2.009
24.529000,-0.2952,1.1163,1.8503,2.181
24.529000,-0.3490,1.2682,1.9911,2.386
24.530000,-0.3977,1.3087,1.7837,2.248
24.531000,-0.4399,1.3814,1.3482,1.980
24.532000,-0.5224,1.4870,0.8302,1.781
24.533000,-0.5555,1.6147,0.3819,1.750
24.534000,-0.5781,1.7701,0.0504,1.863
24.534000,-0.5738,1.9062,-0.0408,1.991
24.538000,-0.4062,2.0381,0.1839,2.086
24.545000,-0.1489,2.1373,0.6617,2.242
24.546000,0.1984,2.1558,1.2418,2.496
24.553000,0.5440,2.1434,1.9553,2.952
24.561000,0.8314,2.1093,2.6352,3.476
24.563000,1.0859,2.1030,3.2222,3.998
24.568000,1.2323,2.0381,3.9602,4.621
24.572000,1.3566,1.8615,4.6152,5.158
24.622000,1.4939,1.7546,4.8836,5.400
24.623000,1.5207,1.6672,5.0169,5.501
24.623000,1.4595,1.6062,5.0343,5.482
24.623000,1.2346,1.5215,4.7709,5.158
24.624000,0.8030,1.4206,4.2004,4.506
24.624000,0.2307,1.2681,3.5574,3.784
24.624000,-0.3526,1.0623,2.9422,3.148
24.624000,-0.8694,0.8370,2.3116,2.608
24.625000,-1.2333,0.6786,1.7589,2.253
24.625000,-1.4770,0.5943,1.4731,2.169
24.628000,-1.6139,0.5095,1.1601,2.052
24.633000,-1.6697,0.4956,0.8395,1.933
24.637000,-1.6621,0.4473,0.7003,1.858
24.641000,-1.6399,0.3784,0.6830,1.816
24.646000,-1.4950,0.3225,0.7682,1.712
24.651000,-1.2876,0.2335,0.9994,1.647
24.656000,-1.1198,0.1635,1.2092,1.656
24.662000,-0.9674,0.1024,1.4915,1.781
24.665000,-0.7481,0.0616,1.6862,1.846
24.672000,-0.6547,0.0028,1.7480,1.867
24.717000,-0.5548,-0.0380,1.6458,1.737
24.717000,-0.5121,-0.0920,1.4802,1.569
24.718000,-0.5021,-0.1756,1.2032,1.316
24.718000,-0.5411,-0.2952,0.8358,1.038
24.718000,-0.5475,-0.3639,0.5259,0.842
24.718000,-0.5380,-0.4534,0.2228,0.738
24.719000,-0.6035,-0.5825,-0.1046,0.845
24.719000,-0.6314,-0.7197,-0.3082,1.006
24.719000,-0.6175,-0.8222,-0.5196,1.152
24.721000,-0.6457,-0.9759,-0.6600,1.343
24.727000,-0.6518,-1.0471,-0.7101,1.423
24.730000,-0.5906,-1.1271,-0.7438,1.474
24.737000,-0.5269,-1.1971,-0.6580,1.464
24.741000,-0.4322,-1.2459,-0.5481,1.428
24.745000,-0.3351,-1.2643,-0.5740,1.428
24.750000,-0.2739,-1.2531,-0.6727,1.448
24.755000,-0.2179,-1.2914,-0.8608,1.567
24.822000,-0.1242,-1.2404,-1.0975,1.661
24.824000,-0.0531,-1.2177,-1.3229,1.799
24.825000,-0.0454,-1.1942,-1.5348,1.945
24.825000,-0.0796,-1.2346,-1.6805,2.087
24.826000,-0.1340,-1.3029,-1.9730,2.368
24.826000,-0.0942,-1.2575,-2.4555,2.760
24.827000,-0.1254,-1.2010,-2.6474,2.910
24.828000,-0.2059,-1.1903,-2.7383,2.993
24.828000,-0.2636,-1.1990,-2.7237,2.988
24.829000,-0.2887,-1.2367,-2.7208,3.003
24.829000,-0.3553,-1.2744,-2.6938,3.001
24.829000,-0.3934,-1.2980,-2.6835,3.007
24.830000,-0.4294,-1.3408,-2.7376,3.078
24.830000,-0.5086,-1.3095,-2.7772,3.112
24.830000,-0.6142,-1.2998,-2.8360,3.180
24.835000,-0.7152,-1.2204,-2.9044,3.231
24.839000,-0.7210,-1.1598,-2.8582,3.168
24.845000,-0.7008,-1.0677,-2.7120,2.998
24.851000,-0.6331,-0.9445,-2.5829,2.822
24.855000,-0.5246,-0.8739,-2.4516,2.655
24.860000,-0.4423,-0.8010,-2.3659,2.537
24.864000,-0.3720,-0.7332,-2.4021,2.539
24.869000,-0.3641,-0.6321,-2.3952,2.504
24.916000,-0.3589,-0.5312,-2.3953,2.480
24.916000,-0.3946,-0.4688,-2.3189,2.398
24.917000,-0.3518,-0.3993,-2.2521,2.314
24.917000,-0.3165,-0.3275,-2.0849,2.134
24.917000,-0.2526,-0.2992,-1.8890,1.929
24.917000,-0.2150,-0.3071,-1.6548,1.697
24.918000,-0.1985,-0.2653,-1.4995,1.536
24.918000,-0.2605,-0.2388,-1.4154,1.459
24.918000,-0.3193,-0.2274,-1.3430,1.399
24.918000,-0.4517,-0.2118,-1.3443,1.434
24.925000,-0.5428,-0.1848,-1.3095,1.430
24.928000,-0.6641,-0.1440,-1.3150,1.480
24.935000,-0.8419,-0.1800,-1.2031,1.479
24.939000,-0.9712,-0.1733,-1.1796,1.538
24.944000,-1.1190,-0.1480,-1.1319,1.599
24.949000,-1.1999,-0.0418,-1.1509,1.663
24.954000,-1.3145,0.0304,-1.1863,1.771
24.960000,-1.4653,0.0571,-1.1620,1.871
24.963000,-1.5304,0.0865,-1.1115,1.893
24.968000,-1.5053,0.1475,-0.9778,1.801
24.979000,-1.3708,0.2065,-0.7346,1.569
24.981000,-1.1888,0.2326,-0.5088,1.314
24.984000,-1.0479,0.2302,-0.2621,1.104
24.988000,-0.9431,0.2520,0.1014,0.981
25.052000,-0.8932,0.2567,0.4359,1.027
25.053000,-0.8002,0.2538,0.7273,1.111
25.053000,-0.6762,0.2669,0.9543,1.200
25.053000,-0.5906,0.2524,1.0863,1.262
25.054000,-0.5676,0.2081,1.1783,1.324
25.054000,-0.5692,0.1888,1.3740,1.499
25.054000,-0.6689,0.0988,1.6303,1.765
25.054000,-0.7924,0.0337,1.7845,1.953
25.054000,-0.9250,0.0029,1.9254,2.136
25.055000,-0.9811,-0.0321,2.0532,2.276
25.055000,-1.0446,-0.0074,2.1445,2.385
25.055000,-1.1659,0.0767,2.1205,2.421
25.055000,-1.3425,0.2081,1.8596,2.303
25.058000,-1.5779,0.4396,1.5437,2.251
25.064000,-1.7839,0.7231,1.4289,2.397
25.068000,-1.8821,0.9683,1.1631,2.415
25.074000,-1.9691,1.1512,0.7297,2.395
25.078000,-2.0096,1.2827,0.3506,2.410
25.084000,-1.9459,1.4115,0.0658,2.405
25.090000,-1.6779,1.5715,-0.3213,2.321
25.100000,-1.3737,1.7921,-0.7895,2.392
25.101000,-0.9786,2.0722,-1.3422,2.656
25.105000,-0.6006,2.3893,-1.8584,3.086
25.151000,-0.1296,2.7903,-2.0788,3.482
25.152000,0.4609,3.1040,-1.9018,3.669
25.152000,1.1361,3.3244,-1.2978,3.745
25.152000,2.0002,3.4969,-0.2744,4.038
25.152000,2.8586,3.4917,0.9675,4.615
25.153000,3.6331,3.4249,2.3422,5.515
25.153000,4.2728,3.2331,3.5682,6.438
25.153000,4.7563,2.9222,4.8834,7.417
25.154000,4.9425,2.5505,5.8845,8.097
25.154000,4.9409,2.1887,6.4935,8.448
25.159000,4.7357,1.8026,6.7664,8.453
25.162000,4.3370,1.3896,6.6607,8.069
25.168000,3.6587,0.9955,6.2054,7.272
25.173000,2.8096,0.5324,5.4388,6.145
25.178000,1.9392,0.1258,4.7076,5.093
25.182000,1.0862,-0.2263,4.1457,4.292
25.187000,0.3636,-0.4568,3.5881,3.635
25.195000,-0.1954,-0.7000,3.3078,3.387
25.200000,-0.6282,-0.9565,3.0086,3.219
25.202000,-0.9176,-1.0214,2.5023,2.854
25.271000,-1.1344,-1.0716,2.1694,2.672
25.272000,-1.2537,-1.0985,1.9361,2.555
25.272000,-1.3710,-1.1283,1.7304,2.479
25.272000,-1.4304,-1.1476,1.5674,2.412
25.273000,-1.3849,-1.1328,1.3873,2.264
25.273000,-1.2881,-1.1538,1.2334,2.124
25.273000,-1.1370,-1.1365,1.0723,1.932
25.274000,-1.0515,-1.1646,0.8942,1.806
25.274000,-0.9096,-1.1643,0.7544,1.659
25.274000,-0.7998,-1.1763,0.6430,1.561
25.274000,-0.7219,-1.1693,0.5267,1.472
25.274000,-0.6252,-1.1576,0.4100,1.378
25.275000,-0.4447,-1.1314,0.3716,1.271
25.275000,-0.2229,-1.0906,0.4234,1.191
25.276000,0.0316,-1.0496,0.5101,1.167
25.282000,0.3223,-0.9390,0.6054,1.163
25.286000,0.5733,-0.8763,0.6185,1.216
25.292000,0.7521,-0.8185,0.4708,1.207
25.297000,0.8930,-0.8013,0.1861,1.214
25.301000,0.9988,-0.8051,-0.2261,1.303
25.307000,1.1056,-0.7885,-0.6561,1.508
25.311000,1.1966,-0.7414,-1.1210,1.799
25.317000,1.2651,-0.7110,-1.5161,2.099
25.322000,1.3186,-0.6607,-1.8443,2.361
25.328000,1.3644,-0.6768,-2.1391,2.626
25.334000,1.3309,-0.7157,-2.3627,2.805
25.335000,1.3544,-0.7437,-2.6037,3.028
25.390000,1.3317,-0.7635,-2.8070,3.199
25.391000,1.2531,-0.7749,-3.0157,3.356
25.392000,1.2521,-0.7349,-3.2608,3.569
25.392000,1.2638,-0.7029,-3.3801,3.676
25.392000,1.2475,-0.6840,-3.4214,3.705
25.393000,1.2465,-0.6397,-3.4541,3.727
25.393000,1.1941,-0.6514,-3.4138,3.675
25.393000,1.1381,-0.7169,-3.3433,3.604
25.394000,1.0042,-0.7526,-3.3765,3.602
25.394000,0.8235,-0.7945,-3.3841,3.572
25.394000,0.6004,-0.8259,-3.3636,3.515
25.396000,0.3680,-0.8902,-3.3914,3.526
25.401000,0.1856,-0.9608,-3.4172,3.555
25.407000,0.0337,-0.9995,-3.3096,3.457
25.412000,0.0173,-1.0087,-3.2217,3.376
25.416000,0.0599,-1.0410,-3.0126,3.188
25.422000,0.0685,-1.0390,-2.7683,2.958
25.428000,0.1033,-1.0553,-2.3766,2.602
25.430000,0.1455,-1.0642,-1.9880,2.260
25.435000,0.1595,-1.0515,-1.7075,2.012
25.439000,0.1479,-1.0561,-1.4581,1.806
25.511000,0.0959,-1.0663,-1.3136,1.695
25.512000,-0.0157,-1.0367,-1.2046,1.589
25.512000,-0.1534,-0.9844,-1.1235,1.502
25.512000,-0.2767,-0.9976,-1.1591,1.554
25.512000,-0.4095,-1.0239,-1.1221,1.573
25.513000,-0.5211,-1.0080,-1.0534,1.548
25.513000,-0.5926,-1.0219,-0.9673,1.527
25.513000,-0.6579,-0.9820,-0.8948,1.482
25.513000,-0.6791,-0.9457,-0.7329,1.376
25.514000,-0.6489,-0.8513,-0.6730,1.264
25.514000,-0.5869,-0.7179,-0.6406,1.127
25.514000,-0.5724,-0.5816,-0.6692,1.055
25.514000,-0.5265,-0.4254,-0.6871,0.965
25.515000,-0.4041,-0.2443,-0.6873,0.834
25.515000,-0.2003,-0.0452,-0.5743,0.610
25.520000,0.0566,0.1362,-0.3150,0.348
25.526000,0.3291,0.2783,-0.0147,0.431
25.529000,0.5795,0.4002,0.2142,0.736
25.535000,0.7817,0.4758,0.4289,1.011
25.540000,0.9507,0.5623,0.5772,1.246
25.545000,1.0652,0.6720,0.7258,1.454
25.549000,1.2471,0.6947,0.8364,1.655
25.555000,1.3621,0.6713,1.0120,1.825
25.625000,1.4345,0.7263,1.1950,2.003
25.626000,1.5006,0.7255,1.3400,2.139
25.626000,1.5817,0.7699,1.4133,2.257
25.627000,1.6349,0.6991,1.5992,2.391
25.628000,1.6537,0.6325,2.0532,2.711
25.628000,1.6175,0.6033,2.3852,2.944
25.629000,1.6537,0.5752,2.5886,3.125
25.629000,1.6837,0.5266,2.7184,3.241
25.630000,1.6005,0.5197,2.6769,3.162
25.631000,1.4544,0.5353,2.5718,3.003
25.631000,1.2162,0.6119,2.3432,2.710
25.632000,0.9312,0.6873,1.9914,2.303
25.633000,0.6318,0.7642,1.6121,1.893
25.634000,0.2762,0.7904,1.2122,1.473
25.634000,-0.0745,0.8591,0.8516,1.212
25.635000,-0.3616,0.8919,0.5826,1.125
25.639000,-0.6601,0.9556,0.3838,1.223
25.645000,-0.9187,1.0166,0.2598,1.395
25.649000,-1.0542,1.0826,0.1960,1.524
25.654000,-0.9835,1.2341,0.1641,1.587
25.663000,-0.8626,1.3232,0.1781,1.589
25.665000,-0.6577,1.4192,0.2212,1.580
25.668000,-0.3967,1.4791,0.2816,1.557
25.673000,-0.1558,1.5964,0.1603,1.612
25.734000,0.0160,1.6590,-0.0875,1.661
25.735000,0.1480,1.7489,-0.4385,1.809
25.736000,0.2522,1.8620,-0.8166,2.049
25.739000,0.3341,2.0203,-1.2271,2.387
25.740000,0.3607,2.0790,-1.5108,2.595
25.741000,0.4066,2.1631,-1.7712,2.825
25.745000,0.4796,2.1396,-2.0307,2.989
25.748000,0.5513,2.1552,-2.1060,3.063
25.749000,0.6032,2.1340,-2.2346,3.148
25.750000,0.5355,2.0764,-2.1850,3.061
25.751000,0.4176,1.9780,-1.9122,2.783
25.753000,0.3359,1.8175,-1.3926,2.314
25.754000,0.3044,1.6231,-0.7098,1.797
25.754000,0.3495,1.4012,0.0677,1.446
25.755000,0.4564,1.2006,0.8334,1.531
25.755000,0.5077,1.0183,1.5595,1.930
25.759000,0.5223,0.8550,2.3931,2.594
25.763000,0.4574,0.6590,3.1921,3.291
25.768000,0.3491,0.4012,3.8780,3.914
25.774000,0.1067,0.1062,4.3280,4.331
25.779000,-0.0403,-0.1711,4.5615,4.565
25.783000,-0.3002,-0.5150,4.7253,4.763
25.787000,-0.6420,-0.8303,4.5734,4.692
25.857000,-0.8675,-1.1070,4.2540,4.480
25.860000,-1.1164,-1.3116,3.8367,4.206
25.863000,-1.3795,-1.4197,3.3906,3.926
25.864000,-1.5522,-1.4387,2.9681,3.645
25.865000,-1.6854,-1.4706,2.4899,3.347
25.867000,-1.7653,-1.5034,2.1016,3.129
25.868000,-1.7446,-1.5824,1.8103,2.971
25.869000,-1.6495,-1.6351,1.5795,2.809
25.871000,-1.5399,-1.6213,1.4165,2.647
25.872000,-1.4423,-1.6296,1.3094,2.540
25.873000,-1.3109,-1.5982,1.2749,2.429
25.874000,-1.1528,-1.5229,1.2465,2.281
25.874000,-0.9799,-1.4682,1.1524,2.108
25.874000,-0.8038,-1.4227,1.1650,2.007
25.875000,-0.6218,-1.3793,1.1768,1.917
25.875000,-0.4190,-1.2813,1.1188,1.752
25.876000,-0.3029,-1.2341,0.9721,1.600
25.880000,-0.2182,-1.1470,0.6771,1.350
25.882000,-0.1266,-1.0485,0.2338,1.082
25.888000,-0.0523,-0.9600,-0.2477,0.993
25.895000,-0.0269,-0.8715,-0.7366,1.141
25.897000,-0.0578,-0.7753,-1.1782,1.412
25.902000,-0.0112,-0.7453,-1.5679,1.736
25.906000,0.0915,-0.6972,-1.8319,1.962
25.972000,0.1974,-0.6812,-1.9801,2.103
25.973000,0.3306,-0.6352,-2.3832,2.488
25.974000,0.4860,-0.5299,-2.6444,2.740
25.974000,0.5944,-0.4487,-2.7806,2.879
25.975000,0.7138,-0.3988,-2.8639,2.978
25.976000,0.8113,-0.3557,-2.8494,2.984
25.977000,0.9374,-0.3122,-2.8279,2.996
25.977000,1.0212,-0.2564,-2.7876,2.980
25.978000,1.0488,-0.2674,-2.7835,2.987
25.978000,1.0517,-0.2827,-2.8515,3.052
25.978000,1.0158,-0.2567,-2.8147,3.003
25.978000,0.9076,-0.2779,-2.6780,2.841
25.979000,0.8787,-0.3201,-2.4656,2.637
25.979000,0.8622,-0.3643,-2.2993,2.482
25.982000,0.7792,-0.4417,-2.1358,2.316
25.986000,0.6943,-0.5095,-2.1139,2.283
25.990000,0.5474,-0.6107,-2.1590,2.309
25.997000,0.2953,-0.7550,-2.2113,2.355
26.001000,0.0452,-0.7841,-2.2780,2.410
26.007000,-0.2918,-0.8491,-2.3448,2.511
26.012000,-0.6162,-0.9258,-2.3374,2.589
26.015000,-0.9189,-0.9667,-2.2893,2.649
26.021000,-1.1382,-0.9936,-2.1955,2.665
26.102000,-1.3179,-0.9251,-2.1373,2.676
26.102000,-1.4679,-0.9244,-2.1574,2.768
26.103000,-1.5336,-0.9002,-2.1915,2.822
26.103000,-1.5417,-0.7664,-2.1534,2.757
26.104000,-1.5402,-0.6233,-2.0147,2.611
26.105000,-1.4738,-0.4303,-1.8018,2.367
26.105000,-1.3761,-0.2237,-1.6007,2.123
26.105000,-1.3066,-0.0751,-1.3133,1.854
26.106000,-1.2458,0.0558,-0.9874,1.591
26.106000,-1.1334,0.1067,-0.7927,1.387
26.106000,-1.0529,0.1449,-0.6479,1.245
26.107000,-0.9589,0.2135,-0.5218,1.112
26.107000,-0.8125,0.2889,-0.4505,0.973
26.107000,-0.6998,0.3474,-0.3459,0.854
26.107000,-0.6517,0.3751,-0.2823,0.803
26.107000,-0.5650,0.4417,-0.2096,0.747
26.108000,-0.4873,0.4661,-0.1043,0.682
26.111000,-0.3827,0.4655,0.1553,0.622
26.115000,-0.3494,0.4876,0.5475,0.812
26.120000,-0.3244,0.5346,1.0628,1.233
26.128000,-0.3482,0.5197,1.6034,1.721
26.131000,-0.4160,0.4161,2.0262,2.110
26.135000,-0.5327,0.3121,2.4728,2.549
26.140000,-0.7357,0.2428,2.9722,3.072
26.208000,-1.0348,0.2363,3.0850,3.262
26.209000,-1.3562,0.3305,2.8834,3.204
26.211000,-1.7054,0.4800,2.6335,3.174
26.212000,-1.9112,0.6733,2.1316,2.941
26.213000,-2.0559,0.8654,1.5116,2.695
26.215000,-2.1403,1.0548,0.9261,2.560
26.216000,-2.1389,1.1588,0.5154,2.487
26.216000,-2.0329,1.2449,0.0351,2.384
26.217000,-1.8972,1.3472,-0.5105,2.382
26.219000,-1.6898,1.5579,-1.0576,2.530
26.220000,-1.3322,1.7920,-1.4684,2.673
26.220000,-0.8341,1.9595,-1.6866,2.717
26.221000,-0.2336,2.1192,-1.5842,2.656
26.221000,0.5203,2.1811,-0.9303,2.428
26.222000,1.3296,2.1520,0.2149,2.539
26.222000,2.1426,2.0127,1.5305,3.314
26.224000,2.8810,1.7404,2.6824,4.304
26.230000,3.4277,1.5444,3.8272,5.365
26.235000,3.8492,1.3042,5.1757,6.581
26.239000,4.0404,1.0299,6.4062,7.644
26.245000,4.0466,0.6671,7.2329,8.315
26.249000,3.8787,0.2888,7.7959,8.712
26.253000,3.4348,-0.1467,8.0315,8.736
26.324000,2.6617,-0.6094,7.6353,8.109
26.325000,1.6914,-1.0322,6.7993,7.082
26.326000,0.7195,-1.2239,5.8857,6.055
26.326000,-0.2472,-1.2921,4.9689,5.140
26.326000,-1.0699,-1.3325,4.1037,4.445
26.327000,-1.7679,-1.4767,3.3549,4.070
26.327000,-2.2599,-1.5448,2.3611,3.615
26.328000,-2.4791,-1.5915,1.5025,3.307
26.328000,-2.6169,-1.5975,0.8458,3.181
26.328000,-2.6795,-1.5894,0.3165,3.131
26.329000,-2.6268,-1.5336,-0.0951,3.043
26.329000,-2.4360,-1.4328,-0.3870,2.852
26.329000,-2.1386,-1.3182,-0.5687,2.576
26.329000,-1.7851,-1.1757,-0.6762,2.242
26.330000,-1.3560,-1.0485,-0.7501,1.871
26.335000,-0.8527,-0.8840,-0.6709,1.400
26.339000,-0.2953,-0.7514,-0.5655,0.986
26.344000,0.2486,-0.6312,-0.5347,0.864
26.348000,0.6710,-0.4771,-0.6506,1.049
26.355000,1.0500,-0.3820,-0.9157,1.445
26.365000,1.2434,-0.2373,-1.2014,1.745
26.366000,1.4509,-0.1256,-1.3577,1.991
26.369000,1.6997,0.0134,-1.5120,2.275
26.373000,1.9241,0.0894,-1.5643,2.481
26.454000,2.0437,0.1674,-1.6418,2.627
26.454000,2.1286,0.1543,-1.6708,2.710
26.455000,2.2031,0.1413,-1.6442,2.753
26.455000,2.1741,0.1569,-1.5835,2.694
26.455000,2.1543,0.1410,-1.5964,2.685
26.455000,2.1318,0.1415,-1.5991,2.669
26.456000,2.1452,0.1391,-1.6130,2.688
26.456000,2.1349,0.1361,-1.6692,2.713
26.456000,2.1054,0.1084,-1.7222,2.722
26.456000,2.0354,0.0247,-1.8147,2.727
26.457000,1.8429,-0.0745,-1.9873,2.711
26.457000,1.5993,-0.1772,-2.1439,2.681
26.457000,1.2652,-0.2791,-2.3226,2.660
26.458000,0.9259,-0.4092,-2.4823,2.681
26.458000,0.6475,-0.5172,-2.6014,2.730
26.458000,0.3502,-0.5842,-2.7538,2.837
26.458000,0.1311,-0.7038,-2.8463,2.935
26.466000,-0.0820,-0.7801,-2.8212,2.928
26.467000,-0.2344,-0.8492,-2.7219,2.861
26.472000,-0.3455,-0.8828,-2.6772,2.840
26.479000,-0.4464,-0.9338,-2.6416,2.837
26.482000,-0.5373,-0.9589,-2.6054,2.828
26.487000,-0.5974,-0.9345,-2.6260,2.851
26.558000,-0.6909,-0.9058,-2.5408,2.784
26.558000,-0.7102,-0.8826,-2.3547,2.613
26.559000,-0.6329,-0.8096,-2.1707,2.402
26.559000,-0.5474,-0.7971,-1.9339,2.162
26.560000,-0.4338,-0.7880,-1.7015,1.925
26.560000,-0.3250,-0.8204,-1.6027,1.830
26.560000,-0.2326,-0.8440,-1.5370,1.769
26.560000,-0.1156,-0.7918,-1.5786,1.770
26.560000,0.0116,-0.7259,-1.6412,1.795
26.561000,0.0964,-0.6584,-1.7392,1.862
26.561000,0.1606,-0.5508,-1.8130,1.902
26.561000,0.1803,-0.5227,-1.8458,1.927
26.561000,0.2297,-0.4927,-1.9764,2.050
26.562000,0.2418,-0.4727,-2.0420,2.110
26.562000,0.2426,-0.4100,-2.2389,2.289
26.567000,0.2509,-0.3884,-2.4712,2.514
26.573000,0.2376,-0.3334,-2.5478,2.580
26.578000,0.2101,-0.2113,-2.6124,2.629
26.582000,0.1616,-0.1131,-2.6795,2.687
26.587000,0.0989,-0.0051,-2.6655,2.667
26.591000,-0.0212,0.1198,-2.6516,2.654
26.596000,-0.2083,0.1828,-2.4922,2.508
26.602000,-0.4412,0.2769,-2.3235,2.381
26.606000,-0.6239,0.3614,-2.1334,2.252
26.675000,-0.8359,0.4144,-1.8980,2.115
26.676000,-0.9624,0.4791,-1.6099,1.936
26.676000,-1.0471,0.5361,-1.2190,1.694
26.676000,-1.0776,0.6236,-0.8187,1.490
26.676000,-1.0949,0.7055,-0.5546,1.416
26.677000,-1.0558,0.7769,-0.4288,1.379
26.677000,-0.9701,0.8646,-0.2933,1.332
26.677000,-0.8500,0.9471,-0.0835,1.275
26.677000,-0.6859,0.9865,0.2122,1.220
26.677000,-0.4467,1.0401,0.6248,1.293
26.678000,-0.1251,1.0697,1.0728,1.520
26.678000,0.1645,0.9603,1.5589,1.838
26.678000,0.4510,0.9271,2.0351,2.281
26.678000,0.6708,0.8838,2.5589,2.789
26.681000,0.9585,0.9373,3.0805,3.360
26.687000,1.1615,1.0703,3.5212,3.859
26.691000,1.1588,1.0815,4.0655,4.364
26.695000,1.1543,0.9701,4.3862,4.638
26.701000,1.1263,0.8990,4.4023,4.632
26.705000,1.0239,0.8797,4.3848,4.588
26.780000,0.8210,0.8931,4.1948,4.367
26.781000,0.5507,0.9515,3.7154,3.875
26.782000,0.2453,0.9885,3.0852,3.249
26.783000,-0.0487,1.0435,2.4855,2.696
26.784000,-0.3013,1.1457,1.9662,2.296
26.784000,-0.4872,1.2338,1.4740,1.983
26.785000,-0.6189,1.3496,1.1659,1.888
26.786000,-0.6563,1.5816,1.0750,2.022
26.786000,-0.6543,1.8085,1.3129,2.329
26.787000,-0.6411,2.0056,1.6764,2.691
26.788000,-0.5035,2.2086,2.0220,3.036
26.789000,-0.3249,2.2950,2.3668,3.313
26.791000,-0.1332,2.3650,2.5700,3.495
26.792000,0.0634,2.3876,2.6458,3.564
26.796000,0.1796,2.3961,2.6497,3.577
26.796000,0.1591,2.4647,2.5169,3.526
26.797000,0.0624,2.5606,2.3307,3.463
26.797000,-0.0720,2.5544,1.8975,3.183
26.801000,-0.3334,2.5952,1.2101,2.883
26.805000,-0.5693,2.6073,0.6411,2.745
26.811000,-0.8093,2.6154,0.0367,2.738
26.815000,-1.0965,2.3672,-0.4725,2.651
26.821000,-1.0828,2.3425,-0.8610,2.720
26.825000,-0.9247,2.3953,-0.7658,2.679
26.902000,-0.7311,2.2025,-0.4934,2.373
26.903000,-0.4779,1.8886,-0.0918,1.950
26.903000,-0.3471,1.5822,0.5974,1.726
26.903000,-0.0581,1.2804,1.2322,1.778
26.903000,0.2794,0.9939,1.7323,2.017
26.904000,0.5750,0.8988,2.3163,2.550
26.904000,0.7550,0.7859,2.8651,3.065
26.904000,0.8444,0.6231,3.2912,3.454
26.905000,0.9105,0.4098,3.5590,3.696
26.905000,0.9180,0.1715,3.8490,3.961
26.905000,0.8626,-0.1495,3.8982,3.995
26.905000,0.6677,-0.4558,3.6691,3.757
26.906000,0.3431,-0.8024,3.3249,3.437
26.906000,-0.0540,-1.1844,2.8893,3.123
26.906000,-0.4770,-1.5155,2.3555,2.841
26.906000,-0.8671,-1.6809,1.7546,2.580
26.911000,-1.2675,-1.8386,1.2755,2.572
26.914000,-1.5815,-2.0435,0.8273,2.713
26.923000,-1.7931,-2.2647,0.3098,2.905
26.924000,-1.8725,-2.4518,-0.2771,3.098
26.928000,-1.8926,-2.6004,-0.7920,3.312
26.934000,-1.8417,-2.6456,-1.2830,3.469
26.939000,-1.7709,-2.6639,-1.8506,3.696
26.988000,-1.7120,-2.6457,-2.1984,3.842
26.991000,-1.6367,-2.6030,-2.5084,3.968
26.994000,-1.5118,-2.5570,-2.9027,4.153
26.994000,-1.3472,-2.5027,-3.2309,4.303
26.994000,-1.1141,-2.3821,-3.4550,4.342
26.995000,-0.8552,-2.2192,-3.3841,4.136
26.995000,-0.7771,-2.2532,-3.4536,4.196
26.996000,-0.7119,-2.1416,-3.4987,4.163
26.996000,-0.3611,-1.8921,-3.3539,3.868
26.996000,0.0517,-1.6628,-3.3378,3.729
26.997000,0.2595,-1.4940,-3.4694,3.786
26.999000,0.3941,-1.3664,-3.6554,3.922
27.003000,0.5181,-1.2505,-3.7862,4.021
27.029000,0.6385,-1.1103,-3.8812,4.087
27.031000,0.7417,-1.0028,-3.8092,4.008
27.031000,0.8239,-0.8943,-3.6519,3.849
27.031000,0.9210,-0.7824,-3.5433,3.744
27.032000,1.0647,-0.7220,-3.5029,3.732
27.032000,1.1881,-0.6627,-3.3439,3.610
27.037000,1.1938,-0.5974,-3.2172,3.483
27.044000,1.1541,-0.5427,-3.0608,3.316
27.047000,1.1501,-0.4867,-2.8652,3.126
27.052000,1.0532,-0.4630,-2.5945,2.838
27.058000,0.9664,-0.5007,-2.3680,2.606
27.063000,0.9351,-0.5041,-2.2144,2.456
27.068000,0.8920,-0.5071,-2.0712,2.311
27.072000,0.8059,-0.5217,-1.8880,2.118
27.094000,0.7562,-0.5361,-1.6816,1.920
27.096000,0.6015,-0.5791,-1.4925,1.710
27.096000,0.3874,-0.6916,-1.2943,1.518
27.097000,0.1974,-0.7831,-1.2421,1.482
27.098000,0.0285,-0.8417,-1.2996,1.549
27.107000,-0.1778,-0.8698,-1.4403,1.692
27.108000,-0.3431,-0.7718,-1.4752,1.700
27.112000,-0.5252,-0.7031,-1.4594,1.703
27.117000,-0.6787,-0.6587,-1.4696,1.748
27.122000,-0.7747,-0.6935,-1.2621,1.635
27.127000,-0.7628,-0.6833,-0.9589,1.403
27.132000,-0.7937,-0.6355,-0.7608,1.270
27.137000,-0.8052,-0.5074,-0.7345,1.202
27.142000,-0.8458,-0.3568,-0.7503,1.186
27.147000,-1.0737,-0.2553,-0.7532,1.336
27.152000,-1.2713,-0.1281,-0.7437,1.478
27.157000,-1.3240,-0.0300,-0.8151,1.555
27.162000,-1.2966,0.0132,-0.6929,1.470
27.168000,-1.1435,0.0474,-0.4850,1.243
27.172000,-1.0557,0.0488,-0.2013,1.076
27.176000,-0.9255,0.1107,0.1725,0.948
27.181000,-0.7383,0.1870,0.5456,0.937
27.186000,-0.6066,0.2441,0.9089,1.120
27.250000,-0.4872,0.1576,1.2047,1.309
27.251000,-0.4065,0.0928,1.5648,1.619
27.251000,-0.2710,0.1140,1.7953,1.819
27.252000,-0.1061,0.1567,2.2408,2.249
27.252000,-0.0025,0.1513,2.9726,2.976
27.252000,-0.0448,0.1425,3.7636,3.767
27.252000,-0.2440,0.0864,4.3897,4.397
27.253000,-0.5022,-0.0417,4.8301,4.856
27.253000,-0.7168,-0.2018,5.1407,5.194
27.253000,-0.9625,-0.3108,5.0471,5.147
27.254000,-1.1877,-0.3782,4.7030,4.865
27.254000,-1.3503,-0.3631,4.0846,4.317
27.254000,-1.4138,-0.1616,3.2324,3.532
27.256000,-1.4222,0.0453,2.6243,2.985
27.262000,-1.4501,0.2464,2.1638,2.616
27.266000,-1.4189,0.3705,1.7595,2.291
27.271000,-1.2890,0.5472,1.3610,1.953
27.277000,-1.0685,0.7835,1.0879,1.714
27.282000,-0.8410,0.9004,0.7056,1.420
27.286000,-0.7152,1.0244,0.3436,1.296
27.357000,-0.5620,1.1586,0.0349,1.288
27.357000,-0.5899,1.2767,-0.3447,1.448
27.358000,-0.6520,1.3772,-0.8510,1.745
27.358000,-0.4254,1.6505,-1.2864,2.135
27.358000,0.0824,2.0274,-1.3500,2.437
27.358000,0.6322,2.2885,-1.2654,2.690
27.358000,1.1893,2.3077,-1.0215,2.790
27.358000,1.7935,2.1884,-0.6287,2.898
27.358000,2.4846,2.0102,-0.1473,3.199
27.359000,3.0930,1.7707,0.3788,3.584
27.359000,3.6318,1.5063,0.8081,4.014
27.359000,3.9952,1.3698,1.2432,4.403
27.359000,4.3160,1.2705,1.7770,4.837
27.359000,4.5761,1.2123,2.6107,5.406
27.359000,4.7532,1.1638,3.4307,5.976
27.365000,4.7646,0.9653,4.2072,6.429
27.371000,4.5637,0.6570,4.9049,6.732
27.375000,4.1821,0.2809,5.4029,6.838
27.380000,3.6214,-0.1240,5.6912,6.747
27.386000,2.8704,-0.5185,5.7908,6.484
27.393000,2.0361,-0.7883,5.5519,5.966
27.396000,1.1830,-0.9559,4.8710,5.103
27.399000,0.3564,-1.0671,3.9331,4.091
27.404000,-0.4630,-1.1860,3.0854,3.338
27.463000,-1.1249,-1.2147,2.3210,2.851
27.463000,-1.6472,-1.2245,1.7040,2.668
27.464000,-1.9511,-1.2443,1.1986,2.606
27.464000,-2.1199,-1.2720,0.5848,2.540
27.464000,-2.1793,-1.2170,0.0973,2.498
27.465000,-2.1204,-1.1340,-0.3602,2.431
27.465000,-1.9566,-0.9540,-0.8665,2.343
27.465000,-1.8491,-0.7319,-1.1707,2.308
27.465000,-1.6994,-0.5704,-1.3020,2.215
27.466000,-1.4091,-0.4789,-1.4233,2.059
27.466000,-1.0036,-0.3996,-1.5493,1.889
27.466000,-0.5416,-0.3489,-1.6707,1.791
27.470000,-0.0220,-0.1852,-1.8429,1.852
27.476000,0.4567,-0.0059,-1.9445,1.997
27.481000,0.8219,0.1556,-2.0381,2.203
27.485000,1.0877,0.2476,-2.2077,2.474
27.490000,1.3720,0.2684,-2.3130,2.703
27.495000,1.6952,0.3166,-2.3303,2.899
27.499000,1.9074,0.3637,-2.3056,3.014
27.504000,2.1032,0.3860,-2.4543,3.255
27.511000,2.1870,0.4505,-2.6329,3.452
27.515000,2.1784,0.4955,-2.6790,3.488
27.519000,1.9977,0.3207,-2.7681,3.429
27.599000,1.8744,0.1825,-2.7926,3.368
27.600000,1.9089,0.1334,-2.8219,3.410
27.600000,1.8717,0.1544,-2.8443,3.408
27.600000,1.6845,0.1568,-2.8333,3.300
27.600000,1.4740,0.0947,-2.8174,3.181
27.601000,1.1129,-0.0246,-2.7653,2.981
27.601000,0.8204,-0.1994,-2.6264,2.759
27.601000,0.5215,-0.2957,-2.5725,2.641
27.602000,0.3895,-0.4412,-2.4763,2.545
27.602000,0.2270,-0.5911,-2.2464,2.334
27.602000,0.0172,-0.5879,-2.0643,2.146
27.602000,-0.1688,-0.6215,-2.0466,2.146
27.603000,-0.3827,-0.7159,-1.9585,2.120
27.603000,-0.5864,-0.8308,-1.8383,2.101
27.603000,-0.7950,-0.9018,-1.7789,2.147
27.603000,-0.8867,-0.9744,-1.7349,2.178
27.604000,-0.9052,-1.0011,-1.7108,2.179
27.610000,-0.8604,-1.0057,-1.6830,2.141
27.614000,-0.8078,-0.9739,-1.5460,1.998
27.618000,-0.6874,-0.8963,-1.2665,1.697
27.630000,-0.4987,-0.7851,-0.9093,1.301
27.632000,-0.3247,-0.7579,-0.6321,1.039
27.633000,-0.1670,-0.7622,-0.4393,0.895
27.638000,-0.0347,-0.8147,-0.3359,0.882
27.713000,0.0370,-0.8052,-0.3694,0.887
27.714000,0.0631,-0.8270,-0.4802,0.958
27.714000,0.1035,-0.7193,-0.5823,0.931
27.714000,0.2163,-0.5583,-0.6474,0.882
27.715000,0.3350,-0.4276,-0.5179,0.751
27.715000,0.4651,-0.2982,-0.5218,0.760
27.715000,0.4655,-0.2803,-0.6565,0.852
27.715000,0.3795,-0.2226,-0.9220,1.022
27.716000,0.2305,-0.1823,-1.3208,1.353
27.716000,-0.0517,-0.0991,-1.6712,1.675
27.716000,-0.3268,0.0156,-1.8660,1.894
27.716000,-0.5261,0.1140,-1.9628,2.035
27.716000,-0.6623,0.1849,-1.9693,2.086
27.717000,-0.7051,0.3047,-1.8759,2.027
27.717000,-0.7101,0.3609,-1.6492,1.831
27.717000,-0.6058,0.4228,-1.2296,1.434
27.724000,-0.3996,0.4902,-0.6816,0.930
27.728000,-0.1296,0.5603,-0.1008,0.584
27.734000,0.0923,0.6494,0.5345,0.846
27.738000,0.2476,0.6874,1.0789,1.303
27.744000,0.3538,0.7078,1.4847,1.682
27.748000,0.5240,0.7226,1.6371,1.865
27.752000,0.6146,0.8297,2.0747,2.317
