SensorId, TimeStamp (s), FrameNumber, AccX (g), AccY (g), AccZ (g), GyroX (deg/s), GyroY (deg/s), GyroZ (deg/s), MagX (uT), MagY (uT), MagZ (uT), EulerX (deg), EulerY (deg), EulerZ (deg), QuatW, QuatX, QuatY, QuatZ, LinAccX (g), LinAccY (g), LinAccZ (g), Pressure (kPa), Altitude (m), Temperature (degC), HeaveMotion (m)
1, 0.0002, 0, 0.20654525, -0.95458257, 0.52976185, 18.65118790, -99.11934662, 71.26811981, -49.28383636, 8.82782841, -67.72873688, 100.31040192, 3.86345053, -8.60886860, -0.63659763, 0.76680291, -0.03605733, -0.07386960, -0.13933820, -0.02787627, -0.35252729, 100.35100555, 81.39475250, 32.05999756, 0.00000000
1, 0.0052, 1, 0.19385080, -1.02885056, 0.48471725, 23.79372406, -95.21578217, 70.10391998, -49.28383636, 8.82782841, -67.72873688, 100.39562225, 3.60359931, -9.14083672, -0.63586348, 0.76704115, -0.04112451, -0.07506269, -0.13108411, 0.04641429, -0.30623108, 100.35100555, 81.39475250, 32.05999756, 0.00000000
1, 0.0102, 2, 0.23623888, -1.07545805, 0.50242513, 22.35012817, -82.47001648, 66.78067017, -49.28383636, 8.82782841, -67.72873688, 100.47989655, 3.34944224, -9.60724926, -0.63517410, 0.76726747, -0.04572052, -0.07592299, -0.17795834, 0.09299615, -0.32237163, 100.35100555, 81.39475250, 32.05999756, 0.00000000
1, 0.0152, 3, 0.29654226, -1.05673420, 0.53309160, 17.20074844, -71.11573029, 67.88802338, -49.63460922, 11.51710033, -67.29026794, 100.54363251, 3.08011317, -10.01896286, -0.63467026, 0.76737058, -0.05002071, -0.07638130, -0.24293377, 0.07418075, -0.35163379, 100.35100555, 81.39475250, 32.05999756, 0.00000000
1, -0.0001, 0, 0.73999023, -0.96569824, 0.36743164, -4.19343901, 6.89172077, 33.93470001, -49.89768982, 0.55539316, -63.75328827, 100.00782776, 27.56928253, 80.29612732, 0.59483886, -0.46997386, -0.59678257, -0.26294878, -0.27649605, 0.09309508, -0.21336548, 100.27300262, 87.94092560, 31.50000000, 0.00000000
1, 0.0049, 1, 0.73303223, -0.94433594, 0.39886475, -0.90343785, -2.41828227, 36.06969833, -49.89768982, 0.55539316, -63.75328827, 99.98085022, 27.39376831, 80.24743652, 0.59450567, -0.47091684, -0.59596908, -0.26385853, -0.27224749, 0.07027603, -0.24492976, 100.27300262, 87.94092560, 31.50000000, 0.00000000
1, 0.0099, 2, 0.72283936, -0.92376709, 0.43414307, 3.12156367, -12.84828568, 38.06470108, -49.89768982, 0.55539316, -63.75328827, 99.94680786, 27.21743774, 80.13917542, 0.59433645, -0.47213483, -0.59488875, -0.26450029, -0.26478672, 0.04822746, -0.28046352, 100.27300262, 87.94092560, 31.50000000, 0.00000000
1, 0.0149, 3, 0.74218750, -0.90954590, 0.47149658, 7.91656494, -22.64829063, 39.95470047, -51.18386459, 1.22771120, -63.95790482, 99.91159821, 27.04017830, 79.97513580, 0.59429884, -0.47363767, -0.59356844, -0.26486382, -0.28688174, 0.03252346, -0.31811005, 100.27300262, 87.94092560, 31.50000000, 0.00000000
1, 0.0199, 4, 0.72180176, -0.93237305, 0.50866699, 14.56656837, -33.98828888, 42.82469940, -51.18386459, 1.22771120, -63.95790482, 99.88061523, 26.85844612, 79.74605560, 0.59438121, -0.47551590, -0.59196866, -0.26489380, -0.26929450, 0.05385796, -0.35554034, 100.27300262, 87.94092560, 31.50000000, 0.00000000
1, 0.0202, 4, 0.29379845, -1.08327246, 0.53342557, 16.48447037, -71.93160248, 75.55410767, -49.63460922, 11.51710033, -67.29026794, 100.60540009, 2.77426958, -10.44184780, -0.63420057, 0.76741976, -0.05459660, -0.07665400, -0.24535030, 0.10064687, -0.35092714, 100.35100555, 81.39475250, 32.05999756, 0.00000000
1, 0.0252, 5, 0.16125393, -1.17320216, 0.48281667, 18.42229271, -80.48871613, 83.07200623, -49.45922089, 11.31248188, -67.11487579, 100.67707062, 2.43981361, -10.91396904, -0.63365519, 0.76745832, -0.05966626, -0.07699804, -0.11843112, 0.19061756, -0.29955384, 100.35100555, 81.39475250, 32.05999756, 0.00000000
1, 0.0302, 6, -0.01888501, -1.18890870, 0.42861032, 29.60135460, -103.18207550, 90.76627350, -49.45922089, 11.31248188, -67.11487579, 100.80284882, 2.08944607, -11.50520802, -0.63268149, 0.76768595, -0.06565659, -0.07785673, 0.05578580, 0.20652427, -0.24389724, 100.35100555, 81.39475250, 32.05999756, 0.00000000
1, 0.0249, 5, 0.79266357, -0.95684814, 0.50543213, 20.83156967, -43.29829407, 46.39470291, -50.62847137, 1.57848585, -63.40251160, 99.85717010, 26.66700363, 79.46265411, 0.59452856, -0.47775301, -0.59012139, -0.26465946, -0.34310681, 0.07679904, -0.35242403, 100.27300262, 87.94092560, 31.50000000, 0.00000000
1, 0.0299, 6, 0.84228516, -0.97625732, 0.47332764, 24.01657104, -52.08329773, 49.22970581, -50.62847137, 1.57848585, -63.40251160, 99.82791138, 26.46899605, 79.12873840, 0.59479725, -0.48024258, -0.58801830, -0.26423094, -0.39579484, 0.09462158, -0.32047492, 100.27300262, 87.94092560, 31.50000000, 0.00000000
1, 0.0349, 7, 0.90783691, -0.99853516, 0.42010498, 27.20157242, -62.16329956, 51.50470352, -50.62847137, 1.57848585, -63.40251160, 99.79035187, 26.26819611, 78.73793030, 0.59522420, -0.48298332, -0.58563524, -0.26356518, -0.46447691, 0.11527218, -0.26753557, 100.27300262, 87.94092560, 31.50000000, 0.00000000
1, 0.0352, 7, -0.11770690, -1.19799089, 0.45111093, 37.43828201, -102.30414581, 85.99044800, -49.45922089, 11.31248188, -66.35486603, 100.97151947, 1.76331484, -12.08840942, -0.63140839, 0.76811779, -0.07148646, -0.07879331, 0.14873926, 0.21588963, -0.26390457, 100.35100555, 81.39475250, 32.05999756, 0.00000000
1, 0.0402, 8, -0.10624077, -1.23069513, 0.46846712, 40.97576904, -85.03136444, 77.20848846, -49.22537231, 12.59865570, -66.35486603, 101.16573334, 1.46458709, -12.57963848, -0.63000637, 0.76871949, -0.07656481, -0.07937337, 0.13191254, 0.24904153, -0.27802020, 100.35100555, 81.39475250, 32.05999756, 0.00000000
1, 0.0399, 8, 0.92266846, -1.02032471, 0.40161133, 30.31657410, -72.73329926, 53.56970596, -51.18386459, 1.49079216, -63.25635529, 99.74352264, 26.06593704, 78.28798676, 0.59582269, -0.48597184, -0.58296102, -0.26264668, -0.48247075, 0.13540921, -0.24946161, 100.27300262, 87.94092560, 31.50000000, 0.00000000
1, 0.0449, 9, 0.89141846, -1.04156494, 0.38885498, 32.48657227, -81.20330811, 54.61970520, -51.18386459, 1.49079216, -63.25635529, 99.68862152, 25.86526871, 77.79159546, 0.59656733, -0.48913142, -0.58005810, -0.26151574, -0.45437720, 0.15499026, -0.23726565, 100.27300262, 87.94092560, 31.50000000, 0.00000000
1, 0.0699, 10, 0.77612305, -1.22674561, 0.52435303, 47.08157730, -85.01830292, 37.15469742, -51.47617722, 0.67231804, -61.73633194, 99.59272766, 25.07792854, 75.15909576, 0.60049057, -0.50537765, -0.56573886, -0.25287157, -0.35185325, 0.33385390, -0.37355736, 100.27300262, 87.94092560, 31.50000000, 0.00000000
1, 0.0749, 11, 0.84417725, -1.24884033, 0.51379395, 44.10657501, -78.96330261, 31.20470047, -51.21309662, 2.98158431, -60.91785812, 99.61932373, 24.98997498, 74.70072174, 0.60111755, -0.50817049, -0.56346363, -0.25085694, -0.42139381, 0.35533464, -0.36246124, 100.27300262, 87.94092560, 31.50000000, 0.00000000
1, 0.0602, 9, 0.77507269, -1.56104922, 0.23280032, 6.42050743, -28.99538994, 57.81249619, -49.75153351, 13.56328583, -65.50716400, 101.65773010, 0.40055940, -13.56140041, -0.62689716, 0.77009588, -0.08934180, -0.07726783, -0.76758111, 0.58130944, -0.03145299, 100.35100555, 81.39475250, 32.05999756, 0.00000000
1, 0.0652, 10, 0.79444802, -1.56632221, -0.01496948, 1.70367026, -44.94255829, 57.31716919, -49.75153351, 13.56328583, -65.50716400, 101.66561127, 0.16487890, -13.83901501, -0.62685049, 0.76976776, -0.09250262, -0.07719750, -0.79051757, 0.58700109, 0.21653858, 100.35100555, 81.39475250, 32.05999756, 0.00000000
1, 0.0799, 12, 0.86816406, -1.25250244, 0.45434570, 40.04657364, -73.53830719, 25.11469650, -51.21309662, 2.98158431, -60.91785812, 99.64106750, 24.92768478, 74.27770233, 0.60175830, -0.51063961, -0.56141227, -0.24889866, -0.44647345, 0.35855609, -0.30256784, 100.27300262, 87.94092560, 31.50000000, 0.00000000
1, 0.0849, 13, 0.92639160, -1.24108887, 0.37103271, 35.67157364, -69.47830963, 18.60469437, -51.21309662, 2.98158431, -60.91785812, 99.65315247, 24.89419365, 73.88290405, 0.60245961, -0.51278341, -0.55955744, -0.24696366, -0.50534362, 0.34688723, -0.21897355, 100.27300262, 87.94092560, 31.50000000, 0.00000000
1, 0.0899, 14, 0.95544434, -1.22576904, 0.25183105, 31.64657211, -68.07830048, 12.30469227, -51.27155685, 2.86465931, -60.68400955, 99.65087891, 24.89063263, 73.50160217, 0.60327780, -0.51464647, -0.55783063, -0.24498981, -0.53457224, 0.33149156, -0.09973103, 100.27300262, 87.94092560, 31.50000000, 0.00000000
1, 0.0702, 11, 0.77702594, -1.53963399, -0.11109146, 4.52622938, -45.68272018, 58.70073700, -49.75153351, 13.56328583, -65.50716400, 101.68872833, -0.07673080, -14.12169361, -0.62670439, 0.76950067, -0.09573843, -0.07710207, -0.77702135, 0.56052673, 0.31297085, 100.35100555, 81.39475250, 32.05999756, 0.00000000
1, 0.0752, 12, 0.78762025, -1.48372149, 0.02392616, 6.18400860, -43.60727692, 62.83021545, -49.63460922, 14.44022179, -65.41946411, 101.72144318, -0.34049088, -14.39848042, -0.62651777, 0.76926053, -0.09906025, -0.07681622, -0.79244620, 0.50451690, 0.17861316, 100.35100555, 81.39475250, 32.05999756, 0.00000000
1, 0.0802, 13, 0.70600623, -1.38091671, 0.05429583, 4.23020077, -55.85430145, 74.69122314, -49.63460922, 14.44022179, -65.41946411, 101.74653625, -0.64985842, -14.74736691, -0.62637407, 0.76886493, -0.10310748, -0.07662320, -0.71603066, 0.40179700, 0.14867178, 100.35100555, 81.39475250, 32.05999756, 0.00000000
1, 0.0949, 15, 0.95324707, -1.20935059, 0.14807129, 28.49657249, -68.28829956, 7.78969002, -51.27155685, 2.86465931, -60.68400955, 99.63409424, 24.90942574, 73.12330627, 0.60421354, -0.51631343, -0.55615991, -0.24296652, -0.53213656, 0.31514430, 0.00378680, 100.27300262, 87.94092560, 31.50000000, 0.00000000
1, 0.0999, 16, 0.88256836, -1.21154785, 0.04058838, 22.23157120, -70.70330048, -0.96031243, -51.21309662, 3.09850907, -60.33323669, 99.58353424, 24.97317314, 72.73979187, 0.60543543, -0.51762313, -0.55455041, -0.24080755, -0.46065110, 0.31760329, 0.11056896, 100.27300262, 87.94092560, 31.50000000, 0.00000000
1, 0.1049, 17, 0.77209473, -1.22827148, -0.02972412, 18.52156830, -71.68330383, -5.30031395, -51.21309662, 3.09850907, -60.33323669, 99.51327515, 25.05877304, 72.35460663, 0.60680401, -0.51873457, -0.55296820, -0.23859900, -0.34890547, 0.33473992, 0.17976427, 100.27300262, 87.94092560, 31.50000000, 0.00000000
1, 0.0852, 14, 0.51206070, -1.37888134, -0.07927340, 4.45289850, -74.56040955, 86.51078033, -50.39462280, 14.70330334, -65.50716400, 101.77646637, -0.99803156, -15.19996452, -0.62616396, 0.76834488, -0.10806169, -0.07673027, -0.52770358, 0.40014958, 0.28219786, 100.35100555, 81.39475250, 32.05999756, 0.00000000
1, 0.0902, 15, 0.14524314, -1.42571890, -0.31632668, 8.82867432, -89.48482513, 98.99855804, -50.39462280, 14.70330334, -65.50716400, 101.82851410, -1.39103401, -15.73793221, -0.62579018, 0.76778978, -0.11384179, -0.07697837, -0.16698402, 0.44767106, 0.51904702, 100.35100555, 81.39475250, 32.05999756, 0.00000000
1, 0.0952, 16, -0.08127014, -1.48842919, -0.33559215, 11.45438004, -84.78673553, 104.51020813, -50.39462280, 14.70330334, -65.50716400, 101.90165710, -1.81597972, -16.25973129, -0.62531817, 0.76729232, -0.11969452, -0.07689689, 0.05228437, 0.51084507, 0.53877586, 100.35100555, 81.39475250, 32.05999756, 0.00000000
1, 0.1099, 18, 0.59692383, -1.24542236, -0.07238770, 14.98656750, -72.80329895, -8.73031521, -51.21309662, 3.09850907, -60.33323669, 99.42330933, 25.16171265, 71.96600342, 0.60830909, -0.51967597, -0.55139136, -0.23635711, -0.17217110, 0.35239166, 0.22098345, 100.27300262, 87.94092560, 31.50000000, 0.00000000
1, 0.1149, 19, 0.41754150, -1.25231934, -0.11059570, 11.20656681, -73.15330505, -11.53031635, -50.80385971, 2.86465931, -59.69014740, 99.31379700, 25.27814865, 71.57746887, 0.60993057, -0.52044761, -0.54982382, -0.23412134, 0.00900244, 0.35984886, 0.25741622, 100.27300262, 87.94092560, 31.50000000, 0.00000000
1, 0.1002, 17, -0.19719790, -1.48504651, -0.23709853, 7.74044609, -80.32172394, 105.82063293, -50.89155197, 15.25869656, -65.39023590, 101.95947266, -2.25134373, -16.76164055, -0.62497652, 0.76667541, -0.12545268, -0.07664698, 0.16039529, 0.50777817, 0.44102913, 100.35100555, 81.39475250, 32.05999756, 0.00000000
1, 0.1699, 20, -0.77331543, -0.90344238, 0.37927246, -5.52343941, 42.52173615, 9.95969105, -50.24846649, 3.04004669, -60.24554062, 98.64346313, 25.99123764, 69.80078888, 0.61846542, -0.52219015, -0.54301023, -0.22351289, 1.21186733, 0.01490137, -0.24448717, 100.27300262, 87.94092560, 31.50000000, 0.00000000
1, 0.1749, 21, -0.50750732, -0.92169189, 0.42468262, -4.96343946, 81.72175598, 16.78469276, -50.42385101, 2.19234133, -60.36246490, 98.80873871, 25.84630013, 70.23567963, 0.61647445, -0.52165335, -0.54478109, -0.22594394, 0.94407940, 0.03253025, -0.28758603, 100.27300262, 87.94092560, 31.50000000, 0.00000000
1, 0.1052, 18, -0.24166098, -1.39013183, -0.15440142, 1.48668826, -78.27922821, 104.09115601, -50.89155197, 15.25869656, -65.39023590, 101.98931122, -2.68004227, -17.25226212, -0.62482899, 0.76587903, -0.13107274, -0.07640737, 0.19713581, 0.41316369, 0.35894099, 100.35100555, 81.39475250, 32.05999756, 0.00000000
1, 0.1552, 19, -0.82085633, -0.72850657, 0.41437262, 23.72406769, -4.10267115, 57.27419662, -52.11926270, 17.48026848, -64.57176208, 103.00740814, -6.21080971, -19.90619278, -0.61952388, 0.76390874, -0.16828898, -0.06566961, 0.71280795, -0.24104263, -0.19435751, 100.35100555, 81.39475250, 32.05999756, 0.00000000
1, 0.1602, 20, -0.81017041, -0.73390567, 0.49714899, 22.42101860, 8.12266541, 50.99237442, -52.79158020, 18.41566849, -63.98713684, 103.12207794, -6.46811771, -19.92388153, -0.61897677, 0.76416546, -0.16982861, -0.06385373, 0.69737488, -0.23482694, -0.27521640, 100.35100555, 81.39475250, 32.05999756, 0.00000000
1, 0.1652, 21, -0.73815823, -0.74684513, 0.51548666, 19.64152908, 16.01141739, 44.90638733, -52.79158020, 18.41566849, -63.98713684, 103.21768188, -6.70470810, -19.89646912, -0.61856079, 0.76440948, -0.17094366, -0.06196010, 0.62112188, -0.22105663, -0.29181892, 100.35100555, 81.39475250, 32.05999756, 0.00000000
1, 0.1799, 22, -0.28247070, -0.95947266, 0.47454834, -6.04843950, 96.38674927, 23.22469711, -50.42385101, 2.19234133, -60.36246490, 98.99950409, 25.65698051, 70.74435425, 0.61408621, -0.52108765, -0.54678041, -0.22890417, 0.71624100, 0.06942262, -0.33435959, 100.27300262, 87.94092560, 31.50000000, 0.00000000
1, 0.1849, 23, -0.07080078, -0.99163818, 0.50360107, -8.21844101, 105.55675507, 30.39970016, -50.42385101, 2.19234133, -60.36246490, 99.19596100, 25.42343712, 71.29529572, 0.61144394, -0.52053249, -0.54882914, -0.23231211, 0.50106680, 0.10041595, -0.36010039, 100.27300262, 87.94092560, 31.50000000, 0.00000000
1, 0.1899, 24, 0.12518311, -1.00793457, 0.50201416, -11.12344170, 110.59675598, 36.45470047, -51.56386948, 2.68927217, -60.68400955, 99.38429260, 25.15427589, 71.86632538, 0.60867053, -0.51998091, -0.55083185, -0.23605990, 0.30096573, 0.11527038, -0.35522914, 100.27300262, 87.94092560, 31.50000000, 0.00000000
1, 0.1949, 25, 0.32330322, -1.00921631, 0.47766113, -12.97844124, 111.71675873, 40.54969788, -51.56386948, 2.68927217, -60.68400955, 99.56085205, 24.86235809, 72.43746948, 0.60585397, -0.51945311, -0.55273765, -0.23998018, 0.09830773, 0.11492179, -0.32773021, 100.27300262, 87.94092560, 31.50000000, 0.00000000
1, 0.1999, 26, 0.51397705, -1.01904297, 0.43902588, -12.97844124, 109.40676117, 43.13970184, -52.61619186, 1.95849168, -61.18093872, 99.72752380, 24.55805779, 72.99134827, 0.60304970, -0.51899809, -0.55450886, -0.24391010, -0.09714913, 0.12301788, -0.28608409, 100.27300262, 87.94092560, 31.50000000, 0.00000000
1, 0.2049, 27, 0.77069092, -1.08282471, 0.38568115, -12.59344196, 102.96675873, 43.38470078, -52.61619186, 1.95849168, -61.18093872, 99.87799835, 24.25663948, 73.50788879, 0.60037458, -0.51861435, -0.55609494, -0.24768513, -0.35868174, 0.18505588, -0.22993320, 100.27300262, 87.94092560, 31.50000000, 0.00000000
1, 0.1702, 22, -0.64463079, -0.78888810, 0.47874841, 16.94537926, 17.22498894, 39.78190994, -52.79158020, 18.41566849, -63.98713684, 103.29828644, -6.91780186, -19.85758400, -0.61822742, 0.76461846, -0.17184727, -0.06018434, 0.52388710, -0.17817976, -0.25359300, 100.35100555, 81.39475250, 32.05999756, 0.00000000
1, 0.1752, 23, -0.53675634, -0.81126618, 0.35105076, 14.14724922, 18.05388260, 34.68462372, -53.14235687, 18.53259277, -64.01636505, 103.36352539, -7.10711813, -19.80903053, -0.61797822, 0.76478904, -0.17255090, -0.05853946, 0.41294938, -0.15491711, -0.12460393, 100.35100555, 81.39475250, 32.05999756, 0.00000000
1, 0.1802, 24, -0.42933491, -0.82512784, 0.25972798, 15.33401203, 21.76788521, 29.81568146, -53.14235687, 18.53259277, -64.01636505, 103.43151093, -7.27706289, -19.73680115, -0.61770344, 0.76503503, -0.17299423, -0.05689333, 0.30273569, -0.14027268, -0.03201220, 100.35100555, 81.39475250, 32.05999756, 0.00000000
1, 0.2099, 28, 0.85620117, -1.09912109, 0.36413574, -14.69344234, 91.69675446, 41.73970413, -52.61619186, 1.95849168, -61.18093872, 99.99058533, 23.97194290, 73.96321106, 0.59802502, -0.51824647, -0.55738813, -0.25120762, -0.44883299, 0.19964942, -0.20602098, 100.27300262, 87.94092560, 31.50000000, 0.00000000
1, 0.2149, 29, 0.93933105, -1.08410645, 0.32177734, -19.10344505, 70.90674591, 37.71469879, -53.66851807, 3.18620276, -62.35018921, 100.03491974, 23.72459412, 74.30908966, 0.59631515, -0.51788467, -0.55817246, -0.25425810, -0.53603470, 0.18301359, -0.16245839, 100.27300262, 87.94092560, 31.50000000, 0.00000000
1, 0.2549, 30, 0.23736572, -0.85614014, 0.41943359, -4.64843893, -24.29329109, 15.97969437, -54.89622879, 3.36159015, -62.49634552, 99.65759277, 22.74341011, 74.59532166, 0.59437704, -0.51885104, -0.55511373, -0.26335970, 0.14947203, -0.05288640, -0.26442632, 100.27300262, 87.94092560, 31.50000000, 0.00000000
1, 0.2599, 31, 0.18389893, -0.85107422, 0.42657471, -1.60343814, -27.05829048, 16.81969261, -55.07161713, 3.65390229, -63.63636398, 99.58787537, 22.68310547, 74.43547821, 0.59487480, -0.51952732, -0.55401224, -0.26322189, 0.20198208, -0.05854280, -0.27265054, 100.27300262, 87.94092560, 31.50000000, 0.00000000
1, 0.1852, 25, -0.33222315, -0.87375188, 0.27186978, 18.86824417, 25.81500626, 26.43204308, -53.75621033, 19.02952385, -64.07482910, 103.51388550, -7.43526983, -19.64095879, -0.61733109, 0.76540935, -0.17322326, -0.05517717, 0.20281324, -0.09100524, -0.04275282, 100.35100555, 81.39475250, 32.05999756, 0.00000000
1, 0.1902, 26, -0.23517343, -0.97940886, 0.32163846, 21.20228958, 26.63256264, 25.12488747, -53.75621033, 19.02952385, -64.07482910, 103.61007690, -7.59064817, -19.54067993, -0.61686265, 0.76586795, -0.17341185, -0.05343480, 0.10295397, 0.01528763, -0.09097812, 100.35100555, 81.39475250, 32.05999756, 0.00000000
1, 0.2502, 27, -0.08830669, -0.98571110, 0.42320442, 15.13584232, 9.18015480, 31.76150894, -54.75007248, 20.72493362, -64.92253876, 104.70280457, -9.50369358, -19.08424759, -0.61116862, 0.76974481, -0.18070309, -0.03622563, -0.07715016, 0.03083958, -0.17499991, 100.35100555, 81.39475250, 32.05999756, 0.00000000
1, 0.2552, 28, -0.14085592, -0.97287726, 0.45187885, 14.83171749, 4.95844650, 31.94517326, -54.75007248, 20.72493362, -64.92253876, 104.78013611, -9.66431618, -19.10083389, -0.61075693, 0.76989800, -0.18166420, -0.03508901, -0.02745922, 0.01874903, -0.20261960, 100.35100555, 81.39475250, 32.05999756, 0.00000000
1, 0.2649, 32, 0.13531494, -0.85693359, 0.43127441, 2.03656316, -27.82829094, 18.35969543, -55.07161713, 3.65390229, -63.63636398, 99.53443909, 22.61569595, 74.27028656, 0.59528983, -0.52034307, -0.55289650, -0.26301810, 0.24951309, -0.05327184, -0.27819499, 100.27300262, 87.94092560, 31.50000000, 0.00000000
1, 0.2699, 33, 0.09912109, -0.87872314, 0.42962646, 5.64156389, -27.58329201, 20.24969482, -55.07161713, 3.65390229, -63.63636398, 99.49913025, 22.53863525, 74.10485077, 0.59559411, -0.52129412, -0.55178440, -0.26278147, 0.28450486, -0.03208214, -0.27709863, 100.27300262, 87.94092560, 31.50000000, 0.00000000
1, 0.2749, 34, 0.07049561, -0.90295410, 0.42315674, 8.47656536, -26.60329247, 22.27969551, -54.60391617, 3.80005836, -63.40251160, 99.47959137, 22.45068359, 73.94297791, 0.59578562, -0.52235526, -0.55068284, -0.26255101, 0.31175756, -0.00847411, -0.27090353, 100.27300262, 87.94092560, 31.50000000, 0.00000000
1, 0.2602, 29, -0.19159722, -0.96318090, 0.43863103, 13.12630558, 1.90872240, 32.13955307, -55.65623856, 21.28032684, -65.01023102, 104.85158539, -9.82200336, -19.13286018, -0.61037731, 0.76999760, -0.18271041, -0.03406291, 0.02058977, 0.00984647, -0.18838398, 100.35100555, 81.39475250, 32.05999756, 0.00000000
1, 0.2652, 30, -0.25280744, -0.94510937, 0.40912136, 11.79888821, -0.15119447, 31.86198997, -55.65623856, 21.28032684, -65.01023102, 104.91819763, -9.97570324, -19.17485237, -0.61002409, 0.77005917, -0.18380001, -0.03312367, 0.07921132, -0.00743184, -0.15799463, 100.35100555, 81.39475250, 32.05999756, 0.00000000
1, 0.2702, 31, -0.30602616, -0.93091464, 0.41935807, 11.40590858, -0.20344372, 30.98944092, -55.65623856, 21.28032684, -65.01023102, 104.98281860, -10.12506866, -19.21615410, -0.60968119, 0.77011549, -0.18486078, -0.03221259, 0.12981871, -0.02091374, -0.16737619, 100.35100555, 81.39475250, 32.05999756, 0.00000000
1, 0.2799, 35, 0.05072021, -0.94665527, 0.41003418, 10.99656582, -25.02829170, 25.14969826, -54.60391617, 3.80005836, -63.40251160, 99.47515869, 22.34725189, 73.78707886, 0.59584743, -0.52353144, -0.54958421, -0.26236981, 0.32994136, 0.03455612, -0.25781214, 100.27300262, 87.94092560, 31.50000000, 0.00000000
1, 0.2849, 36, 0.04882813, -0.97540283, 0.40106201, 12.60656643, -22.12328720, 27.87969780, -55.39315796, 3.74159598, -63.28558731, 99.48406982, 22.22797585, 73.64435577, 0.59576994, -0.52478033, -0.54851574, -0.26228663, 0.32996142, 0.06256241, -0.24861328, 100.27300262, 87.94092560, 31.50000000, 0.00000000
1, 0.2899, 37, 0.05969238, -1.00671387, 0.39355469, 13.44656754, -19.56828880, 30.50469780, -55.39315796, 3.74159598, -63.28558731, 99.50175476, 22.09367561, 73.51300049, 0.59558040, -0.52608317, -0.54746175, -0.26230937, 0.31698781, 0.09306687, -0.24071199, 100.27300262, 87.94092560, 31.50000000, 0.00000000
1, 0.2752, 32, -0.33927256, -0.91028845, 0.48529980, 11.51936150, 1.88407302, 29.67072105, -54.86699677, 20.90032196, -63.98713684, 105.04600525, -10.27071476, -19.24568939, -0.60934830, 0.77018666, -0.18582147, -0.03126564, 0.16038333, -0.04093092, -0.23243394, 100.35100555, 81.39475250, 32.05999756, 0.00000000
1, 0.2802, 33, -0.33071259, -0.90514708, 0.50718129, 11.79191589, 2.57966900, 28.35184669, -54.86699677, 20.90032196, -63.98713684, 105.10971069, -10.41085052, -19.27023888, -0.60900915, 0.77027529, -0.18671931, -0.03032824, 0.14933428, -0.04539550, -0.25334066, 100.35100555, 81.39475250, 32.05999756, 0.00000000
1, 0.2852, 34, -0.30950132, -0.90687120, 0.40909359, 9.97958755, -0.84700769, 26.78599739, -55.71470261, 20.66647148, -63.84098053, 105.16710663, -10.53897667, -19.30971909, -0.60869998, 0.77032256, -0.18765336, -0.02956219, 0.12610927, -0.04284325, -0.15432897, 100.35100555, 81.39475250, 32.05999756, 0.00000000
1, 0.2949, 38, 0.08135986, -1.02978516, 0.38848877, 13.09656811, -17.18828583, 33.05969620, -55.39315796, 3.74159598, -63.28558731, 99.52191925, 21.94484711, 73.39211273, 0.59531105, -0.52740920, -0.54640532, -0.26246074, 0.29297030, 0.11525212, -0.23517257, 100.27300262, 87.94092560, 31.50000000, 0.00000000
1, 0.2999, 39, 0.10754395, -1.04266357, 0.37506104, 12.22156620, -15.82328796, 35.57969666, -55.59777832, 3.80005836, -63.08097076, 99.53989410, 21.78250313, 73.27630615, 0.59499860, -0.52875525, -0.54531455, -0.26272899, 0.26421094, 0.12715986, -0.22127306, 100.27300262, 87.94092560, 31.50000000, 0.00000000
1, 0.2902, 35, -0.32961470, -0.91360247, 0.30648705, 7.87657785, -3.81786466, 24.98934555, -55.71470261, 20.66647148, -63.84098053, 105.22045898, -10.67031002, -19.36326408, -0.60841656, 0.77031863, -0.18869610, -0.02885447, 0.14431199, -0.03531371, -0.05100535, 100.35100555, 81.39475250, 32.05999756, 0.00000000
1, 0.2952, 36, -0.33961627, -0.92542982, 0.23976877, 6.33071804, -2.81763339, 23.38541222, -55.71470261, 20.66647148, -63.84098053, 105.26077271, -10.77942085, -19.40818024, -0.60820788, 0.77029181, -0.18956347, -0.02827470, 0.15245198, -0.02280774, 0.01630273, 100.35100555, 81.39475250, 32.05999756, 0.00000000
1, 0.3299, 40, 0.21392822, -1.00256348, 0.23834229, 6.65656471, -14.31828690, 40.96969986, -55.77316666, 3.94621444, -62.73019409, 99.56650543, 20.66814423, 72.57662201, 0.59308052, -0.53696847, -0.53797090, -0.26553285, 0.13980012, 0.08022749, -0.08286895, 100.27300262, 87.94092560, 31.50000000, 0.00000000
1, 0.3349, 41, 0.21893311, -0.98370361, 0.23175049, 5.74656439, -13.23328590, 40.19969940, -56.27009583, 4.41391420, -62.87635040, 99.55821228, 20.48092651, 72.47126770, 0.59278971, -0.53821319, -0.53675222, -0.26612774, 0.13172144, 0.06020636, -0.07620757, 100.27300262, 87.94092560, 31.50000000, 0.00000000
1, 0.3402, 37, -0.20684209, -0.97609353, 0.19489413, 5.26839161, -4.31156921, 18.45602226, -56.47471619, 22.24495697, -64.10406494, 105.54051208, -11.56919575, -19.88366508, -0.60674804, 0.76973802, -0.19682811, -0.02487792, 0.00616436, 0.03181617, 0.06542371, 100.35100555, 81.39475250, 32.05999756, 0.00000000
1, 0.3452, 38, -0.19720595, -0.99477768, 0.19017939, 5.50725079, -0.57781869, 18.26155853, -56.47471619, 22.24495697, -64.10406494, 105.57383728, -11.65635681, -19.91133499, -0.60657650, 0.76972741, -0.19746140, -0.02436551, -0.00493668, 0.05093386, 0.07053277, 100.35100555, 81.39475250, 32.05999756, 0.00000000
1, 0.3399, 42, 0.21636963, -0.96472168, 0.23211670, 4.55656433, -11.97328472, 38.83470154, -56.27009583, 4.41391420, -62.87635040, 99.54708099, 20.29937744, 72.37391663, 0.59251118, -0.53937882, -0.53558266, -0.26674390, 0.13129042, 0.04009581, -0.07655668, 100.27300262, 87.94092560, 31.50000000, 0.00000000
1, 0.3449, 43, 0.21044922, -0.94842529, 0.23229980, 3.33156371, -10.15328503, 37.01469803, -56.27009583, 4.41391420, -62.87635040, 99.53401184, 20.12528038, 72.28788757, 0.59223837, -0.54044735, -0.53448707, -0.26738369, 0.13432921, 0.02271626, -0.07676801, 100.27300262, 87.94092560, 31.50000000, 0.00000000
1, 0.3499, 44, 0.21173096, -0.93304443, 0.23321533, 2.10656309, -7.91328382, 34.98469925, -56.35778809, 4.76468849, -63.25635529, 99.51976013, 19.95931435, 72.21552277, 0.59196430, -0.54140931, -0.53348148, -0.26805165, 0.13029389, 0.00630421, -0.07774507, 100.27300262, 87.94092560, 31.50000000, 0.00000000
1, 0.3502, 39, -0.15699078, -0.99363995, 0.16145787, 5.01185226, 2.07354450, 17.91043472, -55.91932297, 22.18649483, -64.22098541, 105.60202026, -11.74535942, -19.92554474, -0.60644358, 0.76970923, -0.19801205, -0.02377771, -0.04659583, 0.05027927, 0.09975326, 100.35100555, 81.39475250, 32.05999756, 0.00000000
1, 0.3552, 40, -0.10085577, -0.97462618, 0.15405600, 5.83416271, 4.62719440, 17.75052261, -55.91932297, 22.18649483, -64.22098541, 105.63169861, -11.83699131, -19.92701721, -0.60630459, 0.76971608, -0.19849022, -0.02310143, -0.10426238, 0.03172168, 0.10771476, 100.35100555, 81.39475250, 32.05999756, 0.00000000
1, 0.3602, 41, -0.02903670, -0.96139479, 0.21021067, 7.02006912, 6.80589628, 18.83892250, -56.27009583, 21.71879578, -63.98713684, 105.66545105, -11.93677711, -19.91930199, -0.60614508, 0.76974666, -0.19894813, -0.02231298, -0.17787941, 0.01888344, 0.05220129, 100.35100555, 81.39475250, 32.05999756, 0.00000000
1, 0.3549, 45, 0.21191406, -0.91894531, 0.23889160, 1.40656292, -6.12828350, 32.14970016, -56.35778809, 4.76468849, -63.25635529, 99.50624847, 19.80583763, 72.15514374, 0.59169716, -0.54226518, -0.53257960, -0.26870430, 0.12754954, -0.00874764, -0.08348963, 100.27300262, 87.94092560, 31.50000000, 0.00000000
1, 0.3599, 46, 0.22491455, -0.90875244, 0.25476074, 0.04156243, -0.66828173, 28.92969704, -56.82548904, 5.05700064, -62.35018921, 99.49669647, 19.66373634, 72.12626648, 0.59137213, -0.54294586, -0.53187788, -0.26943418, 0.11215727, -0.01981768, -0.09939130, 100.27300262, 87.94092560, 31.50000000, 0.00000000
1, 0.3649, 47, 0.24389648, -0.90313721, 0.27008057, -0.55343777, 2.72671938, 26.16469383, -56.82548904, 5.05700064, -62.35018921, 99.49102783, 19.53245544, 72.11763000, 0.59101403, -0.54350638, -0.53132153, -0.27018660, 0.09097218, -0.02622572, -0.11468712, 100.27300262, 87.94092560, 31.50000000, 0.00000000
1, 0.3652, 42, -0.00588536, -0.96790719, 0.24997635, 7.62632561, 6.98677063, 20.23760414, -56.27009583, 21.71879578, -63.98713684, 105.70246124, -12.04353333, -19.91267014, -0.60596758, 0.76978076, -0.19944845, -0.02147613, -0.20292595, 0.02586477, 0.01297741, 100.35100555, 81.39475250, 32.05999756, 0.00000000
1, 0.3702, 43, 0.01317857, -0.98555529, 0.27131113, 6.97944117, 5.08333731, 22.40875435, -56.18240356, 21.71879578, -63.98713684, 105.73885345, -12.15819550, -19.91847420, -0.60579652, 0.76977634, -0.20007129, -0.02065112, -0.22397532, 0.04404726, -0.00784097, 100.35100555, 81.39475250, 32.05999756, 0.00000000
1, 0.3752, 44, 0.00964156, -0.98621964, 0.23522642, 6.11341715, 3.53860497, 24.06546402, -56.18240356, 22.77112007, -63.98713684, 105.77305603, -12.27875710, -19.93426132, -0.60564172, 0.76973242, -0.20078978, -0.01984148, -0.22237478, 0.04535184, 0.02868173, 100.35100555, 81.39475250, 32.05999756, 0.00000000
1, 0.3802, 45, 0.00977376, -0.97237051, 0.21600071, 6.66883326, 5.09983778, 25.98842621, -56.18240356, 22.77112007, -63.98713684, 105.80903625, -12.41067696, -19.94510269, -0.60548270, 0.76968682, -0.20153166, -0.01892364, -0.22465400, 0.03215988, 0.04838226, 100.35100555, 81.39475250, 32.05999756, 0.00000000
1, 0.3852, 46, 0.02082672, -0.95740569, 0.23989086, 7.59879637, 8.05607510, 27.97492027, -56.82548904, 23.29728127, -64.04560089, 105.84716797, -12.55614853, -19.94421577, -0.60531908, 0.76964957, -0.20226221, -0.01784587, -0.23819073, 0.01784480, 0.02501217, 100.35100555, 81.39475250, 32.05999756, 0.00000000
1, 0.4152, 47, 0.05508878, -0.93060052, 0.24966364, 9.07020950, 10.32440567, 42.94248581, -57.20549393, 23.96959877, -64.22098541, 106.09592438, -13.65042686, -19.99306870, -0.60431045, 0.76902801, -0.20809449, -0.01008409, -0.29074234, -0.00375319, 0.01822602, 100.35100555, 81.39475250, 32.05999756, 0.00000000
1, 0.4202, 48, 0.06669076, -0.92950833, 0.25225908, 9.37557220, 9.27972603, 45.96324158, -57.55627060, 24.20344925, -64.27944946, 106.14800262, -13.88400841, -20.01245880, -0.60409576, 0.76886374, -0.20939258, -0.00847308, -0.30626628, -0.00369259, 0.01622516, 100.35100555, 81.39475250, 32.05999756, 0.00000000
1, 0.3699, 48, 0.27264404, -0.89508057, 0.28149414, -1.32343793, 6.33172083, 23.11969376, -56.82548904, 5.05700064, -62.35018921, 99.48871613, 19.41321182, 72.13053131, 0.59062570, -0.54393333, -0.53092057, -0.27096349, 0.06021257, -0.03499434, -0.12603688, 100.27300262, 87.94092560, 31.50000000, 0.00000000
1, 0.3749, 49, 0.30676270, -0.88928223, 0.29064941, -1.95343816, 9.97172070, 20.07469368, -57.35165024, 4.20929527, -62.78865814, 99.49040985, 19.30599022, 72.16511536, 0.59020346, -0.54422987, -0.53067774, -0.27176264, 0.02428134, -0.04142013, -0.13507697, 100.27300262, 87.94092560, 31.50000000, 0.00000000
1, 0.4252, 49, 0.07047907, -0.92047989, 0.24519657, 9.31718063, 6.12468386, 49.70946884, -57.55627060, 24.20344925, -64.27944946, 106.20503998, -14.13119888, -20.05306625, -0.60385251, 0.76865911, -0.21089850, -0.00686921, -0.31417692, -0.01145732, 0.02393860, 100.35100555, 81.39475250, 32.05999756, 0.00000000
1, 0.4302, 50, 0.05613221, -0.90789378, 0.25114250, 9.70361233, 4.21458912, 52.53330231, -57.55627060, 24.20344925, -64.27944946, 106.26760864, -14.38924503, -20.10748482, -0.60357636, 0.76843423, -0.21254832, -0.00525112, -0.30416590, -0.02271462, 0.01866554, 100.35100555, 81.39475250, 32.05999756, 0.00000000
1, 0.4352, 51, 0.04190331, -0.89661348, 0.25341743, 9.95825768, 1.33858812, 54.91516113, -58.31628036, 25.02192307, -64.04560089, 106.33626556, -14.65466118, -20.17998695, -0.60326195, 0.76818913, -0.21435280, -0.00366409, -0.29440290, -0.03257655, 0.01714091, 100.35100555, 81.39475250, 32.05999756, 0.00000000
1, 0.3999, 50, 0.46307373, -0.78961182, 0.32617188, -4.15843868, 22.36172676, 3.09968901, -57.11780167, 4.94007587, -63.13943100, 99.55054474, 18.97830009, 72.60056305, 0.58785468, -0.54388916, -0.53163308, -0.27564079, -0.13773781, -0.14289232, -0.16935152, 100.27300262, 87.94092560, 31.50000000, 0.00000000
1, 0.4049, 51, 0.47357178, -0.76599121, 0.32568359, -3.73843884, 23.02672577, 0.26468793, -57.11780167, 4.94007587, -63.13943100, 99.57080078, 18.95787239, 72.72039032, 0.58740574, -0.54352212, -0.53217214, -0.27628058, -0.14862961, -0.16659364, -0.16852753, 100.27300262, 87.94092560, 31.50000000, 0.00000000
1, 0.4402, 52, 0.01141752, -0.88834488, 0.25252753, 9.51828861, -2.93526554, 57.23749924, -58.31628036, 25.02192307, -64.04560089, 106.40895844, -14.91103363, -20.27691078, -0.60291433, 0.76792926, -0.21627268, -0.00225866, -0.26834100, -0.03938638, 0.01880591, 100.35100555, 81.39475250, 32.05999756, 0.00000000
1, 0.4452, 53, -0.02500382, -0.87533939, 0.24433996, 9.09169292, -5.36393356, 59.60363770, -58.81321335, 25.60654831, -63.84098053, 106.48464203, -15.18933201, -20.39041710, -0.60255879, 0.76760691, -0.21840805, -0.00078030, -0.23643434, -0.05085761, 0.02778915, 100.35100555, 81.39475250, 32.05999756, 0.00000000
1, 0.4502, 54, -0.07481549, -0.86534488, 0.22435217, 9.32079506, -6.11659527, 62.03643036, -58.81321335, 25.60654831, -63.84098053, 106.56409454, -15.47808838, -20.51176262, -0.60218406, 0.76726174, -0.22064297, 0.00073926, -0.19139023, -0.05918301, 0.04856528, 100.35100555, 81.39475250, 32.05999756, 0.00000000
1, 0.4552, 55, -0.13644864, -0.86014128, 0.18657058, 9.82330132, -6.05444336, 63.99443436, -58.81321335, 25.60654831, -63.84098053, 106.64754486, -15.77614403, -20.63629913, -0.60178816, 0.76690519, -0.22294004, 0.00231723, -0.13464126, -0.06260172, 0.08713314, 100.35100555, 81.39475250, 32.05999756, 0.00000000
1, 0.4602, 56, -0.19217518, -0.85524607, 0.16133788, 10.48937130, -5.02751589, 64.99189758, -59.13475418, 26.07424736, -63.98713684, 106.73415375, -16.08026314, -20.75783157, -0.60137475, 0.76655006, -0.22524139, 0.00396228, -0.08393089, -0.06565987, 0.11320384, 100.35100555, 81.39475250, 32.05999756, 0.00000000
1, 0.5102, 57, -0.18620007, -0.78617990, 0.21966580, 14.80332851, -0.57388574, 75.52375031, -60.83016586, 27.50657654, -64.13329315, 107.75577545, -19.49058151, -21.58545494, -0.59632784, 0.76333863, -0.24709621, 0.02551368, -0.14651737, -0.11261979, 0.06575994, 100.35100555, 81.39475250, 32.05999756, 0.00000000
1, 0.5152, 58, -0.18818261, -0.76001346, 0.30602485, 15.82796097, 0.24401979, 76.65187073, -60.83016586, 27.50657654, -64.13329315, 107.87714386, -19.85583496, -21.70805550, -0.59570956, 0.76292449, -0.24961904, 0.02769195, -0.15073189, -0.13629322, -0.01931565, 100.35100555, 81.39475250, 32.05999756, 0.00000000
1, 0.4099, 52, 0.48388672, -0.75061035, 0.32055664, -3.03843856, 23.30672836, -2.36031294, -58.05319977, 5.11546326, -63.92867661, 99.59574890, 18.95010757, 72.84394836, 0.58696479, -0.54310828, -0.53278857, -0.27684325, -0.15912397, -0.18196985, -0.16300249, 100.27300262, 87.94092560, 31.50000000, 0.00000000
1, 0.4149, 53, 0.49615479, -0.73693848, 0.32208252, -2.61843848, 23.44672585, -4.91531420, -58.05319977, 5.11546326, -63.92867661, 99.62375641, 18.95477104, 72.97050476, 0.58654082, -0.54264337, -0.53347361, -0.27733371, -0.17136616, -0.19555756, -0.16408405, 100.27300262, 87.94092560, 31.50000000, 0.00000000
1, 0.4199, 54, 0.50640869, -0.72216797, 0.32781982, -2.33843851, 23.09672546, -7.50531483, -58.05319977, 5.11546326, -63.92867661, 99.65334320, 18.97242737, 73.09753418, 0.58614910, -0.54212904, -0.53421384, -0.27774280, -0.18138334, -0.21016723, -0.16935915, 100.27300262, 87.94092560, 31.50000000, 0.00000000
1, 0.5202, 59, -0.19260065, -0.72403526, 0.36081597, 14.87094593, -2.68567538, 77.92620850, -61.32709503, 29.40660667, -64.57176208, 108.00067902, -20.22243118, -21.84869766, -0.59508240, 0.76246631, -0.25225884, 0.02979541, -0.15246770, -0.16966741, -0.07282565, 100.35100555, 81.39475250, 32.05999756, 0.00000000
1, 0.5252, 60, -0.25827330, -0.70663905, 0.32474706, 15.23788166, -11.99515247, 79.90792847, -61.32709503, 29.40660667, -64.57176208, 108.14493561, -20.58376694, -22.04108429, -0.59433049, 0.76199830, -0.25520301, 0.03164476, -0.09263875, -0.18421383, -0.03541497, 100.35100555, 81.39475250, 32.05999756, 0.00000000
1, 0.5302, 61, -0.32579297, -0.72912514, 0.29809985, 16.20168877, -14.65930367, 82.42601776, -61.32709503, 29.40660667, -64.57176208, 108.30197906, -20.95243454, -22.25265884, -0.59350544, 0.76152080, -0.25829515, 0.03348139, -0.03104209, -0.15874670, -0.00727302, 100.35100555, 81.39475250, 32.05999756, 0.00000000
1, 0.4249, 55, 0.52008057, -0.71417236, 0.32128906, -2.75843859, 23.16672516, -10.06031513, -58.14089203, 4.61853266, -64.27944946, 99.68173218, 19.00256157, 73.22721863, 0.58579594, -0.54154289, -0.53501046, -0.27809763, -0.19460651, -0.21793067, -0.16238450, 100.27300262, 87.94092560, 31.50000000, 0.00000000
1, 0.4299, 56, 0.53149414, -0.68493652, 0.31091309, -3.63343859, 23.48172569, -13.21031570, -58.14089203, 4.61853266, -64.27944946, 99.70730591, 19.04789734, 73.36139679, 0.58549356, -0.54085636, -0.53587830, -0.27839947, -0.20532276, -0.24685702, -0.15162414, 100.27300262, 87.94092560, 31.50000000, 0.00000000
1, 0.4349, 57, 0.52685547, -0.67419434, 0.29260254, -2.16343832, 19.70172501, -15.73031712, -56.79625702, 4.41391420, -64.27944946, 99.73465729, 19.10878754, 73.47817993, 0.58527470, -0.54019350, -0.53672618, -0.27851295, -0.19975498, -0.25720796, -0.13293123, 100.27300262, 87.94092560, 31.50000000, 0.00000000
1, 0.5352, 62, -0.30539307, -0.79338944, 0.31741369, 17.19012260, -2.03274798, 83.52058411, -60.97632217, 29.66968727, -64.36714172, 108.44333649, -21.34558105, -22.40337563, -0.59277999, 0.76102799, -0.26109099, 0.03577611, -0.05778404, -0.09146921, -0.02515584, 100.35100555, 81.39475250, 32.05999756, 0.00000000
1, 0.5402, 63, -0.27186233, -0.86747229, 0.35841918, 18.28314972, -1.16105092, 83.87798309, -60.97632217, 29.66968727, -64.36714172, 108.59307098, -21.73713303, -22.55292702, -0.59199929, 0.76056898, -0.26385775, 0.03809093, -0.09781410, -0.01431740, -0.06474143, 100.35100555, 81.39475250, 32.05999756, 0.00000000
1, 0.5452, 64, -0.24618080, -0.96289647, 0.34721139, 18.15681458, -2.39063549, 84.27090454, -61.06401443, 28.52966881, -64.95176697, 108.74348450, -22.13251114, -22.70974159, -0.59121966, 0.76007205, -0.26667866, 0.04040310, -0.12983477, 0.08432724, -0.05211446, 100.35100555, 81.39475250, 32.05999756, 0.00000000
1, 0.5502, 65, -0.21190241, -1.03945601, 0.32158753, 18.27385521, 0.10913794, 86.11666107, -61.06401443, 28.52966881, -64.95176697, 108.89245605, -22.54026985, -22.85853004, -0.59045345, 0.75954127, -0.26949209, 0.04284658, -0.17057297, 0.16422956, -0.02510718, 100.35100555, 81.39475250, 32.05999756, 0.00000000
1, 0.5552, 66, -0.15061970, -1.12297893, 0.32860044, 18.48251915, 4.02034283, 88.69593048, -61.06401443, 28.52966881, -64.95176697, 109.03813171, -22.96618652, -22.99337959, -0.58971220, 0.75896716, -0.27228549, 0.04548790, -0.23865966, 0.25118953, -0.03077837, 100.35100555, 81.39475250, 32.05999756, 0.00000000
1, 0.4399, 58, 0.51843262, -0.67016602, 0.29199219, -0.58843774, 16.27172470, -17.09531975, -56.79625702, 4.41391420, -64.27944946, 99.76456451, 19.17925072, 73.57838440, 0.58511496, -0.53958011, -0.53753722, -0.27847359, -0.19020472, -0.26076978, -0.13191459, 100.27300262, 87.94092560, 31.50000000, 0.00000000
1, 0.6102, 67, -0.42439902, -0.90272164, 0.32718283, 12.20931053, -17.19971657, 120.34275055, -63.16866302, 35.66208649, -65.01023102, 110.83502197, -28.43237877, -25.43877983, -0.58122575, 0.74782109, -0.31169137, 0.07608438, -0.05049273, 0.07897331, -0.01735044, 100.35100555, 81.39475250, 32.05999756, 0.00000000
1, 0.6152, 68, -0.48773396, -0.92044401, 0.28913510, 12.75236034, -14.91061211, 120.95122528, -63.16866302, 35.66208649, -65.01023102, 111.05624390, -28.97083473, -25.76356697, -0.58019000, 0.74654537, -0.31596309, 0.07884787, 0.00471625, 0.10215580, 0.02210082, 100.35100555, 81.39475250, 32.05999756, 0.00000000
1, 0.4449, 59, 0.51080322, -0.67858887, 0.27484131, 1.51156306, 13.19172287, -17.76031876, -56.79625702, 4.41391420, -64.27944946, 99.80004120, 19.25555611, 73.66320038, 0.58498549, -0.53904158, -0.53831029, -0.27829516, -0.18133791, -0.25182754, -0.11428633, 100.27300262, 87.94092560, 31.50000000, 0.00000000
1, 0.6202, 69, -0.50742221, -0.93005347, 0.27601004, 13.39868736, -6.54984283, 121.14229584, -64.39637756, 37.24057388, -64.80561066, 111.26371765, -29.52414131, -26.04804802, -0.57923144, 0.74523354, -0.32001761, 0.08189487, 0.01606057, 0.11729649, 0.03648235, 100.35100555, 81.39475250, 32.05999756, 0.00000000
1, 0.6252, 70, -0.49301749, -0.93937528, 0.31994042, 15.03826046, 2.02864814, 121.32588196, -64.39637756, 37.24057388, -64.80561066, 111.46101379, -30.09297371, -26.29068947, -0.57832223, 0.74390900, -0.32384589, 0.08524562, -0.00702523, 0.13219580, -0.00638178, 100.35100555, 81.39475250, 32.05999756, 0.00000000
1, 0.6302, 71, -0.46428689, -0.94091046, 0.36974865, 15.13225079, 5.93934870, 120.96221161, -64.39637756, 37.24057388, -64.80561066, 111.65164185, -30.66653252, -26.51507759, -0.57745016, 0.74255639, -0.32755369, 0.08871283, -0.04452509, 0.13939691, -0.05527985, 100.35100555, 81.39475250, 32.05999756, 0.00000000
1, 0.4949, 60, 0.35162354, -0.92712402, 0.25286865, 5.53656435, -23.90828896, -10.23531532, -58.46243668, 4.47237635, -64.71791840, 100.20616913, 20.04556274, 73.59323120, 0.58575737, -0.53810817, -0.54191107, -0.27140424, -0.00914118, 0.00247648, -0.08633724, 100.27300262, 87.94092560, 31.50000000, 0.00000000
1, 0.4999, 61, 0.33319092, -0.93200684, 0.24554443, 4.52156353, -25.58829117, -8.62531471, -58.17012405, 3.80005836, -64.71791840, 100.18553925, 20.11065292, 73.46728516, 0.58635801, -0.53832245, -0.54151279, -0.27047592, 0.01038355, 0.00769821, -0.07938170, 100.27300262, 87.94092560, 31.50000000, 0.00000000
1, 0.5049, 62, 0.30743408, -0.91571045, 0.25726318, 2.03656316, -26.53329086, -6.56031466, -58.17012405, 3.80005836, -64.71791840, 100.14996338, 20.16635895, 73.33437347, 0.58701408, -0.53853226, -0.54101169, -0.26963654, 0.03708986, -0.00834766, -0.09167379, 100.27300262, 87.94092560, 31.50000000, 0.00000000
1, 0.5099, 63, 0.29187012, -0.89770508, 0.26672363, 0.42656258, -28.66829109, -5.89531422, -57.96550751, 4.20929527, -65.06869507, 100.10208893, 20.22058487, 73.18954468, 0.58774972, -0.53874081, -0.54042047, -0.26880157, 0.05354325, -0.02615962, -0.10191014, 100.27300262, 87.94092560, 31.50000000, 0.00000000
1, 0.5149, 64, 0.26348877, -0.86450195, 0.26763916, -1.39343810, -31.95829201, -5.54531431, -57.96550751, 4.20929527, -65.06869507, 100.03889465, 20.27581978, 73.02702332, 0.58860046, -0.53894866, -0.53971440, -0.26794070, 0.08282414, -0.05920595, -0.10383749, 100.27300262, 87.94092560, 31.50000000, 0.00000000
1, 0.5199, 65, 0.24487305, -0.82690430, 0.24853516, -3.03843856, -34.72329330, -5.02031374, -57.05933762, 4.41391420, -64.36714172, 99.96205902, 20.33068275, 72.84935760, 0.58954757, -0.53915781, -0.53890449, -0.26706645, 0.10234188, -0.09668645, -0.08598756, 100.27300262, 87.94092560, 31.50000000, 0.00000000
1, 0.6352, 72, -0.43486539, -0.95804656, 0.38711095, 15.07200813, 4.97073936, 120.65949249, -64.54253387, 38.32212830, -65.56562042, 111.84815216, -31.23623085, -26.74766159, -0.57655084, 0.74118954, -0.33126715, 0.09213767, -0.08254656, 0.16232453, -0.07177268, 100.35100555, 81.39475250, 32.05999756, 0.00000000
1, 0.6402, 73, -0.43204612, -0.98963416, 0.36053747, 13.98118019, 3.95563555, 120.47390747, -64.54253387, 38.32212830, -65.56562042, 112.04449463, -31.79782677, -26.98823738, -0.57566273, 0.73979121, -0.33497187, 0.09547406, -0.09371242, 0.19981290, -0.04442760, 100.35100555, 81.39475250, 32.05999756, 0.00000000
1, 0.6452, 74, -0.44549343, -0.98141575, 0.35424474, 13.71109581, 5.69552898, 120.44871521, -64.95176697, 39.78368759, -65.41946411, 112.23965454, -32.36656189, -27.22384262, -0.57478714, 0.73834825, -0.33864754, 0.09889197, -0.08861467, 0.19752669, -0.03743203, 100.35100555, 81.39475250, 32.05999756, 0.00000000
1, 0.5249, 66, 0.23187256, -0.79516602, 0.25500488, -2.89843869, -35.07329178, -4.42531395, -57.05933762, 4.41391420, -64.36714172, 99.88488770, 20.38269806, 72.66917419, 0.59049135, -0.53938723, -0.53807193, -0.26619536, 0.11620705, -0.12832847, -0.09376467, 100.27300262, 87.94092560, 31.50000000, 0.00000000
1, 0.5299, 67, 0.22515869, -0.75939941, 0.27624512, -3.52843881, -32.58829117, -4.07531357, -57.05933762, 4.41391420, -64.36714172, 99.80879974, 20.43064499, 72.50160217, 0.59138632, -0.53957856, -0.53728670, -0.26540598, 0.12372068, -0.16401574, -0.11628444, 100.27300262, 87.94092560, 31.50000000, 0.00000000
1, 0.6149, 68, 0.32812500, -0.77368164, 0.33325195, -5.80343914, -5.84828377, -57.66033173, -57.96550751, 3.33235884, -65.53639221, 99.19053650, 22.99106598, 71.97119904, 0.60313570, -0.52790415, -0.54298478, -0.25042382, 0.06129996, -0.13553798, -0.18605666, 100.27300262, 87.94092560, 31.50000000, 0.00000000
1, 0.6199, 69, 0.35882568, -0.81665039, 0.38983154, -0.65843779, 7.17172050, -57.73032761, -57.46857452, 2.54311609, -66.26717377, 99.22209167, 23.27026367, 72.05990601, 0.60360980, -0.52643901, -0.54449433, -0.24908447, 0.03512807, -0.09062189, -0.24267203, 100.27300262, 87.94092560, 31.50000000, 0.00000000
1, 0.6502, 75, -0.46452653, -0.95173240, 0.37712842, 13.81440735, 8.96548939, 120.66555023, -64.95176697, 39.78368759, -65.41946411, 112.42996216, -32.94181824, -27.44571686, -0.57393920, 0.73687005, -0.34223789, 0.10241935, -0.07809120, 0.17385575, -0.05975952, 100.35100555, 81.39475250, 32.05999756, 0.00000000
1, 0.6552, 76, -0.45814255, -0.91267061, 0.40527743, 13.06926823, 8.94549370, 121.23540497, -64.95176697, 39.78368759, -65.41946411, 112.62122345, -33.51903534, -27.67273903, -0.57309610, 0.73534381, -0.34584066, 0.10594641, -0.09297761, 0.14089149, -0.08735102, 100.35100555, 81.39475250, 32.05999756, 0.00000000
1, 0.6902, 77, -0.64415020, -0.46165785, 0.29053533, 9.67752647, 3.22909069, 117.25153351, -65.74101257, 43.02835464, -66.32563782, 114.08230591, -37.47178268, -29.53324699, -0.56688547, 0.72381479, -0.37150574, 0.12929285, 0.03697556, -0.26505533, 0.03082803, 100.35100555, 81.39475250, 32.05999756, 0.00000000
1, 0.6952, 78, -0.75030476, -0.36171550, 0.27129960, 10.10373783, 2.82791853, 115.23858643, -66.12101746, 44.19760132, -66.12101746, 114.30628967, -38.00340652, -29.81435013, -0.56594920, 0.72217786, -0.37500617, 0.13240458, 0.13573955, -0.35846317, 0.05046637, 100.35100555, 81.39475250, 32.05999756, 0.00000000
1, 0.6249, 70, 0.38342285, -0.83508301, 0.40460205, -0.65843785, 11.89672279, -57.90533066, -57.46857452, 2.54311609, -66.26717377, 99.26435852, 23.54646873, 72.17454529, 0.60396957, -0.52491504, -0.54612869, -0.24784744, 0.01496629, -0.07019754, -0.25711682, 100.27300262, 87.94092560, 31.50000000, 0.00000000
1, 0.6299, 71, 0.38983154, -0.84082031, 0.35333252, -0.62343782, 14.76672363, -58.15032959, -57.46857452, 2.54311609, -66.26717377, 99.31378174, 23.82148743, 72.30535889, 0.60425878, -0.52335149, -0.54784107, -0.24666721, 0.01296060, -0.06243701, -0.20540258, 100.27300262, 87.94092560, 31.50000000, 0.00000000
1, 0.6349, 72, 0.33618164, -0.85235596, 0.25280762, 0.70656264, 18.40672493, -58.46533203, -57.49780655, 2.13387895, -66.47179413, 99.37877655, 24.09498024, 72.45666504, 0.60442978, -0.52177268, -0.54966706, -0.24552821, 0.07097695, -0.04883766, -0.10424676, 100.27300262, 87.94092560, 31.50000000, 0.00000000
1, 0.7002, 79, -0.77490759, -0.33068794, 0.27922392, 11.23594570, 5.93741226, 113.79103088, -66.12101746, 44.19760132, -66.12101746, 114.52734375, -38.53396988, -30.07830238, -0.56502235, 0.72055650, -0.37836823, 0.13559334, 0.15305367, -0.38304400, 0.04296191, 100.35100555, 81.39475250, 32.05999756, 0.00000000
1, 0.7052, 80, -0.77785516, -0.31936073, 0.28935960, 13.63260746, 10.38020706, 112.39422607, -65.50716400, 43.52528381, -66.50102234, 114.74653625, -39.06658173, -30.31713295, -0.56408799, 0.71897328, -0.38155288, 0.13892320, 0.14871320, -0.38786763, 0.03311996, 100.35100555, 81.39475250, 32.05999756, 0.00000000
1, 0.7102, 81, -0.75886148, -0.35259977, 0.27260172, 15.10718155, 11.67832279, 111.07440948, -65.50716400, 43.52528381, -66.50102234, 114.97055054, -39.59516907, -30.54923630, -0.56312311, 0.71742308, -0.38464579, 0.14228216, 0.12260085, -0.34803218, 0.05016504, 100.35100555, 81.39475250, 32.05999756, 0.00000000
1, 0.6399, 73, 0.29833984, -0.90087891, 0.20867920, 4.76656437, 19.52672577, -58.78032684, -57.49780655, 2.13387895, -66.47179413, 99.46759796, 24.36894226, 72.61504364, 0.60448050, -0.52027750, -0.55156928, -0.24430729, 0.11317870, 0.00183222, -0.05912579, 100.27300262, 87.94092560, 31.50000000, 0.00000000
1, 0.6449, 74, 0.27038574, -0.97271729, 0.26831055, 5.71156406, 15.01172256, -59.30533600, -57.11780167, 1.98772287, -66.41333008, 99.55223083, 24.64899063, 72.75024414, 0.60461962, -0.51883888, -0.55337036, -0.24294560, 0.14555225, 0.07588214, -0.11770936, 100.27300262, 87.94092560, 31.50000000, 0.00000000
1, 0.6499, 75, 0.31420898, -0.99267578, 0.38647461, -0.02843761, 6.82172060, -59.13033295, -57.11780167, 1.98772287, -66.41333008, 99.59032440, 24.93484116, 72.84145355, 0.60508037, -0.51733637, -0.55488682, -0.24154012, 0.10624310, 0.09803062, -0.23538364, 100.27300262, 87.94092560, 31.50000000, 0.00000000
1, 0.6549, 76, 0.36395264, -0.95672607, 0.39978027, -4.85843897, -1.64828229, -58.11533356, -57.11780167, 1.98772287, -66.41333008, 99.58483124, 25.22272682, 72.88592529, 0.60584062, -0.51581645, -0.55610204, -0.24008569, 0.06104378, 0.06418724, -0.24894652, 100.27300262, 87.94092560, 31.50000000, 0.00000000
1, 0.6599, 77, 0.39660645, -0.88458252, 0.37060547, -6.36343956, -9.41828442, -55.59532928, -56.53317642, 2.30926633, -66.85179901, 99.55289459, 25.50466156, 72.88565826, 0.60679299, -0.51439637, -0.55703586, -0.23855776, 0.03287629, -0.00594813, -0.22061136, 100.27300262, 87.94092560, 31.50000000, 0.00000000
1, 0.7152, 82, -0.74985927, -0.38779080, 0.25674939, 15.89192390, 14.02719498, 109.26264191, -65.50716400, 43.52528381, -66.50102234, 115.19087982, -40.11978912, -30.76692963, -0.56217104, 0.71589082, -0.38761014, 0.14567953, 0.10658021, -0.30624160, 0.06619909, 100.35100555, 81.39475250, 32.05999756, 0.00000000
1, 0.7202, 83, -0.75071800, -0.38927925, 0.26249364, 16.52582550, 16.94675636, 106.83545685, -66.58871460, 46.21455765, -66.79333496, 115.40301514, -40.63901901, -30.96478653, -0.56125104, 0.71437997, -0.39041406, 0.14911558, 0.10048860, -0.29823530, 0.06052631, 100.35100555, 81.39475250, 32.05999756, 0.00000000
1, 0.7252, 84, -0.74622250, -0.36596176, 0.28499141, 17.12929153, 19.44745827, 104.43372345, -66.58871460, 46.21455765, -66.79333496, 115.60787964, -41.15220642, -31.14489746, -0.56035811, 0.71289247, -0.39306915, 0.15257734, 0.08913228, -0.31512052, 0.03801832, 100.35100555, 81.39475250, 32.05999756, 0.00000000
1, 0.7749, 78, 0.71002197, -0.85662842, 0.51824951, -9.40844059, 13.96172333, -20.49032021, -54.42852783, 0.17538731, -67.37796021, 98.97087860, 29.45523834, 72.80204010, 0.62040019, -0.49379304, -0.56925970, -0.21729164, -0.21862860, -0.00365830, -0.38245910, 100.27300262, 87.94092560, 31.50000000, 0.00000000
1, 0.7799, 79, 0.80963135, -0.89630127, 0.53723145, -7.41344023, 11.37172222, -22.90532112, -54.80853653, -0.11692487, -68.51797485, 98.97570038, 29.55950165, 72.88710022, 0.62049419, -0.49291518, -0.56999034, -0.21710059, -0.31672359, 0.03687322, -0.40149218, 100.27300262, 87.94092560, 31.50000000, 0.00000000
1, 0.7302, 85, -0.75738835, -0.34244058, 0.30973175, 17.79952621, 19.59126854, 103.02653503, -66.79333496, 46.53609848, -66.93949127, 115.81658173, -41.65884018, -31.32394791, -0.55944395, 0.71142912, -0.39566380, 0.15601715, 0.09357229, -0.33223280, 0.01320350, 100.35100555, 81.39475250, 32.05999756, 0.00000000
1, 0.7352, 86, -0.78539401, -0.35466525, 0.34469330, 18.75950813, 19.50706673, 102.52158356, -66.79333496, 46.53609848, -66.93949127, 116.03326416, -42.16251373, -31.50597000, -0.55848992, 0.70998323, -0.39822981, 0.15945517, 0.11492912, -0.31357044, -0.02189254, 100.35100555, 81.39475250, 32.05999756, 0.00000000
1, 0.7849, 80, 0.86383057, -0.87188721, 0.56213379, -7.27344036, 6.54171991, -28.36532211, -54.80853653, -0.11692487, -68.51797485, 98.97027588, 29.69449615, 72.94970703, 0.62075621, -0.49195039, -0.57070810, -0.21665405, -0.36900240, 0.01352847, -0.42661670, 100.27300262, 87.94092560, 31.50000000, 0.00000000
1, 0.7899, 81, 0.88684082, -0.87536621, 0.55053711, -1.60343814, 1.29171896, -34.17532349, -54.80853653, -0.11692487, -68.51797485, 98.98117065, 29.86227036, 72.98777771, 0.62108082, -0.49104315, -0.57146090, -0.21579580, -0.38958669, 0.01838825, -0.41516212, 100.27300262, 87.94092560, 31.50000000, 0.00000000
1, 0.7949, 82, 0.92785645, -0.92864990, 0.53710938, 5.57156467, -2.10328245, -39.67032623, -54.39929962, -0.32154340, -68.40105438, 99.02091980, 30.05982971, 73.01160431, 0.62138641, -0.49022397, -0.57230538, -0.21453638, -0.42772818, 0.07338145, -0.40151110, 100.27300262, 87.94092560, 31.50000000, 0.00000000
1, 0.7999, 83, 0.93615723, -1.01098633, 0.52404785, 10.78656673, -3.81828284, -43.87032700, -54.39929962, -0.32154340, -68.40105438, 99.08394623, 30.27944756, 73.02970886, 0.62166059, -0.48945579, -0.57324010, -0.21299551, -0.43276760, 0.15772673, -0.38786465, 100.27300262, 87.94092560, 31.50000000, 0.00000000
1, 0.8049, 84, 0.92816162, -1.10412598, 0.50115967, 16.87656784, -7.31828403, -55.00032806, -53.52236176, -0.67231804, -68.57643890, 99.17272949, 30.55677414, 73.03839874, 0.62199241, -0.48860428, -0.57437122, -0.21092454, -0.42084560, 0.25333241, -0.36412346, 100.27300262, 87.94092560, 31.50000000, 0.00000000
1, 0.8099, 85, 0.91552734, -1.19036865, 0.50445557, 18.45156860, -9.48828506, -61.05533600, -53.52236176, -0.67231804, -68.57643890, 99.26622009, 30.86571121, 73.04082489, 0.62239629, -0.48766020, -0.57558292, -0.20860200, -0.40368360, 0.34244582, -0.36646780, 100.27300262, 87.94092560, 31.50000000, 0.00000000
1, 0.7902, 87, -0.69384217, -1.52476716, 0.66133821, 21.62062454, 33.15986633, 103.61678314, -66.73487091, 52.44080734, -67.99181366, 118.66275787, -47.85861588, -33.44065094, -0.54688984, 0.69343799, -0.42433274, 0.19999242, -0.04775239, 0.93313968, -0.34347206, 100.35100555, 81.39475250, 32.05999756, 0.00000000
1, 0.7952, 88, -0.70163262, -1.54013014, 0.68687683, 20.11955643, 33.80375671, 103.82649231, -66.73487091, 53.66851807, -68.86875153, 118.87698364, -48.39495850, -33.59152222, -0.54599082, 0.69169927, -0.42647749, 0.20387028, -0.04626465, 0.95574367, -0.37018019, 100.35100555, 81.39475250, 32.05999756, 0.00000000
1, 0.8149, 86, 0.85272217, -1.25189209, 0.45526123, 16.70156670, -10.95828533, -66.69033813, -53.52236176, -0.67231804, -68.57643890, 99.34963989, 31.20364189, 73.04066467, 0.62292027, -0.48653635, -0.57685369, -0.20613730, -0.33593050, 0.40710637, -0.31647772, 100.27300262, 87.94092560, 31.50000000, 0.00000000
1, 0.8199, 87, 0.76538086, -1.28601074, 0.39837646, 15.16156673, -9.48828506, -72.25534058, -53.84390640, -1.52002335, -68.78105927, 99.43286896, 31.56780243, 73.05489349, 0.62348378, -0.48521265, -0.57826310, -0.20358926, -0.24325126, 0.44462577, -0.25891626, 100.27300262, 87.94092560, 31.50000000, 0.00000000
1, 0.8699, 88, 0.11694336, -1.04083252, 0.12561035, 2.28156304, 80.11174774, -63.50533295, -49.98538208, -2.86465931, -69.19029236, 101.23123169, 35.12025452, 75.78054047, 0.62063557, -0.46397257, -0.60364282, -0.18750040, 0.45755547, 0.23777044, 0.03263015, 100.27300262, 87.94092560, 31.50000000, 0.00000000
1, 0.8749, 89, 0.18908691, -1.00000000, 0.11169434, 3.08656335, 83.61174774, -54.51033401, -49.98538208, -2.86465931, -69.19029236, 101.57393646, 35.30478287, 76.34809113, 0.61881083, -0.46193194, -0.60703015, -0.18763386, 0.38818368, 0.19980678, 0.05093217, 100.27300262, 87.94092560, 31.50000000, 0.00000000
1, 0.8002, 89, -0.70621222, -1.52988350, 0.66382909, 17.55358887, 34.13905334, 103.44652557, -66.73487091, 53.66851807, -68.86875153, 119.08004761, -48.93011093, -33.74336243, -0.54516613, 0.68988723, -0.42861602, 0.20769686, -0.04781745, 0.95281982, -0.34842387, 100.35100555, 81.39475250, 32.05999756, 0.00000000
1, 0.8052, 90, -0.70735067, -1.46795619, 0.59738791, 15.70899582, 36.41467285, 102.29742432, -67.17333984, 54.48699188, -69.04413605, 119.26338196, -49.46543884, -33.88011932, -0.54443735, 0.68801624, -0.43067259, 0.21152517, -0.05263430, 0.89821470, -0.28343642, 100.35100555, 81.39475250, 32.05999756, 0.00000000
1, 0.8102, 91, -0.71017438, -1.38551533, 0.53883022, 14.61215305, 38.40617371, 100.18561554, -67.17333984, 54.48699188, -69.04413605, 119.42872620, -49.99615860, -33.99945068, -0.54378629, 0.68612474, -0.43261892, 0.21533754, -0.05568150, 0.82296669, -0.22655004, 100.35100555, 81.39475250, 32.05999756, 0.00000000
1, 0.8152, 92, -0.73861843, -1.23697996, 0.46581122, 13.22357655, 40.83037186, 97.35174561, -67.17333984, 54.48699188, -69.04413605, 119.56951141, -50.52031326, -34.09497833, -0.54323721, 0.68421584, -0.43442678, 0.21912400, -0.03294263, 0.68150294, -0.15538049, 100.35100555, 81.39475250, 32.05999756, 0.00000000
1, 0.8202, 93, -0.77075070, -1.09834373, 0.41544887, 13.12310982, 42.60543823, 94.45094299, -67.23180389, 55.83162689, -69.74568939, 119.69436646, -51.03605652, -34.16995239, -0.54274130, 0.68232816, -0.43609777, 0.22288780, -0.00641870, 0.54973316, -0.10708617, 100.35100555, 81.39475250, 32.05999756, 0.00000000
1, 0.8252, 94, -0.81425881, -0.96948576, 0.38200009, 14.02844334, 43.36511612, 90.67189026, -67.23180389, 55.83162689, -69.74568939, 119.81034088, -51.53716660, -34.22723389, -0.54225886, 0.68051255, -0.43762076, 0.22659710, 0.03164339, 0.42753184, -0.07582247, 100.35100555, 81.39475250, 32.05999756, 0.00000000
1, 0.8799, 90, 0.24530029, -0.96807861, 0.14422607, 4.48656368, 79.76174927, -46.14532852, -51.12540054, -2.77696586, -69.39491272, 101.90696716, 35.44953156, 76.88455963, 0.61698055, -0.46017414, -0.61014569, -0.18787515, 0.33419573, 0.17040056, 0.02278401, 100.27300262, 87.94092560, 31.50000000, 0.00000000
1, 0.8849, 91, 0.29107666, -0.98675537, 0.18798828, 5.01156425, 72.86673737, -39.39032745, -51.12540054, -2.77696586, -69.39491272, 102.21561432, 35.56600952, 77.37280273, 0.61525887, -0.45866004, -0.61293536, -0.18814310, 0.29017621, 0.19123071, -0.01686203, 100.27300262, 87.94092560, 31.50000000, 0.00000000
1, 0.8899, 92, 0.31854248, -1.00805664, 0.26989746, 6.02656412, 64.74674225, -32.81032944, -51.12540054, -2.77696586, -69.39491272, 102.49739075, 35.65698624, 77.80496216, 0.61367285, -0.45741051, -0.61537653, -0.18839587, 0.26408863, 0.21436781, -0.09497485, 100.27300262, 87.94092560, 31.50000000, 0.00000000
1, 0.8302, 95, -0.85846657, -0.85722971, 0.33631861, 13.95633698, 42.52223206, 86.55162048, -67.43642426, 56.94241333, -69.77491760, 119.91958618, -52.01822281, -34.27610397, -0.54179317, 0.67876923, -0.43903404, 0.23017780, 0.07069873, 0.32172537, -0.03233382, 100.35100555, 81.39475250, 32.05999756, 0.00000000
1, 0.8352, 96, -0.88630027, -0.74908531, 0.25502592, 13.48674774, 42.00916290, 81.60299683, -67.43642426, 56.94241333, -69.77491760, 120.01516724, -52.47649384, -34.31042099, -0.54137200, 0.67710280, -0.44031048, 0.23361295, 0.09376415, 0.21978417, 0.04679780, 100.35100555, 81.39475250, 32.05999756, 0.00000000
1, 0.8949, 93, 0.39935303, -1.01812744, 0.33734131, 6.72656488, 54.70174026, -26.61532021, -50.19000244, -2.66004086, -70.12569427, 102.74364471, 35.72708511, 78.16938782, 0.61228645, -0.45642471, -0.61742556, -0.18859367, 0.18433501, 0.22596574, -0.15905142, 100.27300262, 87.94092560, 31.50000000, 0.00000000
1, 0.8999, 94, 0.51953125, -1.05596924, 0.41461182, 8.96656513, 40.70173264, -20.98031998, -50.19000244, -2.66004086, -70.12569427, 102.94813538, 35.78413010, 78.44263458, 0.61118275, -0.45576310, -0.61900330, -0.18860173, 0.06501009, 0.26507986, -0.23349079, 100.27300262, 87.94092560, 31.50000000, 0.00000000
1, 0.9049, 95, 0.57818604, -1.08526611, 0.49230957, 13.76156712, 27.33172798, -17.48031807, -50.33615875, -3.09850907, -70.15492249, 103.12722778, 35.83845901, 78.63111877, 0.61031407, -0.45543242, -0.62019229, -0.18830715, 0.00712454, 0.29550591, -0.30876142, 100.27300262, 87.94092560, 31.50000000, 0.00000000
1, 0.9099, 96, 0.62170410, -1.19281006, 0.58142090, 19.85156822, 14.94172382, -14.08531666, -50.33615875, -3.09850907, -70.15492249, 103.29069519, 35.88996887, 78.74072266, 0.60963053, -0.45545667, -0.62103277, -0.18769155, -0.03565282, 0.40410736, -0.39570197, 100.27300262, 87.94092560, 31.50000000, 0.00000000
1, 0.9149, 97, 0.69567871, -1.26727295, 0.57611084, 23.31657028, 3.77671981, -12.75531578, -50.33615875, -3.09850907, -70.15492249, 103.43125153, 35.94768524, 78.78161621, 0.60916901, -0.45569980, -0.62157738, -0.18679531, -0.10886186, 0.47960177, -0.38844189, 100.27300262, 87.94092560, 31.50000000, 0.00000000
1, 0.9649, 98, 0.07244873, -1.10516357, 0.25982666, 13.09656715, -64.82330322, -24.06031990, -48.58228683, -2.54311609, -69.83338165, 102.67337799, 37.63085556, 75.77449036, 0.62136590, -0.45957863, -0.61291325, -0.16440617, 0.53747159, 0.33212993, -0.08542721, 100.27300262, 87.94092560, 31.50000000, 0.00000000
1, 0.9699, 99, -0.01690674, -1.06250000, 0.24145508, 11.83656693, -63.31829834, -23.50032234, -47.52996063, -3.97544575, -69.65799713, 102.51338196, 37.81456757, 75.41625977, 0.62298769, -0.45972320, -0.61175001, -0.16218200, 0.62938857, 0.29091272, -0.06964651, 100.27300262, 87.94092560, 31.50000000, 0.00000000
1, 0.9749, 100, -0.06671143, -1.01654053, 0.24176025, 10.50656605, -58.45329666, -22.76532173, -47.52996063, -3.97544575, -69.65799713, 102.36280060, 37.98867035, 75.08562469, 0.62449586, -0.45981303, -0.61068970, -0.16010956, 0.68162698, 0.24634257, -0.07242838, 100.27300262, 87.94092560, 31.50000000, 0.00000000
1, 0.9799, 101, -0.08264160, -0.97491455, 0.24737549, 9.49156570, -51.27829742, -21.82032013, -47.32534409, -4.61853266, -69.97953796, 102.23227692, 38.14987564, 74.79696655, 0.62582225, -0.45984706, -0.60979474, -0.15823276, 0.69981956, 0.20604604, -0.08024665, 100.27300262, 87.94092560, 31.50000000, 0.00000000
1, 0.9849, 102, -0.03985596, -0.93780518, 0.25726318, 8.30156517, -41.33829117, -20.28032112, -47.32534409, -4.61853266, -69.97953796, 102.13152313, 38.29260635, 74.56701660, 0.62689430, -0.45981863, -0.60912883, -0.15662831, 0.65907043, 0.17018314, -0.09194710, 100.27300262, 87.94092560, 31.50000000, 0.00000000
1, 0.9002, 97, -0.88466316, -0.10850914, 0.33932534, 9.89547920, 14.49108696, 37.94872665, -67.46565247, 61.21017075, -73.45805359, 119.31243896, -56.98561478, -32.43577194, -0.54131281, 0.66098803, -0.44324499, 0.27130997, 0.04573493, -0.36787659, -0.07485808, 100.35100555, 81.39475250, 32.05999756, 0.00000000
1, 0.9052, 98, -0.99240166, -0.15928955, 0.39492601, 9.57821846, 1.78052318, 34.77552414, -67.81642914, 61.44402313, -74.13037109, 119.48003387, -57.14150238, -32.57788086, -0.54065764, 0.66052181, -0.44408876, 0.27237034, 0.15174645, -0.31435138, -0.13076061, 100.35100555, 81.39475250, 32.05999756, 0.00000000
1, 0.9102, 99, -1.07717550, -0.26122046, 0.44943801, 7.94488430, -8.26427555, 30.35063362, -67.81642914, 61.44402313, -74.13037109, 119.69178772, -57.25317001, -32.78208923, -0.53990608, 0.66021997, -0.44506133, 0.27300462, 0.23522311, -0.20999762, -0.18486521, 100.35100555, 81.39475250, 32.05999756, 0.00000000
1, 0.9152, 100, -1.08835649, -0.37751263, 0.48708224, 3.34293246, -14.51813793, 23.63529015, -67.81642914, 61.44402313, -74.13037109, 119.89809418, -57.31980896, -33.00708008, -0.53924471, 0.66001284, -0.44604290, 0.27321041, 0.24557289, -0.09178337, -0.22156757, 100.35100555, 81.39475250, 32.05999756, 0.00000000
1, 0.9202, 101, -0.98239154, -0.50033605, 0.47294107, -6.54572773, -16.94993591, 12.48650646, -67.43642426, 62.43788147, -73.95498657, 120.02866364, -57.33179474, -33.20088959, -0.53895319, 0.65981734, -0.44687957, 0.27289075, 0.13938156, 0.03215633, -0.20628089, 100.35100555, 81.39475250, 32.05999756, 0.00000000
1, 0.9252, 102, -0.90992272, -0.54383767, 0.44681323, -15.02109432, -15.17211628, 3.52320457, -67.43642426, 62.43788147, -73.95498657, 120.06994629, -57.30932999, -33.33908844, -0.53904670, 0.65957475, -0.44751799, 0.27224550, 0.06712208, 0.07581770, -0.17939246, 100.35100555, 81.39475250, 32.05999756, 0.00000000
1, 0.9899, 103, 0.01538086, -0.91381836, 0.25781250, 6.55156517, -31.85328865, -18.84531784, -47.32534409, -4.61853266, -69.97953796, 102.05668640, 38.41810608, 74.39362335, 0.62773740, -0.45971408, -0.60867971, -0.15529943, 0.60559642, 0.14732954, -0.09385553, 100.27300262, 87.94092560, 31.50000000, 0.00000000
1, 0.9949, 104, 0.08160400, -0.89746094, 0.24688721, 5.67656469, -24.39828873, -17.44531822, -47.00379944, -3.01081562, -69.92107391, 102.00470734, 38.52885056, 74.26445770, 0.62838906, -0.45957109, -0.60839933, -0.15418129, 0.54093933, 0.13202304, -0.08396240, 100.27300262, 87.94092560, 31.50000000, 0.00000000
1, 0.9999, 105, 0.14886475, -0.89318848, 0.22930908, 5.04656363, -17.43328667, -16.36031723, -47.00379944, -3.01081562, -69.92107391, 101.97548676, 38.62697220, 74.17713928, 0.62886035, -0.45939216, -0.60828304, -0.15324908, 0.47505730, 0.12872618, -0.06707951, 100.27300262, 87.94092560, 31.50000000, 0.00000000
1, 0.9302, 103, -0.80044502, -0.59400749, 0.38671717, -24.07429314, -9.86667347, -6.04970503, -67.26103210, 61.94095230, -73.42881775, 119.99279022, -57.25874710, -33.39054489, -0.53961766, 0.65924174, -0.44786420, 0.27135012, -0.04176931, 0.12523928, -0.11921174, 100.35100555, 81.39475250, 32.05999756, 0.00000000
1, 0.9352, 104, -0.74325788, -0.60318220, 0.32760534, -28.02019691, -5.28741026, -11.07805061, -67.26103210, 61.94095230, -73.42881775, 119.84565735, -57.19784927, -33.38234329, -0.54045051, 0.65885860, -0.44800439, 0.27039021, -0.09825662, 0.13314494, -0.06062290, 100.35100555, 81.39475250, 32.05999756, 0.00000000
1, 1.0449, 106, 0.33148193, -0.94110107, 0.15338135, 1.23156297, -16.06828880, -16.78031921, -45.33761978, -3.42005253, -70.33031464, 101.89524078, 39.45850372, 73.82352448, 0.63162148, -0.45673275, -0.60907084, -0.14656864, 0.30370611, 0.18536142, 0.00597197, 100.27300262, 87.94092560, 31.50000000, 0.00000000
1, 1.0499, 107, 0.32434082, -0.93505859, 0.16064453, 0.46156257, -16.83828735, -15.83531761, -45.33761978, -3.42005253, -70.33031464, 101.84305573, 39.55330276, 73.73786163, 0.63216066, -0.45643204, -0.60892504, -0.14578432, 0.31213936, 0.18022121, -0.00217265, 100.27300262, 87.94092560, 31.50000000, 0.00000000
1, 0.9952, 105, -0.44582808, -0.02683171, 0.01231676, -27.79604149, -23.78970337, -102.79779816, -67.72873688, 59.01782990, -74.15959930, 115.91133881, -54.45987320, -30.98157501, -0.55822533, 0.66148084, -0.43525314, 0.24775453, -0.36925346, -0.49401346, 0.24036200, 100.35100555, 81.39475250, 32.05999756, 0.00000000
1, 1.0002, 106, -0.50512123, -0.16879730, 0.01061218, -27.02282906, -36.42683411, -110.11929321, -67.72873688, 59.01782990, -74.15959930, 115.67169952, -53.88505173, -30.85434151, -0.55949944, 0.66329163, -0.43325943, 0.24349706, -0.30425134, -0.36032385, 0.24281645, 100.35100555, 81.39475250, 32.05999756, 0.00000000
1, 1.0052, 107, -0.55298942, -0.30067229, 0.03342897, -26.98696136, -43.88931274, -117.06269073, -67.58258057, 58.87167358, -74.13037109, 115.46284485, -53.26256943, -30.76430321, -0.56068921, 0.66529405, -0.43123490, 0.23884739, -0.25012657, -0.23720038, 0.22138979, 100.35100555, 81.39475250, 32.05999756, 0.00000000
1, 1.0102, 108, -0.57378197, -0.40863350, 0.09872714, -27.17946625, -47.04792023, -123.44492340, -67.58258057, 58.87167358, -74.13037109, 115.25844574, -52.60429764, -30.68039322, -0.56187332, 0.66742241, -0.42909062, 0.23393804, -0.22268495, -0.13845828, 0.15782034, 100.35100555, 81.39475250, 32.05999756, 0.00000000
1, 1.0152, 109, -0.58812726, -0.48721620, 0.18068357, -28.43102264, -47.66571045, -128.66647339, -67.58258057, 58.87167358, -73.72113037, 115.04179382, -51.92089462, -30.58821297, -0.56311560, 0.66960001, -0.42680708, 0.22885041, -0.20133044, -0.06945603, 0.07764935, 100.35100555, 81.39475250, 32.05999756, 0.00000000
1, 1.0549, 108, 0.31793213, -0.93133545, 0.15728760, -0.51843780, -17.29328728, -14.78531742, -45.27915955, -3.27389646, -70.33031464, 101.78296661, 39.64336777, 73.64765930, 0.63272417, -0.45613462, -0.60873890, -0.14504579, 0.31977665, 0.17733170, 0.00021056, 100.27300262, 87.94092560, 31.50000000, 0.00000000
1, 1.0599, 109, 0.29968262, -0.90600586, 0.15954590, -1.04343796, -17.46828651, -13.63031673, -45.27915955, -3.27389646, -70.33031464, 101.71833038, 39.72787476, 73.55458832, 0.63329488, -0.45585415, -0.60852116, -0.14434949, 0.33917570, 0.15276003, -0.00308349, 100.27300262, 87.94092560, 31.50000000, 0.00000000
1, 1.0649, 110, 0.29327393, -0.87255859, 0.14208984, -1.39343810, -18.02828789, -10.58531570, -44.40222168, -3.77082729, -69.97953796, 101.64682007, 39.79795837, 73.45370483, 0.63386768, -0.45564795, -0.60822451, -0.14373533, 0.34658155, 0.11993462, 0.01328714, 100.27300262, 87.94092560, 31.50000000, 0.00000000
1, 1.0202, 110, -0.60725552, -0.52711225, 0.22746013, -30.03927231, -45.03601074, -132.89476013, -68.05027771, 58.49166870, -73.72113037, 114.79615021, -51.22361374, -30.46843529, -0.56447440, 0.67176485, -0.42433542, 0.22369665, -0.17481393, -0.03935027, 0.03244793, 100.35100555, 81.39475250, 32.05999756, 0.00000000
1, 1.0252, 111, -0.63865036, -0.54932570, 0.25196892, -29.72955513, -39.09622955, -136.47264099, -68.05027771, 58.49166870, -73.72113037, 114.51589203, -50.52207565, -30.30095291, -0.56594700, 0.67391896, -0.42159271, 0.21862514, -0.13578966, -0.02706143, 0.00910343, 100.35100555, 81.39475250, 32.05999756, 0.00000000
1, 1.0302, 112, -0.66733730, -0.59092975, 0.28015485, -28.81625175, -30.27890968, -140.72573853, -67.69950104, 56.97164536, -73.34112549, 114.18917084, -49.81869125, -30.06533813, -0.56757265, 0.67606264, -0.41848111, 0.21371508, -0.09934463, 0.00444944, -0.01850363, 100.35100555, 81.39475250, 32.05999756, 0.00000000
1, 1.0699, 111, 0.27331543, -0.84844971, 0.13494873, -0.58843774, -18.30828667, -8.31031418, -44.40222168, -3.77082729, -69.97953796, 101.57608032, 39.85708237, 73.34783173, 0.63441712, -0.45552579, -0.60787946, -0.14315708, 0.36737183, 0.09631202, 0.01935167, 100.27300262, 87.94092560, 31.50000000, 0.00000000
1, 1.0749, 112, 0.25677490, -0.82879639, 0.13507080, 0.70656264, -18.02828789, -5.68531418, -44.40222168, -3.77082729, -69.97953796, 101.51058197, 39.90298080, 73.24017334, 0.63491648, -0.45550698, -0.60749763, -0.14262259, 0.38457349, 0.07702063, 0.01824429, 100.27300262, 87.94092560, 31.50000000, 0.00000000
1, 1.0799, 113, 0.24444580, -0.81201172, 0.13336182, 1.86156321, -17.39828682, -2.88531303, -44.51914597, -3.33235884, -70.00876617, 101.45095825, 39.93442917, 73.13275909, 0.63535845, -0.45559019, -0.60708439, -0.14214750, 0.39737195, 0.06045754, 0.01907289, 100.27300262, 87.94092560, 31.50000000, 0.00000000
1, 1.0352, 113, -0.67234701, -0.60680139, 0.28076828, -28.62374496, -20.95141029, -146.18432617, -67.69950104, 56.97164536, -73.34112549, 113.81017303, -49.10832596, -29.75718689, -0.56939000, 0.67819589, -0.41495776, 0.20893876, -0.08634223, 0.01007911, -0.01901438, 100.35100555, 81.39475250, 32.05999756, 0.00000000
1, 1.0402, 114, -0.65591055, -0.59191656, 0.26843435, -28.35346413, -9.88206959, -154.54675293, -66.91026306, 54.75007248, -73.34112549, 113.36759186, -48.37896729, -29.35933876, -0.57144964, 0.68036139, -0.41088790, 0.20426695, -0.09443815, -0.01552816, -0.00736951, 100.35100555, 81.39475250, 32.05999756, 0.00000000
1, 1.0849, 114, 0.23962402, -0.79351807, 0.13354492, 2.66656327, -16.45328522, -0.12031222, -44.51914597, -3.33235884, -70.00876617, 101.39685059, 39.95130920, 73.02773285, 0.63574189, -0.45576280, -0.60664696, -0.14174640, 0.40246829, 0.04204195, 0.01811559, 100.27300262, 87.94092560, 31.50000000, 0.00000000
1, 1.0899, 115, 0.23486328, -0.77185059, 0.13745117, 3.08656359, -15.05328655, 2.43468881, -44.54837799, -3.24466538, -70.38877106, 101.34845734, 39.95421982, 72.92834473, 0.63606381, -0.45600584, -0.60619998, -0.14143285, 0.40731245, 0.02031100, 0.01354088, 100.27300262, 87.94092560, 31.50000000, 0.00000000
1, 1.1052, 115, -0.62245411, -0.55067539, 0.18081577, -25.66320419, -29.05566788, -192.36859131, -67.17333984, 47.14995575, -73.25343323, 108.88652039, -37.00000381, -25.47629547, -0.59480512, 0.71182609, -0.35008639, 0.13019231, 0.01685832, -0.20256746, 0.07530324, 100.35100555, 81.39475250, 32.05999756, 0.00000000
1, 1.1102, 116, -0.65190160, -0.58156073, 0.18570769, -27.36335373, -27.07956123, -194.05247498, -67.17333984, 47.14995575, -73.25343323, 108.61254120, -36.03773499, -25.24985313, -0.59633100, 0.71419507, -0.34491897, 0.12387799, 0.05972639, -0.18241248, 0.06993033, 100.35100555, 81.39475250, 32.05999756, 0.00000000
1, 1.0999, 116, 0.22875977, -0.74157715, 0.15606689, 2.63156343, -11.65828609, 7.57969046, -44.54837799, -3.24466538, -70.38877106, 101.26230621, 39.91607285, 72.75099182, 0.63653988, -0.45665351, -0.60528004, -0.14114098, 0.41301435, -0.01052424, -0.00616854, 100.27300262, 87.94092560, 31.50000000, 0.00000000
1, 1.1049, 117, 0.22076416, -0.70214844, 0.17651367, 0.63656265, -8.89328480, 9.78469181, -44.34375763, -3.77082729, -70.50569916, 101.22104645, 39.87675858, 72.68170929, 0.63670170, -0.45698425, -0.60484183, -0.14121871, 0.42051125, -0.05046651, -0.02705921, 100.27300262, 87.94092560, 31.50000000, 0.00000000
1, 1.1099, 118, 0.21490479, -0.66497803, 0.18627930, -0.76343793, -7.24828482, 10.48469257, -44.34375763, -3.77082729, -70.50569916, 101.17906189, 39.83237457, 72.62213898, 0.63684350, -0.45728436, -0.60442668, -0.14138559, 0.42579067, -0.08822250, -0.03728799, 100.27300262, 87.94092560, 31.50000000, 0.00000000
1, 1.1149, 119, 0.20074463, -0.64697266, 0.20666504, -0.72843784, -5.21828318, 11.60469151, -44.95761490, -3.01081562, -70.12569427, 101.14472961, 39.78050613, 72.57420349, 0.63692397, -0.45760220, -0.60404557, -0.14162312, 0.43928462, -0.10686813, -0.05804910, 100.27300262, 87.94092560, 31.50000000, 0.00000000
1, 1.1199, 120, 0.17370605, -0.63140869, 0.23565674, -0.48343775, -2.17328238, 12.61969280, -44.95761490, -3.01081562, -70.12569427, 101.12329865, 39.72068787, 72.54448700, 0.63691282, -0.45793471, -0.60373008, -0.14194317, 0.46554947, -0.12312880, -0.08724637, 100.27300262, 87.94092560, 31.50000000, 0.00000000
1, 1.1152, 117, -0.66683185, -0.61130273, 0.18255587, -29.21570396, -24.36454773, -196.10235596, -67.37796021, 46.68225479, -72.58111572, 108.32582855, -35.06915283, -25.01215363, -0.59792173, 0.71647823, -0.33960110, 0.11755759, 0.08835515, -0.16329968, 0.07233460, 100.35100555, 81.39475250, 32.05999756, 0.00000000
1, 1.1202, 118, -0.66957444, -0.64037418, 0.17719026, -30.89715195, -21.12082481, -198.35214233, -67.37796021, 46.68225479, -72.58111572, 108.02597809, -34.09398270, -24.76036835, -0.59957880, 0.71867901, -0.33411121, 0.11124575, 0.10505881, -0.14476603, 0.07664499, 100.35100555, 81.39475250, 32.05999756, 0.00000000
1, 1.1252, 119, -0.65829557, -0.66799986, 0.17344721, -31.86011696, -18.40040207, -200.30804443, -67.37796021, 46.68225479, -72.58111572, 107.71926880, -33.11255646, -24.49852180, -0.60126841, 0.72081351, -0.32846716, 0.10494497, 0.10799095, -0.12755957, 0.07909428, 100.35100555, 81.39475250, 32.05999756, 0.00000000
1, 1.1249, 121, 0.15661621, -0.62622070, 0.25756836, -0.37843773, 3.00671935, 13.73969269, -44.95761490, -3.01081562, -70.12569427, 101.12264252, 39.65037918, 72.54642487, 0.63675606, -0.45826742, -0.60353667, -0.14239503, 0.48173040, -0.12907325, -0.10909367, 100.27300262, 87.94092560, 31.50000000, 0.00000000
1, 1.1299, 122, 0.16265869, -0.63146973, 0.26196289, -0.41343772, 8.74672127, 14.71969414, -44.51914597, -2.54311609, -70.00876617, 101.14433289, 39.56973267, 72.58368683, 0.63644230, -0.45858905, -0.60348260, -0.14298974, 0.47463730, -0.12463513, -0.11310359, 100.27300262, 87.94092560, 31.50000000, 0.00000000
1, 1.1349, 123, 0.17199707, -0.64135742, 0.25732422, -1.11343813, 11.86172199, 15.83969402, -44.51914597, -2.54311609, -70.00876617, 101.17411804, 39.48055649, 72.63925171, 0.63605320, -0.45890099, -0.60348791, -0.14369622, 0.46411934, -0.11562786, -0.10789496, 100.27300262, 87.94092560, 31.50000000, 0.00000000
1, 1.1302, 120, -0.63594663, -0.69130409, 0.17175785, -32.59692764, -16.66106796, -201.93971252, -67.02718353, 44.84069061, -72.99035645, 107.41071320, -32.12482452, -24.23311806, -0.60296595, 0.72288674, -0.32270363, 0.09863707, 0.10010377, -0.11452271, 0.07932682, 100.35100555, 81.39475250, 32.05999756, 0.00000000
1, 1.1352, 121, -0.60941786, -0.71426904, 0.15815517, -33.47180939, -15.23961544, -203.43698120, -67.02718353, 44.84069061, -72.99035645, 107.10089111, -31.13085175, -23.96627045, -0.60466880, 0.72489345, -0.31683317, 0.09231421, 0.08831769, -0.10163356, 0.09130350, 100.35100555, 81.39475250, 32.05999756, 0.00000000
1, 1.1402, 122, -0.59066004, -0.74330485, 0.13109374, -33.28284073, -13.59564018, -205.11776733, -66.93949127, 42.96989059, -72.93189240, 106.79219055, -30.13265991, -23.69520187, -0.60635942, 0.72684616, -0.31084526, 0.08601253, 0.08457036, -0.08245331, 0.11655509, 100.35100555, 81.39475250, 32.05999756, 0.00000000
1, 1.1399, 124, 0.17724609, -0.66271973, 0.24340820, -2.61843848, 14.80172157, 16.74969292, -44.69453430, -4.67699480, -70.15492249, 101.20736694, 39.38403702, 72.71221161, 0.63561052, -0.45917633, -0.60354662, -0.14452635, 0.45759919, -0.09520671, -0.09334540, 100.27300262, 87.94092560, 31.50000000, 0.00000000
1, 1.1449, 125, 0.17944336, -0.68029785, 0.23565674, -4.26343918, 16.37672234, 17.37969208, -44.69453430, -4.67699480, -70.15492249, 101.23801422, 39.28285980, 72.79418182, 0.63515472, -0.45941228, -0.60362536, -0.14544868, 0.45405155, -0.07863386, -0.08496871, 100.27300262, 87.94092560, 31.50000000, 0.00000000
1, 1.1999, 126, 0.20697021, -0.70037842, 0.18920898, -13.36344242, 37.27173233, 30.11969757, -46.18532562, -2.86465931, -71.64571381, 101.72231293, 37.69750595, 74.62385559, 0.62699360, -0.46019673, -0.60712218, -0.16279018, 0.40516689, -0.07391480, -0.02871766, 100.27300262, 87.94092560, 31.50000000, 0.00000000
1, 1.2049, 127, 0.22088623, -0.68096924, 0.17572021, -13.01344109, 35.03173065, 32.00970078, -46.62379456, -2.66004086, -72.20111084, 101.76424408, 37.50515747, 74.79920197, 0.62609804, -0.46043882, -0.60734403, -0.16471365, 0.38861823, -0.09518912, -0.01422169, 100.27300262, 87.94092560, 31.50000000, 0.00000000
1, 1.1452, 123, -0.54483807, -0.77322602, 0.12931745, -32.12855911, -12.67637634, -208.19514465, -66.93949127, 42.96989059, -72.93189240, 106.49495697, -29.11714745, -23.42412949, -0.60797346, 0.72882289, -0.30469960, 0.07964779, 0.05405246, -0.06225577, 0.11656627, 100.35100555, 81.39475250, 32.05999756, 0.00000000
1, 1.1502, 124, -0.54665083, -0.76269007, 0.14490083, -31.99750137, -11.64168644, -207.71647644, -66.93949127, 42.96989059, -72.93189240, 106.20434570, -28.10418129, -23.15676308, -0.60954398, 0.73073143, -0.29851535, 0.07332359, 0.07131899, -0.08227259, 0.09912198, 100.35100555, 81.39475250, 32.05999756, 0.00000000
1, 1.2099, 128, 0.24206543, -0.66143799, 0.17620850, -11.82344151, 32.72172928, 34.91469955, -46.62379456, -2.66004086, -72.20111084, 101.80034637, 37.30085373, 74.95594788, 0.62521601, -0.46080485, -0.60745013, -0.16663779, 0.36465031, -0.11670610, -0.01376812, 100.27300262, 87.94092560, 31.50000000, 0.00000000
1, 1.2149, 129, 0.26202393, -0.65124512, 0.18170166, -10.63344097, 31.88172913, 36.73469925, -47.12072372, -2.28003502, -71.85033417, 101.83702850, 37.08843231, 75.10459137, 0.62431628, -0.46125552, -0.60750252, -0.16856238, 0.34176922, -0.12897083, -0.01831259, 100.27300262, 87.94092560, 31.50000000, 0.00000000
1, 1.2199, 130, 0.28350830, -0.64868164, 0.19232178, -9.37344074, 31.32172775, 38.58970261, -47.12072372, -2.28003502, -71.85033417, 101.87572479, 36.86742401, 75.24682617, 0.62338930, -0.46179163, -0.60750872, -0.17049202, 0.31723467, -0.13367732, -0.02793991, 100.27300262, 87.94092560, 31.50000000, 0.00000000
1, 1.2302, 125, -0.37642750, -0.85841846, 0.28908515, -35.22906113, -39.78349304, -173.92486572, -61.99941635, 31.83279800, -72.55188751, 102.55481720, -12.55506039, -20.98294830, -0.62693834, 0.75008577, -0.20846814, -0.02934041, 0.15454733, -0.09380491, -0.07870844, 100.35100555, 81.39475250, 32.05999756, 0.00000000
1, 1.2352, 126, -0.38463902, -0.88408816, 0.29127672, -35.06821442, -43.45542908, -170.33396912, -61.99941635, 31.83279800, -72.55188751, 102.38375092, -11.67704391, -21.01341629, -0.62746513, 0.75058389, -0.20404311, -0.03574879, 0.17778009, -0.07198462, -0.08312219, 100.35100555, 81.39475250, 32.05999756, 0.00000000
1, 1.2249, 131, 0.31909180, -0.65722656, 0.20422363, -8.39343929, 30.83172989, 40.51470184, -47.12072372, -2.28003502, -71.85033417, 101.91523743, 36.63742447, 75.38299561, 0.62243813, -0.46240672, -0.60746706, -0.17243733, 0.27847019, -0.12734777, -0.03880923, 100.27300262, 87.94092560, 31.50000000, 0.00000000
1, 1.2299, 132, 0.33825684, -0.66906738, 0.21191406, -8.91844082, 30.37672997, 42.85970306, -47.73458099, -2.36772871, -72.14264679, 101.94786072, 36.39635086, 75.51275635, 0.62148875, -0.46307072, -0.60735852, -0.17445014, 0.25596622, -0.11783099, -0.04551474, 100.27300262, 87.94092560, 31.50000000, 0.00000000
1, 1.2349, 133, 0.36248779, -0.67877197, 0.22949219, -9.61844063, 30.90172958, 45.13470459, -47.73458099, -2.36772871, -72.14264679, 101.97636414, 36.14355469, 75.64221954, 0.62051880, -0.46376950, -0.60720950, -0.17655285, 0.22822353, -0.11056745, -0.06215344, 100.27300262, 87.94092560, 31.50000000, 0.00000000
1, 1.2399, 134, 0.38378906, -0.68255615, 0.24554443, -10.98344135, 31.98672867, 47.12969971, -47.88073730, -2.10464764, -72.52265167, 101.99958038, 35.87982559, 75.77511597, 0.61952859, -0.46447292, -0.60703534, -0.17876659, 0.20323792, -0.10933648, -0.07730614, 100.27300262, 87.94092560, 31.50000000, 0.00000000
1, 1.2449, 135, 0.40850830, -0.68542480, 0.25207520, -12.66344166, 33.94673157, 49.12470627, -47.88073730, -2.10464764, -72.52265167, 102.01897430, 35.60425568, 75.91669464, 0.61850065, -0.46516535, -0.60685647, -0.18111728, 0.17467053, -0.10912459, -0.08298292, 100.27300262, 87.94092560, 31.50000000, 0.00000000
1, 1.2999, 136, 0.47113037, -0.76519775, 0.34893799, -4.61343908, 0.06671851, 58.92470551, -51.15463257, -0.70154923, -73.28266144, 101.79137421, 32.32492828, 76.40336609, 0.60965192, -0.47712857, -0.59890610, -0.20490126, 0.06464875, -0.06129534, -0.17617139, 100.27300262, 87.94092560, 31.50000000, 0.00000000
1, 1.3049, 137, 0.46685791, -0.77679443, 0.36016846, -5.45343924, -1.29828191, 58.53970718, -51.15463257, -0.70154923, -73.28266144, 101.72257996, 32.03969193, 76.32538605, 0.60927397, -0.47852334, -0.59760207, -0.20657326, 0.06469925, -0.05250724, -0.18781967, 100.27300262, 87.94092560, 31.50000000, 0.00000000
1, 1.2402, 127, -0.39767075, -0.91128933, 0.29679492, -35.31782913, -45.62406921, -167.12261963, -61.44402313, 30.80970383, -72.34726715, 102.21621704, -10.81668758, -21.06134033, -0.62793791, 0.75100070, -0.19979656, -0.04211201, 0.20560935, -0.04834314, -0.09089145, 100.35100555, 81.39475250, 32.05999756, 0.00000000
1, 1.2452, 128, -0.41618112, -0.93110120, 0.29609913, -35.94546890, -45.98080063, -164.07359314, -61.44402313, 30.80970383, -72.34726715, 102.04433441, -9.96684933, -21.11609650, -0.62840658, 0.75132698, -0.19562009, -0.04843403, 0.23872735, -0.03181858, -0.09254985, 100.35100555, 81.39475250, 32.05999756, 0.00000000
1, 1.2502, 129, -0.42146155, -0.94090235, 0.28462368, -37.02027893, -44.73095322, -161.36616516, -61.44402313, 30.80970383, -72.34726715, 101.86617279, -9.13173389, -21.16997719, -0.62889093, 0.75156075, -0.19148472, -0.05464703, 0.25846463, -0.02505706, -0.08355562, 100.35100555, 81.39475250, 32.05999756, 0.00000000
1, 1.2552, 130, -0.42034104, -0.94412279, 0.26050073, -37.93590927, -41.85185242, -158.27137756, -60.94709015, 29.58199310, -71.73341370, 101.68140411, -8.31486607, -21.21530151, -0.62940216, 0.75170940, -0.18735886, -0.06068517, 0.27158099, -0.02462427, -0.06207035, 100.35100555, 81.39475250, 32.05999756, 0.00000000
1, 1.2602, 131, -0.41864619, -0.94254696, 0.24175578, -37.92505264, -36.33518219, -155.89669800, -60.94709015, 29.58199310, -71.73341370, 101.49309540, -7.51526070, -21.23833466, -0.62993044, 0.75181460, -0.18314917, -0.06647401, 0.28383648, -0.02876430, -0.04608903, 100.35100555, 81.39475250, 32.05999756, 0.00000000
1, 1.2652, 132, -0.41481742, -0.94291580, 0.20917588, -37.14335251, -26.78509140, -152.94493103, -59.48553085, 27.82811928, -72.08418274, 101.30319214, -6.73957920, -21.21971321, -0.63048655, 0.75190789, -0.17876637, -0.07185911, 0.29359433, -0.03069605, -0.01637963, 100.35100555, 81.39475250, 32.05999756, 0.00000000
1, 1.3099, 138, 0.46057129, -0.77130127, 0.35217285, -6.85344028, -2.24328256, 57.62969971, -51.15463257, -0.70154923, -73.28266144, 101.64516449, 31.75979042, 76.24372101, 0.60895413, -0.47986254, -0.59627551, -0.20823652, 0.06681974, -0.06077303, -0.18038937, 100.27300262, 87.94092560, 31.50000000, 0.00000000
1, 1.3149, 139, 0.47680664, -0.77819824, 0.34527588, -7.62343979, -2.34828210, 56.47470856, -52.52849960, 0.23384975, -73.51651764, 101.56498718, 31.48554420, 76.16350555, 0.60865980, -0.48114920, -0.59495956, -0.20988560, 0.04649327, -0.05658938, -0.17414632, 100.27300262, 87.94092560, 31.50000000, 0.00000000
1, 1.3199, 140, 0.46936035, -0.79248047, 0.35510254, -8.18344021, -2.34828210, 54.75970840, -52.52849960, 0.23384975, -73.51651764, 101.48373413, 31.21961403, 76.08598328, 0.60838926, -0.48237348, -0.59367085, -0.21150240, 0.04995096, -0.04493601, -0.18466794, 100.27300262, 87.94092560, 31.50000000, 0.00000000
1, 1.2702, 133, -0.41079032, -0.94262230, 0.19167352, -36.19146729, -19.72244644, -150.79074097, -59.48553085, 27.82811928, -72.08418274, 101.11497498, -5.98119354, -21.17091560, -0.63104331, 0.75199729, -0.17425381, -0.07694269, 0.30283439, -0.03308915, -0.00177983, 100.35100555, 81.39475250, 32.05999756, 0.00000000
1, 1.2752, 134, -0.39542493, -0.94364488, 0.17817770, -35.08790588, -13.42599869, -148.58665466, -59.48553085, 27.82811928, -72.08418274, 100.93035126, -5.23944330, -21.09569931, -0.63159007, 0.75208718, -0.16963547, -0.08174720, 0.30045515, -0.03395411, 0.00884150, 100.35100555, 81.39475250, 32.05999756, 0.00000000
1, 1.3249, 141, 0.49334717, -0.82336426, 0.33087158, -11.26344204, -2.62828255, 53.77970505, -53.17158508, -0.78924292, -73.89652252, 101.38751221, 30.95866013, 76.00868988, 0.60819632, -0.48349041, -0.59236354, -0.21316588, 0.02204648, -0.01664672, -0.16131461, 100.27300262, 87.94092560, 31.50000000, 0.00000000
1, 1.3299, 142, 0.52813721, -0.85009766, 0.32604980, -12.87344170, -2.20828223, 53.60470200, -53.17158508, -0.78924292, -73.89652252, 101.28523254, 30.69804573, 75.93473816, 0.60802472, -0.48455337, -0.59105265, -0.21487395, -0.01664668, 0.00749984, -0.15751204, 100.27300262, 87.94092560, 31.50000000, 0.00000000
1, 1.3349, 143, 0.54510498, -0.84027100, 0.33123779, -15.42844296, -1.57828200, 53.39470291, -53.17158508, -0.78924292, -73.89652252, 101.17281342, 30.43771744, 75.86537170, 0.60788924, -0.48553443, -0.58973551, -0.21665442, -0.03752733, -0.00492066, -0.16386275, 100.27300262, 87.94092560, 31.50000000, 0.00000000
1, 1.2952, 135, -0.32886323, -0.95768273, 0.19681528, -31.82634544, 7.49128151, -137.92939758, -57.73165512, 26.57117844, -72.08418274, 100.23464966, -2.45449185, -20.58158493, -0.63369441, 0.75238842, -0.15056524, -0.09835269, 0.28263587, -0.02556486, -0.02098778, 100.35100555, 81.39475250, 32.05999756, 0.00000000
1, 1.3002, 136, -0.31088686, -0.95593727, 0.20031384, -31.92950630, 13.72630692, -135.04537964, -57.73165512, 26.57117844, -72.08418274, 100.06646729, -1.80201161, -20.39604378, -0.63425118, 0.75242734, -0.14561908, -0.10185190, 0.27611503, -0.02828706, -0.02724415, 100.35100555, 81.39475250, 32.05999756, 0.00000000
1, 1.3399, 144, 0.59606934, -0.82617188, 0.31225586, -16.96844292, -0.66828173, 52.34470367, -52.85004425, -0.02923122, -73.16574097, 101.05654907, 30.18155098, 75.80312347, 0.60776937, -0.48643619, -0.58844668, -0.21846466, -0.09237031, -0.02158660, -0.14614907, 100.27300262, 87.94092560, 31.50000000, 0.00000000
1, 1.3449, 145, 0.63922119, -0.83990479, 0.29907227, -18.19344521, -1.26328194, 50.80470657, -52.85004425, -0.02923122, -73.16574097, 100.93395233, 29.93339920, 75.73998260, 0.60770202, -0.48726887, -0.58715981, -0.22025160, -0.13929927, -0.01035315, -0.13433582, 100.27300262, 87.94092560, 31.50000000, 0.00000000
1, 1.3052, 137, -0.29338208, -0.94067144, 0.19515201, -31.71113205, 19.85808563, -132.09785461, -57.55627060, 25.34346581, -72.14264679, 99.90081024, -1.16878068, -20.18478775, -0.63482946, 0.75245357, -0.14059521, -0.10506318, 0.26975366, -0.04436512, -0.02481855, 100.35100555, 81.39475250, 32.05999756, 0.00000000
1, 1.3102, 138, -0.27018410, -0.92447269, 0.15718694, -30.44866562, 24.98458862, -128.97723389, -57.55627060, 25.34346581, -72.14264679, 99.74347687, -0.55464917, -19.95273590, -0.63538951, 0.75249285, -0.13553216, -0.10800841, 0.25745061, -0.06116872, 0.01051385, 100.35100555, 81.39475250, 32.05999756, 0.00000000
1, 1.3152, 139, -0.25243774, -0.93197680, 0.14136805, -27.64589691, 29.31242943, -125.40452576, -56.47471619, 22.30341911, -72.58111572, 99.60263062, 0.03892184, -19.70395279, -0.63587779, 0.75258428, -0.13047452, -0.11069260, 0.25024077, -0.05414589, 0.02384363, 100.35100555, 81.39475250, 32.05999756, 0.00000000
1, 1.3749, 146, 0.64178467, -0.81530762, 0.23742676, -16.40844154, -14.56328678, 37.53969955, -54.60391617, 1.66617942, -74.15959930, 100.14863586, 28.67717361, 75.18568420, 0.60855317, -0.49175739, -0.57919675, -0.22884260, -0.16126467, -0.04785962, -0.08237151, 100.27300262, 87.94092560, 31.50000000, 0.00000000
1, 1.3799, 147, 0.61877441, -0.77380371, 0.23950195, -16.79344368, -15.68328762, 35.71969604, -54.60391617, 1.66617942, -74.15959930, 100.00553894, 28.51505089, 75.06215668, 0.60895205, -0.49236995, -0.57784516, -0.22987853, -0.14077234, -0.09110019, -0.08635315, 100.27300262, 87.94092560, 31.50000000, 0.00000000
1, 1.3849, 148, 0.58184814, -0.77044678, 0.23327637, -15.39344215, -17.25828743, 32.53469849, -54.60391617, 1.66617942, -74.15959930, 99.86734772, 28.36970329, 74.93357086, 0.60939062, -0.49295366, -0.57653242, -0.23075998, -0.10615130, -0.09606059, -0.08202549, 100.27300262, 87.94092560, 31.50000000, 0.00000000
1, 1.3899, 149, 0.54199219, -0.76916504, 0.24182129, -15.28844261, -17.08328629, 28.85969734, -55.01315308, 2.13387895, -73.95498657, 99.73234558, 28.24205780, 74.81008148, 0.60985786, -0.49344450, -0.57530284, -0.23154417, -0.06832042, -0.09877343, -0.09243166, 100.27300262, 87.94092560, 31.50000000, 0.00000000
1, 1.3949, 150, 0.53552246, -0.75878906, 0.24865723, -16.72344398, -16.06828690, 25.28969574, -55.01315308, 2.13387895, -73.95498657, 99.59490967, 28.13089943, 74.69614410, 0.61036503, -0.49379605, -0.57416111, -0.23229066, -0.06360726, -0.11043310, -0.10118353, 100.27300262, 87.94092560, 31.50000000, 0.00000000
1, 1.3202, 140, -0.22487481, -0.96106923, 0.13511240, -22.92533112, 34.37062073, -119.63056183, -56.47471619, 22.30341911, -72.58111572, 99.48802948, 0.60045809, -19.43625641, -0.63624728, 0.75277478, -0.12548389, -0.11302009, 0.23258767, -0.02535919, 0.02806411, 100.35100555, 81.39475250, 32.05999756, 0.00000000
1, 1.3252, 141, -0.19559364, -0.98477781, 0.15520005, -20.82824326, 35.37412262, -115.67243958, -56.47471619, 22.30341911, -72.58111572, 99.38652039, 1.14217472, -19.16785431, -0.63655394, 0.75298458, -0.12060167, -0.11518983, 0.21279322, -0.00186228, 0.00619532, 100.35100555, 81.39475250, 32.05999756, 0.00000000
1, 1.3302, 142, -0.16972119, -0.99450457, 0.16391256, -19.59771156, 34.52234268, -111.64235687, -55.89009094, 23.67728615, -72.40573120, 99.29351807, 1.66515887, -18.90775871, -0.63681793, 0.75318265, -0.11587815, -0.11726570, 0.19610602, 0.00778150, -0.00413938, 100.35100555, 81.39475250, 32.05999756, 0.00000000
1, 1.3352, 143, -0.14427072, -1.01229334, 0.15436445, -18.63954163, 32.65857697, -107.63291168, -55.89009094, 23.67728615, -72.40573120, 99.20724487, 2.17024612, -18.66080475, -0.63704491, 0.75335836, -0.11134000, -0.11928323, 0.17957488, 0.02561317, 0.00388388, 100.35100555, 81.39475250, 32.05999756, 0.00000000
1, 1.3402, 144, -0.14492312, -1.01535273, 0.14999303, -17.47960091, 32.05377197, -102.29911041, -55.91932297, 22.77112007, -72.75650024, 99.12830353, 2.64359617, -18.42182922, -0.63725257, 0.75351322, -0.10703273, -0.12112385, 0.18866149, 0.02878711, 0.00680893, 100.35100555, 81.39475250, 32.05999756, 0.00000000
1, 1.3999, 151, 0.52294922, -0.75079346, 0.26483154, -17.91344452, -13.93328667, 23.39969635, -55.27623367, 2.01695418, -74.21806335, 99.45836639, 28.02705002, 74.59633636, 0.61086231, -0.49404591, -0.57310385, -0.23306218, -0.05266548, -0.11963721, -0.11928699, 100.27300262, 87.94092560, 31.50000000, 0.00000000
1, 1.4049, 152, 0.50885010, -0.75506592, 0.27563477, -18.47344398, -12.14828587, 22.69969368, -55.27623367, 2.01695418, -74.21806335, 99.32431793, 27.92498779, 74.50749969, 0.61133295, -0.49424413, -0.57210225, -0.23386703, -0.04014238, -0.11653225, -0.13200581, 100.27300262, 87.94092560, 31.50000000, 0.00000000
1, 1.4099, 153, 0.49835205, -0.76562500, 0.29779053, -19.06844330, -9.20828533, 22.03469658, -55.27623367, 2.01695418, -74.21806335, 99.19557190, 27.82366371, 74.43605804, 0.61174858, -0.49437901, -0.57118642, -0.23473199, -0.03120994, -0.10711527, -0.15600845, 100.27300262, 87.94092560, 31.50000000, 0.00000000
1, 1.4149, 154, 0.49371338, -0.76397705, 0.28820801, -19.97844315, -5.49828386, 21.75469398, -54.75007248, 0.17538731, -74.62730408, 99.07228851, 27.72064972, 74.38585663, 0.61209333, -0.49444377, -0.57036531, -0.23569176, -0.02815175, -0.10989285, -0.14819559, 100.27300262, 87.94092560, 31.50000000, 0.00000000
1, 1.4199, 155, 0.50311279, -0.77551270, 0.27496338, -19.73344421, -1.22828186, 21.75469398, -54.75007248, 0.17538731, -74.62730408, 98.96150208, 27.61418915, 74.35976410, 0.61232543, -0.49447033, -0.56965977, -0.23673716, -0.03918232, -0.09948035, -0.13656062, 100.27300262, 87.94092560, 31.50000000, 0.00000000
1, 1.4052, 145, 0.33986053, -1.00340748, 0.19953631, 7.00295258, 70.74373627, -30.25222969, -54.95469284, 21.68956375, -74.68576050, 99.52091217, 6.15328884, -13.76479912, -0.63549620, 0.76091206, -0.05692050, -0.11797311, -0.23354337, 0.02244465, -0.03618174, 100.35100555, 81.39475250, 32.05999756, 0.00000000
1, 1.4102, 146, 0.39593005, -1.00533462, 0.19585072, 5.79120398, 66.18984222, -25.22772789, -54.95469284, 21.68956375, -74.68576050, 99.58719635, 6.22339249, -13.41557407, -0.63533670, 0.76147068, -0.05427382, -0.11646509, -0.28829783, 0.02471289, -0.03121710, 100.35100555, 81.39475250, 32.05999756, 0.00000000
1, 1.4152, 147, 0.42607069, -1.02086866, 0.18317299, 4.43838167, 58.57201767, -20.30951309, -55.07161713, 21.95264435, -75.06577301, 99.64261627, 6.27515030, -13.10811806, -0.63522339, 0.76193535, -0.05199484, -0.11507528, -0.31742910, 0.04054236, -0.01750673, 100.35100555, 81.39475250, 32.05999756, 0.00000000
1, 1.4202, 148, 0.41654694, -1.04724252, 0.16658437, 2.40537310, 51.45612335, -14.77479172, -55.07161713, 21.95264435, -75.06577301, 99.68379211, 6.30525112, -12.84051800, -0.63518488, 0.76229095, -0.05008688, -0.11377166, -0.30724359, 0.06714110, -0.00022990, 100.35100555, 81.39475250, 32.05999756, 0.00000000
1, 1.4252, 149, 0.37785670, -1.07032430, 0.16655862, 0.26304400, 47.82276154, -7.78863430, -55.04238510, 22.04033852, -75.38731384, 99.71177673, 6.30375719, -12.59677887, -0.63524079, 0.76255059, -0.04850122, -0.11239868, -0.26846790, 0.09032083, 0.00017847, 100.35100555, 81.39475250, 32.05999756, 0.00000000
1, 1.4449, 156, 0.59558105, -0.92895508, 0.23413086, -8.11344051, 8.43172073, 23.53969765, -55.24700165, 3.68313360, -75.27038574, 98.66533661, 27.02271843, 74.42940521, 0.61178821, -0.49525324, -0.56730169, -0.24209161, -0.14075999, 0.04855356, -0.09985238, 100.27300262, 87.94092560, 31.50000000, 0.00000000
1, 1.4499, 157, 0.60693359, -0.97485352, 0.22869873, -8.00844002, 9.09672165, 23.53969765, -55.42238998, 3.21543407, -74.77346039, 98.63916016, 26.89951515, 74.45999146, 0.61148697, -0.49552572, -0.56695086, -0.24311462, -0.15402724, 0.09342653, -0.09467638, 100.27300262, 87.94092560, 31.50000000, 0.00000000
1, 1.4549, 158, 0.61401367, -1.01623535, 0.21649170, -8.81344032, 9.23672104, 23.43469620, -55.42238998, 3.21543407, -74.77346039, 98.60930634, 26.77674675, 74.49147034, 0.61120003, -0.49577191, -0.56659675, -0.24415742, -0.16302262, 0.13378219, -0.08276383, 100.27300262, 87.94092560, 31.50000000, 0.00000000
1, 1.4599, 159, 0.61743164, -1.05346680, 0.20574951, -10.56344128, 8.74672127, 23.11969376, -55.42238998, 3.21543407, -74.77346039, 98.56956482, 26.65592384, 74.52055359, 0.61096561, -0.49596825, -0.56621701, -0.24522416, -0.16833198, 0.16998549, -0.07244547, 100.27300262, 87.94092560, 31.50000000, 0.00000000
1, 1.4649, 160, 0.61566162, -1.06390381, 0.18194580, -13.29344082, 8.43172073, 22.69969368, -55.24700165, 2.86465931, -75.62116241, 98.51552582, 26.53742409, 74.54832458, 0.61080164, -0.49608406, -0.56580788, -0.24633998, -0.16842020, 0.17938448, -0.04927939, 100.27300262, 87.94092560, 31.50000000, 0.00000000
1, 1.4302, 150, 0.33660251, -1.08130908, 0.16046326, -5.36825609, 38.52287292, -1.06838763, -55.04238510, 22.04033852, -75.38731384, 99.70595551, 6.27678347, -12.40483856, -0.63549465, 0.76259190, -0.04736993, -0.11115919, -0.22753181, 0.10129059, 0.00622529, 100.35100555, 81.39475250, 32.05999756, 0.00000000
1, 1.4352, 151, 0.30106315, -1.07907557, 0.14337276, -7.86619949, 31.61255836, 4.44210148, -55.04238510, 22.04033852, -75.38731384, 99.68333435, 6.22842026, -12.25180244, -0.63584214, 0.76251751, -0.04660177, -0.11000088, -0.19269699, 0.09894951, 0.02292459, 100.35100555, 81.39475250, 32.05999756, 0.00000000
1, 1.4402, 152, 0.27222294, -1.07060039, 0.12255675, -9.48480606, 25.57454109, 10.20755482, -55.13007736, 21.60187149, -75.00730896, 99.64292145, 6.17051792, -12.13318729, -0.63628286, 0.76232737, -0.04609981, -0.10897733, -0.16482732, 0.09029709, 0.04310462, 100.35100555, 81.39475250, 32.05999756, 0.00000000
1, 1.4452, 153, 0.24549155, -1.05408370, 0.10681348, -10.43954849, 20.48654938, 15.81193924, -55.13007736, 21.60187149, -75.00730896, 99.60034943, 6.07546711, -12.04477024, -0.63674474, 0.76210380, -0.04600652, -0.10787711, -0.13948563, 0.07352787, 0.05808738, 100.35100555, 81.39475250, 32.05999756, 0.00000000
1, 1.4502, 154, 0.22077917, -1.04032755, 0.09787323, -10.96460819, 15.12722111, 21.26417732, -55.45162201, 22.74188805, -75.67962646, 99.55178833, 5.95799398, -11.98739052, -0.63723773, 0.76182860, -0.04624110, -0.10680383, -0.11669323, 0.05944749, 0.06621686, 100.35100555, 81.39475250, 32.05999756, 0.00000000
1, 1.4699, 161, 0.59820557, -1.05395508, 0.16662598, -16.61844254, 6.64672041, 22.20969582, -55.24700165, 2.86465931, -75.62116241, 98.44065094, 26.42268944, 74.56674194, 0.61075819, -0.49611765, -0.56532520, -0.24748585, -0.15276882, 0.16838408, -0.03490778, 100.27300262, 87.94092560, 31.50000000, 0.00000000
1, 1.4749, 162, 0.56976318, -1.03015137, 0.16198730, -18.36844444, 5.03671980, 22.10469437, -54.83776474, 2.36772871, -75.88424683, 98.35314941, 26.30968094, 74.57653046, 0.61079240, -0.49611858, -0.56478208, -0.24863681, -0.12609939, 0.14351694, -0.03144410, 100.27300262, 87.94092560, 31.50000000, 0.00000000
1, 1.4799, 163, 0.54095459, -1.00097656, 0.15124512, -19.45344353, 3.42671943, 22.27969551, -54.83776474, 2.36772871, -75.88424683, 98.25630951, 26.19697952, 74.57749176, 0.61088687, -0.49611157, -0.56417960, -0.24978393, -0.09905251, 0.11326641, -0.02204446, 100.27300262, 87.94092560, 31.50000000, 0.00000000
1, 1.5002, 155, 0.11956891, -0.97830892, 0.05849216, -7.86966610, -33.32609558, 54.59627914, -55.30546570, 22.80035019, -75.65039063, 99.03896332, 3.89697814, -12.93364239, -0.64177334, 0.75783592, -0.06368552, -0.09877203, -0.05069228, -0.00697756, 0.09716108, 100.35100555, 81.39475250, 32.05999756, 0.00000000
1, 1.5052, 156, 0.07458744, -0.96188259, 0.04839594, -7.59430885, -38.25559616, 55.45673752, -55.30546570, 22.80035019, -75.65039063, 98.98638916, 3.65260959, -13.16610909, -0.64215028, 0.75730509, -0.06655825, -0.09849905, -0.00993773, -0.02381304, 0.10631002, 100.35100555, 81.39475250, 32.05999756, 0.00000000
1, 1.4849, 164, 0.50439453, -0.97491455, 0.14263916, -19.34844398, 0.90671879, 23.08469582, -54.83776474, 2.36772871, -75.88424683, 98.15367889, 26.08208847, 74.56414032, 0.61103129, -0.49615380, -0.56349266, -0.25089496, -0.06428203, 0.08610702, -0.01488262, 100.27300262, 87.94092560, 31.50000000, 0.00000000
1, 1.4899, 165, 0.46697998, -0.95666504, 0.13507080, -18.61344337, -2.52328229, 24.48469734, -55.68547058, 4.47237635, -75.85501099, 98.04609680, 25.96265221, 74.53104401, 0.61122769, -0.49628678, -0.56269103, -0.25195059, -0.02872001, 0.06672526, -0.00883767, 100.27300262, 87.94092560, 31.50000000, 0.00000000
1, 1.5102, 157, 0.01822818, -0.92854106, 0.07445170, -3.38267326, -41.95915985, 57.45302582, -55.30546570, 22.80035019, -75.65039063, 98.95471191, 3.40110660, -13.41819477, -0.64237976, 0.75686377, -0.06961803, -0.09827929, 0.04201818, -0.05757324, 0.07953337, 100.35100555, 81.39475250, 32.05999756, 0.00000000
1, 1.5152, 158, 0.02181232, -0.81593025, 0.24129204, 3.59602332, -47.03135681, 63.79805756, -55.56854630, 23.64805603, -75.50423431, 98.95741272, 3.12218332, -13.70013142, -0.64238340, 0.75656915, -0.07305820, -0.09802682, 0.03331035, -0.17074162, -0.08715784, 100.35100555, 81.39475250, 32.05999756, 0.00000000
1, 1.5202, 159, 0.04150925, -0.77395499, 0.39568540, 10.32804298, -62.85718155, 75.49825287, -55.56854630, 23.64805603, -75.50423431, 98.99095917, 2.79785419, -14.06938934, -0.64215332, 0.75634778, -0.07735573, -0.09794490, 0.00777841, -0.21318647, -0.24095118, 100.35100555, 81.39475250, 32.05999756, 0.00000000
1, 1.5199, 166, 0.42370605, -0.92462158, 0.14801025, -4.08843851, -23.10328865, 39.67470169, -56.00701523, 5.08623219, -75.47500610, 97.42048645, 25.04892540, 73.85765076, 0.61283356, -0.50037295, -0.55509299, -0.25677577, 0.00041325, 0.02664305, -0.03072190, 100.27300262, 87.94092560, 31.50000000, 0.00000000
1, 1.5249, 167, 0.44702148, -0.92175293, 0.19702148, -1.53343809, -23.59329033, 41.80970001, -56.18240356, 4.99853849, -75.67962646, 97.34587860, 24.85677147, 73.69898987, 0.61296874, -0.50160778, -0.55353093, -0.25741526, -0.02589973, 0.02222908, -0.08077852, 100.27300262, 87.94092560, 31.50000000, 0.00000000
1, 1.5252, 160, -0.07178695, -0.86480165, 0.42724520, 17.04241371, -83.39012146, 85.92974854, -55.53931427, 24.52499199, -75.44577789, 99.05538940, 2.43833971, -14.54842377, -0.64166141, 0.75617492, -0.08259982, -0.09822227, 0.11486259, -0.12252122, -0.27190927, 100.35100555, 81.39475250, 32.05999756, 0.00000000
1, 1.5302, 161, -0.20594627, -0.92576957, 0.38456538, 23.12998009, -91.19231415, 92.50146484, -55.53931427, 24.52499199, -75.44577789, 99.15167236, 2.05320501, -15.07152462, -0.64094895, 0.75609237, -0.08830246, -0.09854765, 0.24252334, -0.06150942, -0.22811723, 100.35100555, 81.39475250, 32.05999756, 0.00000000
1, 1.5352, 162, -0.30614138, -1.04980385, 0.46353576, 31.27565193, -83.73662567, 99.76117706, -55.53931427, 24.52499199, -75.44577789, 99.29341888, 1.62749708, -15.56422901, -0.64000553, 0.75621670, -0.09406696, -0.09838986, 0.33531350, 0.06251731, -0.30525586, 100.35100555, 81.39475250, 32.05999756, 0.00000000
1, 1.5299, 168, 0.47253418, -0.92724609, 0.25292969, 2.03656316, -23.52328873, 43.76970291, -56.18240356, 4.99853849, -75.67962646, 97.28939819, 24.65468216, 73.53983307, 0.61299926, -0.50298244, -0.55196536, -0.25802135, -0.05457380, 0.02614961, -0.13745889, 100.27300262, 87.94092560, 31.50000000, 0.00000000
1, 1.5349, 169, 0.50250244, -0.94915771, 0.32757568, 5.64156437, -24.11828995, 45.90470123, -56.29932785, 5.78778124, -75.12422943, 97.24971771, 24.44226074, 73.37639618, 0.61293781, -0.50450909, -0.55037487, -0.25858331, -0.08787360, 0.04646033, -0.21260023, 100.27300262, 87.94092560, 31.50000000, 0.00000000
1, 1.5399, 170, 0.56945801, -1.01489258, 0.41265869, 9.24656677, -25.51828957, 47.93470001, -56.29932785, 5.78778124, -75.12422943, 97.22506714, 24.22056198, 73.20434570, 0.61280447, -0.50619406, -0.54873997, -0.25908080, -0.15831561, 0.11057083, -0.29792807, 100.27300262, 87.94092560, 31.50000000, 0.00000000
1, 1.5402, 163, -0.34273222, -1.17015755, 0.47755304, 34.65217209, -70.59635162, 105.00881195, -55.45162201, 24.11575508, -74.53960419, 99.46083069, 1.16129744, -15.99770832, -0.63898742, 0.75646067, -0.09968330, -0.09759914, 0.36394814, 0.18309590, -0.31676716, 100.35100555, 81.39475250, 32.05999756, 0.00000000
1, 1.5449, 171, 0.63043213, -1.09020996, 0.43548584, 11.66156673, -28.56329155, 50.76970291, -56.29932785, 5.78778124, -75.12422943, 97.20572662, 23.98665619, 73.01420593, 0.61265469, -0.50804269, -0.54698485, -0.25952736, -0.22293827, 0.18422367, -0.32087189, 100.27300262, 87.94092560, 31.50000000, 0.00000000
1, 1.5499, 172, 0.70074463, -1.20721436, 0.41369629, 13.62156677, -35.00329208, 55.49470520, -56.21163177, 5.43700647, -75.65039063, 97.18167114, 23.73327827, 72.78634644, 0.61255711, -0.51012558, -0.54497087, -0.25990868, -0.29724121, 0.29942840, -0.29920483, 100.27300262, 87.94092560, 31.50000000, 0.00000000
1, 1.5549, 173, 0.72113037, -1.30877686, 0.37030029, 12.99156761, -40.46329117, 58.43470764, -56.21163177, 5.43700647, -75.65039063, 97.14300537, 23.46860886, 72.52751923, 0.61256438, -0.51231867, -0.54273325, -0.26025957, -0.32181543, 0.39910069, -0.25612858, 100.27300262, 87.94092560, 31.50000000, 0.00000000
1, 1.5452, 164, -0.38970470, -1.32505333, 0.37975505, 35.24552917, -42.32963562, 108.86476135, -55.45162201, 24.11575508, -74.53960419, 99.63357544, 0.65953273, -16.29586220, -0.63808697, 0.75678664, -0.10460114, -0.09579980, 0.40248632, 0.33850020, -0.21631049, 100.35100555, 81.39475250, 32.05999756, 0.00000000
1, 1.5599, 174, 0.67895508, -1.38525391, 0.35705566, 11.48656654, -45.99329376, 60.32471085, -57.17626190, 6.48933077, -75.50423431, 97.08590698, 23.19779015, 72.23831940, 0.61270827, -0.51457375, -0.54028291, -0.26057026, -0.28395686, 0.47361994, -0.24348404, 100.27300262, 87.94092560, 31.50000000, 0.00000000
1, 1.5649, 175, 0.62231445, -1.39947510, 0.36889648, 10.71656609, -50.71829605, 61.02470779, -57.17626190, 6.48933077, -75.50423431, 97.01641083, 22.92610741, 71.92407990, 0.61296564, -0.51687247, -0.53767544, -0.26080868, -0.23168249, 0.48585778, -0.25616422, 100.27300262, 87.94092560, 31.50000000, 0.00000000
1, 1.5852, 165, 0.81240135, -1.41712821, 0.28606802, 26.90873528, -18.80381775, 64.34937286, -56.67933273, 27.59427071, -73.92575073, 101.50913239, -2.81374359, -17.60398674, -0.62791437, 0.76271480, -0.13381945, -0.07798785, -0.86092722, 0.43777251, -0.08763272, 100.35100555, 81.39475250, 32.05999756, 0.00000000
1, 1.5902, 166, 0.96049267, -1.28905320, -0.08796372, 22.12509155, -17.69400597, 62.82431793, -56.44548416, 26.51271439, -73.48728180, 101.62438965, -3.09130621, -17.75248146, -0.62729609, 0.76288795, -0.13639110, -0.07680546, -1.01305604, 0.31097403, 0.28897440, 100.35100555, 81.39475250, 32.05999756, 0.00000000
1, 1.5952, 167, 0.88830101, -1.20775902, -0.03168724, 22.09802818, -26.38647079, 66.54331970, -56.44548416, 26.51271439, -73.48728180, 101.74682617, -3.39043760, -17.94883537, -0.62661803, 0.76300937, -0.13939877, -0.07572634, -0.94601291, 0.23027863, 0.23462808, 100.35100555, 81.39475250, 32.05999756, 0.00000000
1, 1.5999, 176, 0.41973877, -1.02398682, 0.32244873, 39.06657791, -49.35329819, 14.82469368, -56.29932785, 7.95089149, -73.80883026, 97.18301392, 21.77751541, 69.62303925, 0.61415595, -0.53337151, -0.52304125, -0.25447035, -0.04860547, 0.10264876, -0.20670739, 100.27300262, 87.94092560, 31.50000000, 0.00000000
1, 1.6049, 177, 0.41247559, -0.98004150, 0.18554688, 36.40657425, -47.95329666, 6.73969030, -56.29932785, 7.95089149, -73.80883026, 97.26834106, 21.77424049, 69.36234283, 0.61432600, -0.53503156, -0.52200186, -0.25270319, -0.04154663, 0.05879962, -0.06839302, 100.27300262, 87.94092560, 31.50000000, 0.00000000
1, 1.6002, 168, 0.57509339, -1.09904909, 0.00454423, 17.63217735, -29.15851784, 73.08884430, -56.44548416, 29.02659988, -73.60420990, 101.84937286, -3.71848559, -18.16610718, -0.62608600, 0.76295125, -0.14268413, -0.07458591, -0.63851893, 0.12223032, 0.19958183, 100.35100555, 81.39475250, 32.05999756, 0.00000000
1, 1.6052, 169, 0.31048742, -0.95584393, 0.07999386, 18.35443497, -38.30496216, 75.66582489, -56.44548416, 29.02659988, -73.60420990, 101.96009064, -4.04937935, -18.43157959, -0.62547266, 0.76285696, -0.14630598, -0.07367346, -0.37986064, -0.02034054, 0.12545291, 100.35100555, 81.39475250, 32.05999756, 0.00000000
1, 1.6102, 170, -0.01289631, -0.86154699, 0.08760501, 22.75726128, -56.78148651, 82.28498077, -56.44548416, 29.02659988, -73.60420990, 102.10173035, -4.39290333, -18.79535866, -0.62460476, 0.76276875, -0.15066434, -0.07316492, -0.06241594, -0.11375137, 0.11935977, 100.35100555, 81.39475250, 32.05999756, 0.00000000
1, 1.6099, 178, 0.38958740, -0.91058350, 0.10375977, 34.79657364, -45.78329468, 0.54468805, -56.59164047, 8.41859055, -74.13037109, 97.35144043, 21.80067062, 69.11746216, 0.61454844, -0.53647983, -0.52114409, -0.25085565, -0.01834183, -0.01036164, 0.01471641, 100.27300262, 87.94092560, 31.50000000, 0.00000000
1, 1.6149, 179, 0.29492188, -0.84631348, 0.08947754, 33.88657379, -42.59829330, -5.23031378, -56.59164047, 8.41859055, -74.13037109, 97.43763733, 21.85401535, 68.89356995, 0.61477929, -0.53773433, -0.52049381, -0.24894698, 0.07706763, -0.07415933, 0.03032831, 100.27300262, 87.94092560, 31.50000000, 0.00000000
1, 1.6199, 180, 0.20281982, -0.82617188, 0.11108398, 32.59157181, -38.22329712, -8.20531464, -56.59164047, 8.41859055, -74.13037109, 97.52663422, 21.91957474, 68.69512177, 0.61497021, -0.53883618, -0.52001375, -0.24708925, 0.17020789, -0.09370233, 0.01008383, 100.27300262, 87.94092560, 31.50000000, 0.00000000
1, 1.6249, 181, 0.13293457, -0.81127930, 0.14996338, 29.58157349, -30.13829231, -9.53531456, -55.68547058, 8.74013424, -73.10727692, 97.61686707, 21.98668480, 68.54083252, 0.61506015, -0.53973752, -0.51974714, -0.24545312, 0.24118984, -0.10796538, -0.02740775, 100.27300262, 87.94092560, 31.50000000, 0.00000000
1, 1.6299, 182, 0.12487793, -0.84753418, 0.20098877, 30.31657410, -21.52828979, -7.40031433, -55.68547058, 8.74013424, -73.10727692, 97.72732544, 22.03771400, 68.43109131, 0.61491281, -0.54061329, -0.51966763, -0.24405971, 0.25016084, -0.07112195, -0.07682440, 100.27300262, 87.94092560, 31.50000000, 0.00000000
1, 1.6349, 183, 0.21551514, -0.96807861, 0.28460693, 33.50157166, -7.80828333, -1.55531251, -55.97778320, 9.03244686, -73.22420502, 97.87958527, 22.05070305, 68.39049530, 0.61431545, -0.54155952, -0.51985085, -0.24307393, 0.15990257, 0.04988396, -0.15819573, 100.27300262, 87.94092560, 31.50000000, 0.00000000
1, 1.6152, 171, -0.27242193, -0.88233888, 0.06484402, 24.34263420, -80.38159180, 89.48385620, -56.12393951, 28.82198143, -72.90265656, 102.26348114, -4.74591351, -19.28355026, -0.62353641, 0.76258254, -0.15590777, -0.07323223, 0.19106703, -0.09187113, 0.14405330, 100.35100555, 81.39475250, 32.05999756, 0.00000000
1, 1.6202, 172, -0.43865144, -0.92939866, 0.00146646, 19.75627899, -93.99870300, 95.03633118, -56.12393951, 28.82198143, -72.90265656, 102.41175842, -5.11036730, -19.84566307, -0.62252587, 0.76216632, -0.16168787, -0.07362911, 0.35116714, -0.04362270, 0.20941889, 100.35100555, 81.39475250, 32.05999756, 0.00000000
1, 1.6502, 173, 0.84350270, -2.32135868, -0.10419328, 7.59070635, -49.82501221, 107.91648102, -56.06547546, 30.95586014, -71.85033417, 103.37376404, -7.73580217, -22.46259689, -0.61700988, 0.75970942, -0.19349447, -0.06855953, -0.97583234, 1.35714674, 0.33137226, 100.35100555, 81.39475250, 32.05999756, 0.00000000
1, 1.6552, 174, 0.74386483, -1.81203270, -0.09438620, 0.99776143, -34.57086945, 92.48534393, -56.06547546, 30.95586014, -71.85033417, 103.41823578, -8.14603519, -22.73987007, -0.61694956, 0.75885135, -0.19749053, -0.06719811, -0.88365364, 0.84902263, 0.32285166, 100.35100555, 81.39475250, 32.05999756, 0.00000000
1, 1.6602, 175, 0.49891859, -1.29588211, 0.01450475, 6.04794168, -41.57973099, 74.16707611, -56.06547546, 30.95586014, -71.85033417, 103.49144745, -8.45873642, -23.03084564, -0.61659914, 0.75825292, -0.20108095, -0.06651844, -0.64481473, 0.33376294, 0.21504553, 100.35100555, 81.39475250, 32.05999756, 0.00000000
1, 1.6652, 176, 0.23757628, -0.90857446, 0.25089520, 18.83150291, -57.58847046, 60.65345383, -56.41625214, 31.92049026, -71.73341370, 103.63925934, -8.68637085, -23.38539505, -0.61563832, 0.75805908, -0.20468953, -0.06662000, -0.38830948, -0.05279639, -0.01935811, 100.35100555, 81.39475250, 32.05999756, 0.00000000
1, 1.6702, 177, -0.05421261, -0.76783478, 0.53960478, 24.89930344, -74.01580811, 60.81560516, -56.41625214, 31.92049026, -71.73341370, 103.83122253, -8.89427185, -23.82179832, -0.61432058, 0.75796652, -0.20875943, -0.06720538, -0.10083789, -0.19271612, -0.30559129, 100.35100555, 81.39475250, 32.05999756, 0.00000000
1, 1.6399, 184, 0.42407227, -1.16644287, 0.35705566, 33.71157074, 7.17172050, 5.86468983, -55.97778320, 9.03244686, -73.22420502, 98.06088257, 22.01667595, 68.42440796, 0.61329317, -0.54251957, -0.52026135, -0.24263564, -0.04900961, 0.24849758, -0.22781220, 100.27300262, 87.94092560, 31.50000000, 0.00000000
1, 1.6449, 185, 0.72589111, -1.41510010, 0.40124512, 31.36657524, 18.16172600, 13.52969265, -55.97778320, 9.03244686, -73.22420502, 98.25012970, 21.93682289, 68.51098633, 0.61199427, -0.54347318, -0.52075839, -0.24271521, -0.35194105, 0.49714106, -0.26891428, 100.27300262, 87.94092560, 31.50000000, 0.00000000
1, 1.6749, 186, 0.02288818, -1.13049316, 0.24432373, 9.91156578, -73.78330994, -20.56032181, -55.80239487, 9.47091484, -73.22420502, 98.12102509, 21.84532738, 67.49121094, 0.61450076, -0.54777426, -0.51527023, -0.23838809, 0.34852526, 0.21138069, -0.11285672, 100.27300262, 87.94092560, 31.50000000, 0.00000000
1, 1.6799, 187, -0.24188232, -1.08685303, 0.36285400, 17.75156784, -72.59330750, -30.88532257, -55.80239487, 9.47091484, -73.22420502, 98.07376099, 22.04933739, 67.12723541, 0.61602592, -0.54830766, -0.51424348, -0.23542427, 0.61642236, 0.16885637, -0.23246619, 100.27300262, 87.94092560, 31.50000000, 0.00000000
1, 1.6752, 178, -0.43620488, -0.76294994, 0.68183154, 19.21152878, -93.00185394, 69.09336090, -56.00701523, 32.44665146, -71.67494965, 104.01280212, -9.11832428, -24.36252594, -0.61302817, 0.75757354, -0.21359189, -0.06824541, 0.27701956, -0.19648503, -0.44578069, 100.35100555, 81.39475250, 32.05999756, 0.00000000
1, 1.6802, 179, -0.81890512, -0.72957134, 0.60563487, 13.53358555, -101.04916382, 77.31623840, -56.00701523, 32.44665146, -71.67494965, 104.17640686, -9.37101650, -24.95393562, -0.61185515, 0.75690645, -0.21888897, -0.06938098, 0.65569675, -0.22837895, -0.36785227, 100.35100555, 81.39475250, 32.05999756, 0.00000000
1, 1.6852, 180, -1.06405926, -0.69528115, 0.51478809, 15.63503933, -85.63239288, 81.58280182, -55.62701035, 32.73896408, -71.00263214, 104.34186554, -9.66158485, -25.47603416, -0.61075491, 0.75627971, -0.22391427, -0.06987165, 0.89623350, -0.26104599, -0.27502310, 100.35100555, 81.39475250, 32.05999756, 0.00000000
1, 1.6849, 188, -0.38580322, -1.05072021, 0.48437500, 16.10656738, -67.83330536, -37.25532913, -55.15930939, 9.14937115, -72.25957489, 98.02812958, 22.28128433, 66.79280090, 0.61754155, -0.54859823, -0.51347399, -0.23243712, 0.76400387, 0.13409840, -0.35488504, 100.27300262, 87.94092560, 31.50000000, 0.00000000
1, 1.6899, 189, -0.55908203, -0.92108154, 0.57592773, 8.23156548, -63.10830688, -38.20032501, -55.15930939, 9.14937115, -72.25957489, 97.95146179, 22.51431084, 66.48355103, 0.61914253, -0.54860121, -0.51276881, -0.22971146, 0.94107533, 0.00585195, -0.44772995, 100.27300262, 87.94092560, 31.50000000, 0.00000000
1, 1.6949, 190, -0.63214111, -0.81127930, 0.59222412, 2.56156325, -59.15329742, -34.59532166, -55.15930939, 9.14937115, -72.25957489, 97.85209656, 22.72630501, 66.19194031, 0.62074876, -0.54848677, -0.51202232, -0.22730260, 1.01764369, -0.10272040, -0.46576738, 100.27300262, 87.94092560, 31.50000000, 0.00000000
1, 1.6902, 181, -1.12792945, -0.71549618, 0.54776579, 20.02532578, -60.69703674, 80.43875885, -55.62701035, 32.73896408, -71.00263214, 104.51631165, -9.98955250, -25.87698936, -0.60971451, 0.75584042, -0.22832617, -0.06943198, 0.95457244, -0.23924427, -0.30556297, 100.35100555, 81.39475250, 32.05999756, 0.00000000
1, 1.6952, 182, -1.11978519, -0.75314474, 0.62104303, 21.25685310, -37.41439056, 74.42327118, -55.62701035, 32.73896408, -71.00263214, 104.67255402, -10.30273056, -26.15556526, -0.60885733, 0.75555080, -0.23183642, -0.06846762, 0.94072127, -0.20006227, -0.37641299, 100.35100555, 81.39475250, 32.05999756, 0.00000000
1, 1.7302, 183, -0.66221380, -0.96929681, 0.22344090, -0.61417717, -3.23891401, 31.24536324, -55.68547058, 35.10669327, -70.65185547, 105.13665009, -11.74419308, -26.86480141, -0.60695821, 0.75385827, -0.24397820, -0.06143504, 0.45872945, 0.02369891, 0.02898391, 100.35100555, 81.39475250, 32.05999756, 0.00000000
1, 1.7352, 184, -0.52611434, -0.97290790, 0.18951020, 0.43838751, 3.27424383, 28.72323990, -55.89009094, 34.81438065, -71.14878845, 105.14367676, -11.88713360, -26.88673210, -0.60705340, 0.75357431, -0.24483599, -0.06055979, 0.32026082, 0.02789119, 0.06323033, 100.35100555, 81.39475250, 32.05999756, 0.00000000
1, 1.6999, 191, -0.63732910, -0.73126221, 0.58441162, 3.33156347, -52.39830017, -28.75032234, -54.51622391, 8.94475269, -72.17187500, 97.76776886, 22.90432167, 65.93153381, 0.62212276, -0.54845250, -0.51132238, -0.22519471, 1.02584994, -0.18168125, -0.45957014, 100.27300262, 87.94092560, 31.50000000, 0.00000000
1, 1.7049, 192, -0.59527588, -0.71588135, 0.56536865, 8.93156528, -40.18329239, -20.24531937, -54.51622391, 8.94475269, -72.17187500, 97.73383331, 23.03171158, 65.73012543, 0.62300324, -0.54863703, -0.51080263, -0.22348382, 0.98606467, -0.19621724, -0.44143218, 100.27300262, 87.94092560, 31.50000000, 0.00000000
1, 1.7099, 193, -0.52484131, -0.77734375, 0.56463623, 18.62656784, -23.45328903, -9.71031570, -53.75621033, 8.97398376, -71.90879822, 97.78026581, 23.09564018, 65.61093903, 0.62317431, -0.54915518, -0.51057857, -0.22224309, 0.91691816, -0.13415727, -0.44037199, 100.27300262, 87.94092560, 31.50000000, 0.00000000
1, 1.7402, 185, -0.37761614, -0.98902452, 0.28802136, 0.87597418, 4.76557732, 26.22946167, -55.89009094, 34.81438065, -71.14878845, 105.15888214, -12.03722191, -26.90063286, -0.60710597, 0.75333560, -0.24568005, -0.05957544, 0.16904287, 0.04440068, -0.03489058, 100.35100555, 81.39475250, 32.05999756, 0.00000000
1, 1.7452, 186, -0.26745069, -0.99456644, 0.36767259, -1.19651783, -6.66362572, 24.19576073, -55.89009094, 34.81438065, -71.14878845, 105.16683960, -12.14539146, -26.96570969, -0.60713476, 0.75302833, -0.24664819, -0.05916401, 0.05656722, 0.05029963, -0.11420247, 100.35100555, 81.39475250, 32.05999756, 0.00000000
1, 1.7502, 187, -0.24589108, -0.99244881, 0.28642577, -3.21692181, -28.17073250, 22.65728378, -55.42238998, 34.78514862, -71.11955261, 105.18679047, -12.21816063, -27.13500977, -0.60699356, 0.75262678, -0.24813128, -0.05952061, 0.03381187, 0.04867730, -0.03271413, 100.35100555, 81.39475250, 32.05999756, 0.00000000
