SensorId, TimeStamp (s), FrameNumber, AccX (g), AccY (g), AccZ (g), GyroX (deg/s), GyroY (deg/s), GyroZ (deg/s), MagX (uT), MagY (uT), MagZ (uT), EulerX (deg), EulerY (deg), EulerZ (deg), QuatW, QuatX, QuatY, QuatZ, LinAccX (g), LinAccY (g), LinAccZ (g), Pressure (kPa), Altitude (m), Temperature (degC), HeaveMotion (m)
1, 0.0000, 0, -0.75291127, -0.55084908, -0.18013655, 21.14394569, 49.20408630, 37.06161880, -69.39491272, 22.30341911, -88.13212585, 79.56148529, -23.81891632, 132.81652832, 0.17993891, -0.39590406, -0.51027983, -0.74195451, 0.35000801, -0.34876823, 0.01162032, 99.92000580, 117.61683655, 30.94999886, 0.00000000
1, 0.0350, 1, -0.38434756, -0.46286768, -0.20251095, 47.90405655, 85.22100067, -7.35745335, -69.59953308, 21.66033363, -88.27828217, 79.61671448, -23.56497383, 135.60473633, 0.16306725, -0.38201749, -0.52101958, -0.74566108, -0.01540010, -0.43814749, 0.03533996, 99.92000580, 117.61683655, 30.94999886, 0.00000000
1, 0.0400, 2, -0.39487866, -0.53140283, -0.07790656, 53.68298340, 74.39724731, -10.03750229, -69.65799713, 19.26337242, -89.00906372, 79.72986603, -23.44765854, 135.99366760, 0.16081561, -0.37974206, -0.52346188, -0.74560183, -0.00331790, -0.37090325, -0.08796545, 99.92000580, 117.61683655, 30.94999886, 0.00000000
1, 0.0450, 3, -0.38906509, -0.55152464, -0.05317527, 58.09309387, 67.47729492, -14.78031540, -69.65799713, 19.26337242, -89.00906372, 79.88239288, -23.31397629, 136.34082031, 0.15880091, -0.37760863, -0.52606905, -0.74528217, -0.00711036, -0.35212260, -0.11058372, 99.92000580, 117.61683655, 30.94999886, 0.00000000
1, 0.0500, 4, -0.34369040, -0.53401864, -0.06567418, 60.80624390, 68.29984283, -20.54380417, -69.80415344, 21.16340256, -89.15522003, 80.04964447, -23.15206718, 136.68685913, 0.15690815, -0.37532881, -0.52885604, -0.74486202, -0.04999503, -0.37110704, -0.09555150, 99.92000580, 117.61683655, 30.94999886, 0.00000000
1, 0.0550, 5, -0.31012282, -0.51827669, -0.10775248, 63.09922791, 71.80479431, -25.01118279, -69.80415344, 21.16340256, -89.15522003, 80.22355652, -22.96603775, 137.04754639, 0.15504016, -0.37284103, -0.53180528, -0.74440265, -0.08057007, -0.38846898, -0.05085318, 99.92000580, 117.61683655, 30.94999886, 0.00000000
1, 0.0600, 6, -0.29508981, -0.50948727, -0.15683241, 65.56760406, 75.51934814, -29.44074631, -69.80415344, 21.16340256, -89.15522003, 80.40472412, -22.75604248, 137.42410278, 0.15318735, -0.37013912, -0.53492117, -0.74390197, -0.09219903, -0.39903212, 0.00088419, 99.92000580, 117.61683655, 30.94999886, 0.00000000
1, 0.0650, 7, -0.30695382, -0.50802970, -0.18889914, 68.33850098, 77.77113342, -33.76881409, -69.21952820, 21.01724625, -89.06752014, 80.59787750, -22.52390480, 137.80889893, 0.15137519, -0.36727336, -0.53820020, -0.74332792, -0.07660513, -0.40244919, 0.03568321, 99.92000580, 117.61683655, 30.94999886, 0.00000000
1, 0.0700, 8, -0.33781374, -0.51455319, -0.19396850, 71.35260773, 77.58402252, -37.98285675, -69.21952820, 21.01724625, -89.06752014, 80.80924225, -22.27235985, 138.18919373, 0.14965287, -0.36432609, -0.54163039, -0.74263519, -0.04175128, -0.39808238, 0.04368569, 99.92000580, 117.61683655, 30.94999886, 0.00000000
1, 0.0750, 9, -0.37888870, -0.52106225, -0.17944363, 74.23954010, 76.20548248, -41.94325638, -69.42414093, 20.78339577, -89.33060455, 81.03884125, -22.00644493, 138.55967712, 0.14802794, -0.36135045, -0.54517668, -0.74181944, 0.00353823, -0.39388853, 0.03237033, 99.92000580, 117.61683655, 30.94999886, 0.00000000
1, 0.0800, 10, -0.41952306, -0.52803242, -0.16328916, 77.00983429, 75.59761810, -46.12916565, -69.42414093, 20.78339577, -89.33060455, 81.28789520, -21.71897507, 138.92329407, 0.14652044, -0.35829303, -0.54887843, -0.74087143, 0.04868575, -0.38936716, 0.01972243, 99.92000580, 117.61683655, 30.94999886, 0.00000000
1, 0.1300, 11, -0.30844328, -0.60908163, -0.07766445, 98.24845123, 102.76246643, -93.80859375, -68.10874176, 18.82490540, -88.65828705, 84.37433624, -17.53326035, 143.16157532, 0.13427448, -0.31685430, -0.59402514, -0.72712302, 0.00519694, -0.33891001, -0.01892383, 99.92000580, 117.61683655, 30.94999886, 0.00000000
1, 0.1350, 12, -0.29188463, -0.61565483, -0.09722725, 99.90156555, 103.74160004, -96.29500580, -68.10874176, 18.82490540, -88.65828705, 84.72663879, -17.00269127, 143.65338135, 0.13327643, -0.31163609, -0.59911394, -0.72538465, -0.00251386, -0.33560973, 0.00618428, 99.92000580, 117.61683655, 30.94999886, 0.00000000
1, 0.1400, 13, -0.28651553, -0.63454938, -0.10509091, 102.68527985, 102.52342224, -98.25228119, -67.31949615, 17.97719955, -88.59982300, 85.09871674, -16.46586037, 144.14002991, 0.13232699, -0.30640337, -0.60427570, -0.72350365, 0.00107825, -0.31995580, 0.01989386, 99.92000580, 117.61683655, 30.94999886, 0.00000000
1, 0.1450, 14, -0.28718999, -0.65780842, -0.09637659, 104.75388336, 101.67596436, -99.94627380, -67.31949615, 17.97719955, -88.59982300, 85.48628998, -15.92403507, 144.62390137, 0.13141805, -0.30114660, -0.60948473, -0.72150433, 0.01078617, -0.29989314, 0.01732564, 99.92000580, 117.61683655, 30.94999886, 0.00000000
1, 0.1500, 15, -0.28377616, -0.68012619, -0.08218997, 105.86247253, 100.81828308, -101.55816650, -66.47179413, 16.98333740, -88.45366669, 85.88448334, -15.37769318, 145.10519409, 0.13056038, -0.29586235, -0.61470819, -0.71941185, 0.01649737, -0.28069216, 0.00953660, 99.92000580, 117.61683655, 30.94999886, 0.00000000
1, 0.1550, 16, -0.27329198, -0.71308625, -0.06720471, 106.75457001, 100.36139679, -102.52683258, -66.47179413, 16.98333740, -88.45366669, 86.29157257, -14.82992840, 145.58648682, 0.12972607, -0.29055354, -0.61993235, -0.71724033, 0.01519897, -0.25074095, 0.00115611, 99.92000580, 117.61683655, 30.94999886, 0.00000000
1, 0.1600, 17, -0.25852129, -0.74112618, -0.04533260, 107.73273468, 101.42308807, -104.33669281, -66.47179413, 16.98333740, -88.45366669, 86.70604706, -14.27615452, 146.07550049, 0.12889943, -0.28515020, -0.62517762, -0.71500164, 0.00969305, -0.22561330, -0.01392417, 99.92000580, 117.61683655, 30.94999886, 0.00000000
1, 0.1650, 18, -0.24346128, -0.76067412, -0.02754550, 107.38156891, 103.80809784, -105.15167236, -66.00408936, 15.14177132, -88.97982788, 87.11975098, -13.72108650, 146.57946777, 0.12802957, -0.27963027, -0.63039619, -0.71275246, 0.00397700, -0.20884550, -0.02483803, 99.92000580, 117.61683655, 30.94999886, 0.00000000
1, 0.1950, 19, -0.11809985, -0.90087259, -0.06809409, 100.26241302, 112.61071777, -107.30488586, -64.89330292, 11.42940617, -89.56445313, 89.52120972, -10.37884521, 149.87611389, 0.12226015, -0.24424909, -0.66047883, -0.69940156, -0.06421646, -0.08217204, 0.05640507, 99.92000580, 117.61683655, 30.94999886, 0.00000000
1, 0.2000, 20, -0.11963426, -0.93408227, -0.06291503, 100.66244507, 109.45919037, -105.00154877, -63.84098053, 10.87401295, -89.62291718, 89.92619324, -9.84904671, 150.42855835, 0.12125440, -0.23840353, -0.66522849, -0.69708842, -0.05352537, -0.05067407, 0.05806154, 99.92000580, 117.61683655, 30.94999886, 0.00000000
1, 0.2050, 21, -0.12878495, -0.95192933, -0.02600086, 101.30150604, 104.24832916, -102.43486786, -63.84098053, 10.87401295, -89.62291718, 90.34326935, -9.33597088, 150.95756531, 0.12030727, -0.23277973, -0.66990244, -0.69467294, -0.03556786, -0.03440826, 0.02822376, 99.92000580, 117.61683655, 30.94999886, 0.00000000
1, 0.2100, 22, -0.13154973, -0.95845950, -0.00400945, 101.36875153, 99.52699280, -98.69253540, -63.84098053, 10.87401295, -89.62291718, 90.76865387, -8.84526062, 151.46551514, 0.11937654, -0.22739531, -0.67447680, -0.69218624, -0.02428786, -0.02924723, 0.01352321, 99.92000580, 117.61683655, 30.94999886, 0.00000000
1, 0.2150, 23, -0.12183683, -0.95690131, -0.00139854, 101.12824249, 96.62488556, -95.39362335, -63.63636398, 12.71557999, -89.00906372, 91.19883728, -8.37457657, 151.96157837, 0.11842693, -0.22218163, -0.67895848, -0.68965632, -0.02579911, -0.03195643, 0.01835763, 99.92000580, 117.61683655, 30.94999886, 0.00000000
1, 0.2200, 24, -0.09727495, -0.96546292, 0.00387883, 100.87648010, 91.98678589, -90.87408447, -63.63636398, 12.71557999, -89.00906372, 91.63472748, -7.92968225, 152.43670654, 0.11747421, -0.21722849, -0.68332928, -0.68707556, -0.04259623, -0.02436186, 0.02065530, 99.92000580, 117.61683655, 30.94999886, 0.00000000
1, 0.2250, 25, -0.06592719, -0.98363674, 0.00505572, 100.32521820, 88.34665680, -87.41356659, -62.26249695, 11.69248772, -88.59982300, 92.07324982, -7.50429153, 152.89590454, 0.11653077, -0.21246852, -0.68759763, -0.68446130, -0.06651203, -0.00698076, 0.02713047, 99.92000580, 117.61683655, 30.94999886, 0.00000000
1, 0.2300, 26, -0.02702088, -1.00147903, 0.00099008, 99.25120544, 83.82989502, -83.89717102, -62.26249695, 11.69248772, -88.59982300, 92.51271057, -7.09995222, 153.33442688, 0.11561617, -0.20793915, -0.69174671, -0.68182164, -0.09831505, 0.01023647, 0.03889352, 99.92000580, 117.61683655, 30.94999886, 0.00000000
1, 0.2350, 27, 0.01087295, -1.02703977, 0.00382149, 98.15555573, 78.16328430, -80.37285614, -62.26249695, 11.69248772, -88.59982300, 92.95294189, -6.71527958, 153.74636841, 0.11477204, -0.20367037, -0.69577247, -0.67915136, -0.12946799, 0.03531291, 0.04376890, 99.92000580, 117.61683655, 30.94999886, 0.00000000
1, 0.2400, 28, 0.04808077, -1.05126977, 0.00662076, 96.46298981, 71.92684174, -76.53907013, -62.11634064, 10.55247021, -88.74597931, 93.39081573, -6.35124016, 154.12857056, 0.11401331, -0.19968635, -0.69965476, -0.67646849, -0.16027895, 0.05920154, 0.04865599, 99.92000580, 117.61683655, 30.94999886, 0.00000000
1, 0.3050, 29, -0.10414407, -1.08364880, 0.09043276, 60.30043793, 16.92395782, -42.72313690, -59.86553574, 9.00321579, -85.96901703, 98.25361633, -3.01282477, 156.53240967, 0.11357044, -0.17056695, -0.73660368, -0.64453369, 0.05049086, 0.09509084, 0.04963284, 99.92000580, 117.61683655, 30.94999886, 0.00000000
1, 0.3100, 30, -0.08603089, -1.05909240, 0.11783063, 56.31030273, 17.82643700, -41.10853958, -59.16398621, 9.14937115, -86.55363464, 98.52865601, -2.82160950, 156.65054321, 0.11374161, -0.16901857, -0.73857605, -0.64265162, 0.03568445, 0.07102247, 0.02717413, 99.92000580, 117.61683655, 30.94999886, 0.00000000
1, 0.3150, 31, -0.05137029, -1.04183018, 0.13269801, 52.71178055, 18.76053429, -39.21775055, -59.16398621, 9.14937115, -86.55363464, 98.78590393, -2.64102793, 156.77273560, 0.11385478, -0.16748561, -0.74043131, -0.64089561, 0.00418429, 0.05426346, 0.01695148, 99.92000580, 117.61683655, 30.94999886, 0.00000000
1, 0.3200, 32, -0.00373402, -1.03930271, 0.11977353, 49.39985657, 19.55459785, -37.19374466, -59.16398621, 9.14937115, -86.55363464, 99.02685547, -2.47163081, 156.89807129, 0.11390858, -0.16597815, -0.74217701, -0.63925695, -0.04041860, 0.05227945, 0.03424151, 99.92000580, 117.61683655, 30.94999886, 0.00000000
1, 0.3250, 33, 0.03813489, -1.03648090, 0.09739749, 45.69234085, 20.69493103, -35.22654724, -59.28091049, 8.65244102, -85.85208893, 99.24674225, -2.31011653, 157.02827454, 0.11392087, -0.16446149, -0.74379438, -0.63776517, -0.07937291, 0.05000276, 0.06067570, 99.92000580, 117.61683655, 30.94999886, 0.00000000
1, 0.3300, 34, 0.08487883, -1.02528226, 0.06526963, 40.24822998, 21.52042389, -32.36844635, -59.28091049, 8.65244102, -85.85208893, 99.44241333, -2.16719151, 157.16067505, 0.11384003, -0.16300844, -0.74524993, -0.63645214, -0.12347403, 0.03931541, 0.09637146, 99.92000580, 117.61683655, 30.94999886, 0.00000000
1, 0.3350, 35, 0.10921910, -1.01301146, 0.05881103, 36.86259079, 19.59594154, -30.30314255, -59.19321823, 8.33089733, -85.58900452, 99.62188721, -2.03333139, 157.28233337, 0.11378749, -0.16165844, -0.74658316, -0.63524222, -0.14542547, 0.02749527, 0.10608184, 99.92000580, 117.61683655, 30.94999886, 0.00000000
1, 0.3400, 36, 0.12549873, -0.99976707, 0.06849603, 33.99660873, 15.92877865, -28.00557137, -59.19321823, 8.33089733, -85.58900452, 99.78800201, -1.90814459, 157.38435364, 0.11380997, -0.16047043, -0.74779904, -0.63410819, -0.15950745, 0.01465396, 0.09938256, 99.92000580, 117.61683655, 30.94999886, 0.00000000
1, 0.3450, 37, 0.12516569, -0.98150885, 0.08459195, 31.35938835, 11.00789833, -25.63563728, -59.19321823, 8.33089733, -85.58900452, 99.94201660, -1.79077828, 157.46046448, 0.11394485, -0.15948257, -0.74889833, -0.63303500, -0.15713352, -0.00323104, 0.08602373, 99.92000580, 117.61683655, 30.94999886, 0.00000000
1, 0.3500, 38, 0.11192329, -0.96591187, 0.09952357, 28.86023331, 6.43637228, -23.25913811, -58.95936966, 9.06167793, -85.35515594, 100.08446503, -1.68141079, 157.51228333, 0.11417991, -0.15868609, -0.74988711, -0.63202143, -0.14198449, -0.01847170, 0.07359552, 99.92000580, 117.61683655, 30.94999886, 0.00000000
1, 0.3950, 39, -0.11165306, -0.86514091, 0.03816911, 12.74923325, -1.15783370, -4.20172310, -58.57936096, 7.13241720, -84.82899475, 100.93186951, -1.14114761, 157.53022766, 0.11647861, -0.15647329, -0.75519395, -0.62580436, 0.09155133, -0.11663106, 0.14947283, 99.92000580, 117.61683655, 30.94999886, 0.00000000
1, 0.4000, 40, -0.11227989, -0.85387933, 0.03966985, 11.19691086, 0.99564862, -3.04401517, -58.22858810, 8.59397793, -84.56591797, 100.98766327, -1.12700379, 157.53802490, 0.11645345, -0.15640181, -0.75552541, -0.62542671, 0.09245482, -0.12770870, 0.14898217, 99.92000580, 117.61683655, 30.94999886, 0.00000000
1, 0.4050, 41, -0.10207602, -0.84032452, 0.03911492, 9.65076447, 2.62783289, -1.93386412, -58.22858810, 8.59397793, -84.56591797, 101.03560638, -1.11988556, 157.55278015, 0.11635457, -0.15631451, -0.75581527, -0.62511653, 0.08240703, -0.14109965, 0.15043932, 99.92000580, 117.61683655, 30.94999886, 0.00000000
1, 0.4100, 42, -0.09173715, -0.82866275, 0.03651744, 7.96247005, 4.22644329, -0.92786008, -58.02396774, 8.06781673, -84.53668213, 101.07498169, -1.11924231, 157.57444763, 0.11618701, -0.15620808, -0.75606036, -0.62487799, 0.07211261, -0.15261866, 0.15379508, 99.92000580, 117.61683655, 30.94999886, 0.00000000
1, 0.4150, 43, -0.07991584, -0.81743217, 0.03724757, 6.31737947, 5.19797707, 0.09769950, -58.02396774, 8.06781673, -84.53668213, 101.10607147, -1.12460089, 157.59988403, 0.11597049, -0.15610082, -0.75625837, -0.62470531, 0.06022347, -0.16373847, 0.15367720, 99.92000580, 117.61683655, 30.94999886, 0.00000000
1, 0.4200, 44, -0.07143204, -0.80741823, 0.04640833, 4.71141052, 5.85821724, 1.04523695, -58.02396774, 8.06781673, -84.53668213, 101.12911224, -1.13527417, 157.62763977, 0.11571711, -0.15599877, -0.75640959, -0.62459475, 0.05155215, -0.17367993, 0.14498292, 99.92000580, 117.61683655, 30.94999886, 0.00000000
1, 0.4250, 45, -0.05357875, -0.79731548, 0.05845577, 2.75326729, 6.20451260, 1.88461781, -58.02396774, 7.01549244, -84.21514130, 101.13080597, -1.15451026, 157.65653992, 0.11542982, -0.15591399, -0.75643623, -0.62463677, 0.03338907, -0.18376309, 0.13316727, 99.92000580, 117.61683655, 30.94999886, 0.00000000
1, 0.4300, 46, -0.01719197, -0.78146207, 0.07450449, 0.80391675, 5.81982279, 2.70646358, -58.02396774, 7.01549244, -84.21514130, 101.13433075, -1.17334807, 157.68252563, 0.11515865, -0.15584825, -0.75646931, -0.62466323, -0.00338804, -0.19963512, 0.11723757, 99.92000580, 117.61683655, 30.94999886, 0.00000000
1, 0.4350, 47, 0.01546464, -0.76858914, 0.07920768, -0.64095724, 4.94640350, 3.75560355, -58.08243179, 7.16164875, -84.41976166, 101.13072968, -1.19652820, 157.70320129, 0.11489728, -0.15583387, -0.75645137, -0.62473661, -0.03644535, -0.21251619, 0.11259289, 99.92000580, 117.61683655, 30.94999886, 0.00000000
1, 0.4400, 48, 0.03108203, -0.76090896, 0.05555651, -2.86923361, 1.14676416, 4.53465557, -58.08243179, 7.16164875, -84.41976166, 101.11642456, -1.21991658, 157.70449829, 0.11475481, -0.15593790, -0.75634837, -0.62486148, -0.05241066, -0.22018759, 0.13609862, 99.92000580, 117.61683655, 30.94999886, 0.00000000
1, 0.4650, 49, -0.08546134, -0.77631617, 0.00181459, -1.23700368, -10.39313030, 4.09860945, -58.17012405, 8.62320995, -83.68898010, 101.06402588, -1.31047881, 157.55805969, 0.11502551, -0.15734291, -0.75575840, -0.62517327, 0.06262216, -0.20484099, 0.18857911, 99.92000580, 117.61683655, 30.94999886, 0.00000000
1, 0.4700, 50, -0.10159288, -0.77888620, 0.03243297, -1.83160198, -14.25510502, 3.69865751, -58.17012405, 8.62320995, -83.68898010, 101.05661011, -1.31509721, 157.48454285, 0.11540619, -0.15784527, -0.75561148, -0.62515408, 0.07857215, -0.20234120, 0.15780148, 99.92000580, 117.61683655, 30.94999886, 0.00000000
1, 0.4750, 51, -0.11390170, -0.77779818, 0.04950404, -2.58498979, -16.72766113, 3.40394807, -57.79011917, 8.68167210, -84.09821320, 101.03693390, -1.32492161, 157.39935303, 0.11583304, -0.15844032, -0.75537521, -0.62521017, 0.09073153, -0.20350304, 0.14045447, 99.92000580, 117.61683655, 30.94999886, 0.00000000
1, 0.4800, 52, -0.12548365, -0.77123249, 0.04693867, -2.89448333, -17.63303757, 3.28115129, -57.79011917, 8.68167210, -84.09821320, 101.02457428, -1.32434094, 157.30964661, 0.11634344, -0.15901592, -0.75518417, -0.62519997, 0.10224809, -0.21011814, 0.14271763, 99.92000580, 117.61683655, 30.94999886, 0.00000000
1, 0.4850, 53, -0.13647945, -0.76386344, 0.03181281, -2.73279071, -16.30705070, 3.24059439, -57.96550751, 8.76936531, -84.03975677, 101.01288605, -1.32482159, 157.22650146, 0.11681020, -0.15955457, -0.75500429, -0.62519312, 0.11328180, -0.21750236, 0.15762320, 99.92000580, 117.61683655, 30.94999886, 0.00000000
1, 0.4900, 54, -0.14536348, -0.76785290, 0.01973536, -2.51305604, -13.86904907, 3.33096027, -57.96550751, 8.76936531, -84.03975677, 101.00201416, -1.32807255, 157.15522766, 0.11719269, -0.16003062, -0.75484180, -0.62519610, 0.12215106, -0.21352875, 0.16948287, 99.92000580, 117.61683655, 30.94999886, 0.00000000
1, 0.4950, 55, -0.14249372, -0.77711964, 0.02209373, -2.64465880, -11.81461143, 3.31149936, -57.96550751, 8.76936531, -84.03975677, 100.99024200, -1.33319342, 157.09407043, 0.11750902, -0.16044924, -0.75468594, -0.62521744, 0.11919586, -0.20430169, 0.16692272, 99.92000580, 117.61683655, 30.94999886, 0.00000000
1, 0.5000, 56, -0.13678795, -0.78994071, 0.03421325, -3.30541205, -10.14531612, 3.18443823, -57.73165512, 8.21397209, -82.98742676, 100.97499847, -1.33927894, 157.04122925, 0.11777849, -0.16081458, -0.75452155, -0.62527138, 0.11335257, -0.19154602, 0.15454870, 99.92000580, 117.61683655, 30.94999886, 0.00000000
1, 0.5050, 57, -0.13471469, -0.79393804, 0.03698233, -4.12241697, -10.28599644, 2.94611955, -57.73165512, 8.21397209, -82.98742676, 100.95566559, -1.34409320, 156.98791504, 0.11806475, -0.16117179, -0.75433540, -0.62534988, 0.11118362, -0.18761200, 0.15146500, 99.92000580, 117.61683655, 30.94999886, 0.00000000
1, 0.5100, 58, -0.13862839, -0.78999925, 0.03087711, -4.62877607, -9.62489223, 2.79306245, -57.93627548, 8.88629055, -83.19204712, 100.93373871, -1.34880376, 156.93798828, 0.11833692, -0.16150330, -0.75413990, -0.62544876, 0.11503020, -0.19160980, 0.15719911, 99.92000580, 117.61683655, 30.94999886, 0.00000000
1, 0.5500, 59, -0.07897799, -0.82804096, 0.13477503, -1.32795680, 5.84875298, 3.64564753, -57.05933762, 8.65244102, -83.74744415, 100.84621429, -1.51013637, 156.93490601, 0.11741167, -0.16230921, -0.75346500, -0.62622738, 0.05239072, -0.15397246, 0.05181255, 99.92000580, 117.61683655, 30.94999886, 0.00000000
1, 0.5550, 60, -0.07303050, -0.84171319, 0.11261602, -1.71341836, 8.31784725, 3.67435455, -57.05933762, 8.65244102, -83.74744415, 100.83668518, -1.53596282, 156.97235107, 0.11704996, -0.16219355, -0.75343502, -0.62636113, 0.04605747, -0.14028153, 0.07380982, 99.92000580, 117.61683655, 30.94999886, 0.00000000
1, 0.5600, 61, -0.07466506, -0.85188544, 0.10051373, -1.99135256, 10.74974632, 3.84101439, -57.61473083, 9.06167793, -83.51358795, 100.82545471, -1.56486225, 157.02159119, 0.11660576, -0.16201526, -0.75340873, -0.62652183, 0.04723281, -0.13011195, 0.08570281, 99.92000580, 117.61683655, 30.94999886, 0.00000000
1, 0.5650, 62, -0.08445005, -0.86378098, 0.09314238, -2.43872690, 12.48388481, 3.99320006, -57.61473083, 9.06167793, -83.51358795, 100.81172180, -1.59612393, 157.07920837, 0.11610357, -0.16179223, -0.75337756, -0.62671012, 0.05650106, -0.11823294, 0.09280270, 99.92000580, 117.61683655, 30.94999886, 0.00000000
1, 0.5700, 63, -0.13640565, -0.92691851, 0.07025554, -3.20197201, 14.02444839, 4.84583569, -57.61473083, 9.06167793, -83.51358795, 100.79396057, -1.63300216, 157.14363098, 0.11553265, -0.16155112, -0.75332719, -0.62693834, 0.10790150, -0.05509432, 0.11517487, 99.92000580, 117.61683655, 30.94999886, 0.00000000
1, 0.5750, 64, -0.06441947, -0.96804464, 0.24269487, -9.92656422, 21.79693604, 12.44260597, -58.05319977, 6.13855600, -83.95205688, 100.75066376, -1.71151340, 157.23892212, 0.11455356, -0.16130799, -0.75313056, -0.62741673, 0.03436116, -0.01433634, -0.05777530, 99.92000580, 117.61683655, 30.94999886, 0.00000000
1, 0.5800, 65, 0.23881565, -0.96363807, 0.54356921, -22.98039627, 14.90089893, 34.00149918, -58.05319977, 6.13855600, -83.95205688, 100.63491058, -1.89262307, 157.28085327, 0.11329109, -0.16190235, -0.75233775, -0.62844306, -0.27228710, -0.01946302, -0.35953102, 99.92000580, 117.61683655, 30.94999886, 0.00000000
1, 0.5850, 66, 0.32534981, -0.82073069, 0.92668873, -34.88626099, -38.14625168, 63.20879745, -57.08856964, 8.21397209, -83.65974426, 100.47003937, -2.16928196, 157.03569031, 0.11304668, -0.16485310, -0.75074553, -0.62962312, -0.36421293, -0.16334890, -0.74490875, 99.92000580, 117.61683655, 30.94999886, 0.00000000
1, 0.5900, 67, 0.14446868, -0.63650143, 1.52952635, -18.50538445, -107.86465454, 87.45238495, -57.08856964, 8.21397209, -83.65974426, 100.40354156, -2.50299406, 156.42614746, 0.11429456, -0.17059161, -0.74906749, -0.62986761, -0.19046062, -0.34867692, -1.34971380, 99.92000580, 117.61683655, 30.94999886, 0.00000000
1, 0.5950, 68, -0.18626231, -0.81800437, 1.63114166, 16.97143745, -134.50051880, 92.50002289, -57.08856964, 8.21397209, -83.65974426, 100.52427673, -2.83677864, 155.68066406, 0.11600665, -0.17739455, -0.74816114, -0.62875158, 0.13414848, -0.16683193, -1.45115066, 99.92000580, 117.61683655, 30.94999886, 0.00000000
1, 0.6250, 69, -0.05118520, -0.87008500, 1.26129997, -0.09769131, -43.37706757, 93.55729675, -58.17012405, 10.11400127, -83.65974426, 99.60167694, -5.17318583, 155.08970642, 0.10540673, -0.19300945, -0.73878700, -0.63704842, -0.04028001, -0.11415885, -1.09693694, 99.92000580, 117.61683655, 30.94999886, 0.00000000
1, 0.6300, 70, 0.68848711, -1.18566990, 1.38248694, -5.98112726, -98.01247406, 93.66191101, -58.17012405, 10.11400127, -83.65974426, 99.62575531, -5.55403519, 154.52642822, 0.10599958, -0.19872476, -0.73737490, -0.63682884, -0.78715783, 0.20195466, -1.21631336, 99.92000580, 117.61683655, 30.94999886, 0.00000000
1, 0.6350, 71, 1.11192119, -1.55562425, 0.82874978, -19.40136909, -109.86405945, 76.02416992, -58.34551239, 10.11400127, -83.10435486, 99.58999634, -5.83830595, 153.91876221, 0.10757687, -0.20413488, -0.73565954, -0.63683701, -1.21456707, 0.57327855, -0.66255128, 99.92000580, 117.61683655, 30.94999886, 0.00000000
1, 0.6400, 72, 1.19142938, -1.81557834, 0.46700263, -22.83524895, -22.19992065, 53.23529053, -58.34551239, 10.11400127, -83.10435486, 99.49230957, -6.08284950, 153.76470947, 0.10700744, -0.20635313, -0.73444635, -0.63761771, -1.29748154, 0.83402252, -0.30254018, 99.92000580, 117.61683655, 30.94999886, 0.00000000
1, 0.6450, 73, 1.27498686, -1.81676877, 0.46008220, -18.81540108, 67.62960815, 47.50860977, -58.57936096, 10.84478188, -83.68898010, 99.36659241, -6.37230110, 154.06158447, 0.10368548, -0.20590086, -0.73381007, -0.63904387, -1.38581777, 0.83538610, -0.29759246, 99.92000580, 117.61683655, 30.94999886, 0.00000000
1, 0.6500, 74, 1.32365942, -1.94972086, 0.51627350, -15.88735676, 30.95367432, 58.69015121, -58.57936096, 10.84478188, -83.68898010, 99.27595520, -6.68701172, 154.16792297, 0.10119559, -0.20684223, -0.73298198, -0.64008844, -1.44000828, 0.96856260, -0.35570270, 99.92000580, 117.61683655, 30.94999886, 0.00000000
1, 0.6550, 75, 0.80368978, -2.09517980, 0.29101491, -27.78199005, -52.21252823, 75.75238800, -58.57936096, 10.84478188, -83.68898010, 99.17630768, -7.01990652, 153.84770203, 0.10098939, -0.21060142, -0.73129034, -0.64082968, -0.92517650, 1.11479998, -0.13367185, 99.92000580, 117.61683655, 30.94999886, 0.00000000
1, 0.6600, 76, 0.54046834, -2.07932425, 0.10959385, -45.37318039, -94.52058411, 89.30422974, -59.31014252, 10.90324497, -82.92897034, 99.01840210, -7.38752317, 153.30668640, 0.10190928, -0.21589558, -0.72877574, -0.64178628, -0.66773486, 1.09960771, 0.04449507, 99.92000580, 117.61683655, 30.94999886, 0.00000000
1, 0.6650, 77, 1.01346290, -2.54255247, -0.13896032, -44.43668365, -103.26265717, 93.99125671, -59.31014252, 10.90324497, -82.92897034, 98.87487030, -7.77293634, 152.71897888, 0.10296270, -0.22157937, -0.72617632, -0.64262682, -1.14668059, 1.56370139, 0.29083946, 99.92000580, 117.61683655, 30.94999886, 0.00000000
1, 0.6700, 78, 1.57753742, -3.03505087, -0.07682725, -55.78746796, -85.40354919, 93.22944641, -59.42706680, 9.41245270, -83.19204712, 98.66603851, -8.16994286, 152.22157288, 0.10357799, -0.22667883, -0.72331822, -0.64397132, -1.71775150, 2.05653739, 0.22596388, 99.92000580, 117.61683655, 30.94999886, 0.00000000
1, 0.7000, 79, -1.31876457, -0.57022643, 0.14153880, -53.06780243, -141.10139465, 113.24906158, -60.01169205, 14.06021595, -82.66588593, 97.34587097, -10.81590557, 148.87356567, 0.10820666, -0.26053941, -0.70350027, -0.65230209, 1.13279605, -0.40450117, -0.01964128, 99.92000580, 117.61683655, 30.94999886, 0.00000000
1, 0.7050, 80, -1.65735412, -0.44463903, -0.01656410, -43.50104904, -114.67286682, 112.70566559, -60.01169205, 14.06021595, -82.66588593, 97.25469208, -11.30359840, 148.22190857, 0.10899326, -0.26705539, -0.70042598, -0.65284413, 1.46347797, -0.52845168, 0.13596006, 99.92000580, 117.61683655, 30.94999886, 0.00000000
1, 0.7100, 81, -2.04972935, -0.32760069, -0.12490779, -35.44817734, -87.59307861, 107.67530823, -60.77170181, 12.71557999, -82.02279663, 97.18114471, -11.78393173, 147.71015930, 0.10899901, -0.27267060, -0.69773680, -0.65340143, 1.84783816, -0.64381742, 0.24200773, 99.92000580, 117.61683655, 30.94999886, 0.00000000
1, 0.7150, 82, -2.30019355, -0.20292087, -0.10533292, -32.45531082, -67.68672180, 93.42481232, -60.77170181, 12.71557999, -82.02279663, 97.10357666, -12.20639133, 147.30813599, 0.10876792, -0.27728897, -0.69537359, -0.65401530, 2.09081674, -0.76713967, 0.22052348, 99.92000580, 117.61683655, 30.94999886, 0.00000000
1, 0.7200, 83, -2.30847907, -0.07294656, 0.02283061, -26.65635300, -36.01909637, 77.77149200, -61.32709503, 15.72639561, -82.13972473, 97.02089691, -12.57084846, 147.07676697, 0.10795341, -0.28054893, -0.69350028, -0.65474862, 2.09226513, -0.89608538, 0.09100493, 99.92000580, 117.61683655, 30.94999886, 0.00000000
1, 0.7250, 84, -2.13156128, -0.05932721, 0.00769484, -23.37882233, -18.53506279, 65.87824249, -61.32709503, 15.72639561, -82.13972473, 96.93447113, -12.89195538, 146.94192505, 0.10687883, -0.28298679, -0.69192737, -0.65553939, 1.90976214, -0.90860450, 0.10500841, 99.92000580, 117.61683655, 30.94999886, 0.00000000
1, 0.7300, 85, -1.83152318, -0.14102748, -0.05966785, -19.02620125, 4.08684635, 53.63809967, -61.32709503, 15.72639561, -82.13972473, 96.84262085, -13.16090298, 146.93016052, 0.10545043, -0.28439882, -0.69074142, -0.65640986, 1.60507011, -0.82587880, 0.17131823, 99.92000580, 117.61683655, 30.94999886, 0.00000000
1, 0.7350, 86, -1.47747695, -0.31023902, -0.06266750, -15.15957165, 19.87365150, 41.55669403, -61.64863968, 13.68021011, -82.72434998, 96.74977875, -13.37905312, 147.00662231, 0.10384566, -0.28501043, -0.68988454, -0.65730089, 1.24710703, -0.65593529, 0.17324179, 99.92000580, 117.61683655, 30.94999886, 0.00000000
1, 0.7900, 87, -0.36984414, -1.07739794, 0.00626655, -2.36103368, -40.29101563, 20.26038742, -61.85326004, 16.31101990, -82.51972961, 96.64168549, -14.28017044, 145.49542236, 0.10702708, -0.29872483, -0.68323225, -0.65764922, 0.12348485, 0.11468682, 0.10297313, 99.92000580, 117.61683655, 30.94999886, 0.00000000
1, 0.7950, 88, -0.41727817, -1.04173005, 0.04776848, -1.50801623, -34.67667770, 18.84105492, -61.79479599, 16.89564514, -81.99356842, 96.68109131, -14.35393620, 145.30654907, 0.10753646, -0.30027512, -0.68278116, -0.65732843, 0.16954999, 0.07934949, 0.06204445, 99.92000580, 117.61683655, 30.94999886, 0.00000000
1, 0.8000, 89, -0.47627103, -1.01468694, 0.07668477, -0.71366316, -29.98049927, 17.92636681, -61.79479599, 16.89564514, -81.99356842, 96.71858215, -14.42574024, 145.14216614, 0.10792179, -0.30166626, -0.68238509, -0.65703964, 0.22725219, 0.05264382, 0.03362544, 99.92000580, 117.61683655, 30.94999886, 0.00000000
1, 0.8050, 90, -0.51849771, -0.99855423, 0.10174569, 0.14941554, -24.91831207, 17.75562096, -61.79479599, 16.89564514, -81.99356842, 96.75411987, -14.49950314, 145.00376892, 0.10815004, -0.30291030, -0.68203861, -0.65678948, 0.26818326, 0.03685711, 0.00905627, 99.92000580, 117.61683655, 30.94999886, 0.00000000
1, 0.8100, 91, -0.52707303, -0.98340631, 0.12455002, 0.44097731, -19.65234184, 17.59700966, -61.61940765, 17.15872574, -82.11049652, 96.78450012, -14.57546520, 144.89237976, 0.10822234, -0.30399930, -0.68172640, -0.65659845, 0.27542591, 0.02206334, -0.01324802, 99.92000580, 117.61683655, 30.94999886, 0.00000000
1, 0.8150, 92, -0.50393772, -0.96320128, 0.13835950, 0.05506212, -14.34673309, 16.99228668, -61.61940765, 17.15872574, -82.11049652, 96.80615234, -14.65146923, 144.80850220, 0.10815947, -0.30491596, -0.68143559, -0.65648568, 0.25096774, 0.00221670, -0.02660467, 99.92000580, 117.61683655, 30.94999886, 0.00000000
1, 0.8200, 93, -0.45991018, -0.93867373, 0.15103151, -0.28095889, -10.44544983, 15.40704632, -61.91172028, 17.27565002, -81.58432770, 96.82088470, -14.72187328, 144.74555969, 0.10803066, -0.30567190, -0.68117398, -0.65642685, 0.20569056, -0.02198272, -0.03889593, 99.92000580, 117.61683655, 30.94999886, 0.00000000
1, 0.8250, 94, -0.40080255, -0.91363907, 0.15704249, 0.10944331, -8.04356670, 12.69020557, -61.91172028, 17.27565002, -81.58432770, 96.84483337, -14.80911350, 144.69366455, 0.10770611, -0.30645826, -0.68095088, -0.65634489, 0.14527410, -0.04665147, -0.04444597, 99.92000580, 117.61683655, 30.94999886, 0.00000000
1, 0.8300, 95, -0.38575974, -0.91941702, 0.16119145, 0.38324517, -7.67270422, 10.38211441, -61.91172028, 17.27565002, -81.58432770, 96.85859680, -14.85614109, 144.64793396, 0.10763040, -0.30698815, -0.68078762, -0.65627909, 0.12913586, -0.04055725, -0.04828264, 99.92000580, 117.61683655, 30.94999886, 0.00000000
1, 0.8350, 96, -0.37201658, -0.94624102, 0.16541389, 0.42956415, -9.14308834, 7.78766918, -62.05787659, 17.50950050, -81.78894806, 96.87410736, -14.88941288, 144.59622192, 0.10767222, -0.30748343, -0.68065298, -0.65618008, 0.11477543, -0.01355008, -0.05228269, 99.92000580, 117.61683655, 30.94999886, 0.00000000
1, 0.8600, 97, -0.40546188, -0.96157324, 0.11237136, 1.12778604, -17.65791702, 4.31597376, -61.67787170, 17.42180634, -81.35047913, 96.99452209, -14.97462940, 144.18431091, 0.10915925, -0.31048620, -0.68001300, -0.65518320, 0.14682998, 0.00250929, 0.00255570, 99.92000580, 117.61683655, 30.94999886, 0.00000000
1, 0.8650, 98, -0.41234079, -0.96068120, 0.12249558, 1.59009790, -17.74821854, 3.88730955, -61.67787170, 17.42180634, -81.35047913, 97.02673340, -14.98321152, 144.09069824, 0.10955212, -0.31111693, -0.67992103, -0.65491372, 0.15352835, 0.00170763, -0.00705449, 99.92000580, 117.61683655, 30.94999886, 0.00000000
1, 0.8700, 99, -0.40755644, -0.95369923, 0.14697729, 1.22085428, -16.79319763, 3.14362550, -61.41479111, 17.30488205, -81.35047913, 97.05570221, -14.98863888, 144.00244141, 0.10994296, -0.31169644, -0.67983276, -0.65466428, 0.14857739, -0.00522415, -0.03101157, 99.92000580, 117.61683655, 30.94999886, 0.00000000
1, 0.8750, 100, -0.38733086, -0.93994606, 0.15744907, 0.99822378, -13.38496113, 1.82560933, -61.41479111, 17.30488205, -81.35047913, 97.09070587, -15.02059364, 143.92929077, 0.11006105, -0.31232971, -0.67975092, -0.65442753, 0.12803006, -0.01885283, -0.04091275, 99.92000580, 117.61683655, 30.94999886, 0.00000000
1, 0.8800, 101, -0.33782801, -0.94700933, 0.16200565, 1.35859489, -8.22589493, 0.33159000, -61.41479111, 17.30488205, -81.35047913, 97.10851288, -15.01720047, 143.88682556, 0.11027674, -0.31258121, -0.67974555, -0.65427673, 0.07828960, -0.01168426, -0.04494297, 99.92000580, 117.61683655, 30.94999886, 0.00000000
1, 0.8850, 102, -0.29422450, -0.95544314, 0.17275065, 0.97477466, -3.06285787, -0.13634789, -61.64863968, 17.01256943, -81.32125092, 97.11744690, -15.01463795, 143.87117004, 0.11035811, -0.31266937, -0.67976058, -0.65420532, 0.03472482, -0.00325934, -0.05538143, 99.92000580, 117.61683655, 30.94999886, 0.00000000
1, 0.8900, 103, -0.24333687, -0.97269320, 0.19410989, 0.75558656, 3.37133861, 0.19506514, -61.64863968, 17.01256943, -81.32125092, 97.11677551, -15.01766014, 143.88836670, 0.11024246, -0.31258237, -0.67979574, -0.65422982, -0.01625067, 0.01396511, -0.07664309, 99.92000580, 117.61683655, 30.94999886, 0.00000000
1, 0.8950, 104, -0.20374721, -0.99664807, 0.22120523, 0.83098197, 6.10800743, 0.85522223, -60.88862991, 16.66179466, -81.49663544, 97.11294556, -15.02561855, 143.91920471, 0.11002582, -0.31243691, -0.67983747, -0.65429240, -0.05601919, 0.03789916, -0.10373070, 99.92000580, 117.61683655, 30.94999886, 0.00000000
1, 0.9000, 105, -0.16183507, -1.01898897, 0.23319906, -0.45181137, 9.42188931, 1.65158319, -60.88862991, 16.66179466, -81.49663544, 97.09842682, -15.03957081, 143.96658325, 0.10970559, -0.31221426, -0.67984760, -0.65444195, -0.09816822, 0.06025193, -0.11585295, 99.92000580, 117.61683655, 30.94999886, 0.00000000
1, 0.9050, 106, -0.10932609, -1.01897883, 0.23812881, -2.27453470, 13.31776619, 2.67900252, -60.88862991, 16.66179466, -81.49663544, 97.06974792, -15.06101131, 144.03332520, 0.10926523, -0.31190199, -0.67981011, -0.65470344, -0.15102062, 0.06026988, -0.12108368, 99.92000580, 117.61683655, 30.94999886, 0.00000000
1, 0.9350, 107, 0.02114204, -0.93218851, 0.12977038, -5.30681372, 3.95469832, 10.06570148, -61.61940765, 16.74948883, -81.37971497, 96.84069824, -15.26822853, 144.40115356, 0.10645694, -0.31058159, -0.67896348, -0.65666938, -0.28458145, -0.02590785, -0.01621157, 99.92000580, 117.61683655, 30.94999886, 0.00000000
1, 0.9400, 108, 0.00030077, -0.93489814, 0.12225293, -6.03819847, 0.11103033, 11.77105713, -61.61940765, 16.74948883, -81.37971497, 96.81238556, -15.32682133, 144.39454651, 0.10619682, -0.31089908, -0.67863202, -0.65690386, -0.26468641, -0.02298127, -0.00925834, 99.92000580, 117.61683655, 30.94999886, 0.00000000
1, 0.9450, 109, -0.02272696, -0.95178986, 0.12442421, -6.10399008, -8.83998203, 13.17094421, -62.29172516, 17.42180634, -81.81818390, 96.79621887, -15.38713551, 144.34103394, 0.10616188, -0.31151456, -0.67823797, -0.65702486, -0.24267004, -0.00585813, -0.01187391, 99.92000580, 117.61683655, 30.94999886, 0.00000000
1, 0.9500, 110, -0.03849787, -0.96209776, 0.13629983, -6.92877483, -13.92353821, 14.25204945, -62.29172516, 17.42180634, -81.81818390, 96.78310394, -15.44987965, 144.26069641, 0.10625711, -0.31230384, -0.67778134, -0.65710592, -0.22797404, 0.00468934, -0.02406615, 99.92000580, 117.61683655, 30.94999886, 0.00000000
1, 0.9550, 111, -0.06425231, -0.96454060, 0.13062625, -8.19246006, -18.06438255, 15.08079338, -62.29172516, 17.42180634, -81.81818390, 96.76960754, -15.51436520, 144.15849304, 0.10646780, -0.31323054, -0.67725736, -0.65717107, -0.20328346, 0.00741098, -0.01871966, 99.92000580, 117.61683655, 30.94999886, 0.00000000
1, 0.9600, 112, -0.08985627, -0.96294379, 0.12879843, -8.46834278, -21.56646919, 15.77198029, -62.29172516, 18.00643158, -81.87664032, 96.75981140, -15.58027172, 144.03781128, 0.10676559, -0.31427655, -0.67669868, -0.65719879, -0.17877698, 0.00609938, -0.01717247, 99.92000580, 117.61683655, 30.94999886, 0.00000000
1, 0.9650, 113, -0.12168242, -0.96530581, 0.13444525, -8.36873341, -23.71252823, 16.70102119, -62.29172516, 18.00643158, -81.87664032, 96.75379944, -15.64955997, 143.90545654, 0.10709841, -0.31541157, -0.67611915, -0.65719736, -0.14811435, 0.00875756, -0.02305240, 99.92000580, 117.61683655, 30.94999886, 0.00000000
1, 0.9700, 114, -0.14762190, -0.96176279, 0.14225496, -8.82036495, -24.39969635, 17.60174751, -61.85326004, 15.28792763, -81.61356354, 96.74681854, -15.72293186, 143.76898193, 0.10743157, -0.31659013, -0.67550993, -0.65720284, -0.12340813, 0.00552668, -0.03107263, 99.92000580, 117.61683655, 30.94999886, 0.00000000
1, 0.9750, 115, -0.17723554, -0.96160269, 0.14764071, -9.03729057, -23.90114975, 18.52774811, -61.85326004, 15.28792763, -81.61356354, 96.74149323, -15.79410744, 143.63363647, 0.10776796, -0.31775123, -0.67491698, -0.65719664, -0.09504282, 0.00569077, -0.03667850, 99.92000580, 117.61683655, 30.94999886, 0.00000000
1, 0.9800, 116, -0.20118646, -0.96115494, 0.15611152, -9.37085247, -22.63192177, 19.22823906, -61.99941635, 15.28792763, -81.67202759, 96.72990417, -15.87664032, 143.50521851, 0.10800957, -0.31892326, -0.67427522, -0.65724802, -0.07242359, 0.00557974, -0.04540511, 99.92000580, 117.61683655, 30.94999886, 0.00000000
1, 1.0050, 117, -0.14527452, -0.97127652, 0.22315499, -13.70605850, -7.40001869, 23.08159637, -62.11634064, 18.53259277, -81.55509949, 96.56436920, -16.37232590, 143.07632446, 0.10777278, -0.32384482, -0.67079514, -0.65844017, -0.13669476, 0.01763944, -0.11517835, 99.92000580, 117.61683655, 30.94999886, 0.00000000
1, 1.0100, 118, -0.11200231, -0.97316456, 0.23758698, -14.63225269, -7.08101654, 23.97729492, -62.11634064, 18.53259277, -81.55509949, 96.50584412, -16.48766136, 143.02561951, 0.10749444, -0.32468146, -0.67000341, -0.65887970, -0.17191276, 0.01995254, -0.13055122, 99.92000580, 117.61683655, 30.94999886, 0.00000000
1, 1.0150, 119, -0.07913408, -0.97876406, 0.24708708, -15.48354912, -6.98024273, 25.28746796, -62.11634064, 18.53259277, -81.55509949, 96.44323730, -16.60962296, 142.97476196, 0.10718721, -0.32554907, -0.66916800, -0.65935040, -0.20681527, 0.02601271, -0.14106838, 99.92000580, 117.61683655, 30.94999886, 0.00000000
1, 1.0200, 120, -0.04405000, -0.98311937, 0.25393167, -16.54036522, -7.41601181, 27.11324692, -62.73019409, 18.29874229, -81.90587616, 96.37638855, -16.74048424, 142.92068481, 0.10685480, -0.32647687, -0.66827309, -0.65985310, -0.24406679, 0.03087259, -0.14899729, 99.92000580, 117.61683655, 30.94999886, 0.00000000
1, 1.0250, 121, -0.02333876, -0.98566222, 0.24767767, -17.75636101, -9.35515022, 29.11553192, -62.73019409, 18.29874229, -81.90587616, 96.31708527, -16.86075211, 142.85249329, 0.10665081, -0.32743913, -0.66740823, -0.66028440, -0.26689914, 0.03394715, -0.14383063, 99.92000580, 117.61683655, 30.94999886, 0.00000000
1, 1.0300, 122, -0.01647149, -0.98472524, 0.23977661, -18.58148193, -11.31977367, 30.86687279, -62.52557755, 18.97106171, -81.73048401, 96.24678802, -17.00831604, 142.77626038, 0.10635206, -0.32857805, -0.66637999, -0.66080523, -0.27601409, 0.03358892, -0.13706556, 99.92000580, 117.61683655, 30.94999886, 0.00000000
1, 1.0350, 123, -0.02069054, -0.98331118, 0.22748703, -19.65512276, -13.32142353, 32.62048721, -62.52557755, 18.97106171, -81.73048401, 96.17462158, -17.16362381, 142.68876648, 0.10607576, -0.32981968, -0.66528428, -0.66133481, -0.27432594, 0.03284615, -0.12605688, 99.92000580, 117.61683655, 30.94999886, 0.00000000
1, 1.0400, 124, -0.04026801, -0.97620821, 0.21943077, -21.23575592, -14.65696526, 34.01086426, -62.52557755, 18.97106171, -81.73048401, 96.09706879, -17.32526970, 142.59368896, 0.10582022, -0.33113202, -0.66411477, -0.66189516, -0.25739810, 0.02644228, -0.11938774, 99.92000580, 117.61683655, 30.94999886, 0.00000000
1, 1.0450, 125, -0.06331167, -0.96004200, 0.19978066, -22.10387802, -16.15354347, 35.10791016, -62.96404648, 18.85413551, -81.26278687, 96.01791382, -17.49173546, 142.49035645, 0.10558826, -0.33251429, -0.66289502, -0.66246176, -0.23705848, 0.01102483, -0.10117084, 99.92000580, 117.61683655, 30.94999886, 0.00000000
1, 1.0500, 126, -0.09262250, -0.94696009, 0.18173027, -22.27382851, -16.56387901, 36.18691254, -62.96404648, 18.85413551, -81.26278687, 95.93897247, -17.66350365, 142.38444519, 0.10533896, -0.33393762, -0.66165018, -0.66302979, -0.21054497, -0.00127147, -0.08457156, 99.92000580, 117.61683655, 30.94999886, 0.00000000
1, 1.0800, 127, -0.10369616, -0.92672133, 0.14019194, -26.56805801, -15.66514206, 43.69405746, -63.28558731, 17.04179955, -82.37357330, 95.40692139, -18.85347939, 141.73025513, 0.10316093, -0.34331831, -0.65323722, -0.66691202, -0.21893111, -0.01590484, -0.05236086, 99.92000580, 117.61683655, 30.94999886, 0.00000000
1, 1.0850, 128, -0.10513630, -0.92234361, 0.13214339, -26.11012650, -14.99654198, 45.03615570, -63.28558731, 17.04179955, -82.37357330, 95.30970764, -19.07114792, 141.62942505, 0.10266228, -0.34492072, -0.65173578, -0.66763067, -0.22103140, -0.01920656, -0.04602960, 99.92000580, 117.61683655, 30.94999886, 0.00000000
1, 1.0900, 129, -0.12994285, -0.93230343, 0.12607484, -25.85090828, -15.42226219, 46.91551971, -63.28558731, 17.04179955, -82.37357330, 95.21513367, -19.29815102, 141.52571106, 0.10211633, -0.34658822, -0.65020812, -0.66834003, -0.19991381, -0.00810222, -0.04172286, 99.92000580, 117.61683655, 30.94999886, 0.00000000
1, 1.0950, 130, -0.17008562, -0.94775915, 0.13410187, -26.04353905, -16.72232056, 48.77980423, -63.28558731, 19.58491707, -82.78281403, 95.12248230, -19.53401184, 141.41450500, 0.10155495, -0.34834334, -0.64863688, -0.66903943, -0.16363868, 0.00854775, -0.05152220, 99.92000580, 117.61683655, 30.94999886, 0.00000000
1, 1.1000, 131, -0.20203754, -0.96047103, 0.15758578, -26.85100174, -17.22215462, 50.46067429, -63.28558731, 19.58491707, -82.78281403, 95.02732849, -19.77820778, 141.30014038, 0.10097010, -0.35015479, -0.64701015, -0.66975707, -0.13572794, 0.02249621, -0.07677168, 99.92000580, 117.61683655, 30.94999886, 0.00000000
1, 1.1050, 132, -0.19910820, -0.96335423, 0.17464945, -28.96436882, -15.70363617, 51.75059509, -63.46097565, 18.38643646, -82.51972961, 94.91947174, -20.02970695, 141.19346619, 0.10033611, -0.35194683, -0.64530420, -0.67055851, -0.14279492, 0.02667487, -0.09565978, 99.92000580, 117.61683655, 30.94999886, 0.00000000
1, 1.1100, 133, -0.18556035, -0.94671309, 0.17116806, -30.34851265, -12.77943897, 52.78432846, -63.46097565, 18.38643646, -82.51972961, 94.79981995, -20.28776932, 141.10223389, 0.09961005, -0.35367349, -0.64355010, -0.67144340, -0.16053310, 0.01140763, -0.09414844, 99.92000580, 117.61683655, 30.94999886, 0.00000000
1, 1.1150, 134, -0.17982106, -0.90801835, 0.15982689, -30.60427094, -8.91861534, 54.38685226, -63.46097565, 18.38643646, -82.51972961, 94.67221069, -20.55556870, 141.03131104, 0.09873177, -0.35532796, -0.64177597, -0.67239708, -0.17059422, -0.02583329, -0.08494144, 99.92000580, 117.61683655, 30.94999886, 0.00000000
1, 1.1200, 135, -0.21219945, -0.88204503, 0.14513996, -29.47776031, -7.65224934, 55.73467636, -63.89944458, 19.49722290, -82.69511414, 94.54824066, -20.83073997, 140.96704102, 0.09776024, -0.35698524, -0.64001471, -0.67333919, -0.14264306, -0.05027338, -0.07246505, 99.92000580, 117.61683655, 30.94999886, 0.00000000
1, 1.1250, 136, -0.25503650, -0.88483095, 0.13617486, -28.62245560, -7.40704727, 57.44718933, -63.89944458, 19.49722290, -82.69511414, 94.43189240, -21.11096764, 140.90264893, 0.09673718, -0.35867491, -0.63827574, -0.67423910, -0.10434702, -0.04588831, -0.06568246, 99.92000580, 117.61683655, 30.94999886, 0.00000000
1, 1.1450, 137, -0.26002133, -0.93417919, 0.14851750, -34.12403107, 1.77660704, 63.27436829, -64.25022125, 22.01110840, -82.72434998, 93.87418365, -22.33782387, 140.71189880, 0.09191106, -0.36552224, -0.63058788, -0.67845774, -0.11913620, 0.01061194, -0.08748204, 99.92000580, 117.61683655, 30.94999886, 0.00000000
1, 1.1500, 138, -0.21295466, -0.90520239, 0.13988493, -34.47050476, 6.98872566, 63.68342590, -64.25022125, 22.01110840, -82.72434998, 93.69668579, -22.65825081, 140.72741699, 0.09037530, -0.36692706, -0.62858057, -0.67976719, -0.17133389, -0.01641827, -0.08164372, 99.92000580, 117.61683655, 30.94999886, 0.00000000
1, 1.1550, 139, -0.17611787, -0.89113009, 0.13475721, -33.69641495, 10.80746555, 64.50068665, -65.24407959, 22.65419388, -83.54282379, 93.51462555, -22.98388481, 140.76448059, 0.08869733, -0.36824015, -0.62659186, -0.68111289, -0.21337998, -0.02848341, -0.07945019, 99.92000580, 117.61683655, 30.94999886, 0.00000000
1, 1.1600, 140, -0.14308158, -0.91291404, 0.12534794, -33.49412155, 12.03078842, 65.85925293, -65.24407959, 22.65419388, -83.54282379, 93.33048248, -23.31651306, 140.80899048, 0.08694137, -0.36955059, -0.62458587, -0.68247068, -0.25169626, -0.00460817, -0.07307903, 99.92000580, 117.61683655, 30.94999886, 0.00000000
1, 1.1650, 141, -0.14023893, -0.93061423, 0.12462357, -34.07229614, 10.17864704, 67.36476898, -65.24407959, 22.65419388, -83.54282379, 93.14692688, -23.65605164, 140.84423828, 0.08519904, -0.37095124, -0.62252456, -0.68381250, -0.25994897, 0.01526250, -0.07545014, 99.92000580, 117.61683655, 30.94999886, 0.00000000
1, 1.1700, 142, -0.15418196, -0.92264771, 0.11601911, -35.35627747, 7.86765480, 68.86831665, -65.36100769, 23.38497543, -84.24436951, 92.96151733, -24.00240135, 140.86772156, 0.08349418, -0.37245283, -0.62038499, -0.68514979, -0.25149927, 0.00957300, -0.06994168, 99.92000580, 117.61683655, 30.94999886, 0.00000000
1, 1.1750, 143, -0.19822858, -0.87074840, 0.07533798, -35.35260010, 7.83846188, 70.09440613, -65.36100769, 23.38497543, -84.24436951, 92.77661896, -24.34819412, 140.89161682, 0.08179289, -0.37395316, -0.61824393, -0.68647176, -0.21288759, -0.03993833, -0.03236911, 99.92000580, 117.61683655, 30.94999886, 0.00000000
1, 1.1800, 144, -0.26800060, -0.82150578, 0.02290430, -33.80140686, 6.35507727, 71.51149750, -65.53639221, 23.73575020, -84.74130249, 92.60138702, -24.70723534, 140.90870667, 0.08002220, -0.37556803, -0.61608815, -0.68773586, -0.14861104, -0.08667587, 0.01702199, 99.92000580, 117.61683655, 30.94999886, 0.00000000
1, 1.1850, 145, -0.34677094, -0.80090690, 0.00899287, -31.99286270, 1.31308424, 73.26110840, -65.53639221, 23.73575020, -84.74130249, 92.44653320, -25.07388878, 140.89880371, 0.07830361, -0.37738311, -0.61393315, -0.68886620, -0.07558473, -0.10469833, 0.02811806, 99.92000580, 117.61683655, 30.94999886, 0.00000000
1, 1.1900, 146, -0.44413701, -0.79389095, 0.01528451, -30.98959923, -4.81276560, 74.88999176, -65.53639221, 23.73575020, -84.74130249, 92.31091309, -25.44747734, 140.85571289, 0.07668231, -0.37942487, -0.61175287, -0.68986601, 0.01588998, -0.10905942, 0.01926741, 99.92000580, 117.61683655, 30.94999886, 0.00000000
1, 1.2250, 147, -0.23568568, -0.91652572, 0.14313744, -35.27499771, 14.27202511, 74.94375610, -66.09178162, 25.28500366, -85.67670441, 91.12049866, -28.07318306, 140.97120667, 0.06367653, -0.39144456, -0.59615284, -0.69808197, -0.23388648, 0.03339008, -0.12719196, 99.92000580, 117.61683655, 30.94999886, 0.00000000
1, 1.2300, 148, -0.18562399, -0.90953171, 0.13989130, -35.88768387, 12.31680584, 76.37714386, -67.23180389, 24.26191139, -86.08593750, 90.91219330, -28.45646667, 141.03411865, 0.06163362, -0.39295217, -0.59379011, -0.69943064, -0.28973836, 0.02944763, -0.12703848, 99.92000580, 117.61683655, 30.94999886, 0.00000000
1, 1.2350, 149, -0.16622886, -0.90280163, 0.12677871, -35.69652176, 8.78130531, 78.63894653, -67.23180389, 24.26191139, -86.08593750, 90.71341705, -28.85062027, 141.07852173, 0.05960877, -0.39462137, -0.59137690, -0.70070976, -0.31509712, 0.02595530, -0.11700536, 99.92000580, 117.61683655, 30.94999886, 0.00000000
1, 1.2400, 150, -0.16965304, -0.90440917, 0.11904339, -35.89654541, 5.36821365, 81.46945953, -67.23180389, 24.26191139, -86.08593750, 90.52210999, -29.25865555, 141.10494995, 0.05758763, -0.39646173, -0.58889121, -0.70193231, -0.31783098, 0.03095877, -0.11226178, 99.92000580, 117.61683655, 30.94999886, 0.00000000
1, 1.2450, 151, -0.19562736, -0.89535916, 0.12289228, -36.58600616, 4.14979839, 84.11316681, -67.37796021, 27.47734642, -86.61209869, 90.32988739, -29.67979050, 141.12597656, 0.05552749, -0.39839926, -0.58632666, -0.70314705, -0.29822439, 0.02545574, -0.11910453, 99.92000580, 117.61683655, 30.94999886, 0.00000000
1, 1.2500, 152, -0.23540039, -0.86638522, 0.12869988, -37.03375626, 3.36882114, 86.02812958, -67.37796021, 27.47734642, -86.61209869, 90.13672638, -30.11042404, 141.14419556, 0.05343521, -0.40040213, -0.58370376, -0.70435274, -0.26495627, 0.00017339, -0.12791002, 99.92000580, 117.61683655, 30.94999886, 0.00000000
1, 1.2550, 153, -0.29373872, -0.81519330, 0.11538764, -36.72399902, 1.62818968, 87.56003571, -67.93334961, 26.13270950, -87.02133942, 89.94919586, -30.54867363, 141.15408325, 0.05133372, -0.40249145, -0.58104962, -0.70551181, -0.21316615, -0.04716752, -0.11752189, 99.92000580, 117.61683655, 30.94999886, 0.00000000
1, 1.2600, 154, -0.37231776, -0.76954997, 0.08672423, -35.57213211, -2.06029272, 89.28016663, -67.93334961, 26.13270950, -87.02133942, 89.77750397, -30.99554634, 141.14421082, 0.04925134, -0.40473324, -0.57838255, -0.70656842, -0.14119273, -0.08880137, -0.09161694, 99.92000580, 117.61683655, 30.94999886, 0.00000000
1, 1.2650, 155, -0.47431958, -0.74891353, 0.04658705, -35.40335083, -6.80274105, 91.02275085, -67.93334961, 26.13270950, -87.02133942, 89.62033844, -31.45132065, 141.10812378, 0.04723068, -0.40715867, -0.57566935, -0.70752805, -0.04586795, -0.10527164, -0.05407908, 99.92000580, 117.61683655, 30.94999886, 0.00000000
1, 1.2700, 156, -0.61161941, -0.76670945, 0.01169760, -35.51858521, -8.75018787, 92.30979156, -68.54721069, 27.94504547, -87.40134430, 89.46815491, -31.91370773, 141.06192017, 0.04522024, -0.40966883, -0.57291502, -0.70844549, 0.08466331, -0.08319031, -0.02179645, 99.92000580, 117.61683655, 30.94999886, 0.00000000
1, 1.3350, 157, -0.56427389, -0.93289149, 0.03467523, -50.01609802, 10.69807720, 105.57666779, -70.18415833, 34.02513885, -89.33060455, 85.88179016, -38.07104111, 142.27140808, 0.01349571, -0.43415910, -0.53220093, -0.72669524, -0.05064740, 0.14613488, -0.09313603, 99.92000580, 117.61683655, 30.94999886, 0.00000000
1, 1.3400, 158, -0.57526988, -0.94054270, 0.02720968, -51.38442993, 12.45773697, 107.24843597, -71.03186035, 35.51593018, -89.91522980, 85.54465485, -38.60158157, 142.40284729, 0.01076661, -0.43621546, -0.52854657, -0.72817498, -0.04688665, 0.15982541, -0.08982775, 99.92000580, 117.61683655, 30.94999886, 0.00000000
1, 1.3450, 159, -0.58366281, -0.92653644, -0.01676925, -53.07839584, 17.56401253, 108.68864441, -71.03186035, 35.51593018, -89.91522980, 85.17385101, -39.13656235, 142.57293701, 0.00790597, -0.43812960, -0.52479881, -0.72977132, -0.04565569, 0.15209635, -0.05029092, 99.92000580, 117.61683655, 30.94999886, 0.00000000
1, 1.3500, 160, -0.57801151, -0.90000987, -0.03995360, -53.58919525, 24.74479103, 109.74259949, -71.03186035, 35.51593018, -89.91522980, 84.76570129, -39.67267609, 142.79591370, 0.00485718, -0.43982607, -0.52100223, -0.73149586, -0.05849130, 0.13197109, -0.03191566, 99.92000580, 117.61683655, 30.94999886, 0.00000000
1, 1.3550, 161, -0.55495596, -0.88825536, -0.00644721, -53.63346481, 28.59105301, 110.57094574, -71.11955261, 36.80210495, -90.73370361, 84.33499908, -40.20979691, 143.05122375, 0.00169517, -0.44140542, -0.51717377, -0.73327339, -0.08882649, 0.12666523, -0.07047709, 99.92000580, 117.61683655, 30.94999886, 0.00000000
1, 1.3600, 162, -0.54988962, -0.90813696, 0.01561847, -54.13186264, 28.84257126, 111.52968597, -71.11955261, 36.80210495, -90.73370361, 83.89366150, -40.75005341, 143.31626892, -0.00149375, -0.44298458, -0.51329511, -0.73504466, -0.10112387, 0.15316273, -0.09775801, 99.92000580, 117.61683655, 30.94999886, 0.00000000
1, 1.3650, 163, -0.55470043, -0.90206110, 0.00627825, -55.34685516, 29.50796700, 112.40227509, -71.52879333, 37.91289139, -90.64601135, 83.43595886, -41.29268646, 143.59410095, -0.00470215, -0.44454828, -0.50934464, -0.73683298, -0.10344149, 0.15390569, -0.09369206, 99.92000580, 117.61683655, 30.94999886, 0.00000000
1, 1.3700, 164, -0.56349283, -0.87009823, -0.03400274, -56.31833649, 30.75397301, 113.84642029, -71.52879333, 37.91289139, -90.64601135, 82.95973206, -41.84004211, 143.88960266, -0.00796580, -0.44608998, -0.50531852, -0.73864311, -0.10169239, 0.12898931, -0.05877816, 99.92000580, 117.61683655, 30.94999886, 0.00000000
1, 1.4550, 165, -0.55594957, -1.75045657, 0.05016736, -76.28777313, 45.73958969, 109.23503876, -73.04881287, 48.58228683, -94.50453186, 72.59859467, -50.72888947, 151.20491028, -0.06455719, -0.46741042, -0.43229046, -0.76843023, -0.21708429, 1.14419580, -0.24194393, 99.92000580, 117.61683655, 30.94999886, 0.00000000
1, 1.4600, 166, -0.59894305, -1.67362595, -0.02489186, -76.98654175, 41.85664368, 109.67716217, -73.04881287, 48.58228683, -94.50453186, 71.76112366, -51.18723679, 151.78932190, -0.06746595, -0.46827927, -0.42735255, -0.77041078, -0.17893977, 1.07618380, -0.17382255, 99.92000580, 117.61683655, 30.94999886, 0.00000000
1, 1.4650, 167, -0.72886419, -1.62408233, -0.10056926, -75.36022186, 36.97398758, 110.52154541, -73.45805359, 49.66384125, -95.05992126, 70.94328308, -51.65203094, 152.35527039, -0.07034293, -0.46930584, -0.42245063, -0.77223021, -0.05388972, 1.03559327, -0.10489976, 99.92000580, 117.61683655, 30.94999886, 0.00000000
1, 1.4700, 168, -0.85520512, -1.60413098, -0.12836902, -73.36913300, 36.83769608, 109.65169525, -73.45805359, 49.66384125, -95.05992126, 70.12227631, -52.10783768, 152.93426514, -0.07322587, -0.47029802, -0.41761863, -0.77398491, 0.06755826, 1.02454853, -0.08365025, 99.92000580, 117.61683655, 30.94999886, 0.00000000
1, 1.4750, 169, -0.91757584, -1.57817614, -0.10851432, -71.61920929, 41.54764938, 107.04267120, -73.45805359, 49.66384125, -95.05992126, 69.27469635, -52.53520203, 153.55590820, -0.07612118, -0.47105277, -0.41289073, -0.77578098, 0.12521741, 1.00729513, -0.10999073, 99.92000580, 117.61683655, 30.94999886, 0.00000000
1, 1.4800, 170, -0.92847562, -1.51763427, -0.11086351, -70.77384949, 47.31729889, 103.48895264, -73.10727692, 51.33002090, -94.82607269, 68.38526154, -52.93242645, 154.23043823, -0.07903221, -0.47153774, -0.40820986, -0.77767020, 0.13184124, 0.95532113, -0.11425523, 99.92000580, 117.61683655, 30.94999886, 0.00000000
1, 1.4850, 171, -0.91541570, -1.41739857, -0.15466353, -69.68752289, 53.68758774, 99.66606140, -73.10727692, 51.33002090, -94.82607269, 67.45576477, -53.29337692, 154.95843506, -0.08194587, -0.47171864, -0.40360862, -0.77965796, 0.11500195, 0.86354017, -0.07728910, 99.92000580, 117.61683655, 30.94999886, 0.00000000
1, 1.4900, 172, -0.89251059, -1.28838468, -0.20521566, -67.45524597, 62.33424377, 95.74264526, -72.81496429, 52.79158020, -95.58608246, 66.47887421, -53.61197281, 155.75604248, -0.08492050, -0.47151244, -0.39911973, -0.78177243, 0.08879372, 0.74275482, -0.03394799, 99.92000580, 117.61683655, 30.94999886, 0.00000000
1, 1.4950, 173, -0.87552637, -1.08223915, -0.24109970, -63.68059158, 69.75640106, 91.13945007, -72.81496429, 52.79158020, -95.58608246, 65.47306824, -53.88608932, 156.60980225, -0.08794117, -0.47094324, -0.39481363, -0.78396505, 0.06894949, 0.54451036, -0.00553262, 99.92000580, 117.61683655, 30.94999886, 0.00000000
1, 1.5000, 174, -0.87143761, -0.93293643, -0.25255346, -59.80527115, 71.62447357, 85.77165985, -72.81496429, 52.79158020, -95.58608246, 64.47766876, -54.12303162, 157.47178650, -0.09088624, -0.47018790, -0.39073050, -0.78612512, 0.06233290, 0.40273631, -0.00171547, 99.92000580, 117.61683655, 30.94999886, 0.00000000
1, 1.5400, 175, -0.95366317, 0.21658701, -0.56872547, -35.11709213, 15.62683582, 47.38796997, -72.55188751, 56.47471619, -96.19994354, 58.36483383, -55.16083908, 162.79345703, -0.10744815, -0.46432891, -0.36685047, -0.79892069, 0.13472688, -0.70310986, 0.26768398, 99.92000580, 117.61683655, 30.94999886, 0.00000000
1, 1.5450, 176, -0.94351429, 0.36220226, -0.64472395, -32.99916840, 7.71369886, 45.48989487, -72.55188751, 56.47471619, -96.19994354, 57.97956467, -55.33385468, 163.06224060, -0.10849449, -0.46493950, -0.36474347, -0.79938889, 0.12307796, -0.84442055, 0.34180856, 99.92000580, 117.61683655, 30.94999886, 0.00000000
1, 1.5500, 177, -1.03152549, 0.42679444, -0.54662889, -25.20468330, -10.61770439, 44.32279205, -72.55188751, 56.47471619, -96.19994354, 57.74745941, -55.54990768, 163.19177246, -0.10936636, -0.46613148, -0.36301652, -0.79936188, 0.20883489, -0.90524608, 0.24281976, 99.92000580, 117.61683655, 30.94999886, 0.00000000
1, 1.5550, 178, -1.17959154, 0.41095284, -0.48333907, -20.68000603, -29.49765205, 41.60690308, -72.75650024, 58.55013275, -96.08301544, 57.66356277, -55.80479813, 163.16876221, -0.10993604, -0.46791542, -0.36158994, -0.79888803, 0.35428959, -0.88590550, 0.18014595, 99.92000580, 117.61683655, 30.94999886, 0.00000000
1, 1.5600, 179, -1.28038979, 0.35542840, -0.44674733, -19.45295143, -49.71205139, 36.69288254, -72.75650024, 58.55013275, -96.08301544, 57.73168182, -56.09309769, 162.96974182, -0.11004062, -0.47031823, -0.36040002, -0.79799992, 0.45224786, -0.82715344, 0.14560392, 99.92000580, 117.61683655, 30.94999886, 0.00000000
1, 1.5650, 180, -1.25679755, 0.25785542, -0.41376749, -17.64779472, -50.44662476, 30.16774368, -71.90879822, 59.86553574, -95.84916687, 57.84188080, -56.35556412, 162.73147583, -0.10994191, -0.47263199, -0.35940728, -0.79709363, 0.42594314, -0.72683835, 0.11544273, 99.92000580, 117.61683655, 30.94999886, 0.00000000
1, 1.5700, 181, -1.16329563, 0.15090556, -0.38205436, -15.76103115, -46.98324203, 19.99103737, -71.90879822, 59.86553574, -95.84916687, 57.98281479, -56.56546021, 162.46815491, -0.10958070, -0.47465432, -0.35867050, -0.79627311, 0.33019125, -0.61786038, 0.08661849, 99.92000580, 117.61683655, 30.94999886, 0.00000000
1, 1.5750, 182, -1.00488579, 0.06465413, -0.33854285, -13.43420696, -39.49862289, 6.39936113, -71.90879822, 59.86553574, -95.84916687, 58.09457779, -56.73569107, 162.23622131, -0.10915482, -0.47635043, -0.35797110, -0.79563326, 0.17002296, -0.53022695, 0.04575806, 99.92000580, 117.61683655, 30.94999886, 0.00000000
1, 1.5800, 183, -0.79848510, 0.01043525, -0.26217753, -11.15710258, -31.39815903, -9.66570854, -72.69804382, 59.63168716, -95.61531830, 58.28087616, -56.77774811, 161.94664001, -0.10809885, -0.47734401, -0.35793152, -0.79519963, -0.03737288, -0.47587422, -0.02827307, 99.92000580, 117.61683655, 30.94999886, 0.00000000
1, 1.5850, 184, -0.56986415, 0.01215864, -0.17475455, -9.16649437, -23.25290489, -26.25184822, -72.69804382, 59.63168716, -95.61531830, 58.49077606, -56.72729492, 161.64048767, -0.10663390, -0.47778627, -0.35826629, -0.79498112, -0.26594752, -0.47910672, -0.11367376, 99.92000580, 117.61683655, 30.94999886, 0.00000000
1, 1.6600, 185, -0.46032915, -0.17791308, -0.19868292, 69.43661499, -19.23460197, -166.45404053, -73.77959442, 54.89622879, -93.07219696, 69.44928741, -50.16156006, 152.01947021, -0.05433714, -0.46279293, -0.41639075, -0.78069776, -0.30913329, -0.41845012, -0.02884565, 99.92000580, 117.61683655, 30.94999886, 0.00000000
1, 1.6650, 186, -0.49289292, -0.17045796, -0.18233018, 70.70198822, -13.78543949, -173.94659424, -73.86728668, 52.87927628, -94.03682709, 70.23328400, -49.36864090, 151.45281982, -0.04956847, -0.45992687, -0.42231947, -0.77952325, -0.26786649, -0.43878245, -0.04054289, 99.92000580, 117.61683655, 30.94999886, 0.00000000
1, 1.6700, 187, -0.51215875, -0.17043519, -0.18414931, 72.93280029, -8.24354267, -179.13575745, -73.86728668, 52.87927628, -94.03682709, 70.98390961, -48.53719711, 150.93821716, -0.04476596, -0.45674032, -0.42838696, -0.77837580, -0.23921484, -0.45193234, -0.03424033, 99.92000580, 117.61683655, 30.94999886, 0.00000000
1, 1.6750, 188, -0.53649789, -0.18326496, -0.18948655, 76.75920868, 0.56099004, -184.72317505, -73.86728668, 52.87927628, -93.62759399, 71.68955994, -47.66521454, 150.50024414, -0.04003732, -0.45312351, -0.43461457, -0.77729428, -0.20482062, -0.45245638, -0.02474455, 99.92000580, 117.61683655, 30.94999886, 0.00000000
1, 1.6800, 189, -0.53664404, -0.20722726, -0.19633894, 79.39753723, 8.02262115, -188.46971130, -73.77959442, 51.94387436, -93.62759399, 72.35914612, -46.75598145, 150.12565613, -0.03534363, -0.44912803, -0.44099116, -0.77624851, -0.19404143, -0.44195610, -0.01393246, 99.92000580, 117.61683655, 30.94999886, 0.00000000
1, 1.6850, 190, -0.52606803, -0.23374048, -0.20358092, 81.78068542, 13.23393631, -191.42536926, -73.77959442, 51.94387436, -93.62759399, 72.99962616, -45.82196808, 149.80204773, -0.03069308, -0.44485897, -0.44746256, -0.77520055, -0.19344953, -0.42897791, -0.00283439, 99.92000580, 117.61683655, 30.94999886, 0.00000000
1, 1.6900, 191, -0.52513409, -0.24995455, -0.21605431, 84.72909546, 15.96189117, -193.74638367, -74.27652740, 49.54691696, -94.18298340, 73.62696075, -44.87046814, 149.51235962, -0.02607119, -0.44041091, -0.45403728, -0.77408576, -0.18277912, -0.42627579, 0.01355252, 99.92000580, 117.61683655, 30.94999886, 0.00000000
1, 1.6950, 192, -0.53333586, -0.27303836, -0.22747944, 88.41232300, 16.87194443, -195.52418518, -74.27652740, 49.54691696, -94.18298340, 74.25382996, -43.90692139, 149.24470520, -0.02147532, -0.43585417, -0.46073017, -0.77285051, -0.16261402, -0.41665852, 0.02910109, 99.92000580, 117.61683655, 30.94999886, 0.00000000
1, 1.7000, 193, -0.53448224, -0.30557391, -0.22726952, 92.53644562, 16.79196358, -196.52500916, -74.10114288, 48.43613052, -94.47529602, 74.88671875, -42.93657684, 148.99354553, -0.01692010, -0.43123716, -0.46754009, -0.77146268, -0.14923483, -0.39750999, 0.03337197, 99.92000580, 117.61683655, 30.94999886, 0.00000000
1, 1.7050, 194, -0.52647430, -0.35043684, -0.21621732, 96.35433197, 15.71780586, -196.84457397, -74.10114288, 48.43613052, -94.47529602, 75.52816010, -41.96406555, 148.75335693, -0.01240219, -0.42660758, -0.47444281, -0.76990676, -0.14479849, -0.36589733, 0.02722061, 99.92000580, 117.61683655, 30.94999886, 0.00000000
1, 1.7400, 195, -0.49338421, -0.54509449, -0.23500325, 120.42050934, 0.30358639, -191.76977539, -73.42881775, 42.35603714, -94.29991150, 80.24703217, -35.23680115, 147.32293701, 0.01783913, -0.39488143, -0.52429712, -0.75423014, -0.08634245, -0.25669321, 0.09238268, 99.92000580, 117.61683655, 30.94999886, 0.00000000
1, 1.7450, 196, -0.46497521, -0.53569233, -0.22695298, 125.81578064, -4.19346380, -189.66723633, -73.42881775, 42.35603714, -94.29991150, 80.99663544, -34.30331421, 147.10743713, 0.02203369, -0.39076203, -0.53166562, -0.75110000, -0.10138272, -0.27711785, 0.09332997, 99.92000580, 117.61683655, 30.94999886, 0.00000000
1, 1.7500, 197, -0.46533161, -0.53986943, -0.20322202, 131.62812805, -4.86409950, -187.19839478, -73.48728180, 40.83601379, -94.12452698, 81.76383972, -33.38022232, 146.90744019, 0.02606168, -0.38668847, -0.53912967, -0.74775136, -0.08770397, -0.28361461, 0.07911731, 99.92000580, 117.61683655, 30.94999886, 0.00000000
1, 1.7550, 198, -0.49395019, -0.56332648, -0.14199553, 136.77488708, -0.61622530, -185.26986694, -73.48728180, 40.83601379, -94.12452698, 82.53050995, -32.46155167, 146.75094604, 0.02983759, -0.38248804, -0.54668051, -0.74428022, -0.04580975, -0.27051291, 0.02766890, 99.92000580, 117.61683655, 30.94999886, 0.00000000
1, 1.7600, 199, -0.56001681, -0.58450699, -0.04883021, 137.80673218, 8.07632065, -185.70672607, -73.48728180, 40.83601379, -94.12452698, 83.26506042, -31.53362846, 146.66079712, 0.03340032, -0.37795699, -0.55422831, -0.74085349, 0.03367769, -0.25941718, -0.05588383, 99.92000580, 117.61683655, 30.94999886, 0.00000000
1, 1.7650, 200, -0.62543464, -0.59734035, 0.00695711, 135.40937805, 17.45738602, -188.50216675, -72.05495453, 38.81905746, -94.12452698, 83.95178986, -30.58565903, 146.63757324, 0.03686331, -0.37301266, -0.56170142, -0.73755968, 0.11301386, -0.25635511, -0.10248545, 99.92000580, 117.61683655, 30.94999886, 0.00000000
1, 1.7700, 201, -0.68873799, -0.59789693, 0.01456587, 133.63867188, 21.94631195, -191.87785339, -72.05495453, 38.81905746, -94.12452698, 84.61073303, -29.61845589, 146.65129089, 0.04035051, -0.36779943, -0.56912088, -0.73430026, 0.19079900, -0.26528007, -0.10117139, 99.92000580, 117.61683655, 30.94999886, 0.00000000
1, 1.7750, 202, -0.79952747, -0.62988865, 0.00469978, 133.68464661, 23.34308052, -194.92971802, -72.25957489, 36.86056519, -93.62759399, 85.26179504, -28.64158440, 146.68344116, 0.04386076, -0.36246249, -0.57651806, -0.73097485, 0.31645918, -0.24249704, -0.08251865, 99.92000580, 117.61683655, 30.94999886, 0.00000000
1, 1.7800, 203, -0.90001607, -0.67153919, -0.01079795, 134.57176208, 25.91593552, -197.33334351, -72.25957489, 36.86056519, -93.62759399, 85.90471649, -27.64616585, 146.74180603, 0.04739947, -0.35690978, -0.58393860, -0.72758812, 0.43215308, -0.20978394, -0.05810733, 99.92000580, 117.61683655, 30.94999886, 0.00000000
1, 1.7850, 204, -1.00960946, -0.73175669, -0.03641348, 135.77418518, 34.63614655, -200.33056641, -72.25957489, 36.86056519, -93.62759399, 86.52736664, -26.63346863, 146.85971069, 0.05078783, -0.35096616, -0.59139687, -0.72421902, 0.55746031, -0.15828416, -0.02370571, 99.92000580, 117.61683655, 30.94999886, 0.00000000
1, 1.8400, 205, -0.19346999, -0.98623204, -0.12657656, 109.64122009, 29.04021835, -169.35545349, -68.57643890, 27.27272606, -93.86144257, 91.67944336, -15.81091690, 151.08027649, 0.07676242, -0.27021596, -0.66414040, -0.69282639, -0.08220377, 0.02563911, 0.15056263, 99.92000580, 117.61683655, 30.94999886, 0.00000000
1, 1.8450, 206, -0.34298894, -1.05988657, -0.09054764, 105.91875458, 20.03801727, -165.66691589, -68.57643890, 27.27272606, -93.86144257, 92.17206573, -14.98488522, 151.21165466, 0.07995998, -0.26515236, -0.66932791, -0.68942064, 0.08118087, 0.09559955, 0.12247340, 99.92000580, 117.61683655, 30.94999886, 0.00000000
1, 1.8500, 207, -0.48563826, -1.06893384, -0.04159872, 101.23449707, 13.84147644, -163.12605286, -67.84565735, 27.06810760, -93.36450958, 92.64960480, -14.17146206, 151.31723022, 0.08330949, -0.26031429, -0.67427498, -0.68603891, 0.23748595, 0.10125828, 0.08142370, 99.92000580, 117.61683655, 30.94999886, 0.00000000
1, 1.8550, 208, -0.60721034, -1.03090775, 0.01033900, 96.61089325, 8.51579285, -160.56523132, -67.84565735, 27.06810760, -93.36450958, 93.11064911, -13.37046146, 151.40127563, 0.08678501, -0.25567687, -0.67898887, -0.68269461, 0.37255126, 0.06014135, 0.03727836, 99.92000580, 117.61683655, 30.94999886, 0.00000000
1, 1.8600, 209, -0.69800848, -0.99395776, 0.07721897, 92.66662598, 6.03158331, -157.13909912, -67.84565735, 27.06810760, -93.36450958, 93.55483246, -12.58657837, 151.47781372, 0.09026971, -0.25118357, -0.68349355, -0.67940772, 0.47657946, 0.02037840, -0.02198251, 99.92000580, 117.61683655, 30.94999886, 0.00000000
1, 1.8650, 210, -0.72233582, -0.97067273, 0.14761843, 88.67819977, 7.32985973, -153.13154602, -66.38409424, 23.85267448, -93.59836578, 93.97779083, -11.82376289, 151.56547546, 0.09363441, -0.24674036, -0.68779939, -0.67622769, 0.51383066, -0.00542979, -0.08493126, 99.92000580, 117.61683655, 30.94999886, 0.00000000
1, 1.8700, 211, -0.67960739, -0.96184945, 0.17292266, 84.78659821, 12.54778671, -148.40084839, -66.38409424, 23.85267448, -93.59836578, 94.37651825, -11.08707905, 151.68331909, 0.09673896, -0.24225488, -0.69192153, -0.67320043, 0.48374969, -0.01641495, -0.10302441, 99.92000580, 117.61683655, 30.94999886, 0.00000000
1, 1.8750, 212, -0.58253658, -0.97541344, 0.13145179, 82.28462219, 20.65250206, -142.98811340, -66.00408936, 23.96959877, -92.75065613, 94.75680542, -10.38807297, 151.84477234, 0.09941785, -0.23770949, -0.69590056, -0.67032290, 0.39895493, -0.00461095, -0.05459116, 99.92000580, 117.61683655, 30.94999886, 0.00000000
1, 1.8800, 213, -0.45058650, -1.00404429, 0.06782038, 80.99997711, 28.19936752, -137.11341858, -66.00408936, 23.96959877, -92.75065613, 95.12496185, -9.71588802, 152.04635620, 0.10174679, -0.23306467, -0.69978863, -0.66755110, 0.27879599, 0.02257286, 0.01585180, 99.92000580, 117.61683655, 30.94999886, 0.00000000
1, 1.8850, 214, -0.29086018, -1.04608524, -0.02411141, 79.05324554, 31.63412476, -131.39840698, -66.00408936, 23.96959877, -92.75065613, 95.48265839, -9.07499790, 152.26658630, 0.10381893, -0.22847395, -0.70354366, -0.66486669, 0.13046023, 0.06345584, 0.11445622, 99.92000580, 117.61683655, 30.94999886, 0.00000000
1, 1.9100, 215, -0.33535436, -1.10711980, -0.00105709, 56.87221146, 4.82211876, -101.78551483, -65.03945923, 19.35106659, -92.60449982, 97.03907776, -6.30377531, 152.92649841, 0.11475693, -0.21050242, -0.71874279, -0.65263200, 0.22340249, 0.12075634, 0.11902440, 99.92000580, 117.61683655, 30.94999886, 0.00000000
1, 1.9150, 216, -0.38720271, -1.08916426, 0.03464149, 54.38790131, 5.76703548, -95.56218719, -63.63636398, 20.34492874, -92.51680756, 97.30052948, -5.83249569, 153.01452637, 0.11680767, -0.20761004, -0.72118366, -0.65049851, 0.28348166, 0.10241336, 0.08788419, 99.92000580, 117.61683655, 30.94999886, 0.00000000
1, 1.9200, 217, -0.42558867, -1.07312810, 0.07262677, 52.77915955, 7.89753151, -89.07637024, -63.63636398, 20.34492874, -92.51680756, 97.55387115, -5.39514542, 153.11108398, 0.11861886, -0.20484826, -0.72351569, -0.64845347, 0.32951567, 0.08611311, 0.05432599, 99.92000580, 117.61683655, 30.94999886, 0.00000000
1, 1.9250, 218, -0.43965998, -1.06797397, 0.09901758, 51.09218216, 10.58767128, -82.71643829, -63.40251160, 21.13417053, -92.63372803, 97.79742432, -5.00170183, 153.21875000, 0.12011336, -0.20225239, -0.72572094, -0.64652598, 0.35059333, 0.08083268, 0.03224198, 99.92000580, 117.61683655, 30.94999886, 0.00000000
1, 1.9300, 219, -0.43115708, -1.06851673, 0.09758164, 48.72153854, 13.83874416, -76.75505829, -63.40251160, 21.13417053, -92.63372803, 98.02990723, -4.63031387, 153.34002686, 0.12141918, -0.19968331, -0.72783476, -0.64470202, 0.34860057, 0.08138274, 0.03782350, 99.92000580, 117.61683655, 30.94999886, 0.00000000
1, 1.9350, 220, -0.39639184, -1.06815565, 0.08070821, 46.02591324, 17.44089508, -71.02652740, -63.40251160, 21.13417053, -92.63372803, 98.24855042, -4.29032183, 153.47656250, 0.12247065, -0.19717735, -0.72983122, -0.64301521, 0.31993127, 0.08111641, 0.05868272, 99.92000580, 117.61683655, 30.94999886, 0.00000000
1, 1.9400, 221, -0.33992520, -1.05309999, 0.03690065, 42.77154160, 20.20089722, -65.24085999, -63.11020279, 20.84185982, -92.57527161, 98.45095825, -3.98148775, 153.62382507, 0.12329775, -0.19475815, -0.73169196, -0.64147788, 0.26908219, 0.06624903, 0.10626706, 99.92000580, 117.61683655, 30.94999886, 0.00000000
1, 1.9450, 222, -0.27172700, -1.03035605, 0.00183262, 40.66615295, 21.68750191, -61.14762878, -63.11020279, 20.84185982, -92.57527161, 98.64331818, -3.69451714, 153.77642822, 0.12397890, -0.19241430, -0.73345876, -0.64003456, 0.20603162, 0.04371911, 0.14493212, 99.92000580, 117.61683655, 30.94999886, 0.00000000
1, 1.9950, 223, -0.19396050, -0.91190696, 0.09965778, 20.03797531, 38.54927444, -11.72554207, -61.56094742, 19.43876076, -92.63372803, 99.83571625, -2.46903062, 155.46353149, 0.12067904, -0.17609787, -0.74452794, -0.63253802, 0.15053391, -0.07270855, 0.06863701, 99.92000580, 117.61683655, 30.94999886, 0.00000000
1, 2.0000, 224, -0.18551983, -0.88652265, 0.09436173, 19.54829788, 38.66861725, -8.14114189, -61.59017944, 19.84799767, -92.63372803, 99.92486572, -2.46153760, 155.66120911, 0.11950077, -0.17486537, -0.74533260, -0.63215590, 0.14233130, -0.09782468, 0.07554450, 99.92000580, 117.61683655, 30.94999886, 0.00000000
1, 2.0050, 225, -0.17200260, -0.87416327, 0.09687027, 18.58404732, 39.57382202, -5.54848146, -61.59017944, 19.84799767, -92.63372803, 100.00912476, -2.46791363, 155.86112976, 0.11822822, -0.17368655, -0.74609292, -0.63182312, 0.12875381, -0.10992685, 0.07456695, 99.92000580, 117.61683655, 30.94999886, 0.00000000
1, 2.0100, 226, -0.14808089, -0.84778547, 0.09245404, 17.01292229, 40.68083572, -2.87318134, -61.59017944, 19.84799767, -92.95527649, 100.08538818, -2.48871398, 156.06417847, 0.11685714, -0.17255552, -0.74679285, -0.63156116, 0.10452787, -0.13604808, 0.08041754, 99.92000580, 117.61683655, 30.94999886, 0.00000000
1, 2.0150, 227, -0.13420242, -0.84496808, 0.08280542, 16.92747498, 42.27367783, -1.04646635, -60.83016586, 20.16954041, -92.95527649, 100.16087341, -2.52016544, 156.27346802, 0.11538394, -0.17143886, -0.74748206, -0.63132077, 0.09016930, -0.13859746, 0.09139501, 99.92000580, 117.61683655, 30.94999886, 0.00000000
1, 2.0200, 228, -0.11858561, -0.83910739, 0.07618790, 16.60268784, 45.95982361, 0.55277300, -60.83016586, 20.16954041, -92.95527649, 100.23386383, -2.56299782, 156.49946594, 0.11374848, -0.17027029, -0.74816585, -0.63112378, 0.07387458, -0.14418983, 0.09932117, 99.92000580, 117.61683655, 30.94999886, 0.00000000
1, 2.0250, 229, -0.08719829, -0.82487381, 0.07448313, 16.37129211, 50.72849655, 2.07146931, -60.71324158, 20.34492874, -93.27681732, 100.29907227, -2.62081647, 156.74784851, 0.11190339, -0.16902691, -0.74881858, -0.63101369, 0.04156201, -0.15816736, 0.10229322, 99.92000580, 117.61683655, 30.94999886, 0.00000000
1, 2.0300, 230, -0.04932253, -0.82162309, 0.07727768, 16.18540192, 54.63143158, 3.39369035, -60.71324158, 20.34492874, -93.27681732, 100.36772919, -2.68587089, 157.01397705, 0.10990857, -0.16770774, -0.74950492, -0.63090152, 0.00256002, -0.16116384, 0.10073110, 99.92000580, 117.61683655, 30.94999886, 0.00000000
1, 2.0350, 231, -0.02400322, -0.81810951, 0.08370285, 15.34391594, 56.79459000, 4.40237141, -60.65477753, 20.60800934, -93.24758911, 100.43141174, -2.75815010, 157.28977966, 0.10782061, -0.16635689, -0.75016630, -0.63083339, -0.02400730, -0.16442585, 0.09548249, 99.92000580, 117.61683655, 30.94999886, 0.00000000
1, 2.0400, 232, -0.01559601, -0.82837558, 0.07478514, 13.75570774, 58.72994995, 4.46871853, -60.65477753, 20.60800934, -93.24758911, 100.48632813, -2.83279300, 157.57499695, 0.10567825, -0.16494624, -0.75078744, -0.63082737, -0.03368719, -0.15390226, 0.10537533, 99.92000580, 117.61683655, 30.94999886, 0.00000000
1, 2.0850, 233, -0.12629738, -0.71639848, 1.48576796, 9.49264431, -84.24473572, 103.25717926, -60.71324158, 20.75416565, -94.18298340, 100.11090088, -4.60890961, 158.51786804, 0.08927509, -0.16813301, -0.74781299, -0.63603234, 0.04418175, -0.26757658, -1.31281352, 99.92000580, 117.61683655, 30.94999886, 0.00000000
1, 2.0900, 234, -0.18114856, -1.23810244, 1.44317925, 20.79252243, -45.76428223, 100.42015839, -60.71324158, 20.75416565, -94.18298340, 100.24246216, -5.06294537, 158.20355225, 0.08782044, -0.17275599, -0.74747258, -0.63539571, 0.09128822, 0.25526068, -1.26895046, 99.92000580, 117.61683655, 30.94999886, 0.00000000
1, 2.0950, 235, 0.12422661, -1.80107856, 0.92391473, -11.75232601, 8.72321415, 94.10623169, -60.71324158, 20.75416565, -94.18298340, 100.18846130, -5.53393126, 158.16351318, 0.08500851, -0.17553444, -0.74647069, -0.63619405, -0.22089048, 0.81981051, -0.74997938, 99.92000580, 117.61683655, 30.94999886, 0.00000000
1, 2.1000, 236, 0.26520440, -1.95850110, -0.06460621, -53.26733780, 39.36958694, 96.90747070, -61.64863968, 22.62496376, -93.71528625, 99.91213226, -6.04584932, 158.27397156, 0.08143470, -0.17739719, -0.74439245, -0.63857549, -0.36809158, 0.97902346, 0.23467086, 99.92000580, 117.61683655, 30.94999886, 0.00000000
1, 2.1050, 237, 0.12562066, -1.54790914, -0.83739340, -64.81929016, 52.56607056, 106.09706116, -61.64863968, 22.62496376, -93.71528625, 99.57048798, -6.61364985, 158.44520569, 0.07726131, -0.17914298, -0.74194664, -0.64144665, -0.23621114, 0.56970519, 1.00169456, 99.92000580, 117.61683655, 30.94999886, 0.00000000
1, 2.1100, 238, -0.02838981, -1.11248136, -0.14638692, -13.53439617, 48.43206024, 112.46128082, -61.91172028, 23.47266769, -94.09529114, 99.48641205, -7.20816422, 158.59315491, 0.07264289, -0.18137275, -0.74085033, -0.64262563, -0.09413799, 0.13388021, 0.30809301, 99.92000580, 117.61683655, 30.94999886, 0.00000000
1, 2.1150, 239, 0.14499305, -1.08026493, 0.59611923, 29.83415222, 44.55527115, 112.48279572, -61.91172028, 23.47266769, -94.09529114, 99.62020874, -7.79917622, 158.72163391, 0.06780741, -0.18384232, -0.74093664, -0.64235288, -0.27962387, 0.10203451, -0.43246907, 99.92000580, 117.61683655, 30.94999886, 0.00000000
1, 2.1200, 240, 0.63269162, -1.36626279, 1.85273266, 17.90536499, -49.54603195, 107.51741791, -61.91172028, 23.47266769, -94.09529114, 99.75846863, -8.28763866, 158.38442993, 0.06624283, -0.18875441, -0.74042833, -0.64167720, -0.77945709, 0.38761836, -1.68611681, 99.92000580, 117.61683655, 30.94999886, 0.00000000
1, 2.1250, 241, 0.61728150, -1.58738112, 1.98101366, -15.53413105, -74.31343079, 86.74207306, -62.35018921, 23.47266769, -94.06606293, 99.74960327, -8.65166283, 157.94003296, 0.06633896, -0.19358864, -0.73907453, -0.64178777, -0.77119005, 0.60961032, -1.81441092, 99.92000580, 117.61683655, 30.94999886, 0.00000000
1, 2.1300, 242, 0.80372572, -1.65517855, 1.17526281, -29.23283005, -2.20357895, 65.43067932, -62.35018921, 23.47266769, -94.06606293, 99.61423492, -8.97269154, 157.87384033, 0.06481817, -0.19567423, -0.73769665, -0.64289498, -0.96120894, 0.67925870, -1.01029217, 99.92000580, 117.61683655, 30.94999886, 0.00000000
1, 2.1750, 243, -0.74933052, -1.27951491, 0.11680710, -40.06993484, -119.06052399, 86.12805176, -63.49020767, 26.95118332, -92.77988434, 98.03656006, -12.25996399, 153.08500671, 0.07335215, -0.24279165, -0.71369475, -0.65292531, 0.53813934, 0.31144208, 0.01609242, 99.92000580, 117.61683655, 30.94999886, 0.00000000
1, 2.1800, 244, -0.80908841, -1.81082678, 0.27863750, -30.65998650, -139.38694763, 81.56287384, -63.49020767, 26.95118332, -92.77988434, 98.04868317, -12.56790257, 152.32044983, 0.07567667, -0.24920474, -0.71149600, -0.65264356, 0.59207654, 0.84364688, -0.14701708, 99.92000580, 117.61683655, 30.94999886, 0.00000000
1, 2.1850, 245, -0.52214128, -2.44895291, 0.49923122, -38.90312195, -140.21205139, 81.05225372, -63.63636398, 28.00350761, -91.55217743, 98.02452850, -12.87280178, 151.55114746, 0.07812756, -0.25558540, -0.70902759, -0.65257347, 0.29941824, 1.48254251, -0.36820823, 99.92000580, 117.61683655, 30.94999886, 0.00000000
1, 2.1900, 246, -0.17904669, -2.68346930, 0.45816231, -45.81843567, -106.87394714, 79.86684418, -63.63636398, 28.00350761, -91.55217743, 97.93157196, -13.19555759, 150.95153809, 0.07965539, -0.26094368, -0.70645708, -0.65305579, -0.04899878, 1.71817541, -0.32816964, 99.92000580, 117.61683655, 30.94999886, 0.00000000
1, 2.1950, 247, 0.04676924, -2.61699343, 0.16034882, -42.96369934, -33.64791107, 68.85192871, -63.63636398, 28.00350761, -91.55217743, 97.76808167, -13.51439667, 150.73237610, 0.07921018, -0.26387534, -0.70432955, -0.65422893, -0.27952409, 1.65312815, -0.03227337, 99.92000580, 117.61683655, 30.94999886, 0.00000000
1, 2.2000, 248, 0.22465634, -2.32433271, -0.04814741, -42.22292328, 26.24419975, 58.24715805, -63.78252029, 29.34814262, -91.46448517, 97.53533936, -13.82085037, 150.82676697, 0.07722054, -0.26476827, -0.70254391, -0.65602350, -0.46214810, 1.36157048, 0.17329125, 99.92000580, 117.61683655, 30.94999886, 0.00000000
1, 2.2050, 249, 0.18318865, -1.83051002, 0.17838922, -44.13156509, 13.73173809, 59.34024048, -63.78252029, 29.34814262, -91.46448517, 97.30799866, -14.12447453, 150.85784912, 0.07560283, -0.26604486, -0.70064157, -0.65772778, -0.42637643, 0.86812210, -0.05662282, 99.92000580, 117.61683655, 30.94999886, 0.00000000
1, 2.2100, 250, 0.04394032, -1.35702693, 0.29574534, -46.44651031, -36.62489319, 69.73667145, -63.98713684, 29.31891251, -91.43524933, 97.13401794, -14.44837570, 150.62564087, 0.07524855, -0.26907551, -0.69837636, -0.65894353, -0.29278237, 0.39539143, -0.17688045, 99.92000580, 117.61683655, 30.94999886, 0.00000000
1, 2.2150, 251, -0.15397525, -0.93466115, 0.10296309, -47.70495605, -79.55505371, 83.13586426, -63.98713684, 29.31891251, -91.43524933, 97.01284027, -14.81328011, 150.16532898, 0.07582718, -0.27374011, -0.69576085, -0.65972239, -0.10037094, -0.02539859, 0.01365210, 99.92000580, 117.61683655, 30.94999886, 0.00000000
1, 2.2200, 252, -0.45535940, -0.63364768, 0.15693533, -41.11867905, -95.85817719, 91.42647552, -63.98713684, 29.31891251, -91.43524933, 96.95070648, -15.21015739, 149.61585999, 0.07658033, -0.27913821, -0.69315922, -0.66011190, 0.19429789, -0.32491583, -0.04205769, 99.92000580, 117.61683655, 30.94999886, 0.00000000
1, 2.2600, 253, -1.38885784, -1.06822515, -0.13361333, -25.69429970, -10.21612549, 36.06628418, -63.75328827, 31.54048538, -89.85676575, 96.61748505, -17.42581558, 146.85958862, 0.07907489, -0.30707523, -0.67873430, -0.66239846, 1.09040546, 0.12053108, 0.23884290, 99.92000580, 117.61683655, 30.94999886, 0.00000000
1, 2.2650, 254, -1.21346986, -1.10148978, -0.18539123, -25.86946297, -0.04053171, 29.96660805, -63.75328827, 31.54048538, -89.85676575, 96.49389648, -17.57498169, 146.84165955, 0.07855226, -0.30787483, -0.67758542, -0.66326517, 0.91256428, 0.15445980, 0.28893903, 99.92000580, 117.61683655, 30.94999886, 0.00000000
1, 2.2700, 255, -1.01422226, -1.08165240, -0.17939857, -26.91264725, 8.57470608, 24.71709442, -63.75328827, 31.54048538, -89.85676575, 96.35043335, -17.70286751, 146.87203979, 0.07794135, -0.30826536, -0.67650419, -0.66425878, 0.71108973, 0.13505086, 0.28110155, 99.92000580, 117.61683655, 30.94999886, 0.00000000
1, 2.2750, 256, -0.81674474, -1.02754700, -0.12697959, -27.45390511, 11.21307373, 20.51050758, -64.27944946, 32.65127182, -89.65214539, 96.18873596, -17.83069992, 146.92218018, 0.07726614, -0.30852869, -0.67536849, -0.66537017, 0.51143998, 0.08122481, 0.22661939, 99.92000580, 117.61683655, 30.94999886, 0.00000000
1, 2.2800, 257, -0.60679322, -0.91347826, -0.08033938, -26.13721848, 4.54464340, 17.25020981, -64.27944946, 32.65127182, -89.65214539, 96.05391693, -17.91918945, 146.93638611, 0.07697999, -0.30881768, -0.67439276, -0.66625834, 0.29965475, -0.03263123, 0.17821081, 99.92000580, 117.61683655, 30.94999886, 0.00000000
1, 2.2850, 258, -0.55071026, -0.88421547, -0.06226770, -23.71686554, -7.75802660, 15.48901844, -64.19175720, 33.17743301, -89.68138123, 95.95064545, -17.99254608, 146.88740540, 0.07707398, -0.30942070, -0.67346823, -0.66690248, 0.24223283, -0.06170644, 0.15839475, 99.92000580, 117.61683655, 30.94999886, 0.00000000
1, 2.2900, 259, -0.50737113, -0.86350214, -0.04067852, -19.91316414, -25.59108925, 13.89386940, -64.19175720, 33.17743301, -89.68138123, 95.89496613, -18.04892349, 146.74609375, 0.07768654, -0.31050855, -0.67261422, -0.66718775, 0.19786215, -0.08224891, 0.13585767, 99.92000580, 117.61683655, 30.94999886, 0.00000000
1, 2.2950, 260, -0.51771301, -0.88419306, -0.04901190, -17.00489616, -33.90684509, 13.09780502, -64.19175720, 33.17743301, -89.68138123, 95.86731720, -18.09719276, 146.56170654, 0.07852667, -0.31182426, -0.67182547, -0.66727042, 0.20739174, -0.06133253, 0.14353833, 99.92000580, 117.61683655, 30.94999886, 0.00000000
1, 2.3000, 261, -0.56550217, -0.91762877, -0.04963792, -14.28985310, -37.97803116, 12.44042110, -64.25022125, 30.13738632, -89.97369385, 95.85989380, -18.14015961, 146.35633850, 0.07946817, -0.31324747, -0.67110854, -0.66721374, 0.25445133, -0.02767842, 0.14376888, 99.92000580, 117.61683655, 30.94999886, 0.00000000
1, 2.3050, 262, -0.60261011, -0.97197223, -0.05800274, -12.55702019, -37.34990692, 11.55702972, -64.25022125, 30.13738632, -89.97369385, 95.86010742, -18.17905045, 146.15464783, 0.08039330, -0.31463152, -0.67045408, -0.66710973, 0.29091930, 0.02689295, 0.15191942, 99.92000580, 117.61683655, 30.94999886, 0.00000000
1, 2.3850, 263, -0.31692675, -0.94266665, 0.16250870, -6.50638342, -3.12017107, 8.33499050, -64.27944946, 32.41742325, -89.97369385, 95.24738312, -18.83734131, 146.18988037, 0.07767963, -0.31744999, -0.66520977, -0.67133254, -0.00620042, -0.00011876, -0.07816353, 99.92000580, 117.61683655, 30.94999886, 0.00000000
1, 2.3900, 264, -0.28193575, -0.93493795, 0.19188677, -7.26733589, -2.03857303, 7.98488426, -64.27944946, 32.41742325, -89.97369385, 95.21584320, -18.87628365, 146.17536926, 0.07760425, -0.31771711, -0.66487974, -0.67154187, -0.04191244, -0.00772114, -0.10796243, 99.92000580, 117.61683655, 30.94999886, 0.00000000
1, 2.3950, 265, -0.24743532, -0.93094707, 0.19033337, -7.88917732, -0.64743304, 7.85069799, -64.27944946, 32.41742325, -89.97369385, 95.17879486, -18.91518593, 146.16827393, 0.07750114, -0.31793734, -0.66453773, -0.67178792, -0.07704987, -0.01154499, -0.10692707, 99.92000580, 117.61683655, 30.94999886, 0.00000000
1, 2.4000, 266, -0.21401297, -0.94007671, 0.19289744, -7.99805737, -0.31614223, 8.52597141, -64.13329315, 33.14820099, -89.79830170, 95.14073944, -18.95761490, 146.16261292, 0.07737000, -0.31816700, -0.66418427, -0.67204386, -0.11116239, -0.00224197, -0.11006403, 99.92000580, 117.61683655, 30.94999886, 0.00000000
1, 2.4050, 267, -0.18557151, -0.95531011, 0.19189453, -8.51788616, -1.34202576, 8.99886608, -64.13329315, 33.14820099, -89.79830170, 95.10191345, -19.00195313, 146.15136719, 0.07726180, -0.31843862, -0.66380531, -0.67230207, -0.14032444, 0.01318344, -0.10967232, 99.92000580, 117.61683655, 30.94999886, 0.00000000
1, 2.4100, 268, -0.15704305, -0.96099365, 0.18573478, -9.28612900, -2.37429643, 9.65003300, -64.60099030, 33.29435730, -90.38292694, 95.06112671, -19.04910088, 146.13441467, 0.07717492, -0.31875676, -0.66339105, -0.67257011, -0.16960409, 0.01908121, -0.10413641, 99.92000580, 117.61683655, 30.94999886, 0.00000000
1, 2.4150, 269, -0.12955047, -0.96037054, 0.17235304, -9.74571705, -2.43157196, 10.42566586, -64.60099030, 33.29435730, -90.38292694, 95.01828766, -19.10010529, 146.11683655, 0.07707318, -0.31909740, -0.66295224, -0.67285287, -0.19788648, 0.01870215, -0.09140404, 99.92000580, 117.61683655, 30.94999886, 0.00000000
1, 2.4200, 270, -0.10531141, -0.96852899, 0.15382697, -10.33062363, -0.89359570, 11.45123100, -64.39637756, 33.35282135, -90.41216278, 94.97000122, -19.15690231, 146.10693359, 0.07690495, -0.31942043, -0.66248673, -0.67317718, -0.22299173, 0.02713855, -0.07362826, 99.92000580, 117.61683655, 30.94999886, 0.00000000
1, 2.4250, 271, -0.08724180, -0.97570801, 0.14220493, -10.70078945, 0.57249266, 12.64761066, -64.39637756, 33.35282135, -90.41216278, 94.93247986, -19.15962410, 146.09931946, 0.07703707, -0.31945363, -0.66223764, -0.67339146, -0.24154873, 0.03445253, -0.06271098, 99.92000580, 117.61683655, 30.94999886, 0.00000000
1, 2.4300, 272, -0.06089337, -0.98808968, 0.14296629, -11.37615395, 0.81575340, 13.88883209, -64.39637756, 33.35282135, -90.41216278, 94.87639618, -19.22930908, 146.09742737, 0.07676201, -0.31979287, -0.66171306, -0.67377746, -0.26852196, 0.04698134, -0.06423310, 99.92000580, 117.61683655, 30.94999886, 0.00000000
1, 2.4550, 273, -0.03773402, -0.96352160, 0.18188950, -15.31087494, -6.84337187, 23.99159813, -64.45483398, 30.54662323, -90.09061432, 94.57360077, -19.69146538, 145.96742249, 0.07544499, -0.32276925, -0.65829939, -0.67584771, -0.29918385, 0.02454391, -0.10822077, 99.92000580, 117.61683655, 30.94999886, 0.00000000
1, 2.4600, 274, -0.04873443, -0.95270622, 0.18469130, -16.28682709, -7.92258215, 26.53710938, -64.71791840, 33.46974564, -90.55831909, 94.51037598, -19.82088470, 145.91450500, 0.07511554, -0.32371169, -0.65741992, -0.67628950, -0.29026607, 0.01438411, -0.11211586, 99.92000580, 117.61683655, 30.94999886, 0.00000000
1, 2.4650, 275, -0.05659505, -0.94364095, 0.19078912, -17.27921104, -7.70636082, 28.79823685, -64.71791840, 33.46974564, -90.55831909, 94.44223785, -19.96171188, 145.86193848, 0.07472680, -0.32470855, -0.65647888, -0.67676872, -0.28468770, 0.00603949, -0.11937279, 99.92000580, 117.61683655, 30.94999886, 0.00000000
1, 2.4700, 276, -0.05474444, -0.93496454, 0.19466035, -18.17967224, -6.33298922, 30.77030373, -64.68869019, 33.61590195, -90.79216766, 94.36746979, -20.11297035, 145.81599426, 0.07425290, -0.32571760, -0.65548623, -0.67729783, -0.28898495, -0.00185156, -0.12449105, 99.92000580, 117.61683655, 30.94999886, 0.00000000
1, 2.4750, 277, -0.05545438, -0.92761707, 0.20446683, -18.85356712, -6.06993341, 32.64291382, -64.68869019, 33.61590195, -90.79216766, 94.30462646, -20.24442101, 145.76547241, 0.07389874, -0.32665634, -0.65460420, -0.67773747, -0.29065606, -0.00844009, -0.13549499, 99.92000580, 117.61683655, 30.94999886, 0.00000000
1, 2.4800, 278, -0.06529433, -0.91831028, 0.20486581, -19.33938599, -6.61090088, 34.70428467, -64.68869019, 33.61590195, -90.79216766, 94.22524261, -20.41532135, 145.71682739, 0.07333224, -0.32778049, -0.65351713, -0.67830509, -0.28333107, -0.01690743, -0.13713980, 99.92000580, 117.61683655, 30.94999886, 0.00000000
1, 2.4850, 279, -0.07743718, -0.92123342, 0.20970766, -19.75795174, -6.80564833, 36.87820816, -64.13329315, 33.41128159, -90.03215027, 94.14454651, -20.59704781, 145.66653442, 0.07271247, -0.32896981, -0.65238422, -0.67888635, -0.27412757, -0.01299905, -0.14340407, 99.92000580, 117.61683655, 30.94999886, 0.00000000
1, 2.4900, 280, -0.09122402, -0.93222153, 0.20570852, -20.84812927, -7.32219648, 39.15816498, -64.13329315, 33.41128159, -90.03215027, 94.05977631, -20.79005241, 145.61283875, 0.07205497, -0.33023483, -0.65118235, -0.67949593, -0.26343629, -0.00093560, -0.14090486, 99.92000580, 117.61683655, 30.94999886, 0.00000000
1, 2.4950, 281, -0.09849589, -0.93535328, 0.20141825, -22.05357552, -7.14184856, 41.38609314, -64.48406982, 33.96667480, -90.09061432, 93.96902466, -20.99431801, 145.55957031, 0.07134311, -0.33155251, -0.64991063, -0.68014657, -0.25944018, 0.00334877, -0.13817680, 99.92000580, 117.61683655, 30.94999886, 0.00000000
1, 2.5000, 282, -0.09879185, -0.93843353, 0.19558735, -23.19198418, -6.61361408, 43.65652084, -64.48406982, 33.96667480, -90.09061432, 93.87195587, -21.21019936, 145.50856018, 0.07056478, -0.33291394, -0.64857101, -0.68084109, -0.26260006, 0.00766441, -0.13399178, 99.92000580, 117.61683655, 30.94999886, 0.00000000
1, 2.5300, 283, -0.18133315, -0.94166434, 0.16791305, -29.06272888, -6.70527458, 55.61175537, -64.63022614, 35.25284958, -90.55831909, 93.19194794, -22.71317482, 145.20231628, 0.06492879, -0.34211046, -0.63925087, -0.68564057, -0.20408541, 0.01993093, -0.11801521, 99.92000580, 117.61683655, 30.94999886, 0.00000000
1, 2.5350, 284, -0.19696045, -0.95598960, 0.18499357, -30.20344543, -6.12721682, 57.25246048, -64.71791840, 35.63285446, -90.87985992, 93.06092072, -22.99778557, 145.15266418, 0.06383023, -0.34380364, -0.63747603, -0.68654871, -0.19304863, 0.03602131, -0.13733450, 99.92000580, 117.61683655, 30.94999886, 0.00000000
1, 2.5400, 285, -0.19454312, -0.96407723, 0.19600274, -31.70722389, -4.98954678, 58.66575241, -64.71791840, 35.63285446, -90.87985992, 92.92010498, -23.28986740, 145.10943604, 0.06267950, -0.34549496, -0.63563287, -0.68751389, -0.20015253, 0.04595544, -0.15067291, 99.92000580, 117.61683655, 30.94999886, 0.00000000
1, 2.5450, 286, -0.17680527, -0.96951818, 0.20488767, -32.81414795, -4.23963070, 60.41527557, -64.51329803, 36.01286316, -90.70446777, 92.77227783, -23.59098625, 145.07051086, 0.06147148, -0.34720650, -0.63372678, -0.68851972, -0.22269781, 0.05332879, -0.16197047, 99.92000580, 117.61683655, 30.94999886, 0.00000000
1, 2.5500, 287, -0.15679470, -0.97069037, 0.20680311, -33.97692108, -4.65071630, 62.62855911, -64.51329803, 36.01286316, -90.70446777, 92.61965942, -23.90316963, 145.02957153, 0.06022508, -0.34898508, -0.63174522, -0.68955088, -0.24765852, 0.05654786, -0.16635834, 99.92000580, 117.61683655, 30.94999886, 0.00000000
1, 2.5550, 288, -0.16312550, -0.95742095, 0.20332049, -34.96857452, -4.50327778, 64.85299683, -64.51329803, 36.01286316, -90.70446777, 92.46184540, -24.22660637, 144.98976135, 0.05892193, -0.35081425, -0.62969416, -0.69061059, -0.24643216, 0.04544456, -0.16546416, 99.92000580, 117.61683655, 30.94999886, 0.00000000
1, 2.5600, 289, -0.17650600, -0.93347931, 0.20274529, -36.28541565, -3.84573126, 67.47928619, -64.57176208, 36.18824768, -90.99678040, 92.29608917, -24.56341934, 144.95387268, 0.05754078, -0.35268870, -0.62755829, -0.69171554, -0.23834428, 0.02378382, -0.16758069, 99.92000580, 117.61683655, 30.94999886, 0.00000000
1, 2.5650, 290, -0.17858341, -0.91990614, 0.21091793, -37.34045029, -4.32715321, 69.75963593, -64.57176208, 36.18824768, -90.99678040, 92.12614441, -24.91164780, 144.91586304, 0.05611927, -0.35463333, -0.62534708, -0.69283980, -0.24176174, 0.01260198, -0.17851996, 99.92000580, 117.61683655, 30.94999886, 0.00000000
1, 2.5700, 291, -0.18880175, -0.89878309, 0.21507542, -38.44189072, -6.64262104, 72.97831726, -64.80561066, 37.18210983, -90.85062408, 91.95623779, -25.27567863, 144.86549377, 0.05467950, -0.35672879, -0.62303966, -0.69395709, -0.23726097, -0.00596569, -0.18545651, 99.92000580, 117.61683655, 30.94999886, 0.00000000
1, 2.5750, 292, -0.20716447, -0.88886905, 0.19218801, -39.15958405, -8.45477104, 75.67832947, -64.80561066, 37.18210983, -90.85062408, 91.79630280, -25.64282799, 144.80165100, 0.05327659, -0.35891849, -0.62073088, -0.69500536, -0.22465920, -0.01317206, -0.16528681, 99.92000580, 117.61683655, 30.94999886, 0.00000000
1, 2.6150, 293, -0.32504714, -0.90656614, 0.03635155, -46.11837006, 0.01701538, 91.84748077, -64.89330292, 38.90675354, -91.28909302, 90.14081573, -29.03756523, 144.70356750, 0.03814004, -0.37650305, -0.59943271, -0.70531636, -0.15865557, 0.03122852, -0.03560768, 99.92000580, 117.61683655, 30.94999886, 0.00000000
1, 2.6200, 294, -0.33893487, -0.91767740, 0.02500002, -46.65517426, 3.65894580, 93.76383209, -65.03945923, 40.10523224, -90.64601135, 89.89807892, -29.50691986, 144.72523499, 0.03591378, -0.37875971, -0.59646189, -0.70674223, -0.15185899, 0.04632484, -0.02793394, 99.92000580, 117.61683655, 30.94999886, 0.00000000
1, 2.6250, 295, -0.34010139, -0.94986320, 0.03317470, -47.77867126, 8.75861359, 95.68734741, -65.03945923, 40.10523224, -90.64601135, 89.63593292, -29.97828102, 144.77772522, 0.03355834, -0.38086683, -0.59345442, -0.70825571, -0.15789592, 0.08259337, -0.04008626, 99.92000580, 117.61683655, 30.94999886, 0.00000000
1, 2.6300, 296, -0.31205326, -0.99338019, 0.08932188, -49.37272263, 11.59044075, 97.59785461, -64.89330292, 40.54370117, -91.40602112, 89.35353851, -30.46623611, 144.85070801, 0.03105092, -0.38295722, -0.59032291, -0.70985812, -0.19336104, 0.13026950, -0.10038862, 99.92000580, 117.61683655, 30.94999886, 0.00000000
1, 2.6350, 297, -0.27921435, -1.02020431, 0.11893401, -49.98157501, 12.24870586, 98.98833466, -64.89330292, 40.54370117, -91.40602112, 89.06393433, -30.96079636, 144.93083191, 0.02849270, -0.38505334, -0.58713651, -0.71147239, -0.23367730, 0.16147585, -0.13423616, 99.92000580, 117.61683655, 30.94999886, 0.00000000
1, 2.6400, 298, -0.25910154, -1.04798150, 0.09808915, -50.80846786, 10.48709488, 100.98989105, -64.89330292, 40.54370117, -91.40602112, 88.77310944, -31.46520615, 145.00425720, 0.02593033, -0.38724506, -0.58387446, -0.71306348, -0.26123676, 0.19388425, -0.11765701, 99.92000580, 117.61683655, 30.94999886, 0.00000000
1, 2.6450, 299, -0.26498762, -1.07315838, 0.06170899, -51.17189026, 8.81484509, 103.79388428, -64.71791840, 41.39140701, -90.87985992, 88.48306274, -31.98350525, 145.07170105, 0.02332853, -0.38954997, -0.58053738, -0.71462089, -0.26291174, 0.22392386, -0.08553317, 99.92000580, 117.61683655, 30.94999886, 0.00000000
1, 2.6500, 300, -0.28805748, -1.09807706, 0.05910474, -50.55581284, 11.46724033, 106.72354889, -64.71791840, 41.39140701, -90.87985992, 88.18508148, -32.51572037, 145.15887451, 0.02055710, -0.39183646, -0.57715750, -0.71619189, -0.24765295, 0.25387347, -0.08725426, 99.92000580, 117.61683655, 30.94999886, 0.00000000
1, 2.7150, 301, -0.85923326, -0.44002542, -0.24617378, -47.56396484, 31.60466194, 145.61769104, -63.34405136, 45.13300323, -92.04911041, 82.85747528, -40.77149582, 148.12950134, -0.02867429, -0.42142999, -0.52470446, -0.73909390, 0.20912090, -0.31317395, 0.15038772, 99.92000580, 117.61683655, 30.94999886, 0.00000000
1, 2.7200, 302, -0.90969127, -0.38158286, -0.23470548, -45.34553528, 36.01773834, 143.94203186, -63.34405136, 45.13300323, -92.04911041, 82.39493561, -41.46225357, 148.49078369, -0.03331995, -0.42360413, -0.52054834, -0.74059349, 0.25039685, -0.36299482, 0.13390192, 99.92000580, 117.61683655, 30.94999886, 0.00000000
1, 2.7250, 303, -0.89550257, -0.38411963, -0.20224255, -45.02745438, 41.32428741, 140.62934875, -63.34405136, 45.13300323, -92.04911041, 81.89644623, -42.14144897, 148.89923096, -0.03804867, -0.42555606, -0.51637256, -0.74216825, 0.22724548, -0.35183418, 0.09623906, 99.92000580, 117.61683655, 30.94999886, 0.00000000
1, 2.7300, 304, -0.86022669, -0.40384096, -0.17614257, -46.07571793, 47.83961105, 137.25772095, -63.28558731, 48.08535385, -92.48757935, 81.35862732, -42.78557968, 149.35699463, -0.04272696, -0.42715937, -0.51225054, -0.74384719, 0.18342870, -0.32355270, 0.06459529, 99.92000580, 117.61683655, 30.94999886, 0.00000000
1, 2.7350, 305, -0.75810695, -0.44427183, -0.12941195, -48.00628281, 56.52799988, 133.00270081, -63.28558731, 48.08535385, -92.48757935, 80.76132965, -43.39855194, 149.88233948, -0.04742322, -0.42837048, -0.50810665, -0.74570602, 0.07328680, -0.27478194, 0.01176366, 99.92000580, 117.61683655, 30.94999886, 0.00000000
1, 2.7400, 306, -0.66369927, -0.50072944, -0.07695942, -49.14403152, 58.87645721, 130.51435852, -62.67173386, 48.93305969, -92.69219208, 80.13536072, -43.99318314, 150.43507385, -0.05206708, -0.42943364, -0.50394487, -0.74760640, -0.02882844, -0.21002507, -0.04710691, 99.92000580, 117.61683655, 30.94999886, 0.00000000
1, 2.7450, 307, -0.57165045, -0.57752240, -0.01676179, -50.01177216, 56.55825424, 128.08659363, -62.67173386, 48.93305969, -92.69219208, 79.50399780, -44.57352448, 150.98348999, -0.05656241, -0.43050283, -0.49978375, -0.74945599, -0.12833548, -0.12497036, -0.11375940, 99.92000580, 117.61683655, 30.94999886, 0.00000000
1, 2.7500, 308, -0.52350360, -0.67742181, 0.03480080, -50.40449142, 50.42884064, 126.43825531, -62.67173386, 48.93305969, -92.69219208, 78.88811493, -45.14727020, 151.50157166, -0.06086072, -0.43172023, -0.49563509, -0.75117218, -0.18374108, -0.01679504, -0.17162713, 99.92000580, 117.61683655, 30.94999886, 0.00000000
1, 2.7550, 309, -0.52530074, -0.79107857, 0.07313447, -50.55325699, 42.04353333, 125.99491119, -63.05173874, 49.13768005, -92.54603577, 78.30014801, -45.72331619, 151.97428894, -0.06495849, -0.43318653, -0.49149239, -0.75270516, -0.18909815, 0.10521908, -0.21593043, 99.92000580, 117.61683655, 30.94999886, 0.00000000
1, 2.7600, 310, -0.58295214, -0.91384268, 0.11657467, -50.78329849, 34.65120316, 126.24228668, -63.05173874, 49.13768005, -92.54603577, 77.73533630, -46.30493927, 152.40858459, -0.06889942, -0.43488544, -0.48733950, -0.75407410, -0.13860902, 0.23644800, -0.26499659, 99.92000580, 117.61683655, 30.94999886, 0.00000000
1, 2.7950, 311, -0.55845284, -1.96282244, 0.28962317, -69.92589569, 42.77485657, 133.61993408, -62.32095718, 51.79771805, -93.74451447, 73.03121948, -50.34573746, 155.92604065, -0.09584887, -0.44664273, -0.45539808, -0.76415700, -0.21057414, 1.34944415, -0.47878009, 99.92000580, 117.61683655, 30.94999886, 0.00000000
1, 2.8000, 312, -0.52987027, -2.01083994, 0.31172234, -73.49918365, 50.14975739, 134.19172668, -62.32095718, 51.79771805, -93.74451447, 72.12756348, -50.91099930, 156.62173462, -0.09989890, -0.44792676, -0.45011947, -0.76601201, -0.24553409, 1.40764809, -0.50798625, 99.92000580, 117.61683655, 30.94999886, 0.00000000
1, 2.8050, 313, -0.50693995, -1.99260914, 0.28485417, -77.54220581, 55.06131363, 134.18498230, -61.99941635, 52.32388306, -93.71528625, 71.15248108, -51.46120453, 157.37767029, -0.10396126, -0.44904158, -0.44466177, -0.76800376, -0.27447224, 1.39987493, -0.48869264, 99.92000580, 117.61683655, 30.94999886, 0.00000000
1, 2.8100, 314, -0.52360076, -1.93039346, 0.20255442, -80.23323822, 54.12554550, 134.47735596, -61.99941635, 52.32388306, -93.71528625, 70.14527130, -52.00610733, 158.15167236, -0.10795763, -0.45018235, -0.43908924, -0.76998806, -0.26352090, 1.34839940, -0.41415742, 99.92000580, 117.61683655, 30.94999886, 0.00000000
1, 2.8150, 315, -0.61211270, -1.85001576, 0.09971155, -80.29345703, 50.32376099, 134.66792297, -61.59017944, 53.84390640, -93.62759399, 69.13603973, -52.55002213, 158.92214966, -0.11188103, -0.45143157, -0.43350601, -0.77185798, -0.18058352, 1.27894914, -0.31897408, 99.92000580, 117.61683655, 30.94999886, 0.00000000
1, 2.8200, 316, -0.73258090, -1.74482036, 0.02170324, -78.74971008, 49.05696106, 134.30261230, -61.59017944, 53.84390640, -93.62759399, 68.11857605, -53.08609009, 159.70707703, -0.11579263, -0.45268583, -0.42796594, -0.77363610, -0.06561907, 1.18472385, -0.24841905, 99.92000580, 117.61683655, 30.94999886, 0.00000000
1, 2.8250, 317, -0.82791483, -1.61861348, -0.02019236, -75.80313110, 49.25000000, 133.11296082, -61.59017944, 53.84390640, -93.62759399, 67.09866333, -53.60378647, 160.51055908, -0.11969201, -0.45386130, -0.42256010, -0.77532369, 0.02434444, 1.06938553, -0.21367285, 99.92000580, 117.61683655, 30.94999886, 0.00000000
1, 2.8300, 318, -0.92047846, -1.45683742, -0.06874302, -73.44966125, 51.10902405, 130.49841309, -61.59017944, 53.96083069, -93.68605804, 66.05534363, -54.10096359, 161.34974670, -0.12360522, -0.45490414, -0.41722190, -0.77698779, 0.11184436, 0.91839039, -0.17213657, 99.92000580, 117.61683655, 30.94999886, 0.00000000
1, 2.8350, 319, -1.00967979, -1.24185061, -0.17098337, -71.05626678, 55.13705826, 126.04222107, -61.59017944, 53.96083069, -93.68605804, 64.98667145, -54.56026077, 162.22978210, -0.12748149, -0.45569509, -0.41201198, -0.77867627, 0.19650885, 0.71407914, -0.07692763, 99.92000580, 117.61683655, 30.94999886, 0.00000000
1, 2.8400, 320, -1.05723178, -1.07961273, -0.19677199, -67.51718903, 60.84514236, 118.73720551, -61.23940277, 55.07161713, -94.50453186, 63.89798355, -54.96449661, 163.15115356, -0.13127604, -0.45612121, -0.40701759, -0.78042102, 0.23992558, 0.56191224, -0.05835775, 99.92000580, 117.61683655, 30.94999886, 0.00000000
1, 2.8650, 321, -1.11486721, -0.37701464, -0.28630167, -51.20589066, 43.33166122, 87.79199982, -60.77170181, 55.74393463, -94.73838043, 59.00168610, -56.52703476, 167.35974121, -0.14737608, -0.45737550, -0.38572213, -0.78759539, 0.28206730, -0.09716963, 0.00012953, 99.92000580, 117.61683655, 30.94999886, 0.00000000
1, 2.8700, 322, -1.08014536, -0.25089967, -0.24163941, -48.36169052, 33.07020187, 80.92139435, -60.77170181, 55.74393463, -94.73838043, 58.22497177, -56.78627014, 168.00128174, -0.14975564, -0.45790285, -0.38223383, -0.78854024, 0.24472502, -0.21611230, -0.04886261, 99.92000580, 117.61683655, 30.94999886, 0.00000000
1, 2.8750, 323, -1.00455832, -0.12353201, -0.18584906, -44.84093857, 19.59723854, 73.12438202, -60.77170181, 55.74393463, -94.73838043, 57.56597519, -57.06367111, 168.51815796, -0.15180573, -0.45884848, -0.37901884, -0.78915000, 0.16644961, -0.33678025, -0.10776935, 99.92000580, 117.61683655, 30.94999886, 0.00000000
1, 2.8800, 324, -0.92867386, -0.00071150, -0.15250431, -40.92364502, 2.33934164, 63.51454544, -60.50862122, 56.29932785, -94.97222900, 57.07980347, -57.32481384, 168.85409546, -0.15321976, -0.46008396, -0.37632352, -0.78944743, 0.08792309, -0.45359787, -0.14285648, 99.92000580, 117.61683655, 30.94999886, 0.00000000
1, 2.8850, 325, -0.90175295, 0.11342555, -0.17244449, -39.96230698, -12.20418835, 51.48327637, -60.50862122, 56.29932785, -94.97222900, 56.73950577, -57.57407379, 169.02154541, -0.15399802, -0.46161318, -0.37399495, -0.78950977, 0.05866159, -0.56266212, -0.12356545, 99.92000580, 117.61683655, 30.94999886, 0.00000000
1, 2.8900, 326, -0.86694700, 0.29303461, -0.35154483, -39.06874466, -15.31727982, 39.19954300, -60.83016586, 56.24086380, -94.35837555, 56.47427750, -57.78020859, 169.10482788, -0.15431830, -0.46304077, -0.37196180, -0.78957176, 0.02226176, -0.73784184, 0.05548025, 99.92000580, 117.61683655, 30.94999886, 0.00000000
1, 2.8950, 327, -0.87885696, 0.42479175, -0.46158060, -31.19291496, -17.04730225, 24.02066231, -60.83016586, 56.24086380, -94.35837555, 56.32507706, -57.92774963, 169.09718323, -0.15424418, -0.46422708, -0.37051558, -0.78956962, 0.03296651, -0.86656743, 0.16565406, 99.92000580, 117.61683655, 30.94999886, 0.00000000
1, 2.9000, 328, -1.01849747, 0.53090036, -0.43733254, -22.85676193, -42.93179321, 5.28075504, -60.83016586, 56.24086380, -94.35837555, 56.47300339, -58.06905746, 168.78808594, -0.15327364, -0.46594611, -0.36990720, -0.78903109, 0.17121227, -0.97124720, 0.14287609, 99.92000580, 117.61683655, 30.94999886, 0.00000000
1, 2.9050, 329, -1.10785317, 0.54635680, -0.38060230, -17.62335777, -56.02563477, -11.95806408, -61.21017075, 56.50394440, -94.59222412, 56.81337357, -58.17375946, 168.28335571, -0.15160276, -0.46780130, -0.36991349, -0.78825289, 0.25935596, -0.98686385, 0.08917408, 99.92000580, 117.61683655, 30.94999886, 0.00000000
1, 2.9100, 330, -1.08431506, 0.52885211, -0.30910310, -12.60395718, -60.58620453, -30.70832253, -61.21017075, 56.50394440, -94.59222412, 57.29430008, -58.21038055, 167.64286804, -0.14931305, -0.46947515, -0.37050113, -0.78741831, 0.23513548, -0.97104132, 0.02160097, 99.92000580, 117.61683655, 30.94999886, 0.00000000
1, 2.9500, 331, -0.08561464, 0.06739820, -0.27846527, 30.24565506, -26.65815353, -132.20158386, -62.20403290, 54.31160355, -93.59836578, 61.77624893, -55.32154846, 162.26333618, -0.11829282, -0.46372849, -0.38783777, -0.78774655, -0.73733199, -0.56571376, 0.00847786, 99.92000580, 117.61683655, 30.94999886, 0.00000000
1, 2.9550, 332, -0.08783101, 0.04709611, -0.29902774, 41.10252762, -35.51985550, -142.29551697, -63.37328339, 51.06694031, -94.21221924, 62.68076324, -54.77510834, 161.40837097, -0.11361717, -0.46232817, -0.39229435, -0.78705078, -0.72970498, -0.55625081, 0.03304563, 99.92000580, 117.61683655, 30.94999886, 0.00000000
1, 2.9600, 333, -0.12572186, 0.06720914, -0.35682082, 45.61907196, -39.66696930, -147.88494873, -63.37328339, 51.06694031, -94.21221924, 63.62468719, -54.20528030, 160.52673340, -0.10876389, -0.46093106, -0.39702085, -0.78618544, -0.68597257, -0.58771217, 0.09552843, 99.92000580, 117.61683655, 30.94999886, 0.00000000
1, 2.9650, 334, -0.19005767, 0.10764469, -0.39243791, 51.03454208, -44.51401520, -153.01177979, -63.63636398, 52.35311127, -94.00759888, 64.61254120, -53.61441803, 159.61770630, -0.10375348, -0.45956260, -0.40203860, -0.78511298, -0.61554646, -0.63992393, 0.13638663, 99.92000580, 117.61683655, 30.94999886, 0.00000000
1, 2.9700, 335, -0.26103950, 0.13339731, -0.37055418, 57.43239594, -51.10295486, -157.77200317, -63.63636398, 52.35311127, -94.00759888, 65.65580750, -53.00640106, 158.67231750, -0.09858626, -0.45828187, -0.40737787, -0.78377402, -0.53834248, -0.67791760, 0.12044902, 99.92000580, 117.61683655, 30.94999886, 0.00000000
1, 2.9750, 336, -0.32721859, 0.13973257, -0.31845477, 63.96300888, -59.75552750, -162.12744141, -63.63636398, 52.35311127, -94.00759888, 66.74625397, -52.39217758, 157.69303894, -0.09329787, -0.45716900, -0.41295430, -0.78215152, -0.46581733, -0.69679660, 0.07513165, 99.92000580, 117.61683655, 30.94999886, 0.00000000
1, 2.9800, 337, -0.39044851, 0.12509760, -0.27735016, 70.19551086, -67.32654572, -166.66358948, -63.87021255, 50.10231018, -93.48143768, 67.90782166, -51.75324631, 156.66281128, -0.08777839, -0.45617175, -0.41892201, -0.78019667, -0.39594954, -0.69499350, 0.04168625, 99.92000580, 117.61683655, 30.94999886, 0.00000000
1, 2.9850, 338, -0.44745412, 0.09941197, -0.24632578, 75.80520630, -70.63426208, -172.00155640, -63.87021255, 50.10231018, -93.48143768, 69.09352112, -51.08268738, 155.62818909, -0.08212142, -0.45513451, -0.42516845, -0.77803636, -0.33184487, -0.68251836, 0.01902037, 99.92000580, 117.61683655, 30.94999886, 0.00000000
1, 2.9900, 339, -0.50179672, 0.05204873, -0.22485140, 80.64301300, -69.02775574, -177.73834229, -64.89330292, 49.48845291, -93.01374054, 70.26962280, -50.36923599, 154.62702942, -0.07638839, -0.45388302, -0.43165368, -0.77577716, -0.26982844, -0.64866424, 0.00614901, 99.92000580, 117.61683655, 30.94999886, 0.00000000
1, 2.9950, 340, -0.54191697, -0.00999824, -0.19338784, 83.82395935, -62.95661545, -184.32910156, -64.89330292, 49.48845291, -93.01374054, 71.40296173, -49.60200119, 153.69158936, -0.07060213, -0.45225328, -0.43832070, -0.77353567, -0.22136679, -0.60045421, -0.01679657, 99.92000580, 117.61683655, 30.94999886, 0.00000000
1, 3.0150, 341, -0.63281637, -0.15566835, -0.16456696, 80.44673157, -26.32730865, -217.09819031, -65.01023102, 44.72376633, -91.17217255, 75.21405029, -45.91786957, 150.74784851, -0.04612800, -0.44089210, -0.46566200, -0.76592779, -0.08821896, -0.51295722, -0.01635586, 99.92000580, 117.61683655, 30.94999886, 0.00000000
1, 3.0200, 342, -0.64651036, -0.17450476, -0.20261821, 81.17152405, -16.98587799, -222.94879150, -65.01023102, 44.72376633, -91.17217255, 75.98363495, -44.85891342, 150.23313904, -0.03986768, -0.43675268, -0.47265851, -0.76436365, -0.06164512, -0.50912809, 0.02760179, 99.92000580, 117.61683655, 30.94999886, 0.00000000
1, 3.0250, 343, -0.65299064, -0.18276744, -0.23993711, 83.02297211, -9.40093422, -227.76898193, -65.01023102, 44.72376633, -91.37679291, 76.69802856, -43.77085495, 149.79557800, -0.03368273, -0.43223596, -0.47968638, -0.76284909, -0.04160449, -0.51585835, 0.07050765, 99.92000580, 117.61683655, 30.94999886, 0.00000000
1, 3.0300, 344, -0.66406548, -0.16873281, -0.26410341, 86.29945374, -4.75093222, -231.69578552, -65.65332031, 45.65916443, -91.37679291, 77.39434052, -42.64663315, 149.40466309, -0.02747142, -0.42740211, -0.48689288, -0.76125437, -0.01636649, -0.54488546, 0.10023563, 99.92000580, 117.61683655, 30.94999886, 0.00000000
1, 3.0350, 345, -0.68475574, -0.14611781, -0.29280624, 90.84085083, -1.63561404, -235.07940674, -65.65332031, 45.65916443, -91.37679291, 78.08016968, -41.49912643, 149.05470276, -0.02129441, -0.42233664, -0.49425185, -0.75953513, 0.01911956, -0.58247328, 0.13469586, 99.92000580, 117.61683655, 30.94999886, 0.00000000
1, 3.0400, 346, -0.71275544, -0.13534959, -0.34206957, 96.40563965, 2.11878443, -238.60105896, -65.82870483, 43.64220810, -91.58140564, 78.75972748, -40.32751465, 148.74864197, -0.01518071, -0.41701323, -0.50179571, -0.75767446, 0.06254638, -0.60810053, 0.18993366, 99.92000580, 117.61683655, 30.94999886, 0.00000000
1, 3.0450, 347, -0.73483956, -0.13065219, -0.40137425, 102.55171967, 7.85766363, -241.87245178, -65.82870483, 43.64220810, -91.58140564, 79.42948914, -39.13167572, 148.49841309, -0.00919339, -0.41137058, -0.50953412, -0.75568837, 0.10068098, -0.62753439, 0.25544637, 99.92000580, 117.61683655, 30.94999886, 0.00000000
1, 3.0500, 348, -0.72703648, -0.14689061, -0.46641621, 109.66357422, 13.43499756, -243.86306763, -66.29640198, 42.00526047, -91.61064148, 80.09651184, -37.91876984, 148.30302429, -0.00338957, -0.40544122, -0.51747233, -0.75354391, 0.10948367, -0.62584174, 0.32700291, 99.92000580, 117.61683655, 30.94999886, 0.00000000
1, 3.0550, 349, -0.69633108, -0.17095712, -0.51723117, 117.01784515, 14.15608215, -243.69412231, -66.29640198, 42.00526047, -91.61064148, 80.78135681, -36.70427322, 148.13345337, 0.00226361, -0.39943451, -0.52557808, -0.75114226, 0.09570300, -0.61603582, 0.38492221, 99.92000580, 117.61683655, 30.94999886, 0.00000000
1, 3.0600, 350, -0.64989114, -0.22156760, -0.52269948, 124.65096283, 10.26634026, -239.95819092, -66.29640198, 42.00526047, -91.61064148, 81.50106812, -35.50959778, 147.96472168, 0.00775057, -0.39358559, -0.53379577, -0.74839324, 0.06616004, -0.57927924, 0.39831951, 99.92000580, 117.61683655, 30.94999886, 0.00000000
1, 3.0950, 351, -1.00830173, -0.49564818, 0.09303045, 132.34387207, 56.92446136, -251.07203674, -66.20870972, 37.06518555, -90.29523468, 86.32633209, -27.16914368, 147.95252991, 0.04127653, -0.34821483, -0.59181434, -0.72580886, 0.54648328, -0.38962168, -0.15529281, 99.92000580, 117.61683655, 30.94999886, 0.00000000
1, 3.1000, 352, -1.04409766, -0.54788435, 0.06392784, 128.66905212, 62.55720139, -256.35916138, -66.38409424, 35.48669815, -90.73370361, 86.84988403, -25.86907196, 148.21377563, 0.04585472, -0.33981845, -0.59983367, -0.72292489, 0.60250902, -0.34803045, -0.11873970, 99.92000580, 117.61683655, 30.94999886, 0.00000000
1, 3.1050, 353, -0.99783891, -0.58612239, 0.04473349, 124.77445221, 66.35073853, -259.09338379, -66.38409424, 35.48669815, -90.73370361, 87.34647369, -24.55652046, 148.50508118, 0.05047037, -0.33116719, -0.60767895, -0.72007459, 0.57693124, -0.32002437, -0.09210734, 99.92000580, 117.61683655, 30.94999886, 0.00000000
1, 3.1100, 354, -0.87486190, -0.60894012, 0.02972226, 120.15577698, 65.70720673, -260.06646729, -66.38409424, 35.48669815, -90.73370361, 87.82380676, -23.24158859, 148.80178833, 0.05519187, -0.32244578, -0.61529094, -0.71721661, 0.47491533, -0.30692765, -0.06958382, 99.92000580, 117.61683655, 30.94999886, 0.00000000
1, 3.1150, 355, -0.65592116, -0.58314407, -0.04435624, 115.06855774, 63.18911362, -258.55447388, -65.47792816, 33.00204468, -91.28909302, 88.28374481, -21.93697739, 149.09387207, 0.05999567, -0.31377962, -0.62261659, -0.71434689, 0.27719834, -0.34175962, 0.01221557, 99.92000580, 117.61683655, 30.94999886, 0.00000000
1, 3.1200, 356, -0.48801410, -0.57722843, -0.08117974, 113.98637390, 62.67212677, -253.33024597, -65.47792816, 33.00204468, -91.28909302, 88.74210358, -20.66077232, 149.39245605, 0.06465594, -0.30521977, -0.62973827, -0.71140027, 0.13026340, -0.35609478, 0.05665649, 99.92000580, 117.61683655, 30.94999886, 0.00000000
1, 3.1250, 357, -0.27708012, -0.62934363, -0.13211171, 115.69435120, 61.70435715, -244.26150513, -65.39023590, 31.39432907, -91.81525421, 89.21080017, -19.43243027, 149.69639587, 0.06902869, -0.29689112, -0.63667959, -0.70832896, -0.06029429, -0.31155980, 0.11549547, 99.92000580, 117.61683655, 30.94999886, 0.00000000
1, 3.1300, 358, -0.12359091, -0.72189927, -0.16755737, 118.46735382, 54.65413284, -236.82347107, -65.39023590, 31.39432907, -91.81525421, 89.71138763, -18.24386787, 149.97122192, 0.07332109, -0.28895888, -0.64351422, -0.70499378, -0.19393307, -0.22589768, 0.15918659, 99.92000580, 117.61683655, 30.94999886, 0.00000000
1, 3.1350, 359, 0.00124653, -0.82846022, -0.18970023, 120.56246185, 39.02228546, -229.09063721, -65.39023590, 31.39432907, -91.81525421, 90.24983215, -17.09649277, 150.17358398, 0.07777723, -0.28169242, -0.65017921, -0.70133239, -0.29949328, -0.12555496, 0.19022499, 99.92000580, 117.61683655, 30.94999886, 0.00000000
1, 3.1400, 360, 0.05095104, -0.94384360, -0.19949931, 121.58894348, 17.69729996, -221.09431458, -64.42560577, 28.44197655, -91.14293671, 90.82608795, -15.99017715, 150.27478027, 0.08256970, -0.27527377, -0.65662318, -0.69731826, -0.33052486, -0.01572867, 0.20947228, 99.92000580, 117.61683655, 30.94999886, 0.00000000
1, 3.1950, 361, -0.77181190, -1.27075171, 0.16814233, 91.91668701, 26.98326874, -130.37609863, -63.46097565, 23.38497543, -88.42443848, 96.95533752, -6.50598431, 149.63272095, 0.13234454, -0.23208204, -0.71154445, -0.64986718, 0.65537220, 0.28432274, -0.05367479, 99.92000580, 117.61683655, 30.94999886, 0.00000000
1, 3.2000, 362, -0.64676201, -1.22399807, 0.16725865, 83.93219757, 44.08818054, -126.04605103, -63.84098053, 24.37883568, -88.95059967, 97.34127045, -5.90661430, 149.93077087, 0.13371386, -0.22739339, -0.71543157, -0.64697033, 0.54087019, 0.23724949, -0.04541948, 99.92000580, 117.61683655, 30.94999886, 0.00000000
1, 3.2050, 363, -0.54343510, -1.19619668, 0.16886564, 77.48104095, 58.18363953, -120.58043671, -63.84098053, 24.37883568, -88.95059967, 97.69112396, -5.34542418, 150.29904175, 0.13454659, -0.22242875, -0.71913177, -0.64441621, 0.44745660, 0.20925489, -0.04043082, 99.92000580, 117.61683655, 30.94999886, 0.00000000
1, 3.2100, 364, -0.45200196, -1.16502070, 0.19111086, 71.60363770, 69.25609589, -113.75705719, -63.84098053, 24.37883568, -88.95059967, 98.01038361, -4.82772875, 150.72071838, 0.13489065, -0.21732210, -0.72263408, -0.64216489, 0.36515951, 0.17797792, -0.05665484, 99.92000580, 117.61683655, 30.94999886, 0.00000000
1, 3.2150, 365, -0.35606816, -1.12077606, 0.21281035, 66.26034546, 77.58953094, -105.81398010, -62.58403778, 23.70651817, -88.68751526, 98.30357361, -4.35751438, 151.18061829, 0.13479394, -0.21219155, -0.72593027, -0.64018023, 0.27756447, 0.13374406, -0.07279301, 99.92000580, 117.61683655, 30.94999886, 0.00000000
1, 3.2200, 366, -0.29015303, -1.09364271, 0.23518118, 62.89681625, 81.34424591, -96.49799347, -62.58403778, 23.70651817, -88.68751526, 98.58262634, -3.93842554, 151.65444946, 0.13434328, -0.20722273, -0.72904044, -0.63836563, 0.21911079, 0.10673419, -0.09002105, 99.92000580, 117.61683655, 30.94999886, 0.00000000
1, 3.2250, 367, -0.24911231, -1.09473646, 0.25033221, 60.68974304, 80.77581787, -86.59873199, -62.67173386, 23.53113174, -89.56445313, 98.85671234, -3.57448912, 152.11962891, 0.13361821, -0.20259137, -0.73197591, -0.63664293, 0.18462762, 0.10808316, -0.10027807, 99.92000580, 117.61683655, 30.94999886, 0.00000000
1, 3.2300, 368, -0.20795244, -1.09804034, 0.24921988, 58.66148376, 77.74594116, -74.20160675, -62.67173386, 23.53113174, -89.56445313, 99.12271881, -3.26733279, 152.56195068, 0.13268898, -0.19839451, -0.73470080, -0.63501811, 0.14899734, 0.11177854, -0.09440309, 99.92000580, 117.61683655, 30.94999886, 0.00000000
1, 3.2800, 369, -0.13502990, -0.94193256, 0.06351458, 20.31093216, 60.33201981, 2.46053600, -62.02864456, 22.15726280, -91.61064148, 100.83953094, -2.53725219, 155.66159058, 0.11759950, -0.17622024, -0.75025570, -0.62628537, 0.09092212, -0.03945036, 0.12212428, 99.92000580, 117.61683655, 30.94999886, 0.00000000
1, 3.2850, 370, -0.15885934, -0.95113695, 0.04943927, 16.52915382, 65.30556488, 7.25411224, -62.02864456, 22.15726280, -91.61064148, 100.90809631, -2.63376713, 155.97592163, 0.11513927, -0.17475219, -0.75098509, -0.62627959, 0.11324826, -0.02991182, 0.13738137, 99.92000580, 117.61683655, 30.94999886, 0.00000000
1, 3.2900, 371, -0.14262964, -0.95550370, 0.04128078, 13.23571682, 70.80007172, 10.82706165, -62.67173386, 23.61882401, -91.90295410, 100.95852661, -2.75336599, 156.31382751, 0.11242513, -0.17323278, -0.75161809, -0.62643552, 0.09505974, -0.02525654, 0.14651299, 99.92000580, 117.61683655, 30.94999886, 0.00000000
1, 3.2950, 372, -0.09324091, -0.94418395, 0.01522122, 8.68208981, 77.57141876, 14.44648933, -62.67173386, 23.61882401, -91.90295410, 100.98400116, -2.89739656, 156.68153381, 0.10942301, -0.17162262, -0.75212431, -0.62680244, 0.04329451, -0.03631639, 0.17320909, 99.92000580, 117.61683655, 30.94999886, 0.00000000
1, 3.3000, 373, -0.04564197, -0.92588747, -0.02089964, 5.73989820, 80.20797729, 16.75506973, -63.02250671, 23.82344246, -92.51680756, 100.99326324, -3.05539227, 157.06002808, 0.10629164, -0.16999987, -0.75253636, -0.62728876, -0.00690830, -0.05437513, 0.20967159, 99.92000580, 117.61683655, 30.94999886, 0.00000000
1, 3.3050, 374, 0.00386670, -0.91080499, -0.04913269, 3.97870851, 82.16633606, 18.71698952, -63.02250671, 23.82344246, -92.51680756, 100.99221039, -3.22492576, 157.44635010, 0.10305373, -0.16837747, -0.75288481, -0.62784827, -0.05925462, -0.06925285, 0.23804329, 99.92000580, 117.61683655, 30.94999886, 0.00000000
1, 3.3100, 375, 0.05228068, -0.88955939, -0.07389905, 2.86078620, 83.82210541, 20.45318985, -63.02250671, 23.82344246, -92.51680756, 100.98406982, -3.40452075, 157.83923340, 0.09972056, -0.16675933, -0.75318724, -0.62845546, -0.11069269, -0.09030589, 0.26282135, 99.92000580, 117.61683655, 30.94999886, 0.00000000
1, 3.3150, 376, 0.09848545, -0.87596667, -0.07773074, 1.66046047, 83.42655945, 22.00133896, -62.96404648, 21.36802101, -92.89681244, 100.96887970, -3.59129047, 158.22883606, 0.09636495, -0.16519539, -0.75343299, -0.62909704, -0.16011605, -0.10374604, 0.26652196, 99.92000580, 117.61683655, 30.94999886, 0.00000000
1, 3.3200, 377, 0.15121958, -0.85689509, -0.07418592, 0.57344609, 79.54824829, 23.57018661, -62.96404648, 21.36802101, -92.89681244, 100.94830322, -3.78199315, 158.59799194, 0.09310002, -0.16378291, -0.75361109, -0.62974429, -0.21616527, -0.12268130, 0.26276606, 99.92000580, 117.61683655, 30.94999886, 0.00000000
1, 3.3250, 378, 0.17043705, -0.82281065, -0.06537360, 0.76651138, 72.75542450, 25.12337685, -63.57789993, 24.34960556, -94.15375519, 100.91359711, -3.95707154, 158.93365479, 0.09014025, -0.16249563, -0.75367993, -0.63042563, -0.23859599, -0.15666160, 0.25354755, 99.92000580, 117.61683655, 30.94999886, 0.00000000
