SensorId, TimeStamp (s), FrameNumber, AccX (g), AccY (g), AccZ (g), GyroX (deg/s), GyroY (deg/s), GyroZ (deg/s), MagX (uT), MagY (uT), MagZ (uT), EulerX (deg), EulerY (deg), EulerZ (deg), QuatW, QuatX, QuatY, QuatZ, LinAccX (g), LinAccY (g), LinAccZ (g), Pressure (kPa), Altitude (m), Temperature (degC), HeaveMotion (m)
1, -0.0001, 0, -0.11663818, -1.13909912, 0.07940674, -12.24070740, 38.17845154, -89.83573151, -56.62086868, 2.48465347, -65.27330780, 58.35843277, -25.33937645, -137.70046997, -0.40707991, -0.00697185, -0.51272392, -0.75587803, -0.31323850, 0.37037396, -0.55297136, 100.26900482, 88.27654266, 29.22999954, 0.00000000
1, 0.0299, 1, -0.24597168, -1.01556396, 0.06732178, -10.17570686, 28.06344604, -81.15573120, -55.65623856, 1.92926037, -64.77638245, 58.22112656, -22.64922905, -138.26992798, -0.39438659, 0.00958895, -0.50684720, -0.76646799, -0.14079115, 0.23161376, -0.55294871, 100.26900482, 88.27654266, 29.22999954, 0.00000000
1, 0.0349, 2, -0.26336670, -0.99566650, 0.08489990, -8.84570599, 26.52344704, -79.82572937, -55.07161713, 2.19234133, -64.65945435, 58.21715927, -22.24009895, -138.37541199, -0.39230457, 0.01208903, -0.50605816, -0.76802099, -0.11676188, 0.20942506, -0.57205856, 100.26900482, 88.27654266, 29.22999954, 0.00000000
1, 0.0399, 3, -0.25878906, -0.97467041, 0.10247803, -7.83070612, 24.35344505, -78.98572540, -55.07161713, 2.19234133, -64.65945435, 58.22030640, -21.84025574, -138.48812866, -0.39019701, 0.01451507, -0.50533390, -0.76952809, -0.11483925, 0.18616641, -0.59100676, 100.26900482, 88.27654266, 29.22999954, 0.00000000
1, 0.0449, 4, -0.21069336, -0.95092773, 0.10827637, -7.02570581, 21.69344330, -78.14572144, -54.39929962, 1.28617358, -63.87021255, 58.23022461, -21.45096970, -138.61029053, -0.38805339, 0.01684678, -0.50467587, -0.77099484, -0.15657909, 0.16019949, -0.59802836, 100.26900482, 88.27654266, 29.22999954, 0.00000000
1, 0.0499, 5, -0.16674805, -0.92993164, 0.11456299, -5.55570507, 17.59844017, -77.55072784, -54.39929962, 1.28617358, -63.87021255, 58.25274277, -21.07496834, -138.74902344, -0.38583371, 0.01905219, -0.50413084, -0.77241278, -0.19432911, 0.13699739, -0.60535431, 100.26900482, 88.27654266, 29.22999954, 0.00000000
1, 0.0549, 6, -0.11145020, -0.91418457, 0.12713623, -2.89570427, 10.35344028, -76.29072571, -54.39929962, 1.28617358, -63.87021255, 58.29803467, -20.72328949, -138.91659546, -0.38349047, 0.02103036, -0.50379270, -0.77374798, -0.24381645, 0.11899954, -0.61852616, 100.26900482, 88.27654266, 29.22999954, 0.00000000
1, 0.0599, 7, -0.08154297, -0.90960693, 0.13665771, -1.32070374, 3.84343791, -75.17072296, -53.61005402, 1.31540489, -63.89944458, 58.35929489, -20.39332199, -139.10989380, -0.38103622, 0.02279025, -0.50361198, -0.77502716, -0.26824290, 0.11217400, -0.62833709, 100.26900482, 88.27654266, 29.22999954, 0.00000000
1, 0.0649, 8, -0.07391357, -0.89868164, 0.14392090, -0.16570343, -2.91156411, -73.84072876, -53.61005402, 1.31540489, -63.89944458, 58.43436432, -20.08649635, -139.32931519, -0.37847331, 0.02431144, -0.50357866, -0.77625740, -0.27075946, 0.09901991, -0.63559139, 100.26900482, 88.27654266, 29.22999954, 0.00000000
1, 0.1449, 9, -0.34436035, -0.70489502, 0.11157227, 12.50430107, 8.53343964, -49.37572098, -50.65770340, -1.49079216, -61.23940277, 60.16306686, -16.70636368, -143.16920471, -0.33954373, 0.03739097, -0.51023078, -0.78928864, 0.05590282, -0.12549236, -0.58827758, 100.26900482, 88.27654266, 29.22999954, 0.00000000
1, 0.1499, 10, -0.33795166, -0.69335938, 0.11041260, 13.97430229, 12.38344097, -48.39571762, -50.65770340, -1.49079216, -61.23940277, 60.25274658, -16.46560097, -143.23858643, -0.33812901, 0.03910181, -0.51044840, -0.78967232, 0.05350014, -0.13881002, -0.58641708, 100.26900482, 88.27654266, 29.22999954, 0.00000000
1, 0.1549, 11, -0.32189941, -0.68328857, 0.10754395, 15.72430134, 15.88344288, -47.13571930, -50.65770340, -1.49079216, -61.23940277, 60.34539795, -16.22153664, -143.28839111, -0.33683091, 0.04093080, -0.51067418, -0.78998834, 0.04152189, -0.15068412, -0.58280873, 100.26900482, 88.27654266, 29.22999954, 0.00000000
1, 0.1599, 12, -0.30725098, -0.67541504, 0.11230469, 17.89430237, 18.01844215, -45.52571487, -50.45308304, -1.14001751, -61.35632706, 60.44472122, -15.97911835, -143.32391357, -0.33563027, 0.04282919, -0.51094353, -0.79022443, 0.03094741, -0.16039503, -0.58672714, 100.26900482, 88.27654266, 29.22999954, 0.00000000
1, 0.1649, 13, -0.29101563, -0.67016602, 0.11022949, 20.13430214, 21.86844444, -43.35571289, -50.45308304, -1.14001751, -61.35632706, 60.54868317, -15.73660278, -143.33596802, -0.33458441, 0.04484453, -0.51123518, -0.79036760, 0.01878599, -0.16750373, -0.58372629, 100.26900482, 88.27654266, 29.22999954, 0.00000000
1, 0.1699, 14, -0.28277588, -0.65899658, 0.11553955, 21.63930321, 23.61844444, -41.43071747, -49.86845779, -0.96463019, -60.83016586, 60.65654755, -15.49815750, -143.33473206, -0.33363926, 0.04689901, -0.51155424, -0.79044145, 0.01456958, -0.18053786, -0.58802879, 100.26900482, 88.27654266, 29.22999954, 0.00000000
1, 0.1749, 15, -0.27203369, -0.65167236, 0.11468506, 23.45930290, 25.29844475, -39.50571060, -49.86845779, -0.96463019, -60.83016586, 60.77007675, -15.26399612, -143.32051086, -0.33279246, 0.04899471, -0.51191288, -0.79043907, 0.00778621, -0.18973872, -0.58606523, 100.26900482, 88.27654266, 29.22999954, 0.00000000
1, 0.1799, 16, -0.25732422, -0.64208984, 0.11596680, 25.52430344, 26.94344521, -37.19571304, -49.86845779, -0.96463019, -60.83016586, 60.89039993, -15.03594589, -143.29257202, -0.33205596, 0.05112527, -0.51232111, -0.79034936, -0.00305376, -0.20121318, -0.58611798, 100.26900482, 88.27654266, 29.22999954, 0.00000000
1, -0.0002, 0, -0.35236913, -1.02980721, 0.21034735, 21.69018173, 93.14213562, 82.79896545, -61.79479599, 15.96024513, -86.81671906, 89.55690765, -19.97094154, -70.50303650, -0.64138258, 0.49545121, -0.50089288, -0.30374789, 0.01196818, 0.08901777, -0.21994589, 100.34200287, 82.15006256, 29.21999931, 0.00000000
1, 0.1849, 17, -0.23803711, -0.63555908, 0.11743164, 27.93930435, 28.55344772, -34.78071213, -50.07307816, -0.49693072, -61.06401443, 61.01933289, -14.81459999, -143.25077820, -0.33143157, 0.05329209, -0.51279199, -0.79016292, -0.01858054, -0.20966005, -0.58620745, 100.26900482, 88.27654266, 29.22999954, 0.00000000
1, 0.1899, 18, -0.22113037, -0.63073730, 0.12268066, 30.59930611, 30.02344513, -31.91071320, -50.07307816, -0.49693072, -61.06401443, 61.15808868, -14.60235691, -143.19467163, -0.33093104, 0.05548355, -0.51333725, -0.78986782, -0.03186488, -0.21643147, -0.58990359, 100.26900482, 88.27654266, 29.22999954, 0.00000000
1, 0.2099, 19, -0.21484375, -0.63201904, 0.17730713, 40.18931198, 39.05345154, -17.14070892, -49.66384125, -2.86465931, -60.88862991, 61.80232620, -13.86852074, -142.76901245, -0.33065963, 0.06456354, -0.51619881, -0.78742278, -0.02555158, -0.22311950, -0.63659692, 100.26900482, 88.27654266, 29.22999954, 0.00000000
1, 0.2149, 20, -0.21154785, -0.63391113, 0.19122314, 41.69430923, 41.36345291, -13.99070835, -49.66384125, -2.86465931, -60.88862991, 61.97412491, -13.70936871, -142.61511230, -0.33099195, 0.06690113, -0.51699340, -0.78656632, -0.02611404, -0.22318777, -0.64827597, 100.26900482, 88.27654266, 29.22999954, 0.00000000
1, 0.0548, 1, -0.37975770, -0.72939622, -0.00643044, 41.56235123, 94.19547272, 57.47373962, -66.44255829, 19.78953552, -86.96287537, 89.29402161, -23.84327507, -64.85119629, -0.66541302, 0.50157392, -0.49273577, -0.25072023, -0.02336829, -0.18566298, -0.00700037, 100.34200287, 82.15006256, 29.21999931, 0.00000000
1, 0.0598, 2, -0.27717575, -0.68875659, -0.02042153, 43.15338135, 88.14551544, 53.20817566, -66.44255829, 19.78953552, -86.96287537, 89.31287384, -24.10265160, -64.36489868, -0.66693401, 0.50265157, -0.49180055, -0.24631821, -0.13013750, -0.22441085, 0.00755586, 100.34200287, 82.15006256, 29.21999931, 0.00000000
1, 0.2199, 21, -0.20281982, -0.63995361, 0.20593262, 42.95431137, 43.39345169, -11.05070496, -49.13768005, -0.58462435, -60.97632217, 62.14869308, -13.55890465, -142.44450378, -0.33146498, 0.06925978, -0.51780683, -0.78562737, -0.03225341, -0.21908456, -0.66067779, 100.26900482, 88.27654266, 29.22999954, 0.00000000
1, 0.2249, 22, -0.18353271, -0.64111328, 0.21704102, 44.00431061, 45.31845093, -8.11070538, -49.13768005, -0.58462435, -60.97632217, 62.32514954, -13.41747952, -142.25773621, -0.33207664, 0.07163265, -0.51863337, -0.78461039, -0.04910249, -0.21983680, -0.66941822, 100.26900482, 88.27654266, 29.22999954, 0.00000000
1, 0.2299, 23, -0.14678955, -0.63861084, 0.23004150, 45.01931381, 46.85845566, -5.94070435, -50.45308304, 0.11692487, -61.15171051, 62.50423813, -13.28266144, -142.05844116, -0.33279157, 0.07402329, -0.51947498, -0.78352797, -0.08353229, -0.22423300, -0.67998767, 100.26900482, 88.27654266, 29.22999954, 0.00000000
1, 0.0648, 3, -0.17761798, -0.65586317, -0.03953722, 44.29893875, 80.72972107, 49.09098816, -67.81642914, 19.90645981, -87.22595978, 89.35191345, -24.34216309, -63.91872787, -0.66821206, 0.50375932, -0.49099252, -0.24216859, -0.23353782, -0.25553435, 0.02753232, 100.34200287, 82.15006256, 29.21999931, 0.00000000
1, 0.0698, 4, -0.08957147, -0.63084972, -0.07183144, 44.90481186, 71.02960968, 45.62726974, -67.81642914, 19.90645981, -87.22595978, 89.41423035, -24.56530380, -63.52550125, -0.66921973, 0.50484627, -0.49038854, -0.23831549, -0.32511133, -0.27886850, 0.06100041, 100.34200287, 82.15006256, 29.21999931, 0.00000000
1, 0.0748, 5, -0.05921390, -0.61111546, -0.12432919, 44.69205093, 58.58928299, 42.84474945, -67.81642914, 19.90645981, -87.22595978, 89.50260162, -24.77569771, -63.20054245, -0.66992664, 0.50584877, -0.49007735, -0.23481810, -0.35872507, -0.29697767, 0.11491683, 100.34200287, 82.15006256, 29.21999931, 0.00000000
1, 0.2349, 24, -0.09869385, -0.64263916, 0.24157715, 46.66431427, 48.36345291, -3.52570343, -50.45308304, 0.11692487, -61.15171051, 62.68903351, -13.15571308, -141.84626770, -0.33361509, 0.07643392, -0.52035445, -0.78236192, -0.12943476, -0.22209615, -0.68900251, 100.26900482, 88.27654266, 29.22999954, 0.00000000
1, 0.2399, 25, -0.05407715, -0.65625000, 0.25225830, 47.74931717, 48.71345139, -1.88070309, -50.45308304, 0.11692487, -61.15171051, 62.87840271, -13.03595543, -141.62829590, -0.33449617, 0.07883427, -0.52126682, -0.78113919, -0.17198528, -0.21038055, -0.69705749, 100.26900482, 88.27654266, 29.22999954, 0.00000000
1, 0.2449, 26, -0.01562500, -0.66961670, 0.25732422, 48.90431595, 48.85345459, 0.25429770, -49.78076553, -0.43846828, -60.77170181, 63.07263184, -12.92610455, -141.40440369, -0.33544621, 0.08120698, -0.52221912, -0.77985150, -0.20852515, -0.19890127, -0.69940174, 100.26900482, 88.27654266, 29.22999954, 0.00000000
1, 0.0798, 6, -0.06592706, -0.54270899, -0.19463292, 45.16450500, 45.38668823, 40.14049530, -67.67027283, 19.67260933, -86.81671906, 89.62285614, -24.97370148, -62.94835663, -0.67030525, 0.50678062, -0.49009156, -0.23167787, -0.35502830, -0.36380678, 0.18709472, 100.34200287, 82.15006256, 29.21999931, 0.00000000
1, 0.0848, 7, -0.05968488, -0.51584804, -0.14509942, 48.84098434, 29.13241959, 38.02376556, -67.67027283, 19.67260933, -86.81671906, 89.79884338, -25.16215515, -62.78612518, -0.67022687, 0.50769591, -0.49056685, -0.22887784, -0.36441457, -0.38935277, 0.14004658, 100.34200287, 82.15006256, 29.21999931, 0.00000000
1, 0.0898, 8, -0.04712279, -0.48752499, -0.01683074, 54.83366394, 0.46009311, 34.56504440, -67.90412140, 22.44957542, -86.31978607, 90.07233429, -25.32965469, -62.78316879, -0.66935217, 0.50858879, -0.49184129, -0.22671002, -0.38003820, -0.41660404, 0.01591216, 100.34200287, 82.15006256, 29.21999931, 0.00000000
1, 0.2499, 27, 0.02514648, -0.68176270, 0.25531006, 49.88431549, 48.39845276, 2.28429842, -49.78076553, -0.43846828, -60.77170181, 63.27151871, -12.82708263, -141.17761230, -0.33644840, 0.08353156, -0.52321392, -0.77850634, -0.24756491, -0.18862963, -0.69456685, 100.26900482, 88.27654266, 29.22999954, 0.00000000
1, 0.2549, 28, 0.07006836, -0.69500732, 0.24945068, 51.17931366, 47.80345154, 4.52429914, -50.21923447, 0.05846244, -61.09324646, 63.47664261, -12.74018478, -140.94812012, -0.33750528, 0.08580303, -0.52426481, -0.77709365, -0.29095456, -0.17725021, -0.68577075, 100.26900482, 88.27654266, 29.22999954, 0.00000000
1, 0.0948, 9, -0.05778302, -0.47714689, 0.02344166, 56.54980850, -18.83005333, 30.50808144, -67.90412140, 22.44957542, -86.31978607, 90.40036774, -25.48123550, -62.88780594, -0.66799033, 0.50940251, -0.49362227, -0.22502279, -0.37191910, -0.42587686, -0.01939566, 100.34200287, 82.15006256, 29.21999931, 0.00000000
1, 0.0998, 10, -0.09942818, -0.47216073, -0.01416715, 57.37661362, -32.39714050, 25.68750000, -67.90412140, 22.44957542, -86.31978607, 90.76552582, -25.60755920, -63.06853867, -0.66626471, 0.51020539, -0.49569583, -0.22375759, -0.33227387, -0.42975372, 0.02373013, 100.34200287, 82.15006256, 29.21999931, 0.00000000
1, 0.2849, 29, 0.26757813, -0.77246094, 0.26055908, 55.09931946, 40.17345047, 21.11430359, -50.27769470, 0.49693072, -60.45016098, 64.79108429, -12.56503391, -139.51338196, -0.34541142, 0.09757139, -0.53162020, -0.76717067, -0.48506829, -0.11022992, -0.67715740, 100.26900482, 88.27654266, 29.22999954, 0.00000000
1, 0.2899, 30, 0.26593018, -0.79986572, 0.26049805, 54.78431702, 36.21844864, 23.07430649, -50.27769470, 0.49693072, -60.45016098, 65.01747894, -12.59270096, -139.29522705, -0.34678906, 0.09907375, -0.53300399, -0.76539451, -0.48381138, -0.08438738, -0.67356414, 100.26900482, 88.27654266, 29.22999954, 0.00000000
1, 0.2949, 31, 0.25976563, -0.82513428, 0.25799561, 53.59431458, 32.92844772, 25.13930511, -50.77462769, 0.99386144, -60.53785324, 65.24019623, -12.63749599, -139.08799744, -0.34816116, 0.10039931, -0.53440189, -0.76362187, -0.47833881, -0.06058529, -0.66753900, 100.26900482, 88.27654266, 29.22999954, 0.00000000
1, 0.2999, 32, 0.25433350, -0.83331299, 0.24865723, 52.01931763, 29.53344727, 26.74930573, -50.77462769, 0.99386144, -60.53785324, 65.45758820, -12.69745922, -138.89326477, -0.34951177, 0.10154945, -0.53580159, -0.76187015, -0.47386855, -0.05376724, -0.65472651, 100.26900482, 88.27654266, 29.22999954, 0.00000000
1, 0.3049, 33, 0.24877930, -0.85192871, 0.23437500, 51.10931396, 25.78844452, 28.18430710, -50.74539566, 2.04618526, -60.59631729, 65.67343140, -12.77242088, -138.71315002, -0.35082373, 0.10252684, -0.53723007, -0.76012820, -0.46951708, -0.03642744, -0.63698792, 100.26900482, 88.27654266, 29.22999954, 0.00000000
1, 0.1848, 11, -0.49621341, -0.42311689, -0.00976143, 60.04888916, -6.22974730, -78.91440582, -69.21952820, 23.53113174, -79.94738007, 97.81559753, -22.93918610, -66.75466156, -0.62035215, 0.54487854, -0.51548320, -0.22923315, 0.10486850, -0.48870736, 0.13183682, 100.34200287, 82.15006256, 29.21999931, 0.00000000
1, 0.1898, 12, -0.47358203, -0.42631066, -0.01099273, 59.29306030, -0.84534377, -84.41984558, -68.57643890, 21.19263268, -80.21046448, 98.08668518, -22.52636909, -66.69576263, -0.61810100, 0.54833025, -0.51410395, -0.23017865, 0.08883724, -0.48765433, 0.13789876, 100.34200287, 82.15006256, 29.21999931, 0.00000000
1, 0.3099, 34, 0.24230957, -0.86962891, 0.23455811, 50.19931412, 21.93844414, 29.47930527, -50.74539566, 2.04618526, -60.59631729, 65.88792419, -12.86183357, -138.54855347, -0.35208973, 0.10333155, -0.53868914, -0.75839925, -0.46449208, -0.01993361, -0.63369787, 100.26900482, 88.27654266, 29.22999954, 0.00000000
1, 0.3149, 35, 0.23834229, -0.89538574, 0.23126221, 48.58931351, 15.91844273, 31.05430603, -50.74539566, 2.04618526, -60.59631729, 66.09970856, -12.97128868, -138.40914917, -0.35327125, 0.10387453, -0.54019070, -0.75670582, -0.46232510, 0.00472743, -0.62693685, 100.26900482, 88.27654266, 29.22999954, 0.00000000
1, 0.3199, 36, 0.23278809, -0.92224121, 0.22241211, 47.18931580, 11.64844131, 32.38430786, -51.41771317, 1.87079799, -59.63168716, 66.30819702, -13.09594536, -138.28738403, -0.35439998, 0.10422289, -0.54171419, -0.75503904, -0.45882550, 0.03057514, -0.61463356, 100.26900482, 88.27654266, 29.22999954, 0.00000000
1, 0.1948, 13, -0.45715532, -0.42878252, -0.01212853, 58.92163467, 1.95241535, -90.86813354, -68.57643890, 21.19263268, -80.21046448, 98.34982300, -22.07724762, -66.61579895, -0.61581624, 0.55196697, -0.51246148, -0.23127100, 0.07951181, -0.48747438, 0.14369938, 100.34200287, 82.15006256, 29.21999931, 0.00000000
1, 0.1998, 14, -0.45721310, -0.43021145, -0.02564229, 57.88591385, 6.95138788, -96.37921143, -68.72259521, 22.94650650, -79.74276733, 98.59608459, -21.60486221, -66.50298309, -0.61359817, 0.55573630, -0.51052952, -0.23240936, 0.08713667, -0.48843294, 0.16167626, 100.34200287, 82.15006256, 29.21999931, 0.00000000
1, 0.2048, 15, -0.46266317, -0.44414598, -0.04454934, 57.45029449, 9.66199207, -100.65552521, -68.72259521, 22.94650650, -79.74276733, 98.83384705, -21.11381721, -66.37055206, -0.61139262, 0.55960256, -0.50840408, -0.23360088, 0.10053398, -0.47695562, 0.18485999, 100.34200287, 82.15006256, 29.21999931, 0.00000000
1, 0.3249, 37, 0.21984863, -0.94372559, 0.21179199, 45.71931458, 7.55343866, 34.13431168, -51.41771317, 1.87079799, -59.63168716, 66.51272583, -13.23723602, -138.18170166, -0.35549402, 0.10437161, -0.54325718, -0.75339389, -0.44821340, 0.05115745, -0.60059881, 100.26900482, 88.27654266, 29.22999954, 0.00000000
1, 0.3299, 38, 0.21032715, -0.96575928, 0.20587158, 44.24930954, 3.35343766, 36.05931091, -51.30078888, 2.22157264, -60.07015610, 66.71339417, -13.39605713, -138.09234619, -0.35655618, 0.10431314, -0.54482228, -0.75176805, -0.44131744, 0.07239692, -0.59128827, 100.26900482, 88.27654266, 29.22999954, 0.00000000
1, 0.2098, 16, -0.47342145, -0.48704371, -0.04973708, 57.97853470, 12.16311932, -104.56352997, -68.72259521, 22.94650650, -79.74276733, 99.06883240, -20.60589027, -66.21998596, -0.60917342, 0.56358004, -0.50610834, -0.23481821, 0.11951499, -0.43656719, 0.19422901, 100.34200287, 82.15006256, 29.21999931, 0.00000000
1, 0.2148, 17, -0.49044812, -0.53099287, -0.02740694, 58.20304489, 13.33532524, -108.35913849, -67.90412140, 22.33265114, -79.12890625, 99.30229187, -20.08073425, -66.05832672, -0.60691869, 0.56764305, -0.50367612, -0.23609647, 0.14499950, -0.39518583, 0.17606837, 100.34200287, 82.15006256, 29.21999931, 0.00000000
1, 0.2198, 18, -0.49374270, -0.51451194, -0.00216378, 56.30613708, 13.41445923, -112.36410522, -67.90412140, 22.33265114, -79.12890625, 99.52575684, -19.53650665, -65.89112091, -0.60465354, 0.57172740, -0.50110811, -0.23751369, 0.15708230, -0.41427320, 0.15502889, 100.34200287, 82.15006256, 29.21999931, 0.00000000
1, 0.3499, 39, 0.22058105, -1.04510498, 0.14392090, 33.53930664, -14.14656830, 40.32931137, -52.38234329, 2.77696586, -59.80707169, 67.43753815, -14.17230892, -137.90861511, -0.36033064, 0.10206266, -0.55097812, -0.74576682, -0.46450704, 0.14980283, -0.51665795, 100.26900482, 88.27654266, 29.22999954, 0.00000000
1, 0.3549, 40, 0.25244141, -1.06683350, 0.11157227, 31.50930595, -17.36656761, 40.85431290, -51.62233353, 3.01081562, -59.25167847, 67.59561920, -14.39425278, -137.91078186, -0.36110121, 0.10101051, -0.55245686, -0.74444228, -0.50008613, 0.17136762, -0.48145288, 100.26900482, 88.27654266, 29.22999954, 0.00000000
1, 0.3599, 41, 0.26995850, -1.07312012, 0.07916260, 29.33930588, -20.83156776, 41.30931091, -51.62233353, 3.01081562, -59.25167847, 67.74694824, -14.62488461, -137.92927551, -0.36181051, 0.09980006, -0.55391860, -0.74317384, -0.52146399, 0.17758971, -0.44627142, 100.26900482, 88.27654266, 29.22999954, 0.00000000
1, 0.3649, 42, 0.27349854, -1.07476807, 0.05725098, 27.16930580, -23.49157143, 41.65931320, -51.62233353, 3.01081562, -59.25167847, 67.89073181, -14.86210728, -137.96041870, -0.36247420, 0.09846007, -0.55535030, -0.74195963, -0.52898961, 0.17927468, -0.42168853, 100.26900482, 88.27654266, 29.22999954, 0.00000000
1, 0.3699, 43, 0.30102539, -1.07110596, 0.03875732, 25.10430336, -25.20657158, 41.30931091, -51.97310638, 2.30926633, -59.16398621, 68.02677155, -15.10085011, -138.00111389, -0.36309186, 0.09703982, -0.55673760, -0.74080426, -0.56053597, 0.17573082, -0.40063623, 100.26900482, 88.27654266, 29.22999954, 0.00000000
1, 0.2248, 19, -0.49404284, -0.48521790, 0.00273029, 54.50486374, 11.63100815, -115.64352417, -67.99181366, 22.27418900, -79.47968292, 99.74327087, -18.97526169, -65.72872162, -0.60234171, 0.57579923, -0.49847138, -0.23909414, 0.16654271, -0.44616070, 0.15426528, 100.34200287, 82.15006256, 29.21999931, 0.00000000
1, 0.2298, 20, -0.48683235, -0.46359536, -0.00336514, 53.86994171, 10.60795593, -118.25370026, -67.99181366, 22.27418900, -79.47968292, 99.95953369, -18.40088463, -65.56763458, -0.59997731, 0.57988191, -0.49577382, -0.24077526, 0.16878581, -0.47033656, 0.16448537, 100.34200287, 82.15006256, 29.21999931, 0.00000000
1, 0.3749, 44, 0.34710693, -1.06646729, 0.02166748, 22.96930313, -26.78157425, 41.16931534, -51.97310638, 2.30926633, -59.16398621, 68.15451050, -15.34179020, -138.05027771, -0.36367372, 0.09553769, -0.55807710, -0.73970538, -0.61066484, 0.17129155, -0.38110644, 100.26900482, 88.27654266, 29.22999954, 0.00000000
1, 0.3799, 45, 0.40820313, -1.06365967, 0.01086426, 20.90430260, -29.51156998, 41.51931381, -51.97310638, 2.77696586, -58.25782013, 68.27561951, -15.58931446, -138.11250305, -0.36420688, 0.09390560, -0.55939144, -0.73865843, -0.67589474, 0.16877238, -0.36795866, 100.26900482, 88.27654266, 29.22999954, 0.00000000
1, 0.3849, 46, 0.41735840, -1.06170654, 0.00482178, 19.18930435, -33.22157288, 41.62430954, -51.97310638, 2.77696586, -58.25782013, 68.39340210, -15.84405136, -138.19305420, -0.36465779, 0.09212364, -0.56070679, -0.73766249, -0.68928611, 0.16718958, -0.35963607, 100.26900482, 88.27654266, 29.22999954, 0.00000000
1, 0.3448, 21, -0.35170552, -1.00873804, 0.13045593, 2.52322340, -66.47958374, -103.03306580, -59.83630371, 13.85559750, -73.39958954, 104.05641174, -3.46375632, -67.80638123, -0.52372164, 0.64361453, -0.45494699, -0.32326341, 0.28844666, 0.04037039, 0.10932721, 100.34200287, 82.15006256, 29.21999931, 0.00000000
1, 0.3498, 22, -0.35846233, -1.01347840, 0.12752928, -0.22726442, -62.15777206, -101.21252441, -58.95936966, 13.32943535, -73.01958466, 104.06400299, -2.89765072, -67.98611450, -0.52106470, 0.64472306, -0.45351893, -0.32732925, 0.30513749, 0.04460524, 0.11256510, 100.34200287, 82.15006256, 29.21999931, 0.00000000
1, 0.3548, 23, -0.35117626, -1.01615131, 0.12077022, -2.30362678, -57.62860107, -99.08016968, -58.95936966, 13.32943535, -73.01958466, 104.05860138, -2.34737015, -68.14633942, -0.51857257, 0.64579040, -0.45200634, -0.33125168, 0.30753130, 0.04682714, 0.11941200, 100.34200287, 82.15006256, 29.21999931, 0.00000000
1, 0.3598, 24, -0.33577466, -1.00977480, 0.12023824, -3.74100304, -52.83277512, -96.21348572, -58.95936966, 13.32943535, -73.01958466, 104.04380798, -1.81682241, -68.28675842, -0.51624441, 0.64682281, -0.45043412, -0.33499435, 0.30148232, 0.04004660, 0.11986593, 100.34200287, 82.15006256, 29.21999931, 0.00000000
1, 0.3648, 25, -0.30872130, -1.01768351, 0.12722123, -4.48011160, -47.14037323, -94.17558289, -58.05319977, 12.71557999, -72.52265167, 104.02342987, -1.30309594, -68.40213776, -0.51406699, 0.64786786, -0.44877052, -0.33853731, 0.28346127, 0.04760562, 0.11268504, 100.34200287, 82.15006256, 29.21999931, 0.00000000
1, 0.3899, 47, 0.41986084, -1.05346680, 0.00286865, 16.84430122, -39.17157364, 41.41431427, -51.97310638, 2.77696586, -58.25782013, 68.50800323, -16.10858345, -138.30342102, -0.36496347, 0.09011736, -0.56203681, -0.73674643, -0.69620502, 0.15940815, -0.35541868, 100.26900482, 88.27654266, 29.22999954, 0.00000000
1, 0.3949, 48, 0.40924072, -1.03997803, -0.00256348, 14.81430149, -42.74157715, 40.99431229, -52.26541901, 3.80005836, -58.69628525, 68.61820984, -16.37747574, -138.43260193, -0.36517352, 0.08797365, -0.56335288, -0.73589575, -0.69007415, 0.14644758, -0.34777114, 100.26900482, 88.27654266, 29.22999954, 0.00000000
1, 0.3698, 26, -0.24424960, -1.03253984, 0.12890129, -5.57298899, -38.57003021, -91.71406555, -58.05319977, 12.71557999, -72.52265167, 103.99585724, -0.81166905, -68.47907257, -0.51211423, 0.64895409, -0.44695866, -0.34179765, 0.22763124, 0.06217557, 0.11074158, 100.34200287, 82.15006256, 29.21999931, 0.00000000
1, 0.3748, 27, -0.20487207, -1.03512347, 0.11511312, -6.17965651, -34.97021484, -89.51740265, -57.26395798, 11.92633724, -72.02572632, 103.96446991, -0.33526525, -68.54141235, -0.51027215, 0.65002602, -0.44511122, -0.34491253, 0.19666737, 0.06455363, 0.12412754, 100.34200287, 82.15006256, 29.21999931, 0.00000000
1, 0.3798, 28, -0.17866336, -1.03633487, 0.07460650, -6.56341791, -32.07385254, -86.95477295, -57.26395798, 11.92633724, -72.02572632, 103.93067932, 0.12518042, -68.59303284, -0.50852686, 0.65107238, -0.44325852, -0.34788954, 0.17866683, 0.06566130, 0.16414225, 100.34200287, 82.15006256, 29.21999931, 0.00000000
1, 0.4199, 49, 0.34289551, -0.91351318, -0.04376221, 5.08429813, -37.87657547, 42.46430969, -51.76848984, 3.74159598, -57.73165512, 69.02687836, -17.73573494, -139.10635376, -0.36625344, 0.07654803, -0.56892985, -0.73233718, -0.64642602, 0.02390346, -0.29750371, 100.26900482, 88.27654266, 29.22999954, 0.00000000
1, 0.4249, 50, 0.31951904, -0.89556885, -0.04248047, 5.74929857, -35.11157608, 41.48431396, -51.76848984, 3.74159598, -57.73165512, 69.08456421, -17.99220848, -139.20071411, -0.36668721, 0.07448792, -0.56981158, -0.73164672, -0.62735438, 0.00690854, -0.29740053, 100.26900482, 88.27654266, 29.22999954, 0.00000000
1, 0.4299, 51, 0.36608887, -0.92474365, -0.00848389, 6.58929873, -31.12157631, 41.44931030, -52.41157532, 3.94621444, -58.17012405, 69.14088440, -18.24131203, -139.27592468, -0.36721435, 0.07256904, -0.57065296, -0.73091906, -0.67807734, 0.03700794, -0.33002374, 100.26900482, 88.27654266, 29.22999954, 0.00000000
1, 0.4349, 52, 0.43518066, -0.91973877, -0.03924561, 6.86929893, -26.85157204, 44.03931427, -52.41157532, 3.94621444, -58.17012405, 69.19087219, -18.49486160, -139.32562256, -0.36792761, 0.07072598, -0.57144010, -0.73012555, -0.75134164, 0.03299216, -0.29798049, 100.26900482, 88.27654266, 29.22999954, 0.00000000
1, 0.4399, 53, 0.45684814, -0.91546631, -0.08721924, 8.40929890, -23.00156975, 44.87931442, -52.41157532, 3.94621444, -58.17012405, 69.24230957, -18.74547005, -139.35505676, -0.36875704, 0.06900901, -0.57221437, -0.72926462, -0.77719152, 0.02973301, -0.24872066, 100.26900482, 88.27654266, 29.22999954, 0.00000000
1, 0.4449, 54, 0.55682373, -0.94360352, -0.11938477, 9.49429989, -17.54156685, 42.60430908, -51.50540543, 4.64776373, -57.43934631, 69.29203033, -18.97574234, -139.36204529, -0.36964542, 0.06753972, -0.57292569, -0.72839338, -0.88106656, 0.05881701, -0.21530695, 100.26900482, 88.27654266, 29.22999954, 0.00000000
1, 0.4499, 55, 0.69244385, -0.96423340, -0.11511230, 10.85930061, -14.77656937, 38.92931366, -51.50540543, 4.64776373, -57.43934631, 69.34645081, -19.18393517, -139.36244202, -0.37048066, 0.06627197, -0.57362282, -0.72753632, -1.02020967, 0.08027790, -0.21834154, 100.26900482, 88.27654266, 29.22999954, 0.00000000
1, 0.4549, 56, 0.76184082, -0.99090576, -0.09088135, 13.83430195, -16.14156723, 35.32431030, -52.73311996, 4.06313944, -57.14703369, 69.42029572, -19.37766266, -139.37655640, -0.37115744, 0.06509901, -0.57442409, -0.72666448, -1.09284639, 0.10761541, -0.24113184, 100.26900482, 88.27654266, 29.22999954, 0.00000000
1, 0.3848, 29, -0.16234095, -1.04575384, 0.04958171, -6.98787022, -28.72779465, -84.27575684, -57.26395798, 11.92633724, -72.02572632, 103.89447021, 0.56857836, -68.63188171, -0.50689089, 0.65209830, -0.44139415, -0.35071456, 0.17022140, 0.07500301, 0.18858333, 100.34200287, 82.15006256, 29.21999931, 0.00000000
1, 0.3898, 30, -0.12925200, -1.05039752, 0.05739914, -7.82682371, -26.26993561, -81.01673889, -56.62086868, 11.75094986, -72.05495453, 103.84806824, 0.98898572, -68.66307831, -0.50541788, 0.65303266, -0.43955016, -0.35340744, 0.14456788, 0.07954179, 0.18010363, 100.34200287, 82.15006256, 29.21999931, 0.00000000
1, 0.4599, 57, 0.74853516, -1.01385498, -0.05548096, 16.91430092, -18.73156929, 33.81930923, -52.73311996, 4.06313944, -57.14703369, 69.51490784, -19.56886673, -139.40667725, -0.37171161, 0.06393129, -0.57535887, -0.72574484, -1.08268964, 0.13107978, -0.27474308, 100.26900482, 88.27654266, 29.22999954, 0.00000000
1, 0.4649, 58, 0.75286865, -1.06353760, -0.04016113, 17.40430069, -19.92156792, 32.03430939, -53.14235687, 4.99853849, -57.55627060, 69.61530304, -19.75373840, -139.44642639, -0.37217677, 0.06277841, -0.57632148, -0.72484267, -1.09009886, 0.18121558, -0.28814179, 100.26900482, 88.27654266, 29.22999954, 0.00000000
1, 0.4999, 59, -0.21520996, -1.18383789, 0.31445313, 2.03929734, -27.69157410, 39.59431458, -53.31774139, 5.43700647, -57.49780655, 70.24410248, -21.20884514, -140.10293579, -0.37381372, 0.05144346, -0.58291829, -0.71959931, -0.14564461, 0.30614847, -0.62980103, 100.26900482, 88.27654266, 29.22999954, 0.00000000
1, 0.5049, 60, -0.22894287, -1.22302246, 0.32910156, 1.37429714, -14.18156719, 34.06430817, -53.05466080, 5.64162540, -57.11780167, 70.25453949, -21.39310646, -140.11279297, -0.37451902, 0.05015408, -0.58326840, -0.71903974, -0.13513699, 0.34642425, -0.64377749, 100.26900482, 88.27654266, 29.22999954, 0.00000000
1, 0.4648, 31, 0.03244566, -1.12572706, 0.09570969, 4.88715839, 1.05587435, -18.69521332, -52.82081223, 7.89242887, -71.06109619, 103.75625610, 4.73662806, -69.10876465, -0.48955816, 0.66183197, -0.42481533, -0.37662068, 0.04952342, 0.15751323, 0.13940153, 100.34200287, 82.15006256, 29.21999931, 0.00000000
1, 0.4698, 32, 0.15777361, -1.12259233, 0.17019780, 0.15601559, 2.66116929, -11.76154613, -52.82081223, 7.89242887, -71.06109619, 103.75913239, 4.79064274, -69.08184052, -0.48941004, 0.66209626, -0.42442104, -0.37679332, -0.07486146, 0.15439391, 0.06539801, 100.34200287, 82.15006256, 29.21999931, 0.00000000
1, 0.4748, 33, 0.28392807, -0.99715590, 0.20537245, -7.14714098, -0.38575020, 9.67568111, -52.82081223, 8.68167210, -70.88570404, 103.72239685, 4.74398518, -69.09519958, -0.48976836, 0.66175836, -0.42459190, -0.37672883, -0.20153531, 0.02874370, 0.03025551, 100.34200287, 82.15006256, 29.21999931, 0.00000000
1, 0.4798, 34, 0.15152830, -0.91931391, 0.14441746, -6.94918299, -40.67652130, 34.16069794, -52.82081223, 8.68167210, -70.88570404, 103.66859436, 4.62572145, -69.33383942, -0.48977560, 0.66030782, -0.42633465, -0.37729597, -0.07066324, -0.04933869, 0.09019607, 100.34200287, 82.15006256, 29.21999931, 0.00000000
1, 0.4848, 35, 0.01591224, -0.88004887, 0.13288550, -0.80384582, -51.14136505, 50.16735077, -52.82081223, 8.68167210, -70.88570404, 103.64080811, 4.44180727, -69.64220428, -0.48967046, 0.65851462, -0.42886043, -0.37770391, 0.06207774, -0.08896021, 0.10089423, 100.34200287, 82.15006256, 29.21999931, 0.00000000
1, 0.5099, 61, -0.07312012, -1.30438232, 0.31994629, 1.79429734, 4.78843832, 24.85930443, -53.05466080, 5.64162540, -57.11780167, 70.23814392, -21.50199890, -140.04345703, -0.37541664, 0.04970086, -0.58330041, -0.71857697, -0.29306215, 0.42860615, -0.63447243, 100.26900482, 88.27654266, 29.22999954, 0.00000000
1, 0.5149, 62, 0.28796387, -1.37719727, 0.22741699, 0.32429671, 26.17344666, 13.93930244, -52.93773651, 5.81701231, -57.58549881, 70.18191528, -21.52326965, -139.88574219, -0.37651879, 0.05017195, -0.58291149, -0.71828306, -0.65484059, 0.50193548, -0.54256451, 100.26900482, 88.27654266, 29.22999954, 0.00000000
1, 0.5199, 63, 0.71362305, -1.42926025, 0.10479736, 0.70929694, 41.32844925, 4.13929939, -52.93773651, 5.81701231, -57.58549881, 70.10612488, -21.47254562, -139.66929626, -0.37769753, 0.05137348, -0.58226275, -0.71810544, -1.07994676, 0.55419403, -0.42112917, 100.26900482, 88.27654266, 29.22999954, 0.00000000
1, 0.5249, 64, 1.07098389, -1.49029541, 0.04132080, 3.43929791, 48.22345352, -3.94570398, -52.93773651, 5.81701231, -57.58549881, 70.03701782, -21.37181282, -139.43299866, -0.37879050, 0.05304127, -0.58156556, -0.71797347, -1.43584991, 0.61508787, -0.35894355, 100.26900482, 88.27654266, 29.22999954, 0.00000000
1, 0.5299, 65, 1.26501465, -1.51892090, 0.08312988, 4.38429785, 48.18845749, -8.84570599, -53.84390640, 4.44314528, -57.52703857, 69.97650146, -21.24786186, -139.20622253, -0.37972513, 0.05484769, -0.58088458, -0.71789527, -1.62792206, 0.64333874, -0.40196171, 100.26900482, 88.27654266, 29.22999954, 0.00000000
1, 0.5349, 66, 1.14392090, -1.46063232, 0.22064209, -2.65070438, 37.16344833, -4.71570444, -53.84390640, 4.44314528, -57.52703857, 69.89867401, -21.16197586, -139.02767944, -0.38052517, 0.05608732, -0.58017379, -0.71795064, -1.50522590, 0.58486706, -0.54078859, 100.26900482, 88.27654266, 29.22999954, 0.00000000
1, 0.4898, 36, 0.01419504, -0.87250102, 0.25453299, 9.37022972, -50.66566086, 66.03297424, -52.96696854, 9.09090900, -70.50569916, 103.66664124, 4.17912531, -69.96655273, -0.48952743, 0.65665215, -0.43200666, -0.37754619, 0.05928282, -0.09697458, -0.02048332, 100.34200287, 82.15006256, 29.21999931, 0.00000000
1, 0.4948, 37, 0.07851690, -0.98236203, 0.43559885, 16.91711044, -52.89274979, 84.74190521, -52.96696854, 9.09090900, -70.50569916, 103.72729492, 3.82969952, -70.32408142, -0.48943430, 0.65454423, -0.43584076, -0.37692022, -0.01119192, 0.01242128, -0.20054016, 100.34200287, 82.15006256, 29.21999931, 0.00000000
1, 0.4998, 38, 0.08641033, -1.13316178, 0.44637597, 14.34712982, -56.74253082, 103.57598877, -52.90850449, 9.61707115, -70.73954773, 103.77519226, 3.39362788, -70.72283936, -0.48963907, 0.65194595, -0.44024310, -0.37604022, -0.02634383, 0.16297090, -0.21051997, 100.34200287, 82.15006256, 29.21999931, 0.00000000
1, 0.5399, 67, 0.90362549, -1.35858154, 0.29345703, -10.14070702, 25.01844597, 4.48929930, -54.39929962, 5.72931862, -57.67319489, 69.79956055, -21.13995934, -138.89346313, -0.38132372, 0.05658900, -0.57945138, -0.71807104, -1.26428509, 0.48310888, -0.61512780, 100.26900482, 88.27654266, 29.22999954, 0.00000000
1, 0.5449, 68, 0.56695557, -1.25891113, 0.28564453, -17.66571045, 10.24843979, 15.02430248, -54.39929962, 5.72931862, -57.67319489, 69.68254852, -21.19269371, -138.81401062, -0.38209698, 0.05623627, -0.57876414, -0.71824193, -0.92817426, 0.38427684, -0.60896420, 100.26900482, 88.27654266, 29.22999954, 0.00000000
1, 0.5048, 39, -0.00792892, -1.15666699, 0.24059576, 9.93638039, -59.66939545, 116.63681793, -52.90850449, 9.61707115, -70.73954773, 103.80279541, 2.89778924, -71.15138245, -0.49011260, 0.64893591, -0.44499418, -0.37503618, 0.06008496, 0.18647474, -0.00437869, 100.34200287, 82.15006256, 29.21999931, 0.00000000
1, 0.5098, 40, -0.09188038, -1.05087590, 0.11242398, 16.63087082, -56.75148773, 119.39026642, -52.90850449, 9.61707115, -70.73954773, 103.86815643, 2.38551545, -71.56916046, -0.49048170, 0.64604241, -0.44985479, -0.37374803, 0.13544156, 0.08068856, 0.12472645, 100.34200287, 82.15006256, 29.21999931, 0.00000000
1, 0.5699, 69, 0.09460449, -1.20928955, 0.11059570, -10.03570747, 14.90344238, 10.40430069, -54.54545212, 5.52470016, -58.08243179, 69.11466217, -21.59453964, -138.62107849, -0.38522378, 0.05252519, -0.57576251, -0.71926439, -0.46263850, 0.34046978, -0.44181037, 100.26900482, 88.27654266, 29.22999954, 0.00000000
1, 0.5749, 70, 0.29382324, -1.48016357, 0.11547852, 0.74429679, 29.18344879, 5.01429939, -54.54545212, 5.52470016, -58.08243179, 69.06092072, -21.56587029, -138.46485901, -0.38611224, 0.05332759, -0.57530636, -0.71909404, -0.66154706, 0.61156905, -0.44762695, 100.26900482, 88.27654266, 29.22999954, 0.00000000
1, 0.5799, 71, 0.51269531, -1.83813477, 0.00970459, 3.12429786, 35.83345032, 0.74429786, -53.96083069, 5.84624386, -58.46243668, 69.00999451, -21.50523949, -138.28358459, -0.38702729, 0.05448578, -0.57480162, -0.71891880, -0.87955844, 0.96951157, -0.34272873, 100.26900482, 88.27654266, 29.22999954, 0.00000000
1, 0.5849, 72, 0.79132080, -2.13684082, -0.11901855, 0.70929688, 38.87845230, -4.22570372, -53.96083069, 5.84624386, -58.46243668, 68.94517517, -21.41578293, -138.09674072, -0.38786760, 0.05582319, -0.57415640, -0.71887892, -1.15684247, 1.26808214, -0.21512491, 100.26900482, 88.27654266, 29.22999954, 0.00000000
1, 0.5899, 73, 1.09936523, -2.28662109, -0.14807129, -2.37070394, 36.32345200, -6.81570482, -55.21777344, 5.87547493, -58.63782501, 68.87182617, -21.31863022, -137.92797852, -0.38856903, 0.05709308, -0.57344997, -0.71896428, -1.46330404, 1.41770267, -0.18738239, 100.26900482, 88.27654266, 29.22999954, 0.00000000
1, 0.5598, 41, 0.29025769, -1.61540937, 0.30318063, 27.39516068, 55.20678711, 76.21379089, -54.86699677, 11.89710617, -69.74568939, 104.96474457, -0.92055124, -71.99040222, -0.49645489, 0.63882780, -0.47010046, -0.35275656, -0.30517480, 0.64878261, -0.04743741, 100.34200287, 82.15006256, 29.21999931, 0.00000000
1, 0.5648, 42, 0.52557838, -1.64448297, 0.22565322, 9.89220047, 23.15008926, 76.19828796, -55.13007736, 11.25401878, -70.21338654, 105.01495361, -1.31837046, -71.97650146, -0.49781957, 0.63783896, -0.47187129, -0.35024959, -0.54749227, 0.67845237, 0.03188896, 100.34200287, 82.15006256, 29.21999931, 0.00000000
1, 0.5949, 74, 1.27331543, -2.23474121, -0.07360840, -7.41070652, 25.12344551, -4.96070385, -55.21777344, 5.87547493, -58.63782501, 68.79262543, -21.25014114, -137.81185913, -0.38906026, 0.05787963, -0.57277876, -0.71917075, -1.63598919, 1.36581874, -0.26320207, 100.26900482, 88.27654266, 29.22999954, 0.00000000
1, 0.5999, 75, 1.06561279, -1.82940674, 0.06231689, -14.97070789, 7.23843908, -0.23570250, -55.21777344, 5.87547493, -58.63782501, 68.70481873, -21.23593140, -137.77612305, -0.38927153, 0.05785848, -0.57218540, -0.71953046, -1.42781949, 0.96081769, -0.40048745, 100.26900482, 88.27654266, 29.22999954, 0.00000000
1, 0.6049, 76, 0.67785645, -1.39526367, 0.15270996, -21.93571281, -6.20156527, 5.99429941, -54.80853653, 3.56620860, -59.48553085, 68.60214233, -21.27513123, -137.79541016, -0.38935998, 0.05714151, -0.57161689, -0.71999151, -1.04054368, 0.52743781, -0.49232173, 100.26900482, 88.27654266, 29.22999954, 0.00000000
1, 0.5698, 43, 0.81461900, -1.40275156, -0.07047768, -9.27713013, -10.34715176, 71.71803284, -55.13007736, 11.25401878, -70.21338654, 104.97319794, -1.65169215, -72.11879730, -0.49895585, 0.63600451, -0.47394925, -0.34916106, -0.84186786, 0.43724191, 0.32869431, 100.34200287, 82.15006256, 29.21999931, 0.00000000
1, 0.5748, 44, 0.88197476, -1.20078588, -0.28429317, -12.13569164, -26.85314178, 71.95689392, -56.18240356, 12.59865570, -69.86260986, 104.92043304, -1.96519232, -72.34094238, -0.49982929, 0.63384366, -0.47634536, -0.34857994, -0.91419399, 0.23554569, 0.54206049, 100.34200287, 82.15006256, 29.21999931, 0.00000000
1, 0.5798, 45, 0.68947613, -1.12463009, -0.18252657, -5.64119148, -25.36574745, 73.27670288, -56.18240356, 12.59865570, -69.86260986, 104.90116119, -2.28704405, -72.55738831, -0.50056827, 0.63181287, -0.47883826, -0.34779018, -0.72750998, 0.15927988, 0.43938112, 100.34200287, 82.15006256, 29.21999931, 0.00000000
1, 0.6099, 77, 0.10473633, -0.94238281, 0.29925537, -21.93571281, -31.57657242, 8.79430008, -54.80853653, 3.56620860, -59.48553085, 68.54357147, -21.37375069, -137.93594360, -0.38890284, 0.05555739, -0.57148540, -0.72046685, -0.46876150, 0.07546610, -0.63975632, 100.26900482, 88.27654266, 29.22999954, 0.00000000
1, 0.6149, 78, -0.31878662, -0.70471191, 0.43682861, -19.73071098, -39.97657394, 8.51430035, -55.65623856, 5.58316278, -60.09938431, 68.51181030, -21.48653793, -138.11903381, -0.38822079, 0.05375342, -0.57156301, -0.72090983, -0.04703134, -0.16132012, -0.77765942, 100.26900482, 88.27654266, 29.22999954, 0.00000000
1, 0.5848, 46, 0.39592585, -1.23292279, 0.05916019, 2.38132834, -20.80207443, 74.68544006, -56.18240356, 12.59865570, -69.86260986, 104.92240143, -2.62142134, -72.75361633, -0.50119632, 0.62999052, -0.48138577, -0.34667277, -0.44035590, 0.26747313, 0.19696981, 100.34200287, 82.15006256, 29.21999931, 0.00000000
1, 0.5898, 47, 0.20340692, -1.47743535, 0.19958971, -2.05938244, -44.48628235, 75.93006134, -56.21163177, 12.83250523, -70.18415833, 104.92643738, -2.92917609, -73.06613159, -0.50146234, 0.62767768, -0.48439807, -0.34628704, -0.25371367, 0.51205695, 0.05578448, 100.34200287, 82.15006256, 29.21999931, 0.00000000
1, 0.5948, 48, 0.28941682, -1.62539554, 0.06771567, -10.22320271, -60.89416504, 74.52122498, -56.21163177, 12.83250523, -70.18415833, 104.89717865, -3.21164227, -73.45636749, -0.50157607, 0.62495667, -0.48761630, -0.34652719, -0.34440899, 0.66038698, 0.18718654, 100.34200287, 82.15006256, 29.21999931, 0.00000000
1, 0.6549, 79, -0.26440430, -1.03912354, 0.84619141, 11.90930080, -5.78156519, 19.36430359, -55.01315308, 5.58316278, -59.83630371, 68.77802277, -22.05273247, -138.82276917, -0.38596302, 0.04720012, -0.57447577, -0.72026539, -0.11060303, 0.17505401, -1.18197870, 100.26900482, 88.27654266, 29.22999954, 0.00000000
1, 0.6599, 80, -0.04333496, -1.16064453, 0.77410889, 14.63930130, -9.84156704, 26.92430687, -55.01315308, 5.58316278, -59.83630371, 68.85010529, -22.19603920, -138.81977844, -0.38653201, 0.04646244, -0.57515657, -0.71946454, -0.33382106, 0.29699233, -1.10855997, 100.26900482, 88.27654266, 29.22999954, 0.00000000
1, 0.6649, 81, 0.05761719, -1.25872803, 0.77197266, 16.70429993, -12.71156788, 33.92431259, -55.74393463, 5.40777540, -59.66091537, 68.93289185, -22.37717247, -138.81784058, -0.38724351, 0.04549367, -0.57596326, -0.71849787, -0.43755662, 0.39566579, -1.10479236, 100.26900482, 88.27654266, 29.22999954, 0.00000000
1, 0.6699, 82, 0.07891846, -1.34820557, 0.76788330, 15.47930050, -13.62156677, 39.34931564, -55.74393463, 5.40777540, -59.66091537, 69.00737762, -22.58525085, -138.81024170, -0.38810328, 0.04433918, -0.57675576, -0.71746969, -0.46211272, 0.48594728, -1.09905076, 100.26900482, 88.27654266, 29.22999954, 0.00000000
1, 0.6749, 83, 0.09399414, -1.40472412, 0.65179443, 11.73430061, -16.77157021, 42.67431259, -55.74393463, 5.40777540, -59.66091537, 69.06687927, -22.81449890, -138.81239319, -0.38899359, 0.04293882, -0.57748842, -0.71648264, -0.48080266, 0.54350948, -0.98147213, 100.26900482, 88.27654266, 29.22999954, 0.00000000
1, 0.6799, 84, 0.11022949, -1.37591553, 0.46704102, 6.20429850, -26.15157318, 44.10931396, -54.98392105, 6.08009338, -59.36860657, 69.11629486, -23.06718636, -138.85955811, -0.38970092, 0.04111503, -0.57820749, -0.71562481, -0.50100929, 0.51597410, -0.79535604, 100.26900482, 88.27654266, 29.22999954, 0.00000000
1, 0.6849, 85, 0.09179688, -1.28680420, 0.29315186, 5.01429796, -34.27157211, 44.42431259, -54.98392105, 6.08009338, -59.36860657, 69.17611694, -23.33575821, -138.94775391, -0.39021331, 0.03900931, -0.57902485, -0.71480221, -0.48682272, 0.42823634, -0.61997646, 100.26900482, 88.27654266, 29.22999954, 0.00000000
1, 0.5998, 49, 0.54913962, -1.77499020, 0.00521603, -9.70092106, -66.24621582, 72.73954773, -56.59164047, 13.82636642, -69.97953796, 104.87372589, -3.47885370, -73.87020874, -0.50152594, 0.62219214, -0.49090213, -0.34693477, -0.60868609, 0.81021619, 0.24953499, 100.34200287, 82.15006256, 29.21999931, 0.00000000
1, 0.6048, 50, 0.79665679, -1.96895921, 0.13906007, -2.83055162, -64.31883240, 70.34953308, -56.59164047, 13.82636642, -69.97953796, 104.88571930, -3.73693275, -74.27171326, -0.50128525, 0.61964756, -0.49417561, -0.34718961, -0.86106706, 1.00425231, 0.11597531, 100.34200287, 82.15006256, 29.21999931, 0.00000000
1, 0.6899, 86, 0.03875732, -1.18518066, 0.15734863, 6.37929916, -42.46157837, 44.56431580, -55.91932297, 6.75241137, -59.54399109, 69.25989532, -23.61940956, -139.07795715, -0.39051822, 0.03666758, -0.58002055, -0.71395189, -0.43826839, 0.32799056, -0.48233229, 100.26900482, 88.27654266, 29.22999954, 0.00000000
1, 0.6648, 51, -0.78824484, -0.61269248, 0.88673401, 5.47835064, -74.34202576, 59.83972931, -58.14089203, 16.89564514, -68.81028748, 105.34171295, -7.05658484, -78.49746704, -0.49966589, 0.59100312, -0.53103727, -0.34503451, 0.66398668, -0.34601513, -0.62745476, 100.34200287, 82.15006256, 29.21999931, 0.00000000
1, 0.6698, 52, -1.08778644, -0.65443242, 0.98840201, 6.87726068, -73.48077393, 54.90008926, -58.14089203, 16.89564514, -68.81028748, 105.43024445, -7.22439003, -78.92755890, -0.49860859, 0.58877194, -0.53415704, -0.34556252, 0.96027195, -0.30367821, -0.72856683, 100.34200287, 82.15006256, 29.21999931, 0.00000000
1, 0.6748, 53, -1.31904900, -0.69342947, 1.00114918, 6.21010971, -66.72452545, 48.86539078, -58.28704834, 17.04179955, -68.54721069, 105.51139832, -7.37142086, -79.31716156, -0.49762750, 0.58675998, -0.53695667, -0.34605965, 1.18886709, -0.26399252, -0.74064481, 100.34200287, 82.15006256, 29.21999931, 0.00000000
1, 0.6798, 54, -1.44984877, -0.73407233, 0.93437999, 4.13573837, -52.67408752, 41.72552109, -58.28704834, 17.04179955, -68.54721069, 105.57298279, -7.50229502, -79.62918854, -0.49691555, 0.58507586, -0.53923064, -0.34639806, 1.31750989, -0.22263747, -0.67322588, 100.34200287, 82.15006256, 29.21999931, 0.00000000
1, 0.6848, 55, -1.41935647, -0.79381621, 0.82691205, 2.38092852, -29.74027061, 34.65311813, -58.17012405, 17.07103157, -68.22566223, 105.61047363, -7.62951183, -79.82044220, -0.49667764, 0.58386302, -0.54079622, -0.34634486, 1.28507948, -0.16223601, -0.56513768, 100.34200287, 82.15006256, 29.21999931, 0.00000000
1, 0.7099, 87, -0.15930176, -1.10107422, 0.15917969, 10.85930061, -55.51658249, 44.59931183, -56.79625702, 6.25548077, -58.93013763, 69.78778076, -24.83656883, -139.84129333, -0.39055067, 0.02614174, -0.58527339, -0.71009994, -0.25952587, 0.24911717, -0.47342557, 100.26900482, 88.27654266, 29.22999954, 0.00000000
1, 0.7149, 88, -0.17773438, -1.09851074, 0.20178223, 10.26430035, -53.52157974, 44.14431381, -56.29932785, 6.54779291, -58.57936096, 69.92075348, -25.13595200, -140.03459167, -0.39053807, 0.02353090, -0.58655101, -0.70914328, -0.24585015, 0.24789566, -0.51327568, 100.26900482, 88.27654266, 29.22999954, 0.00000000
1, 0.7199, 89, -0.19152832, -1.07531738, 0.24627686, 8.30429840, -44.00157928, 42.28931427, -56.29932785, 6.54779291, -58.57936096, 70.02567291, -25.40995979, -140.18309021, -0.39071053, 0.02122848, -0.58759910, -0.70825279, -0.23650107, 0.22605431, -0.55537474, 100.26900482, 88.27654266, 29.22999954, 0.00000000
1, 0.7249, 90, -0.19720459, -1.05664063, 0.28521729, 7.88429928, -36.75657272, 41.55430984, -56.79625702, 6.84010506, -58.34551239, 70.11380005, -25.66793633, -140.29609680, -0.39104381, 0.01916149, -0.58850604, -0.70737422, -0.23494881, 0.20872837, -0.59227914, 100.26900482, 88.27654266, 29.22999954, 0.00000000
1, 0.7299, 91, -0.19494629, -1.03540039, 0.31524658, 7.70929861, -28.77657318, 41.02931213, -56.79625702, 6.84010506, -58.34551239, 70.18406677, -25.90975189, -140.36903381, -0.39156386, 0.01735118, -0.58926785, -0.70649856, -0.24107428, 0.18884043, -0.62056804, 100.26900482, 88.27654266, 29.22999954, 0.00000000
1, 0.6898, 56, -1.21554697, -0.90571940, 0.74013352, 1.16823089, -4.35247564, 28.57872009, -58.17012405, 17.07103157, -68.22566223, 105.62883759, -7.77057838, -79.88069916, -0.49699190, 0.58313107, -0.54168564, -0.34573698, 1.07914805, -0.04978296, -0.47774726, 100.34200287, 82.15006256, 29.21999931, 0.00000000
1, 0.6948, 57, -0.77952212, -1.10342073, 0.53826678, -1.49714887, 14.62104607, 22.19466400, -58.17012405, 17.07103157, -68.22566223, 105.61601257, -7.89708519, -79.83960724, -0.49770924, 0.58279634, -0.54190981, -0.34491715, 0.64130151, 0.14853658, -0.27527487, 100.34200287, 82.15006256, 29.21999931, 0.00000000
1, 0.6998, 58, -0.58273202, -1.17398429, 0.41375622, -4.61552382, 24.51396179, 18.12368965, -58.37474442, 18.00643158, -69.16106415, 105.58002472, -8.01723671, -79.74484253, -0.49867767, 0.58263785, -0.54176778, -0.34400788, 0.44274634, 0.21945351, -0.15093052, 100.34200287, 82.15006256, 29.21999931, 0.00000000
1, 0.7048, 59, -0.29806727, -1.23141563, 0.23102109, -9.05837440, 32.32360458, 14.75601864, -58.37474442, 18.00643158, -69.16106415, 105.51560974, -8.13152122, -79.60737610, -0.49989215, 0.58257836, -0.54130214, -0.34307790, 0.15652552, 0.27717704, 0.03133107, 100.34200287, 82.15006256, 29.21999931, 0.00000000
1, 0.7098, 60, -0.12428564, -1.20672262, 0.12809375, -11.06931400, 27.77029991, 13.62152100, -58.98859787, 17.86027527, -69.04413605, 105.44377899, -8.23416138, -79.49042511, -0.50103223, 0.58243173, -0.54087591, -0.34233502, -0.01883069, 0.25257972, 0.13348547, 100.34200287, 82.15006256, 29.21999931, 0.00000000
1, 0.7349, 92, -0.17749023, -1.01373291, 0.32934570, 7.67429924, -20.34156990, 40.36431503, -56.79625702, 6.84010506, -58.34551239, 70.23579407, -26.13409233, -140.39947510, -0.39227855, 0.01581733, -0.58988124, -0.70562559, -0.26212087, 0.16851781, -0.63324142, 100.26900482, 88.27654266, 29.22999954, 0.00000000
1, 0.7399, 93, -0.15789795, -0.99615479, 0.34716797, 7.77929974, -12.01156807, 39.66431046, -56.88395309, 7.10318613, -58.72551727, 70.26950836, -26.34104347, -140.38780212, -0.39318463, 0.01455970, -0.59035265, -0.70475364, -0.28502113, 0.15226847, -0.64995122, 100.26900482, 88.27654266, 29.22999954, 0.00000000
1, 0.7449, 94, -0.13354492, -0.97894287, 0.35797119, 7.70929861, -4.69656515, 39.17431259, -56.88395309, 7.10318613, -58.72551727, 70.28617096, -26.53335381, -140.33865356, -0.39426282, 0.01353840, -0.59069419, -0.70388484, -0.31243432, 0.13637574, -0.65993547, 100.26900482, 88.27654266, 29.22999954, 0.00000000
1, 0.7598, 61, -0.36438671, -0.98089099, 0.29415268, -8.77243710, -8.00779343, 5.90431976, -58.98859787, 17.94796753, -69.51184082, 105.18467712, -8.59563160, -80.45709229, -0.50093842, 0.57534593, -0.54632527, -0.34578392, 0.21427274, 0.02619314, -0.03751039, 100.34200287, 82.15006256, 29.21999931, 0.00000000
1, 0.7648, 62, -0.36474159, -0.95905828, 0.32544526, -9.07375908, -1.04603660, 4.53179550, -58.98859787, 17.94796753, -69.51184082, 105.14102173, -8.61626816, -80.46820068, -0.50120991, 0.57502347, -0.54632562, -0.34592640, 0.21420254, 0.00416932, -0.06948414, 100.34200287, 82.15006256, 29.21999931, 0.00000000
1, 0.7698, 63, -0.37023908, -0.93722630, 0.34964749, -8.97100830, 4.99832630, 3.79825354, -58.98859787, 17.94796753, -69.51184082, 105.09329224, -8.64118481, -80.44878387, -0.50161153, 0.57481211, -0.54617637, -0.34593108, 0.21923229, -0.01785388, -0.09446127, 100.34200287, 82.15006256, 29.21999931, 0.00000000
1, 0.7748, 64, -0.37645987, -0.92274225, 0.36836091, -8.92022610, 9.47315693, 3.13311863, -58.84244156, 18.38643646, -69.48260498, 105.04238892, -8.66866875, -80.40663147, -0.50210822, 0.57468510, -0.54591310, -0.34583697, 0.22493765, -0.03252310, -0.11401446, 100.34200287, 82.15006256, 29.21999931, 0.00000000
1, 0.7798, 65, -0.35185540, -0.90413773, 0.35905030, -9.77754307, 12.42317772, 1.81225967, -58.84244156, 18.38643646, -69.48260498, 104.98472595, -8.69353962, -80.34830475, -0.50267661, 0.57461512, -0.54553884, -0.34571829, 0.19991025, -0.05129759, -0.10556498, 100.34200287, 82.15006256, 29.21999931, 0.00000000
1, 0.7499, 95, -0.11718750, -0.95251465, 0.35729980, 7.56929827, 1.07843697, 39.13931274, -57.32241821, 7.30780458, -58.55013275, 70.28837585, -26.71576118, -140.25912476, -0.39548761, 0.01269292, -0.59093028, -0.70301485, -0.33167353, 0.11127530, -0.65869582, 100.26900482, 88.27654266, 29.22999954, 0.00000000
1, 0.7549, 96, -0.10217285, -0.94085693, 0.35443115, 8.19929981, 4.89343834, 39.41931152, -57.32241821, 7.30780458, -58.55013275, 70.28411865, -26.89304733, -140.15882874, -0.39681780, 0.01196806, -0.59111810, -0.70211947, -0.34947568, 0.10095499, -0.65539253, 100.26900482, 88.27654266, 29.22999954, 0.00000000
1, 0.7848, 66, -0.29960841, -0.88814890, 0.34449407, -9.97379494, 13.60698509, 0.30067840, -58.81321335, 18.79567337, -69.13182831, 104.92485809, -8.71256256, -80.28221130, -0.50325495, 0.57459420, -0.54509741, -0.34560776, 0.14734763, -0.06747618, -0.09185989, 100.34200287, 82.15006256, 29.21999931, 0.00000000
1, 0.7898, 67, -0.23969206, -0.89958417, 0.34352329, -10.14743042, 13.06847858, -0.55119920, -58.81321335, 18.79567337, -69.13182831, 104.88274384, -8.74057293, -80.22032928, -0.50376856, 0.57459641, -0.54476428, -0.34538114, 0.08704869, -0.05620848, -0.09162379, 100.34200287, 82.15006256, 29.21999931, 0.00000000
1, 0.7948, 68, -0.18383439, -0.92208052, 0.31865588, -11.18647766, 10.60256386, -1.22768795, -58.81321335, 18.79567337, -69.13182831, 104.81868744, -8.74826622, -80.16692352, -0.50428253, 0.57453912, -0.54433203, -0.34540799, 0.03096959, -0.03386848, -0.06756734, 100.34200287, 82.15006256, 29.21999931, 0.00000000
1, 0.8099, 97, 0.11218262, -0.99102783, 0.18255615, 10.85930061, 3.00343776, 42.35931015, -58.55013275, 8.91552162, -58.31628036, 70.31130219, -28.94977951, -138.85231018, -0.41293821, 0.00459420, -0.59377891, -0.69057053, -0.59548593, 0.16676520, -0.47752815, 100.26900482, 88.27654266, 29.22999954, 0.00000000
1, 0.8149, 98, 0.11889648, -0.98455811, 0.16876221, 10.05430031, 3.73843789, 41.20431137, -58.31628036, 8.94475269, -58.11166382, 70.31325531, -29.13746071, -138.75279236, -0.41427389, 0.00382045, -0.59402168, -0.68956572, -0.60509378, 0.16178890, -0.46314701, 100.26900482, 88.27654266, 29.22999954, 0.00000000
1, 0.8199, 99, 0.13336182, -0.97613525, 0.16168213, 9.00429916, 5.10343838, 40.22431183, -58.31628036, 8.94475269, -58.11166382, 70.30690765, -29.31822777, -138.64759827, -0.41561425, 0.00309416, -0.59420604, -0.68860322, -0.62234181, 0.15484855, -0.45559734, 100.26900482, 88.27654266, 29.22999954, 0.00000000
1, 0.8249, 100, 0.18115234, -0.96008301, 0.14916992, 7.84929895, 6.08343887, 38.78931427, -58.69628525, 9.38322163, -58.87167358, 70.29317474, -29.49057388, -138.53968811, -0.41693577, 0.00241357, -0.59433591, -0.68769443, -0.67278922, 0.14026393, -0.44275042, 100.26900482, 88.27654266, 29.22999954, 0.00000000
1, 0.8299, 101, 0.21044922, -0.95275879, 0.13891602, 6.72929955, 6.15343904, 37.77431107, -58.69628525, 9.38322163, -58.87167358, 70.27422333, -29.65798950, -138.43312073, -0.41822752, 0.00174102, -0.59442896, -0.68683112, -0.70464295, 0.13439527, -0.43226433, 100.26900482, 88.27654266, 29.22999954, 0.00000000
1, 0.7998, 69, -0.14124092, -0.94505727, 0.27802873, -12.14675713, 7.47841835, -2.02602530, -58.78398132, 18.47413063, -69.36568451, 104.75196838, -8.74810314, -80.12776184, -0.50473440, 0.57443190, -0.54393393, -0.34555331, -0.01155274, -0.01111262, -0.02797768, 100.34200287, 82.15006256, 29.21999931, 0.00000000
1, 0.8349, 102, 0.25610352, -0.94696045, 0.12371826, 5.60929871, 4.64843798, 36.65431213, -58.69628525, 9.38322163, -58.87167358, 70.25440979, -29.82265091, -138.33665466, -0.41944563, 0.00103200, -0.59451425, -0.68601549, -0.75279832, 0.13004301, -0.41687322, 100.26900482, 88.27654266, 29.22999954, 0.00000000
1, 0.8399, 103, 0.28967285, -0.94409180, 0.11297607, 4.76929808, 2.26843739, 35.53430939, -59.19321823, 9.61707115, -58.19935608, 70.23758698, -29.98603058, -138.25505066, -0.42056733, 0.00026541, -0.59461635, -0.68524045, -0.78884488, 0.12860368, -0.40590274, 100.26900482, 88.27654266, 29.22999954, 0.00000000
1, 0.8449, 104, 0.31768799, -0.94165039, 0.10357666, 4.24429798, -0.21656337, 34.44931030, -59.19321823, 9.61707115, -58.19935608, 70.22566986, -30.14849663, -138.18891907, -0.42159125, -0.00055695, -0.59474701, -0.68449736, -0.81931698, 0.12756661, -0.39621249, 100.26900482, 88.27654266, 29.22999954, 0.00000000
1, 0.8048, 70, -0.11025694, -0.95244861, 0.25105184, -12.21409035, 4.14249182, -2.38509893, -58.78398132, 18.47413063, -69.36568451, 104.68733215, -8.74195290, -80.10448456, -0.50510317, 0.57428110, -0.54359937, -0.34579149, -0.04238827, -0.00397624, -0.00202390, 100.34200287, 82.15006256, 29.21999931, 0.00000000
1, 0.8848, 71, 0.10708520, -0.95128369, 0.16950507, -9.97927380, -1.14312732, 11.20092487, -59.28091049, 16.66179466, -69.24875641, 103.77659607, -8.80066967, -80.30919647, -0.50926590, 0.56905466, -0.54207295, -0.35068792, -0.26026961, -0.00878041, 0.06473906, 100.34200287, 82.15006256, 29.21999931, 0.00000000
1, 0.8898, 72, 0.11208056, -0.95640731, 0.16009296, -10.11700249, -1.05436921, 13.27287292, -59.28091049, 16.66179466, -69.24875641, 103.71645355, -8.81766033, -80.32848358, -0.50957507, 0.56863034, -0.54204851, -0.35096478, -0.26588675, -0.00376378, 0.07323459, 100.34200287, 82.15006256, 29.21999931, 0.00000000
1, 0.8948, 73, 0.11851402, -0.96011376, 0.15052196, -9.98174191, 0.04137401, 15.57565975, -59.28091049, 16.66179466, -69.24875641, 103.66957855, -8.89352131, -80.34683990, -0.51006198, 0.56804115, -0.54228169, -0.35085127, -0.27314892, -0.00013137, 0.08188800, 100.34200287, 82.15006256, 29.21999931, 0.00000000
1, 0.8998, 74, 0.13313697, -0.96047628, 0.14688253, -9.74387646, 1.45384896, 17.77953148, -58.84244156, 18.00643158, -69.16106415, 103.62322998, -8.98177433, -80.36080933, -0.51060992, 0.56742650, -0.54254127, -0.35064775, -0.28923249, 0.00027225, 0.08473101, 100.34200287, 82.15006256, 29.21999931, 0.00000000
1, 0.8499, 105, 0.34075928, -0.94885254, 0.09613037, 3.96429777, -2.52656436, 33.46931076, -59.98246002, 10.11400127, -58.52090073, 70.21942902, -30.31024933, -138.13714600, -0.42252496, -0.00142803, -0.59491044, -0.68377793, -0.84483343, 0.13614628, -0.38839287, 100.26900482, 88.27654266, 29.22999954, 0.00000000
1, 0.8549, 106, 0.36425781, -0.95758057, 0.09570313, 3.68429804, -4.97656441, 32.24430847, -59.98246002, 10.11400127, -58.52090073, 70.21958923, -30.47037888, -138.10102844, -0.42335764, -0.00234557, -0.59510952, -0.68308681, -0.87074989, 0.14621320, -0.38750517, 100.26900482, 88.27654266, 29.22999954, 0.00000000
1, 0.9048, 75, 0.16268083, -0.95333958, 0.14625822, -9.46918869, 2.82515931, 20.26237488, -58.84244156, 18.00643158, -69.16106415, 103.57772064, -9.08369160, -80.37088776, -0.51122075, 0.56678003, -0.54283530, -0.35034791, -0.32046998, -0.00678808, 0.08460963, 100.34200287, 82.15006256, 29.21999931, 0.00000000
1, 0.9098, 76, 0.20182356, -0.94699526, 0.15475924, -9.04826927, 3.97720623, 23.22885895, -59.71937943, 17.62642479, -68.86875153, 103.53402710, -9.20137978, -80.37871552, -0.51189315, 0.56608999, -0.54318285, -0.34994283, -0.36159191, -0.01301957, 0.07540214, 100.34200287, 82.15006256, 29.21999931, 0.00000000
1, 0.9148, 77, 0.24942560, -0.94637883, 0.15273137, -8.69166660, 4.63378954, 26.49982262, -59.71937943, 17.62642479, -68.86875153, 103.49224091, -9.33574009, -80.38706207, -0.51262152, 0.56533992, -0.54360116, -0.34943926, -0.41143328, -0.01344738, 0.07675847, 100.34200287, 82.15006256, 29.21999931, 0.00000000
1, 0.9198, 78, 0.30501533, -0.93394697, 0.14088799, -8.50334549, 4.64638281, 30.42356873, -59.71937943, 17.62642479, -68.86875153, 103.45218658, -9.48921967, -80.39984894, -0.51340449, 0.56450051, -0.54411793, -0.34884217, -0.46953547, -0.02561579, 0.08797766, 100.34200287, 82.15006256, 29.21999931, 0.00000000
1, 0.8699, 107, 0.43664551, -0.95849609, 0.08367920, 0.98929697, -12.39656734, 27.97430611, -60.09938431, 10.26015759, -58.11166382, 70.24353027, -30.93717194, -138.09228516, -0.42520526, -0.00543407, -0.59582198, -0.68129820, -0.95017481, 0.15094818, -0.37377170, 100.26900482, 88.27654266, 29.22999954, 0.00000000
1, 0.8749, 108, 0.46014404, -0.95343018, 0.07202148, 0.42929676, -14.07656860, 26.39930725, -60.27477264, 10.26015759, -57.58549881, 70.25869751, -31.08519554, -138.11753845, -0.42562383, -0.00653087, -0.59608918, -0.68079323, -0.97590780, 0.14707319, -0.36146212, 100.26900482, 88.27654266, 29.22999954, 0.00000000
1, 0.9548, 79, 0.44854817, -0.91579962, 0.16179223, -4.07982826, -12.95483589, 61.70500565, -60.39169693, 18.67874908, -69.68722534, 103.34900665, -11.05152798, -80.92553711, -0.51864195, 0.55534440, -0.55217075, -0.34308994, -0.63940203, -0.03964746, 0.06444407, 100.34200287, 82.15006256, 29.21999931, 0.00000000
1, 0.9598, 80, 0.40627193, -0.90143394, 0.15261821, -3.80038524, -14.54865456, 65.83467102, -60.50862122, 18.35720444, -69.71645355, 103.35979462, -11.35529137, -81.07469940, -0.51936603, 0.55345649, -0.55403680, -0.34203541, -0.60222703, -0.05297807, 0.07346931, 100.34200287, 82.15006256, 29.21999931, 0.00000000
1, 0.8799, 109, 0.48535156, -0.94836426, 0.06347656, -0.16570340, -15.61656857, 24.75430489, -60.27477264, 10.26015759, -57.58549881, 70.27705383, -31.22806549, -138.15460205, -0.42595258, -0.00764167, -0.59636682, -0.68033272, -1.00326931, 0.14314324, -0.35223252, 100.26900482, 88.27654266, 29.22999954, 0.00000000
1, 0.8849, 110, 0.51599121, -0.93908691, 0.06243896, -0.44570351, -17.71656799, 22.89930534, -60.27477264, 10.26015759, -57.58549881, 70.30205536, -31.36573219, -138.20698547, -0.42617086, -0.00877173, -0.59667480, -0.67991227, -1.03598189, 0.13493167, -0.35043901, 100.26900482, 88.27654266, 29.22999954, 0.00000000
1, 0.8899, 111, 0.55731201, -0.92620850, 0.06677246, -1.07570374, -19.60656929, 21.11430359, -60.56708527, 10.84478188, -57.32241821, 70.33135986, -31.49815178, -138.27351379, -0.42628598, -0.00992309, -0.59699893, -0.67953956, -1.07929420, 0.12305567, -0.35396555, 100.26900482, 88.27654266, 29.22999954, 0.00000000
1, 0.9648, 81, 0.34955344, -0.89154446, 0.14619751, -3.25392556, -14.77321911, 69.60800171, -60.50862122, 18.35720444, -69.71645355, 103.37532043, -11.67710304, -81.22960663, -0.52012283, 0.55148178, -0.55600190, -0.34088403, -0.55092126, -0.06173202, 0.07974838, 100.34200287, 82.15006256, 29.21999931, 0.00000000
1, 0.9698, 82, 0.28432751, -0.88927376, 0.13206071, -2.49608040, -14.88562107, 73.13594055, -60.50862122, 18.35720444, -69.71645355, 103.39658356, -12.01591587, -81.38954163, -0.52090579, 0.54943168, -0.55806035, -0.33963314, -0.49137866, -0.06274302, 0.09377918, 100.34200287, 82.15006256, 29.21999931, 0.00000000
1, 0.9748, 83, 0.21686140, -0.88718402, 0.06532151, -1.51762533, -15.36839676, 77.66876221, -61.70710373, 19.73107338, -70.12569427, 103.42546844, -12.37612820, -81.55757141, -0.52171469, 0.54728055, -0.56024647, -0.33826280, -0.42978340, -0.06335858, 0.16049397, 100.34200287, 82.15006256, 29.21999931, 0.00000000
1, 0.8949, 112, 0.58984375, -0.90911865, 0.05914307, -1.67070389, -21.60157204, 19.53930283, -60.56708527, 10.84478188, -57.32241821, 70.36531830, -31.62648392, -138.35430908, -0.42630163, -0.01110362, -0.59734231, -0.67920971, -1.11374998, 0.10691382, -0.34548104, 100.26900482, 88.27654266, 29.22999954, 0.00000000
1, 0.8999, 113, 0.62915039, -0.87927246, 0.05072021, -2.47570419, -24.33156967, 17.22930336, -60.33323669, 10.93247604, -57.64396286, 70.40583801, -31.74847603, -138.45501709, -0.42617649, -0.01231980, -0.59771276, -0.67894131, -1.15490174, 0.07794678, -0.33613655, 100.26900482, 88.27654266, 29.22999954, 0.00000000
1, 0.9049, 114, 0.65258789, -0.86480713, 0.05084229, -3.31570458, -27.02657318, 14.21930313, -60.33323669, 10.93247604, -57.64396286, 70.45346069, -31.86073303, -138.57681274, -0.42589080, -0.01355293, -0.59810901, -0.67874819, -1.18003631, 0.06424271, -0.33526260, 100.26900482, 88.27654266, 29.22999954, 0.00000000
1, 0.9798, 84, 0.18437281, -0.89913499, 0.06027155, -1.92016327, -16.60346222, 81.11461639, -61.70710373, 19.73107338, -70.12569427, 103.45574188, -12.75160789, -81.73624420, -0.52254736, 0.54501110, -0.56253010, -0.33684865, -0.40362298, -0.04991146, 0.16563718, 100.34200287, 82.15006256, 29.21999931, 0.00000000
1, 0.9848, 85, 0.10545636, -0.90840316, 0.07917956, -4.68817425, -16.58045387, 83.53394318, -62.11634064, 17.56796265, -69.68722534, 103.47408295, -13.13883591, -81.91813660, -0.52347499, 0.54261220, -0.56482273, -0.33544195, -0.33131880, -0.03913315, 0.14652342, 100.34200287, 82.15006256, 29.21999931, 0.00000000
1, 0.9898, 86, 0.06800923, -0.88689137, 0.07067785, -5.34924126, -14.87718582, 83.44275665, -62.11634064, 17.56796265, -69.68722534, 103.48176575, -13.51528358, -82.09030914, -0.52443844, 0.54024547, -0.56698716, -0.33410284, -0.30034679, -0.05910087, 0.15479746, 100.34200287, 82.15006256, 29.21999931, 0.00000000
1, 0.9099, 115, 0.67669678, -0.85205078, 0.03466797, -4.01570415, -29.40657425, 11.48930168, -60.33323669, 10.93247604, -57.64396286, 70.50774384, -31.96400833, -138.71745300, -0.42546082, -0.01479827, -0.59852922, -0.67862135, -1.20570946, 0.05214337, -0.31802887, 100.26900482, 88.27654266, 29.22999954, 0.00000000
1, 0.9149, 116, 0.68969727, -0.84655762, 0.01977539, -4.12070513, -32.38157272, 8.51430035, -60.30400467, 10.72785759, -57.84858322, 70.57370758, -32.05808640, -138.88075256, -0.42486414, -0.01605593, -0.59900218, -0.67854923, -1.22013593, 0.04717988, -0.30196291, 100.26900482, 88.27654266, 29.22999954, 0.00000000
1, 0.9948, 87, 0.05671656, -0.85627532, 0.04690140, -4.45870161, -14.88094521, 83.92205811, -62.11634064, 17.56796265, -69.68722534, 103.50191498, -13.90629673, -82.26491547, -0.52539414, 0.53785247, -0.56923783, -0.33263195, -0.29550874, -0.08808452, 0.17847358, 100.34200287, 82.15006256, 29.21999931, 0.00000000
1, 0.9998, 88, 0.01095984, -0.82207942, 0.03807081, -2.13694954, -15.31893730, 85.59961700, -62.52557755, 21.39725113, -69.65799713, 103.53597260, -14.30484962, -82.44419098, -0.52630144, 0.53545731, -0.57156330, -0.33107051, -0.25644317, -0.12051877, 0.18734963, 100.34200287, 82.15006256, 29.21999931, 0.00000000
1, 0.9599, 117, 0.30035400, -0.80786133, 0.00524902, -13.15070724, -36.86157227, -12.69570732, -60.74247360, 10.75708866, -57.55627060, 71.26277924, -32.47357941, -140.94195557, -0.41438335, -0.02721001, -0.60312444, -0.68101913, -0.83727682, 0.00900716, -0.27644271, 100.26900482, 88.27654266, 29.22999954, 0.00000000
1, 0.9649, 118, 0.20355225, -0.81628418, 0.04144287, -13.85070801, -33.85157394, -13.32570744, -59.95322800, 9.64630222, -57.55627060, 71.30912781, -32.46477509, -141.15730286, -0.41307947, -0.02811561, -0.60333985, -0.68158340, -0.74037158, 0.01713264, -0.31196451, 100.26900482, 88.27654266, 29.22999954, 0.00000000
1, 0.9699, 119, 0.11779785, -0.82904053, 0.05346680, -15.42570782, -30.17657089, -13.81570625, -59.95322800, 9.64630222, -57.55627060, 71.33698273, -32.44765091, -141.35292053, -0.41185471, -0.02892731, -0.60344118, -0.68220061, -0.65439928, 0.02960193, -0.32357210, 100.26900482, 88.27654266, 29.22999954, 0.00000000
1, 0.9749, 120, 0.06091309, -0.83972168, 0.03674316, -16.75571060, -26.22157478, -14.44570637, -60.27477264, 10.58170128, -57.93627548, 71.34682465, -32.42116547, -141.52746582, -0.41071275, -0.02962855, -0.60343122, -0.68286753, -0.59714919, 0.04000250, -0.30674347, 100.26900482, 88.27654266, 29.22999954, 0.00000000
1, 0.9799, 121, 0.06323242, -0.85217285, 0.05261230, -16.93070984, -15.26656914, -15.35570812, -60.27477264, 10.58170128, -57.93627548, 71.32366943, -32.37285233, -141.64221191, -0.40983099, -0.02998248, -0.60321981, -0.68356818, -0.59884751, 0.05214605, -0.32293376, 100.26900482, 88.27654266, 29.22999954, 0.00000000
1, 1.0348, 89, -0.36178878, -0.80979478, 0.23156191, 9.49146652, -4.13009596, 95.32259369, -63.60713196, 24.20344925, -69.54106903, 104.06425476, -17.37176895, -83.71020508, -0.53242117, 0.51846701, -0.58919823, -0.31712016, 0.06457204, -0.11704432, -0.00210399, 100.34200287, 82.15006256, 29.21999931, 0.00000000
1, 1.0398, 90, -0.38143396, -0.85084951, 0.24879457, 11.06617260, -1.36222160, 98.13763428, -63.60713196, 24.20344925, -69.54106903, 104.16199493, -17.84956169, -83.84221649, -0.53349352, 0.51617515, -0.59161359, -0.31454951, 0.07630563, -0.07321864, -0.01848677, 100.34200287, 82.15006256, 29.21999931, 0.00000000
1, 0.9849, 122, 0.07855225, -0.86047363, 0.11010742, -17.70071030, -10.29656696, -15.56570721, -60.47939301, 8.50628471, -57.41011429, 71.28185272, -32.31563187, -141.72947693, -0.40907225, -0.03019638, -0.60289603, -0.68429852, -0.61335111, 0.06013084, -0.38110828, 100.26900482, 88.27654266, 29.22999954, 0.00000000
1, 0.9899, 123, 0.08728027, -0.85498047, 0.14154053, -19.13570976, -7.98656702, -14.58570671, -60.47939301, 8.50628471, -57.41011429, 71.22489166, -32.25940323, -141.80194092, -0.40840116, -0.03039267, -0.60248613, -0.68505126, -0.62123609, 0.05438775, -0.41346389, 100.26900482, 88.27654266, 29.22999954, 0.00000000
1, 0.9949, 124, 0.07684326, -0.83465576, 0.11108398, -20.04570961, -7.07656574, -12.97570705, -60.47939301, 8.50628471, -57.41011429, 71.15896606, -32.20938873, -141.86625671, -0.40780044, -0.03062028, -0.60202992, -0.68579978, -0.61003685, 0.03391296, -0.38405943, 100.26900482, 88.27654266, 29.22999954, 0.00000000
1, 1.0448, 91, -0.34108886, -0.88497865, 0.23541124, 8.59284878, 3.36670351, 99.05298615, -64.25022125, 25.22654152, -70.21338654, 104.24027252, -18.33389473, -83.95201874, -0.53473961, 0.51386809, -0.59387755, -0.31193388, 0.02796047, -0.03619504, -0.00432706, 100.34200287, 82.15006256, 29.21999931, 0.00000000
1, 1.0498, 92, -0.29281169, -0.87702596, 0.21967627, 4.06255627, 12.81650925, 96.98739624, -64.25022125, 25.22654152, -70.21338654, 104.28076935, -18.81970596, -84.01166534, -0.53629416, 0.51162791, -0.59580171, -0.30926654, -0.02832602, -0.04131156, 0.01169493, 100.34200287, 82.15006256, 29.21999931, 0.00000000
1, 1.0548, 93, -0.20147277, -0.83141875, 0.21626897, 1.06302059, 21.88975143, 93.73662567, -64.25022125, 25.22654152, -70.21338654, 104.29027557, -19.30091095, -84.02097321, -0.53809798, 0.50951529, -0.59738988, -0.30654553, -0.12762180, -0.08420132, 0.01497683, 100.34200287, 82.15006256, 29.21999931, 0.00000000
1, 0.9999, 125, 0.06640625, -0.82366943, 0.07604980, -18.64570999, -5.22156525, -11.19070625, -60.53785324, 9.61707115, -57.67319489, 71.09268188, -32.16488647, -141.91683960, -0.40730321, -0.03081431, -0.60157955, -0.68648136, -0.59892547, 0.02284214, -0.35009146, 100.26900482, 88.27654266, 29.22999954, 0.00000000
1, 1.0049, 126, 0.07232666, -0.84222412, 0.09454346, -16.65070915, -2.14156413, -10.35070610, -60.53785324, 9.61707115, -57.67319489, 71.02634430, -32.11940765, -141.94865417, -0.40691438, -0.03090265, -0.60113251, -0.68709928, -0.60418320, 0.04131898, -0.36964256, 100.26900482, 88.27654266, 29.22999954, 0.00000000
1, 1.0598, 94, -0.08336043, -0.78996801, 0.20072408, 1.14607012, 20.69376564, 92.79570770, -65.01023102, 26.07424736, -70.68108368, 104.30197906, -19.77607536, -84.03532410, -0.53984672, 0.50740427, -0.59897590, -0.30386564, -0.25353864, -0.12291059, 0.03034391, 100.34200287, 82.15006256, 29.21999931, 0.00000000
1, 1.0648, 95, -0.06311630, -0.79866374, 0.17272411, 2.91604519, 12.99982548, 94.72796631, -65.01023102, 26.07424736, -70.68108368, 104.33719635, -20.25113106, -84.09213257, -0.54137158, 0.50517362, -0.60079926, -0.30125862, -0.28150421, -0.11131962, 0.05814248, 100.34200287, 82.15006256, 29.21999931, 0.00000000
1, 1.0698, 96, -0.12206967, -0.84479153, 0.17668252, 4.63273859, 9.72744751, 96.73124695, -64.54253387, 25.78193474, -71.11955261, 104.38849640, -20.73179245, -84.16905212, -0.54278958, 0.50287914, -0.60275590, -0.29862595, -0.23039779, -0.06218208, 0.05400988, 100.34200287, 82.15006256, 29.21999931, 0.00000000
1, 1.0748, 97, -0.12701894, -0.86470711, 0.21056530, 4.74247742, 9.83009911, 98.30964661, -64.54253387, 25.78193474, -71.11955261, 104.44178009, -21.22015953, -84.24825287, -0.54421842, 0.50053793, -0.60473520, -0.29594514, -0.23346527, -0.03917953, 0.02017012, 100.34200287, 82.15006256, 29.21999931, 0.00000000
1, 1.0798, 98, -0.11866474, -0.84694111, 0.22571164, 2.98259854, 5.73441839, 99.98703766, -64.54253387, 25.78193474, -71.11955261, 104.49583435, -21.71152306, -84.35177612, -0.54558903, 0.49804825, -0.60681450, -0.29335433, -0.24984130, -0.05373107, 0.00514189, 100.34200287, 82.15006256, 29.21999931, 0.00000000
1, 1.0549, 127, 0.16162109, -0.78802490, 0.13537598, -23.93071365, 19.24344063, -14.23570728, -61.64863968, 9.96784592, -59.63168716, 69.72550201, -31.35902405, -141.47721863, -0.40643558, -0.02779255, -0.59268671, -0.69480956, -0.68238604, -0.01298265, -0.43065619, 100.26900482, 88.27654266, 29.22999954, 0.00000000
1, 1.0599, 128, 0.10003662, -0.80249023, 0.14556885, -22.88071060, 15.95344257, -13.92070770, -61.94095230, 9.20783424, -60.24554062, 69.58032990, -31.26602745, -141.41799927, -0.40639800, -0.02735464, -0.59172642, -0.69566685, -0.61938930, 0.00144378, -0.44322172, 100.26900482, 88.27654266, 29.22999954, 0.00000000
1, 1.0649, 129, 0.01867676, -0.83410645, 0.17266846, -22.56571388, 12.55844116, -13.39570713, -61.94095230, 9.20783424, -60.24554062, 69.44604492, -31.18131065, -141.37663269, -0.40628839, -0.02702772, -0.59083426, -0.69650143, -0.53673542, 0.03303954, -0.47251296, 100.26900482, 88.27654266, 29.22999954, 0.00000000
1, 1.0699, 130, -0.05041504, -0.86340332, 0.18341064, -22.39071274, 11.12344074, -12.34570789, -61.94095230, 9.20783424, -60.24554062, 69.31578827, -31.10395813, -141.34121704, -0.40617320, -0.02676830, -0.58997077, -0.69731003, -0.46645883, 0.06234935, -0.48532730, 100.26900482, 88.27654266, 29.22999954, 0.00000000
1, 1.0749, 131, -0.10528564, -0.88067627, 0.15466309, -21.97071075, 13.18844032, -10.38570595, -61.82402802, 9.06167793, -59.98246002, 69.17987823, -31.03202629, -141.29071045, -0.40617073, -0.02648902, -0.58908027, -0.69807458, -0.41049683, 0.07971776, -0.45869198, 100.26900482, 88.27654266, 29.22999954, 0.00000000
1, 1.1148, 99, -0.73015195, -0.82167685, 0.26382560, 7.56913853, 9.18329525, 101.62326050, -66.67640686, 29.02659988, -71.99649048, 105.13703918, -25.13405991, -85.39031982, -0.55318248, 0.47996709, -0.62276274, -0.27529520, 0.30675045, -0.05364100, -0.03063238, 100.34200287, 82.15006256, 29.21999931, 0.00000000
1, 1.1198, 100, -0.63883573, -0.86238372, 0.29005417, 6.66513777, 16.06170654, 100.60694122, -67.29026794, 30.92663002, -72.28880310, 105.19686890, -25.64058495, -85.44926453, -0.55468106, 0.47759145, -0.62455398, -0.27233759, 0.20737886, -0.00906692, -0.05668470, 100.34200287, 82.15006256, 29.21999931, 0.00000000
1, 1.1248, 101, -0.52698344, -0.84149742, 0.25790346, 4.85803175, 23.92520332, 98.85444641, -67.29026794, 30.92663002, -72.28880310, 105.22887421, -26.14889717, -85.46417999, -0.55639982, 0.47530377, -0.62608433, -0.26930270, 0.08763084, -0.02602500, -0.02464278, 100.34200287, 82.15006256, 29.21999931, 0.00000000
1, 1.1298, 102, -0.40873331, -0.81028628, 0.25339338, 5.54770041, 28.79341125, 99.45243835, -67.29026794, 30.92663002, -72.28880310, 105.25334930, -26.66642761, -85.45405579, -0.55823296, 0.47306481, -0.62750423, -0.26612818, -0.03866582, -0.05328923, -0.02046549, 100.34200287, 82.15006256, 29.21999931, 0.00000000
1, 1.1348, 103, -0.34755838, -0.82648921, 0.28105700, 7.01032448, 25.93735313, 101.43381500, -67.34872437, 29.43583679, -72.72727203, 105.29354858, -27.18975449, -85.46260071, -0.55996889, 0.47076440, -0.62903869, -0.26291850, -0.10804912, -0.03301878, -0.04854787, 100.34200287, 82.15006256, 29.21999931, 0.00000000
1, 1.0799, 132, -0.13916016, -0.90765381, 0.15112305, -20.46571159, 17.59844208, -9.09070492, -61.82402802, 9.06167793, -59.98246002, 69.03789520, -30.95817757, -141.21371460, -0.40632218, -0.02608198, -0.58815509, -0.69878161, -0.37553668, 0.10683319, -0.45734715, 100.26900482, 88.27654266, 29.22999954, 0.00000000
1, 1.0849, 133, -0.14685059, -0.94165039, 0.23803711, -19.97571182, 23.86344337, -8.49570560, -62.52557755, 8.59397793, -61.03478622, 68.88045502, -30.87568665, -141.10168457, -0.40665239, -0.02549044, -0.58713198, -0.69947129, -0.36664510, 0.14097191, -0.54663980, 100.26900482, 88.27654266, 29.22999954, 0.00000000
1, 1.0899, 134, -0.14294434, -0.95404053, 0.21777344, -20.71071243, 28.62344742, -7.58570480, -62.52557755, 8.59397793, -61.03478622, 68.70545959, -30.78855705, -140.96228027, -0.40713060, -0.02478995, -0.58599973, -0.70016742, -0.36925378, 0.15357135, -0.52906388, 100.26900482, 88.27654266, 29.22999954, 0.00000000
1, 1.1398, 104, -0.33350924, -0.82806385, 0.23772822, 5.74988508, 21.51887131, 102.22086334, -67.34872437, 29.43583679, -72.72727203, 105.33918762, -27.70749283, -85.49674988, -0.56159461, 0.46836734, -0.63065964, -0.25983071, -0.13005891, -0.02716725, -0.00560817, 100.34200287, 82.15006256, 29.21999931, 0.00000000
1, 1.1448, 105, -0.34007993, -0.78585970, 0.21683852, 4.86961126, 20.84291267, 102.49636841, -68.07950592, 33.90821457, -72.61034393, 105.38307190, -28.22926140, -85.53570557, -0.56322366, 0.46590704, -0.63229001, -0.25674725, -0.13145570, -0.06507273, 0.01487002, 100.34200287, 82.15006256, 29.21999931, 0.00000000
1, 1.1498, 106, -0.37784022, -0.76895273, 0.24937181, 7.88097191, 19.10405350, 103.46815491, -68.07950592, 33.90821457, -72.61034393, 105.44796753, -28.75336075, -85.58638763, -0.56474245, 0.46346501, -0.63400322, -0.25358656, -0.10181796, -0.07761095, -0.01802210, 100.34200287, 82.15006256, 29.21999931, 0.00000000
1, 1.1548, 107, -0.47619259, -0.81146920, 0.25505030, 8.80619526, 13.44176292, 104.61833954, -68.07950592, 33.90821457, -72.61034393, 105.53438568, -29.27540588, -85.67107391, -0.56608665, 0.46094131, -0.63587606, -0.25048086, -0.01146766, -0.03052400, -0.02398633, 100.34200287, 82.15006256, 29.21999931, 0.00000000
1, 1.1598, 108, -0.57390326, -0.85110879, 0.23071431, 8.07183647, 12.45462799, 104.84953308, -68.60566711, 34.20052719, -73.07804871, 105.62132263, -29.79715729, -85.76293945, -0.56740886, 0.45837218, -0.63775641, -0.24740437, 0.07837489, 0.01382128, 0.00014040, 100.34200287, 82.15006256, 29.21999931, 0.00000000
1, 1.0949, 135, -0.11669922, -0.94274902, 0.17150879, -20.50071144, 32.26344681, -6.92070436, -62.52557755, 8.59397793, -61.03478622, 68.52111053, -30.69750023, -140.80218506, -0.40772137, -0.02399146, -0.58480692, -0.70084852, -0.39415324, 0.14252830, -0.48563617, 100.26900482, 88.27654266, 29.22999954, 0.00000000
1, 1.0999, 136, -0.05316162, -0.93865967, 0.16491699, -18.68070984, 35.55344772, -6.92070484, -63.05173874, 8.82782841, -61.06401443, 68.33728790, -30.59996796, -140.62481689, -0.40839675, -0.02305991, -0.58360952, -0.70148444, -0.45625037, 0.13865800, -0.48192850, 100.26900482, 88.27654266, 29.22999954, 0.00000000
1, 1.1499, 137, 0.04467773, -0.89355469, 0.19567871, -19.13570976, 27.22344780, -3.63070345, -63.63636398, 8.12627888, -63.16866302, 66.59928131, -29.72380257, -139.06243896, -0.41442981, -0.01527471, -0.57211435, -0.70760143, -0.54075891, 0.09644955, -0.53995538, 100.26900482, 88.27654266, 29.22999954, 0.00000000
1, 1.1549, 138, 0.04119873, -0.89978027, 0.18054199, -18.64570999, 27.88844681, -2.58070326, -63.63636398, 8.12627888, -63.16866302, 66.43607330, -29.65640450, -138.92114258, -0.41503346, -0.01468637, -0.57103556, -0.70813137, -0.53625166, 0.10312174, -0.52732342, 100.26900482, 88.27654266, 29.22999954, 0.00000000
1, 1.1998, 109, -0.37682706, -1.05167687, 0.24850802, 2.44543552, 34.65565491, 109.58648682, -70.12569427, 37.67903900, -74.86115265, 105.90193176, -34.21345139, -85.82891083, -0.58158642, 0.43798572, -0.64919704, -0.22015671, -0.18399742, 0.25461286, -0.02421214, 100.34200287, 82.15006256, 29.21999931, 0.00000000
1, 1.2048, 110, -0.22477795, -1.03136253, 0.21250790, 0.08895718, 38.58075714, 110.65644073, -70.12569427, 37.67903900, -74.86115265, 105.87969971, -34.79835129, -85.78643036, -0.58373225, 0.43522900, -0.65032190, -0.21659628, -0.34434205, 0.23980275, 0.01038617, 100.34200287, 82.15006256, 29.21999931, 0.00000000
1, 1.1599, 139, 0.08129883, -0.93334961, 0.20532227, -18.15571022, 29.42844772, -2.12570310, -63.98713684, 8.21397209, -63.87021255, 66.27108002, -29.58765221, -138.77098083, -0.41568893, -0.01405290, -0.56994236, -0.70864028, -0.57531434, 0.13714938, -0.55462635, 100.26900482, 88.27654266, 29.22999954, 0.00000000
1, 1.1649, 140, 0.13903809, -0.95947266, 0.21978760, -19.97571182, 34.18844986, -1.63570297, -63.98713684, 8.21397209, -63.87021255, 66.08443451, -29.51112938, -138.59501648, -0.41647565, -0.01331739, -0.56870472, -0.70918655, -0.63192677, 0.16379014, -0.57185209, 100.26900482, 88.27654266, 29.22999954, 0.00000000
1, 1.1699, 141, 0.17346191, -0.96215820, 0.15997314, -20.43071175, 35.90345001, -1.56570292, -63.98713684, 8.21397209, -63.87021255, 65.89141846, -29.43092728, -138.41033936, -0.41730559, -0.01253878, -0.56742018, -0.70974171, -0.66514176, 0.16704138, -0.51499361, 100.26900482, 88.27654266, 29.22999954, 0.00000000
1, 1.1749, 142, 0.19720459, -0.96044922, 0.10620117, -18.47071075, 36.00844955, -1.53070295, -64.19175720, 7.74627304, -64.42560577, 65.70834351, -29.35013580, -138.22546387, -0.41813886, -0.01172205, -0.56619245, -0.71024543, -0.68765831, 0.16586049, -0.46408862, 100.26900482, 88.27654266, 29.22999954, 0.00000000
1, 1.1799, 143, 0.25103760, -0.99896240, 0.08996582, -15.35570812, 35.44844818, -2.12570310, -64.19175720, 7.74627304, -64.42560577, 65.54338837, -29.26731300, -138.04534912, -0.41894031, -0.01085113, -0.56507009, -0.71068066, -0.74024284, 0.20479371, -0.45048481, 100.26900482, 88.27654266, 29.22999954, 0.00000000
1, 1.1849, 144, 0.33020020, -1.07171631, 0.07995605, -14.93570995, 36.49845123, -3.03570342, -64.51329803, 7.98012257, -64.71791840, 65.37937927, -29.17771721, -137.86235046, -0.41973841, -0.00991750, -0.56394047, -0.71112067, -0.81806916, 0.27790010, -0.44305304, 100.26900482, 88.27654266, 29.22999954, 0.00000000
1, 1.2098, 111, -0.27952343, -1.05399811, 0.29564467, 4.28575802, 33.16957855, 112.68232727, -70.09646606, 39.19906235, -75.27038574, 105.89814758, -35.38557053, -85.77877808, -0.58564860, 0.43245947, -0.65164554, -0.21296196, -0.29820168, 0.26797056, -0.07444517, 100.34200287, 82.15006256, 29.21999931, 0.00000000
1, 1.2148, 112, -0.41771993, -1.13752949, 0.37706104, 8.60748386, 23.17594147, 114.10668182, -70.09646606, 39.19906235, -75.27038574, 105.97441101, -35.96596527, -85.83323669, -0.58719712, 0.42965561, -0.65327471, -0.20935093, -0.16848068, 0.35728714, -0.15712623, 100.34200287, 82.15006256, 29.21999931, 0.00000000
1, 1.2198, 113, -0.63651645, -1.28215528, 0.40213287, 12.32315540, 16.39944458, 116.24634552, -71.03186035, 39.78368759, -75.73809052, 106.09670258, -36.54720688, -85.93338013, -0.58848703, 0.42681277, -0.65513438, -0.20570077, 0.04207512, 0.50804794, -0.18308395, 100.34200287, 82.15006256, 29.21999931, 0.00000000
1, 1.1899, 145, 0.41625977, -1.15966797, 0.05554199, -16.47570992, 38.87845230, -4.05070353, -64.51329803, 7.98012257, -64.71791840, 65.20331573, -29.07806587, -137.66989136, -0.42056155, -0.00891322, -0.56271797, -0.71161580, -0.90265131, 0.36619568, -0.42136210, 100.26900482, 88.27654266, 29.22999954, 0.00000000
1, 1.1949, 146, 0.48443604, -1.23223877, 0.01263428, -18.68070984, 42.93845367, -4.96070385, -64.51329803, 7.98012257, -64.71791840, 65.00765991, -28.96518898, -137.45910645, -0.42145365, -0.00780096, -0.56135076, -0.71218073, -0.96915638, 0.43915001, -0.38149142, 100.26900482, 88.27654266, 29.22999954, 0.00000000
1, 1.2248, 114, -0.82042062, -1.43419254, 0.32902002, 12.35867977, 22.72704315, 118.21943665, -71.03186035, 39.78368759, -75.73809052, 106.20055389, -37.14653015, -86.00114441, -0.58995903, 0.42395973, -0.65685052, -0.20187584, 0.21785147, 0.66659182, -0.11088194, 100.34200287, 82.15006256, 29.21999931, 0.00000000
1, 1.2298, 115, -0.80076855, -1.49979627, 0.26703137, 13.07470036, 40.35416031, 119.85727692, -71.03186035, 39.78368759, -75.73809052, 106.24636078, -37.77812958, -85.96664429, -0.59191996, 0.42122203, -0.65812969, -0.19765691, 0.18970706, 0.73886120, -0.04997526, 100.34200287, 82.15006256, 29.21999931, 0.00000000
1, 1.2348, 116, -0.62731564, -1.52668679, 0.29581404, 15.95785999, 58.36431503, 122.28290558, -71.00263214, 41.24525070, -76.73194885, 106.24108887, -38.44640350, -85.82643890, -0.59434605, 0.41863179, -0.65899050, -0.19295557, 0.00710701, 0.77252185, -0.08027643, 100.34200287, 82.15006256, 29.21999931, 0.00000000
1, 1.2499, 147, 0.79583740, -1.47991943, 0.15393066, -29.88071442, 32.22845078, -38.38571167, -65.27330780, 6.98626137, -67.23180389, 62.71664047, -26.75724602, -135.49678040, -0.42602956, 0.00883830, -0.54338557, -0.72329313, -1.24699044, 0.68644750, -0.56241769, 100.26900482, 88.27654266, 29.22999954, 0.00000000
1, 1.2549, 148, 0.81298828, -1.52270508, 0.16064453, -30.05571556, 25.36844444, -38.42071152, -65.27330780, 6.98626137, -67.23180389, 62.55413818, -26.52834320, -135.46954346, -0.42542893, 0.00999107, -0.54194897, -0.72470808, -1.26050198, 0.72879803, -0.57227778, 100.26900482, 88.27654266, 29.22999954, 0.00000000
1, 1.2599, 149, 0.75378418, -1.55761719, 0.22045898, -29.56571388, 18.05344200, -37.02070999, -65.39023590, 7.39549828, -67.93334961, 62.40901566, -26.32247543, -135.47563171, -0.42469704, 0.01088847, -0.54066139, -0.72608483, -1.19798946, 0.76332617, -0.63492548, 100.26900482, 88.27654266, 29.22999954, 0.00000000
1, 1.2649, 150, 0.67541504, -1.58984375, 0.26690674, -29.70571136, 10.91344070, -36.42571259, -65.39023590, 7.39549828, -67.93334961, 62.27832031, -26.13583565, -135.51600647, -0.42381370, 0.01154299, -0.53949952, -0.72745383, -1.11663091, 0.79521751, -0.68391621, 100.26900482, 88.27654266, 29.22999954, 0.00000000
1, 1.2398, 117, -0.44135752, -1.57156467, 0.33470833, 16.40119171, 66.29440308, 124.39413452, -71.00263214, 41.24525070, -76.73194885, 106.20655823, -39.13129425, -85.63893127, -0.59697783, 0.41606557, -0.65965056, -0.18806417, -0.18826486, 0.82437730, -0.12122274, 100.34200287, 82.15006256, 29.21999931, 0.00000000
1, 1.2448, 118, -0.34874699, -1.56301439, 0.28682578, 14.50050259, 65.08190918, 126.35234070, -71.26570892, 42.58988571, -77.22888184, 106.16731262, -39.82833481, -85.46067810, -0.59961200, 0.41334656, -0.66034997, -0.18316126, -0.29011613, 0.82311165, -0.07576012, 100.34200287, 82.15006256, 29.21999931, 0.00000000
1, 1.2699, 151, 0.53381348, -1.61303711, 0.32666016, -29.25071144, 4.15843821, -37.40571594, -65.21485138, 6.60625553, -68.13796997, 62.16567612, -25.96067619, -135.59254456, -0.42273813, 0.01201450, -0.53847414, -0.72883040, -0.97225124, 0.81806576, -0.74593580, 100.26900482, 88.27654266, 29.22999954, 0.00000000
1, 1.2749, 152, 0.46459961, -1.62628174, 0.35498047, -28.30571365, -1.72156405, -38.87571716, -65.21485138, 6.60625553, -68.13796997, 62.07191467, -25.79290009, -135.70202637, -0.42147535, 0.01235085, -0.53758413, -0.73021185, -0.90035248, 0.83089328, -0.77625936, 100.26900482, 88.27654266, 29.22999954, 0.00000000
1, 1.2799, 153, 0.32128906, -1.66748047, 0.40051270, -26.27571297, -9.45656681, -40.80071640, -65.21485138, 6.60625553, -68.13796997, 62.00671387, -25.63488579, -135.85455322, -0.41996667, 0.01252330, -0.53689760, -0.73158193, -0.75454056, 0.87154281, -0.82333165, 100.26900482, 88.27654266, 29.22999954, 0.00000000
1, 1.2948, 119, -0.51201206, -1.50589240, 0.44327658, 6.03415346, 67.57583618, 137.03523254, -72.28880310, 47.52996063, -80.18123627, 105.37172699, -47.33494186, -83.46465302, -0.62684369, 0.38162082, -0.66647536, -0.13131341, -0.22221224, 0.84948927, -0.26639742, 100.34200287, 82.15006256, 29.21999931, 0.00000000
1, 1.2998, 120, -0.60152918, -1.44294667, 0.43285125, 6.43633842, 63.14788437, 134.43585205, -72.28880310, 47.52996063, -80.18123627, 105.26470947, -48.06636810, -83.27420807, -0.62933016, 0.37825507, -0.66700345, -0.12638490, -0.14134794, 0.79535425, -0.25985596, 100.34200287, 82.15006256, 29.21999931, 0.00000000
1, 1.2849, 154, 0.18402100, -1.70819092, 0.43371582, -24.87571144, -12.43156719, -42.48071671, -64.30867767, 6.63548660, -67.58258057, 61.95627975, -25.47657585, -136.02597046, -0.41833204, 0.01266575, -0.53630680, -0.73294812, -0.61478889, 0.91159868, -0.85783744, 100.26900482, 88.27654266, 29.22999954, 0.00000000
1, 1.3048, 121, -0.71074480, -1.32025671, 0.44116890, 6.99329948, 60.44715881, 131.03442383, -72.28880310, 47.52996063, -80.18123627, 105.16505432, -48.77759933, -83.09203339, -0.63168424, 0.37497309, -0.66752547, -0.12157319, -0.04047853, 0.68133885, -0.27183190, 100.34200287, 82.15006256, 29.21999931, 0.00000000
1, 1.3098, 122, -0.86279690, -1.15970659, 0.49277836, 8.46461010, 58.05671692, 125.17512512, -72.78573608, 50.39462280, -81.87664032, 105.07243347, -49.45723724, -82.91152954, -0.63388956, 0.37187466, -0.66800010, -0.11691536, 0.10353368, 0.52919215, -0.32696277, 100.34200287, 82.15006256, 29.21999931, 0.00000000
1, 1.3148, 123, -0.91353315, -1.07106280, 0.50442040, 8.27085114, 55.06548309, 119.07730865, -72.78573608, 50.39462280, -81.87664032, 104.98210144, -50.10336685, -82.73710632, -0.63595766, 0.36892000, -0.66843474, -0.11247659, 0.14683388, 0.44866809, -0.34185660, 100.34200287, 82.15006256, 29.21999931, 0.00000000
1, 1.3198, 124, -0.97767842, -0.91828012, 0.49745208, 7.99862576, 52.35231400, 111.51494598, -72.81496429, 52.32388306, -81.73048401, 104.89018250, -50.70928574, -82.56415558, -0.63789427, 0.36615267, -0.66880119, -0.10829655, 0.20415196, 0.30359089, -0.33788612, 100.34200287, 82.15006256, 29.21999931, 0.00000000
1, 1.3248, 125, -0.99263537, -0.81962979, 0.50079137, 8.30802250, 54.67460251, 104.80129242, -72.81496429, 52.32388306, -81.73048401, 104.77111053, -51.28550339, -82.35583496, -0.63984418, 0.36359024, -0.66897881, -0.10425505, 0.21267006, 0.21225907, -0.34429938, 100.34200287, 82.15006256, 29.21999931, 0.00000000
1, 1.3298, 126, -0.95087779, -0.70278811, 0.53267235, 7.64986038, 60.35199738, 97.26855469, -72.81496429, 52.32388306, -81.73048401, 104.59694672, -51.83208847, -82.08312988, -0.64191926, 0.36124533, -0.66885811, -0.10035130, 0.16480370, 0.10223368, -0.37948936, 100.34200287, 82.15006256, 29.21999931, 0.00000000
1, 1.3199, 155, -0.30725098, -1.35314941, 0.53613281, -25.71571159, -15.51156998, -74.99571991, -62.14557266, 4.23852682, -67.37796021, 61.73165512, -23.94298935, -137.65335083, -0.40252405, 0.01524343, -0.53230011, -0.74457949, -0.09976926, 0.54863346, -0.96866834, 100.26900482, 88.27654266, 29.22999954, 0.00000000
1, 1.3249, 156, -0.26275635, -1.31085205, 0.54528809, -24.14071274, -14.39156914, -79.33572388, -62.14557266, 4.23852682, -67.37796021, 61.72171021, -23.62771988, -137.92794800, -0.39962557, 0.01619438, -0.53171229, -0.74653810, -0.13931647, 0.50450337, -0.97903597, 100.26900482, 88.27654266, 29.22999954, 0.00000000
1, 1.3348, 127, -0.87472379, -0.57643437, 0.56827301, 7.78489494, 62.33044815, 90.30356598, -72.96112061, 52.93773651, -83.33820343, 104.39353180, -52.34682465, -81.77457428, -0.64400393, 0.35910717, -0.66855699, -0.09660579, 0.08293534, -0.01775590, -0.41857171, 100.34200287, 82.15006256, 29.21999931, 0.00000000
1, 1.3398, 128, -0.81720495, -0.50334942, 0.59929627, 8.23859119, 58.65708542, 83.83073425, -72.96112061, 52.93773651, -83.33820343, 104.22050476, -52.82472992, -81.49327850, -0.64584959, 0.35717070, -0.66831726, -0.09305657, 0.02015633, -0.08485100, -0.45293730, 100.34200287, 82.15006256, 29.21999931, 0.00000000
1, 1.3299, 157, -0.22357178, -1.28344727, 0.58209229, -21.48071098, -14.77656937, -82.10072327, -62.14557266, 4.23852682, -67.37796021, 61.72696304, -23.30120087, -138.21087646, -0.39662072, 0.01724308, -0.53120852, -0.74847323, -0.17330381, 0.47509545, -1.01689696, 100.26900482, 88.27654266, 29.22999954, 0.00000000
1, 1.3349, 158, -0.16711426, -1.29589844, 0.61004639, -20.81571198, -15.86156940, -84.13073730, -61.47325134, 4.00467682, -67.31949615, 61.73784256, -22.96827888, -138.50346375, -0.39351833, 0.01831468, -0.53073603, -0.75041807, -0.22444530, 0.48546055, -1.04578650, 100.26900482, 88.27654266, 29.22999954, 0.00000000
1, 1.3399, 159, -0.10949707, -1.29150391, 0.61956787, -22.04071236, -19.32657051, -85.63573456, -61.47325134, 4.00467682, -67.31949615, 61.74864197, -22.63686752, -138.81570435, -0.39028132, 0.01928638, -0.53027356, -0.75240850, -0.27671945, 0.47899476, -1.05621839, 100.26900482, 88.27654266, 29.22999954, 0.00000000
1, 1.3449, 160, -0.08599854, -1.30267334, 0.59399414, -21.97071266, -26.08157158, -85.63572693, -59.42706680, 3.56620860, -67.78719330, 61.77014160, -22.32138062, -139.15928650, -0.38688186, 0.02003706, -0.52991992, -0.75439107, -0.29504126, 0.48813936, -1.03141987, 100.26900482, 88.27654266, 29.22999954, 0.00000000
1, 1.3499, 161, -0.11956787, -1.33996582, 0.59722900, -19.41571045, -33.43157578, -83.85073090, -59.42706680, 3.56620860, -67.78719330, 61.81386185, -22.03093529, -139.53236389, -0.38336265, 0.02054738, -0.52976745, -0.75627857, -0.25669086, 0.52341390, -1.03503120, 100.26900482, 88.27654266, 29.22999954, 0.00000000
1, 1.3549, 162, -0.18292236, -1.39001465, 0.60821533, -17.66571045, -38.47157669, -82.10073090, -59.42706680, 3.56620860, -67.78719330, 61.87153625, -21.75979233, -139.92391968, -0.37977692, 0.02087992, -0.52975005, -0.75808865, -0.18887343, 0.57145625, -1.04608369, 100.26900482, 88.27654266, 29.22999954, 0.00000000
1, 1.3698, 129, -0.95129091, -0.27599114, 0.48384172, 3.04593778, 47.72135544, 35.12395096, -72.55188751, 54.69160843, -84.91668701, 102.92224121, -54.79743576, -79.68428802, -0.65532839, 0.34951338, -0.66505468, -0.07802196, 0.13344902, -0.28718978, -0.35694158, 100.34200287, 82.15006256, 29.21999931, 0.00000000
1, 1.3748, 130, -0.99163789, -0.23573317, 0.40428326, 2.23480916, 49.86256409, 20.98917961, -72.55188751, 54.69160843, -84.91668701, 102.62060547, -54.95452118, -79.30154419, -0.65681088, 0.34914097, -0.66395259, -0.07659686, 0.17229885, -0.32561693, -0.28078145, 100.34200287, 82.15006256, 29.21999931, 0.00000000
1, 1.3798, 131, -0.98540014, -0.19269454, 0.36253193, 2.07418728, 55.04332733, 11.08978558, -72.55188751, 54.69160843, -84.91668701, 102.26390839, -55.06751633, -78.85335541, -0.65840888, 0.34906554, -0.66254711, -0.07538195, 0.16492203, -0.36760116, -0.24268571, 100.34200287, 82.15006256, 29.21999931, 0.00000000
1, 1.3848, 132, -0.94513482, -0.18122706, 0.35606563, 1.44091356, 58.09883118, 1.04059446, -72.37649536, 57.05933762, -85.61824036, 101.86528015, -55.13283157, -78.35853577, -0.66006756, 0.34926972, -0.66089487, -0.07442809, 0.12390016, -0.37879503, -0.24013585, 100.34200287, 82.15006256, 29.21999931, 0.00000000
1, 1.3898, 133, -0.90078467, -0.16522110, 0.35216635, -0.97602046, 58.63277054, -9.08104610, -72.37649536, 57.05933762, -85.61824036, 101.47364807, -55.17007446, -77.87169647, -0.66164327, 0.34961021, -0.65922499, -0.07364304, 0.07917199, -0.39506918, -0.24014819, 100.34200287, 82.15006256, 29.21999931, 0.00000000
1, 1.3599, 163, -0.20758057, -1.41259766, 0.59643555, -17.31571007, -43.30157852, -80.94572449, -58.90090561, 2.86465931, -66.99795532, 61.93627930, -21.50472260, -140.33442688, -0.37611118, 0.02103148, -0.52981663, -0.75986344, -0.16001682, 0.59208286, -1.03418708, 100.26900482, 88.27654266, 29.22999954, 0.00000000
1, 1.3649, 164, -0.20874023, -1.40374756, 0.56896973, -18.22570992, -49.21657562, -80.87573242, -58.90090561, 2.86465931, -66.99795532, 62.00460815, -21.26341820, -140.77177429, -0.37230539, 0.02097002, -0.52994108, -0.76165056, -0.15488218, 0.58133835, -1.00648618, 100.26900482, 88.27654266, 29.22999954, 0.00000000
1, 1.3948, 134, -0.82483059, -0.13398589, 0.30150762, -4.98846245, 58.79937363, -18.98081779, -72.52265167, 56.65010071, -85.93978119, 101.00779724, -55.13385391, -77.33476257, -0.66334707, 0.35020068, -0.65721887, -0.07344160, 0.00346787, -0.42725444, -0.19349788, 100.34200287, 82.15006256, 29.21999931, 0.00000000
1, 1.3998, 135, -0.73829126, -0.08519835, 0.24119923, -7.99802113, 58.50897217, -28.34341431, -72.52265167, 56.65010071, -85.93978119, 100.51790619, -55.04885483, -76.78659058, -0.66505307, 0.35096791, -0.65506399, -0.07360199, -0.08219478, -0.47787938, -0.13745031, 100.34200287, 82.15006256, 29.21999931, 0.00000000
1, 1.4048, 136, -0.64902693, -0.04685076, 0.20849684, -9.27848339, 56.32680130, -38.08857727, -72.52265167, 56.65010071, -85.93978119, 100.02743530, -54.91130066, -76.24494171, -0.66667926, 0.35196555, -0.65281391, -0.07411532, -0.17013609, -0.51880646, -0.10898899, 100.34200287, 82.15006256, 29.21999931, 0.00000000
1, 1.4249, 165, -0.68835449, -0.55755615, -0.02813721, 0.56929672, -58.45658493, -87.21073151, -51.97310638, -1.69541073, -66.55948639, 63.56396103, -18.56437874, -147.49552917, -0.31634659, 0.01383987, -0.53739339, -0.78162760, 0.36890668, -0.29066762, -0.39431745, 100.26900482, 88.27654266, 29.22999954, 0.00000000
1, 1.4299, 166, -0.60974121, -0.51245117, -0.03790283, 5.64429855, -47.95657730, -81.61072540, -51.97310638, -1.69541073, -66.55948639, 63.72420502, -18.30520439, -147.91296387, -0.31243265, 0.01419564, -0.53819412, -0.78264385, 0.29459402, -0.33823350, -0.38282993, 100.26900482, 88.27654266, 29.22999954, 0.00000000
1, 1.4349, 167, -0.53149414, -0.51373291, -0.02423096, 10.01930046, -37.59657669, -74.82071686, -50.01461411, -2.25080395, -66.09178162, 63.88393402, -18.05251694, -148.26431274, -0.30898640, 0.01480519, -0.53899896, -0.78344655, 0.22056790, -0.33937433, -0.39473373, 100.26900482, 88.27654266, 29.22999954, 0.00000000
1, 1.4399, 168, -0.48242188, -0.53967285, 0.00354004, 13.69430161, -28.70657349, -67.57571411, -50.01461411, -2.25080395, -66.09178162, 64.04215240, -17.81194305, -148.55577087, -0.30599073, 0.01559762, -0.53980768, -0.78404981, 0.17554419, -0.31577212, -0.42071939, 100.26900482, 88.27654266, 29.22999954, 0.00000000
1, 1.4449, 169, -0.44635010, -0.59417725, 0.03222656, 16.63430214, -21.67157364, -60.50571442, -49.37152863, -2.77696586, -65.77024078, 64.19858551, -17.58705330, -148.79672241, -0.30339772, 0.01650332, -0.54062271, -0.78447729, 0.14327803, -0.26350456, -0.44759142, 100.26900482, 88.27654266, 29.22999954, 0.00000000
1, 1.4098, 137, -0.58060569, -0.02755124, 0.20464416, -10.28594398, 51.84635544, -49.22399139, -72.75650024, 57.61473083, -86.26132965, 99.55421448, -54.71247482, -75.72962189, -0.66815102, 0.35323209, -0.65051430, -0.07505019, -0.23671047, -0.54149681, -0.10921612, 100.34200287, 82.15006256, 29.21999931, 0.00000000
1, 1.4148, 138, -0.50405604, 0.00930940, 0.19710317, -12.81738186, 46.64965439, -61.54883575, -72.75650024, 57.61473083, -86.26132965, 99.09621429, -54.44629669, -75.24723053, -0.66946673, 0.35475236, -0.64816159, -0.07649623, -0.31072292, -0.58260882, -0.10543641, 100.34200287, 82.15006256, 29.21999931, 0.00000000
1, 1.4499, 170, -0.41687012, -0.65277100, 0.05944824, 18.13930130, -17.01656914, -54.48571777, -49.37152863, -2.77696586, -65.77024078, 64.35066223, -17.37856483, -149.00105286, -0.30111727, 0.01744618, -0.54142779, -0.78478026, 0.11733310, -0.20702693, -0.47299880, 100.26900482, 88.27654266, 29.22999954, 0.00000000
1, 1.4549, 171, -0.37884521, -0.70196533, 0.06469727, 18.48930168, -14.60156822, -48.67571640, -49.37152863, -2.77696586, -65.77024078, 64.49629974, -17.19055557, -149.18006897, -0.29909059, 0.01833895, -0.54221421, -0.78499192, 0.08254710, -0.15980467, -0.47647262, 100.26900482, 88.27654266, 29.22999954, 0.00000000
1, 1.4599, 172, -0.36566162, -0.72393799, 0.05102539, 18.52430153, -14.53156853, -44.65071869, -48.64074707, -5.08623219, -66.35486603, 64.63861847, -17.02013969, -149.34902954, -0.29720187, 0.01913926, -0.54300129, -0.78514618, 0.07228138, -0.13966994, -0.46103579, 100.26900482, 88.27654266, 29.22999954, 0.00000000
1, 1.5048, 139, -0.29067555, -0.06032749, -0.37289557, 7.34017467, 1.23352730, -188.93559265, -73.72113037, 47.58842468, -87.83981323, 96.43786621, -42.62055206, -72.93863678, -0.66025555, 0.41474220, -0.60765356, -0.15102570, -0.38857502, -0.66745722, 0.45443070, 100.34200287, 82.15006256, 29.21999931, 0.00000000
1, 1.5098, 140, -0.28809091, 0.01912662, -0.38457337, 7.89002419, -16.33086586, -195.67065430, -73.72113037, 47.58842468, -87.83981323, 96.45031738, -41.63908005, -72.90214539, -0.65836674, 0.42001766, -0.60461885, -0.15676244, -0.37861323, -0.75825107, 0.46740687, 100.34200287, 82.15006256, 29.21999931, 0.00000000
1, 1.5148, 141, -0.30002353, 0.08419485, -0.34430718, 11.62513828, -32.48524094, -201.95695496, -73.72113037, 47.58842468, -87.83981323, 96.54844666, -40.61734390, -72.96688080, -0.65588987, 0.42542267, -0.60191286, -0.16286527, -0.35352874, -0.83486962, 0.42954692, 100.34200287, 82.15006256, 29.21999931, 0.00000000
1, 1.5198, 142, -0.30014995, 0.12811758, -0.27467230, 16.81460381, -42.42753601, -208.21887207, -73.57497406, 45.89301300, -87.81057739, 96.70757294, -39.55868149, -73.08751678, -0.65295631, 0.43103403, -0.59936219, -0.16918233, -0.33961290, -0.89046681, 0.36326957, 100.34200287, 82.15006256, 29.21999931, 0.00000000
1, 1.4649, 173, -0.36273193, -0.73779297, 0.02197266, 18.48930168, -15.93156815, -40.41571426, -48.64074707, -5.08623219, -66.35486603, 64.77931976, -16.87146187, -149.51458740, -0.29542372, 0.01979074, -0.54380643, -0.78524387, 0.07190433, -0.12752546, -0.43019167, 100.26900482, 88.27654266, 29.22999954, 0.00000000
1, 1.4699, 174, -0.36151123, -0.74353027, -0.00506592, 18.87430191, -18.38156891, -37.26571655, -47.88073730, -3.12774038, -66.20870972, 64.92272949, -16.74185371, -149.68420410, -0.29369381, 0.02028842, -0.54465675, -0.78529066, 0.07293010, -0.12341812, -0.40128472, 100.26900482, 88.27654266, 29.22999954, 0.00000000
1, 1.5248, 143, -0.27714589, 0.16902730, -0.20353319, 23.67588806, -46.50308609, -214.50245667, -73.57497406, 45.89301300, -87.81057739, 96.90880585, -38.46604538, -73.22335052, -0.64968187, 0.43693656, -0.59680665, -0.17556128, -0.34814507, -0.94308698, 0.29623333, 100.34200287, 82.15006256, 29.21999931, 0.00000000
1, 1.5298, 144, -0.24391830, 0.17915945, -0.16887754, 33.08636093, -46.53104401, -220.16114807, -73.39958954, 44.37298965, -87.25518799, 97.14788055, -37.34482193, -73.34761810, -0.64612168, 0.44321132, -0.59415883, -0.18184036, -0.36616910, -0.96482813, 0.26626676, 100.34200287, 82.15006256, 29.21999931, 0.00000000
1, 1.5348, 145, -0.24162433, 0.11389463, -0.19550867, 40.55353928, -44.22183228, -223.74142456, -73.39958954, 44.37298965, -87.25518799, 97.40724182, -36.20676804, -73.44677734, -0.64238381, 0.44976354, -0.59137565, -0.18796481, -0.35258338, -0.91091782, 0.29784435, 100.34200287, 82.15006256, 29.21999931, 0.00000000
1, 1.5049, 175, -0.60614014, -0.54998779, 0.00457764, 21.60430145, -25.03157043, -6.67570496, -46.21455765, -4.15083313, -65.79947662, 65.98886108, -16.44023895, -150.85223389, -0.28423229, 0.01955923, -0.55179560, -0.78380549, 0.32322511, -0.32591045, -0.39542410, 100.26900482, 88.27654266, 29.22999954, 0.00000000
1, 1.5099, 176, -0.64184570, -0.51483154, 0.02105713, 22.61930275, -20.83157158, -3.00070333, -46.21455765, -4.15083313, -65.79947662, 66.13187408, -16.46879578, -150.95783997, -0.28360859, 0.01919950, -0.55282450, -0.78331518, 0.35847601, -0.36192185, -0.40965071, 100.26900482, 88.27654266, 29.22999954, 0.00000000
1, 1.5398, 146, -0.30486390, -0.00548558, -0.26175141, 55.55751038, -33.35824585, -229.84268188, -73.39958954, 44.37298965, -87.25518799, 97.68579865, -35.05141068, -73.46208954, -0.63856840, 0.45688403, -0.58821702, -0.19361864, -0.27289659, -0.80261648, 0.36911833, 100.34200287, 82.15006256, 29.21999931, 0.00000000
1, 1.5149, 177, -0.63647461, -0.49078369, 0.04797363, 23.84430504, -14.98656845, -0.48070252, -46.21455765, -4.15083313, -65.79947662, 66.27165985, -16.49683762, -151.03034973, -0.28321049, 0.01899390, -0.55382407, -0.78275794, 0.35262546, -0.38679287, -0.43435264, 100.26900482, 88.27654266, 29.22999954, 0.00000000
1, 1.5199, 178, -0.57995605, -0.47906494, 0.07586670, 24.47430420, -9.35156727, 0.77929777, -46.79918289, -2.98158431, -66.55948639, 66.40626526, -16.51917267, -151.07337952, -0.28299069, 0.01895808, -0.55477583, -0.78216410, 0.29570723, -0.39931774, -0.46011424, 100.26900482, 88.27654266, 29.22999954, 0.00000000
1, 1.5249, 179, -0.54553223, -0.44665527, 0.10772705, 23.77430344, -4.97656488, 1.12929785, -46.79918289, -2.98158431, -66.55948639, 66.53124237, -16.53429031, -151.09483337, -0.28288898, 0.01905445, -0.55564928, -0.78157830, 0.26099592, -0.43250209, -0.48998529, 100.26900482, 88.27654266, 29.22999954, 0.00000000
1, 1.5648, 147, -0.71089441, -0.57464302, 0.11417645, 56.83323288, -48.20007706, -245.32015991, -72.55188751, 40.22215652, -85.82286072, 99.27651978, -29.01333618, -73.50034332, -0.61655825, 0.49400443, -0.57135314, -0.22219633, 0.22081643, -0.28614777, 0.02253343, 100.34200287, 82.15006256, 29.21999931, 0.00000000
1, 1.5698, 148, -0.72828138, -0.59039283, 0.13894933, 49.64814758, -49.07149506, -249.35058594, -71.49955750, 37.35749817, -85.88131714, 99.54338837, -27.74270248, -73.54596710, -0.61181086, 0.50102967, -0.56774729, -0.22873522, 0.25751930, -0.28021395, 0.00360894, 100.34200287, 82.15006256, 29.21999931, 0.00000000
1, 1.5299, 180, -0.46459961, -0.41754150, 0.12292480, 24.01930428, -0.00656328, 0.67429787, -47.03303146, -2.83542824, -66.41333008, 66.65094757, -16.53740311, -151.09346008, -0.28289175, 0.01933432, -0.55646873, -0.78098720, 0.17995897, -0.46238694, -0.50332654, 100.26900482, 88.27654266, 29.22999954, 0.00000000
1, 1.5349, 181, -0.41662598, -0.44067383, 0.14282227, 26.78430367, 5.13843822, 2.07429838, -47.03303146, -2.83542824, -66.41333008, 66.77664185, -16.53677750, -151.06455994, -0.28306442, 0.01978963, -0.55731940, -0.78030634, 0.13199407, -0.44007894, -0.52131796, 100.26900482, 88.27654266, 29.22999954, 0.00000000
1, 1.5399, 182, -0.36767578, -0.48175049, 0.15216064, 29.05930519, 7.97343922, 4.97929907, -47.03303146, -2.83542824, -66.41333008, 66.90814972, -16.54399300, -151.01612854, -0.28340253, 0.02029889, -0.55821419, -0.77953070, 0.08296762, -0.39983919, -0.52864546, 100.26900482, 88.27654266, 29.22999954, 0.00000000
1, 1.5748, 149, -0.71364969, -0.58881712, 0.13067082, 43.53669739, -44.51010132, -252.94967651, -71.49955750, 37.35749817, -85.88131714, 99.76275635, -26.45805550, -73.55641937, -0.60719562, 0.50796157, -0.56380767, -0.23539245, 0.26276365, -0.29133552, 0.01717689, 100.34200287, 82.15006256, 29.21999931, 0.00000000
1, 1.5798, 150, -0.68709391, -0.59326911, 0.10091168, 38.60808563, -34.75528336, -256.26483154, -70.91493988, 35.51593018, -85.20899963, 99.93050385, -25.16537285, -73.50543976, -0.60281664, 0.51487869, -0.55941242, -0.24201226, 0.25650936, -0.29613203, 0.05147525, 100.34200287, 82.15006256, 29.21999931, 0.00000000
1, 1.5848, 151, -0.64742625, -0.59983337, 0.05405856, 34.43536758, -22.73676109, -259.29025269, -70.91493988, 35.51593018, -85.20899963, 100.04895782, -23.86826706, -73.38354492, -0.59871393, 0.52181959, -0.55451566, -0.24851254, 0.23748586, -0.29849416, 0.10209039, 100.34200287, 82.15006256, 29.21999931, 0.00000000
1, 1.5898, 152, -0.53873181, -0.62543750, -0.01168382, 31.22496986, -13.90574265, -262.68429565, -70.91493988, 35.51593018, -85.20899963, 100.13047028, -22.56710052, -73.20873260, -0.59481245, 0.52875465, -0.54920810, -0.25492597, 0.14976355, -0.28145659, 0.17106557, 100.34200287, 82.15006256, 29.21999931, 0.00000000
1, 1.5948, 153, -0.48714739, -0.68398142, -0.06033453, 31.03646278, -13.28721809, -263.85894775, -70.18415833, 34.11283112, -85.12130737, 100.21578979, -21.25616837, -73.03032684, -0.59080720, 0.53567898, -0.54377657, -0.26134673, 0.11943212, -0.23110704, 0.22256029, 100.34200287, 82.15006256, 29.21999931, 0.00000000
1, 1.5998, 154, -0.43472350, -0.81653523, -0.13408385, 32.63182831, -18.58456421, -263.16427612, -70.18415833, 34.11283112, -85.12130737, 100.32260895, -19.94423866, -72.87964630, -0.58656752, 0.54249507, -0.53844273, -0.26780033, 0.08857784, -0.10618772, 0.29929861, 100.34200287, 82.15006256, 29.21999931, 0.00000000
1, 1.6048, 155, -0.41084564, -0.90096080, -0.14840889, 33.37665939, -26.90339851, -261.68951416, -68.37181854, 30.07892418, -84.77053070, 100.45064545, -18.63240814, -72.77209473, -0.58205372, 0.54912549, -0.53329331, -0.27435932, 0.08630197, -0.02893608, 0.31691852, 100.34200287, 82.15006256, 29.21999931, 0.00000000
1, 1.6098, 156, -0.35834539, -0.94191790, -0.10170732, 32.06085587, -38.18404388, -259.45297241, -68.37181854, 30.07892418, -84.77053070, 100.59235382, -17.32162285, -72.72256470, -0.57725835, 0.55546176, -0.52839738, -0.28112507, 0.05541068, 0.00529494, 0.27384317, 100.34200287, 82.15006256, 29.21999931, 0.00000000
1, 1.5449, 183, -0.33251953, -0.52923584, 0.15795898, 30.49430466, 8.77843952, 9.07430077, -46.82841110, -3.30312777, -66.12101746, 67.04333496, -16.56858444, -150.95547485, -0.28389764, 0.02075349, -0.55915034, -0.77866709, 0.04748094, -0.35314476, -0.53233469, 100.26900482, 88.27654266, 29.22999954, 0.00000000
1, 1.5499, 184, -0.31195068, -0.56872559, 0.15594482, 32.03430939, 9.37344074, 13.93930244, -46.82841110, -3.30312777, -66.12101746, 67.18257904, -16.61456871, -150.88212585, -0.28457054, 0.02112865, -0.56013459, -0.77770340, 0.02623451, -0.31436825, -0.52811587, 100.26900482, 88.27654266, 29.22999954, 0.00000000
1, 1.5799, 185, -0.29058838, -0.70635986, 0.11901855, 35.84931183, 41.92345428, 37.87931442, -48.61151505, -2.07541656, -67.08564758, 67.89457703, -17.16243362, -149.79753113, -0.29414675, 0.02435278, -0.56535739, -0.77023089, -0.00409369, -0.17884104, -0.47899282, 100.26900482, 88.27654266, 29.22999954, 0.00000000
1, 1.5849, 186, -0.20556641, -0.72387695, 0.09155273, 36.61930847, 46.92845154, 40.01431656, -48.61151505, -2.07541656, -67.08564758, 67.98703766, -17.25974083, -149.49119568, -0.29660884, 0.02541269, -0.56602556, -0.76876032, -0.09072717, -0.16144839, -0.44989449, 100.26900482, 88.27654266, 29.22999954, 0.00000000
1, 1.6598, 157, -0.32323721, -1.39090264, 0.30357483, 10.83497334, -115.43488312, -194.35479736, -64.51329803, 24.81730461, -82.40280151, 102.16889954, -5.26374102, -74.88384247, -0.51994681, 0.59957826, -0.49543747, -0.35313311, 0.22612244, 0.41735631, -0.09719581, 100.34200287, 82.15006256, 29.21999931, 0.00000000
1, 1.6648, 158, -0.33741707, -1.38683712, 0.32970148, 7.01607895, -118.34985352, -185.96313477, -64.51329803, 24.81730461, -82.40280151, 102.23349762, -4.23040104, -75.26869202, -0.51432389, 0.60188705, -0.49334681, -0.36029413, 0.25837210, 0.41195178, -0.12182007, 100.34200287, 82.15006256, 29.21999931, 0.00000000
1, 1.5899, 187, -0.10015869, -0.73272705, 0.04766846, 37.49431229, 48.60845184, 41.90431213, -48.61151505, -2.07541656, -67.08564758, 68.07984161, -17.36313629, -149.17301941, -0.29917181, 0.02649339, -0.56669772, -0.76723409, -0.19783008, -0.15268536, -0.40438589, 100.26900482, 88.27654266, 29.22999954, 0.00000000
1, 1.5949, 188, 0.00988770, -0.74761963, 0.00408936, 39.31430817, 47.97845459, 43.40931320, -49.98538208, -0.90616781, -67.31949615, 68.18120575, -17.47520065, -148.85496521, -0.30176425, 0.02753928, -0.56743461, -0.76563555, -0.30970204, -0.13787334, -0.35907263, 100.26900482, 88.27654266, 29.22999954, 0.00000000
1, 1.5999, 189, 0.10290527, -0.76910400, -0.00543213, 42.95431137, 47.38345718, 45.15931320, -49.98538208, -0.90616781, -67.31949615, 68.29998779, -17.59707069, -148.53642273, -0.30439261, 0.02856960, -0.56829661, -0.76391608, -0.40470749, -0.11651307, -0.34755135, 100.26900482, 88.27654266, 29.22999954, 0.00000000
1, 1.6698, 159, -0.38660091, -1.39518237, 0.35600147, 4.17720842, -117.07025909, -177.83450317, -63.34405136, 23.53113174, -80.91201019, 102.27729034, -3.23781967, -75.65438080, -0.50888449, 0.60392410, -0.49135250, -0.36726701, 0.32495052, 0.41924644, -0.14716056, 100.34200287, 82.15006256, 29.21999931, 0.00000000
1, 1.6748, 160, -0.46884379, -1.39423418, 0.35853904, -0.00895999, -107.61975861, -171.03623962, -63.34405136, 23.53113174, -80.91201019, 102.29185486, -2.28829360, -76.00012970, -0.50382471, 0.60582536, -0.48921996, -0.37389866, 0.42392698, 0.41751844, -0.14933163, 100.34200287, 82.15006256, 29.21999931, 0.00000000
1, 1.6798, 161, -0.55015802, -1.36070120, 0.34404171, -4.76182795, -89.94579315, -166.03274536, -62.58403778, 21.89418221, -80.06430817, 102.27450562, -1.38193774, -76.26454926, -0.49931222, 0.60776043, -0.48671761, -0.38002726, 0.52127385, 0.38340908, -0.13502386, 100.34200287, 82.15006256, 29.21999931, 0.00000000
1, 1.6049, 190, 0.16955566, -0.81445313, 0.02355957, 46.17431641, 48.11845398, 46.80431366, -50.57000732, 0.49693072, -66.55948639, 68.43218231, -17.72590446, -148.21116638, -0.30708638, 0.02962599, -0.56925136, -0.76208472, -0.47348300, -0.07133490, -0.37428319, 100.26900482, 88.27654266, 29.22999954, 0.00000000
1, 1.6099, 191, 0.24865723, -0.83489990, 0.06811523, 51.00431061, 53.15845490, 53.10431671, -50.57000732, 0.49693072, -66.55948639, 68.57656097, -17.87556648, -147.84922791, -0.31010422, 0.03075778, -0.57029933, -0.76003170, -0.55497754, -0.05103523, -0.41637701, 100.26900482, 88.27654266, 29.22999954, 0.00000000
1, 1.6149, 192, 0.32336426, -0.83593750, 0.09887695, 53.20931625, 54.41845703, 54.36431885, -50.57000732, 0.49693072, -66.55948639, 68.72841644, -18.02967644, -147.47883606, -0.31318721, 0.03192940, -0.57139564, -0.75789279, -0.63223505, -0.05013394, -0.44452906, 100.26900482, 88.27654266, 29.22999954, 0.00000000
1, 1.6848, 162, -0.58332402, -1.33097208, 0.34917426, -8.35246181, -68.42536926, -161.23277283, -62.58403778, 21.89418221, -80.06430817, 102.23358917, -0.52189183, -76.42921448, -0.49539912, 0.60983473, -0.48378289, -0.38553283, 0.56963927, 0.35323662, -0.14072426, 100.34200287, 82.15006256, 29.21999931, 0.00000000
1, 1.6898, 163, -0.51138693, -1.30722022, 0.34375802, -12.75605297, -44.59120560, -157.34875488, -62.58403778, 21.89418221, -80.06430817, 102.16879272, 0.28806111, -76.48219299, -0.49216494, 0.61208349, -0.48036271, -0.39035764, 0.51209128, 0.32919592, -0.13607995, 100.34200287, 82.15006256, 29.21999931, 0.00000000
1, 1.6948, 164, -0.35346448, -1.27686656, 0.31723151, -17.03913879, -21.93625069, -153.63461304, -61.15171051, 19.40952873, -79.71353149, 102.08239746, 1.06202233, -76.42935181, -0.48953792, 0.61453629, -0.47643048, -0.39460346, 0.36787176, 0.29869753, -0.11052717, 100.34200287, 82.15006256, 29.21999931, 0.00000000
1, 1.6199, 193, 0.38562012, -0.84405518, 0.15570068, 58.66932297, 53.57845306, 53.69931793, -51.30078888, 0.96463019, -66.58871460, 68.90837097, -18.18322563, -147.11395264, -0.31621429, 0.03316398, -0.57267344, -0.75561488, -0.69704092, -0.04227156, -0.49839741, 100.26900482, 88.27654266, 29.22999954, 0.00000000
1, 1.6249, 194, 0.42163086, -0.89239502, 0.21789551, 64.58432007, 50.32345963, 52.05431747, -51.30078888, 0.96463019, -66.58871460, 69.12303162, -18.33611107, -146.76841736, -0.31909168, 0.03441337, -0.57417864, -0.75320333, -0.73558575, 0.00561965, -0.55710155, 100.26900482, 88.27654266, 29.22999954, 0.00000000
1, 1.6998, 165, -0.14118540, -1.26424932, 0.26933861, -19.05347061, -4.39690590, -149.30012512, -61.15171051, 19.40952873, -79.71353149, 101.98863983, 1.79668057, -76.29639435, -0.48738185, 0.61713099, -0.47218317, -0.39831078, 0.16870022, 0.28609684, -0.06372353, 100.34200287, 82.15006256, 29.21999931, 0.00000000
1, 1.7048, 166, 0.00059256, -1.24943590, 0.23016541, -20.12331963, 5.81599617, -144.13575745, -59.86553574, 19.99415398, -80.09353638, 101.89295197, 2.49580169, -76.11989594, -0.48553357, 0.61974925, -0.46781921, -0.40163827, 0.03944277, 0.27142218, -0.02588135, 100.34200287, 82.15006256, 29.21999931, 0.00000000
1, 1.7298, 167, 0.10733678, -1.03614640, -0.04855418, -13.22187710, 9.35540485, -101.62095642, -58.31628036, 18.47413063, -80.82431793, 101.51479340, 5.33924484, -75.17457581, -0.47874543, 0.63101935, -0.44854409, -0.41403598, -0.01624474, 0.06046201, 0.24613601, 100.34200287, 82.15006256, 29.21999931, 0.00000000
1, 1.7348, 168, 0.06786717, -0.98495841, -0.09782971, -10.78251171, 4.07880306, -91.26213074, -58.31628036, 18.47413063, -80.82431793, 101.47045898, 5.78239584, -75.06391907, -0.47747323, 0.63264090, -0.44574732, -0.41604596, 0.03125029, 0.00993018, 0.29444724, 100.34200287, 82.15006256, 29.21999931, 0.00000000
1, 1.6749, 195, 0.53387451, -1.11651611, 0.22619629, 57.47932053, 42.69345093, 56.11431885, -55.27623367, 4.09237051, -66.70564270, 71.24021149, -19.92915916, -143.86227417, -0.34413427, 0.04418872, -0.58896190, -0.72989237, -0.87391341, 0.22630012, -0.52932620, 100.26900482, 88.27654266, 29.22999954, 0.00000000
1, 1.6799, 196, 0.59985352, -1.16088867, 0.19030762, 51.28431702, 42.30844879, 58.49431992, -56.00701523, 4.88161373, -67.17333984, 71.38939667, -20.13844299, -143.54924011, -0.34698296, 0.04480267, -0.59006828, -0.72760916, -0.94328493, 0.27101687, -0.49061072, 100.26900482, 88.27654266, 29.22999954, 0.00000000
1, 1.7398, 169, 0.03545477, -0.93903494, -0.12536412, -7.78585339, 0.00222365, -79.90032196, -58.31628036, 18.47413063, -80.82431793, 101.41796112, 6.16952610, -74.98709106, -0.47636423, 0.63391292, -0.44335443, -0.41793352, 0.07072210, -0.03539992, 0.32106152, 100.34200287, 82.15006256, 29.21999931, 0.00000000
1, 1.7448, 170, 0.02630685, -0.91158092, -0.12114554, -4.74339867, -1.85763502, -67.99552917, -57.49780655, 17.97719955, -81.32125092, 101.39981079, 6.50465679, -74.92916107, -0.47522011, 0.63508719, -0.44142362, -0.41949415, 0.08588423, -0.06232402, 0.31619209, 100.34200287, 82.15006256, 29.21999931, 0.00000000
1, 1.7498, 171, 0.03173763, -0.91276038, -0.09816400, -2.36002374, -2.21890712, -56.36211014, -57.49780655, 17.97719955, -81.32125092, 101.39245605, 6.78315115, -74.88452148, -0.47421202, 0.63607645, -0.43986288, -0.42077366, 0.08546875, -0.06064339, 0.29293996, 100.34200287, 82.15006256, 29.21999931, 0.00000000
1, 1.6849, 197, 0.66839600, -1.16888428, 0.12744141, 43.23431396, 34.57344437, 59.08931732, -56.00701523, 4.88161373, -67.17333984, 71.51042938, -20.36353874, -143.27438354, -0.34966230, 0.04503325, -0.59102935, -0.72552931, -1.01544249, 0.27959934, -0.42531681, 100.26900482, 88.27654266, 29.22999954, 0.00000000
1, 1.6899, 198, 0.75067139, -1.17303467, 0.08465576, 37.03931046, 26.10344505, 58.24932098, -56.00701523, 4.88161373, -67.17333984, 71.61499786, -20.59855652, -143.04391479, -0.35210472, 0.04492231, -0.59191507, -0.72363025, -1.10151839, 0.28452852, -0.38039571, 100.26900482, 88.27654266, 29.22999954, 0.00000000
1, 1.6949, 199, 0.83862305, -1.16516113, 0.05242920, 29.30430412, 16.02344131, 57.72431946, -56.38702011, 5.70008755, -67.23180389, 71.69841003, -20.84729576, -142.86550903, -0.35428214, 0.04438743, -0.59270501, -0.72195202, -1.19347143, 0.27763110, -0.34631985, 100.26900482, 88.27654266, 29.22999954, 0.00000000
1, 1.6999, 200, 0.88781738, -1.16625977, 0.04101563, 21.77930450, 4.64843893, 56.77931595, -56.38702011, 5.70008755, -67.23180389, 71.76475525, -21.10959625, -142.74656677, -0.35614741, 0.04340199, -0.59342730, -0.72049940, -1.24689078, 0.27990103, -0.33330521, 100.26900482, 88.27654266, 29.22999954, 0.00000000
1, 1.7049, 201, 0.88970947, -1.15100098, 0.03039551, 13.41430187, -4.90656519, 55.13431549, -57.29319000, 6.02163124, -66.99795532, 71.80740356, -21.37912369, -142.67913818, -0.35772708, 0.04202846, -0.59402794, -0.71930230, -1.25315034, 0.26600131, -0.32140249, 100.26900482, 88.27654266, 29.22999954, 0.00000000
1, 1.7099, 202, 0.89349365, -1.11322021, 0.01794434, 4.52429819, -12.92156792, 52.12431717, -57.29319000, 6.02163124, -66.99795532, 71.82218170, -21.64689445, -142.65768433, -0.35901871, 0.04034237, -0.59446573, -0.71839309, -1.26129675, 0.22973487, -0.30807060, 100.26900482, 88.27654266, 29.22999954, 0.00000000
1, 1.7548, 172, 0.05037320, -0.92478883, -0.05357221, -1.96191740, -0.28686926, -45.20958328, -57.38088226, 15.93101406, -81.37971497, 101.38726807, 7.00507545, -74.84133911, -0.47343183, 0.63689327, -0.43857679, -0.42175800, 0.07081354, -0.04822427, 0.24819499, 100.34200287, 82.15006256, 29.21999931, 0.00000000
1, 1.7598, 173, 0.07452459, -0.91998613, -0.03587960, -3.81063581, 2.52585387, -32.36001205, -57.38088226, 15.93101406, -81.37971497, 101.37329102, 7.16121817, -74.79696655, -0.47299135, 0.63747686, -0.43755463, -0.42243159, 0.04954657, -0.05274301, 0.23029414, 100.34200287, 82.15006256, 29.21999931, 0.00000000
1, 1.7648, 174, 0.10890739, -0.90078509, -0.00123041, -5.19644880, 7.98203230, -20.64509964, -57.38088226, 15.93101406, -81.37971497, 101.35456085, 7.25459671, -74.73719025, -0.47290829, 0.63790894, -0.43671939, -0.42273661, 0.01701666, -0.07182071, 0.19542025, 100.34200287, 82.15006256, 29.21999931, 0.00000000
1, 1.7149, 203, 0.85388184, -1.06256104, -0.02148438, -6.11570549, -20.20156860, 48.02931213, -57.29319000, 6.02163124, -66.99795532, 71.80001068, -21.90657043, -142.68034363, -0.36000991, 0.03836736, -0.59467363, -0.71783298, -1.22594571, 0.18074279, -0.26828074, 100.26900482, 88.27654266, 29.22999954, 0.00000000
