time,ax,ay,az,aT
6.289000,2.0006,-1.1536,-1.4545,2.729
6.291000,2.0990,-1.2055,-1.6318,2.919
6.291000,2.1167,-1.2775,-1.9245,3.133
6.292000,2.1067,-1.3452,-2.1437,3.293
6.293000,2.0622,-1.3964,-2.4070,3.464
6.294000,2.0217,-1.4022,-2.5660,3.555
6.295000,2.0567,-1.5205,-2.5827,3.635
6.295000,2.1935,-1.7086,-2.5406,3.766
6.296000,2.9860,-2.0815,-2.5569,4.448
6.297000,3.7855,-2.2755,-2.5907,5.121
6.297000,3.3372,-1.9201,-2.8286,4.778
6.298000,2.3462,-1.6780,-2.9215,4.106
6.303000,1.3232,-1.5277,-2.4630,3.186
6.310000,0.6960,-1.6117,-1.8451,2.547
6.317000,0.3312,-1.7998,-1.4399,2.329
6.318000,0.2196,-1.9137,-1.4138,2.389
6.322000,0.3659,-2.0141,-1.5987,2.597
6.329000,0.5380,-1.9930,-1.9489,2.839
6.333000,0.7771,-1.9195,-2.3784,3.154
6.337000,0.8948,-1.8596,-2.7681,3.453
6.352000,0.9564,-1.8435,-3.0276,3.672
6.353000,0.9835,-1.8756,-3.1695,3.812
6.355000,0.9716,-1.9004,-3.2489,3.887
6.358000,0.9680,-1.8464,-3.2037,3.822
6.409000,0.9341,-1.7972,-3.2445,3.825
6.411000,0.7933,-1.7389,-3.2397,3.761
6.411000,0.5573,-1.6878,-3.1726,3.637
6.412000,0.3840,-1.6654,-3.0768,3.520
6.412000,0.2203,-1.6215,-3.0122,3.428
6.413000,-0.0207,-1.6348,-2.9981,3.415
6.413000,-0.2656,-1.6263,-2.8910,3.328
6.413000,-0.3599,-1.5769,-2.6457,3.101
6.414000,-0.3140,-1.5113,-2.3982,2.852
6.414000,-0.2792,-1.4156,-2.1363,2.578
6.417000,-0.3298,-1.3068,-1.9079,2.336
6.418000,-0.3188,-1.2257,-1.5788,2.024
6.421000,-0.2983,-1.1414,-1.3258,1.775
6.428000,-0.3109,-1.0591,-1.0100,1.496
6.433000,-0.2699,-0.9886,-0.7818,1.289
6.437000,-0.1846,-0.8538,-0.6145,1.068
6.456000,-0.1551,-0.7935,-0.5248,0.964
6.458000,-0.1522,-0.7261,-0.4384,0.862
6.458000,-0.1062,-0.6613,-0.3672,0.764
6.459000,-0.0119,-0.5937,-0.4191,0.727
6.466000,0.0828,-0.4303,-0.4886,0.656
6.466000,0.2068,-0.3162,-0.6694,0.769
6.472000,0.3453,-0.1933,-0.9689,1.047
6.492000,0.5367,-0.1161,-1.1483,1.273
6.494000,0.6734,0.0145,-1.2610,1.430
6.494000,0.8035,0.1323,-1.3887,1.610
6.495000,1.0271,0.1922,-1.4266,1.768
6.497000,1.1998,0.2665,-1.3490,1.825
6.501000,1.2569,0.3717,-1.2418,1.806
6.505000,1.2131,0.4794,-1.0289,1.661
6.510000,1.0999,0.5898,-0.6818,1.422
6.516000,1.0110,0.6617,-0.3079,1.247
6.521000,0.9463,0.7502,0.0352,1.208
6.527000,0.8362,0.8550,0.4627,1.282
6.531000,0.7810,0.8729,0.8094,1.424
6.536000,0.6611,0.9259,1.1523,1.619
6.543000,0.6173,0.9011,1.4365,1.805
6.546000,0.5746,0.8053,1.9349,2.173
6.551000,0.4404,0.9154,3.2141,3.371
6.557000,0.8823,1.0849,3.2700,3.556
6.562000,0.8210,1.2957,2.3524,2.808
6.566000,0.3637,1.4286,2.0761,2.546
6.571000,0.1196,1.4375,2.3545,2.761
6.615000,0.0589,1.2768,2.6468,2.939
6.617000,0.0580,1.1170,2.7589,2.977
6.617000,0.0870,1.1618,2.6477,2.893
6.618000,0.0579,1.2583,2.6744,2.956
6.618000,-0.0170,1.3561,2.6906,3.013
6.619000,-0.0953,1.3068,2.6486,2.955
6.619000,-0.1134,1.1871,2.7302,2.979
6.619000,-0.1551,1.1256,2.8375,3.057
6.620000,-0.2655,1.0840,2.9252,3.131
6.621000,-0.3725,1.0598,3.0697,3.269
6.625000,-0.5234,1.0169,3.1135,3.317
6.630000,-0.6369,0.9957,3.1284,3.344
6.635000,-0.6320,0.9793,3.1292,3.339
6.639000,-0.6955,0.9339,3.0440,3.259
6.645000,-0.7579,0.9147,2.8420,3.080
6.650000,-0.8315,0.8261,2.5231,2.782
6.654000,-0.9112,0.7503,2.2163,2.511
6.663000,-0.9613,0.6707,1.9522,2.277
6.665000,-1.0346,0.6211,1.7332,2.112
6.670000,-1.1168,0.5898,1.5734,2.018
6.696000,-1.3467,0.4812,1.5228,2.089
6.697000,-1.6739,0.3193,1.4594,2.244
6.697000,-1.9860,0.1881,1.4237,2.451
6.697000,-2.1352,0.0967,1.4566,2.587
6.698000,-2.2034,0.0453,1.4143,2.619
6.701000,-2.2648,-0.0740,1.4143,2.671
6.704000,-2.1831,-0.2177,1.4182,2.612
6.711000,-2.0210,-0.3600,1.5218,2.555
6.715000,-1.7859,-0.4722,1.6366,2.468
6.719000,-1.4922,-0.5646,1.7294,2.353
6.726000,-1.2260,-0.6469,1.8627,2.322
6.730000,-1.0400,-0.7597,2.0481,2.419
6.734000,-0.8981,-0.8747,2.2335,2.561
6.740000,-0.8484,-1.0049,2.3356,2.680
6.744000,-0.7833,-1.1478,2.4023,2.775
6.749000,-0.7553,-1.2396,2.4533,2.851
6.754000,-0.7333,-1.2993,2.4381,2.858
6.759000,-0.7575,-1.3417,2.4242,2.872
6.764000,-0.7918,-1.3792,2.4044,2.883
6.769000,-0.8147,-1.3978,2.2835,2.799
6.783000,-0.8642,-1.3693,2.0784,2.635
6.786000,-0.9784,-1.2796,1.8348,2.442
6.787000,-1.1063,-1.2124,1.5097,2.230
6.789000,-1.1925,-1.1507,1.0312,1.952
6.822000,-1.3537,-1.0796,0.4831,1.798
6.823000,-1.4221,-1.1013,-0.0250,1.799
6.823000,-1.4955,-1.0836,-0.5339,1.922
6.824000,-1.5263,-1.1051,-0.9939,2.130
6.824000,-1.5360,-1.0791,-1.5080,2.408
6.825000,-1.6518,-1.0746,-1.9377,2.764
6.825000,-1.8235,-1.1052,-2.4126,3.220
6.828000,-1.9775,-1.1057,-2.7777,3.584
6.834000,-2.0691,-1.1286,-3.0571,3.860
6.838000,-2.0539,-1.2237,-3.3706,4.132
6.845000,-1.9976,-1.2834,-3.5893,4.304
6.848000,-1.8672,-1.2766,-3.6797,4.319
6.853000,-1.6796,-1.3328,-3.6992,4.276
6.860000,-1.4252,-1.3591,-3.7601,4.245
6.864000,-1.1849,-1.3890,-3.7643,4.184
6.869000,-0.9752,-1.4415,-3.7333,4.119
6.879000,-0.7430,-1.4907,-3.6431,4.006
6.880000,-0.4931,-1.5657,-3.4911,3.858
6.883000,-0.2898,-1.6215,-3.2652,3.657
6.888000,-0.1398,-1.6278,-3.0295,3.442
6.919000,0.0313,-1.5825,-2.7649,3.186
6.920000,0.1594,-1.5129,-2.5618,2.979
6.921000,0.1733,-1.5198,-2.4555,2.893
6.921000,0.0899,-1.4935,-2.2691,2.718
6.922000,-0.0590,-1.4799,-2.1697,2.627
6.922000,-0.1724,-1.4239,-1.9873,2.451
6.922000,-0.2622,-1.3379,-1.9707,2.396
6.929000,-0.3133,-1.2289,-1.9881,2.358
6.932000,-0.3832,-1.0728,-2.0731,2.365
6.938000,-0.4000,-0.9957,-2.2068,2.454
6.943000,-0.3903,-0.9207,-2.4204,2.619
6.949000,-0.3575,-0.8253,-2.6139,2.764
6.953000,-0.2858,-0.7114,-2.6514,2.760
6.959000,-0.1212,-0.5905,-2.7247,2.791
6.963000,0.0541,-0.5027,-2.7479,2.794
6.967000,0.1271,-0.4408,-2.6902,2.729
6.973000,0.3438,-0.2132,-2.4751,2.508
6.977000,0.5412,0.0174,-2.2992,2.362
6.983000,0.5688,0.0905,-2.0211,2.102
6.987000,0.5012,0.1782,-1.7055,1.786
6.998000,0.4966,0.2421,-1.3760,1.483
7.000000,0.4192,0.3586,-1.1618,1.286
7.006000,0.3719,0.5010,-1.0148,1.191
7.007000,0.3026,0.6786,-0.7552,1.059
7.048000,0.2216,0.8150,-0.4886,0.976
7.049000,0.1389,0.8859,-0.2529,0.932
7.050000,0.0577,1.0467,-0.0766,1.051
7.050000,-0.0508,1.2182,0.0475,1.220
7.050000,-0.0863,1.3501,0.1389,1.360
7.050000,-0.1924,1.4283,0.1470,1.449
7.050000,-0.2303,1.4793,0.2179,1.513
7.051000,-0.1717,1.5701,0.2726,1.603
7.051000,-0.1004,1.6581,0.3179,1.691
7.059000,-0.0596,1.8197,0.3205,1.849
7.062000,-0.1230,1.9186,0.3209,1.949
7.067000,-0.2047,1.9959,0.3216,2.032
7.072000,-0.2834,2.0854,0.2025,2.114
7.078000,-0.3620,2.1757,0.0162,2.206
7.082000,-0.4529,2.2911,-0.2305,2.347
7.086000,-0.5637,2.3416,-0.5092,2.462
7.092000,-0.5731,2.3902,-0.6723,2.548
7.097000,-0.6176,2.4251,-0.6412,2.583
7.102000,-0.5968,2.4304,-0.5314,2.558
7.106000,-0.5443,2.4467,-0.3333,2.529
7.116000,-0.5201,2.4069,-0.0566,2.463
7.117000,-0.4519,2.3442,0.4184,2.424
7.122000,-0.3230,2.2822,0.9649,2.499
7.167000,-0.1786,2.2126,1.5310,2.697
7.169000,-0.0308,2.1922,2.1243,3.053
7.169000,0.0781,2.1506,2.6784,3.436
7.170000,0.1507,2.0964,3.0577,3.710
7.171000,0.3022,2.1295,3.5376,4.140
7.171000,0.4031,2.1869,3.9777,4.557
7.172000,0.5253,2.1791,4.3974,4.936
7.172000,0.6115,2.1416,4.7088,5.209
7.173000,0.7338,2.1575,4.8884,5.393
7.173000,0.8260,2.1858,4.9055,5.434
7.180000,0.9297,2.2075,4.7460,5.316
7.186000,1.0479,2.2636,4.4840,5.131
7.186000,1.0664,2.2638,4.1097,4.812
7.191000,1.0837,2.2309,3.7805,4.521
7.197000,1.1077,2.2516,3.4410,4.259
7.201000,1.1317,2.2049,3.2340,4.074
7.206000,1.1727,2.1749,3.1759,4.024
7.215000,1.2544,2.1625,3.1657,4.034
7.216000,1.3027,2.1108,3.1193,3.985
7.221000,1.1901,2.0176,3.1058,3.890
7.265000,0.9725,1.8379,3.2445,3.854
7.266000,0.7753,1.5809,3.4374,3.862
7.266000,0.6396,1.3468,3.7371,4.024
7.267000,0.6145,1.1300,4.1630,4.357
7.267000,0.6878,1.0082,4.4790,4.642
7.267000,0.7775,0.9161,4.6545,4.807
7.268000,0.8904,0.7050,4.6467,4.784
7.268000,0.9401,0.4462,4.4086,4.530
7.269000,1.0265,0.2022,4.0740,4.206
7.270000,1.1330,-0.0078,3.6047,3.779
7.276000,1.2863,-0.1522,3.2016,3.454
7.281000,1.3890,-0.2833,2.8475,3.181
7.286000,1.4756,-0.3942,2.4828,2.915
7.290000,1.5684,-0.5081,2.1504,2.710
7.295000,1.6252,-0.5607,1.9675,2.613
7.300000,1.6806,-0.6188,1.7235,2.486
7.305000,1.7400,-0.6777,1.4090,2.339
7.310000,1.7226,-0.8140,1.0124,2.157
7.315000,1.7311,-0.8955,0.5740,2.032
7.320000,1.7800,-0.9894,0.2327,2.050
7.331000,1.8189,-1.0520,-0.1483,2.106
7.332000,1.8955,-1.1094,-0.6052,2.278
7.335000,1.8874,-1.1949,-1.0304,2.460
7.340000,1.9017,-1.2359,-1.5202,2.730
7.375000,1.9088,-1.2802,-2.0629,3.088
7.377000,1.8647,-1.3172,-2.6759,3.517
7.377000,1.8331,-1.4466,-3.2405,3.994
7.377000,1.7752,-1.5556,-3.6591,4.354
7.378000,1.6284,-1.6624,-4.0618,4.681
7.379000,1.4999,-1.7622,-4.2838,4.869
7.379000,1.4062,-1.8428,-4.4117,4.984
7.381000,1.3207,-1.9283,-4.4265,5.006
7.384000,1.2340,-2.0957,-4.3279,4.964
7.389000,1.1918,-2.2088,-4.0871,4.796
7.395000,1.1302,-2.3666,-3.7991,4.616
7.399000,1.1092,-2.5221,-3.4825,4.441
7.404000,1.1078,-2.6306,-3.1890,4.280
7.410000,1.0833,-2.7574,-2.8631,4.120
7.414000,1.1110,-2.8725,-2.5709,4.012
7.419000,1.1431,-2.9261,-2.3907,3.948
7.431000,1.1944,-2.9980,-2.2572,3.938
7.432000,1.2394,-3.0767,-2.2081,3.985
7.434000,1.2904,-3.0810,-2.2433,4.024
7.439000,1.2883,-3.1690,-2.2786,4.110
7.475000,1.1598,-3.1777,-2.3574,4.123
7.477000,0.9651,-3.1646,-2.4293,4.105
7.477000,0.7976,-3.1606,-2.4131,4.056
7.477000,0.7713,-3.1156,-2.3712,3.991
7.478000,0.7996,-3.1109,-2.3706,3.992
7.478000,0.8081,-3.0940,-2.2532,3.912
7.479000,0.7916,-3.0936,-2.2657,3.915
7.479000,0.7928,-3.0879,-2.4797,4.039
7.484000,0.7699,-3.0791,-2.7568,4.204
7.488000,0.6503,-3.0352,-2.9109,4.255
7.495000,0.5776,-3.0207,-3.0022,4.298
7.503000,0.5037,-2.9803,-3.0980,4.328
7.504000,0.3997,-2.8513,-3.1389,4.259
7.509000,0.2708,-2.7439,-3.0388,4.103
7.513000,0.0212,-2.5764,-2.9584,3.923
7.519000,-0.1199,-2.4517,-2.9432,3.832
7.523000,-0.1314,-2.3148,-2.9669,3.765
7.528000,-0.0090,-2.1532,-2.9676,3.666
7.533000,0.2161,-2.0315,-2.8904,3.539
7.538000,0.4631,-1.8368,-2.8505,3.422
7.549000,0.6995,-1.6790,-2.7164,3.269
7.551000,0.7586,-1.5605,-2.4641,3.014
7.553000,0.8019,-1.3710,-2.0510,2.594
7.559000,0.8249,-1.1422,-1.6177,2.145
7.563000,0.8279,-0.9391,-1.2191,1.747
7.568000,0.9308,-0.7450,-0.8476,1.463
7.572000,1.0589,-0.5054,-0.4385,1.253
7.588000,1.2576,-0.3856,-0.1804,1.328
7.589000,1.3021,-0.2374,0.1612,1.333
7.589000,1.3457,-0.0488,0.4359,1.415
7.597000,1.3044,0.1130,0.6746,1.473
7.598000,1.2763,0.2956,0.8921,1.585
7.603000,1.1488,0.4729,1.0882,1.651
7.611000,1.0197,0.6374,1.2248,1.717
7.612000,0.9032,0.7987,1.2758,1.755
7.619000,0.8275,1.0407,1.2961,1.857
7.623000,0.7831,1.2749,1.2018,1.919
7.627000,0.6794,1.4637,0.9927,1.895
7.633000,0.5357,1.6243,0.7330,1.861
7.638000,0.2587,1.7122,0.5799,1.826
7.643000,-0.1323,1.7950,0.5471,1.881
7.648000,-0.5296,1.8994,0.5338,2.043
7.653000,-0.9434,2.0564,0.5827,2.336
7.669000,-1.3936,2.1491,0.6648,2.646
7.672000,-1.8109,2.2875,1.0432,3.098
7.674000,-2.1667,2.3805,1.3590,3.494
7.676000,-2.4490,2.4376,1.6912,3.847
7.677000,-2.6514,2.5351,2.0376,4.196
7.720000,-2.7648,2.4982,2.3267,4.393
7.723000,-2.7422,2.3913,2.6257,4.487
7.724000,-2.5632,2.2117,2.8151,4.403
7.725000,-2.2639,2.1272,3.0051,4.322
7.725000,-1.8753,2.0945,3.2340,4.285
7.726000,-1.3658,2.0844,3.4590,4.263
7.726000,-0.8790,2.0206,3.7855,4.380
7.727000,-0.5289,1.9713,4.1712,4.644
7.727000,-0.2215,1.9219,4.5183,4.915
7.728000,-0.0344,1.8525,4.8326,5.176
7.734000,0.0459,1.7408,5.1578,5.444
7.737000,-0.0206,1.6629,5.3531,5.605
7.746000,-0.2207,1.5414,5.4339,5.653
7.747000,-0.4823,1.4265,5.4409,5.645
7.751000,-0.7524,1.3680,5.3243,5.548
7.758000,-1.0093,1.3010,5.0366,5.299
7.763000,-1.2677,1.2401,4.6495,4.976
7.767000,-1.4563,1.1857,4.0361,4.452
7.772000,-1.6643,1.1026,3.3249,3.878
7.777000,-1.8950,0.9682,2.6230,3.378
7.781000,-2.0557,0.8671,1.9413,2.957
7.786000,-2.0279,0.7835,1.4082,2.590
7.832000,-1.9631,0.7251,0.9823,2.312
7.833000,-1.7852,0.6831,0.6630,2.023
7.834000,-1.6046,0.5643,0.5287,1.781
7.834000,-1.4043,0.4170,0.5169,1.553
7.835000,-1.1292,0.3010,0.5461,1.290
7.835000,-0.8418,0.2111,0.6334,1.074
7.835000,-0.6134,0.1157,0.8054,1.019
7.835000,-0.4387,0.0600,1.0240,1.116
7.836000,-0.3030,-0.0619,1.1294,1.171
7.836000,-0.2604,-0.2790,1.2011,1.260
7.842000,-0.2221,-0.3763,1.3588,1.427
7.846000,-0.1712,-0.4859,1.4667,1.555
7.851000,-0.1885,-0.6030,1.5318,1.657
7.857000,-0.2740,-0.7210,1.5858,1.763
7.862000,-0.3866,-0.8234,1.6097,1.849
7.866000,-0.5428,-0.9725,1.6683,2.006
7.870000,-0.6995,-1.1184,1.6566,2.118
7.881000,-0.8183,-1.2420,1.6080,2.190
7.883000,-0.8563,-1.2620,1.5012,2.140
7.886000,-0.9168,-1.3436,1.3434,2.110
7.927000,-1.0766,-1.5060,1.1276,2.168
7.928000,-1.1853,-1.5937,0.8156,2.147
7.929000,-1.2765,-1.6377,0.5748,2.154
7.929000,-1.3336,-1.6546,0.2924,2.145
7.930000,-1.2970,-1.6489,-0.0793,2.099
7.930000,-1.2721,-1.7091,-0.4903,2.186
7.930000,-1.2952,-1.8082,-1.0459,2.458
7.931000,-1.3062,-1.8716,-1.6461,2.814
7.931000,-1.2983,-1.9270,-2.2008,3.200
7.935000,-1.2956,-1.9952,-2.7510,3.637
7.941000,-1.2578,-1.9943,-3.3596,4.104
7.945000,-1.1760,-2.0313,-3.7974,4.464
7.951000,-1.1725,-2.1394,-4.1726,4.833
7.955000,-1.1825,-2.2199,-4.4592,5.120
7.960000,-1.1700,-2.3108,-4.6385,5.313
7.966000,-1.1116,-2.3544,-4.7420,5.410
7.970000,-1.0694,-2.4252,-4.8172,5.498
7.979000,-1.0441,-2.5185,-4.7518,5.478
7.982000,-0.9978,-2.5847,-4.6506,5.413
7.984000,-0.9259,-2.6219,-4.4989,5.289
8.013000,-0.8830,-2.6567,-4.3539,5.176
8.014000,-0.8091,-2.6589,-4.2125,5.047
8.015000,-0.7185,-2.6669,-3.9646,4.832
8.016000,-0.5676,-2.6220,-3.7361,4.600
8.017000,-0.3946,-2.5891,-3.4862,4.360
8.017000,-0.2710,-2.5522,-3.3937,4.255
8.019000,-0.0815,-2.5355,-3.2788,4.146
8.025000,0.0763,-2.4580,-3.1819,4.021
8.029000,0.1747,-2.3558,-3.0264,3.839
8.034000,0.2820,-2.2174,-2.7931,3.577
8.040000,0.4081,-2.0738,-2.5489,3.311
8.044000,0.5372,-1.9760,-2.4298,3.178
8.050000,0.6097,-1.8356,-2.3137,3.016
8.056000,0.7026,-1.6765,-2.3057,2.936
8.061000,0.7039,-1.5827,-2.3219,2.897
8.065000,0.6566,-1.4554,-2.3413,2.834
8.069000,0.5823,-1.3233,-2.4046,2.806
8.077000,0.5379,-1.1738,-2.4022,2.727
8.080000,0.5943,-0.9923,-2.4085,2.672
8.085000,0.6170,-0.8073,-2.2705,2.487
8.089000,0.5814,-0.6403,-2.1727,2.338
8.095000,0.5543,-0.4624,-2.0624,2.185
8.099000,0.5213,-0.2424,-1.9805,2.062
8.103000,0.5039,-0.0973,-1.9366,2.003
8.115000,0.3581,0.0375,-1.8517,1.886
8.116000,0.1390,0.1626,-1.6545,1.668
8.120000,-0.1456,0.3688,-1.3858,1.441
8.160000,-0.4481,0.5319,-1.0912,1.294
8.162000,-0.7113,0.7142,-0.7446,1.253
8.162000,-0.8765,0.8292,-0.4532,1.289
8.162000,-0.8424,1.0059,-0.3246,1.352
8.163000,-0.7761,1.1146,-0.1646,1.368
8.163000,-0.6904,1.1337,0.0125,1.327
8.163000,-0.5760,1.1684,0.1711,1.314
8.164000,-0.4342,1.2641,0.2464,1.359
8.164000,-0.2117,1.4424,0.2720,1.483
8.169000,-0.0652,1.5909,0.1691,1.601
8.177000,-0.0056,1.7340,0.0403,1.735
8.179000,-0.0511,1.8721,-0.1361,1.878
8.183000,-0.1793,1.9963,-0.3127,2.029
8.190000,-0.4115,2.1163,-0.3819,2.190
8.194000,-0.5987,2.1900,-0.3039,2.291
8.199000,-0.6263,2.3179,-0.1053,2.403
8.206000,-0.5399,2.3997,0.1972,2.468
8.210000,-0.4647,2.4113,0.4286,2.493
8.217000,-0.4343,2.3504,0.6611,2.480
8.217000,-0.3537,2.4009,0.9354,2.601
8.223000,-0.2096,2.5241,1.1967,2.801
8.240000,-0.1047,2.5978,1.5287,3.016
8.243000,-0.2229,2.6102,1.8597,3.213
8.244000,-0.2479,2.6450,2.2614,3.489
8.244000,-0.2728,2.6111,2.5928,3.690
8.248000,-0.4055,2.6780,2.7632,3.869
8.252000,-0.5628,2.6498,2.8016,3.897
8.260000,-0.6376,2.5505,2.8013,3.842
8.264000,-0.7530,2.4377,2.9248,3.881
8.268000,-0.7754,2.3282,3.0572,3.920
8.273000,-0.5859,2.3530,3.2921,4.089
8.279000,-0.3596,2.4088,3.6272,4.369
8.282000,-0.1008,2.4205,3.9268,4.614
8.287000,0.0567,2.4402,4.1291,4.797
8.302000,0.1788,2.4078,4.1651,4.814
8.303000,0.2861,2.3351,4.1572,4.777
8.304000,0.3201,2.3322,4.0479,4.683
8.331000,0.2608,2.3251,3.9997,4.634
8.333000,0.1832,2.3091,3.9958,4.619
8.333000,0.2438,2.3873,4.0623,4.718
8.333000,0.4140,2.3706,4.0890,4.745
8.334000,0.6344,2.3404,4.0735,4.741
8.335000,0.9030,2.3426,4.0229,4.742
8.337000,1.0834,2.2816,3.8581,4.611
8.343000,1.2682,2.2036,3.7343,4.518
8.347000,1.4738,2.1784,3.6344,4.486
8.352000,1.5301,2.0628,3.5391,4.373
8.356000,1.4793,1.9820,3.3737,4.183
8.362000,1.3400,1.8144,3.2339,3.943
8.366000,1.1633,1.6418,3.1311,3.722
8.371000,0.9333,1.4882,3.1611,3.616
8.376000,0.6609,1.2791,3.2640,3.567
8.382000,0.3561,1.0719,3.3179,3.505
8.386000,0.1087,0.8373,3.4691,3.570
8.392000,0.0019,0.5650,3.6200,3.664
8.396000,0.0352,0.2762,3.7804,3.791
8.402000,0.1108,0.0348,3.9268,3.929
8.407000,0.2585,-0.1580,4.1054,4.117
8.413000,0.4150,-0.2911,4.2427,4.273
8.416000,0.5842,-0.4248,4.2265,4.288
8.421000,0.7822,-0.5594,4.0478,4.160
8.426000,0.8805,-0.8029,3.8169,3.999
8.443000,1.0210,-1.0044,3.4980,3.780
8.443000,1.1446,-1.0825,2.9980,3.387
8.444000,1.3039,-1.1546,2.5417,3.081
8.446000,1.3505,-1.2271,1.9638,2.681
8.451000,1.3421,-1.3503,1.3529,2.336
8.457000,1.3094,-1.4374,0.7349,2.079
8.472000,1.2050,-1.5233,0.0948,1.945
8.472000,1.0884,-1.6315,-0.5484,2.036
8.473000,0.9827,-1.7014,-1.1642,2.284
8.481000,0.9767,-1.7015,-1.6885,2.588
8.482000,0.8710,-1.7770,-2.2582,3.003
8.486000,0.7368,-1.8556,-2.7398,3.390
8.493000,0.6915,-1.9823,-3.1407,3.778
8.495000,0.6509,-2.0251,-3.5332,4.124
8.501000,0.5813,-2.0604,-3.8697,4.422
8.505000,0.5184,-2.1525,-4.1506,4.704
8.511000,0.3688,-2.2556,-4.3498,4.914
8.518000,0.2236,-2.3960,-4.5415,5.140
8.520000,0.1705,-2.4995,-4.6758,5.305
8.549000,0.2667,-2.5899,-4.7862,5.449
8.550000,0.2798,-2.6939,-4.8414,5.547
8.550000,0.3248,-2.7852,-4.8366,5.591
8.550000,0.4017,-2.8784,-4.7096,5.534
8.551000,0.4727,-2.9641,-4.5633,5.462
8.551000,0.6121,-2.9926,-4.4188,5.372
8.555000,0.7410,-3.0816,-4.3260,5.363
8.560000,0.7993,-3.1715,-4.1984,5.322
8.565000,0.8707,-3.2220,-4.1028,5.289
8.570000,0.8812,-3.2743,-3.9049,5.172
8.574000,0.9032,-3.2978,-3.6570,5.006
8.580000,0.8823,-3.2736,-3.4356,4.827
8.584000,0.8074,-3.2406,-3.2306,4.647
8.590000,0.7199,-3.1751,-2.9439,4.389
8.595000,0.6321,-3.1277,-2.8048,4.248
8.599000,0.6012,-3.1036,-2.7076,4.162
8.605000,0.5555,-3.0670,-2.6714,4.105
8.610000,0.4734,-3.0418,-2.6842,4.084
8.614000,0.3858,-2.9799,-2.6480,4.005
8.620000,0.2595,-2.8929,-2.6994,3.965
8.629000,0.1180,-2.7806,-2.7310,3.899
8.630000,-0.0270,-2.6836,-2.6592,3.778
8.634000,-0.1169,-2.6017,-2.5894,3.672
8.639000,-0.1495,-2.4704,-2.5238,3.535
8.662000,-0.1087,-2.3208,-2.4076,3.346
8.663000,0.0435,-2.1670,-2.3965,3.231
8.664000,0.1853,-1.9803,-2.4974,3.193
8.664000,0.2877,-1.7963,-2.5216,3.109
8.665000,0.3746,-1.7029,-2.6036,3.134
8.669000,0.4814,-1.6014,-2.5929,3.085
8.674000,0.6244,-1.5108,-2.5066,2.993
8.679000,0.7821,-1.3762,-2.3998,2.875
8.684000,0.8465,-1.2170,-2.1693,2.627
8.689000,0.8131,-1.0550,-1.7865,2.228
8.695000,0.6993,-0.9026,-1.4737,1.864
8.699000,0.6447,-0.7482,-1.1395,1.508
8.705000,0.6351,-0.5635,-0.8914,1.231
8.709000,0.6711,-0.4060,-0.7125,1.060
8.714000,0.7960,-0.1778,-0.5594,0.989
8.720000,0.8335,0.0086,-0.3699,0.912
8.733000,0.8557,0.1771,-0.1562,0.888
8.734000,0.9277,0.3685,0.1106,1.004
8.735000,1.0736,0.5777,0.3203,1.261
8.741000,1.1594,0.7643,0.3559,1.434
8.786000,1.2307,0.9403,0.3824,1.595
8.786000,1.2562,1.0656,0.3182,1.678
8.787000,1.2763,1.1958,0.1846,1.759
8.787000,1.3216,1.3529,0.0408,1.892
8.787000,1.4301,1.5255,0.0636,2.092
8.787000,1.5159,1.6974,0.0922,2.278
8.788000,1.5502,1.8715,0.2072,2.439
8.788000,1.5500,2.0194,0.4515,2.585
8.788000,1.5029,2.1197,0.6311,2.674
8.789000,1.4344,2.1415,0.8849,2.725
8.795000,1.2456,2.1711,1.2388,2.793
8.798000,1.0391,2.1578,1.7099,2.943
8.803000,0.8147,2.1779,2.2337,3.224
8.808000,0.5554,2.1901,2.7198,3.536
8.813000,0.3115,2.1482,3.2787,3.932
8.818000,0.0545,2.1214,3.7744,4.330
8.822000,-0.2390,2.1160,4.2600,4.763
8.828000,-0.4684,2.0695,4.7097,5.166
8.834000,-0.6501,2.0456,5.0019,5.443
8.838000,-0.7311,2.0345,5.2401,5.669
8.843000,-0.7475,2.0218,5.3645,5.781
8.848000,-0.6775,2.0001,5.3777,5.777
8.854000,-0.5353,1.9935,5.4185,5.798
8.877000,-0.3852,2.0065,5.4511,5.821
8.878000,-0.2414,2.0250,5.4371,5.807
8.878000,-0.2088,2.0510,5.5058,5.879
8.879000,-0.2509,1.9743,5.5881,5.932
8.879000,-0.4175,1.9024,5.6100,5.938
8.882000,-0.6843,1.8087,5.4091,5.744
8.887000,-0.9778,1.6574,5.1316,5.481
8.892000,-1.2359,1.5467,4.8014,5.194
8.898000,-1.5052,1.4484,4.1959,4.687
8.903000,-1.8008,1.2960,3.5015,4.145
8.908000,-2.0592,1.1383,2.8061,3.662
8.913000,-2.2481,1.0527,2.1282,3.270
8.917000,-2.3419,0.9443,1.5030,2.939
8.922000,-2.4183,0.8257,0.9993,2.744
8.927000,-2.3649,0.7213,0.6045,2.545
8.932000,-2.2031,0.5791,0.2679,2.294
8.937000,-2.0140,0.4763,0.0008,2.070
8.943000,-1.7206,0.3388,-0.1251,1.758
8.947000,-1.3894,0.1860,-0.0384,1.402
8.951000,-1.0960,0.0221,0.1774,1.110
8.981000,-0.7822,-0.1222,0.5631,0.972
8.981000,-0.6358,-0.2673,1.1363,1.329
8.982000,-0.5722,-0.3997,1.7228,1.859
8.983000,-0.5574,-0.4896,2.2206,2.341
8.983000,-0.5548,-0.5667,2.6020,2.720
8.983000,-0.5624,-0.6869,2.8652,3.000
8.986000,-0.5559,-0.8220,2.9487,3.111
8.991000,-0.6239,-0.9627,3.0012,3.213
8.997000,-0.7142,-1.0998,2.8602,3.146
9.001000,-0.8245,-1.1495,2.5236,2.893
9.006000,-0.9793,-1.1953,2.1348,2.635
9.011000,-1.2215,-1.2174,1.7342,2.446
9.017000,-1.3598,-1.2730,1.2904,2.266
9.021000,-1.5358,-1.2968,0.7935,2.161
9.027000,-1.6876,-1.3528,0.3292,2.188
9.032000,-1.7678,-1.4218,-0.1527,2.274
9.036000,-1.7721,-1.4937,-0.5284,2.377
9.042000,-1.7463,-1.5659,-0.8721,2.502
9.046000,-1.6976,-1.6120,-1.2893,2.673
9.051000,-1.6522,-1.6746,-1.6941,2.899
9.057000,-1.6434,-1.7874,-2.1509,3.244
9.068000,-1.5659,-1.8157,-2.7319,3.635
9.069000,-1.4817,-1.7972,-3.2629,4.009
9.072000,-1.5120,-1.7506,-3.7253,4.385
9.118000,-1.6822,-1.7631,-4.1344,4.799
9.119000,-1.8942,-1.8464,-4.4235,5.154
9.120000,-1.9782,-1.8492,-4.5933,5.332
9.120000,-2.0399,-1.8240,-4.6441,5.390
9.121000,-2.1160,-1.8547,-4.5735,5.370
9.124000,-2.2121,-1.9608,-4.3981,5.299
9.124000,-2.1207,-2.0898,-4.1921,5.142
9.125000,-1.9697,-2.1466,-3.9859,4.937
9.126000,-1.7526,-2.2207,-3.7409,4.690
9.126000,-1.4961,-2.2644,-3.5667,4.482
9.126000,-1.2909,-2.3549,-3.4892,4.403
9.130000,-1.0579,-2.4063,-3.3501,4.258
9.135000,-0.7939,-2.4480,-3.0535,3.993
9.140000,-0.5409,-2.4616,-2.7829,3.755
9.145000,-0.3293,-2.4186,-2.6411,3.596
9.150000,-0.1250,-2.3936,-2.5153,3.474
9.157000,0.0698,-2.3986,-2.4148,3.404
9.161000,0.3914,-2.4103,-2.4277,3.443
9.165000,0.6126,-2.3688,-2.4703,3.477
9.170000,0.7722,-2.3723,-2.4301,3.483
9.211000,0.8615,-2.3134,-2.3477,3.407
9.212000,0.8764,-2.2374,-2.2734,3.308
9.212000,0.8271,-2.1373,-2.1020,3.110
9.213000,0.7476,-2.0302,-1.9865,2.937
9.213000,0.7264,-1.9137,-1.9625,2.836
9.213000,0.7660,-1.7325,-1.9442,2.714
9.213000,0.8355,-1.6061,-2.0297,2.720
9.214000,0.8914,-1.4911,-2.1687,2.779
9.219000,0.9614,-1.3322,-2.3832,2.895
9.220000,0.9041,-1.1791,-2.5489,2.950
9.225000,0.8458,-0.9737,-2.8051,3.087
9.230000,0.6951,-0.7895,-2.9490,3.131
9.235000,0.5424,-0.6280,-3.0267,3.138
9.240000,0.4132,-0.4315,-3.0053,3.064
9.245000,0.2787,-0.2455,-2.8702,2.894
9.249000,0.1811,0.0161,-2.6578,2.664
9.255000,0.0418,0.1735,-2.3606,2.367
9.260000,-0.1436,0.3489,-2.0720,2.106
9.264000,-0.2914,0.5254,-1.8421,1.938
9.269000,-0.3781,0.6573,-1.5966,1.768
9.280000,-0.4781,0.8140,-1.3140,1.618
9.281000,-0.5057,0.9233,-1.0321,1.474
9.284000,-0.5880,1.0061,-0.6454,1.332
9.289000,-0.6315,1.1316,-0.2399,1.318
9.319000,-0.6023,1.2704,0.0892,1.409
9.320000,-0.5549,1.4411,0.2634,1.567
9.321000,-0.5320,1.5887,0.4122,1.725
9.321000,-0.4974,1.6795,0.5645,1.840
9.321000,-0.4243,1.7709,0.5911,1.915
9.321000,-0.3101,1.8798,0.6092,2.000
9.329000,-0.1229,2.0185,0.4895,2.081
9.330000,-0.0014,2.1802,0.3203,2.204
9.334000,0.0307,2.2720,0.0872,2.274
9.339000,0.0453,2.3401,-0.0670,2.342
9.345000,0.0784,2.4399,-0.1378,2.445
9.349000,0.1277,2.5957,-0.2260,2.609
9.355000,-0.0178,2.6833,-0.3152,2.702
9.359000,-0.3126,2.8084,-0.3051,2.842
9.364000,-0.5821,2.8665,-0.2921,2.940
9.368000,-0.7694,2.9273,-0.1904,3.033
9.374000,-0.8945,2.9552,0.0833,3.089
9.379000,-0.9556,2.9503,0.3831,3.125
9.383000,-0.9772,2.9125,0.7830,3.170
9.388000,-0.9842,2.8509,1.2355,3.259
9.395000,-0.9534,2.8513,1.7048,3.456
9.398000,-0.8613,2.7912,2.1699,3.639
9.403000,-0.7177,2.7084,2.5833,3.811
9.446000,-0.5032,2.7294,3.1869,4.226
9.447000,-0.3322,2.7934,3.7299,4.672
9.448000,-0.1756,2.8282,4.1985,5.065
9.449000,-0.1142,2.7351,4.6028,5.355
9.449000,-0.1039,2.6546,4.9244,5.595
9.450000,-0.0487,2.6226,5.1226,5.755
9.450000,0.0305,2.6026,5.2172,5.830
9.450000,0.0621,2.5420,5.2895,5.869
9.451000,0.1566,2.5246,5.2822,5.857
9.453000,0.3288,2.5050,5.2311,5.809
9.458000,0.4568,2.4570,5.1219,5.699
9.463000,0.5198,2.4288,4.9017,5.495
9.468000,0.5059,2.3540,4.6207,5.210
9.473000,0.5249,2.2113,4.2928,4.857
9.478000,0.5594,2.0351,3.9798,4.505
9.483000,0.5344,1.8759,3.7079,4.190
9.488000,0.5191,1.7030,3.4025,3.840
9.494000,0.5129,1.4904,3.3098,3.666
9.499000,0.4315,1.2690,3.3747,3.631
9.502000,0.3851,1.1367,3.3842,3.591
9.538000,0.2990,0.9161,3.4057,3.539
9.539000,0.2641,0.6427,3.5614,3.629
9.539000,0.2733,0.4598,3.6457,3.685
9.540000,0.3718,0.2948,3.5851,3.616
9.540000,0.5072,0.1595,3.5090,3.549
9.540000,0.6319,-0.0445,3.3363,3.396
9.540000,0.8039,-0.2457,3.2516,3.358
9.542000,0.9996,-0.4275,3.0301,3.219
9.547000,1.1236,-0.5521,2.7033,2.979
9.552000,1.2126,-0.6384,2.3621,2.731
9.558000,1.2598,-0.8301,1.9899,2.497
9.562000,1.2921,-0.9689,1.5721,2.254
9.567000,1.3074,-1.0567,1.1610,2.043
9.572000,1.4207,-1.1441,0.7209,1.961
9.578000,1.5052,-1.2327,0.1987,1.956
9.582000,1.5420,-1.3317,-0.3101,2.061
9.587000,1.4882,-1.4476,-0.9231,2.272
9.596000,1.4362,-1.5295,-1.5212,2.592
9.597000,1.4314,-1.5174,-1.9827,2.878
9.602000,1.4355,-1.5419,-2.3012,3.120
9.643000,1.3598,-1.6081,-2.6539,3.388
9.644000,1.2185,-1.7226,-2.9619,3.637
9.645000,1.1238,-1.7920,-3.1562,3.799
9.645000,0.9458,-1.9360,-3.4258,4.047
9.646000,0.8179,-2.0273,-3.6657,4.268
9.646000,0.7543,-2.0109,-3.8330,4.394
9.647000,0.6211,-2.0684,-4.2198,4.740
9.647000,0.5155,-2.1657,-4.4650,4.989
9.649000,0.3969,-2.2764,-4.5811,5.131
9.651000,0.2723,-2.3311,-4.6590,5.217
9.658000,0.2110,-2.3946,-4.5456,5.142
9.661000,0.1631,-2.4050,-4.3222,4.949
9.666000,0.1314,-2.4728,-4.1319,4.817
9.672000,0.1017,-2.5314,-3.9173,4.665
9.677000,0.0933,-2.6167,-3.7019,4.534
9.682000,0.1775,-2.7103,-3.5404,4.462
9.686000,0.2515,-2.7598,-3.2865,4.299
9.691000,0.3488,-2.7969,-2.9064,4.049
9.696000,0.4414,-2.8147,-2.6178,3.869
9.701000,0.4722,-2.8256,-2.3388,3.698
9.707000,0.4723,-2.8422,-2.0115,3.514
9.711000,0.4921,-2.7980,-1.6358,3.278
9.716000,0.4120,-2.7917,-1.2875,3.102
9.722000,0.3085,-2.8143,-1.0525,3.020
9.762000,0.2551,-2.7606,-0.9640,2.935
9.763000,0.2205,-2.7170,-0.6869,2.811
9.764000,0.1278,-2.7290,-0.4843,2.775
9.764000,0.1198,-2.7369,-0.5451,2.793
9.765000,0.1390,-2.6762,-0.4168,2.712
9.765000,0.1947,-2.5683,-0.5303,2.630
9.765000,0.4837,-2.4557,-0.9407,2.674
9.766000,0.7095,-2.4004,-1.3275,2.833
9.767000,0.7747,-2.3059,-1.1244,2.680
9.771000,0.6875,-2.1962,-1.3626,2.674
9.776000,0.5868,-2.1212,-1.7527,2.814
9.780000,0.4578,-2.0350,-2.1227,2.976
9.785000,0.4442,-1.9017,-2.4366,3.123
9.792000,0.5073,-1.7112,-2.4200,3.007
9.795000,0.6408,-1.5565,-2.4610,2.982
9.801000,0.6823,-1.4473,-2.7554,3.186
9.805000,0.5551,-1.2656,-3.1791,3.467
9.810000,0.4789,-1.1138,-3.5509,3.752
9.816000,0.4343,-0.9528,-3.5725,3.723
9.820000,0.3999,-0.7777,-3.4834,3.592
9.834000,0.1575,-0.6866,-3.4012,3.473
9.836000,0.0583,-0.6122,-3.2447,3.302
9.837000,0.0587,-0.4113,-2.9968,3.025
9.887000,0.1034,-0.2328,-2.6385,2.651
9.888000,0.0612,-0.0456,-2.3848,2.386
9.889000,-0.0559,0.1190,-2.1065,2.111
9.889000,-0.1112,0.2683,-1.7031,1.728
9.890000,-0.0472,0.4521,-1.3013,1.378
9.890000,0.0690,0.5648,-0.8409,1.015
9.891000,0.2781,0.7015,-0.5630,0.941
9.891000,0.4535,0.9005,-0.2258,1.033
9.892000,0.5548,1.0204,0.0366,1.162
9.892000,0.6328,1.1596,0.2602,1.346
9.892000,0.6785,1.3182,0.3876,1.532
9.895000,0.7086,1.5059,0.4641,1.728
9.900000,0.7468,1.6681,0.5564,1.910
9.904000,0.7572,1.7570,0.7792,2.066
9.910000,0.7805,1.8329,1.1393,2.295
9.915000,0.7811,1.9076,1.3280,2.452
9.919000,0.8112,1.9527,1.3862,2.528
9.931000,0.8270,2.0357,1.4307,2.622
9.932000,0.7849,2.0632,1.5118,2.676
9.935000,0.6626,2.1074,1.7152,2.797
9.978000,0.4962,2.1417,2.0746,3.023
9.979000,0.3599,2.1800,2.4705,3.314
9.979000,0.2159,2.1913,2.9149,3.653
9.980000,0.1094,2.1724,3.0879,3.777
9.980000,-0.0028,2.1353,3.3797,3.998
9.980000,0.0086,2.0771,3.6685,4.216
9.981000,0.1420,2.0741,3.9546,4.468
9.981000,0.3095,2.0763,4.2259,4.719
9.983000,0.4078,2.1042,4.3969,4.892
9.984000,0.3917,2.0952,4.7026,5.163
9.989000,0.3819,2.0541,4.9897,5.409
9.994000,0.4288,2.0282,5.1845,5.584
9.999000,0.2885,1.9289,5.2944,5.642
10.004000,0.0301,1.8276,5.3938,5.695
10.009000,-0.2215,1.7024,5.4066,5.673
10.014000,-0.5141,1.6801,5.3232,5.606
10.018000,-0.7618,1.6982,5.1679,5.493
10.025000,-0.9455,1.6659,4.8402,5.205
10.029000,-1.0725,1.6387,4.4427,4.855
10.033000,-1.1652,1.6026,4.1259,4.577
10.039000,-1.2254,1.5510,3.9013,4.374
10.047000,-1.2242,1.4893,3.4935,3.990
10.049000,-1.2678,1.3939,2.9979,3.541
10.054000,-1.3476,1.2535,2.6798,3.251
10.099000,-1.3352,1.1642,2.4165,2.996
10.100000,-1.2763,1.0572,2.1622,2.724
10.100000,-1.2190,0.9469,2.0697,2.582
10.100000,-1.2526,0.8427,2.1247,2.606
10.100000,-1.3720,0.6970,2.1811,2.669
10.101000,-1.4962,0.5188,2.2343,2.739
10.101000,-1.5488,0.3631,2.3011,2.797
10.102000,-1.6209,0.2486,2.5540,3.035
10.102000,-1.5588,0.1553,2.9121,3.307
10.104000,-1.4169,0.0732,3.1531,3.458
10.110000,-1.3096,-0.1469,3.3257,3.577
10.113000,-1.2508,-0.2806,3.4041,3.637
10.118000,-1.1393,-0.3855,3.3096,3.521
10.123000,-1.0486,-0.4951,3.0305,3.245
10.128000,-1.0384,-0.6308,2.7701,3.025
10.133000,-1.0152,-0.7565,2.6455,2.933
10.137000,-1.0653,-0.8316,2.4127,2.765
10.145000,-1.1381,-0.9135,2.0884,2.548
10.148000,-1.2101,-1.0280,1.6820,2.313
10.153000,-1.2554,-1.0481,1.1791,2.016
10.193000,-1.2750,-1.1075,0.6801,1.821
10.194000,-1.3172,-1.1364,0.3016,1.766
10.194000,-1.3869,-1.2659,-0.0715,1.879
10.195000,-1.4336,-1.4336,-0.4489,2.077
10.195000,-1.4267,-1.4623,-0.8091,2.197
10.196000,-1.3899,-1.4596,-1.2696,2.382
10.196000,-1.3232,-1.4897,-1.6462,2.585
10.197000,-1.3214,-1.5860,-1.8796,2.792
10.198000,-1.3847,-1.7479,-2.2306,3.154
10.202000,-1.3237,-1.8511,-2.6824,3.518
10.207000,-1.2727,-1.8854,-3.1541,3.889
10.215000,-1.2842,-1.9799,-3.5741,4.283
10.221000,-1.2884,-2.0096,-3.9643,4.627
10.223000,-1.2590,-2.0652,-4.0810,4.744
10.227000,-1.1911,-2.1372,-4.0345,4.718
10.232000,-1.1706,-2.2117,-4.1642,4.858
10.237000,-1.2338,-2.2937,-3.9820,4.758
10.252000,-1.2540,-2.3789,-3.7174,4.588
10.253000,-1.2002,-2.5086,-3.5828,4.535
10.255000,-1.0823,-2.5398,-3.4559,4.423
10.307000,-0.9100,-2.5614,-3.2979,4.274
10.307000,-0.7961,-2.6027,-3.0441,4.083
10.308000,-0.6592,-2.5783,-2.7896,3.855
10.308000,-0.4942,-2.6417,-2.6802,3.796
10.309000,-0.3587,-2.7093,-2.7226,3.858
10.309000,-0.2574,-2.7672,-2.6269,3.824
10.309000,-0.1588,-2.7105,-2.6370,3.785
10.310000,-0.0645,-2.5774,-2.5975,3.660
10.310000,-0.0050,-2.5188,-2.5896,3.613
10.310000,0.0636,-2.4864,-2.7569,3.713
10.311000,0.1230,-2.4104,-2.8318,3.721
10.311000,0.0939,-2.3508,-2.8477,3.694
10.318000,0.0986,-2.2807,-3.2688,3.987
10.322000,0.0718,-2.1922,-3.7917,4.380
10.326000,0.0421,-2.1299,-3.9147,4.457
10.332000,0.0334,-2.0523,-3.9784,4.477
10.337000,0.0449,-1.8832,-3.9731,4.397
10.342000,0.0039,-1.7277,-3.9183,4.282
10.347000,-0.0803,-1.5115,-3.8237,4.112
10.351000,-0.1575,-1.2755,-3.6080,3.830
10.357000,-0.2308,-1.0625,-3.2691,3.445
10.361000,-0.2762,-0.8223,-3.0869,3.206
10.366000,-0.3682,-0.6435,-2.7624,2.860
10.372000,-0.4688,-0.4947,-2.8912,2.970
10.408000,-0.6835,-0.3253,-2.9112,3.008
10.409000,-0.8836,-0.1782,-2.6003,2.752
10.410000,-1.0526,-0.0201,-2.1883,2.428
10.410000,-1.1185,0.1721,-1.6771,2.023
10.411000,-1.1098,0.3692,-1.0689,1.584
10.411000,-1.0569,0.4482,-0.5686,1.281
10.411000,-0.9469,0.5258,-0.3238,1.130
10.412000,-0.8104,0.6115,-0.3269,1.067
10.416000,-0.6257,0.6551,-0.3074,0.957
10.421000,-0.4044,0.7667,-0.2629,0.906
10.426000,-0.2154,0.8051,-0.2319,0.865
10.431000,-0.0297,0.9284,-0.3936,1.009
10.436000,0.1076,1.0317,-0.5472,1.173
10.441000,0.1391,1.1345,-0.6382,1.309
10.447000,0.1536,1.2709,-0.7841,1.501
10.450000,0.1578,1.4006,-0.9685,1.710
10.455000,0.1462,1.4952,-1.0912,1.857
10.461000,-0.0249,1.6246,-1.0833,1.953
10.466000,-0.1145,1.7671,-1.0860,2.077
10.470000,-0.1656,1.8731,-1.1523,2.205
10.482000,-0.2595,1.9620,-1.1820,2.305
10.484000,-0.3703,2.0488,-1.1253,2.367
10.486000,-0.4002,2.1046,-1.1378,2.426
10.544000,-0.3944,2.1924,-0.9878,2.437
10.545000,-0.4200,2.2501,-0.7259,2.401
10.545000,-0.3794,2.2678,-0.3568,2.327
10.546000,-0.3017,2.2669,-0.0239,2.287
10.546000,-0.2654,2.2306,0.2323,2.258
10.547000,-0.2154,2.1852,0.4933,2.250
10.547000,-0.1179,2.1524,0.9454,2.354
10.547000,-0.0306,2.0890,1.7561,2.729
10.548000,0.0539,2.0535,2.6366,3.342
10.548000,0.2190,2.0227,3.2938,3.871
10.548000,0.5240,2.0418,3.9459,4.474
10.549000,0.7660,2.0161,4.6080,5.088
10.550000,0.9762,2.0284,5.1806,5.649
10.555000,1.0781,2.0228,5.5089,5.967
10.560000,1.0579,2.0296,5.6199,6.068
10.565000,0.9997,2.1233,5.5640,6.039
10.569000,0.8663,2.2204,5.3721,5.877
10.578000,0.7324,2.3215,5.1420,5.689
10.580000,0.6299,2.4969,4.9377,5.569
10.584000,0.5615,2.6106,4.6753,5.384
10.590000,0.5533,2.6848,4.4307,5.210
10.611000,0.5239,2.6991,4.1461,4.975
10.612000,0.3439,2.6539,4.0362,4.843
10.612000,0.2567,2.5833,3.9739,4.747
10.613000,0.3042,2.4757,3.9611,4.681
10.614000,0.3368,2.3190,3.9189,4.566
10.619000,0.4588,2.0921,3.8854,4.437
10.625000,0.5143,1.8737,3.7842,4.254
10.630000,0.5765,1.6163,3.7849,4.156
10.635000,0.6898,1.3672,3.8636,4.156
10.640000,0.7412,1.1786,4.0088,4.244
10.644000,0.7759,1.0113,4.0653,4.260
10.649000,0.8586,0.8190,4.2157,4.379
10.655000,1.0333,0.6563,4.2139,4.388
10.660000,1.2004,0.5512,3.9457,4.161
10.665000,1.2411,0.3122,3.7919,4.002
10.669000,1.1999,0.1188,3.5755,3.773
10.677000,1.1953,0.0326,3.2562,3.469
10.679000,1.2897,0.0060,2.8723,3.149
10.684000,1.3350,-0.0928,2.4790,2.817
10.688000,1.3487,-0.2062,2.1192,2.520
10.729000,1.3455,-0.3316,1.7259,2.213
10.730000,1.4310,-0.3635,1.2320,1.923
10.731000,1.5642,-0.4168,0.7046,1.766
10.732000,1.6664,-0.4574,0.1744,1.737
10.732000,1.7758,-0.5155,-0.4093,1.894
10.733000,1.7943,-0.6196,-1.0157,2.153
10.733000,1.8244,-0.6322,-1.5665,2.486
10.734000,1.8612,-0.6201,-2.1600,2.918
10.734000,1.8059,-0.7330,-2.7946,3.407
10.738000,1.7371,-0.8382,-3.2221,3.755
10.743000,1.6619,-0.8614,-3.5675,4.029
10.748000,1.5728,-0.9264,-3.8265,4.240
10.753000,1.4244,-1.0284,-3.9753,4.346
10.758000,1.2929,-1.1192,-4.0096,4.359
10.763000,1.1424,-1.2394,-4.1040,4.437
10.768000,0.9965,-1.3652,-3.9907,4.334
10.773000,0.8333,-1.5091,-3.7699,4.145
10.778000,0.7550,-1.6667,-3.4629,3.917
10.783000,0.6419,-1.8270,-3.1984,3.739
10.790000,0.6087,-1.9693,-2.9255,3.579
10.797000,0.5572,-2.1106,-2.7658,3.523
10.798000,0.5257,-2.3093,-2.5393,3.472
10.803000,0.4597,-2.4579,-2.2723,3.379
10.849000,0.4743,-2.5452,-1.9857,3.263
10.849000,0.6078,-2.6580,-1.8464,3.293
10.849000,0.7669,-2.6703,-1.7153,3.265
10.850000,0.9327,-2.6828,-1.5275,3.225
10.850000,1.0987,-2.7821,-1.6940,3.438
10.851000,1.1555,-2.8771,-1.9514,3.663
10.851000,1.2185,-2.8527,-2.0368,3.711
10.852000,1.1617,-2.8452,-2.2112,3.786
10.853000,1.0928,-2.8304,-2.3764,3.854
10.853000,0.9448,-2.7817,-2.5543,3.893
10.858000,0.7276,-2.7778,-2.7808,3.997
10.862000,0.5487,-2.7774,-2.9943,4.121
10.867000,0.2619,-2.7347,-3.1278,4.163
10.872000,0.0600,-2.6732,-3.3398,4.278
10.877000,-0.1369,-2.6213,-3.4630,4.345
10.882000,-0.2677,-2.5239,-3.4762,4.304
10.887000,-0.2738,-2.4287,-3.5566,4.315
10.894000,-0.2607,-2.3332,-3.6948,4.378
10.897000,-0.2386,-2.2464,-3.9484,4.549
10.902000,-0.1117,-2.1410,-4.0981,4.625
10.907000,-0.0026,-2.0239,-4.1825,4.646
10.940000,0.0837,-1.9716,-4.0271,4.485
10.941000,0.1431,-1.9029,-3.7494,4.207
10.944000,0.2166,-1.7873,-3.2676,3.731
10.944000,0.3170,-1.6376,-2.7942,3.254
10.945000,0.4302,-1.4904,-2.3574,2.822
10.945000,0.5526,-1.3294,-2.1003,2.546
10.946000,0.6938,-1.1475,-2.0632,2.461
10.947000,0.7894,-1.0212,-1.9708,2.356
10.952000,0.8205,-0.8857,-1.7876,2.157
10.957000,0.8329,-0.7026,-1.8172,2.119
10.962000,0.7933,-0.5340,-1.8182,2.054
10.967000,0.7378,-0.2812,-1.7383,1.909
10.972000,0.7700,-0.0566,-1.5801,1.759
10.976000,0.7703,0.1759,-1.4657,1.665
10.981000,0.8271,0.3425,-1.3930,1.656
10.988000,0.9016,0.5200,-1.2784,1.649
10.991000,1.0342,0.6967,-1.0217,1.612
10.996000,1.2059,0.8774,-0.5250,1.581
11.001000,1.4072,1.0119,0.0249,1.733
11.006000,1.6095,1.1094,0.4823,2.013
11.011000,1.6595,1.1432,1.0317,2.264
11.017000,1.6482,1.2447,1.6493,2.643
11.021000,1.6689,1.3651,2.1993,3.080
11.048000,1.6635,1.4562,2.5913,3.406
11.049000,1.6653,1.5920,2.9473,3.741
11.050000,1.5881,1.7411,3.2079,3.980
11.050000,1.3765,1.7861,3.2704,3.972
11.051000,1.1095,1.8712,3.3715,4.012
11.051000,0.8347,1.9315,3.4896,4.075
11.056000,0.5735,2.0012,3.5574,4.122
11.061000,0.4027,2.1378,3.6705,4.267
11.066000,0.2339,2.2217,3.7308,4.349
11.072000,-0.0162,2.1841,3.8768,4.450
11.076000,-0.1846,2.1732,3.9817,4.540
11.081000,-0.1900,2.2632,4.0335,4.629
11.086000,-0.1949,2.3487,4.1855,4.803
11.092000,-0.1611,2.3272,4.3992,4.979
11.095000,-0.1341,2.2463,4.6098,5.130
11.101000,-0.2240,2.2661,4.8920,5.396
11.105000,-0.2919,2.2522,5.2696,5.738
11.110000,-0.3690,2.2351,5.5183,5.965
11.116000,-0.4508,2.1662,5.6792,6.095
11.120000,-0.6498,2.0765,5.7144,6.115
11.130000,-0.8207,2.0396,5.5716,5.990
11.131000,-0.9327,1.9884,5.3277,5.763
11.135000,-1.0982,1.9423,4.9252,5.407
11.182000,-1.2095,1.9117,4.4547,4.996
11.183000,-1.3381,1.7942,4.1311,4.698
11.183000,-1.4503,1.6598,3.8153,4.406
11.184000,-1.5199,1.5855,3.5069,4.138
11.184000,-1.5400,1.4592,3.2631,3.892
11.185000,-1.4820,1.3579,3.0716,3.671
11.185000,-1.3648,1.2364,2.8532,3.396
11.185000,-1.2723,1.1452,2.8709,3.342
11.186000,-1.1469,1.0456,2.9356,3.321
11.187000,-1.1109,0.9230,2.9974,3.327
11.191000,-1.1738,0.7361,3.1235,3.417
11.195000,-1.2615,0.5806,3.2111,3.499
11.200000,-1.3715,0.4438,3.4210,3.712
11.205000,-1.4105,0.3011,3.6769,3.950
11.209000,-1.4933,0.1543,3.8284,4.112
11.215000,-1.4687,-0.0232,3.7420,4.020
11.228000,-1.4758,-0.1553,3.6430,3.934
11.229000,-1.4950,-0.2443,3.5171,3.829
11.230000,-1.4657,-0.3119,3.2807,3.607
11.235000,-1.4147,-0.4082,2.9266,3.276
11.240000,-1.3680,-0.4778,2.5314,2.917
11.267000,-1.3375,-0.5420,1.9394,2.417
11.268000,-1.2969,-0.6096,1.4064,2.008
11.268000,-1.2145,-0.6607,0.9413,1.673
11.268000,-1.2274,-0.6570,0.5439,1.495
11.269000,-1.2922,-0.6841,0.1804,1.473
11.270000,-1.3732,-0.7180,-0.2905,1.577
11.276000,-1.4652,-0.7365,-0.7182,1.790
11.279000,-1.5570,-0.8278,-1.1104,2.084
11.284000,-1.6079,-0.8794,-1.3906,2.301
11.289000,-1.5940,-0.9129,-1.6952,2.500
11.295000,-1.6067,-0.9688,-2.0242,2.760
11.299000,-1.5568,-1.0349,-2.3372,2.993
11.305000,-1.4802,-1.0870,-2.7277,3.288
11.309000,-1.5042,-1.1919,-3.0186,3.577
11.314000,-1.5706,-1.2993,-3.2556,3.841
11.319000,-1.6129,-1.3659,-3.4988,4.088
11.329000,-1.5904,-1.4370,-3.6955,4.272
11.330000,-1.6036,-1.5369,-3.8504,4.445
11.334000,-1.6384,-1.6295,-3.8608,4.500
11.339000,-1.5824,-1.7344,-3.7673,4.439
11.371000,-1.5053,-1.8711,-3.6415,4.362
11.372000,-1.3308,-1.9802,-3.5500,4.277
11.372000,-1.1377,-2.1127,-3.4182,4.176
11.373000,-0.9934,-2.2067,-3.4134,4.184
11.373000,-0.7137,-2.2696,-3.4754,4.212
11.374000,-0.4518,-2.2635,-3.4700,4.168
11.375000,-0.2623,-2.2557,-3.5885,4.247
11.378000,-0.1164,-2.2988,-3.6873,4.347
11.383000,-0.0593,-2.3373,-3.7284,4.401
11.389000,-0.0260,-2.4193,-3.6926,4.415
11.393000,0.0409,-2.4448,-3.5222,4.288
11.399000,0.1557,-2.3927,-3.2985,4.078
11.403000,0.1968,-2.3496,-3.1744,3.954
11.409000,0.2770,-2.3326,-3.0705,3.866
11.413000,0.3558,-2.3563,-3.0083,3.838
11.418000,0.4477,-2.3322,-2.9804,3.811
11.424000,0.5598,-2.3083,-3.0178,3.840
11.428000,0.6346,-2.2654,-3.0417,3.845
11.433000,0.6104,-2.1602,-3.1096,3.835
11.438000,0.5425,-2.1024,-3.1928,3.861
11.444000,0.5119,-2.0438,-3.3634,3.969
11.448000,0.3889,-1.9627,-3.4971,4.029
11.453000,0.2975,-1.8487,-3.5776,4.038
11.466000,0.3283,-1.6995,-3.6122,4.006
11.468000,0.3596,-1.5839,-3.4794,3.840
11.469000,0.3886,-1.3080,-3.4976,3.754
11.473000,0.5751,-1.0561,-3.3533,3.562
11.524000,0.6414,-0.9833,-3.1520,3.364
11.525000,0.5905,-0.8864,-2.9943,3.178
11.525000,0.5951,-0.6884,-2.7942,2.939
11.525000,0.6146,-0.4541,-2.6067,2.716
11.525000,0.4837,-0.2719,-2.3841,2.448
11.526000,0.3363,-0.2159,-2.0642,2.103
11.526000,0.2609,-0.0637,-1.7093,1.730
11.527000,0.2593,0.2419,-1.3958,1.440
11.527000,0.2833,0.4707,-1.0135,1.153
11.528000,0.2924,0.6132,-0.6053,0.910
11.528000,0.3202,0.8058,-0.1738,0.884
11.533000,0.2831,0.9522,0.1475,1.004
11.537000,0.3057,1.0189,0.4259,1.146
11.543000,0.2611,1.1208,0.6421,1.318
11.547000,0.3025,1.2051,0.9040,1.537
11.554000,0.3002,1.3269,1.1589,1.787
11.563000,0.3001,1.4310,1.4236,2.041
11.564000,0.3264,1.5435,1.6218,2.263
11.567000,0.3239,1.6120,1.7438,2.397
11.572000,0.3335,1.7247,1.8378,2.542
11.612000,0.3169,1.7859,1.8465,2.588
11.612000,0.2672,1.8893,1.7481,2.588
11.613000,0.1439,1.8938,1.6050,2.487
11.613000,-0.0046,1.9488,1.5432,2.486
11.613000,-0.1708,2.0064,1.5699,2.553
11.614000,-0.3240,2.0502,1.5938,2.617
11.614000,-0.4496,2.0782,1.6145,2.670
11.614000,-0.5359,2.1529,1.5770,2.722
11.617000,-0.6024,2.2100,1.5934,2.790
11.621000,-0.7592,2.2310,1.4479,2.766
11.627000,-0.9067,2.2137,1.6572,2.910
11.631000,-1.0577,2.2777,1.8335,3.109
11.636000,-1.1313,2.3078,2.0438,3.284
11.642000,-1.0452,2.2871,2.3983,3.475
11.646000,-0.9102,2.2846,2.6031,3.581
11.651000,-0.7145,2.3381,2.6466,3.603
11.657000,-0.5516,2.3469,2.7060,3.624
11.664000,-0.3587,2.4117,2.7766,3.695
11.666000,-0.1495,2.4676,2.8538,3.776
11.671000,-0.0233,2.5814,2.9233,3.900
11.712000,0.0541,2.5831,2.7939,3.805
11.713000,0.1388,2.5759,2.6882,3.726
11.713000,0.2629,2.5578,2.7325,3.752
11.714000,0.4014,2.5359,2.8526,3.838
11.714000,0.5144,2.5057,2.9718,3.921
11.714000,0.5378,2.5555,3.0901,4.046
11.715000,0.4642,2.5436,3.3369,4.221
11.716000,0.3775,2.3865,3.5089,4.260
11.716000,0.2367,2.2082,3.7594,4.366
11.721000,0.0795,2.0853,3.9570,4.474
11.726000,-0.0415,1.9004,4.0826,4.503
11.730000,-0.0896,1.7562,4.1436,4.501
11.736000,-0.0799,1.5759,4.2695,4.552
11.743000,-0.0739,1.3733,4.3983,4.608
11.745000,-0.0528,1.1793,4.4848,4.638
11.750000,0.0264,0.9026,4.5628,4.651
11.756000,0.1055,0.6887,4.5561,4.609
11.760000,0.2010,0.4628,4.5155,4.544
11.765000,0.3394,0.2724,4.2928,4.315
11.770000,0.5332,0.1222,3.9675,4.005
11.780000,0.6731,-0.0598,3.6543,3.716
11.782000,0.6788,-0.2230,3.1811,3.260
11.785000,0.6802,-0.3292,2.7250,2.828
11.827000,0.7181,-0.3618,2.2572,2.396
11.828000,0.6782,-0.4280,1.7943,1.965
11.829000,0.6309,-0.5204,1.2309,1.478
11.829000,0.5505,-0.5759,0.6335,1.018
11.829000,0.5186,-0.6801,0.0520,0.857
11.830000,0.5205,-0.7272,-0.5691,1.060
11.830000,0.5318,-0.7714,-1.1298,1.468
11.830000,0.5349,-0.8005,-1.6232,1.887
11.831000,0.5392,-0.8761,-1.9805,2.232
11.835000,0.5032,-0.9763,-2.3552,2.599
11.841000,0.5269,-1.0579,-2.6948,2.943
11.844000,0.5382,-1.1157,-2.9949,3.241
11.850000,0.5582,-1.2119,-3.1814,3.450
11.855000,0.6253,-1.3078,-3.3696,3.668
11.860000,0.6005,-1.4203,-3.6430,3.956
11.865000,0.5770,-1.5491,-3.7699,4.116
11.869000,0.5428,-1.6679,-3.7456,4.136
11.881000,0.5050,-1.7650,-3.7136,4.143
11.882000,0.5139,-1.8813,-3.7050,4.187
11.885000,0.5168,-2.0050,-3.5831,4.138
11.933000,0.5168,-2.0934,-3.4124,4.037
11.935000,0.5021,-2.2116,-3.2715,3.981
11.935000,0.4799,-2.3311,-3.1219,3.926
11.936000,0.4864,-2.4501,-3.0302,3.927
11.936000,0.4903,-2.5740,-2.9288,3.930
11.937000,0.5614,-2.6286,-2.8345,3.906
11.937000,0.6257,-2.6671,-2.7829,3.905
11.937000,0.6929,-2.6632,-2.7475,3.889
11.938000,0.7063,-2.6840,-2.7976,3.941
11.938000,0.6106,-2.7321,-2.8660,4.006
11.940000,0.5756,-2.7571,-2.9862,4.105
11.944000,0.4814,-2.7495,-3.0673,4.147
11.949000,0.3086,-2.7571,-3.0760,4.142
11.954000,0.1365,-2.7296,-3.0435,4.090
11.959000,0.0437,-2.6452,-3.0129,4.010
11.964000,-0.0490,-2.5998,-3.0202,3.985
11.969000,-0.1035,-2.5551,-3.1083,4.025
11.975000,-0.1726,-2.5132,-3.1409,4.026
11.979000,-0.2498,-2.5268,-3.2475,4.122
11.984000,-0.2038,-2.5311,-3.2771,4.146
11.989000,-0.1426,-2.4375,-3.2636,4.076
11.994000,-0.1212,-2.4134,-3.2741,4.069
11.999000,0.0138,-2.3608,-3.2772,4.039
12.004000,0.0974,-2.2963,-3.2613,3.990
12.013000,0.1849,-2.2366,-3.2550,3.954
12.014000,0.2069,-2.1818,-3.2559,3.925
12.019000,0.1784,-2.0480,-3.2091,3.811
12.059000,0.1668,-1.9118,-3.1291,3.671
12.060000,0.1838,-1.7850,-3.1305,3.608
12.061000,0.2586,-1.6580,-3.0008,3.438
12.061000,0.3764,-1.5068,-2.8812,3.273
12.061000,0.4199,-1.3889,-2.7883,3.143
12.062000,0.3988,-1.2348,-2.6337,2.936
12.062000,0.3534,-1.1067,-2.4893,2.747
12.063000,0.3030,-0.9469,-2.3647,2.565
12.064000,0.2928,-0.8080,-2.2385,2.398
12.068000,0.2530,-0.6564,-2.0368,2.155
12.075000,0.2383,-0.4969,-1.8264,1.908
12.081000,0.3181,-0.3657,-1.6168,1.688
12.083000,0.4586,-0.2362,-1.4439,1.533
12.088000,0.6189,-0.0345,-1.2288,1.376
12.096000,0.7729,0.1603,-1.0286,1.297
12.098000,0.8901,0.2978,-0.7477,1.200
12.103000,0.9809,0.4478,-0.4078,1.153
12.146000,1.1178,0.6003,-0.1451,1.277
12.147000,1.2647,0.8081,0.2223,1.517
12.147000,1.4679,0.9462,0.6251,1.855
12.147000,1.5984,1.0788,1.0756,2.208
12.148000,1.7313,1.1724,1.5070,2.577
12.148000,1.8887,1.3178,1.7686,2.904
12.148000,2.0061,1.5126,1.9420,3.175
12.148000,2.1287,1.6969,1.9865,3.370
12.149000,2.1270,1.8687,1.9261,3.424
12.154000,1.9700,1.9809,1.9109,3.385
12.158000,1.7506,2.0937,1.9311,3.343
12.162000,1.5117,2.2200,1.9955,3.346
12.168000,1.2312,2.2665,2.1209,3.339
12.173000,0.8628,2.3193,2.3501,3.413
12.181000,0.5378,2.4073,2.6639,3.631
12.184000,0.2562,2.4324,2.9713,3.849
12.188000,-0.0801,2.4045,3.2889,4.075
12.192000,-0.3139,2.3976,3.5785,4.319
12.197000,-0.4027,2.3923,3.9718,4.654
12.202000,-0.4880,2.4027,4.3901,5.028
12.215000,-0.5679,2.3802,4.8480,5.431
12.217000,-0.5994,2.2625,5.2526,5.750
12.218000,-0.5546,2.2497,5.6354,6.093
12.262000,-0.4313,2.2597,6.0999,6.519
12.264000,-0.3156,2.2556,6.3333,6.730
12.264000,-0.1976,2.1918,6.4150,6.782
12.265000,-0.1108,2.1323,6.3503,6.700
12.265000,-0.1526,2.0915,6.1347,6.483
12.266000,-0.2406,2.0576,5.8422,6.199
12.266000,-0.3643,2.0189,5.4466,5.820
12.267000,-0.5785,2.0284,5.1175,5.535
12.267000,-0.8253,2.0289,4.7948,5.271
12.267000,-1.0329,1.9659,4.4639,4.986
12.272000,-1.1274,1.9188,4.1580,4.716
12.276000,-1.1041,1.9212,3.7693,4.372
12.282000,-1.1597,1.8565,3.3860,4.032
12.287000,-1.1647,1.7539,3.0436,3.701
12.292000,-1.1453,1.6455,2.6554,3.327
12.296000,-1.0065,1.5366,2.3191,2.958
12.301000,-0.9517,1.3369,2.1418,2.698
12.306000,-0.9286,1.1209,2.1136,2.566
12.311000,-0.9111,0.9172,2.2440,2.590
12.316000,-0.8519,0.7016,2.5783,2.805
12.321000,-0.8396,0.5449,2.9497,3.115
12.327000,-0.8481,0.3552,3.3849,3.508
12.332000,-0.8058,0.2032,3.8010,3.891
12.337000,-0.7219,0.0138,4.0982,4.161
12.385000,-0.6106,-0.1778,4.2173,4.265
12.386000,-0.5314,-0.3650,4.2402,4.289
12.386000,-0.4721,-0.5435,4.1675,4.229
12.386000,-0.4033,-0.7042,4.0328,4.114
12.387000,-0.3817,-0.8898,3.7957,3.917
12.387000,-0.3705,-0.9835,3.5185,3.672
12.387000,-0.4026,-1.0523,3.1271,3.324
12.388000,-0.4752,-1.1506,2.6763,2.952
12.388000,-0.5639,-1.2523,2.1138,2.521
12.388000,-0.6448,-1.2942,1.5035,2.086
12.394000,-0.7278,-1.3262,0.8908,1.756
12.395000,-0.8274,-1.4383,0.2895,1.684
12.402000,-0.8553,-1.4674,-0.3104,1.727
12.406000,-0.8786,-1.4872,-0.8542,1.927
12.411000,-0.8592,-1.5065,-1.3304,2.186
12.416000,-0.8303,-1.5228,-1.7370,2.455
12.420000,-0.8213,-1.5546,-2.0959,2.736
12.427000,-0.8013,-1.5614,-2.4837,3.041
12.430000,-0.7973,-1.6265,-2.9149,3.432
12.435000,-0.8627,-1.6774,-3.3136,3.813
12.467000,-0.8974,-1.7452,-3.6726,4.164
12.468000,-0.9308,-1.8245,-3.9565,4.455
12.468000,-0.9849,-1.9271,-4.1202,4.654
12.469000,-1.0338,-2.0460,-4.2786,4.854
12.469000,-1.1066,-2.0760,-4.4244,5.011
12.469000,-1.1107,-2.1919,-4.5553,5.176
12.470000,-1.1683,-2.3004,-4.6330,5.303
12.475000,-1.1692,-2.4040,-4.6120,5.331
12.481000,-1.1176,-2.4574,-4.4636,5.216
12.485000,-1.0439,-2.4758,-4.2472,5.026
12.490000,-1.0029,-2.5505,-4.0917,4.925
12.495000,-0.8696,-2.5312,-3.9943,4.808
12.500000,-0.7845,-2.5883,-3.7608,4.632
12.505000,-0.6516,-2.6623,-3.5800,4.509
12.510000,-0.5544,-2.6677,-3.4873,4.426
12.515000,-0.3873,-2.6408,-3.4727,4.380
