time,ax,ay,az,aT
16.868000,2.2405,-0.6139,0.4677,2.370
16.869000,2.1515,-0.5297,0.4728,2.266
16.869000,1.9974,-0.4807,0.4872,2.111
16.869000,1.8523,-0.4285,0.5157,1.970
16.870000,1.7475,-0.4331,0.5488,1.882
16.870000,1.6713,-0.3703,0.6053,1.816
16.870000,1.6717,-0.3192,0.6136,1.809
16.870000,1.6076,-0.2344,0.5737,1.723
16.871000,1.5889,-0.1971,0.4904,1.675
16.871000,1.5628,-0.1425,0.3734,1.613
16.871000,1.5363,-0.0802,0.2945,1.566
16.871000,1.5830,-0.0364,0.2466,1.603
16.872000,1.6360,0.0009,0.1649,1.644
16.875000,1.6783,0.0580,0.0664,1.681
16.878000,1.7482,0.0559,-0.0275,1.749
16.883000,1.6590,0.0495,-0.1358,1.665
16.893000,1.6596,-0.0134,-0.1391,1.665
16.897000,1.6888,-0.0561,-0.2430,1.707
16.898000,1.6884,-0.0499,-0.5573,1.779
16.905000,1.5980,-0.0950,-0.7374,1.763
16.909000,1.5495,-0.1551,-0.7954,1.749
16.914000,1.5244,-0.1652,-0.9011,1.778
16.919000,1.4465,-0.1729,-0.9397,1.734
16.923000,1.3925,-0.1760,-0.9782,1.711
16.978000,1.3360,-0.1242,-0.9593,1.649
16.980000,1.2872,-0.0893,-0.9690,1.614
16.982000,1.2054,-0.0764,-0.9263,1.522
16.983000,1.0453,-0.1025,-0.9602,1.423
16.984000,0.8668,-0.1698,-1.0230,1.352
16.985000,0.6746,-0.1971,-1.1001,1.305
16.986000,0.4257,-0.2250,-1.1868,1.281
16.987000,0.2064,-0.2870,-1.2783,1.326
16.987000,0.0332,-0.3230,-1.3100,1.350
16.988000,-0.1128,-0.3448,-1.3871,1.434
16.989000,-0.2179,-0.3789,-1.4307,1.496
16.990000,-0.3346,-0.4060,-1.4838,1.574
16.993000,-0.3890,-0.4213,-1.5608,1.663
16.999000,-0.4244,-0.4559,-1.6759,1.788
16.999000,-0.4480,-0.4402,-1.7095,1.821
17.002000,-0.3835,-0.4938,-1.7836,1.890
17.008000,-0.3359,-0.4849,-1.8719,1.963
17.012000,-0.2626,-0.4899,-1.9288,2.007
17.018000,-0.1015,-0.4584,-1.8898,1.947
17.022000,0.0131,-0.4337,-1.8890,1.938
17.034000,0.1911,-0.4086,-1.8161,1.871
17.038000,0.3440,-0.3353,-1.6954,1.762
17.039000,0.4670,-0.2934,-1.5748,1.669
17.042000,0.6250,-0.2591,-1.4709,1.619
17.109000,0.7821,-0.2396,-1.4437,1.659
17.110000,0.8331,-0.2448,-1.4618,1.700
17.110000,0.8692,-0.1884,-1.5039,1.747
17.111000,0.9191,-0.1708,-1.5602,1.819
17.111000,1.0214,-0.1774,-1.6044,1.910
17.111000,1.1216,-0.1121,-1.6151,1.970
17.112000,1.2482,-0.0900,-1.6257,2.052
17.112000,1.3468,-0.1013,-1.6316,2.118
17.112000,1.4148,-0.1081,-1.5753,2.120
17.113000,1.4763,-0.1223,-1.6028,2.182
17.113000,1.5500,-0.1725,-1.5538,2.202
17.113000,1.6165,-0.2375,-1.4643,2.194
17.114000,1.6378,-0.4032,-1.3652,2.170
17.114000,1.6331,-0.6980,-1.1803,2.132
17.117000,1.5950,-1.0788,-0.9405,2.143
17.122000,1.5979,-1.4326,-0.7990,2.290
17.126000,1.5988,-1.7524,-0.6506,2.460
17.131000,1.6091,-2.0757,-0.4926,2.672
17.136000,1.6051,-2.4643,-0.3513,2.962
17.140000,1.4911,-2.8077,-0.1861,3.185
17.146000,1.3776,-3.1483,-0.0830,3.437
17.151000,1.3294,-3.3972,0.0225,3.648
17.156000,1.2560,-3.5443,0.0780,3.761
17.210000,1.1649,-3.5512,0.1312,3.740
17.211000,1.0538,-3.4633,0.1678,3.624
17.211000,0.8726,-3.3693,0.2309,3.488
17.211000,0.6958,-3.2458,0.3107,3.334
17.212000,0.5281,-3.1128,0.3833,3.180
17.212000,0.3956,-2.9253,0.4176,2.981
17.212000,0.3575,-2.6124,0.4471,2.674
17.212000,0.3581,-2.2925,0.4311,2.360
17.213000,0.4378,-1.9782,0.4868,2.084
17.213000,0.5535,-1.7514,0.4778,1.898
17.213000,0.7022,-1.5910,0.3227,1.769
17.217000,0.7994,-1.5451,0.2061,1.752
17.220000,0.9452,-1.6088,0.1063,1.869
17.225000,1.1199,-1.7030,-0.0291,2.038
17.231000,1.2925,-1.8273,-0.1404,2.243
17.235000,1.5205,-2.0362,-0.2084,2.550
17.240000,1.7684,-2.2548,-0.3215,2.884
17.248000,2.0029,-2.4771,-0.3410,3.204
17.250000,2.2514,-2.6545,-0.3818,3.502
17.255000,2.5045,-2.8343,-0.3099,3.795
17.305000,2.8063,-2.9014,-0.2738,4.046
17.306000,3.0119,-2.9587,-0.1325,4.224
17.306000,3.1123,-3.0276,-0.0153,4.342
17.306000,3.2017,-2.9911,0.0035,4.381
17.307000,3.2709,-2.8729,0.0938,4.354
17.307000,3.2794,-2.6545,0.1742,4.223
17.307000,3.2944,-2.4053,0.2280,4.085
17.307000,3.2362,-2.1668,0.2217,3.901
17.307000,3.0729,-1.9662,0.2655,3.658
17.307000,2.8497,-1.7631,0.2899,3.364
17.310000,2.6181,-1.6184,0.3836,3.102
17.317000,2.4292,-1.4754,0.4316,2.875
17.320000,2.2106,-1.3321,0.4006,2.612
17.325000,2.0135,-1.1817,0.3722,2.364
17.329000,1.8750,-1.0340,0.2962,2.162
17.335000,1.8180,-0.9327,0.2204,2.055
17.341000,1.7874,-0.8655,0.1833,1.994
17.346000,1.7897,-0.9142,0.1631,2.016
17.351000,1.8753,-0.9063,0.1097,2.086
17.354000,2.0250,-0.9498,0.0254,2.237
17.404000,2.1963,-0.9774,-0.1088,2.406
17.405000,2.3774,-1.0533,-0.2786,2.615
17.405000,2.3976,-1.1554,-0.4911,2.706
17.405000,2.3697,-1.2661,-0.7461,2.788
17.406000,2.3095,-1.3657,-0.9553,2.848
17.406000,2.2444,-1.4581,-1.1545,2.915
17.406000,2.2034,-1.5573,-1.2720,2.983
17.407000,2.2353,-1.6245,-1.3391,3.071
17.407000,2.2687,-1.6692,-1.3752,3.134
17.407000,2.2706,-1.7131,-1.3802,3.162
17.410000,2.2503,-1.7491,-1.3446,3.151
17.415000,2.1887,-1.7775,-1.3667,3.133
17.423000,2.0927,-1.8940,-1.3411,3.125
17.424000,1.9886,-1.9458,-1.3731,3.103
17.429000,1.8690,-1.9303,-1.4339,3.046
17.434000,1.7866,-1.9506,-1.4684,3.025
17.439000,1.6548,-1.9660,-1.5221,2.987
17.446000,1.4875,-1.9143,-1.5686,2.888
17.449000,1.3107,-1.8795,-1.6174,2.805
17.453000,1.0933,-1.8901,-1.7090,2.773
17.458000,0.8709,-1.8626,-1.8388,2.758
17.533000,0.6772,-1.8137,-1.9180,2.725
17.534000,0.5548,-1.7361,-2.0114,2.714
17.534000,0.4439,-1.6272,-2.0949,2.689
17.534000,0.3778,-1.5087,-2.1206,2.630
17.535000,0.3373,-1.3922,-2.0863,2.531
17.535000,0.3421,-1.2801,-1.9945,2.395
17.535000,0.3181,-1.1630,-1.8644,2.220
17.536000,0.3157,-1.0486,-1.7608,2.074
17.536000,0.2415,-0.9658,-1.6454,1.923
17.536000,0.1964,-0.9316,-1.5158,1.790
17.536000,0.2139,-0.9030,-1.3723,1.657
17.537000,0.1678,-0.8756,-1.2436,1.530
17.537000,0.0845,-0.8157,-1.1967,1.451
17.537000,0.0313,-0.7737,-1.1575,1.393
17.537000,-0.0303,-0.7592,-1.1138,1.348
17.539000,-0.1239,-0.7745,-1.1114,1.360
17.543000,-0.2396,-0.8148,-1.1310,1.414
17.548000,-0.3582,-0.8226,-1.1702,1.475
17.554000,-0.5133,-0.8792,-1.2169,1.587
17.559000,-0.6594,-0.9124,-1.3669,1.771
17.567000,-0.8040,-0.9246,-1.4692,1.913
17.567000,-0.9422,-0.9563,-1.5909,2.082
17.573000,-1.1124,-0.9810,-1.7223,2.273
17.629000,-1.2477,-1.0055,-1.8059,2.414
17.630000,-1.3675,-1.0205,-1.8753,2.535
17.630000,-1.4479,-1.0593,-1.9782,2.671
17.631000,-1.4467,-1.0600,-2.0907,2.755
17.631000,-1.4839,-1.0367,-2.2053,2.853
17.631000,-1.5003,-0.9941,-2.2981,2.919
17.631000,-1.4985,-0.9925,-2.3570,2.964
17.632000,-1.4981,-0.9549,-2.4107,2.995
17.632000,-1.4420,-0.9200,-2.4497,2.988
17.633000,-1.4068,-0.8589,-2.5336,3.023
17.633000,-1.3186,-0.8435,-2.6337,3.064
17.633000,-1.2254,-0.8140,-2.7595,3.127
17.637000,-1.1318,-0.7989,-2.8608,3.179
17.643000,-0.9608,-0.7719,-2.9066,3.157
17.647000,-0.7764,-0.7616,-2.9497,3.144
17.652000,-0.5925,-0.7103,-3.0883,3.224
17.657000,-0.4545,-0.6493,-3.2123,3.309
17.663000,-0.3092,-0.6069,-3.2787,3.349
17.667000,-0.2191,-0.5974,-3.3998,3.459
17.675000,-0.1335,-0.6012,-3.4945,3.548
17.680000,-0.0711,-0.6590,-3.5652,3.626
17.682000,0.0087,-0.6582,-3.6358,3.695
17.687000,0.0987,-0.6058,-3.6609,3.712
17.693000,0.2158,-0.5639,-3.6573,3.707
17.749000,0.2953,-0.5202,-3.6776,3.726
17.750000,0.3970,-0.4653,-3.6430,3.694
17.751000,0.4589,-0.3729,-3.5893,3.638
17.751000,0.5214,-0.3196,-3.5069,3.560
17.751000,0.5416,-0.2267,-3.3483,3.399
17.752000,0.5292,-0.1707,-3.1588,3.207
17.752000,0.5680,-0.0753,-2.9433,2.999
17.753000,0.5792,0.0426,-2.6972,2.759
17.753000,0.5463,0.1895,-2.4756,2.542
17.753000,0.4736,0.2765,-2.2569,2.323
17.754000,0.3708,0.3060,-2.0458,2.102
17.754000,0.2925,0.3134,-1.8496,1.899
17.758000,0.2344,0.3392,-1.6969,1.746
17.763000,0.1580,0.4073,-1.5088,1.571
17.767000,0.1396,0.4722,-1.3594,1.446
17.772000,0.1193,0.5409,-1.2199,1.340
17.776000,0.1039,0.5967,-0.9492,1.126
17.782000,0.0767,0.6469,-0.6575,0.926
17.791000,0.0927,0.6122,-0.4189,0.748
17.793000,0.0871,0.5785,-0.1591,0.606
17.834000,0.0713,0.5482,0.1003,0.562
17.835000,0.0072,0.4952,0.2757,0.567
17.835000,-0.0764,0.3668,0.4916,0.618
17.835000,-0.1577,0.2182,0.7286,0.777
17.835000,-0.1531,0.0739,0.9319,0.947
17.836000,-0.2226,-0.1044,1.1133,1.140
17.836000,-0.2679,-0.2613,1.2944,1.347
17.836000,-0.3295,-0.4467,1.4346,1.538
17.836000,-0.4405,-0.6365,1.7323,1.897
17.841000,-0.5311,-0.9115,2.1800,2.422
17.845000,-0.6273,-1.2263,2.7250,3.053
17.850000,-0.7190,-1.4831,3.2640,3.657
17.855000,-0.8350,-1.7419,3.7278,4.199
17.860000,-0.9946,-2.0532,4.1643,4.748
17.865000,-1.1405,-2.4411,4.5903,5.323
17.870000,-1.1960,-2.7910,4.9221,5.783
17.875000,-1.2526,-3.1340,5.1575,6.164
17.880000,-1.2533,-3.5535,5.3997,6.584
17.887000,-1.1982,-4.0445,5.6413,7.044
17.890000,-1.1499,-4.6064,5.8324,7.521
17.896000,-1.0107,-5.2028,5.9899,7.998
17.902000,-0.7832,-5.7134,5.9082,8.256
17.905000,-0.4897,-5.9839,5.6214,8.225
17.956000,-0.0973,-6.0010,5.2806,7.994
17.957000,0.4246,-5.8184,4.9554,7.654
17.957000,0.9726,-5.3971,4.7751,7.272
17.958000,1.5419,-4.8779,4.6319,6.901
17.958000,2.1431,-4.2711,4.5142,6.574
17.958000,2.6916,-3.5746,4.4939,6.342
17.959000,3.2735,-2.7303,4.5707,6.250
17.959000,3.7341,-1.7709,4.7396,6.288
17.959000,4.1939,-0.9070,4.9402,6.543
17.960000,4.5793,-0.1172,4.9760,6.763
17.960000,4.9592,0.5354,4.8545,6.960
17.965000,5.2687,1.0207,4.6020,7.070
17.970000,5.5459,1.3886,4.3788,7.201
17.975000,5.8072,1.6653,4.1754,7.344
17.982000,5.9364,1.8456,3.9460,7.363
17.985000,5.9529,1.9272,3.8413,7.342
17.989000,5.8197,1.8580,3.7605,7.174
17.996000,5.5075,1.6956,3.6386,6.815
17.999000,5.0586,1.4123,3.4396,6.278
18.004000,4.6329,1.1025,3.1249,5.696
18.042000,4.2648,0.8435,2.7614,5.150
18.043000,3.7853,0.6169,2.3706,4.509
18.043000,3.0777,0.3516,2.0076,3.691
18.043000,2.3045,0.0674,1.6939,2.861
18.043000,1.5880,-0.1323,1.4103,2.128
18.044000,0.9000,-0.2833,1.1257,1.469
18.044000,0.1950,-0.3519,0.7803,0.878
18.044000,-0.5043,-0.3714,0.5036,0.804
18.050000,-1.2276,-0.3565,0.2504,1.303
18.055000,-1.9523,-0.3717,-0.0077,1.987
18.059000,-2.6772,-0.3861,-0.2297,2.715
18.064000,-3.4133,-0.3450,-0.4727,3.463
18.070000,-4.0348,-0.2893,-0.6649,4.099
18.074000,-4.4280,-0.1930,-0.8514,4.513
18.079000,-4.7192,-0.0587,-1.0154,4.828
18.084000,-4.8423,0.0509,-1.1542,4.978
18.088000,-4.8440,0.1382,-1.2845,5.013
18.094000,-4.7538,0.2789,-1.4039,4.965
18.099000,-4.5812,0.3701,-1.6464,4.882
18.103000,-4.2978,0.4311,-1.8850,4.713
18.108000,-4.0140,0.5265,-2.0504,4.538
18.114000,-3.6310,0.6253,-2.1115,4.247
18.118000,-3.1956,0.7493,-2.1287,3.912
18.123000,-2.7121,0.8576,-2.1330,3.555
18.180000,-2.2295,0.9046,-2.2085,3.266
18.181000,-1.7633,0.9190,-2.3076,3.046
18.181000,-1.3437,0.9297,-2.4256,2.925
18.182000,-0.9835,0.9369,-2.5293,2.871
18.182000,-0.7128,0.8998,-2.5472,2.794
18.182000,-0.4613,0.9169,-2.6757,2.866
18.182000,-0.2401,0.9094,-2.8216,2.974
18.182000,-0.0825,0.9011,-3.0208,3.153
18.183000,0.0096,0.8210,-3.1896,3.294
18.183000,0.0936,0.7242,-3.3424,3.421
18.183000,0.1264,0.5702,-3.4960,3.544
18.183000,0.0530,0.4743,-3.6574,3.688
18.189000,-0.0525,0.3985,-3.8337,3.855
18.194000,-0.2170,0.3095,-3.9507,3.969
18.201000,-0.3599,0.2122,-4.0537,4.075
18.202000,-0.5322,0.1356,-4.0874,4.124
18.207000,-0.7395,0.0583,-4.0421,4.110
18.213000,-0.8938,-0.0297,-3.9778,4.077
18.217000,-1.0672,-0.1208,-3.9252,4.069
18.222000,-1.1598,-0.2034,-3.8485,4.025
18.271000,-1.2244,-0.2274,-3.7381,3.940
18.272000,-1.2971,-0.2575,-3.6921,3.922
18.272000,-1.3493,-0.2603,-3.6505,3.901
18.273000,-1.3545,-0.2670,-3.5681,3.826
18.273000,-1.3776,-0.3420,-3.4925,3.770
18.273000,-1.3728,-0.3751,-3.4097,3.695
18.274000,-1.3016,-0.3856,-3.2836,3.553
18.274000,-1.2405,-0.4092,-3.1192,3.382
18.274000,-1.1223,-0.3408,-2.8664,3.097
18.274000,-0.9586,-0.2788,-2.6426,2.825
18.280000,-0.8167,-0.2212,-2.3760,2.522
18.282000,-0.6700,-0.1803,-2.1791,2.287
18.287000,-0.5903,-0.1564,-1.9873,2.079
18.293000,-0.5437,-0.1327,-1.8987,1.979
18.298000,-0.4966,-0.1237,-1.8271,1.897
18.302000,-0.4705,-0.1342,-1.8059,1.871
18.307000,-0.4556,-0.1064,-1.8089,1.868
18.312000,-0.4497,-0.0619,-1.8264,1.882
18.317000,-0.4171,-0.0531,-1.8440,1.891
18.322000,-0.4059,-0.0319,-1.8232,1.868
18.328000,-0.3537,0.0040,-1.6878,1.724
18.332000,-0.2916,0.0905,-1.5789,1.608
18.338000,-0.2553,0.1864,-1.4678,1.501
18.342000,-0.2262,0.3059,-1.3331,1.386
18.407000,-0.2520,0.3719,-1.2320,1.311
18.407000,-0.3039,0.3962,-1.1384,1.243
18.408000,-0.3656,0.3784,-1.0832,1.204
18.408000,-0.4323,0.3449,-1.0401,1.178
18.409000,-0.4469,0.3121,-1.0592,1.191
18.409000,-0.5341,0.2636,-1.0806,1.234
18.409000,-0.5500,0.1802,-1.0971,1.240
18.410000,-0.5498,0.1722,-1.1637,1.299
18.410000,-0.5577,0.0726,-1.2110,1.335
18.410000,-0.4687,0.0012,-1.2628,1.347
18.410000,-0.4453,-0.0537,-1.2019,1.283
18.411000,-0.4110,-0.1160,-1.0931,1.174
18.411000,-0.2936,-0.2287,-0.8766,0.952
18.419000,-0.1788,-0.3796,-0.5911,0.725
18.419000,-0.0685,-0.5547,-0.2582,0.616
18.427000,-0.0246,-0.8161,0.0956,0.822
18.428000,0.0463,-1.0633,0.4344,1.150
18.431000,0.1464,-1.3583,0.7320,1.550
18.436000,0.2571,-1.6124,1.0265,1.929
18.441000,0.3284,-1.8753,1.2773,2.293
18.449000,0.3961,-2.2018,1.4774,2.681
18.451000,0.4675,-2.4761,1.6579,3.016
18.456000,0.4972,-2.7268,1.8331,3.323
18.517000,0.5576,-2.9005,2.0365,3.588
18.518000,0.6822,-3.0951,2.2968,3.914
18.518000,0.7798,-3.2769,2.6091,4.261
18.518000,0.9242,-3.4386,2.8683,4.572
18.519000,1.0557,-3.4892,3.0218,4.735
18.519000,1.1493,-3.4001,3.1036,4.745
18.519000,1.2859,-3.1808,3.0898,4.617
18.520000,1.3928,-2.8317,3.1221,4.439
18.520000,1.4169,-2.4248,3.2099,4.265
18.520000,1.4201,-1.9753,3.3102,4.108
18.520000,1.3420,-1.5990,3.4589,4.040
18.521000,1.2356,-1.2515,3.6534,4.055
18.521000,1.1844,-0.9509,3.9511,4.233
18.528000,1.1383,-0.8657,4.3419,4.571
18.531000,1.0801,-1.0469,4.6800,4.916
18.536000,1.0790,-1.3855,5.0704,5.366
18.540000,1.1444,-1.7833,5.2526,5.664
18.546000,1.3332,-2.1330,5.1383,5.721
18.551000,1.5475,-2.3501,4.7853,5.551
18.555000,1.7490,-2.4864,4.1390,5.135
18.562000,1.8975,-2.5547,3.4437,4.689
18.567000,2.0623,-2.6730,2.8648,4.428
18.570000,2.2782,-2.8303,2.4425,4.378
18.575000,2.6080,-2.9464,2.1766,4.497
18.637000,2.9588,-2.9346,2.0262,4.634
18.638000,3.2456,-2.8330,1.9718,4.738
18.638000,3.4306,-2.6823,1.9487,4.771
18.638000,3.5623,-2.5020,1.9734,4.780
18.639000,3.5958,-2.2976,2.0576,4.737
18.639000,3.5505,-2.1391,2.1892,4.688
18.639000,3.4367,-1.9776,2.3439,4.606
18.640000,3.2285,-1.8378,2.4449,4.447
18.640000,2.9685,-1.7106,2.4160,4.192
18.640000,2.6919,-1.6252,2.2789,3.883
18.640000,2.4024,-1.5668,2.0340,3.516
18.641000,2.0611,-1.5283,1.8084,3.139
18.641000,1.6861,-1.4512,1.5260,2.698
18.648000,1.3915,-1.3380,1.3400,2.350
18.650000,1.1890,-1.2246,1.1618,2.065
18.655000,1.0664,-1.0796,0.9271,1.778
18.663000,0.9516,-0.8773,0.7649,1.503
18.666000,0.8591,-0.6655,0.5938,1.238
18.670000,0.7053,-0.5068,0.3947,0.954
18.674000,0.5263,-0.3250,0.2034,0.651
18.734000,0.3770,-0.1847,0.0271,0.421
18.734000,0.2912,-0.0763,-0.1248,0.326
18.735000,0.2238,0.0268,-0.3289,0.399
18.735000,0.1845,0.1053,-0.4322,0.482
18.735000,0.2091,0.2455,-0.5304,0.621
18.735000,0.2164,0.3375,-0.6306,0.747
18.736000,0.2686,0.4624,-0.8334,0.990
18.736000,0.3060,0.5722,-0.9546,1.154
18.736000,0.2880,0.5832,-1.0445,1.230
18.737000,0.1940,0.6219,-1.1632,1.333
18.737000,0.0648,0.6407,-1.2772,1.430
18.737000,-0.0559,0.6516,-1.4608,1.601
18.739000,-0.1873,0.6979,-1.6086,1.763
18.744000,-0.2887,0.6892,-1.6752,1.834
18.749000,-0.3908,0.6614,-1.7541,1.915
18.754000,-0.5370,0.6531,-1.8260,2.012
18.758000,-0.7102,0.5997,-1.8671,2.086
18.767000,-0.8099,0.5680,-1.8798,2.124
18.769000,-0.8648,0.5606,-1.9001,2.162
18.774000,-0.8942,0.5389,-1.9327,2.197
18.839000,-0.9485,0.5104,-1.9369,2.216
18.839000,-1.0474,0.5108,-1.9652,2.285
18.840000,-1.1716,0.5092,-1.9338,2.318
18.840000,-1.2950,0.5033,-1.9265,2.375
18.840000,-1.3315,0.5098,-1.8476,2.334
18.841000,-1.4438,0.5071,-1.7736,2.343
18.841000,-1.5604,0.4998,-1.7691,2.411
18.841000,-1.6479,0.4948,-1.6954,2.416
18.841000,-1.6966,0.4899,-1.6553,2.420
18.842000,-1.7663,0.4369,-1.6609,2.464
18.842000,-1.8426,0.4435,-1.6187,2.492
18.842000,-1.8799,0.4574,-1.5935,2.507
18.842000,-1.8998,0.3972,-1.5518,2.485
18.850000,-1.8686,0.3706,-1.5533,2.458
18.851000,-1.7745,0.3109,-1.4666,2.323
18.855000,-1.6631,0.2703,-1.3274,2.145
18.858000,-1.5632,0.2898,-1.2867,2.045
18.863000,-1.4989,0.2302,-1.1552,1.906
18.868000,-1.4438,0.1758,-1.0717,1.807
18.873000,-1.3883,0.1789,-1.0219,1.733
18.879000,-1.3227,0.2826,-0.9579,1.657
18.883000,-1.2562,0.3576,-0.8918,1.582
18.888000,-1.3152,0.4325,-0.8811,1.641
18.899000,-1.3941,0.4548,-0.8684,1.704
18.900000,-1.3575,0.5558,-0.7961,1.669
18.904000,-1.2469,0.6633,-0.7455,1.597
18.907000,-1.1887,0.7003,-0.7144,1.554
18.970000,-1.2065,0.7526,-0.6621,1.569
18.971000,-1.3071,0.7769,-0.7037,1.676
18.971000,-1.2946,0.7634,-0.8271,1.715
18.971000,-1.2414,0.7695,-0.9196,1.726
18.971000,-1.1721,0.7594,-0.9548,1.692
18.971000,-1.1395,0.6710,-1.0261,1.674
18.972000,-1.0908,0.6188,-1.0903,1.662
18.972000,-1.0340,0.5649,-1.1951,1.678
18.972000,-0.9622,0.4469,-1.2949,1.674
18.973000,-0.8135,0.3607,-1.3993,1.658
18.973000,-0.6525,0.2492,-1.5225,1.675
18.973000,-0.4216,0.1554,-1.6693,1.729
18.973000,-0.1998,0.0560,-1.7943,1.806
18.981000,0.0133,-0.0223,-1.9906,1.991
18.982000,0.2658,-0.0721,-2.1816,2.199
18.987000,0.4818,-0.0617,-2.3173,2.368
18.992000,0.5779,-0.0578,-2.4885,2.555
18.997000,0.6856,0.0115,-2.5827,2.672
19.001000,0.8074,0.0341,-2.6837,2.803
19.006000,0.9384,0.0531,-2.7030,2.862
19.061000,1.1007,0.0851,-2.6695,2.889
19.062000,1.2370,0.1133,-2.6408,2.918
19.063000,1.3616,0.1760,-2.5809,2.923
19.063000,1.4914,0.2921,-2.5259,2.948
19.063000,1.6072,0.4064,-2.4709,2.975
19.063000,1.7135,0.4855,-2.4039,2.992
19.064000,1.7962,0.5627,-2.3130,2.982
19.064000,1.8599,0.6091,-2.2151,2.956
19.064000,1.8878,0.7037,-2.1053,2.914
19.065000,1.8970,0.7411,-1.9646,2.830
19.065000,1.8277,0.8002,-1.8361,2.711
19.068000,1.7589,0.8641,-1.7796,2.647
19.071000,1.6597,0.9016,-1.7352,2.565
19.078000,1.5946,0.9608,-1.6791,2.507
19.082000,1.5277,1.0055,-1.5992,2.429
19.087000,1.4565,0.9881,-1.4501,2.281
19.092000,1.3353,0.9493,-1.2654,2.070
19.097000,1.2861,0.8532,-0.9853,1.831
19.101000,1.2655,0.7957,-0.6313,1.623
19.106000,1.2593,0.7862,-0.2132,1.500
19.118000,1.2913,0.8365,0.1901,1.550
19.119000,1.2678,0.8098,0.6096,1.623
19.121000,1.1721,0.7415,1.1171,1.781
19.212000,1.0499,0.5811,1.6500,2.040
19.212000,0.8774,0.2639,1.9978,2.198
19.213000,0.6766,-0.0188,2.2779,2.376
19.213000,0.4834,-0.1972,2.4784,2.533
19.214000,0.3099,-0.3859,2.6138,2.660
19.214000,0.1440,-0.5676,2.7537,2.815
19.215000,0.0267,-0.7159,2.9937,3.078
19.216000,-0.0756,-0.8810,3.1998,3.320
19.216000,-0.1316,-0.9838,3.3839,3.526
19.217000,-0.2181,-1.0887,3.5341,3.704
19.217000,-0.2782,-1.1024,3.5958,3.771
19.218000,-0.3126,-1.0346,3.6816,3.837
19.218000,-0.3357,-0.9597,3.9157,4.046
19.219000,-0.3790,-0.8994,4.1425,4.256
19.220000,-0.4355,-0.8928,4.2926,4.406
19.221000,-0.5056,-0.8517,4.4164,4.526
19.222000,-0.5561,-0.7960,4.5019,4.605
19.222000,-0.5896,-0.7333,4.5012,4.598
19.223000,-0.5586,-0.7000,4.4646,4.554
19.224000,-0.4682,-0.7322,4.3397,4.426
19.227000,-0.3162,-0.8417,4.2653,4.359
19.232000,-0.0161,-1.1070,4.2101,4.353
19.235000,0.2983,-1.4227,4.0331,4.287
19.240000,0.5489,-1.7854,3.8061,4.240
19.248000,0.7666,-2.2374,3.5844,4.294
19.251000,0.9475,-2.6769,3.3299,4.376
19.255000,1.2255,-3.0333,3.2028,4.578
19.319000,1.6634,-3.2968,3.1600,4.860
19.320000,2.1283,-3.4258,3.0601,5.063
19.321000,2.5941,-3.4916,2.9008,5.228
19.322000,3.0373,-3.4401,2.7827,5.367
19.323000,3.4149,-3.2327,2.6939,5.419
19.325000,3.7391,-3.0102,2.7586,5.536
19.326000,3.8905,-2.7106,2.8787,5.547
19.327000,3.9268,-2.3965,3.0204,5.503
19.328000,3.8625,-1.9905,3.2074,5.401
19.328000,3.7600,-1.5227,3.4179,5.305
19.329000,3.5925,-1.0304,3.5801,5.175
19.330000,3.3593,-0.6280,3.6436,4.996
19.331000,2.9951,-0.2808,3.6135,4.702
19.332000,2.5420,0.0150,3.4706,4.302
19.333000,2.0376,0.1870,3.1436,3.751
19.336000,1.5124,0.2477,2.7835,3.178
19.340000,1.0520,0.3026,2.5030,2.732
19.351000,0.6681,0.3161,2.2349,2.354
19.351000,0.3317,0.2116,1.9533,1.993
19.354000,0.0071,0.0733,1.7296,1.731
19.434000,-0.2382,-0.0673,1.4707,1.491
19.435000,-0.3942,-0.1571,1.1166,1.195
19.436000,-0.6040,-0.2168,0.7418,0.981
19.437000,-0.7836,-0.2602,0.4537,0.942
19.438000,-0.8771,-0.3056,0.1160,0.936
19.439000,-0.9443,-0.3600,-0.1541,1.022
19.440000,-0.9918,-0.3848,-0.2899,1.103
19.440000,-1.0620,-0.4322,-0.4519,1.232
19.441000,-1.1358,-0.3950,-0.6353,1.360
19.441000,-1.1909,-0.3592,-0.7710,1.463
19.441000,-1.2966,-0.3367,-0.9595,1.648
19.443000,-1.4551,-0.2489,-1.1864,1.894
19.445000,-1.5395,-0.1842,-1.3537,2.058
19.445000,-1.6053,-0.1377,-1.5451,2.232
19.445000,-1.7055,-0.0402,-1.7412,2.438
19.446000,-1.7493,0.0148,-1.8728,2.563
19.446000,-1.7757,0.1110,-1.9158,2.614
19.446000,-1.8278,0.2386,-2.0067,2.725
19.449000,-1.8774,0.3326,-2.0926,2.831
19.454000,-1.9035,0.3855,-2.2310,2.958
19.459000,-1.9346,0.4930,-2.4720,3.178
19.469000,-1.9499,0.5591,-2.6886,3.368
19.470000,-1.8973,0.5529,-2.8902,3.501
19.546000,-1.8195,0.6224,-3.1009,3.649
19.547000,-1.7379,0.6986,-3.3063,3.800
19.547000,-1.6139,0.7314,-3.5185,3.940
19.547000,-1.4547,0.8214,-3.6968,4.057
19.548000,-1.2918,0.8733,-3.8675,4.170
19.548000,-1.1321,0.9253,-4.0352,4.292
19.548000,-1.0617,0.9801,-4.1140,4.360
19.548000,-0.9985,0.9853,-4.2285,4.455
19.549000,-0.8682,0.9887,-4.3404,4.535
19.549000,-0.8572,0.9736,-4.4092,4.596
19.549000,-0.7766,0.9162,-4.4491,4.608
19.550000,-0.6692,0.9168,-4.4007,4.545
19.550000,-0.5682,0.8510,-4.3620,4.480
19.550000,-0.4688,0.8045,-4.3164,4.416
19.550000,-0.4401,0.7796,-4.3000,4.392
19.551000,-0.4387,0.7070,-4.3102,4.390
19.553000,-0.4406,0.6226,-4.3114,4.378
19.557000,-0.4336,0.5362,-4.2986,4.354
19.563000,-0.4298,0.4290,-4.2887,4.331
19.568000,-0.4386,0.3875,-4.2385,4.279
19.579000,-0.5410,0.3590,-4.1220,4.173
19.582000,-0.6076,0.3269,-4.0301,4.089
19.583000,-0.6912,0.3224,-3.8216,3.897
19.587000,-0.8038,0.3306,-3.6138,3.717
19.617000,-0.8812,0.3206,-3.3374,3.467
19.618000,-0.9376,0.3253,-3.0235,3.182
19.618000,-0.9663,0.3278,-2.6219,2.813
19.618000,-0.9764,0.3491,-2.1376,2.376
19.618000,-0.9106,0.4149,-1.7478,2.014
19.619000,-0.8695,0.4029,-1.4548,1.742
19.622000,-1.0062,0.3749,-1.1986,1.609
19.628000,-1.0744,0.3332,-0.9672,1.483
19.632000,-1.1722,0.3090,-0.7557,1.429
19.637000,-1.2873,0.2354,-0.6622,1.467
19.642000,-1.4130,0.1968,-0.5740,1.538
19.649000,-1.4942,0.2004,-0.4409,1.571
19.651000,-1.5549,0.2372,-0.2555,1.594
19.657000,-1.6243,0.2809,-0.1806,1.658
19.676000,-1.7099,0.2717,-0.1272,1.736
19.678000,-1.7714,0.3245,0.1222,1.805
19.678000,-1.7853,0.3789,0.3308,1.855
19.678000,-1.8448,0.4437,0.4770,1.956
19.681000,-1.9050,0.4732,0.6111,2.056
19.686000,-1.9534,0.4793,0.6782,2.123
19.691000,-1.9615,0.5599,0.6735,2.148
19.696000,-1.9396,0.6602,0.7049,2.167
19.701000,-1.9044,0.7177,0.7413,2.166
19.706000,-1.8560,0.7280,0.7348,2.125
19.712000,-1.7732,0.6956,0.6999,2.029
19.716000,-1.7522,0.6087,0.6536,1.967
19.723000,-1.6527,0.4771,0.5960,1.820
19.726000,-1.5060,0.3385,0.5821,1.650
19.731000,-1.2714,0.1651,0.6526,1.439
19.736000,-0.9936,-0.0077,0.7091,1.221
19.741000,-0.6651,-0.2343,0.7827,1.054
19.748000,-0.2669,-0.5020,0.7945,0.977
19.751000,0.0003,-0.8131,0.8330,1.164
19.756000,0.1846,-1.2792,0.9030,1.577
19.793000,0.4270,-1.7529,0.9902,2.058
19.794000,0.6876,-2.1408,1.1589,2.530
19.794000,1.0072,-2.4608,1.3182,2.968
19.794000,1.3547,-2.6222,1.4154,3.273
19.795000,1.6179,-2.7823,1.5462,3.571
19.795000,1.8282,-3.0077,1.6793,3.900
19.795000,2.0051,-3.1331,1.8149,4.139
19.796000,2.2113,-3.1461,2.0219,4.345
19.802000,2.4112,-3.0512,2.1402,4.439
19.807000,2.5279,-2.8580,2.2869,4.448
19.811000,2.5856,-2.6102,2.4598,4.421
19.816000,2.5819,-2.3176,2.7328,4.416
19.820000,2.5244,-1.9671,3.0555,4.425
19.827000,2.4633,-1.6437,3.4494,4.546
19.830000,2.3743,-1.2914,3.7470,4.620
19.835000,2.1705,-1.0172,4.0180,4.679
19.840000,1.9590,-0.7622,4.1117,4.618
19.847000,1.7200,-0.5130,4.0215,4.404
19.851000,1.5219,-0.3110,3.9079,4.205
19.855000,1.3855,-0.2901,3.7494,4.008
19.866000,1.2576,-0.4266,3.7138,3.944
19.867000,1.2622,-0.8592,3.7936,4.089
19.874000,1.2438,-1.5204,3.8406,4.314
19.875000,1.2330,-2.1321,3.7043,4.448
19.920000,1.3254,-2.5857,3.3538,4.437
19.921000,1.4186,-2.9277,2.9210,4.372
19.922000,1.5057,-3.1071,2.3295,4.165
19.922000,1.6595,-3.2491,1.8446,4.088
19.922000,1.9021,-3.3361,1.4446,4.103
19.923000,2.1635,-3.2545,1.1506,4.074
19.923000,2.3970,-3.1779,0.9812,4.100
19.923000,2.6154,-2.9556,0.8309,4.033
19.924000,2.7859,-2.7023,0.8022,3.963
19.926000,2.8684,-2.4905,0.8782,3.899
19.930000,2.8684,-2.2830,1.0203,3.805
19.936000,2.7979,-2.0763,1.1829,3.679
19.940000,2.6111,-1.8473,1.2489,3.434
19.944000,2.3988,-1.7002,1.2088,3.179
19.950000,2.0998,-1.5710,1.1206,2.852
19.955000,1.8379,-1.4310,0.9056,2.499
19.961000,1.5217,-1.2969,0.6883,2.115
19.965000,1.2630,-1.2352,0.5336,1.845
19.970000,1.1116,-1.1333,0.4604,1.653
19.975000,0.9722,-1.0749,0.4113,1.507
19.980000,0.7583,-1.0482,0.3529,1.341
19.985000,0.6063,-1.0200,0.2564,1.214
19.990000,0.4923,-1.0428,0.2175,1.174
19.997000,0.3946,-1.0642,0.1190,1.141
20.000000,0.2391,-1.0504,0.0112,1.077
20.004000,0.0805,-1.0254,-0.1560,1.040
20.069000,-0.0503,-1.0605,-0.4136,1.139
20.070000,-0.1820,-1.0642,-0.6156,1.243
20.070000,-0.2452,-1.0909,-0.8624,1.412
20.070000,-0.2855,-1.0684,-1.0799,1.546
20.070000,-0.3079,-1.0297,-1.2345,1.637
20.071000,-0.3294,-1.0129,-1.3837,1.746
20.071000,-0.3260,-0.9460,-1.5394,1.836
20.071000,-0.3432,-0.9079,-1.6106,1.880
20.071000,-0.3545,-0.8151,-1.7029,1.921
20.072000,-0.3386,-0.7511,-1.8207,1.998
20.072000,-0.3427,-0.6372,-1.8950,2.028
20.072000,-0.3430,-0.4971,-1.9736,2.064
20.072000,-0.3127,-0.3382,-1.9967,2.049
20.074000,-0.1968,-0.2517,-1.9764,2.002
20.080000,-0.1006,-0.1085,-1.8387,1.845
20.084000,-0.0405,0.0264,-1.6292,1.630
20.089000,0.0299,0.1451,-1.4295,1.437
20.097000,0.1269,0.2613,-1.2445,1.278
20.099000,0.2036,0.3743,-1.0241,1.109
20.103000,0.2313,0.5268,-0.8856,1.056
20.108000,0.2556,0.6392,-0.8457,1.091
20.163000,0.2172,0.6803,-0.8639,1.121
20.164000,0.1613,0.6909,-0.9806,1.210
20.164000,0.1004,0.7044,-1.1218,1.328
20.164000,0.0007,0.6952,-1.3495,1.518
20.164000,-0.0302,0.7017,-1.4938,1.651
20.165000,-0.1382,0.7316,-1.6910,1.848
20.165000,-0.2253,0.6871,-1.8073,1.947
20.165000,-0.2936,0.6184,-1.8833,2.004
20.165000,-0.3722,0.6049,-1.8976,2.026
20.166000,-0.5089,0.5867,-1.9099,2.062
20.166000,-0.6918,0.5470,-1.8701,2.068
20.169000,-0.8900,0.4550,-1.8810,2.130
20.174000,-1.1107,0.3775,-1.8993,2.232
20.180000,-1.3135,0.3317,-1.9178,2.348
20.183000,-1.4529,0.2672,-1.9581,2.453
20.188000,-1.5106,0.2584,-1.9553,2.484
20.197000,-1.5220,0.2573,-1.9670,2.500
20.198000,-1.5212,0.2354,-1.9286,2.468
20.203000,-1.5461,0.2500,-1.8495,2.424
20.207000,-1.5368,0.2504,-1.7469,2.340
20.280000,-1.5339,0.2723,-1.5873,2.224
20.281000,-1.5516,0.3180,-1.3731,2.096
20.281000,-1.5442,0.3869,-1.0878,1.928
20.283000,-1.5639,0.4884,-0.8895,1.864
20.284000,-1.6039,0.5144,-0.7541,1.845
20.285000,-1.6811,0.5528,-0.6720,1.893
20.286000,-1.7857,0.5317,-0.6502,1.973
20.287000,-1.8916,0.4657,-0.7414,2.084
20.288000,-1.9513,0.3643,-0.8830,2.173
20.288000,-1.9719,0.3191,-1.1300,2.295
20.289000,-1.9255,0.3042,-1.4245,2.414
20.290000,-1.8364,0.2940,-1.6755,2.503
20.290000,-1.7411,0.2526,-1.8997,2.589
20.291000,-1.5969,0.2403,-2.0681,2.624
20.292000,-1.4878,0.2526,-2.1832,2.654
20.293000,-1.3734,0.2609,-2.2688,2.665
20.294000,-1.2202,0.2722,-2.2868,2.606
20.298000,-1.0495,0.2984,-2.2899,2.537
20.302000,-0.8085,0.3322,-2.2042,2.371
20.306000,-0.5514,0.3684,-2.0897,2.192
20.314000,-0.2944,0.4332,-1.9754,2.044
20.317000,-0.0443,0.5071,-1.8543,1.923
20.323000,0.1942,0.6112,-1.8364,1.945
20.406000,0.3687,0.6571,-1.7878,1.940
20.410000,0.4675,0.6639,-1.7444,1.924
20.411000,0.5360,0.6410,-1.7015,1.896
20.412000,0.5886,0.6293,-1.6804,1.888
20.413000,0.6827,0.6193,-1.6287,1.871
20.414000,0.6960,0.6087,-1.5270,1.785
20.415000,0.7580,0.6024,-1.4688,1.759
20.415000,0.8134,0.5430,-1.4323,1.734
20.416000,0.8187,0.5576,-1.3936,1.710
20.417000,0.8335,0.5649,-1.3239,1.663
20.418000,0.8384,0.6033,-1.1632,1.556
20.418000,0.8149,0.6465,-1.0005,1.443
20.419000,0.7675,0.6920,-0.8450,1.335
20.421000,0.7009,0.6388,-0.5583,1.100
20.422000,0.6609,0.4988,-0.3031,0.882
20.423000,0.6068,0.3268,-0.0269,0.690
20.423000,0.5485,0.1371,0.2319,0.611
20.424000,0.5431,-0.0820,0.4114,0.686
20.424000,0.6191,-0.2462,0.5285,0.850
20.425000,0.6661,-0.4343,0.6814,1.047
20.431000,0.7629,-0.6001,0.9179,1.336
20.432000,0.8023,-0.8200,1.2594,1.704
20.436000,0.8230,-0.9959,1.5526,2.020
20.442000,0.8897,-1.1800,1.8933,2.402
20.456000,0.9426,-1.3272,2.1928,2.731
20.459000,0.9704,-1.4543,2.4464,3.007
20.461000,1.0187,-1.5253,2.6874,3.254
20.461000,0.9941,-1.5353,2.7916,3.337
20.529000,0.9443,-1.5538,2.8311,3.365
20.530000,0.8047,-1.5062,2.8489,3.321
20.530000,0.6515,-1.4666,2.9361,3.346
20.530000,0.5063,-1.3394,3.0568,3.376
20.531000,0.3955,-1.1129,3.1942,3.406
20.531000,0.2818,-0.8529,3.3985,3.515
20.531000,0.1840,-0.5981,3.5264,3.581
20.531000,0.0509,-0.3760,3.6090,3.629
20.532000,-0.1089,-0.1971,3.6203,3.627
20.532000,-0.2551,-0.0597,3.5867,3.596
20.532000,-0.3697,0.0431,3.4341,3.454
20.533000,-0.4383,0.0871,3.2346,3.265
20.533000,-0.4089,0.1324,3.0623,3.092
20.533000,-0.3174,-0.0268,2.9411,2.958
20.536000,-0.0657,-0.3878,2.9787,3.005
20.541000,0.2138,-0.9907,3.0428,3.207
20.545000,0.4960,-1.6576,2.9732,3.440
20.550000,0.7697,-2.3366,2.7149,3.664
20.556000,1.1122,-2.8153,2.3950,3.860
20.566000,1.5166,-3.1830,2.0375,4.072
20.566000,1.9648,-3.3398,1.8361,4.288
20.570000,2.4799,-3.4209,1.6923,4.552
20.576000,3.0363,-3.3989,1.5533,4.815
20.631000,3.4926,-3.2702,1.6681,5.067
20.632000,3.8606,-2.8999,1.9790,5.218
20.632000,4.0232,-2.3534,2.5099,5.294
20.632000,4.0382,-1.7655,3.0690,5.371
20.633000,3.8862,-1.0861,3.6492,5.440
20.633000,3.4874,-0.4138,4.3555,5.595
20.633000,3.0451,0.2534,4.8553,5.737
20.633000,2.3709,0.7905,5.0933,5.673
20.634000,1.6513,1.2601,5.1173,5.523
20.634000,1.0073,1.6254,4.8728,5.235
20.634000,0.4296,1.9186,4.4319,4.848
20.634000,-0.0578,2.1032,4.0943,4.603
20.640000,-0.5042,2.1146,3.7190,4.308
20.645000,-0.7694,1.9389,3.2821,3.889
20.650000,-1.0095,1.7725,2.8152,3.476
20.655000,-1.1858,1.5949,2.2871,3.030
20.659000,-1.1201,1.3378,1.6882,2.428
20.665000,-0.9725,1.0596,1.0618,1.788
20.669000,-0.6995,0.8172,0.4415,1.163
20.674000,-0.5305,0.5900,-0.1869,0.815
20.747000,-0.3450,0.4277,-0.6296,0.836
20.748000,-0.2089,0.2928,-0.9325,0.999
20.748000,0.0065,0.1834,-1.1392,1.154
20.748000,0.2643,0.1239,-1.2237,1.258
20.748000,0.4908,0.0709,-1.2464,1.341
20.749000,0.6398,0.0244,-1.3056,1.454
20.749000,0.8138,0.0008,-1.3726,1.596
20.749000,0.8433,0.0095,-1.4404,1.669
20.750000,0.7832,0.1030,-1.5090,1.703
20.750000,0.6810,0.2094,-1.5017,1.662
20.750000,0.4766,0.3646,-1.5021,1.618
20.750000,0.1667,0.5057,-1.4792,1.572
20.751000,-0.1872,0.5988,-1.4325,1.564
20.751000,-0.5287,0.6602,-1.3334,1.579
20.751000,-0.8299,0.6726,-1.3085,1.689
20.754000,-1.1272,0.6667,-1.3072,1.850
20.759000,-1.4378,0.6710,-1.4157,2.126
20.763000,-1.6761,0.6927,-1.6407,2.446
20.768000,-1.8164,0.6866,-1.8504,2.682
20.773000,-1.9454,0.7222,-2.0233,2.898
20.780000,-2.0696,0.7713,-2.1545,3.085
20.783000,-2.0878,0.7311,-2.3855,3.253
20.788000,-2.0598,0.7004,-2.5488,3.351
20.852000,-2.0476,0.7605,-2.6851,3.461
20.853000,-1.9139,0.7392,-2.8472,3.509
20.854000,-1.7417,0.6251,-3.0235,3.545
20.854000,-1.5884,0.4779,-3.1279,3.540
20.854000,-1.3459,0.3843,-3.2968,3.582
20.854000,-1.0642,0.3712,-3.4321,3.612
20.855000,-0.7246,0.4626,-3.5028,3.607
20.855000,-0.5265,0.6037,-3.5445,3.634
20.855000,-0.4998,0.6485,-3.3392,3.438
20.856000,-0.4018,0.5774,-3.1052,3.184
20.856000,-0.3462,0.5140,-2.9386,3.003
20.857000,-0.3926,0.4455,-2.8466,2.908
20.857000,-0.5187,0.4004,-2.8819,2.955
20.858000,-0.7002,0.3335,-2.9152,3.017
20.862000,-0.8702,0.2883,-3.0016,3.139
20.868000,-0.9826,0.3154,-3.0743,3.243
20.872000,-1.1336,0.3529,-3.1450,3.362
20.882000,-1.2921,0.3819,-3.1730,3.447
20.884000,-1.3559,0.3162,-3.0507,3.353
20.887000,-1.3922,0.2273,-2.9576,3.277
20.952000,-1.4223,0.1652,-2.7741,3.122
20.953000,-1.4007,0.1770,-2.6462,2.999
20.953000,-1.4305,0.1554,-2.6600,3.024
20.953000,-1.5335,0.1123,-2.7172,3.122
20.954000,-1.6357,-0.0217,-2.7409,3.192
20.956000,-1.7539,-0.0833,-2.8270,3.328
20.958000,-1.8112,-0.1561,-2.8725,3.399
20.959000,-1.8318,-0.1580,-2.8990,3.433
20.959000,-1.7896,-0.1632,-2.8659,3.383
20.961000,-1.7758,-0.1832,-2.7538,3.282
20.962000,-1.7638,-0.1653,-2.6611,3.197
20.963000,-1.7681,-0.0737,-2.4778,3.045
20.963000,-1.7981,-0.0070,-2.2804,2.904
20.963000,-1.8104,0.0995,-1.9782,2.683
20.964000,-1.8338,0.2261,-1.5978,2.443
20.967000,-1.7990,0.3767,-1.1701,2.179
20.972000,-1.7682,0.4953,-0.7122,1.970
20.982000,-1.8536,0.5932,-0.4441,1.996
20.983000,-1.9385,0.6530,-0.3225,2.071
20.986000,-2.0826,0.7128,-0.2515,2.216
20.992000,-2.1789,0.7559,-0.2499,2.320
21.048000,-2.2492,0.7945,-0.3248,2.407
21.049000,-2.3082,0.7857,-0.4282,2.476
21.049000,-2.3088,0.7705,-0.5597,2.498
21.049000,-2.2702,0.7419,-0.6047,2.464
21.050000,-2.2191,0.6857,-0.6754,2.419
21.050000,-2.0865,0.6019,-0.6067,2.255
21.050000,-1.9537,0.5766,-0.5638,2.114
21.050000,-1.8277,0.4691,-0.4129,1.932
21.050000,-1.6818,0.2672,-0.2402,1.720
21.051000,-1.5396,0.0262,-0.0698,1.541
21.051000,-1.3263,-0.1723,0.1531,1.346
21.051000,-1.0580,-0.4017,0.4809,1.230
21.057000,-0.7369,-0.6404,0.8345,1.284
21.065000,-0.4269,-0.9022,1.1658,1.535
21.067000,-0.0800,-1.1386,1.5752,1.945
21.071000,0.2922,-1.3323,2.0555,2.467
21.077000,0.6494,-1.4594,2.5608,3.018
21.081000,0.9583,-1.6296,3.0960,3.628
21.086000,1.2542,-1.7858,3.5583,4.174
21.091000,1.5076,-1.9044,4.0150,4.693
21.096000,1.6868,-1.9808,4.4114,5.121
21.101000,1.8134,-1.9941,4.7355,5.449
21.105000,1.9421,-1.8992,5.0019,5.692
21.161000,2.0111,-1.6701,5.1554,5.780
21.163000,2.1141,-1.5225,5.2345,5.847
21.163000,2.1744,-1.3271,5.2680,5.852
21.164000,2.1767,-1.1228,5.2442,5.788
21.164000,2.1373,-0.9145,5.1298,5.632
21.164000,1.9721,-0.6523,4.9610,5.378
21.165000,1.7673,-0.5014,4.7594,5.102
21.166000,1.5799,-0.4047,4.5825,4.864
21.166000,1.4113,-0.4201,4.4879,4.723
21.166000,1.3444,-0.5554,4.5451,4.772
21.167000,1.3264,-0.8995,4.6057,4.877
21.167000,1.3278,-1.4504,4.6244,5.025
21.171000,1.3458,-2.0929,4.5632,5.198
21.181000,1.4782,-2.6239,4.3219,5.268
21.186000,1.6470,-3.0397,3.8145,5.148
21.186000,1.7814,-3.3050,3.0935,4.865
21.192000,1.9414,-3.4637,2.2621,4.570
21.196000,2.1210,-3.5471,1.6907,4.465
21.200000,2.3054,-3.6374,1.2252,4.477
21.205000,2.5387,-3.6936,0.9921,4.590
21.260000,2.8557,-3.6842,0.8421,4.737
21.260000,3.1349,-3.5810,0.7464,4.817
21.261000,3.3704,-3.4203,0.6566,4.847
21.261000,3.4975,-3.2003,0.5823,4.776
21.261000,3.5908,-2.9192,0.6261,4.670
21.262000,3.5743,-2.6208,0.6874,4.485
21.262000,3.4981,-2.3033,0.8068,4.265
21.262000,3.3210,-2.0372,0.8577,3.989
21.263000,3.1425,-1.8016,0.9362,3.741
21.263000,2.9259,-1.5442,0.9661,3.447
21.263000,2.5866,-1.3114,0.9095,3.039
21.265000,2.2269,-1.1200,0.7763,2.611
21.270000,1.8672,-0.9298,0.6673,2.190
21.274000,1.5303,-0.8415,0.5231,1.823
21.279000,1.1390,-0.8143,0.3606,1.446
21.284000,0.8103,-0.7958,0.2518,1.163
21.289000,0.5873,-0.7547,0.0673,0.959
21.294000,0.3764,-0.7558,-0.2357,0.877
21.299000,0.2279,-0.7605,-0.5304,0.955
21.304000,0.1198,-0.7611,-0.8309,1.133
21.368000,-0.0483,-0.7716,-1.1279,1.367
21.369000,-0.1773,-0.8034,-1.4310,1.651
21.370000,-0.2383,-0.8296,-1.7260,1.930
21.370000,-0.2548,-0.8761,-2.0036,2.202
21.370000,-0.1101,-0.8849,-2.1464,2.324
21.370000,0.0580,-0.8847,-2.1979,2.370
21.371000,0.2090,-0.8254,-2.2564,2.412
21.371000,0.3891,-0.7667,-2.3365,2.490
21.371000,0.4930,-0.7115,-2.3687,2.522
21.372000,0.4903,-0.5807,-2.2960,2.419
21.372000,0.4108,-0.4584,-2.2982,2.379
21.372000,0.3343,-0.3564,-2.3777,2.427
21.373000,0.2421,-0.1960,-2.3363,2.357
21.374000,0.0841,-0.0468,-2.2889,2.291
21.379000,-0.1065,0.1249,-2.1970,2.203
21.393000,-0.2654,0.2822,-2.0535,2.090
21.393000,-0.4886,0.3776,-1.8727,1.972
21.394000,-0.6547,0.4582,-1.6975,1.876
21.399000,-0.7569,0.6070,-1.5278,1.810
21.403000,-0.8002,0.7212,-1.4018,1.768
21.409000,-0.9069,0.8123,-1.3672,1.831
21.468000,-1.0250,0.8968,-1.3663,1.929
21.468000,-1.1759,0.9487,-1.3250,2.010
21.469000,-1.3169,0.9893,-1.2886,2.091
21.469000,-1.4716,1.0241,-1.2906,2.209
21.469000,-1.6453,1.0721,-1.2736,2.341
21.470000,-1.8115,1.0569,-1.3451,2.492
21.470000,-2.0019,1.0578,-1.4139,2.669
21.470000,-2.1495,1.0171,-1.4299,2.775
21.471000,-2.2785,0.9782,-1.4911,2.893
21.471000,-2.3864,0.9435,-1.5114,2.978
21.471000,-2.4326,0.9006,-1.4885,2.991
21.471000,-2.4698,0.8663,-1.4606,2.997
21.473000,-2.5167,0.7854,-1.4352,3.002
21.478000,-2.5972,0.7489,-1.5031,3.093
21.483000,-2.6227,0.7115,-1.5566,3.132
21.488000,-2.6176,0.6112,-1.6003,3.128
21.493000,-2.5985,0.5270,-1.6511,3.123
21.498000,-2.5367,0.4928,-1.6897,3.088
21.502000,-2.4347,0.3914,-1.7162,3.004
21.508000,-2.2686,0.2968,-1.7642,2.889
21.514000,-2.1628,0.2093,-1.8144,2.831
21.520000,-2.0405,0.1216,-1.8429,2.752
21.523000,-1.9141,0.0438,-1.8689,2.676
21.529000,-1.8097,-0.0385,-1.8852,2.613
21.533000,-1.7462,-0.0913,-1.9109,2.590
21.537000,-1.6253,-0.1240,-1.8959,2.500
21.542000,-1.4542,-0.0697,-1.8378,2.345
21.597000,-1.3188,-0.0815,-1.7416,2.186
21.597000,-1.2095,-0.0830,-1.5619,1.977
21.598000,-1.1019,-0.0410,-1.3706,1.759
21.598000,-0.9887,-0.0514,-1.2516,1.596
21.598000,-0.9175,-0.0381,-1.1570,1.477
21.598000,-0.8548,-0.0176,-1.1083,1.400
21.599000,-0.8296,0.0075,-1.1005,1.378
21.599000,-0.7916,0.0111,-1.0165,1.288
21.599000,-0.6934,0.0550,-0.9686,1.192
21.599000,-0.6712,0.1107,-0.8802,1.112
21.600000,-0.6011,0.1300,-0.7848,0.997
21.603000,-0.4788,0.1438,-0.7923,0.937
21.607000,-0.3999,0.1998,-0.8093,0.925
21.612000,-0.3769,0.2265,-0.8596,0.966
21.618000,-0.3445,0.2287,-0.8978,0.988
21.622000,-0.2601,0.2376,-0.9072,0.973
21.630000,-0.1619,0.2293,-0.9594,1.000
21.635000,-0.0643,0.1871,-0.9350,0.956
21.638000,0.0472,0.1923,-0.9608,0.981
21.642000,0.1242,0.1708,-0.9576,0.981
21.712000,0.2194,0.1513,-1.0259,1.060
21.713000,0.3183,0.1198,-1.0652,1.118
21.714000,0.3442,0.0929,-1.0922,1.149
21.715000,0.4003,0.0685,-1.0926,1.166
21.717000,0.5104,0.0853,-1.0879,1.205
21.717000,0.7439,0.1289,-0.9873,1.243
21.718000,0.8930,0.1822,-0.8269,1.231
21.719000,1.0580,0.2690,-0.7526,1.326
21.722000,1.1719,0.3173,-0.6878,1.395
21.724000,1.1703,0.3197,-0.5417,1.329
21.725000,1.2210,0.2355,-0.3622,1.295
21.726000,1.2310,0.1461,-0.1471,1.248
21.727000,1.2392,0.0514,0.0723,1.242
21.728000,1.2389,-0.0579,0.2935,1.274
21.729000,1.2921,-0.2415,0.5691,1.432
21.732000,1.3060,-0.4057,0.8392,1.605
21.733000,1.3571,-0.6222,1.1326,1.874
21.734000,1.4022,-0.8213,1.3990,2.144
21.738000,1.4344,-0.9599,1.6838,2.411
21.741000,1.5090,-1.1216,2.0204,2.760
21.749000,1.5396,-1.1557,2.3516,3.039
21.752000,1.3895,-1.1604,2.5122,3.097
21.755000,1.2076,-1.1712,2.5194,3.029
21.824000,1.0223,-1.0606,2.5336,2.931
21.826000,0.8239,-0.9576,2.6530,2.938
21.826000,0.6843,-0.8024,2.8438,3.033
21.828000,0.5626,-0.5525,3.1037,3.202
21.829000,0.4195,-0.3186,3.3442,3.385
21.831000,0.1868,-0.1161,3.5442,3.551
21.831000,-0.1530,0.0592,3.7780,3.782
21.833000,-0.4547,0.1583,4.0216,4.050
21.836000,-0.7450,0.2192,4.2226,4.293
21.836000,-0.9622,0.2792,4.4431,4.555
21.837000,-1.0302,0.3116,4.5062,4.633
21.838000,-0.9618,0.2654,4.4241,4.535
21.839000,-0.7238,0.2290,4.1421,4.211
21.840000,-0.5195,0.0995,3.7824,3.819
21.840000,-0.4088,-0.0797,3.4025,3.428
21.841000,-0.2451,-0.3508,3.0621,3.092
21.841000,-0.0014,-0.7171,2.7373,2.830
21.847000,0.2658,-1.1512,2.4902,2.756
21.850000,0.5908,-1.6186,2.2701,2.850
21.855000,0.9792,-2.0827,2.2707,3.233
21.865000,1.4415,-2.4877,2.4460,3.775
21.867000,1.9651,-2.7783,2.4487,4.192
21.870000,2.5174,-2.8947,2.3072,4.477
21.875000,2.9362,-2.8597,2.0648,4.589
21.946000,3.2723,-2.7299,1.8053,4.628
21.947000,3.5023,-2.5953,1.6576,4.664
21.947000,3.6724,-2.3904,1.5879,4.661
21.947000,3.7113,-2.1006,1.6512,4.573
21.948000,3.6648,-1.7812,1.6988,4.415
21.948000,3.5157,-1.4375,1.8482,4.224
21.948000,3.2466,-1.0876,2.0563,3.994
21.949000,2.8852,-0.7378,2.3113,3.770
21.949000,2.4474,-0.4304,2.4891,3.517
21.949000,1.9564,-0.1721,2.5946,3.254
21.949000,1.4657,0.0647,2.4537,2.859
21.949000,0.9266,0.2077,2.2128,2.408
21.950000,0.3618,0.3142,1.9177,1.977
21.950000,-0.0288,0.3774,1.5926,1.637
21.950000,-0.2873,0.4475,1.3263,1.429
21.957000,-0.4688,0.4671,1.1978,1.368
21.960000,-0.4850,0.4125,1.0083,1.192
21.964000,-0.3458,0.4103,0.7268,0.903
21.971000,-0.1853,0.3553,0.3846,0.555
21.975000,-0.1006,0.2652,0.0630,0.291
21.984000,0.0317,0.1835,-0.2745,0.332
21.985000,0.1579,0.1302,-0.6494,0.681
21.989000,0.3248,0.0723,-0.9856,1.040
22.054000,0.4520,0.0966,-1.2332,1.317
22.055000,0.6000,0.0309,-1.2943,1.427
22.055000,0.6984,0.0074,-1.4159,1.579
22.056000,0.7500,0.0451,-1.5406,1.714
22.056000,0.7144,0.0844,-1.6803,1.828
22.056000,0.5776,0.0992,-1.7707,1.865
22.057000,0.3682,0.1589,-1.7376,1.783
22.057000,0.1628,0.2320,-1.6360,1.660
22.057000,0.0900,0.3088,-1.4948,1.529
22.057000,-0.0279,0.4002,-1.3950,1.452
22.058000,-0.2537,0.4889,-1.2936,1.406
22.058000,-0.5785,0.5267,-1.1926,1.426
22.058000,-0.8921,0.4939,-1.1901,1.567
22.064000,-1.1608,0.5652,-1.2862,1.822
22.065000,-1.4047,0.6471,-1.4493,2.120
22.069000,-1.6315,0.6370,-1.6099,2.379
22.073000,-1.8485,0.6665,-1.7774,2.650
22.079000,-1.9681,0.6638,-1.9279,2.834
22.084000,-2.0722,0.6579,-2.0874,3.014
22.088000,-2.1186,0.6296,-2.2485,3.153
22.172000,-2.0507,0.6772,-2.4732,3.283
22.172000,-2.0826,0.7125,-2.6106,3.415
22.173000,-2.0591,0.6590,-2.7036,3.462
22.173000,-1.8838,0.6126,-2.8674,3.485
22.173000,-1.7169,0.5875,-3.0085,3.513
22.174000,-1.6702,0.5577,-3.1368,3.597
22.174000,-1.6353,0.5306,-3.1878,3.622
22.174000,-1.5060,0.5137,-3.2742,3.640
22.175000,-1.4207,0.5335,-3.2885,3.622
22.175000,-1.2925,0.5642,-3.2883,3.578
22.175000,-1.1372,0.6511,-3.2428,3.498
22.176000,-0.9934,0.7845,-3.1808,3.423
22.176000,-0.8773,0.9018,-3.1573,3.399
22.176000,-0.8247,0.9524,-3.1197,3.365
22.176000,-0.8802,1.0082,-3.1401,3.413
22.177000,-0.9217,1.0212,-3.1944,3.478
22.177000,-0.9115,1.0752,-3.1247,3.428
22.185000,-0.8976,1.1556,-2.9980,3.336
22.186000,-0.8876,1.1878,-2.8622,3.223
22.187000,-0.9541,1.1787,-2.7026,3.099
22.196000,-0.9726,1.1305,-2.6343,3.027
22.200000,-1.0175,1.0671,-2.5923,2.982
22.202000,-1.0346,1.0366,-2.5741,2.962
22.207000,-1.0333,1.1014,-2.5415,2.956
22.270000,-0.9849,1.1227,-2.4752,2.891
22.271000,-0.9810,1.1631,-2.4277,2.865
22.271000,-0.9806,1.2178,-2.3513,2.824
22.272000,-1.0052,1.2488,-2.1839,2.709
22.272000,-0.9466,1.2726,-1.9901,2.545
22.272000,-0.9412,1.3346,-1.8420,2.462
22.273000,-0.9505,1.3653,-1.6771,2.362
22.273000,-0.9336,1.4219,-1.5579,2.307
22.273000,-0.9669,1.4303,-1.4987,2.286
22.273000,-0.9872,1.4794,-1.3537,2.235
22.274000,-0.9629,1.5673,-1.1782,2.184
22.274000,-0.7856,1.7563,-1.0489,2.191
22.274000,-0.5892,1.9482,-0.8080,2.190
22.282000,-0.3884,2.1068,-0.5251,2.206
22.283000,-0.2722,2.2124,-0.1736,2.236
22.288000,-0.1906,2.2140,0.1794,2.229
22.292000,-0.1175,2.2334,0.4860,2.289
22.297000,-0.0340,2.2533,0.7895,2.388
22.302000,0.0419,2.3210,1.0567,2.551
22.306000,0.1287,2.3931,1.3666,2.759
22.365000,0.2070,2.4356,1.5710,2.906
22.366000,0.2549,2.3811,1.7443,2.963
22.367000,0.3375,2.3088,1.9222,3.023
22.367000,0.4046,2.2044,2.0736,3.053
22.367000,0.4684,2.0516,2.2584,3.087
22.367000,0.5990,1.8577,2.4787,3.155
22.368000,0.8018,1.6039,2.6483,3.198
22.368000,1.0246,1.2406,2.7599,3.195
22.368000,1.3063,0.9144,2.9379,3.343
22.369000,1.7551,0.5930,3.0553,3.573
22.369000,2.2682,0.3724,3.2317,3.966
22.369000,2.7428,0.2290,3.4719,4.431
22.373000,3.1166,0.1108,3.8045,4.919
22.378000,3.4813,-0.0233,4.1671,5.430
22.382000,3.7651,-0.0461,4.5930,5.939
22.390000,3.9370,-0.0421,4.9819,6.350
22.390000,4.0396,0.0196,5.3434,6.699
22.397000,4.0155,0.0405,5.6776,6.954
22.401000,3.9557,-0.0347,5.9417,7.138
22.407000,3.9647,-0.0220,6.0664,7.247
22.414000,4.0396,0.0666,6.1382,7.349
22.417000,4.1080,0.2642,6.2052,7.446
22.421000,4.1614,0.4465,6.1386,7.430
