time,ax,ay,az,aT
12.520000,-0.1957,-2.6988,-3.4620,4.394
12.527000,-0.0511,-2.7770,-3.4504,4.429
12.530000,0.1617,-2.7989,-3.5001,4.484
12.534000,0.4020,-2.7430,-3.6254,4.564
12.540000,0.5668,-2.6668,-3.7520,4.638
12.585000,0.6416,-2.6537,-3.9185,4.776
12.586000,0.7223,-2.6312,-4.0439,4.878
12.587000,0.8015,-2.6109,-4.1790,4.992
12.587000,0.8736,-2.5804,-4.1948,5.002
12.588000,0.9167,-2.5567,-4.0865,4.907
12.588000,0.9737,-2.4898,-3.8590,4.695
12.588000,1.0135,-2.3800,-3.6054,4.437
12.589000,1.1015,-2.2374,-3.4114,4.226
12.589000,1.1043,-1.9808,-3.3631,4.056
12.589000,1.0202,-1.7417,-3.3696,3.928
12.596000,0.8022,-1.5317,-3.3758,3.793
12.600000,0.5458,-1.3648,-3.3702,3.677
12.604000,0.4039,-1.1422,-3.3126,3.527
12.610000,0.3566,-0.9644,-3.2462,3.405
12.614000,0.2426,-0.7618,-3.1592,3.259
12.619000,0.0879,-0.4770,-2.8915,2.932
12.624000,-0.0356,-0.2081,-2.6057,2.614
12.629000,-0.2547,-0.0579,-2.3093,2.324
12.634000,-0.5912,0.0284,-1.9686,2.056
12.639000,-0.9235,0.1369,-1.6335,1.881
12.648000,-1.1016,0.3126,-1.3639,1.781
12.650000,-1.2218,0.4835,-1.0445,1.679
12.654000,-1.2438,0.6637,-0.6802,1.565
12.705000,-1.1411,0.8624,-0.4260,1.492
12.706000,-0.9760,0.9791,-0.3250,1.420
12.706000,-0.7462,1.0212,-0.1904,1.279
12.707000,-0.4088,1.0797,-0.0655,1.156
12.707000,0.0051,1.1832,0.0548,1.185
12.708000,0.3473,1.3268,0.1847,1.384
12.708000,0.5303,1.4292,0.3363,1.561
12.709000,0.4522,1.5259,0.5074,1.670
12.709000,0.4154,1.6720,0.6238,1.832
12.710000,0.2985,1.8292,0.7479,1.999
12.710000,0.0642,2.0094,0.8174,2.170
12.713000,-0.1936,2.1504,0.8204,2.310
12.718000,-0.3960,2.2454,0.7305,2.394
12.723000,-0.5719,2.3285,0.6335,2.480
12.729000,-0.7097,2.3861,0.4428,2.528
12.733000,-0.7453,2.4618,0.4186,2.606
12.738000,-0.7319,2.5438,0.4267,2.681
12.745000,-0.7179,2.6303,0.4690,2.767
12.748000,-0.7587,2.6737,0.6721,2.859
12.753000,-0.8835,2.6505,0.9063,2.937
12.788000,-0.9925,2.5723,1.2913,3.045
12.789000,-1.0313,2.5753,1.6217,3.213
12.789000,-1.1659,2.5371,1.9383,3.399
12.790000,-1.2416,2.5459,2.3249,3.664
12.790000,-1.1961,2.5869,2.8370,4.021
12.790000,-1.0417,2.5855,3.3168,4.333
12.791000,-0.8762,2.6507,3.9923,4.872
12.793000,-0.8523,2.6693,4.5316,5.328
12.797000,-0.8100,2.6761,4.8757,5.620
12.802000,-0.6627,2.6343,4.9371,5.635
12.807000,-0.4169,2.6086,4.7975,5.477
12.812000,-0.1498,2.6707,4.4954,5.231
12.818000,0.0278,2.7283,4.1497,4.966
12.822000,0.1750,2.7059,3.7480,4.626
12.827000,0.3069,2.6572,3.4545,4.369
12.834000,0.4050,2.5734,3.2134,4.137
12.837000,0.4812,2.4888,3.0075,3.933
12.842000,0.6160,2.3560,3.0588,3.910
12.847000,0.6389,2.1726,3.3359,4.032
12.853000,0.6949,1.9549,3.6332,4.184
12.864000,0.7803,1.7626,3.8743,4.327
12.865000,0.7824,1.5377,4.1697,4.513
12.868000,0.8102,1.2991,4.4836,4.738
12.872000,0.9464,1.0387,4.7736,4.976
12.923000,0.9777,0.7510,5.0666,5.214
12.925000,1.0357,0.5285,5.3656,5.490
12.925000,1.1276,0.3247,5.4916,5.616
12.926000,1.1988,0.1466,5.4956,5.627
12.926000,1.2451,-0.0594,5.4020,5.544
12.926000,1.2648,-0.2790,5.1777,5.337
12.927000,1.2090,-0.4429,4.8945,5.061
12.927000,1.1071,-0.5606,4.5357,4.702
12.927000,1.0512,-0.6151,4.1395,4.315
12.928000,0.9509,-0.7141,3.6798,3.867
12.928000,0.8014,-0.8210,3.1249,3.329
12.932000,0.6869,-0.8712,2.5206,2.754
12.936000,0.5755,-0.9716,1.7325,2.068
12.943000,0.4184,-1.0875,0.9036,1.475
12.947000,0.1796,-1.1037,0.1578,1.129
12.952000,0.0161,-1.1456,-0.5632,1.277
12.957000,-0.1612,-1.1315,-1.2192,1.671
12.961000,-0.3052,-1.1635,-1.8062,2.170
12.966000,-0.4287,-1.2311,-2.2746,2.622
12.972000,-0.5608,-1.2652,-2.6245,2.967
12.980000,-0.6279,-1.2677,-2.9737,3.293
12.983000,-0.5823,-1.2913,-3.2504,3.546
12.986000,-0.5295,-1.2903,-3.4382,3.710
13.031000,-0.5147,-1.3719,-3.6954,3.975
13.032000,-0.5186,-1.4765,-3.9764,4.273
13.033000,-0.5127,-1.5296,-4.2001,4.499
13.033000,-0.4850,-1.5480,-4.3593,4.651
13.034000,-0.4805,-1.6441,-4.4496,4.768
13.034000,-0.4752,-1.7123,-4.4041,4.749
13.035000,-0.3922,-1.8152,-4.2730,4.659
13.036000,-0.3464,-1.9391,-4.3188,4.747
13.036000,-0.3618,-2.0360,-4.2665,4.741
13.036000,-0.3472,-2.1517,-4.0631,4.611
13.041000,-0.2760,-2.2797,-3.8687,4.499
13.046000,-0.1820,-2.3892,-3.8216,4.511
13.051000,-0.1443,-2.4495,-3.6798,4.423
13.056000,-0.0737,-2.5662,-3.4048,4.264
13.061000,-0.0035,-2.6175,-3.2932,4.207
13.066000,-0.0269,-2.6663,-3.1219,4.106
13.070000,0.0617,-2.6672,-3.0033,4.017
13.079000,0.1961,-2.6898,-2.9014,3.961
13.080000,0.2876,-2.7299,-2.7295,3.871
13.085000,0.2719,-2.7783,-2.6286,3.834
13.125000,0.2016,-2.8498,-2.5648,3.839
13.126000,0.2680,-2.8178,-2.4805,3.764
13.126000,0.2992,-2.8048,-2.3851,3.694
13.126000,0.2763,-2.8181,-2.2282,3.603
13.127000,0.3243,-2.7885,-2.0625,3.483
13.127000,0.2956,-2.7066,-1.9140,3.328
13.127000,0.2480,-2.6278,-1.7757,3.181
13.128000,0.2025,-2.6191,-1.7643,3.164
13.130000,0.2258,-2.5921,-1.8081,3.168
13.135000,0.2264,-2.5153,-1.9502,3.191
13.141000,0.2209,-2.4121,-2.2316,3.293
13.145000,0.2662,-2.2700,-2.5761,3.444
13.150000,0.2682,-2.1744,-2.8620,3.604
13.155000,0.2358,-2.0387,-3.0683,3.691
13.160000,0.2096,-1.8984,-3.3199,3.830
13.166000,0.2204,-1.7238,-3.4976,3.906
13.171000,0.2277,-1.5362,-3.6187,3.938
13.175000,0.1978,-1.3570,-3.6379,3.888
13.181000,0.2458,-1.2025,-3.5125,3.721
13.185000,0.3478,-1.0107,-3.3215,3.489
13.190000,0.4784,-0.8056,-3.0195,3.162
13.195000,0.4631,-0.6541,-2.8626,2.973
13.200000,0.4358,-0.4845,-2.6114,2.692
13.205000,0.4735,-0.3113,-2.3233,2.391
13.218000,0.5044,-0.1131,-2.1154,2.178
13.219000,0.5642,0.0859,-1.7579,1.848
13.221000,0.5258,0.2878,-1.4230,1.544
13.290000,0.4753,0.4876,-1.1629,1.348
13.291000,0.5228,0.7210,-0.8556,1.235
13.292000,0.5416,0.8707,-0.4748,1.130
13.292000,0.5029,0.9893,-0.0588,1.111
13.292000,0.5218,1.1672,0.2614,1.305
13.293000,0.5788,1.3705,0.5219,1.577
13.293000,0.6837,1.5749,0.7805,1.886
13.294000,0.8056,1.7496,1.0895,2.213
13.295000,0.9042,1.8823,1.3989,2.513
13.295000,0.9347,1.9996,1.5245,2.683
13.295000,0.9090,2.1229,1.5741,2.795
13.296000,0.8300,2.2336,1.5165,2.824
13.296000,0.6808,2.4114,1.4754,2.908
13.296000,0.4802,2.5656,1.5823,3.052
13.297000,0.2875,2.7205,1.6741,3.207
13.302000,0.1095,2.8164,1.7530,3.319
13.304000,0.0103,2.9016,1.8501,3.441
13.309000,-0.0871,2.9311,2.0175,3.559
13.314000,-0.1995,2.8860,2.1808,3.623
13.320000,-0.2105,2.8885,2.2898,3.692
13.324000,-0.2088,2.9053,2.5763,3.889
13.330000,-0.1683,2.8691,2.9136,4.093
13.333000,-0.2280,2.7750,3.1656,4.216
13.338000,-0.2563,2.7113,3.4903,4.427
13.380000,-0.2799,2.6678,3.8354,4.680
13.381000,-0.3106,2.6204,4.1987,4.959
13.381000,-0.2211,2.6115,4.5353,5.238
13.381000,-0.1183,2.5568,4.8836,5.514
13.382000,-0.0399,2.5660,5.1271,5.733
13.382000,0.0602,2.4922,5.3618,5.913
13.383000,0.1421,2.4670,5.5855,6.108
13.384000,0.1780,2.4680,5.8323,6.335
13.384000,0.2140,2.3511,6.0020,6.450
13.389000,0.1360,2.2166,5.9801,6.379
13.393000,-0.0720,2.0787,5.8865,6.243
13.398000,-0.3115,1.9324,5.6832,6.011
13.404000,-0.5467,1.8525,5.3843,5.720
13.410000,-0.9307,1.7434,4.9681,5.347
13.413000,-1.3377,1.6537,4.5493,5.022
13.419000,-1.6922,1.5507,4.0651,4.668
13.423000,-2.0508,1.3725,3.5202,4.299
13.464000,-2.2596,1.2156,3.0145,3.959
13.465000,-2.3245,1.1219,2.5712,3.643
13.465000,-2.3274,1.0177,2.1012,3.297
13.466000,-2.2261,0.8251,1.6828,2.910
13.466000,-2.0451,0.5806,1.4278,2.561
13.467000,-1.8418,0.3563,1.2499,2.254
13.468000,-1.6376,0.1858,1.2397,2.062
13.469000,-1.3316,0.0328,1.4689,1.983
13.469000,-1.0498,-0.0916,1.9211,2.191
13.475000,-0.8920,-0.2745,2.4246,2.598
13.481000,-0.7395,-0.4308,2.9084,3.032
13.482000,-0.6682,-0.5952,3.2584,3.379
13.487000,-0.6012,-0.7809,3.4996,3.636
13.494000,-0.5094,-0.9285,3.5153,3.671
13.498000,-0.3422,-1.0863,3.4757,3.658
13.502000,-0.2789,-1.1898,3.3285,3.546
13.513000,-0.2997,-1.2894,3.1336,3.402
13.514000,-0.3493,-1.3901,2.8098,3.154
13.517000,-0.4372,-1.4529,2.2829,2.741
13.523000,-0.6331,-1.5567,1.7848,2.451
13.566000,-0.9083,-1.6312,1.3246,2.289
13.567000,-1.1769,-1.6447,0.9759,2.246
13.568000,-1.4099,-1.5829,0.6023,2.204
13.568000,-1.5437,-1.5481,0.0791,2.188
13.569000,-1.6482,-1.5377,-0.4790,2.304
13.569000,-1.6907,-1.5841,-1.0319,2.536
13.569000,-1.7006,-1.6361,-1.5922,2.847
13.570000,-1.6230,-1.6937,-2.0907,3.142
13.570000,-1.5832,-1.7989,-2.5306,3.485
13.572000,-1.5432,-1.8558,-2.8977,3.771
13.577000,-1.3933,-1.8668,-3.2018,3.960
13.583000,-1.2941,-1.8173,-3.4122,4.077
13.587000,-1.2354,-1.8746,-3.5601,4.209
13.592000,-1.1191,-1.9527,-3.6384,4.278
13.598000,-1.0264,-2.0661,-3.5584,4.241
13.602000,-0.9018,-2.1649,-3.4971,4.211
13.607000,-0.6401,-2.2211,-3.4324,4.138
13.612000,-0.4135,-2.2592,-3.2682,3.995
13.616000,-0.1994,-2.3251,-3.0667,3.854
13.634000,-0.0808,-2.3451,-2.9229,3.748
13.636000,0.0410,-2.3749,-2.8604,3.718
13.637000,0.0966,-2.4316,-2.7210,3.651
13.684000,0.2179,-2.4438,-2.6146,3.585
13.685000,0.3265,-2.4740,-2.5575,3.573
13.685000,0.3959,-2.4846,-2.6043,3.621
13.685000,0.4425,-2.4828,-2.6879,3.686
13.686000,0.5165,-2.4445,-2.8179,3.766
13.686000,0.4934,-2.4369,-2.9991,3.896
13.686000,0.4713,-2.4404,-3.1765,4.033
13.687000,0.4095,-2.4426,-3.4031,4.209
13.687000,0.4731,-2.4265,-3.6838,4.436
13.687000,0.4466,-2.4108,-3.8874,4.596
13.688000,0.3775,-2.3974,-3.9592,4.644
13.692000,0.2586,-2.4005,-3.9212,4.605
13.696000,0.2644,-2.3887,-3.7665,4.468
13.701000,0.3252,-2.3479,-3.5021,4.229
13.705000,0.4789,-2.2020,-3.2764,3.976
13.711000,0.6753,-2.0900,-3.1104,3.808
13.715000,0.7491,-1.9642,-2.9635,3.633
13.721000,0.8488,-1.8843,-2.8549,3.524
13.727000,0.9510,-1.7856,-2.7677,3.428
13.730000,1.0197,-1.6726,-2.7596,3.384
13.736000,1.0353,-1.5525,-2.7898,3.356
13.771000,1.1264,-1.4303,-2.7241,3.277
13.772000,1.2260,-1.2916,-2.5079,3.076
13.772000,1.3657,-1.1413,-2.2870,2.898
13.772000,1.5173,-0.9774,-2.0564,2.736
13.773000,1.6429,-0.7475,-1.8302,2.571
13.773000,1.6808,-0.5599,-1.6799,2.441
13.773000,1.5744,-0.4022,-1.5075,2.217
13.775000,1.3959,-0.3130,-1.3223,1.948
13.780000,1.1887,-0.1536,-1.2607,1.740
13.785000,0.9171,-0.0148,-1.3632,1.643
13.790000,0.6747,0.1350,-1.4911,1.642
13.796000,0.3823,0.2964,-1.5805,1.653
13.800000,0.1832,0.5031,-1.6315,1.717
13.806000,0.0127,0.6934,-1.7713,1.902
13.811000,-0.2213,0.8845,-1.8900,2.098
13.815000,-0.4787,1.0239,-1.8732,2.188
13.820000,-0.6525,1.1552,-1.8169,2.250
13.825000,-0.7123,1.3335,-1.7954,2.347
13.830000,-0.7686,1.4917,-1.7680,2.438
13.835000,-0.8531,1.6662,-1.6826,2.517
13.843000,-0.9517,1.7660,-1.6466,2.595
13.845000,-0.9984,1.8652,-1.5214,2.606
13.850000,-0.9498,1.9928,-1.3861,2.607
13.856000,-0.8608,2.1201,-1.3988,2.682
13.862000,-0.8008,2.2188,-1.3058,2.696
13.865000,-0.7408,2.3297,-1.1722,2.711
13.870000,-0.7828,2.3694,-0.9430,2.668
13.935000,-0.8113,2.4096,-0.6231,2.618
13.936000,-0.7472,2.4862,-0.1338,2.600
13.936000,-0.5898,2.5103,0.5898,2.645
13.936000,-0.5086,2.5242,1.1294,2.812
13.937000,-0.4723,2.5824,1.6077,3.078
13.937000,-0.4262,2.5334,2.1569,3.354
13.937000,-0.3370,2.5182,2.6288,3.656
13.938000,-0.2669,2.4812,3.0312,3.926
13.938000,-0.1468,2.4840,3.4696,4.270
13.938000,0.0497,2.4761,3.8655,4.591
13.938000,0.1500,2.4496,4.0685,4.751
13.939000,0.2278,2.4451,4.2633,4.920
13.939000,0.3048,2.4909,4.5241,5.173
13.941000,0.4671,2.5316,4.7052,5.363
13.946000,0.5353,2.5840,4.7590,5.442
13.950000,0.5200,2.6620,4.7479,5.468
13.955000,0.4025,2.6915,4.5285,5.283
13.959000,0.2178,2.7235,4.2106,5.019
13.965000,0.0312,2.7709,3.8557,4.748
13.969000,-0.0879,2.8178,3.5950,4.569
13.977000,-0.1540,2.8815,3.4396,4.490
13.980000,-0.1195,2.9170,3.3200,4.421
13.984000,-0.0015,2.8796,3.1900,4.297
13.989000,0.1589,2.8369,3.2072,4.285
14.026000,0.2364,2.7244,3.1991,4.209
14.027000,0.2561,2.5494,3.2710,4.155
14.028000,0.2577,2.3432,3.4561,4.183
14.028000,0.2816,2.1271,3.7186,4.293
14.028000,0.4065,1.9436,3.9847,4.452
14.028000,0.5678,1.7254,4.3549,4.719
14.029000,0.7102,1.4716,4.7607,5.033
14.029000,0.8196,1.1692,5.0113,5.211
14.035000,0.9295,0.9253,5.2365,5.398
14.040000,0.9834,0.6719,5.4321,5.561
14.044000,0.9818,0.4107,5.4815,5.584
14.048000,0.9276,0.1817,5.5002,5.581
14.053000,0.9176,-0.0273,5.4596,5.536
14.059000,0.8762,-0.2027,5.3005,5.376
14.064000,0.8684,-0.3490,4.9656,5.053
14.068000,0.8300,-0.5026,4.6489,4.749
14.113000,0.7850,-0.6033,4.2428,4.357
14.113000,0.7786,-0.6584,3.5825,3.725
14.114000,0.7530,-0.7268,2.8255,3.013
14.114000,0.6956,-0.8145,2.0212,2.287
14.114000,0.6609,-0.9354,1.1337,1.612
14.114000,0.5971,-1.0165,0.2890,1.214
14.115000,0.5682,-1.0810,-0.5040,1.321
14.115000,0.5624,-1.1086,-1.3395,1.827
14.115000,0.5578,-1.1720,-2.1468,2.509
14.119000,0.5491,-1.2329,-2.8615,3.164
14.124000,0.5281,-1.2665,-3.3505,3.621
14.129000,0.5478,-1.2943,-3.6812,3.940
14.134000,0.5968,-1.3420,-4.0264,4.286
14.137000,0.6752,-1.4118,-4.1926,4.475
14.143000,0.6205,-1.5281,-4.2539,4.562
14.148000,0.5218,-1.6692,-4.3610,4.699
14.153000,0.5204,-1.7828,-4.3822,4.760
14.158000,0.6142,-1.8187,-4.5042,4.896
14.162000,0.6813,-1.8487,-4.5927,4.997
14.168000,0.6166,-1.9688,-4.6359,5.074
14.174000,0.6355,-2.1262,-4.5954,5.103
14.178000,0.6998,-2.2374,-4.6338,5.193
14.183000,0.6706,-2.3312,-4.6193,5.218
14.187000,0.6958,-2.4442,-4.4990,5.167
14.204000,0.7559,-2.5549,-4.3398,5.092
14.206000,0.8248,-2.6589,-4.1319,4.982
14.206000,0.8287,-2.7186,-4.0518,4.949
14.279000,0.8676,-2.8084,-3.8720,4.861
14.280000,0.9563,-2.8669,-3.5705,4.678
14.281000,1.0282,-2.8847,-3.2932,4.497
14.281000,1.0049,-2.9367,-3.0489,4.351
14.282000,0.9923,-2.9087,-2.8325,4.180
14.282000,0.9503,-2.8968,-2.6534,4.042
14.282000,0.8291,-2.8893,-2.5183,3.921
14.283000,0.7700,-2.8719,-2.3697,3.802
14.283000,0.6438,-2.8258,-2.2674,3.680
14.283000,0.5055,-2.8373,-2.2207,3.638
14.284000,0.4529,-2.7698,-2.2967,3.627
14.284000,0.3612,-2.7332,-2.4523,3.690
14.284000,0.2781,-2.7176,-2.6182,3.784
14.284000,0.2075,-2.6723,-2.7184,3.818
14.285000,0.2065,-2.5758,-2.8844,3.873
14.285000,0.1745,-2.4968,-2.9803,3.892
14.288000,0.1375,-2.3968,-3.0615,3.891
14.292000,0.1672,-2.2564,-2.9871,3.747
14.297000,0.2037,-2.1350,-2.8723,3.585
14.302000,0.2062,-2.0375,-2.8941,3.545
14.307000,0.2625,-1.9297,-2.9308,3.519
14.312000,0.3505,-1.7998,-2.8772,3.412
14.316000,0.4459,-1.7027,-2.7455,3.261
14.322000,0.4980,-1.5857,-2.5022,3.004
14.353000,0.5187,-1.4757,-2.1879,2.690
14.353000,0.5254,-1.3587,-1.9171,2.408
14.354000,0.5519,-1.2348,-1.7278,2.194
14.354000,0.5675,-1.0538,-1.4359,1.869
14.354000,0.5877,-0.8520,-1.1775,1.568
14.355000,0.6038,-0.6535,-1.0098,1.346
14.356000,0.6449,-0.4750,-0.8060,1.136
14.363000,0.6418,-0.3285,-0.4559,0.853
14.366000,0.7402,-0.1688,-0.2467,0.798
14.373000,0.8104,0.0113,-0.0418,0.812
14.377000,0.8191,0.2210,0.1446,0.861
14.381000,0.8354,0.4174,0.1929,0.954
14.387000,0.9140,0.6008,0.1699,1.107
14.391000,0.9596,0.8388,0.1975,1.290
14.396000,0.9651,1.0881,0.2060,1.469
14.401000,0.9666,1.3447,0.2263,1.671
14.406000,0.9643,1.5348,0.2508,1.830
14.454000,0.8888,1.7355,0.3270,1.977
14.463000,0.7898,1.9278,0.5072,2.144
14.465000,0.6988,2.0763,0.8127,2.337
14.465000,0.6059,2.2549,1.0568,2.563
14.467000,0.4700,2.3677,1.2638,2.725
14.467000,0.3390,2.5036,1.4358,2.906
14.469000,0.2152,2.6341,1.5678,3.073
14.470000,0.1868,2.6972,1.7939,3.245
14.470000,0.0815,2.7408,2.0874,3.446
14.473000,-0.0573,2.8319,2.3241,3.664
14.474000,-0.1960,2.8250,2.5874,3.836
14.475000,-0.4259,2.7917,2.9970,4.118
14.476000,-0.5676,2.7465,3.3925,4.402
14.477000,-0.6717,2.7344,3.7216,4.667
14.482000,-0.8228,2.6214,4.0346,4.881
14.486000,-0.8564,2.5748,4.5660,5.311
14.494000,-0.9157,2.5101,4.9718,5.644
14.497000,-0.8169,2.4365,5.4365,6.013
14.501000,-0.7972,2.2717,5.8388,6.316
14.505000,-0.8904,2.1700,6.2298,6.657
14.517000,-0.8906,2.0711,6.4951,6.875
14.520000,-0.9001,2.0003,6.5780,6.934
14.522000,-1.0342,1.8996,6.5653,6.912
14.569000,-1.1292,1.8353,6.4073,6.760
14.570000,-1.1624,1.8622,6.0062,6.395
14.571000,-1.1186,1.8922,5.4912,5.915
14.571000,-1.0806,1.8755,5.0081,5.456
14.571000,-1.0405,1.8411,4.5087,4.980
14.572000,-1.0312,1.7637,3.9542,4.451
14.572000,-0.9448,1.7014,3.4662,3.975
14.573000,-0.8649,1.6432,2.8981,3.442
14.573000,-0.7365,1.5805,2.4335,2.994
14.573000,-0.6480,1.5333,2.0357,2.630
14.576000,-0.5785,1.4519,1.7044,2.313
14.579000,-0.6033,1.3774,1.5635,2.169
14.585000,-0.6752,1.1903,1.6031,2.108
14.589000,-0.7464,1.0077,1.5625,2.003
14.596000,-0.8754,0.8848,1.4823,1.936
14.599000,-1.0776,0.7781,1.5158,2.016
14.604000,-1.3160,0.6108,1.6439,2.193
14.611000,-1.5311,0.4279,1.8573,2.445
14.615000,-1.6222,0.2764,2.1803,2.732
14.619000,-1.5724,0.1364,2.3334,2.817
14.683000,-1.4263,0.0194,2.4130,2.803
14.685000,-1.2453,-0.0490,2.4410,2.741
14.685000,-1.0812,-0.1479,2.5899,2.810
14.685000,-0.9475,-0.2803,2.4772,2.667
14.685000,-0.8365,-0.4340,2.1654,2.362
14.686000,-0.7764,-0.5252,1.9798,2.190
14.686000,-0.7547,-0.6232,1.7217,1.980
14.686000,-0.7907,-0.6845,1.4246,1.767
14.687000,-0.8313,-0.7664,1.0929,1.573
14.687000,-0.9009,-0.7917,0.8269,1.457
14.687000,-0.9947,-0.8322,0.5212,1.398
14.688000,-1.0800,-0.8872,0.1706,1.408
14.688000,-1.1886,-0.9661,-0.1460,1.539
14.689000,-1.2161,-1.0519,-0.4886,1.680
14.694000,-1.2899,-1.1275,-0.7473,1.869
14.699000,-1.3670,-1.1787,-1.0324,2.079
14.704000,-1.4093,-1.2692,-1.4160,2.367
14.710000,-1.4650,-1.3920,-1.7759,2.690
14.714000,-1.4841,-1.4990,-2.0789,2.962
14.720000,-1.5119,-1.5516,-2.3444,3.192
14.725000,-1.4815,-1.6336,-2.6752,3.467
14.730000,-1.4407,-1.6851,-2.9160,3.663
14.733000,-1.3464,-1.7491,-3.0859,3.794
14.739000,-1.2582,-1.8687,-3.2425,3.948
14.744000,-1.2592,-2.0369,-3.3784,4.141
14.748000,-1.2367,-2.1482,-3.5560,4.335
14.753000,-1.0496,-2.2364,-3.6075,4.372
14.819000,-0.9704,-2.2974,-3.5734,4.358
14.821000,-0.8674,-2.3168,-3.6499,4.409
14.824000,-0.7287,-2.3476,-3.6885,4.432
14.825000,-0.4921,-2.3682,-3.6676,4.393
14.826000,-0.3677,-2.3911,-3.6874,4.410
14.827000,-0.3370,-2.4548,-3.6233,4.389
14.828000,-0.2565,-2.4927,-3.6449,4.423
14.828000,-0.0495,-2.3926,-3.7091,4.414
14.829000,0.0804,-2.3793,-3.8397,4.518
14.829000,0.1767,-2.3063,-4.1375,4.740
14.829000,0.4690,-2.2115,-4.2557,4.819
14.830000,0.6148,-2.1880,-4.0873,4.677
14.830000,0.6433,-2.1883,-3.7995,4.432
14.830000,0.7361,-2.1147,-3.5837,4.226
14.831000,0.7221,-1.9962,-3.5281,4.117
14.833000,0.7594,-1.7965,-3.4486,3.962
14.839000,0.7764,-1.6541,-3.3240,3.793
14.844000,0.7426,-1.6717,-3.1975,3.684
14.847000,0.6455,-1.6147,-3.1503,3.598
14.852000,0.6760,-1.3683,-3.2255,3.568
14.895000,0.6184,-1.2457,-2.9832,3.291
14.896000,0.6117,-1.2872,-2.5337,2.907
14.896000,0.6321,-1.2399,-2.0732,2.497
14.896000,0.6382,-1.0851,-1.4337,1.908
14.897000,0.7641,-0.9296,-0.7128,1.399
14.897000,0.8593,-0.7957,-0.1873,1.186
14.897000,0.9140,-0.6840,0.1911,1.157
14.898000,0.9282,-0.5353,0.6575,1.257
14.898000,0.8806,-0.4052,1.0613,1.437
14.903000,0.7303,-0.2653,1.1902,1.421
14.908000,0.4919,-0.1729,1.4293,1.521
14.913000,0.2996,-0.0516,1.6137,1.642
14.919000,0.2445,0.0702,1.5471,1.568
14.923000,0.1593,0.2739,1.3783,1.414
14.928000,0.0487,0.3951,0.9537,1.033
14.932000,-0.0611,0.5165,0.5264,0.740
14.936000,-0.1632,0.6051,0.2587,0.678
14.943000,-0.2029,0.6308,-0.0010,0.663
14.948000,-0.2758,0.7206,-0.1521,0.786
14.951000,-0.3099,0.8368,-0.2719,0.933
14.956000,-0.3458,0.9629,-0.4204,1.106
15.019000,-0.4555,1.0891,-0.5112,1.286
15.019000,-0.5262,1.1993,-0.4805,1.395
15.020000,-0.5357,1.3107,-0.5486,1.519
15.020000,-0.5412,1.3875,-0.8207,1.700
15.020000,-0.5891,1.4300,-0.8689,1.774
15.021000,-0.7154,1.5101,-1.0376,1.967
15.021000,-0.8269,1.5950,-1.1457,2.131
15.021000,-0.9147,1.7111,-1.1838,2.273
15.022000,-1.0391,1.7675,-1.1234,2.338
15.022000,-1.1696,1.7767,-0.8906,2.306
15.022000,-1.2272,1.8101,-0.8945,2.363
15.023000,-1.2606,1.8153,-0.8720,2.376
15.023000,-1.2942,1.8525,-0.7658,2.386
15.034000,-1.2206,1.8520,-0.6023,2.298
15.035000,-1.1569,1.8571,-0.3746,2.220
15.037000,-1.0457,1.8340,0.0634,2.112
15.045000,-0.8435,1.8424,0.3315,2.053
15.046000,-0.5961,1.8148,0.7553,2.054
15.052000,-0.2916,1.8414,1.3663,2.311
15.056000,0.0041,1.8710,1.8541,2.634
15.061000,0.2411,1.9008,2.2910,2.987
15.066000,0.5016,1.9321,2.6850,3.346
15.071000,0.7987,1.9572,2.9099,3.597
15.121000,0.9870,1.9351,2.7628,3.515
15.123000,1.1656,1.9882,2.5881,3.466
15.124000,1.3277,2.0666,2.5746,3.558
15.125000,1.3644,2.1322,2.6119,3.637
15.127000,1.3193,2.1490,2.5850,3.611
15.127000,1.1617,2.1533,2.5704,3.549
15.129000,0.9664,2.2075,2.6229,3.562
15.130000,0.7148,2.2479,2.5242,3.455
15.131000,0.4474,2.2370,2.4890,3.376
15.132000,0.1676,2.1757,2.6699,3.448
15.133000,-0.1449,2.0236,2.9038,3.542
15.133000,-0.3843,1.8643,2.9493,3.510
15.137000,-0.4066,1.7316,3.0361,3.519
15.141000,-0.2783,1.6088,3.3075,3.689
15.146000,-0.3686,1.3182,3.5583,3.812
15.150000,-0.4014,0.9770,3.8434,3.986
15.156000,-0.1361,0.7761,4.3618,4.432
15.162000,0.1835,0.5464,4.8535,4.888
15.166000,0.4138,0.3232,5.3909,5.416
15.170000,0.6364,0.0807,5.7623,5.798
15.216000,0.9835,-0.0842,5.9806,6.062
15.217000,1.2501,-0.2371,5.9631,6.097
15.217000,1.5479,-0.3498,5.7367,5.952
15.218000,1.7564,-0.3913,5.3688,5.662
15.219000,1.8226,-0.4669,4.9573,5.302
15.219000,1.7767,-0.5260,4.4544,4.824
15.220000,1.7653,-0.5683,3.9389,4.354
15.220000,1.7793,-0.6387,3.3362,3.835
15.221000,1.6971,-0.6988,2.6489,3.223
15.221000,1.6431,-0.6804,1.7519,2.496
15.226000,1.5786,-0.7003,0.8579,1.928
15.234000,1.4768,-0.7212,0.0234,1.644
15.235000,1.3178,-0.7612,-0.8338,1.735
15.241000,1.1819,-0.7860,-1.6806,2.200
15.244000,1.1399,-0.7704,-2.4609,2.819
15.250000,1.0264,-0.8335,-3.1056,3.375
15.255000,0.9199,-0.9385,-3.6396,3.870
15.260000,0.8728,-0.9553,-4.0328,4.235
15.265000,0.8036,-0.9892,-4.3546,4.537
15.270000,0.7092,-1.1021,-4.5793,4.763
15.276000,0.6204,-1.2075,-4.5947,4.791
15.280000,0.5042,-1.3921,-4.5083,4.745
15.284000,0.3555,-1.6035,-4.4324,4.727
15.289000,0.2793,-1.7537,-4.3786,4.725
15.344000,0.2588,-1.8644,-4.2893,4.684
15.346000,0.2794,-1.9460,-4.1066,4.553
15.348000,0.2986,-2.0942,-3.9070,4.443
15.349000,0.2806,-2.2140,-3.8215,4.425
15.351000,0.2379,-2.3104,-3.8379,4.486
15.352000,0.2398,-2.3547,-3.9321,4.590
15.353000,0.2642,-2.4690,-4.0562,4.756
15.354000,0.3327,-2.5594,-4.1506,4.888
15.355000,0.4047,-2.6380,-4.2224,4.995
15.356000,0.5259,-2.6689,-4.2288,5.028
15.357000,0.6463,-2.6451,-4.2055,5.010
15.359000,0.6876,-2.6432,-4.2336,5.038
15.360000,0.6381,-2.6560,-4.1460,4.965
15.361000,0.5938,-2.7077,-4.0140,4.878
15.364000,0.4730,-2.7361,-3.7995,4.706
15.369000,0.2785,-2.7349,-3.5521,4.492
15.374000,0.0557,-2.7074,-3.2592,4.237
15.378000,-0.1041,-2.6224,-2.7753,3.820
15.383000,-0.2171,-2.5384,-2.2600,3.406
15.388000,-0.2788,-2.4753,-1.7630,3.052
15.397000,-0.2778,-2.3766,-1.4560,2.801
15.399000,-0.2643,-2.3388,-1.1731,2.630
15.403000,-0.1885,-2.2998,-0.9288,2.487
15.453000,-0.0340,-2.2841,-0.7058,2.391
15.454000,0.0416,-2.2581,-0.5042,2.314
15.454000,0.0693,-2.1699,-0.3906,2.206
15.454000,0.0989,-2.0795,-0.3217,2.107
15.458000,0.0849,-1.9727,-0.2688,1.993
15.459000,0.1516,-1.8135,-0.3012,1.845
15.460000,0.2873,-1.6665,-0.4405,1.748
15.460000,0.4376,-1.5048,-0.7490,1.737
15.463000,0.5932,-1.3490,-1.1218,1.852
15.463000,0.6830,-1.1650,-1.5784,2.077
15.464000,0.6809,-1.0042,-1.9665,2.311
15.464000,0.6371,-0.8636,-2.2793,2.519
15.468000,0.5752,-0.6994,-2.3597,2.527
15.472000,0.4852,-0.5326,-2.3875,2.494
15.477000,0.4390,-0.3343,-2.3846,2.448
15.483000,0.4243,-0.1645,-2.2910,2.336
15.488000,0.3596,-0.0107,-2.2221,2.251
15.494000,0.2662,0.1464,-2.2304,2.251
15.501000,0.2537,0.3165,-2.1918,2.229
15.503000,0.2310,0.4829,-2.1349,2.201
15.551000,0.2223,0.6125,-1.9501,2.056
15.553000,0.3140,0.8227,-1.6998,1.914
15.553000,0.4606,0.9888,-1.4079,1.781
15.554000,0.6549,1.1489,-1.1388,1.745
15.554000,0.8845,1.2504,-0.8280,1.741
15.554000,1.0470,1.3289,-0.5924,1.793
15.555000,1.1166,1.4228,-0.2862,1.831
15.556000,1.1416,1.5321,-0.0434,1.911
15.557000,1.1849,1.6929,0.2317,2.079
15.557000,1.1415,1.8260,0.4937,2.209
15.558000,1.1119,1.9292,0.7305,2.343
15.562000,1.1057,2.0074,0.9636,2.486
15.568000,1.0366,2.1035,1.2984,2.681
15.576000,0.9047,2.1389,1.5170,2.774
15.579000,0.6760,2.1997,1.7368,2.883
15.582000,0.4980,2.2522,1.8979,2.987
15.587000,0.3817,2.2726,2.0794,3.104
15.592000,0.2095,2.3042,2.2810,3.249
15.597000,0.0364,2.2659,2.4811,3.360
15.603000,-0.1359,2.1910,2.5723,3.382
15.608000,-0.2527,2.1563,2.8104,3.551
15.612000,-0.3774,2.1637,3.0089,3.725
15.617000,-0.4503,2.1558,3.3519,4.011
15.621000,-0.4019,2.1132,3.7249,4.301
15.653000,-0.2609,2.0689,3.9582,4.474
15.654000,-0.1180,2.0225,4.2844,4.739
15.655000,-0.0255,1.9392,4.6228,5.013
15.656000,-0.0328,1.8496,4.9093,5.246
15.657000,0.0451,1.8201,5.0272,5.347
15.658000,0.1560,1.8116,5.0083,5.328
15.658000,0.1902,1.7499,4.8263,5.137
15.662000,0.1872,1.6328,4.6370,4.920
15.668000,0.2870,1.5875,4.3300,4.621
15.671000,0.3591,1.5620,3.9171,4.232
15.677000,0.2966,1.5187,3.4672,3.797
15.681000,0.1478,1.4655,3.0708,3.406
15.686000,0.0324,1.3748,2.6579,2.993
15.693000,-0.0401,1.3193,2.3330,2.681
15.696000,-0.1303,1.2638,2.0359,2.400
15.701000,-0.2966,1.1804,1.9143,2.268
15.708000,-0.5829,0.9810,1.8434,2.168
15.721000,-0.9287,0.7567,1.8158,2.175
15.723000,-1.1774,0.5729,2.0534,2.435
15.725000,-1.3570,0.4647,2.5037,2.885
15.785000,-1.5621,0.2563,3.1241,3.502
15.787000,-1.6545,0.1623,3.7640,4.115
15.787000,-1.5915,0.0303,4.2883,4.574
15.787000,-1.5525,-0.3007,4.7357,4.993
15.788000,-1.4322,-0.4706,5.1167,5.334
15.788000,-1.1584,-0.5571,5.3818,5.533
15.789000,-0.8574,-0.7043,5.6270,5.735
15.789000,-0.6334,-0.8247,5.6832,5.778
15.789000,-0.4038,-0.9096,5.5631,5.651
15.790000,-0.2679,-0.9709,5.3244,5.419
15.790000,-0.1905,-0.9607,4.9909,5.086
15.791000,-0.1492,-0.9914,4.5509,4.660
15.791000,-0.1813,-1.0048,4.1235,4.248
15.796000,-0.2916,-1.0634,3.8717,4.026
15.796000,-0.3431,-1.1118,3.3573,3.553
15.801000,-0.3477,-1.0849,2.6187,2.856
15.805000,-0.4179,-1.0468,1.9260,2.232
15.811000,-0.6094,-1.0492,1.3601,1.823
15.815000,-0.8295,-1.0147,0.6547,1.465
15.820000,-1.0527,-1.0171,-0.0705,1.465
15.828000,-1.2176,-1.0192,-0.7111,1.740
15.830000,-1.4013,-1.0040,-1.2747,2.144
15.835000,-1.5733,-1.0091,-1.8621,2.638
15.840000,-1.7700,-1.0191,-2.4165,3.164
15.896000,-1.8820,-1.0242,-2.9360,3.635
15.897000,-1.9507,-1.0360,-3.3442,4.008
15.898000,-1.9792,-1.0565,-3.7109,4.336
15.899000,-1.9770,-1.0736,-4.0460,4.629
15.899000,-1.9894,-1.1252,-4.1416,4.730
15.900000,-2.0208,-1.2305,-4.1915,4.813
15.900000,-1.9916,-1.2846,-4.2388,4.856
15.901000,-1.8782,-1.3404,-4.2306,4.819
15.902000,-1.7880,-1.4248,-4.0781,4.675
15.902000,-1.6445,-1.5027,-3.9005,4.492
15.903000,-1.4403,-1.4960,-3.8290,4.356
15.905000,-1.2591,-1.5605,-3.7435,4.247
15.906000,-1.0937,-1.6608,-3.7275,4.225
15.911000,-0.8842,-1.7496,-3.6776,4.167
15.915000,-0.6638,-1.8299,-3.7826,4.254
15.921000,-0.3969,-1.8752,-3.8987,4.344
15.927000,-0.1548,-1.9214,-4.0475,4.483
15.930000,0.0029,-1.9042,-4.3364,4.736
15.934000,0.3008,-1.9071,-4.5502,4.943
15.939000,0.6058,-1.8962,-4.7778,5.176
15.992000,0.8368,-1.9428,-4.9642,5.396
15.993000,1.0233,-1.9772,-5.0501,5.519
15.993000,1.2211,-1.9825,-5.0140,5.528
15.993000,1.3518,-1.9418,-4.9687,5.503
15.994000,1.4492,-1.9295,-4.8279,5.397
15.994000,1.5639,-1.8954,-4.5465,5.168
15.994000,1.5954,-1.9234,-4.1769,4.867
15.995000,1.5868,-1.9973,-3.7907,4.569
15.995000,1.5476,-1.9739,-3.4045,4.229
15.995000,1.5113,-1.9230,-3.1112,3.958
15.996000,1.3890,-1.8184,-2.8869,3.684
16.000000,1.2874,-1.7490,-2.6260,3.408
16.004000,1.2229,-1.6764,-2.2999,3.098
16.009000,1.3055,-1.6055,-1.9636,2.853
16.013000,1.4029,-1.5438,-1.5501,2.599
16.020000,1.3646,-1.3984,-1.1212,2.253
16.025000,1.2365,-1.1695,-0.8132,1.886
16.029000,0.9416,-0.9844,-0.5540,1.471
16.034000,0.4894,-0.8169,-0.3793,1.025
16.038000,0.0518,-0.6524,-0.3272,0.732
16.044000,-0.3263,-0.4404,-0.4122,0.686
16.048000,-0.5182,-0.2309,-0.5291,0.776
16.053000,-0.6170,-0.0468,-0.6521,0.899
16.109000,-0.7234,0.1955,-0.8146,1.107
16.109000,-0.9570,0.4105,-0.9691,1.423
16.110000,-1.2124,0.5680,-1.0277,1.688
16.110000,-1.3363,0.7517,-0.9952,1.828
16.110000,-1.3380,1.0004,-0.9321,1.913
16.111000,-1.2727,1.2374,-0.8740,1.979
16.111000,-1.2027,1.4678,-0.8785,2.091
16.111000,-1.0943,1.6656,-0.8862,2.181
16.111000,-0.9885,1.8167,-0.8898,2.251
16.111000,-0.8831,1.9931,-0.8921,2.355
16.112000,-0.7852,2.1355,-0.9291,2.458
16.114000,-0.7717,2.3183,-0.9988,2.640
16.119000,-0.8398,2.4847,-1.1422,2.861
16.124000,-0.9490,2.5972,-1.2737,3.044
16.128000,-1.1379,2.6923,-1.1665,3.147
16.133000,-1.3968,2.7319,-0.8546,3.185
16.137000,-1.6545,2.7664,-0.4459,3.254
16.146000,-1.8517,2.8001,-0.0168,3.357
16.148000,-1.9654,2.8495,0.5141,3.500
16.152000,-2.0172,2.8062,1.2311,3.669
16.207000,-1.9423,2.6961,1.7922,3.775
16.208000,-1.8104,2.5641,2.2053,3.836
16.209000,-1.6286,2.5961,2.9710,4.268
16.209000,-1.3292,2.6190,3.6995,4.724
16.210000,-1.0935,2.5408,4.0928,4.940
16.210000,-0.9482,2.4780,4.6062,5.316
16.210000,-0.7349,2.5040,4.9962,5.637
16.211000,-0.5468,2.5365,5.0865,5.710
16.211000,-0.4420,2.5371,5.0760,5.692
16.212000,-0.3884,2.5391,5.0512,5.667
16.212000,-0.2725,2.5835,4.8876,5.535
16.212000,-0.1148,2.6466,4.6471,5.349
16.218000,-0.0049,2.6598,4.2650,5.026
16.223000,0.0025,2.6618,3.9036,4.725
16.227000,0.0014,2.6511,3.7059,4.557
16.237000,0.0403,2.6281,3.6259,4.478
16.237000,0.1387,2.6291,3.4432,4.334
16.243000,0.1556,2.5948,3.2820,4.187
16.247000,0.1121,2.5638,3.0535,3.989
16.252000,0.0842,2.4981,2.9274,3.849
16.257000,-0.0583,2.3577,2.8696,3.714
16.262000,-0.2734,2.1623,2.7579,3.515
16.266000,-0.5411,1.9647,2.7212,3.400
16.271000,-0.7717,1.7413,2.8764,3.450
16.322000,-0.8965,1.5370,3.1590,3.626
16.323000,-0.9092,1.3610,3.4975,3.862
16.323000,-0.9728,1.1070,3.8924,4.162
16.323000,-1.0610,0.8865,4.3372,4.552
16.324000,-1.0756,0.7223,4.7320,4.906
16.324000,-0.8970,0.5365,5.0110,5.119
16.324000,-0.5561,0.3522,5.0744,5.117
16.324000,-0.2031,0.1396,4.9255,4.932
16.325000,0.1897,-0.0631,4.6270,4.631
16.325000,0.5373,-0.2226,4.1098,4.151
16.327000,0.8744,-0.3359,3.5579,3.679
16.333000,1.0967,-0.4600,2.9759,3.205
16.337000,1.1761,-0.5947,2.3949,2.734
16.341000,1.2233,-0.7105,1.7736,2.269
16.346000,1.3029,-0.7331,1.1695,1.898
16.351000,1.3096,-0.7769,0.5463,1.618
16.356000,1.2503,-0.8074,-0.1684,1.498
16.362000,1.1918,-0.8670,-0.9054,1.730
16.366000,1.1096,-0.9068,-1.6082,2.154
16.371000,1.0534,-0.9289,-2.1813,2.594
16.377000,0.9503,-0.9563,-2.7238,3.039
16.381000,0.8426,-0.9809,-3.2028,3.454
16.386000,0.7606,-0.9957,-3.5610,3.775
16.444000,0.6320,-1.0454,-3.8517,4.041
16.445000,0.5855,-1.0915,-4.1758,4.356
16.445000,0.5706,-1.1267,-4.4425,4.619
16.446000,0.5752,-1.1650,-4.5995,4.779
16.446000,0.6684,-1.2062,-4.6783,4.877
16.446000,0.7214,-1.2719,-4.6837,4.907
16.447000,0.7703,-1.4217,-4.5823,4.859
16.447000,0.8226,-1.5078,-4.4123,4.735
16.447000,0.8714,-1.6094,-4.1686,4.553
16.447000,0.8808,-1.7342,-3.9012,4.359
16.448000,0.8626,-1.8946,-3.6720,4.221
16.448000,0.8267,-2.0528,-3.5401,4.175
16.450000,0.8182,-2.2042,-3.3667,4.106
16.457000,0.9140,-2.2630,-3.1803,4.009
16.462000,0.9967,-2.3327,-3.0306,3.952
16.466000,1.1097,-2.4659,-2.9010,3.966
16.470000,1.1410,-2.5699,-2.8457,4.001
16.477000,1.2532,-2.6304,-2.6688,3.951
16.480000,1.4033,-2.6720,-2.4725,3.902
16.485000,1.5365,-2.6734,-2.3334,3.867
16.490000,1.6341,-2.6758,-2.0885,3.767
16.542000,1.7085,-2.7109,-1.7159,3.635
16.543000,1.7412,-2.7337,-1.2775,3.484
16.543000,1.6984,-2.7121,-0.9042,3.325
16.544000,1.6093,-2.7041,-0.6121,3.206
16.544000,1.5052,-2.6957,-0.5133,3.130
16.544000,1.3359,-2.6060,-0.5834,2.986
16.544000,1.0964,-2.5736,-0.7579,2.898
16.545000,0.8320,-2.5212,-1.0584,2.858
16.545000,0.6331,-2.4510,-1.4159,2.901
16.545000,0.4443,-2.3912,-1.7563,3.000
16.546000,0.3009,-2.2953,-2.1283,3.145
16.550000,0.2003,-2.2514,-2.5179,3.384
16.556000,0.0512,-2.1437,-2.8920,3.600
16.559000,0.0113,-1.9665,-3.2180,3.771
16.564000,0.0392,-1.8629,-3.4725,3.941
16.570000,0.0553,-1.8083,-3.4814,3.923
16.575000,0.0455,-1.7504,-3.3501,3.780
16.579000,0.0985,-1.6676,-3.2220,3.629
16.586000,0.1643,-1.5173,-3.0613,3.421
16.590000,0.2267,-1.3522,-2.8939,3.202
16.595000,0.2519,-1.2992,-2.7751,3.075
16.599000,0.2450,-1.1958,-2.5108,2.792
16.604000,0.3042,-1.0948,-2.2995,2.565
16.659000,0.3912,-0.9701,-2.0622,2.312
16.660000,0.4654,-0.8195,-1.8273,2.056
16.660000,0.5366,-0.6721,-1.7310,1.933
16.660000,0.6693,-0.5420,-1.7398,1.941
16.661000,0.7701,-0.4144,-1.6984,1.910
16.661000,0.9089,-0.2174,-1.6236,1.873
16.661000,1.0551,-0.0225,-1.4705,1.810
16.662000,1.1517,0.1611,-1.3109,1.752
16.662000,1.1608,0.3501,-1.1616,1.679
16.662000,1.1328,0.5327,-1.0562,1.638
16.662000,1.1828,0.6899,-0.9015,1.639
16.665000,1.2057,0.8604,-0.6237,1.607
16.670000,1.1325,1.0298,-0.3257,1.565
16.674000,1.0162,1.2101,-0.0124,1.580
16.679000,0.8396,1.3392,0.3902,1.628
16.685000,0.6478,1.4502,0.8848,1.818
16.690000,0.4237,1.5573,1.3398,2.098
16.694000,0.1715,1.6697,1.7674,2.437
16.699000,0.0123,1.7750,2.1297,2.772
16.705000,-0.1027,1.8705,2.3673,3.019
16.716000,-0.1669,1.9345,2.5018,3.167
16.718000,-0.2902,2.0293,2.5908,3.304
16.719000,-0.3291,2.1361,2.6030,3.383
16.723000,-0.2832,2.2457,2.5356,3.399
16.785000,-0.2412,2.2962,2.5395,3.432
16.786000,-0.2459,2.3142,2.6430,3.522
16.787000,-0.2537,2.3286,2.7980,3.649
16.788000,-0.2210,2.3488,3.0692,3.871
16.788000,-0.1354,2.3128,3.3152,4.045
16.789000,-0.0257,2.3853,3.6202,4.335
16.789000,0.1065,2.3864,3.8552,4.535
16.790000,0.1532,2.3687,4.0777,4.718
16.790000,0.2014,2.3584,4.2832,4.894
16.790000,0.2346,2.3385,4.5125,5.088
16.791000,0.1002,2.3496,4.5766,5.146
16.792000,-0.1042,2.3175,4.6338,5.182
16.792000,-0.5012,2.2807,4.6981,5.246
16.792000,-0.9980,2.1743,4.8343,5.394
16.799000,-1.3751,2.0673,4.8154,5.418
16.804000,-1.7150,1.9786,4.6226,5.313
16.811000,-1.9130,1.9896,4.4832,5.265
16.814000,-2.0575,1.9353,4.4328,5.256
16.818000,-2.0740,1.8517,4.0626,4.923
16.822000,-2.0129,1.7917,3.5519,4.458
16.872000,-1.8433,1.6962,3.1875,4.054
16.874000,-1.7343,1.6085,2.8614,3.712
16.874000,-1.6875,1.5102,2.5706,3.426
16.874000,-1.6264,1.4041,2.5661,3.347
16.875000,-1.4592,1.2351,2.6824,3.294
16.875000,-1.2881,1.1467,2.8671,3.346
16.875000,-1.1633,1.0495,2.9794,3.366
16.876000,-1.1616,0.9098,3.2731,3.590
16.876000,-1.1632,0.7532,3.6815,3.934
16.876000,-1.1418,0.5809,4.1002,4.296
16.879000,-1.1116,0.4351,4.4078,4.567
16.883000,-1.0413,0.3391,4.5570,4.687
16.888000,-1.0460,0.2755,4.4887,4.617
16.892000,-1.0305,0.1651,4.2437,4.370
16.897000,-1.0103,0.0513,3.8247,3.956
16.903000,-1.0411,-0.0896,3.2363,3.401
16.908000,-1.0731,-0.2542,2.6048,2.829
16.912000,-1.1595,-0.3511,2.0423,2.375
16.916000,-1.1664,-0.4373,1.5411,1.982
16.923000,-1.1942,-0.5095,1.1532,1.737
16.981000,-1.2205,-0.5654,0.7231,1.527
16.982000,-1.2046,-0.6428,0.1573,1.374
16.983000,-1.2681,-0.7652,-0.3100,1.513
16.983000,-1.3008,-0.8366,-0.6959,1.696
16.983000,-1.4027,-0.9071,-1.0029,1.948
16.984000,-1.4756,-0.9815,-1.2598,2.174
16.984000,-1.4260,-1.0618,-1.4431,2.290
16.984000,-1.3303,-1.1339,-1.6483,2.403
16.984000,-1.2890,-1.2146,-1.8681,2.574
16.985000,-1.3045,-1.3206,-2.0261,2.748
16.985000,-1.2809,-1.4352,-2.2992,2.998
16.985000,-1.2976,-1.5295,-2.5774,3.266
16.986000,-1.3620,-1.6131,-2.7748,3.487
16.995000,-1.3069,-1.6571,-2.9105,3.595
16.997000,-1.2878,-1.7813,-3.0948,3.796
17.001000,-1.2383,-1.8754,-3.3730,4.053
17.006000,-1.1200,-1.9345,-3.5731,4.215
17.011000,-0.9646,-1.9990,-3.7646,4.370
17.016000,-0.8749,-2.1289,-3.9046,4.532
17.021000,-0.7365,-2.2162,-3.9787,4.613
17.027000,-0.6000,-2.2590,-4.0539,4.679
17.031000,-0.4102,-2.2717,-4.0799,4.688
17.036000,-0.2938,-2.3214,-4.0973,4.718
17.079000,-0.1601,-2.4346,-4.0414,4.721
17.080000,-0.0805,-2.5136,-3.9407,4.675
17.080000,0.0242,-2.5516,-3.6943,4.490
17.081000,0.1730,-2.5804,-3.3333,4.219
17.081000,0.3449,-2.5671,-3.0271,3.984
17.081000,0.5046,-2.6249,-2.8251,3.889
17.081000,0.6351,-2.6756,-2.6980,3.852
17.082000,0.7391,-2.7245,-2.6191,3.851
17.082000,0.8722,-2.6546,-2.6360,3.841
17.087000,1.0451,-2.5592,-2.7198,3.878
17.091000,1.2440,-2.4665,-2.9114,4.013
17.096000,1.3378,-2.3643,-3.1895,4.190
17.102000,1.3815,-2.2568,-3.4418,4.341
17.106000,1.3633,-2.1745,-3.7334,4.530
17.111000,1.3835,-2.0809,-3.9667,4.688
17.116000,1.3412,-1.9229,-4.1158,4.737
17.121000,1.2553,-1.8007,-4.1811,4.722
17.125000,1.0845,-1.6470,-4.1439,4.589
17.131000,0.9028,-1.4831,-3.9540,4.318
17.135000,0.6792,-1.3281,-3.7460,4.032
17.144000,0.4708,-1.1055,-3.4431,3.647
17.145000,0.3368,-0.9040,-3.2080,3.350
17.150000,0.1349,-0.7525,-3.0023,3.098
17.155000,0.0110,-0.6484,-2.8643,2.937
17.216000,-0.0144,-0.4934,-2.6817,2.727
17.219000,0.0249,-0.3451,-2.5072,2.531
17.219000,0.0859,-0.2318,-2.3052,2.318
17.220000,0.0950,-0.0650,-2.0565,2.060
17.220000,0.1164,0.1337,-1.7899,1.799
17.220000,0.1932,0.2853,-1.4670,1.507
17.221000,0.1561,0.4205,-1.0232,1.117
17.223000,0.1376,0.5177,-0.6041,0.807
17.224000,0.1502,0.6507,-0.1784,0.691
17.224000,0.1201,0.8547,0.0702,0.866
17.225000,0.0499,0.9982,0.1301,1.008
17.225000,0.0423,1.1389,0.1662,1.152
17.226000,0.0277,1.2314,0.2334,1.254
17.226000,0.0848,1.3432,0.2693,1.373
17.229000,0.0674,1.4575,0.2715,1.484
17.239000,-0.0312,1.5768,0.2686,1.600
17.240000,-0.1150,1.7040,0.3080,1.735
17.246000,-0.1887,1.7820,0.3968,1.835
17.249000,-0.2478,1.9305,0.5395,2.020
17.257000,-0.3281,1.9581,0.7289,2.115
17.261000,-0.4654,1.9534,1.0104,2.248
17.264000,-0.5457,2.0309,1.3027,2.474
17.270000,-0.5954,2.0424,1.4599,2.580
17.325000,-0.6555,2.0238,1.6137,2.670
17.326000,-0.7025,1.9895,1.7689,2.753
17.326000,-0.6889,2.0041,2.0259,2.932
17.327000,-0.6221,2.0765,2.3298,3.182
17.327000,-0.5523,2.0443,2.5253,3.296
17.327000,-0.4414,2.0388,2.7059,3.417
17.327000,-0.2199,2.0430,2.9459,3.592
17.328000,0.0263,2.0543,3.2765,3.867
17.328000,0.2278,2.1150,3.5594,4.147
17.328000,0.4688,2.2033,3.8453,4.456
17.328000,0.7214,2.2872,4.1179,4.765
17.329000,0.8908,2.3594,4.2316,4.926
17.334000,0.9875,2.4124,4.2251,4.964
17.339000,1.0006,2.4800,4.2227,4.998
17.344000,1.0428,2.5236,4.1290,4.950
17.350000,1.0999,2.6103,3.9128,4.830
17.354000,1.2035,2.6475,3.6815,4.692
17.361000,1.2084,2.6930,3.3845,4.491
17.364000,1.2250,2.7643,3.0812,4.317
17.368000,1.1673,2.8191,2.6634,4.050
17.373000,0.9846,2.8200,2.2429,3.735
17.414000,0.6954,2.7993,1.8667,3.436
17.415000,0.4119,2.7221,1.5411,3.155
17.415000,0.1034,2.6108,1.3636,2.947
17.415000,-0.2202,2.4706,1.4053,2.851
17.415000,-0.5123,2.2513,1.5773,2.796
17.416000,-0.6980,2.0148,1.8680,2.835
17.416000,-0.6491,1.7559,2.1816,2.875
17.416000,-0.5264,1.5166,2.7343,3.171
17.417000,-0.2359,1.3392,3.4834,3.739
17.425000,0.1294,1.1284,4.1527,4.305
17.428000,0.3791,0.8996,4.6382,4.740
17.432000,0.6098,0.5945,4.8788,4.953
17.437000,0.8349,0.3340,5.0643,5.143
17.443000,1.1055,0.1320,5.0613,5.182
17.448000,1.2645,-0.0338,4.8395,5.002
17.453000,1.2960,-0.1736,4.5812,4.764
17.459000,1.3012,-0.2585,4.1932,4.398
17.462000,1.2137,-0.3984,3.6467,3.864
17.467000,1.1465,-0.4636,3.0372,3.279
17.472000,1.1231,-0.5663,2.3432,2.659
17.499000,1.1051,-0.6602,1.5761,2.035
17.499000,1.0804,-0.7232,0.7572,1.505
17.499000,1.0368,-0.7683,-0.1050,1.295
17.500000,1.0071,-0.8637,-0.9180,1.613
17.500000,0.9021,-0.9562,-1.6512,2.111
17.503000,0.7880,-1.0112,-2.2816,2.617
17.508000,0.7003,-1.0762,-2.8001,3.080
17.512000,0.5883,-1.1291,-3.2912,3.529
17.517000,0.4921,-1.1980,-3.7026,3.923
17.522000,0.4116,-1.2829,-4.0250,4.244
17.527000,0.3055,-1.3691,-4.2014,4.429
17.532000,0.2194,-1.4902,-4.3538,4.607
17.537000,0.1269,-1.6390,-4.4250,4.721
17.542000,0.0924,-1.7367,-4.4030,4.734
17.548000,0.0897,-1.8076,-4.3785,4.738
17.552000,0.0808,-1.8900,-4.3490,4.743
17.557000,0.1925,-1.9890,-4.3192,4.759
17.562000,0.3148,-2.0856,-4.2721,4.764
17.566000,0.4170,-2.1731,-4.2503,4.792
17.574000,0.5205,-2.2993,-4.1655,4.786
17.577000,0.5417,-2.4503,-4.0604,4.773
17.654000,0.6245,-2.5016,-3.9133,4.686
17.655000,0.6898,-2.5712,-3.6116,4.487
17.656000,0.8196,-2.6215,-3.2195,4.232
17.656000,0.8947,-2.6911,-2.7988,3.984
17.656000,0.9870,-2.7066,-2.4472,3.780
17.656000,1.0658,-2.7381,-2.1640,3.649
17.657000,1.0670,-2.7331,-1.9323,3.513
17.657000,1.0432,-2.7543,-1.7828,3.443
17.657000,1.0400,-2.7708,-1.5885,3.359
17.658000,0.9597,-2.7876,-1.4903,3.303
17.658000,0.7835,-2.7164,-1.5479,3.223
17.658000,0.6117,-2.6766,-1.5675,3.162
17.659000,0.4604,-2.6612,-1.6112,3.145
17.659000,0.2864,-2.5911,-1.6719,3.097
17.659000,0.1940,-2.5165,-1.8956,3.157
17.660000,0.1091,-2.4344,-2.0840,3.206
17.661000,0.0575,-2.3038,-2.3547,3.295
17.667000,0.0242,-2.1599,-2.6507,3.419
17.672000,-0.1226,-2.0981,-2.8048,3.505
17.676000,-0.1991,-2.0507,-2.9349,3.586
17.681000,-0.1768,-1.9240,-2.8906,3.477
17.685000,-0.0821,-1.7592,-2.8368,3.339
17.693000,0.0369,-1.6496,-2.7762,3.229
17.696000,0.1354,-1.5280,-2.6439,3.057
17.701000,0.2163,-1.3658,-2.5574,2.907
17.707000,0.2873,-1.2609,-2.4377,2.760
17.753000,0.2410,-1.1632,-2.2417,2.537
17.754000,0.2738,-1.0343,-2.2039,2.450
17.754000,0.3045,-0.8720,-2.0012,2.204
17.755000,0.3095,-0.6978,-1.7127,1.875
17.755000,0.2843,-0.5955,-1.5465,1.681
17.755000,0.2741,-0.5049,-1.4931,1.600
17.755000,0.2547,-0.4021,-1.3324,1.415
17.756000,0.2757,-0.3323,-1.2202,1.294
17.756000,0.4190,-0.1971,-1.1232,1.215
17.756000,0.5239,-0.0583,-0.9916,1.123
17.763000,0.5829,0.0317,-0.8684,1.046
17.766000,0.6079,0.1923,-0.6270,0.894
17.770000,0.5675,0.3137,-0.3012,0.715
17.775000,0.4952,0.4027,0.0064,0.638
17.780000,0.4838,0.5307,0.3488,0.798
17.785000,0.4493,0.6852,0.6784,1.064
17.790000,0.4304,0.8656,0.9143,1.331
17.795000,0.4425,0.9980,1.1190,1.563
17.800000,0.4549,1.1469,1.2469,1.754
17.805000,0.4947,1.2885,1.4799,2.024
17.810000,0.5431,1.4730,1.7006,2.314
17.815000,0.6027,1.6382,1.8279,2.528
17.819000,0.5350,1.7266,1.9289,2.644
17.853000,0.4576,1.8965,2.0297,2.815
17.855000,0.4069,2.0430,2.0367,2.913
17.856000,0.2633,2.1497,2.0048,2.951
17.857000,0.0694,2.2215,2.0008,2.991
17.857000,-0.2233,2.2899,2.0461,3.079
17.857000,-0.5676,2.3957,2.1402,3.262
17.858000,-0.7795,2.5251,2.3330,3.525
17.863000,-0.9391,2.5584,2.5167,3.710
17.864000,-1.0595,2.5264,2.7681,3.895
17.871000,-1.2087,2.4573,3.1067,4.141
17.875000,-1.2362,2.4348,3.3313,4.307
17.879000,-1.1185,2.3964,3.4976,4.385
17.884000,-0.9558,2.3181,3.4740,4.284
17.889000,-0.8269,2.2881,3.3807,4.165
17.894000,-0.6785,2.3252,3.4379,4.206
17.900000,-0.6510,2.2979,3.4662,4.209
17.905000,-0.7864,2.2157,3.4563,4.180
17.911000,-0.7964,2.3226,3.4631,4.245
17.914000,-0.8266,2.3793,3.2978,4.150
17.919000,-0.9559,2.3283,3.0611,3.963
17.966000,-1.1981,2.1892,3.0183,3.916
17.967000,-1.4025,2.1197,3.0737,3.989
17.967000,-1.4379,2.1097,3.1056,4.020
17.968000,-1.4667,1.9969,2.8579,3.782
17.968000,-1.4151,2.0858,2.5743,3.603
17.968000,-1.2954,2.0371,2.5079,3.481
17.969000,-1.3575,1.7695,2.5963,3.423
17.969000,-1.5281,1.4791,2.9759,3.658
17.969000,-1.5919,1.3016,3.4623,4.027
17.969000,-1.5424,1.2028,3.6759,4.164
17.974000,-1.4927,0.9646,3.8970,4.283
17.978000,-1.5464,0.7268,4.1478,4.486
17.985000,-1.4284,0.5633,4.3594,4.622
17.988000,-1.0804,0.3593,4.3690,4.515
17.994000,-0.7954,0.2294,4.0433,4.127
17.998000,-0.5446,0.1284,3.6695,3.712
18.003000,-0.4575,-0.0629,3.1229,3.157
18.010000,-0.3713,-0.2389,3.0396,3.072
18.014000,-0.3407,-0.3405,3.0967,3.134
18.018000,-0.3936,-0.4682,2.7442,2.811
18.023000,-0.4554,-0.7029,2.2643,2.414
18.087000,-0.5162,-0.8650,2.0350,2.271
18.088000,-0.5997,-0.8204,1.7570,2.030
18.089000,-0.5717,-0.8156,1.4327,1.745
18.089000,-0.6904,-0.9177,1.0813,1.577
18.089000,-0.8581,-1.0211,0.9683,1.648
18.089000,-0.8687,-0.9947,0.6798,1.485
18.090000,-0.9286,-0.9959,0.0245,1.362
18.090000,-0.9592,-1.1222,-0.6582,1.616
18.090000,-0.9946,-1.2310,-1.2948,2.045
18.090000,-1.0640,-1.1622,-1.5868,2.236
18.091000,-0.9928,-1.1213,-1.8240,2.360
18.091000,-1.0042,-1.1296,-2.2794,2.735
18.091000,-1.0578,-1.2203,-2.6849,3.133
18.095000,-1.1841,-1.2903,-2.8209,3.320
18.099000,-1.1314,-1.3653,-2.9606,3.451
18.102000,-1.1315,-1.4336,-3.2641,3.740
18.108000,-1.1965,-1.3898,-3.5711,4.014
18.113000,-1.1537,-1.4275,-3.7981,4.218
18.117000,-1.1665,-1.4864,-4.1008,4.515
18.122000,-1.0751,-1.5855,-4.1781,4.596
18.128000,-0.9874,-1.7057,-4.2669,4.700
18.132000,-0.9296,-1.8228,-4.3841,4.838
18.137000,-0.7896,-1.8893,-4.3214,4.782
18.144000,-0.6778,-1.9438,-4.1577,4.639
18.147000,-0.5658,-2.0135,-3.8949,4.421
18.152000,-0.4030,-2.0891,-3.5377,4.128
18.220000,-0.1842,-2.2000,-3.4132,4.065
18.221000,0.0589,-2.2846,-3.0855,3.840
18.222000,0.3075,-2.3414,-2.9106,3.748
18.222000,0.5977,-2.3779,-2.8832,3.785
18.222000,0.8556,-2.3913,-2.8120,3.789
18.223000,1.0917,-2.3967,-2.5797,3.687
18.223000,1.2634,-2.4371,-2.3105,3.588
18.223000,1.3883,-2.4602,-2.0498,3.490
18.224000,1.5056,-2.4787,-1.7349,3.379
18.224000,1.5007,-2.4403,-1.4995,3.234
18.224000,1.4367,-2.4245,-1.4005,3.147
18.225000,1.3092,-2.3740,-1.3183,3.015
18.225000,1.1373,-2.3366,-1.3007,2.906
18.225000,0.9258,-2.3000,-1.3596,2.828
18.237000,0.7602,-2.2309,-1.5236,2.806
18.239000,0.7069,-2.1432,-1.6471,2.794
18.241000,0.6580,-1.9885,-1.7856,2.752
18.242000,0.5966,-1.8817,-1.8384,2.698
18.250000,0.5365,-1.6978,-2.0239,2.696
18.252000,0.4892,-1.5538,-2.1959,2.734
18.256000,0.4491,-1.4492,-2.3335,2.783
18.314000,0.3871,-1.3954,-2.4992,2.888
18.315000,0.3414,-1.3131,-2.5760,2.911
18.315000,0.3379,-1.2713,-2.5284,2.850
18.316000,0.3526,-1.1599,-2.3209,2.618
18.316000,0.2519,-1.0628,-2.1327,2.396
18.316000,0.1106,-0.9392,-1.9808,2.195
18.317000,0.0414,-0.8087,-1.7858,1.961
18.317000,0.0274,-0.6471,-1.6246,1.749
18.317000,0.0781,-0.4690,-1.5351,1.607
18.318000,0.1241,-0.3006,-1.6920,1.723
18.318000,0.1964,-0.0430,-1.8684,1.879
18.318000,0.1775,0.1531,-1.9688,1.983
18.321000,0.0557,0.3317,-2.0991,2.126
18.326000,-0.0757,0.5460,-2.0373,2.111
18.332000,-0.1379,0.7341,-1.8343,1.981
18.337000,-0.0547,0.9776,-1.6984,1.960
18.344000,0.0013,1.2594,-1.5792,2.020
18.346000,0.0344,1.4052,-1.3312,1.936
18.351000,0.0615,1.5251,-1.0595,1.858
18.355000,0.0040,1.6169,-0.8027,1.805
18.410000,-0.1235,1.8046,-0.3571,1.844
18.411000,-0.1971,1.9923,0.0164,2.002
18.411000,-0.3177,2.0508,0.3850,2.111
18.411000,-0.4329,2.1063,0.8328,2.306
18.412000,-0.5331,2.0988,1.2955,2.523
18.412000,-0.5268,2.1712,1.7640,2.847
18.412000,-0.4762,2.2157,2.1834,3.147
18.413000,-0.3741,2.3179,2.6593,3.547
18.413000,-0.3228,2.3577,3.2089,3.995
18.413000,-0.3649,2.3109,3.5598,4.260
18.413000,-0.4187,2.2394,3.9420,4.553
18.417000,-0.4196,2.2575,4.2651,4.844
18.421000,-0.3608,2.2859,4.5077,5.067
18.426000,-0.2448,2.3577,4.5962,5.171
18.430000,-0.1176,2.4106,4.7077,5.290
18.435000,-0.0713,2.4851,4.8184,5.422
18.440000,0.0188,2.6029,4.7393,5.407
18.446000,-0.0050,2.6608,4.6644,5.370
18.450000,-0.0899,2.6782,4.5244,5.258
18.455000,-0.1228,2.7487,4.2833,5.091
18.460000,-0.1847,2.8678,4.0533,4.969
18.468000,-0.2539,2.9377,3.8628,4.860
18.471000,-0.2232,2.9493,3.6542,4.701
18.537000,-0.2291,2.9125,3.3745,4.463
18.537000,-0.2022,2.8542,3.1408,4.249
18.538000,-0.0928,2.8206,2.7681,3.953
18.538000,0.0078,2.7811,2.3256,3.625
18.539000,0.0013,2.7032,1.9323,3.323
18.539000,-0.0435,2.6069,1.5968,3.057
18.539000,-0.1271,2.5097,1.4430,2.898
18.540000,-0.1828,2.3046,1.4701,2.740
18.540000,-0.2614,2.0755,1.6109,2.640
18.540000,-0.2589,1.8051,1.8824,2.621
18.540000,-0.1669,1.5476,2.3687,2.834
18.541000,0.0286,1.2926,2.9078,3.182
18.541000,0.2228,1.0605,3.4907,3.655
18.541000,0.5557,0.8235,4.1809,4.297
18.546000,0.9463,0.6065,4.7329,4.865
18.549000,1.2091,0.4508,4.9355,5.101
18.555000,1.3642,0.2195,4.9616,5.150
18.559000,1.4084,-0.0210,4.8286,5.030
18.564000,1.4977,-0.0843,4.6014,4.840
18.569000,1.5231,-0.0781,4.2514,4.517
18.577000,1.4806,-0.0982,3.9269,4.198
18.579000,1.4189,-0.1301,3.5346,3.811
18.584000,1.2926,-0.1639,2.9573,3.232
18.589000,1.1804,-0.2204,2.2256,2.529
18.647000,1.0625,-0.3060,1.4208,1.800
18.648000,0.9399,-0.4507,0.5945,1.200
18.648000,0.7400,-0.5223,-0.0718,0.909
18.649000,0.5599,-0.5677,-0.6197,1.010
18.649000,0.3988,-0.6152,-1.1144,1.334
18.649000,0.1798,-0.6479,-1.6109,1.746
18.649000,0.0193,-0.6889,-2.2631,2.366
18.650000,0.0004,-0.7739,-2.8605,2.963
18.650000,-0.0280,-0.8207,-3.2557,3.358
18.650000,-0.0179,-0.9364,-3.7051,3.822
18.651000,0.0476,-1.0922,-4.1610,4.302
18.651000,0.1134,-1.1894,-4.4062,4.565
18.655000,0.1823,-1.2494,-4.6110,4.781
18.661000,0.2211,-1.3753,-4.7825,4.981
18.663000,0.2822,-1.5262,-4.7152,4.964
18.669000,0.3352,-1.6499,-4.5644,4.865
18.674000,0.3686,-1.7899,-4.4183,4.781
18.678000,0.4088,-1.8559,-4.3268,4.726
18.683000,0.4056,-1.9965,-4.1221,4.598
18.688000,0.4141,-2.1383,-3.8252,4.402
18.745000,0.4564,-2.2435,-3.6104,4.275
18.746000,0.5111,-2.3198,-3.4246,4.168
18.746000,0.5595,-2.3822,-3.2363,4.057
18.746000,0.5517,-2.4595,-3.2053,4.078
18.747000,0.5668,-2.5090,-3.1568,4.072
18.747000,0.5527,-2.5211,-3.0812,4.019
18.747000,0.5455,-2.5512,-2.9903,3.968
18.748000,0.5261,-2.5634,-2.9008,3.907
18.748000,0.3724,-2.5173,-2.7456,3.743
18.748000,0.2544,-2.4631,-2.6156,3.602
18.749000,0.2100,-2.3748,-2.5107,3.462
18.749000,0.2051,-2.3194,-2.3997,3.344
18.754000,0.1531,-2.3186,-2.3996,3.340
18.760000,-0.0537,-2.3030,-2.4243,3.344
18.764000,-0.2154,-2.2865,-2.4716,3.374
18.769000,-0.2701,-2.1829,-2.4078,3.261
18.774000,-0.3261,-2.1021,-2.3646,3.181
