time,ax,ay,az,aT
60.357000,-0.1740,0.0675,-0.1495,0.239
60.363000,-0.1986,0.0295,-0.2549,0.324
60.367000,-0.1735,0.0634,-0.2932,0.347
60.373000,-0.2016,0.1047,-0.1954,0.300
60.377000,-0.1439,0.1151,-0.1170,0.218
60.382000,-0.0888,0.1113,0.0091,0.143
60.389000,-0.0410,0.1049,0.0730,0.134
60.392000,-0.0389,0.0626,0.0340,0.081
60.397000,-0.0201,0.0798,0.0312,0.088
60.402000,0.0246,0.1294,0.0757,0.152
60.406000,0.0594,0.1476,0.1200,0.199
60.411000,0.0441,0.1489,0.1688,0.229
60.416000,0.0505,0.1311,0.2125,0.255
60.422000,0.0263,0.1013,0.2678,0.288
60.426000,-0.0215,0.0649,0.2893,0.297
60.431000,-0.0476,0.0186,0.3015,0.306
60.437000,-0.0999,-0.0185,0.2996,0.316
60.443000,-0.0899,-0.0079,0.3027,0.316
60.446000,-0.0797,0.0047,0.2247,0.238
60.452000,-0.1410,0.0002,0.1710,0.222
60.456000,-0.1758,0.0146,0.0816,0.194
60.461000,-0.1581,0.0194,-0.0483,0.166
60.467000,-0.1958,0.0096,-0.1564,0.251
60.473000,-0.1979,-0.0097,-0.2690,0.334
60.477000,-0.1764,0.0023,-0.3195,0.365
60.482000,-0.1769,0.0646,-0.3939,0.437
60.487000,-0.1228,0.0745,-0.4731,0.494
60.491000,-0.0620,0.0728,-0.4736,0.483
60.496000,0.0150,0.1456,-0.4338,0.458
60.500000,0.0466,0.1686,-0.3489,0.390
60.505000,0.1404,0.2037,-0.2356,0.342
60.511000,0.1723,0.1792,-0.1585,0.295
60.516000,0.1376,0.1788,-0.1294,0.260
60.520000,0.0915,0.1546,-0.1483,0.233
60.525000,0.0267,0.1041,-0.1481,0.183
60.530000,-0.0066,0.0586,-0.1838,0.193
60.535000,-0.0134,0.0468,-0.1694,0.176
60.540000,0.0108,0.0543,-0.1958,0.203
60.545000,-0.0177,0.0620,-0.1601,0.173
60.552000,-0.0295,0.0266,-0.0456,0.060
60.555000,-0.0533,-0.0040,0.0377,0.065
60.566000,-0.0412,-0.0013,0.1092,0.117
60.566000,-0.0555,-0.0348,0.0517,0.083
60.570000,-0.0651,-0.0111,0.0040,0.066
60.575000,-0.0702,-0.0139,-0.0292,0.077
60.580000,0.0033,0.0001,0.0286,0.029
60.587000,0.0815,0.0764,0.1722,0.205
60.592000,0.1432,0.0928,0.2966,0.342
60.597000,0.1697,0.0969,0.3420,0.394
60.600000,0.1157,0.0720,0.3374,0.364
60.605000,0.0217,0.0302,0.2708,0.273
60.612000,-0.0810,0.0241,0.1589,0.180
60.615000,-0.1380,-0.0181,0.0592,0.151
60.622000,-0.1636,-0.0145,-0.0548,0.173
60.635000,-0.1793,0.0108,-0.1689,0.247
60.635000,-0.1973,-0.0280,-0.2402,0.312
60.635000,-0.2033,-0.0353,-0.2447,0.320
60.640000,-0.1735,-0.0399,-0.2709,0.324
60.644000,-0.1728,-0.0107,-0.2352,0.292
60.649000,-0.1915,-0.0343,-0.2376,0.307
60.655000,-0.2082,-0.0411,-0.2304,0.313
60.659000,-0.0987,-0.0002,-0.3236,0.338
60.665000,-0.0569,-0.0095,-0.3331,0.338
60.671000,-0.0346,0.0076,-0.2803,0.283
60.681000,-0.0028,-0.0014,-0.2350,0.235
60.681000,0.0218,-0.0009,-0.1681,0.170
60.684000,0.0873,0.0091,-0.1420,0.167
60.691000,0.1453,0.1574,-0.2112,0.301
60.696000,0.0688,0.2594,-0.1532,0.309
60.700000,-0.0572,0.0219,-0.2698,0.277
60.704000,-0.0439,-0.2457,-0.3702,0.446
60.709000,0.0218,-0.1679,-0.2963,0.341
60.714000,0.0113,-0.0230,-0.3543,0.355
60.719000,-0.0256,0.1288,-0.4002,0.421
60.724000,-0.0105,0.2330,-0.3005,0.380
60.729000,-0.0652,0.1818,-0.2033,0.280
60.733000,-0.0651,0.0469,-0.1398,0.161
60.739000,-0.0580,-0.0304,-0.0261,0.070
60.744000,-0.0437,-0.0672,0.0686,0.106
60.748000,-0.0435,-0.0511,0.0908,0.113
60.754000,-0.0815,0.0146,0.0726,0.110
60.758000,-0.1101,0.0413,0.0643,0.134
60.763000,-0.1461,0.0700,0.1322,0.209
60.768000,-0.1179,0.0651,0.1879,0.231
60.773000,-0.1024,0.0197,0.1972,0.223
60.779000,-0.0890,-0.0137,0.2328,0.250
60.783000,-0.1328,-0.0304,0.2110,0.251
60.788000,-0.1786,-0.0496,0.1702,0.252
60.795000,-0.1836,-0.0330,0.1558,0.243
60.799000,-0.1648,-0.0043,0.1078,0.197
60.803000,-0.1028,0.0410,0.1532,0.189
60.809000,-0.0336,0.0670,0.1772,0.192
60.813000,-0.0048,0.0571,0.1197,0.133
60.819000,0.0075,0.0376,0.0313,0.049
60.823000,-0.0282,0.0276,0.0315,0.051
60.829000,-0.0686,0.0319,0.0247,0.080
60.834000,-0.0278,0.0432,0.0514,0.073
60.841000,0.0032,0.0543,0.0591,0.080
60.843000,0.0148,0.0554,0.0336,0.067
60.849000,0.0380,0.0868,-0.0652,0.115
60.853000,0.0276,0.0868,-0.1181,0.149
60.858000,0.0268,0.0678,-0.2061,0.219
60.863000,0.0117,0.0799,-0.2483,0.261
60.868000,0.0324,0.1087,-0.2712,0.294
60.872000,0.0838,0.0948,-0.3179,0.342
60.877000,0.0707,0.1122,-0.3811,0.404
60.883000,0.0603,0.1253,-0.3445,0.371
60.889000,0.0501,0.1456,-0.3250,0.360
60.894000,0.0906,0.1313,-0.2961,0.336
60.898000,0.1121,0.1269,-0.2650,0.314
60.903000,0.1218,0.1417,-0.2246,0.292
60.909000,0.0980,0.1423,-0.2033,0.267
60.913000,0.0998,0.1300,-0.1642,0.232
60.919000,0.1229,0.1367,-0.1539,0.240
60.924000,0.1338,0.1149,-0.0866,0.196
60.929000,0.1244,0.1057,-0.1013,0.192
60.932000,0.1198,0.0820,-0.1038,0.178
60.940000,0.0954,0.0578,-0.1483,0.186
60.945000,0.0712,0.0529,-0.1521,0.176
60.947000,0.0235,0.0814,-0.1558,0.177
60.957000,0.0332,0.0835,-0.1620,0.185
60.959000,-0.0094,0.0834,-0.1849,0.203
60.967000,-0.0324,0.0907,-0.1698,0.195
60.968000,-0.0245,0.0387,-0.1786,0.184
60.976000,-0.0167,0.0539,-0.1117,0.125
60.978000,0.0291,0.0241,-0.0477,0.061
60.987000,0.0510,0.0730,0.0155,0.090
60.989000,0.0376,0.0978,0.0283,0.108
60.993000,0.0056,0.0084,0.0148,0.018
60.998000,-0.0139,0.0027,0.0064,0.016
61.007000,-0.0474,0.0159,0.0290,0.058
61.009000,-0.0855,-0.0091,-0.0316,0.092
61.012000,-0.0810,0.0110,-0.0987,0.128
61.020000,-0.1053,-0.0002,-0.1531,0.186
61.023000,-0.1275,-0.0112,-0.1691,0.212
61.027000,-0.1570,-0.0364,-0.1897,0.249
61.032000,-0.1818,-0.0615,-0.1626,0.251
61.038000,-0.1855,-0.0531,-0.1617,0.252
61.044000,-0.1351,-0.0473,-0.1751,0.226
61.046000,-0.1257,-0.0414,-0.1694,0.215
61.052000,-0.1165,0.0169,-0.1211,0.169
61.062000,-0.0764,0.0155,-0.0806,0.112
61.064000,-0.0197,0.0072,0.0164,0.027
61.069000,0.0440,0.0348,0.0912,0.107
61.073000,0.1007,0.0694,0.1723,0.211
61.077000,0.1455,0.0989,0.3026,0.350
61.086000,0.1263,0.1301,0.3157,0.364
61.087000,0.1053,0.0729,0.3005,0.327
61.097000,0.0419,0.0775,0.2145,0.232
61.099000,0.0099,0.0628,0.1152,0.132
61.102000,-0.0625,0.0528,0.0406,0.091
61.108000,-0.0846,0.0571,0.0070,0.102
61.116000,-0.0593,0.0330,0.0020,0.068
61.117000,-0.0558,0.0376,0.0470,0.082
61.122000,-0.0121,0.0304,0.0773,0.084
61.128000,-0.0023,0.0635,0.1454,0.159
61.132000,-0.0115,0.0653,0.1276,0.144
61.141000,0.0054,0.0670,0.0815,0.106
61.143000,-0.0137,0.0755,0.0527,0.093
61.151000,0.0077,0.0458,-0.0423,0.063
61.152000,0.0360,0.0661,-0.1079,0.132
61.160000,0.0451,0.1028,-0.1753,0.208
61.162000,0.0755,0.1298,-0.2493,0.291
61.169000,0.0842,0.1306,-0.2706,0.312
61.170000,0.0739,0.1220,-0.2705,0.306
61.176000,0.0946,0.1659,-0.2918,0.349
61.182000,0.0586,0.1337,-0.2443,0.285
61.188000,0.0324,0.1375,-0.2495,0.287
61.191000,0.0066,0.1225,-0.2406,0.270
61.197000,-0.0071,0.1031,-0.1750,0.203
61.205000,-0.0655,0.0485,-0.1790,0.197
61.207000,-0.0782,0.0467,-0.2044,0.224
61.213000,-0.0743,0.0474,-0.2344,0.250
61.217000,-0.0733,0.0364,-0.2002,0.216
61.221000,-0.0755,0.0374,-0.1710,0.191
61.226000,-0.0380,0.0694,-0.0495,0.093
61.233000,-0.0011,0.1082,0.0852,0.138
61.235000,0.0637,0.1226,0.1597,0.211
61.241000,0.0853,0.1105,0.2267,0.266
61.246000,0.0923,0.1076,0.2626,0.298
61.251000,0.0852,0.0947,0.2582,0.288
61.256000,0.0639,0.0650,0.2825,0.297
61.261000,0.0290,0.0591,0.2545,0.263
61.265000,-0.0027,0.0318,0.2364,0.239
61.271000,-0.0432,-0.0073,0.2208,0.225
61.276000,-0.0427,-0.0059,0.1176,0.125
61.281000,-0.0611,-0.0140,0.0296,0.069
61.285000,-0.0700,-0.0270,-0.0267,0.080
61.291000,-0.0553,0.0217,-0.1489,0.160
61.295000,-0.0625,0.0629,-0.2416,0.257
61.300000,0.0059,0.0517,-0.2719,0.277
61.306000,0.0827,0.0693,-0.2024,0.229
61.310000,0.1232,0.0870,-0.0837,0.172
61.316000,0.1516,0.1116,0.0435,0.193
61.321000,0.1303,0.0883,0.1270,0.202
61.325000,0.0597,0.0651,0.1149,0.145
61.332000,-0.0076,0.0584,0.0224,0.063
61.335000,-0.0579,0.0114,-0.0408,0.072
61.340000,-0.1007,-0.0279,-0.0442,0.114
61.345000,-0.0982,-0.0145,-0.1095,0.148
61.350000,-0.0317,-0.0129,-0.1388,0.143
61.355000,0.0557,0.0271,-0.1348,0.148
61.360000,0.0926,0.0386,-0.0528,0.113
61.366000,0.0891,0.0574,0.0757,0.130
61.370000,0.1431,0.0668,0.1366,0.209
61.375000,0.1471,0.0427,0.2207,0.269
61.380000,0.1419,0.0352,0.2854,0.321
61.385000,0.0895,-0.0106,0.2144,0.233
61.392000,0.0589,-0.0612,0.1395,0.163
61.394000,-0.0071,-0.0594,0.0632,0.087
61.400000,-0.0205,-0.0223,0.0257,0.040
61.404000,-0.0507,-0.0452,-0.0729,0.100
61.410000,-0.0667,-0.0587,-0.1515,0.176
61.415000,-0.0759,-0.0344,-0.2435,0.257
61.420000,-0.0947,-0.0314,-0.3135,0.329
61.424000,-0.0924,-0.0426,-0.3046,0.321
61.430000,-0.0713,-0.0441,-0.3363,0.347
61.434000,-0.0409,-0.0381,-0.3346,0.339
61.440000,-0.0582,-0.0081,-0.3783,0.383
61.444000,-0.1015,0.0244,-0.3888,0.403
61.450000,-0.0898,0.0050,-0.4163,0.426
61.454000,-0.0956,-0.0187,-0.3823,0.395
61.459000,-0.0774,0.0033,-0.3487,0.357
61.464000,-0.0666,0.0090,-0.3202,0.327
61.469000,-0.0249,-0.0282,-0.2560,0.259
61.474000,0.0454,0.0137,-0.1729,0.179
61.479000,0.0777,0.0153,-0.1116,0.137
61.484000,0.0838,0.0503,-0.0433,0.107
61.490000,0.1306,0.0444,0.0609,0.151
61.494000,0.1297,0.0312,0.1270,0.184
61.499000,0.1255,0.0293,0.1420,0.192
61.504000,0.1190,0.0271,0.1168,0.169
61.509000,0.0127,0.0197,0.1040,0.107
61.514000,-0.0120,-0.0165,0.0465,0.051
61.519000,-0.0487,-0.0145,-0.0176,0.054
61.524000,-0.0829,-0.0387,-0.0050,0.092
61.529000,-0.0790,-0.0129,-0.0638,0.102
61.536000,-0.1276,0.0103,-0.1315,0.183
61.541000,-0.1473,0.0097,-0.1584,0.217
61.547000,-0.0935,0.0331,-0.1924,0.216
61.549000,-0.1234,0.0234,-0.1433,0.191
61.559000,-0.0794,0.0450,-0.1067,0.140
61.560000,-0.0499,0.0737,-0.0777,0.118
61.567000,-0.0560,0.0739,-0.0847,0.126
61.570000,-0.0620,0.0624,-0.0610,0.107
61.581000,-0.0134,0.0676,0.0101,0.070
61.582000,0.0516,0.0773,0.0878,0.128
61.583000,0.0592,0.0988,0.1341,0.177
61.588000,0.0764,0.0866,0.1564,0.194
61.595000,0.1031,0.0909,0.1763,0.224
61.599000,0.1082,0.1021,0.1154,0.188
61.607000,0.0850,0.1084,0.1240,0.185
61.608000,0.0548,0.1050,0.1231,0.171
61.614000,-0.0108,0.0803,0.1174,0.143
61.619000,-0.0637,0.0464,0.1568,0.176
61.627000,-0.0662,-0.0181,0.2102,0.221
61.629000,-0.0542,0.0104,0.2371,0.243
61.633000,0.0075,0.0290,0.2235,0.226
61.643000,-0.0002,0.0448,0.2434,0.248
61.644000,0.0233,0.0652,0.2467,0.256
61.649000,0.0897,0.0449,0.2262,0.247
61.653000,0.1060,0.0580,0.2700,0.296
61.663000,0.1036,0.0589,0.2305,0.259
61.664000,0.0352,0.0098,0.1890,0.192
61.668000,-0.0253,0.0321,0.1385,0.144
61.677000,-0.0378,-0.0124,0.0316,0.051
61.678000,-0.0670,-0.0210,-0.0578,0.091
61.682000,-0.0986,-0.0034,-0.1155,0.152
61.691000,-0.1255,-0.0216,-0.1609,0.205
61.693000,-0.1098,-0.0134,-0.1607,0.195
61.697000,-0.1064,-0.0291,-0.1867,0.217
61.707000,-0.1391,-0.0850,-0.1816,0.244
61.708000,-0.1364,-0.0716,-0.2382,0.284
61.713000,-0.1151,-0.0442,-0.2515,0.280
61.722000,-0.0469,-0.0240,-0.2505,0.256
61.724000,-0.0198,-0.0110,-0.2544,0.255
61.728000,0.0166,0.0093,-0.2537,0.254
61.736000,0.0459,0.0180,-0.2533,0.258
61.739000,0.0347,0.0125,-0.2150,0.218
61.744000,0.0711,-0.0117,-0.1915,0.205
61.747000,0.0980,0.0380,-0.1897,0.217
61.756000,0.1531,0.0566,-0.1690,0.235
61.761000,0.2009,0.0491,-0.0822,0.223
61.762000,0.2417,0.0464,0.0276,0.248
61.771000,0.2827,0.0320,0.0795,0.295
61.773000,0.2454,0.0127,0.1216,0.274
61.777000,0.1875,0.0146,0.0757,0.203
61.782000,0.1063,-0.0385,-0.0835,0.141
61.791000,0.0469,-0.0341,-0.2224,0.230
61.793000,-0.0005,-0.0488,-0.2200,0.225
61.797000,-0.0220,-0.0345,-0.1870,0.191
61.806000,-0.0033,-0.0392,-0.1521,0.157
61.808000,-0.0346,-0.0460,-0.0796,0.098
61.812000,-0.0920,-0.0597,-0.0505,0.121
61.818000,-0.1228,-0.0331,-0.0358,0.132
61.826000,-0.1582,-0.0589,-0.0497,0.176
61.829000,-0.1555,-0.0562,-0.1250,0.207
61.831000,-0.1126,-0.0655,-0.1523,0.200
61.840000,-0.0822,-0.0153,-0.2173,0.233
61.842000,-0.0334,0.0109,-0.2675,0.270
61.851000,-0.0184,0.0274,-0.2914,0.293
61.852000,0.0294,0.0441,-0.2771,0.282
61.860000,0.0861,0.0845,-0.2608,0.287
61.862000,0.1185,0.1011,-0.1522,0.218
61.870000,0.1485,0.1341,-0.1157,0.231
61.873000,0.1474,0.1124,-0.0344,0.189
61.876000,0.1489,0.1122,0.0485,0.193
61.885000,0.1744,0.0834,0.0856,0.211
61.887000,0.1907,0.0857,0.1296,0.246
61.892000,0.1288,0.0903,0.1258,0.201
61.900000,0.1107,0.0783,0.1432,0.197
61.902000,0.0314,0.0643,0.1295,0.148
61.905000,-0.0184,0.0150,0.1513,0.153
61.912000,-0.0532,-0.0055,0.1516,0.161
61.920000,-0.1043,0.0098,0.1353,0.171
61.921000,-0.1148,-0.0128,0.2021,0.233
61.928000,-0.1251,0.0001,0.2353,0.266
61.930000,-0.0973,-0.0135,0.2803,0.297
61.940000,-0.1007,-0.0345,0.3133,0.331
61.942000,-0.1042,-0.0343,0.2728,0.294
61.947000,-0.1648,-0.0489,0.2021,0.265
61.950000,-0.1731,-0.0402,0.1016,0.205
61.961000,-0.1296,0.0059,-0.0119,0.130
61.968000,-0.1013,-0.0149,-0.0792,0.129
61.968000,-0.0877,0.0215,-0.0984,0.134
61.975000,-0.0507,0.0363,-0.0868,0.107
61.976000,-0.0018,0.0227,-0.0897,0.093
61.982000,0.0089,0.0309,-0.0690,0.076
61.986000,0.0105,0.0845,-0.0797,0.117
61.996000,-0.0183,0.0452,-0.0596,0.077
61.997000,-0.0702,0.0161,-0.0589,0.093
62.001000,-0.0952,0.0397,-0.0679,0.123
62.009000,-0.1150,0.0183,-0.0557,0.129
62.011000,-0.1368,-0.0312,-0.0795,0.161
62.017000,-0.0966,-0.0564,-0.0628,0.128
62.020000,-0.1091,-0.0789,-0.0344,0.139
62.026000,-0.0768,-0.0515,0.0200,0.095
62.030000,-0.0524,-0.0435,0.0100,0.069
62.037000,-0.0760,-0.0431,0.0336,0.094
62.041000,-0.0644,-0.0525,-0.0068,0.083
62.045000,-0.0248,-0.0527,0.0579,0.082
62.060000,-0.0001,-0.0577,0.0486,0.075
62.061000,0.0412,-0.0675,0.0299,0.085
62.061000,0.0394,-0.0703,0.0020,0.081
62.066000,0.0663,-0.0448,0.0172,0.082
62.069000,0.0459,-0.0003,-0.0059,0.046
62.074000,0.0758,-0.0225,-0.0408,0.089
62.080000,0.0868,0.0054,-0.0636,0.108
66.806000,0.0617,0.0142,-0.1552,0.168
66.807000,0.0530,0.0258,-0.2631,0.270
66.807000,0.0042,-0.0049,-0.2850,0.285
66.807000,-0.0251,-0.0066,-0.2595,0.261
66.808000,-0.0162,-0.0079,-0.2036,0.204
66.808000,-0.0216,-0.0186,-0.1174,0.121
66.808000,-0.0247,-0.0244,-0.1150,0.120
66.808000,-0.0661,-0.0303,-0.1433,0.161
66.809000,-0.0931,-0.0599,-0.1715,0.204
66.809000,-0.1275,-0.0705,-0.1659,0.221
66.809000,-0.1074,-0.0715,-0.1295,0.183
66.810000,-0.0737,-0.0488,-0.0815,0.120
66.810000,-0.0216,-0.0002,-0.0457,0.051
66.811000,-0.0081,0.0171,-0.0601,0.063
66.811000,0.0432,-0.0110,0.0018,0.045
66.811000,0.0229,0.0252,-0.0127,0.036
66.811000,0.0241,0.0042,-0.0439,0.050
66.812000,0.0704,0.0191,-0.0772,0.106
66.812000,0.0971,0.0624,-0.0700,0.135
66.812000,0.1213,0.0582,-0.0061,0.135
66.812000,0.1529,0.0803,0.0619,0.183
66.813000,0.1967,0.0880,0.1316,0.253
66.813000,0.2077,0.0792,0.1579,0.273
66.814000,0.1666,0.0704,0.2576,0.315
66.814000,0.1332,0.0662,0.3590,0.389
66.814000,0.1191,0.0664,0.3411,0.367
66.814000,0.0935,0.0591,0.3687,0.385
66.815000,0.0348,0.0563,0.3133,0.320
66.815000,-0.0257,0.0415,0.2680,0.272
66.815000,-0.0906,0.0074,0.2494,0.265
66.815000,-0.1194,0.0211,0.2002,0.234
66.816000,-0.1196,-0.0060,0.1397,0.184
66.816000,-0.1462,-0.0186,0.0964,0.176
66.817000,-0.1372,-0.0456,0.0560,0.155
66.817000,-0.1192,-0.0062,0.0043,0.119
66.817000,-0.1135,0.0042,-0.0895,0.145
66.817000,-0.1081,-0.0044,-0.1874,0.216
66.818000,-0.0699,0.0132,-0.2607,0.270
66.818000,-0.0370,0.0143,-0.3146,0.317
66.819000,0.0286,0.0276,-0.3207,0.323
66.819000,0.1435,0.0719,-0.3009,0.341
66.819000,0.1839,0.0924,-0.2246,0.305
66.820000,0.2431,0.1224,-0.1585,0.315
66.821000,0.2641,0.1262,-0.0812,0.304
66.821000,0.2593,0.1348,0.0310,0.294
66.822000,0.2550,0.1218,-0.0073,0.283
66.822000,0.1990,0.0971,-0.0477,0.227
66.822000,0.1294,0.0583,-0.0877,0.167
66.822000,0.0985,0.0390,-0.0634,0.123
66.823000,0.0962,0.0626,-0.0702,0.135
66.823000,0.0775,0.0434,-0.0319,0.094
66.824000,0.0706,0.0220,0.0867,0.114
66.824000,0.0639,0.0530,0.0976,0.128
66.824000,0.0049,0.0028,0.1299,0.130
66.824000,-0.0369,-0.0235,0.0980,0.107
66.824000,-0.0763,-0.0238,0.0667,0.104
66.825000,-0.0539,-0.0123,0.0120,0.057
66.825000,-0.0178,0.0133,-0.0185,0.029
66.825000,-0.0368,0.0150,-0.0369,0.054
66.825000,-0.0271,-0.0212,-0.0338,0.048
66.826000,0.0135,0.0000,0.0094,0.016
66.826000,0.0112,-0.0215,-0.0000,0.024
66.826000,-0.0597,-0.0452,-0.0142,0.076
66.826000,-0.0825,-0.0450,-0.0259,0.097
66.827000,-0.0956,-0.0494,-0.1016,0.148
66.827000,-0.0612,-0.0561,-0.1198,0.146
66.827000,-0.0463,-0.0079,-0.0644,0.080
66.827000,0.0373,-0.0052,0.0309,0.049
66.827000,0.0944,0.0166,0.1158,0.150
66.828000,0.0803,-0.0141,0.1881,0.205
66.828000,0.0574,-0.0067,0.1792,0.188
66.828000,-0.0458,-0.0803,0.1255,0.156
66.828000,-0.1029,-0.1131,0.0391,0.158
66.828000,-0.1645,-0.1363,-0.0798,0.228
66.829000,-0.1927,-0.1473,-0.1715,0.297
66.829000,-0.2330,-0.1415,-0.1748,0.324
66.829000,-0.2119,-0.1618,-0.2207,0.346
66.829000,-0.1843,-0.1605,-0.1429,0.283
66.830000,-0.1192,-0.1141,-0.0965,0.191
66.830000,-0.1545,-0.1014,-0.1264,0.224
66.830000,-0.1327,-0.0724,-0.1963,0.248
66.831000,-0.1045,-0.0652,-0.3224,0.345
66.831000,-0.1409,-0.0649,-0.4334,0.460
66.831000,-0.1467,-0.0477,-0.5080,0.531
66.831000,-0.1124,-0.0564,-0.5491,0.563
66.832000,-0.0764,-0.0455,-0.5190,0.527
66.832000,-0.0198,0.0039,-0.4429,0.443
66.832000,0.0629,0.0441,-0.2619,0.273
66.833000,0.1410,0.0894,-0.1054,0.197
66.833000,0.1909,0.1181,-0.0091,0.225
66.834000,0.2320,0.1399,0.1467,0.308
66.834000,0.2764,0.1043,0.2782,0.406
66.835000,0.2496,0.1190,0.3642,0.457
66.836000,0.2019,0.0881,0.4429,0.495
66.836000,0.1813,0.1120,0.4404,0.489
66.836000,0.1183,0.0736,0.4164,0.439
66.836000,0.0531,0.0469,0.3807,0.387
66.836000,-0.0478,0.0367,0.3309,0.336
66.837000,-0.0821,0.0119,0.2695,0.282
66.837000,-0.1072,-0.0011,0.2847,0.304
66.837000,-0.1113,-0.0167,0.2978,0.318
66.837000,-0.0989,0.0105,0.3470,0.361
66.838000,-0.0605,0.0397,0.3175,0.326
66.838000,-0.0173,0.0374,0.3145,0.317
66.838000,-0.0032,0.0732,0.2520,0.262
66.838000,0.0156,0.0895,0.2233,0.241
66.838000,0.0248,0.0675,0.1611,0.176
66.839000,0.0580,0.0742,0.1325,0.163
66.839000,0.0674,0.0761,0.0992,0.142
66.839000,0.0868,0.0852,0.0396,0.128
66.839000,0.1058,0.1159,0.0326,0.160
66.840000,0.1726,0.1180,0.1307,0.247
66.840000,0.2445,0.1486,0.2312,0.368
66.840000,0.2951,0.1528,0.3962,0.517
66.840000,0.3104,0.1469,0.4154,0.539
66.840000,0.2497,0.1575,0.3081,0.427
66.841000,0.1633,0.1365,0.1678,0.271
66.841000,0.0889,0.1177,-0.0104,0.148
66.841000,0.0190,0.1037,-0.1143,0.155
66.841000,0.0039,0.1043,-0.1607,0.192
66.841000,0.0217,0.0884,-0.2360,0.253
66.842000,0.0393,0.1064,-0.2684,0.291
66.842000,0.0615,0.0815,-0.2244,0.247
66.842000,0.1004,0.0928,-0.1448,0.199
66.842000,0.1371,0.0590,-0.0274,0.152
66.843000,0.1455,0.0708,0.0850,0.183
66.843000,0.1113,0.0372,0.1949,0.228
66.843000,0.0969,-0.0112,0.1495,0.178
66.843000,0.0352,-0.0621,0.0636,0.096
66.844000,-0.0262,-0.0699,-0.0556,0.093
66.844000,-0.1402,-0.0823,-0.1605,0.228
66.844000,-0.2040,-0.1163,-0.2939,0.376
66.844000,-0.1701,-0.0974,-0.3388,0.391
66.844000,-0.1131,-0.0833,-0.3644,0.391
66.845000,-0.0879,-0.0597,-0.3661,0.381
66.845000,-0.0279,-0.0312,-0.3176,0.320
66.845000,0.0244,-0.0004,-0.2500,0.251
66.845000,0.0836,0.0160,-0.1801,0.199
66.846000,0.1138,0.0348,-0.0839,0.146
66.846000,0.0914,-0.0039,-0.0380,0.099
66.846000,0.0478,-0.0233,0.0244,0.059
66.847000,-0.0002,-0.0618,0.0389,0.073
66.847000,-0.0739,-0.0592,0.0197,0.097
66.847000,-0.0968,-0.0898,0.0288,0.135
66.847000,-0.1527,-0.1344,0.0545,0.211
66.848000,-0.1844,-0.1380,0.0631,0.239
66.848000,-0.1561,-0.1055,0.1027,0.215
66.848000,-0.0846,-0.1019,0.1398,0.193
66.848000,-0.0946,-0.0840,0.0982,0.160
66.848000,-0.0738,-0.0329,0.1213,0.146
66.849000,-0.0774,-0.0539,0.1279,0.159
66.849000,-0.0718,-0.0347,0.0990,0.127
66.849000,-0.0523,-0.0445,0.0560,0.089
66.849000,-0.0738,-0.0500,-0.0200,0.091
66.849000,-0.0839,-0.0676,-0.0694,0.128
66.850000,-0.0417,-0.0660,-0.1069,0.132
66.850000,-0.0019,-0.0332,-0.1205,0.125
66.850000,0.0545,-0.0146,-0.0242,0.061
66.850000,0.0539,0.0328,0.1101,0.127
66.850000,0.0683,0.0443,0.1892,0.206
66.851000,0.0594,0.0032,0.1797,0.189
66.851000,0.0464,-0.0069,0.1009,0.111
66.851000,-0.0281,-0.0192,-0.0183,0.039
66.851000,-0.0759,0.0043,-0.0536,0.093
66.851000,-0.1187,0.0205,-0.1123,0.165
66.852000,-0.1639,-0.0059,-0.1232,0.205
66.852000,-0.1452,-0.0297,-0.1387,0.203
66.852000,-0.1675,-0.0248,-0.1493,0.226
66.852000,-0.1427,-0.0105,-0.1765,0.227
66.852000,-0.1542,0.0061,-0.1487,0.214
66.852000,-0.1282,0.0012,-0.1308,0.183
66.853000,-0.0719,0.0083,-0.1652,0.180
66.853000,-0.0542,0.0416,-0.1948,0.206
66.853000,0.0083,0.0562,-0.1318,0.144
66.853000,0.0848,0.0829,-0.0769,0.141
66.853000,0.1209,0.1003,-0.0464,0.164
66.854000,0.1928,0.1486,-0.0022,0.243
66.854000,0.2479,0.1706,0.1080,0.320
66.854000,0.2580,0.1877,0.2220,0.389
66.854000,0.2683,0.2210,0.3019,0.460
66.854000,0.2623,0.1825,0.3790,0.496
66.855000,0.2258,0.1344,0.4131,0.490
66.855000,0.1448,0.1193,0.4141,0.455
66.855000,0.0693,0.0589,0.3466,0.358
66.855000,0.0182,0.0579,0.2704,0.277
66.855000,-0.0705,0.0352,0.2283,0.242
66.856000,-0.1252,0.0055,0.1392,0.187
66.856000,-0.1394,0.0140,0.0604,0.153
66.856000,-0.1416,-0.0204,0.0250,0.145
66.857000,-0.1701,-0.0259,-0.0481,0.179
66.857000,-0.1298,-0.0386,-0.1111,0.175
66.857000,-0.1303,-0.0178,-0.1760,0.220
66.857000,-0.0883,-0.0255,-0.2286,0.246
66.857000,-0.0470,0.0240,-0.3022,0.307
66.857000,0.0033,0.0666,-0.3015,0.309
66.858000,0.0460,0.0472,-0.2938,0.301
66.858000,0.0575,0.0446,-0.2885,0.298
66.858000,0.0639,0.0542,-0.3265,0.337
66.858000,0.0844,0.0664,-0.2784,0.298
66.858000,0.0830,0.1148,-0.2307,0.271
66.859000,0.1297,0.1298,-0.0708,0.197
66.859000,0.2031,0.1116,0.1604,0.282
66.859000,0.2317,0.0933,0.3293,0.413
66.859000,0.1845,0.0747,0.3379,0.392
66.859000,0.1165,0.0105,0.3155,0.337
66.860000,-0.0156,-0.0133,0.2097,0.211
66.860000,-0.1328,-0.0563,0.1113,0.182
66.860000,-0.2263,-0.1087,-0.0373,0.254
66.860000,-0.2246,-0.1226,-0.1045,0.276
66.860000,-0.2261,-0.1555,-0.1071,0.295
66.861000,-0.1567,-0.1092,-0.0548,0.199
66.861000,-0.0518,-0.0700,0.1909,0.210
66.861000,0.0484,-0.0356,0.4411,0.445
66.861000,0.1561,-0.0423,0.6458,0.666
66.861000,0.1397,-0.0305,0.7217,0.736
66.861000,0.1073,-0.0411,0.6140,0.625
66.862000,0.0037,-0.0763,0.3946,0.402
66.862000,-0.1142,-0.0882,0.1734,0.226
66.862000,-0.1508,-0.1097,-0.0425,0.191
66.862000,-0.1446,-0.1194,-0.1529,0.242
66.862000,-0.1984,-0.1096,-0.3063,0.381
66.863000,-0.1857,-0.0565,-0.4072,0.451
66.863000,-0.2019,-0.0557,-0.4915,0.534
66.863000,-0.2136,-0.0520,-0.5498,0.592
66.863000,-0.2015,-0.0574,-0.5845,0.621
66.863000,-0.2258,-0.0384,-0.6410,0.681
66.864000,-0.1670,-0.0331,-0.6811,0.702
66.864000,-0.0874,-0.0009,-0.6715,0.677
66.864000,0.0107,0.0464,-0.4926,0.495
66.864000,0.1875,0.0919,-0.2380,0.317
66.864000,0.3453,0.1160,-0.0269,0.365
66.865000,0.4103,0.1379,0.1910,0.473
66.865000,0.4162,0.1356,0.3418,0.555
66.865000,0.3560,0.0970,0.4161,0.556
66.865000,0.2512,0.0748,0.4237,0.498
66.865000,0.1376,0.0451,0.3718,0.399
66.865000,0.0581,0.0270,0.3226,0.329
66.866000,-0.0237,-0.0128,0.2497,0.251
66.866000,-0.0815,-0.0529,0.1652,0.192
66.866000,-0.1325,-0.0644,0.1550,0.214
66.866000,-0.1598,-0.0377,0.0900,0.187
66.866000,-0.1351,-0.0375,0.0587,0.152
66.867000,-0.1372,-0.0304,0.0443,0.147
66.867000,-0.0825,0.0220,0.0325,0.091
66.867000,-0.0237,0.0170,0.0542,0.062
66.867000,0.0371,0.0883,0.0449,0.106
66.867000,0.0739,0.0614,0.1123,0.148
66.868000,0.0844,0.0631,0.1294,0.167
66.868000,0.0931,0.0288,0.0844,0.129
66.868000,0.0471,0.0161,0.0514,0.072
66.868000,0.0565,0.0224,0.0185,0.064
66.868000,0.0254,0.0072,0.0071,0.027
66.869000,0.0758,0.0303,0.0054,0.082
66.869000,0.0834,0.0437,-0.1016,0.139
66.869000,0.0840,0.0309,-0.2252,0.242
66.869000,0.0751,0.0304,-0.3514,0.361
66.869000,0.0372,0.0376,-0.4275,0.431
66.870000,0.0469,0.0500,-0.3963,0.402
66.870000,0.0634,0.0676,-0.2530,0.269
66.870000,0.0748,0.0736,-0.0767,0.130
66.870000,0.1151,0.0461,0.0420,0.131
66.870000,0.0982,0.0378,0.1461,0.180
66.871000,0.0770,-0.0113,0.2263,0.239
66.871000,0.0418,-0.0295,0.2444,0.250
66.871000,0.0114,-0.0694,0.2316,0.242
66.871000,-0.0307,-0.0784,0.1974,0.215
66.871000,-0.0991,-0.0543,0.1516,0.189
66.872000,-0.1388,-0.0735,0.0774,0.175
66.872000,-0.1763,-0.1143,-0.0326,0.213
66.872000,-0.1927,-0.1120,-0.0921,0.241
66.872000,-0.2166,-0.1191,-0.1254,0.277
66.872000,-0.1856,-0.0950,-0.1420,0.252
66.872000,-0.1409,-0.0708,-0.1109,0.193
66.873000,-0.1273,-0.0609,-0.0726,0.159
66.873000,-0.0972,-0.0844,-0.0417,0.135
66.873000,-0.0766,-0.0862,-0.0730,0.136
66.873000,-0.0750,-0.0449,-0.0518,0.102
66.873000,-0.0589,-0.0346,-0.0594,0.091
66.874000,-0.0141,-0.0195,-0.0670,0.071
66.874000,0.0449,-0.0210,-0.0101,0.051
66.874000,0.0610,-0.0131,0.0420,0.075
66.874000,0.0534,-0.0148,-0.0160,0.058
66.874000,0.0003,-0.0047,0.0170,0.018
66.874000,0.0024,0.0171,-0.0190,0.026
66.875000,-0.0336,0.0361,-0.0189,0.053
66.875000,-0.1191,0.0572,-0.0829,0.156
66.875000,-0.1966,0.0544,-0.1748,0.269
66.875000,-0.2259,0.0778,-0.2471,0.344
66.876000,-0.2644,0.1536,-0.3261,0.447
66.876000,-0.2409,0.1557,-0.3788,0.475
66.876000,-0.2105,0.1820,-0.3530,0.450
66.876000,-0.2184,0.2062,-0.3373,0.452
66.876000,-0.2357,0.2021,-0.2177,0.379
66.877000,-0.2290,0.2200,-0.1777,0.364
66.877000,-0.2436,0.2165,-0.1264,0.350
66.877000,-0.2533,0.2418,-0.0282,0.351
66.877000,-0.2342,0.2312,0.0384,0.331
66.877000,-0.2481,0.1947,0.1304,0.341
66.878000,-0.2730,0.2168,0.1995,0.402
66.878000,-0.3193,0.1980,0.2423,0.447
66.878000,-0.3246,0.1839,0.2684,0.460
66.878000,-0.3655,0.1765,0.3307,0.524
66.878000,-0.4612,0.1664,0.3502,0.602
66.878000,-0.5516,0.1607,0.3269,0.661
66.879000,-0.6322,0.1186,0.2681,0.697
66.879000,-0.7197,0.1193,0.1642,0.748
66.880000,-0.8644,0.0744,0.0534,0.869
66.880000,-0.9755,0.0798,-0.0669,0.981
66.880000,-1.0435,0.0734,-0.1870,1.063
66.880000,-1.1309,0.0862,-0.2857,1.170
66.881000,-1.1731,0.0659,-0.3342,1.222
66.881000,-1.2346,0.0627,-0.4188,1.305
66.881000,-1.2675,0.0765,-0.5083,1.368
66.881000,-1.2866,0.0550,-0.6004,1.421
66.881000,-1.2558,0.0843,-0.6498,1.417
66.882000,-1.2879,0.0900,-0.6325,1.438
66.882000,-1.4020,-0.0255,-0.6707,1.554
66.882000,-1.4008,-0.1144,-0.4890,1.488
66.882000,-1.2181,-0.0365,-0.1203,1.225
66.883000,-1.0596,0.0113,0.2777,1.095
66.883000,-0.9887,-0.0523,0.5113,1.114
66.883000,-1.1192,-0.2345,0.7194,1.351
66.883000,-1.0988,-0.3365,0.7944,1.397
66.884000,-1.1444,-0.4705,0.6931,1.418
66.884000,-1.2408,-0.5810,0.4775,1.451
66.884000,-1.3207,-0.6268,0.2478,1.483
66.884000,-1.5036,-0.6293,-0.0202,1.630
66.885000,-1.7034,-0.6386,-0.3430,1.851
66.885000,-1.9114,-0.6328,-0.9507,2.227
66.885000,-2.1669,-0.6519,-1.4464,2.686
66.886000,-2.3530,-0.6641,-1.4838,2.860
66.886000,-2.3665,-0.6913,-1.3313,2.802
66.886000,-2.3324,-0.7005,-1.2730,2.748
66.887000,-2.3684,-0.6877,-1.1077,2.704
66.887000,-2.4803,-0.6940,-1.0357,2.776
66.888000,-2.5708,-0.6580,-0.9201,2.809
66.888000,-2.5809,-0.6040,-0.7846,2.764
66.889000,-2.5702,-0.5083,-0.5621,2.680
66.889000,-2.4835,-0.4643,-0.3841,2.556
66.889000,-2.4255,-0.4310,-0.2318,2.474
66.889000,-2.3974,-0.3653,-0.1505,2.430
66.890000,-2.3267,-0.2525,-0.1356,2.344
66.890000,-2.3373,-0.1787,-0.1204,2.347
66.890000,-2.3453,-0.1433,-0.1434,2.354
66.891000,-2.3071,-0.0433,-0.2117,2.317
66.891000,-2.1705,0.0066,-0.2946,2.190
66.891000,-2.0404,0.0381,-0.2704,2.059
66.891000,-2.0197,0.0583,-0.1582,2.027
66.892000,-2.0244,0.0957,-0.1399,2.031
66.892000,-1.9760,0.0859,-0.0766,1.979
66.892000,-1.9083,0.1076,0.1321,1.916
66.893000,-1.8190,0.1985,0.3622,1.865
66.893000,-1.6003,0.3177,0.6138,1.743
66.893000,-1.3236,0.4337,0.9109,1.664
66.894000,-1.0704,0.5317,1.1701,1.673
66.894000,-0.9526,0.6808,1.3273,1.770
66.894000,-0.8714,0.8116,1.5163,1.928
66.894000,-0.9269,0.8284,1.5458,1.984
66.895000,-1.1738,0.8030,1.4615,2.039
66.895000,-1.5161,0.7096,1.1891,2.053
66.895000,-2.0477,0.5176,1.0561,2.361
66.896000,-2.3724,0.3802,1.0290,2.614
66.896000,-2.6675,0.2732,0.9476,2.844
66.896000,-2.9930,0.1349,0.7638,3.092
66.897000,-3.2197,0.0061,0.6425,3.283
66.897000,-3.4697,-0.1486,0.4519,3.502
66.897000,-3.5449,-0.2453,0.1727,3.558
66.898000,-3.5626,-0.2568,-0.1167,3.574
66.898000,-3.5058,-0.2906,-0.2278,3.525
66.898000,-3.4177,-0.3557,-0.3882,3.458
66.899000,-3.5039,-0.1987,-0.3921,3.531
66.899000,-3.4498,-0.0470,-0.4194,3.476
66.899000,-3.3830,-0.0848,-0.4840,3.418
66.900000,-3.3154,-0.1303,-0.4425,3.347
66.900000,-3.2538,-0.1474,-0.5318,3.300
66.900000,-3.1790,-0.2197,-0.5988,3.242
66.901000,-2.9289,-0.1560,-0.4450,2.967
66.901000,-2.5992,-0.0355,-0.2044,2.607
66.901000,-2.2931,0.1291,0.0517,2.297
66.902000,-2.0365,0.2466,0.3355,2.079
66.902000,-1.8533,0.2877,0.5924,1.967
66.902000,-1.7647,0.1998,0.7269,1.919
66.902000,-1.7783,0.0808,0.8758,1.984
66.903000,-1.8200,-0.0380,1.0746,2.114
66.903000,-1.8705,-0.1756,1.3137,2.292
66.903000,-1.9223,-0.3512,1.6124,2.533
66.904000,-1.9344,-0.5289,1.9059,2.767
66.904000,-1.9495,-0.6515,2.1106,2.946
66.905000,-1.9557,-0.7671,2.3202,3.130
66.906000,-1.9337,-0.8592,2.4248,3.218
66.906000,-1.9292,-1.0042,2.4603,3.284
66.906000,-1.9951,-1.1737,2.4917,3.401
66.906000,-1.9973,-1.3484,2.4399,3.429
66.907000,-1.9440,-1.4520,2.3627,3.387
66.907000,-1.8523,-1.5518,2.2745,3.319
66.907000,-1.7584,-1.6548,2.2711,3.315
66.908000,-1.6270,-1.6944,2.1873,3.210
66.908000,-1.5089,-1.7186,2.1000,3.105
66.908000,-1.3252,-1.6984,2.0543,2.977
66.908000,-1.1452,-1.7081,2.0121,2.877
66.909000,-1.0139,-1.7214,2.0569,2.867
66.909000,-0.9431,-1.7668,2.0260,2.849
66.910000,-0.8679,-1.8084,1.9456,2.794
66.910000,-0.8790,-1.8650,1.8637,2.779
66.910000,-1.0526,-2.0300,1.6486,2.819
66.910000,-1.1658,-2.1816,1.7024,3.003
66.911000,-1.2072,-2.1841,1.7144,3.028
66.911000,-1.3304,-2.1477,1.3426,2.861
66.911000,-1.4111,-2.2971,0.9221,2.849
66.911000,-1.4762,-2.4352,0.6461,2.920
66.911000,-1.4828,-2.4969,0.4040,2.932
66.912000,-1.3806,-2.5728,0.0783,2.921
66.912000,-1.1866,-2.5925,-0.1188,2.854
66.912000,-0.9098,-2.5703,-0.0752,2.728
66.912000,-0.5710,-2.5920,0.1655,2.659
66.912000,-0.1817,-2.5858,0.4742,2.635
66.913000,0.1510,-2.5498,0.7600,2.665
66.913000,0.3676,-2.5707,0.9590,2.768
66.913000,0.5859,-2.6079,1.0307,2.865
66.913000,0.8106,-2.6543,1.0614,2.971
66.914000,0.9725,-2.7865,1.0632,3.137
66.914000,1.1249,-2.8749,0.9522,3.231
66.914000,1.2199,-2.8980,0.8839,3.266
66.914000,1.3319,-2.9057,0.8581,3.310
66.914000,1.3680,-2.9150,0.8485,3.330
66.915000,1.3904,-2.9547,0.7620,3.353
66.915000,1.3657,-3.0107,0.6251,3.365
66.915000,1.3317,-2.9992,0.4210,3.308
66.915000,1.2621,-3.0944,0.2501,3.351
66.916000,1.1691,-3.1098,0.0214,3.322
66.916000,1.1123,-3.1337,-0.1814,3.330
66.916000,1.0846,-3.1322,-0.4328,3.343
66.916000,1.0266,-3.1577,-0.6707,3.387
66.916000,0.8976,-3.1977,-0.9363,3.451
66.917000,0.8103,-3.2016,-1.0287,3.459
66.917000,0.6617,-3.2343,-1.1440,3.494
66.917000,0.4876,-3.3504,-1.1917,3.589
66.917000,0.2519,-3.5330,-1.1671,3.729
66.918000,0.0762,-3.6482,-1.0485,3.797
66.918000,-0.0573,-3.7446,-0.8716,3.845
66.918000,-0.1705,-3.8460,-0.5813,3.893
66.918000,-0.2373,-3.8574,-0.2015,3.870
66.918000,-0.2625,-3.8983,0.1292,3.909
66.919000,-0.2074,-3.9190,0.4829,3.954
66.919000,-0.1078,-3.9057,0.8480,3.998
66.919000,-0.0738,-3.9277,1.1551,4.095
66.919000,0.0004,-3.9115,1.4955,4.188
66.919000,-0.0121,-3.8758,1.7255,4.243
66.920000,0.0373,-3.8881,1.9675,4.358
66.920000,0.1633,-3.8696,2.2957,4.502
66.920000,0.2892,-3.8038,2.4806,4.550
66.920000,0.3937,-3.7602,2.5678,4.570
66.921000,0.5340,-3.7074,2.5811,4.549
66.921000,0.6383,-3.6478,2.6737,4.568
66.921000,0.8120,-3.5527,2.7905,4.590
66.921000,0.9287,-3.4577,2.9241,4.623
66.922000,1.0218,-3.3966,3.1584,4.749
66.922000,1.1392,-3.2906,3.2708,4.777
66.922000,1.2499,-3.2215,3.4914,4.912
66.922000,1.3374,-3.1342,3.6453,4.990
66.923000,1.4209,-3.0746,3.7642,5.064
66.923000,1.4524,-3.0092,3.8646,5.109
66.923000,1.5132,-2.9336,3.8775,5.092
66.923000,1.5314,-2.8860,3.8626,5.059
66.924000,1.5280,-2.8498,3.8106,4.998
66.924000,1.4861,-2.8273,3.7717,4.942
66.924000,1.4704,-2.8089,3.7481,4.909
66.924000,1.4640,-2.7638,3.7329,4.870
66.925000,1.4042,-2.7517,3.7690,4.873
66.925000,1.4036,-2.7634,3.7393,4.857
66.925000,1.3471,-2.8058,3.7084,4.841
66.925000,1.3733,-2.7882,3.7720,4.888
66.925000,1.3484,-2.8038,3.7722,4.890
66.926000,1.3230,-2.8481,3.7211,4.869
66.926000,1.4066,-2.8870,3.6926,4.894
66.926000,1.5036,-2.8275,3.7250,4.912
66.926000,1.5693,-2.6814,3.7226,4.849
66.927000,1.5901,-2.5732,3.6971,4.777
66.927000,1.6144,-2.5070,3.6772,4.734
66.927000,1.6331,-2.4875,3.6243,4.689
66.927000,1.7396,-2.4520,3.5480,4.650
66.928000,1.7668,-2.3788,3.3955,4.507
66.928000,1.7888,-2.2654,3.2599,4.354
66.928000,1.7434,-2.1710,3.1268,4.187
66.928000,1.6643,-2.1099,3.0581,4.071
66.929000,1.6514,-2.0437,3.0777,4.047
66.929000,1.6973,-1.9773,3.0995,4.049
66.929000,1.6533,-1.9732,3.0973,4.027
66.929000,1.6577,-1.8974,3.1430,4.028
66.930000,1.6747,-1.8602,3.2150,4.074
66.930000,1.6874,-1.8304,3.3779,4.196
66.930000,1.8032,-1.8178,3.5479,4.375
66.930000,1.8978,-1.7676,3.7086,4.525
66.930000,2.0115,-1.7974,3.7428,4.614
66.930000,2.0730,-1.8806,3.6985,4.638
66.931000,2.0346,-1.9404,3.7049,4.651
66.931000,2.0519,-1.9528,3.8454,4.776
66.931000,2.1988,-2.0093,4.0724,5.045
66.931000,2.3706,-2.0647,4.3142,5.338
66.931000,2.4193,-2.0380,4.0783,5.161
66.932000,2.3596,-1.9796,4.4272,5.393
66.932000,2.2250,-2.1847,4.7125,5.651
66.932000,2.1859,-2.4169,4.5499,5.597
66.932000,1.9308,-2.6476,4.1314,5.273
66.932000,1.6570,-2.8120,3.7248,4.952
66.933000,1.4642,-2.8353,3.2703,4.569
66.933000,1.2088,-2.7180,2.7273,4.036
66.933000,0.9121,-2.6839,2.2603,3.625
66.933000,0.6240,-2.6872,1.8046,3.296
66.933000,0.4446,-2.6530,1.4292,3.046
66.933000,0.3522,-2.6336,1.1097,2.879
66.934000,0.4136,-2.5828,0.8434,2.748
66.934000,0.6076,-2.5246,0.5823,2.661
66.934000,0.6710,-2.3458,0.3306,2.462
66.934000,0.8443,-2.0174,0.3775,2.219
66.934000,1.0352,-1.7735,0.2941,2.074
66.934000,1.1763,-1.6837,0.3487,2.083
66.934000,1.3565,-1.5799,0.4475,2.130
66.935000,1.5500,-1.4363,0.5571,2.185
66.935000,1.6878,-1.3625,0.6296,2.259
66.935000,1.7323,-1.3421,0.6986,2.300
66.935000,1.6834,-1.3005,0.7376,2.251
66.935000,1.6513,-1.2787,0.8185,2.243
66.935000,1.6119,-1.2979,1.0057,2.301
66.935000,1.5145,-1.3225,1.1414,2.312
66.936000,1.4167,-1.3625,1.3049,2.359
66.936000,1.2318,-1.4993,1.4603,2.429
66.936000,1.0077,-1.6210,1.6487,2.522
66.936000,0.8750,-1.7421,1.8751,2.705
66.936000,0.6639,-1.8702,2.0869,2.880
66.937000,0.4744,-2.0007,2.2772,3.068
66.937000,0.3474,-2.1315,2.3434,3.187
66.937000,0.1987,-2.2103,2.3503,3.232
66.937000,0.0141,-2.3063,2.3482,3.291
66.937000,-0.1020,-2.3237,2.3275,3.290
66.937000,-0.1660,-2.3515,2.3289,3.314
66.937000,-0.1783,-2.3774,2.2830,3.301
66.938000,-0.1245,-2.3896,2.2880,3.311
66.938000,-0.0311,-2.4022,2.2407,3.285
66.938000,0.0808,-2.3937,2.1915,3.246
66.938000,0.1776,-2.4021,2.2120,3.270
66.938000,0.2859,-2.4085,2.1658,3.252
66.938000,0.3437,-2.3792,2.1917,3.253
66.939000,0.3700,-2.4101,2.1797,3.271
66.939000,0.3628,-2.4487,2.1420,3.274
66.939000,0.3264,-2.5283,2.0593,3.277
66.939000,0.3256,-2.5773,1.9605,3.254
66.939000,0.3528,-2.6215,1.8357,3.220
66.939000,0.4034,-2.6398,1.6852,3.158
66.940000,0.4414,-2.6294,1.5086,3.063
66.940000,0.4739,-2.6144,1.3493,2.980
66.940000,0.5437,-2.6042,1.1544,2.900
66.940000,0.6146,-2.5582,1.0219,2.822
66.940000,0.7200,-2.5240,0.9517,2.792
66.940000,0.8074,-2.4853,0.8555,2.750
66.940000,0.9172,-2.4057,0.7186,2.673
66.941000,1.0615,-2.3168,0.5484,2.607
66.941000,1.1155,-2.2299,0.4618,2.536
66.941000,1.1278,-2.1210,0.3629,2.429
66.941000,1.1702,-2.0284,0.2685,2.357
66.941000,1.0921,-2.0378,0.2451,2.325
66.941000,1.0996,-2.0273,0.2859,2.324
66.942000,1.1111,-1.9992,0.2565,2.302
66.942000,1.0719,-1.9940,0.2527,2.278
66.942000,1.0681,-2.0240,0.2149,2.299
66.942000,1.0636,-2.0099,0.2360,2.286
66.942000,1.1134,-1.9713,0.2281,2.275
66.942000,1.1461,-1.9249,0.1550,2.246
66.943000,1.2571,-1.9043,0.1005,2.284
66.943000,1.3432,-1.8735,0.0481,2.306
66.943000,1.4091,-1.8231,-0.0000,2.304
66.943000,1.4883,-1.7867,-0.0007,2.325
66.943000,1.5065,-1.7738,0.0197,2.327
66.943000,1.4850,-1.7561,0.0734,2.301
66.943000,1.4525,-1.7189,0.1363,2.255
66.943000,1.3760,-1.7343,0.2443,2.227
66.944000,1.3726,-1.7328,0.3999,2.246
66.944000,1.3039,-1.7956,0.5119,2.277
66.944000,1.1511,-1.9013,0.6477,2.315
66.944000,1.1291,-1.9282,0.8122,2.378
66.944000,1.0438,-1.9294,0.9027,2.372
66.944000,0.9509,-1.9046,0.9241,2.321
66.945000,0.8486,-1.9016,0.7807,2.224
66.945000,0.8156,-1.9201,0.7092,2.203
66.945000,0.8252,-1.9193,0.6808,2.197
66.945000,0.8633,-1.8417,0.5972,2.120
66.946000,0.8826,-1.8377,0.5539,2.113
66.946000,0.8664,-1.8210,0.5006,2.078
66.951000,0.8217,-1.8300,0.5065,2.069
66.951000,0.6932,-1.7930,0.5574,2.002
66.951000,0.6648,-1.7128,0.6296,1.942
66.951000,0.6216,-1.6614,0.6181,1.878
66.951000,0.6293,-1.6225,0.7026,1.877
66.952000,0.7051,-1.6057,0.6821,1.882
66.952000,0.8202,-1.5871,0.6239,1.892
66.952000,0.9623,-1.5118,0.6332,1.901
66.952000,1.0792,-1.4249,0.5686,1.876
66.953000,1.1613,-1.3409,0.5117,1.846
66.953000,1.3142,-1.2212,0.5171,1.867
66.953000,1.5068,-1.0898,0.4270,1.908
66.953000,1.7442,-0.9513,0.4877,2.046
66.954000,2.0534,-0.7936,0.5433,2.267
66.954000,2.2890,-0.6862,0.6206,2.469
66.954000,2.4063,-0.5545,0.5898,2.539
66.954000,2.4969,-0.4990,0.5468,2.604
66.954000,2.4944,-0.5145,0.4603,2.588
66.954000,2.4228,-0.5051,0.3660,2.502
66.955000,2.2888,-0.4734,0.2879,2.355
66.955000,2.0994,-0.4697,0.2118,2.162
66.955000,1.9046,-0.4843,0.0465,1.966
66.955000,1.7928,-0.5505,-0.0786,1.877
66.955000,1.6631,-0.5848,-0.1804,1.772
66.956000,1.6038,-0.5869,-0.2926,1.733
66.956000,1.5499,-0.5593,-0.3744,1.690
66.956000,1.4849,-0.5619,-0.4594,1.653
66.956000,1.4207,-0.5394,-0.6003,1.634
66.956000,1.4021,-0.4776,-0.6990,1.638
66.957000,1.4217,-0.4002,-0.7104,1.639
66.957000,1.4633,-0.3119,-0.7350,1.667
66.957000,1.5028,-0.2725,-0.5624,1.628
66.957000,1.6120,-0.2271,-0.4989,1.703
66.957000,1.6957,-0.1231,-0.6039,1.804
66.957000,1.7755,-0.0341,-0.7224,1.917
66.958000,1.8254,-0.0051,-0.6109,1.925
66.958000,1.8623,-0.0694,-0.4252,1.912
66.958000,1.9702,-0.1027,-0.1483,1.978
66.958000,2.1012,-0.1721,0.2148,2.119
66.958000,2.1888,-0.2469,0.6478,2.296
66.958000,2.2521,-0.3158,0.9838,2.478
66.959000,2.3225,-0.3768,1.3168,2.696
66.959000,2.2707,-0.4949,1.4771,2.754
66.959000,2.2323,-0.6276,1.5613,2.795
66.959000,2.0977,-0.6862,1.5692,2.708
66.960000,1.9836,-0.7454,1.6186,2.666
66.960000,1.8780,-0.8387,1.7141,2.677
66.960000,1.7421,-0.9260,1.7821,2.659
66.960000,1.6572,-1.0431,1.7676,2.638
66.960000,1.5535,-1.1282,1.6495,2.531
66.961000,1.4044,-1.1695,1.4136,2.310
66.961000,1.2692,-1.2004,1.1459,2.089
66.961000,1.2043,-1.1922,0.8202,1.883
66.961000,1.1946,-1.1808,0.5630,1.772
66.961000,1.1750,-1.1037,0.3454,1.649
66.962000,1.2656,-1.0062,0.1885,1.628
66.962000,1.3846,-0.8832,0.1495,1.649
66.962000,1.4778,-0.7946,0.1350,1.683
66.962000,1.5935,-0.7139,0.1520,1.753
66.962000,1.7008,-0.6291,0.1335,1.818
66.962000,1.7665,-0.5113,0.0867,1.841
66.963000,1.7816,-0.4535,-0.0605,1.839
66.963000,1.8490,-0.3764,-0.2101,1.899
66.963000,1.9257,-0.2702,-0.3576,1.977
66.963000,1.9662,-0.2182,-0.4148,2.021
66.963000,1.9921,-0.1367,-0.2766,2.016
66.964000,2.0394,-0.0520,-0.2374,2.054
66.964000,2.1533,0.0382,-0.1870,2.162
66.964000,2.2475,0.0335,-0.0537,2.248
66.964000,2.3338,0.0867,0.0168,2.336
66.964000,2.3743,0.0783,0.1488,2.380
66.964000,2.4194,0.1109,0.2948,2.440
66.965000,2.4949,0.1198,0.3375,2.521
66.965000,2.5770,0.1290,0.5257,2.633
66.965000,2.6582,0.1622,0.7208,2.759
66.965000,2.6840,0.1472,0.8847,2.830
66.965000,2.6402,0.0841,1.0129,2.829
66.965000,2.5792,-0.0106,1.0241,2.775
66.966000,2.4697,-0.0480,1.0953,2.702
66.966000,2.4195,-0.0692,1.2625,2.730
66.966000,2.4266,-0.1127,1.4277,2.818
66.966000,2.4551,-0.1881,1.5074,2.887
66.966000,2.4616,-0.2309,1.5470,2.916
66.967000,2.3604,-0.2483,1.5300,2.824
66.967000,2.2211,-0.3217,1.4565,2.675
66.967000,2.0792,-0.3792,1.4101,2.541
66.967000,1.9708,-0.4424,1.3430,2.426
66.967000,1.9553,-0.5161,1.2959,2.402
66.967000,1.9823,-0.5717,1.2067,2.390
66.968000,1.8984,-0.5853,1.0515,2.248
66.968000,1.9022,-0.6239,0.8758,2.185
66.968000,1.8956,-0.6588,0.6676,2.115
66.968000,1.9048,-0.6537,0.4627,2.066
66.968000,1.8989,-0.6564,0.1604,2.016
66.968000,1.8847,-0.6594,-0.0003,1.997
66.969000,1.8932,-0.6269,-0.1103,1.997
66.969000,1.9580,-0.5874,-0.1986,2.054
66.969000,2.0097,-0.5363,-0.3297,2.106
66.969000,2.0081,-0.5307,-0.4151,2.118
66.969000,2.0081,-0.4917,-0.4765,2.122
66.970000,2.0507,-0.4933,-0.4853,2.164
66.970000,2.1024,-0.4924,-0.5252,2.222
66.970000,2.1230,-0.4649,-0.5151,2.234
66.970000,2.1603,-0.4327,-0.6078,2.286
66.971000,2.1879,-0.3858,-0.6169,2.306
66.971000,2.2132,-0.3123,-0.6335,2.323
66.971000,2.2052,-0.2482,-0.6549,2.314
66.971000,2.1952,-0.2340,-0.7006,2.316
66.971000,2.1238,-0.2311,-0.7706,2.271
66.972000,2.0148,-0.2538,-0.7501,2.165
66.972000,1.9495,-0.3093,-0.7637,2.117
66.972000,1.8799,-0.3398,-0.7637,2.057
66.972000,1.7412,-0.3262,-0.6928,1.902
66.972000,1.5672,-0.3404,-0.5678,1.701
66.973000,1.5087,-0.3489,-0.4149,1.603
66.973000,1.3810,-0.3544,-0.2483,1.447
66.973000,1.3231,-0.3976,-0.0609,1.383
66.973000,1.2749,-0.3736,0.0783,1.331
66.973000,1.1930,-0.3736,0.2342,1.272
66.973000,1.1136,-0.3523,0.3231,1.212
66.973000,1.0581,-0.3864,0.4121,1.199
66.974000,0.9980,-0.3946,0.3796,1.138
66.974000,0.9354,-0.3960,0.3186,1.065
66.974000,0.8751,-0.4312,0.3179,1.026
66.974000,0.8172,-0.3996,0.3006,0.958
66.974000,0.7138,-0.3491,0.2093,0.822
66.975000,0.6484,-0.3348,0.1566,0.746
66.975000,0.6019,-0.3133,0.0824,0.684
66.975000,0.5265,-0.3514,-0.0062,0.633
66.975000,0.5085,-0.3269,-0.0160,0.605
66.975000,0.5121,-0.2829,-0.0477,0.587
66.975000,0.4919,-0.2481,0.0017,0.551
66.975000,0.4746,-0.1867,0.0004,0.510
66.975000,0.3953,-0.2134,-0.0418,0.451
66.976000,0.3136,-0.2635,-0.0939,0.420
66.976000,0.2630,-0.2390,-0.1248,0.377
66.976000,0.2434,-0.2213,-0.1009,0.344
66.976000,0.3310,-0.2320,-0.0415,0.406
66.976000,0.4277,-0.1946,-0.0708,0.475
66.976000,0.5093,-0.1139,-0.0333,0.523
66.976000,0.6021,-0.0663,0.0683,0.610
66.977000,0.6731,0.0006,0.2868,0.732
66.977000,0.7347,0.0150,0.5478,0.917
66.977000,0.8016,-0.0327,0.7631,1.107
66.977000,0.9050,-0.0925,0.9353,1.305
66.977000,0.9684,-0.1167,1.0717,1.449
66.977000,0.9157,-0.1128,1.1725,1.492
66.978000,0.8930,-0.1071,1.2571,1.546
66.978000,0.8313,-0.1429,1.3374,1.581
66.978000,0.7471,-0.2057,1.2795,1.496
66.978000,0.6379,-0.3435,1.1913,1.394
66.978000,0.5010,-0.4439,1.0801,1.271
66.978000,0.3000,-0.4806,0.9436,1.101
66.979000,0.1662,-0.5113,0.7198,0.898
66.979000,0.0776,-0.5215,0.5091,0.733
66.979000,0.0243,-0.5444,0.3495,0.647
66.979000,0.0035,-0.5608,0.0616,0.564
66.979000,-0.0061,-0.5440,-0.0942,0.552
66.979000,0.0219,-0.4844,-0.3118,0.576
66.979000,0.1664,-0.4126,-0.4958,0.666
66.980000,0.2834,-0.3046,-0.5508,0.690
66.980000,0.3831,-0.1746,-0.5441,0.688
66.980000,0.5422,-0.0561,-0.4446,0.703
66.980000,0.6945,-0.0087,-0.3124,0.762
66.980000,0.7971,0.0345,-0.1474,0.811
66.980000,0.9077,0.0473,-0.0263,0.909
66.981000,0.9192,0.0633,0.1561,0.934
66.981000,0.9154,0.0893,0.2853,0.963
66.981000,0.9371,0.0536,0.3230,0.993
66.981000,0.9098,0.0088,0.3651,0.980
66.981000,0.8524,0.0098,0.4522,0.965
66.981000,0.8148,-0.0031,0.4839,0.948
66.982000,0.8207,-0.0372,0.5654,0.997
66.982000,0.8579,-0.0685,0.7112,1.116
66.982000,0.8548,-0.1164,0.9164,1.259
66.982000,0.8234,-0.1761,1.1715,1.443
66.982000,0.8021,-0.2169,1.3477,1.583
66.982000,0.7288,-0.2942,1.4692,1.666
66.983000,0.6750,-0.3292,1.5123,1.688
66.983000,0.6190,-0.3651,1.5011,1.664
66.983000,0.5749,-0.4185,1.4643,1.628
66.983000,0.5497,-0.4679,1.4091,1.583
66.983000,0.6155,-0.4488,1.3762,1.573
66.983000,0.6908,-0.4376,1.3248,1.557
66.984000,0.6896,-0.4581,1.2693,1.515
66.984000,0.6337,-0.4507,1.1761,1.410
66.984000,0.5637,-0.5250,1.0501,1.302
66.984000,0.5105,-0.5759,0.8886,1.176
66.984000,0.4693,-0.6176,0.7087,1.051
66.984000,0.4086,-0.5902,0.5198,0.886
66.984000,0.4122,-0.5701,0.3765,0.798
66.985000,0.4441,-0.5906,0.2765,0.789
66.985000,0.4566,-0.5847,0.2101,0.771
66.985000,0.5074,-0.5474,0.1052,0.754
66.985000,0.5297,-0.5482,0.0336,0.763
66.985000,0.5309,-0.5843,-0.0740,0.793
66.985000,0.5251,-0.5651,-0.1747,0.791
66.986000,0.4548,-0.5836,-0.2541,0.782
66.986000,0.3890,-0.5684,-0.3480,0.772
66.986000,0.3756,-0.5816,-0.4612,0.832
66.987000,0.3639,-0.6159,-0.5888,0.927
66.987000,0.3561,-0.6067,-0.6975,0.991
66.987000,0.3568,-0.6042,-0.7993,1.064
66.987000,0.3947,-0.6058,-0.8059,1.083
66.987000,0.4771,-0.5614,-0.7651,1.062
66.987000,0.5134,-0.5211,-0.6819,1.000
66.989000,0.5708,-0.5089,-0.5301,0.930
66.990000,0.6020,-0.4528,-0.3576,0.834
66.990000,0.6288,-0.4464,-0.1572,0.787
66.990000,0.5968,-0.4706,-0.0244,0.760
66.990000,0.5415,-0.4777,0.0362,0.723
66.990000,0.4945,-0.4987,0.0271,0.703
66.990000,0.4123,-0.5099,-0.0134,0.656
66.991000,0.3373,-0.5400,-0.0181,0.637
66.991000,0.2671,-0.5291,-0.0015,0.593
66.991000,0.2276,-0.5181,0.1273,0.580
66.991000,0.2187,-0.5456,0.2538,0.640
66.991000,0.2021,-0.5517,0.3277,0.673
66.991000,0.1492,-0.5537,0.3877,0.692
66.991000,0.0860,-0.5706,0.3524,0.676
66.991000,0.0819,-0.5520,0.2315,0.604
66.991000,0.0790,-0.5148,0.1709,0.548
66.992000,0.1037,-0.4728,0.1630,0.511
66.992000,0.1707,-0.4045,0.2889,0.526
66.992000,0.2229,-0.3361,0.4026,0.570
66.992000,0.3088,-0.3106,0.5351,0.692
66.992000,0.3712,-0.2970,0.6554,0.810
66.992000,0.3746,-0.2882,0.7756,0.908
66.992000,0.3765,-0.2556,0.8000,0.920
66.992000,0.3818,-0.2087,0.8053,0.915
66.993000,0.3880,-0.1931,0.7389,0.857
66.993000,0.3187,-0.2158,0.6080,0.720
66.993000,0.2453,-0.2312,0.5345,0.632
66.993000,0.1794,-0.2370,0.3943,0.494
66.993000,0.1421,-0.2500,0.3259,0.435
66.993000,0.1332,-0.2344,0.2889,0.395
66.993000,0.2024,-0.2548,0.2257,0.396
66.993000,0.2085,-0.2300,0.2990,0.431
66.993000,0.2666,-0.2317,0.3701,0.512
66.994000,0.2579,-0.2193,0.4532,0.566
66.994000,0.2756,-0.2453,0.5340,0.649
66.994000,0.2362,-0.2645,0.5193,0.629
66.994000,0.1876,-0.3245,0.4378,0.576
66.994000,0.1537,-0.2889,0.2872,0.435
66.994000,0.1556,-0.3106,0.1366,0.373
66.994000,0.1672,-0.2841,0.1007,0.345
66.994000,0.2074,-0.2858,0.0692,0.360
66.994000,0.2716,-0.2679,0.1736,0.419
66.994000,0.3359,-0.2401,0.2705,0.494
66.995000,0.3886,-0.2315,0.4103,0.611
66.995000,0.3724,-0.2588,0.5739,0.731
66.995000,0.3326,-0.2530,0.6132,0.742
66.995000,0.3336,-0.2525,0.5812,0.716
66.995000,0.2582,-0.2500,0.5400,0.649
66.995000,0.1709,-0.2862,0.4561,0.565
66.995000,0.0791,-0.3631,0.3413,0.505
66.995000,0.0686,-0.3538,0.2674,0.449
66.996000,0.0912,-0.3684,0.1958,0.427
66.996000,0.1134,-0.3660,0.1362,0.407
66.996000,0.1186,-0.3372,0.2247,0.422
66.996000,0.1693,-0.3154,0.2915,0.462
66.996000,0.2463,-0.3222,0.3390,0.529
66.996000,0.2828,-0.3195,0.3004,0.522
66.996000,0.2858,-0.2953,0.1829,0.450
66.996000,0.2700,-0.2929,0.1435,0.423
66.997000,0.3157,-0.3164,0.1611,0.475
66.997000,0.4156,-0.2611,0.1973,0.529
66.997000,0.4576,-0.2108,0.2807,0.577
66.997000,0.5136,-0.2227,0.3728,0.673
66.997000,0.5622,-0.2369,0.4476,0.757
66.997000,0.6031,-0.2458,0.5352,0.843
66.997000,0.6180,-0.2524,0.6419,0.926
66.997000,0.5954,-0.2689,0.6937,0.953
66.997000,0.5256,-0.3812,0.6619,0.927
66.998000,0.4134,-0.3931,0.6112,0.836
66.998000,0.2876,-0.4723,0.5224,0.761
66.998000,0.1573,-0.5587,0.4173,0.715
66.998000,0.0079,-0.6116,0.3076,0.685
66.998000,-0.0819,-0.6503,0.1622,0.675
66.998000,-0.1297,-0.6484,0.0076,0.661
66.998000,-0.1741,-0.6799,-0.1014,0.709
66.998000,-0.1434,-0.6561,-0.1052,0.680
66.999000,0.0296,-0.5748,0.0104,0.576
67.007000,0.2185,-0.5316,0.1974,0.608
67.007000,0.4022,-0.4433,0.4322,0.738
67.007000,0.5047,-0.4200,0.6192,0.902
67.007000,0.5431,-0.4140,0.6796,0.963
67.007000,0.5319,-0.3895,0.6305,0.912
67.007000,0.4040,-0.3846,0.4216,0.699
67.007000,0.3003,-0.4324,0.1723,0.554
67.008000,0.2659,-0.4487,0.0068,0.522
67.008000,0.2982,-0.4502,-0.0107,0.540
67.008000,0.3279,-0.4413,-0.0215,0.550
67.008000,0.4222,-0.4271,0.0293,0.601
67.008000,0.5258,-0.3741,0.1681,0.667
67.008000,0.6054,-0.3424,0.2634,0.744
67.008000,0.6492,-0.3034,0.3800,0.811
67.008000,0.7218,-0.2812,0.5012,0.923
67.009000,0.7710,-0.2926,0.5674,1.001
67.009000,0.7490,-0.2850,0.6431,1.028
67.009000,0.7227,-0.3495,0.6186,1.013
67.009000,0.6205,-0.3520,0.6398,0.958
67.009000,0.5282,-0.3692,0.6158,0.891
67.009000,0.4551,-0.4203,0.5874,0.854
67.010000,0.4156,-0.4287,0.4925,0.774
67.010000,0.3759,-0.4159,0.4075,0.693
67.010000,0.3839,-0.4489,0.2798,0.654
67.010000,0.3893,-0.4221,0.1763,0.601
67.010000,0.3920,-0.4144,0.0608,0.574
67.010000,0.3584,-0.4328,-0.0450,0.564
67.010000,0.3891,-0.4004,-0.0317,0.559
67.010000,0.4244,-0.3822,-0.0592,0.574
67.011000,0.4736,-0.3516,-0.0176,0.590
67.011000,0.4986,-0.3139,0.0359,0.590
67.011000,0.5787,-0.2809,0.0916,0.650
67.011000,0.6064,-0.2981,0.1638,0.695
67.011000,0.5847,-0.3054,0.2167,0.694
67.011000,0.5758,-0.3318,0.1952,0.693
67.011000,0.5604,-0.3675,0.1736,0.692
67.011000,0.5359,-0.4102,0.0922,0.681
67.011000,0.4732,-0.4120,0.0370,0.629
67.012000,0.3723,-0.4161,-0.0111,0.558
67.012000,0.3050,-0.4341,-0.0403,0.532
67.012000,0.3118,-0.4640,-0.0863,0.566
67.012000,0.3086,-0.4745,-0.0774,0.571
67.012000,0.3217,-0.4563,-0.0900,0.565
67.012000,0.2978,-0.4477,-0.0953,0.546
67.012000,0.2924,-0.3865,-0.0194,0.485
67.012000,0.3152,-0.3542,0.0732,0.480
67.012000,0.3161,-0.3746,0.1324,0.508
67.012000,0.3123,-0.3615,0.1532,0.502
67.013000,0.3493,-0.3697,0.1475,0.530
67.013000,0.3745,-0.3776,0.1033,0.542
67.013000,0.3879,-0.3399,0.1283,0.531
67.013000,0.4352,-0.2971,0.1985,0.563
67.013000,0.4592,-0.2852,0.2516,0.596
67.013000,0.4886,-0.2993,0.2494,0.625
67.013000,0.4611,-0.3083,0.2326,0.601
67.013000,0.4146,-0.2958,0.1967,0.546
67.014000,0.3968,-0.3358,0.2276,0.567
67.014000,0.4244,-0.3015,0.3063,0.604
67.014000,0.4638,-0.2242,0.3491,0.622
67.014000,0.4839,-0.1781,0.4635,0.693
67.014000,0.4490,-0.1657,0.5707,0.745
67.014000,0.4503,-0.1630,0.5680,0.743
67.014000,0.4517,-0.1607,0.5655,0.741
67.014000,0.4535,-0.1587,0.5632,0.740
67.015000,0.4556,-0.1571,0.5614,0.740
67.015000,0.4580,-0.1560,0.5599,0.740
67.015000,0.4602,-0.1553,0.5587,0.740
67.015000,0.4621,-0.1549,0.5579,0.741
67.015000,0.4635,-0.1549,0.5573,0.741
67.015000,0.4644,-0.1551,0.5569,0.742
67.015000,0.4647,-0.1554,0.5566,0.742
67.015000,0.4646,-0.1559,0.5564,0.741
67.015000,0.4640,-0.1565,0.5564,0.741
67.015000,0.4630,-0.1573,0.5565,0.741
67.016000,0.4616,-0.1583,0.5568,0.740
67.016000,0.4599,-0.1592,0.5570,0.740
67.016000,0.4577,-0.1600,0.5572,0.739
67.016000,0.4551,-0.1606,0.5571,0.737
67.016000,0.4523,-0.1609,0.5569,0.735
67.016000,0.4496,-0.1609,0.5564,0.733
67.016000,0.4473,-0.1608,0.5559,0.731
67.016000,0.4453,-0.1606,0.5551,0.730
67.017000,0.4437,-0.1601,0.5542,0.728
67.017000,0.4426,-0.1596,0.5533,0.726
67.017000,0.5497,-0.0994,0.5262,0.767
67.017000,0.4085,-0.1880,0.4562,0.641
67.017000,0.3331,-0.2406,0.4033,0.576
67.017000,0.3269,-0.2311,0.3600,0.538
67.017000,0.3250,-0.2076,0.4342,0.581
67.017000,0.3366,-0.2132,0.3939,0.560
67.018000,0.3237,-0.2502,0.3683,0.550
67.018000,0.3510,-0.2733,0.3670,0.577
67.018000,0.3275,-0.2944,0.3660,0.573
67.018000,0.3706,-0.2824,0.2937,0.551
67.018000,0.3985,-0.2781,0.2247,0.535
67.018000,0.4142,-0.2431,0.1968,0.519
67.018000,0.4323,-0.2415,0.1500,0.517
67.018000,0.4339,-0.2303,0.1106,0.503
67.019000,0.4763,-0.2355,0.0357,0.532
67.019000,0.5140,-0.2260,-0.0128,0.562
67.019000,0.5898,-0.2114,-0.0281,0.627
67.019000,0.6488,-0.1679,0.0276,0.671
67.019000,0.6769,-0.1813,0.1275,0.712
67.019000,0.7106,-0.1432,0.1827,0.748
67.019000,0.6779,-0.1599,0.1825,0.720
67.019000,0.6219,-0.1695,0.2111,0.678
67.020000,0.5547,-0.2437,0.2516,0.656
78.895000,0.3308,-0.3974,0.1970,0.553
78.896000,0.2282,-0.4214,0.1900,0.515
78.896000,0.1039,-0.4670,0.0779,0.485
78.896000,0.0243,-0.5270,0.0162,0.528
78.897000,-0.0514,-0.5437,0.0598,0.549
78.897000,-0.0868,-0.5363,0.1031,0.553
78.897000,-0.0651,-0.5049,0.1702,0.537
78.897000,0.0378,-0.4997,0.2132,0.545
78.898000,0.1357,-0.4778,0.2395,0.551
78.898000,0.1761,-0.4321,0.2705,0.539
78.898000,0.1783,-0.4055,0.2225,0.496
78.899000,0.2042,-0.3694,0.1651,0.453
78.899000,0.2826,-0.3621,0.1460,0.482
78.899000,0.3731,-0.3188,0.1795,0.523
78.899000,0.4514,-0.2898,0.1913,0.570
78.899000,0.4747,-0.2680,0.2222,0.589
78.899000,0.4219,-0.2606,0.3416,0.602
78.900000,0.3312,-0.2890,0.2838,0.523
78.900000,0.2670,-0.2933,0.2570,0.473
78.900000,0.2032,-0.3526,0.3139,0.514
78.900000,0.1490,-0.4331,0.2439,0.519
78.900000,0.0952,-0.4511,0.2240,0.513
78.901000,0.0273,-0.4832,0.2230,0.533
78.901000,0.0552,-0.5007,0.2553,0.565
78.901000,0.0614,-0.4944,0.2518,0.558
78.901000,0.1126,-0.4810,0.3010,0.578
78.901000,0.1752,-0.4608,0.3696,0.616
78.901000,0.2086,-0.4148,0.3476,0.580
78.902000,0.2248,-0.4029,0.3357,0.571
78.902000,0.2718,-0.3938,0.2978,0.564
78.902000,0.2281,-0.3853,0.2390,0.508
78.902000,0.2010,-0.3770,0.0942,0.438
78.902000,0.1429,-0.4235,-0.1174,0.462
78.902000,0.0963,-0.3789,-0.2309,0.454
78.903000,0.0947,-0.3577,-0.3113,0.484
78.903000,0.1548,-0.3096,-0.2867,0.450
78.903000,0.2628,-0.2778,-0.1336,0.405
78.903000,0.3708,-0.2169,-0.0193,0.430
78.903000,0.4167,-0.1963,0.0803,0.468
78.903000,0.4440,-0.1494,0.1844,0.503
78.904000,0.4574,-0.1216,0.2213,0.522
78.904000,0.4690,-0.1367,0.2342,0.542
78.904000,0.4687,-0.1279,0.2375,0.541
78.904000,0.3853,-0.1238,0.2359,0.468
78.905000,0.3502,-0.1579,0.2319,0.449
78.905000,0.2914,-0.2086,0.2398,0.431
78.905000,0.1847,-0.2451,0.2023,0.368
78.905000,0.1326,-0.2601,0.1842,0.345
78.905000,0.0750,-0.2825,0.2069,0.358
78.905000,0.1005,-0.3096,0.2582,0.416
78.906000,0.0851,-0.3321,0.3145,0.465
78.906000,0.1366,-0.3094,0.3685,0.500
78.906000,0.1425,-0.2963,0.4009,0.518
78.906000,0.1963,-0.2642,0.4142,0.529
78.906000,0.2549,-0.2227,0.3966,0.521
78.906000,0.3325,-0.2031,0.3696,0.537
78.907000,0.4173,-0.1239,0.4242,0.608
78.907000,0.4471,-0.0737,0.4238,0.620
78.907000,0.4678,-0.0810,0.3733,0.604
78.907000,0.4503,-0.0934,0.2967,0.547
78.907000,0.4117,-0.0749,0.2515,0.488
78.908000,0.3470,-0.1351,0.1990,0.422
78.908000,0.3113,-0.1234,0.1871,0.384
78.908000,0.2783,-0.1282,0.2014,0.367
78.908000,0.2432,-0.1687,0.1724,0.343
78.908000,0.2303,-0.2185,0.1241,0.341
78.908000,0.2100,-0.2322,0.0160,0.313
78.909000,0.1821,-0.2431,-0.0229,0.305
78.909000,0.1803,-0.2299,0.0528,0.297
78.909000,0.2762,-0.2045,0.1762,0.386
78.909000,0.3454,-0.1912,0.2372,0.461
78.909000,0.4094,-0.1757,0.2912,0.532
78.909000,0.5163,-0.1440,0.3814,0.658
78.910000,0.5873,-0.1367,0.4312,0.741
78.910000,0.6058,-0.1587,0.3953,0.741
78.910000,0.5622,-0.1308,0.3453,0.673
78.910000,0.4758,-0.1127,0.2479,0.548
78.910000,0.4232,-0.1594,0.1936,0.492
78.911000,0.3302,-0.2273,0.0844,0.410
78.911000,0.2659,-0.2544,-0.0536,0.372
78.911000,0.2184,-0.2453,-0.0864,0.340
78.911000,0.1972,-0.2500,-0.0980,0.333
78.911000,0.2117,-0.2711,-0.0239,0.345
78.911000,0.2548,-0.2417,0.0499,0.355
78.912000,0.3148,-0.2771,0.0918,0.429
78.912000,0.3624,-0.2551,0.0691,0.449
78.912000,0.3692,-0.2260,0.1129,0.447
78.912000,0.3713,-0.2256,0.1587,0.463
78.912000,0.3709,-0.2370,0.2160,0.490
78.912000,0.3419,-0.2248,0.2492,0.479
78.913000,0.3204,-0.2269,0.2821,0.483
78.913000,0.3132,-0.2482,0.2270,0.460
78.913000,0.2512,-0.2861,0.2225,0.441
78.913000,0.2417,-0.3049,0.2229,0.448
78.913000,0.1943,-0.3000,0.2044,0.412
78.913000,0.1802,-0.2879,0.2477,0.420
78.914000,0.2610,-0.2948,0.2622,0.473
78.914000,0.2746,-0.2661,0.2789,0.473
78.914000,0.2714,-0.2852,0.2623,0.473
78.914000,0.2732,-0.2422,0.2837,0.462
78.914000,0.3251,-0.2614,0.3952,0.575
78.914000,0.2961,-0.2616,0.4370,0.589
78.915000,0.2816,-0.2594,0.4689,0.605
78.915000,0.2505,-0.2481,0.4749,0.591
78.915000,0.2099,-0.2658,0.4169,0.537
78.915000,0.1934,-0.2787,0.3619,0.496
78.915000,0.1651,-0.2559,0.3335,0.452
78.915000,0.1916,-0.2595,0.2935,0.436
78.916000,0.1942,-0.2391,0.3131,0.439
78.916000,0.2275,-0.2546,0.3112,0.462
78.916000,0.2157,-0.2128,0.2641,0.402
78.916000,0.2039,-0.2024,0.2246,0.365
78.916000,0.2373,-0.1803,0.2306,0.377
78.917000,0.2564,-0.1893,0.1583,0.356
78.917000,0.2444,-0.1887,0.0770,0.318
78.917000,0.2279,-0.1999,0.0415,0.306
78.917000,0.2113,-0.2394,-0.0271,0.320
78.917000,0.2041,-0.2356,-0.1545,0.348
78.918000,0.2677,-0.2365,-0.1291,0.380
78.918000,0.3539,-0.2016,-0.0280,0.408
78.918000,0.4725,-0.1528,0.0984,0.506
78.918000,0.5119,-0.1142,0.2715,0.591
78.918000,0.4990,-0.0977,0.3746,0.632
78.918000,0.4914,-0.1078,0.3585,0.618
78.919000,0.3941,-0.1232,0.2763,0.497
78.919000,0.2719,-0.1600,0.1642,0.356
78.919000,0.1773,-0.1631,0.0268,0.242
78.919000,0.1404,-0.1897,-0.1572,0.284
78.919000,0.0850,-0.1561,-0.2997,0.348
78.919000,0.0252,-0.2004,-0.3443,0.399
78.920000,0.0253,-0.1794,-0.3441,0.389
78.920000,0.0013,-0.1735,-0.3492,0.390
78.920000,-0.0041,-0.1886,-0.2829,0.340
78.920000,0.0496,-0.1674,-0.1860,0.255
78.920000,0.1266,-0.1531,-0.0773,0.213
78.920000,0.1958,-0.1195,0.0143,0.230
78.921000,0.3005,-0.0814,0.1705,0.355
78.921000,0.4242,-0.0721,0.3051,0.527
78.921000,0.5170,-0.0223,0.4540,0.688
78.921000,0.5362,-0.0519,0.5982,0.805
78.921000,0.4726,-0.0198,0.6326,0.790
78.922000,0.4456,-0.0672,0.6052,0.755
78.922000,0.3784,-0.1102,0.5160,0.649
78.922000,0.3044,-0.1465,0.3603,0.494
78.922000,0.2522,-0.1566,0.2217,0.370
78.922000,0.1376,-0.1474,0.0999,0.225
78.922000,0.0921,-0.1595,0.0881,0.204
78.923000,0.1015,-0.1331,0.1192,0.205
78.923000,0.1274,-0.1592,0.1836,0.274
78.923000,0.1390,-0.1852,0.3196,0.395
78.923000,0.1918,-0.1468,0.4603,0.520
78.923000,0.2351,-0.1683,0.5603,0.630
78.923000,0.2096,-0.1925,0.6340,0.695
78.924000,0.1773,-0.1956,0.5837,0.641
78.924000,0.1646,-0.1945,0.4455,0.513
78.924000,0.0540,-0.2272,0.2048,0.311
78.924000,-0.0374,-0.2623,0.0098,0.265
78.924000,-0.0884,-0.2469,-0.0439,0.266
78.924000,-0.0779,-0.2790,-0.2006,0.352
78.925000,-0.1064,-0.2892,-0.2259,0.382
78.925000,-0.0759,-0.2752,-0.2418,0.374
78.925000,-0.0293,-0.2511,-0.1456,0.292
78.925000,0.0338,-0.2435,-0.0642,0.254
78.925000,0.1135,-0.2429,0.0696,0.277
78.925000,0.1693,-0.2661,0.1243,0.339
78.925000,0.2371,-0.2678,0.2172,0.418
78.926000,0.2740,-0.2122,0.2406,0.422
78.926000,0.3016,-0.2021,0.2616,0.448
78.926000,0.2628,-0.2065,0.2564,0.421
78.926000,0.2317,-0.2228,0.2273,0.394
78.926000,0.2250,-0.2752,0.2055,0.411
78.926000,0.1636,-0.2750,0.1957,0.375
78.926000,0.1093,-0.2774,0.1168,0.320
78.927000,0.0356,-0.2944,0.0717,0.305
78.927000,-0.0432,-0.2899,0.0362,0.295
78.927000,0.0091,-0.2783,-0.0039,0.278
78.927000,0.0154,-0.2858,-0.0511,0.291
78.927000,0.0452,-0.2931,-0.0578,0.302
78.927000,0.1059,-0.2860,-0.1003,0.321
78.927000,0.1164,-0.2689,-0.0906,0.307
78.928000,0.1462,-0.2321,-0.0335,0.276
78.928000,0.1356,-0.2428,0.0853,0.291
78.928000,0.1278,-0.2509,0.1800,0.334
78.928000,0.1584,-0.2423,0.2100,0.358
78.928000,0.1555,-0.2385,0.1993,0.347
78.928000,0.1026,-0.2419,0.1839,0.321
78.928000,0.0878,-0.2456,0.1758,0.315
78.928000,0.0899,-0.2323,0.1892,0.313
78.929000,0.1827,-0.2288,0.1811,0.344
78.929000,0.2371,-0.1490,0.2545,0.378
78.929000,0.2747,-0.1364,0.3902,0.496
78.929000,0.2238,-0.1528,0.4039,0.486
78.929000,0.2479,-0.1256,0.4007,0.488
78.929000,0.3002,-0.0949,0.4269,0.530
78.929000,0.3215,-0.0860,0.3936,0.515
78.930000,0.2476,-0.1132,0.3245,0.424
78.930000,0.1930,-0.1071,0.2270,0.317
78.930000,0.1266,-0.1297,0.1056,0.210
78.930000,0.1031,-0.1042,-0.0205,0.148
78.930000,0.0743,-0.0977,-0.1035,0.161
78.930000,0.1358,-0.0860,-0.0624,0.172
78.930000,0.1802,-0.0835,-0.0264,0.200
78.930000,0.2681,-0.0706,0.0306,0.279
78.931000,0.3173,-0.0530,0.1392,0.351
78.931000,0.3475,-0.0544,0.2302,0.420
78.931000,0.3281,-0.0582,0.2920,0.443
78.931000,0.3543,-0.0574,0.2466,0.436
78.931000,0.3118,-0.0877,0.1662,0.364
78.931000,0.2437,-0.1156,0.0912,0.285
78.931000,0.2546,-0.1314,0.0074,0.287
78.932000,0.2133,-0.1185,-0.0330,0.246
78.932000,0.2055,-0.1339,-0.0567,0.252
78.932000,0.1670,-0.1159,-0.0613,0.212
78.932000,0.1643,-0.1313,-0.0183,0.211
78.933000,0.1685,-0.1205,0.0410,0.211
78.933000,0.1961,-0.1052,0.0858,0.239
78.933000,0.1900,-0.0904,0.0782,0.224
78.933000,0.1742,-0.0736,-0.0241,0.191
78.933000,0.1415,-0.0949,-0.1185,0.208
78.933000,0.0995,-0.1157,-0.1126,0.190
78.933000,0.1099,-0.1075,-0.1259,0.199
78.933000,0.1394,-0.1132,-0.0564,0.188
78.934000,0.1166,-0.1186,0.0147,0.167
78.934000,0.1441,-0.0902,0.0777,0.187
78.934000,0.1243,-0.1165,0.1471,0.225
78.934000,0.1691,-0.1308,0.1780,0.278
78.934000,0.1588,-0.1354,0.1849,0.279
78.934000,0.1415,-0.1331,0.1871,0.270
78.934000,0.1313,-0.1237,0.2084,0.276
78.935000,0.1684,-0.1004,0.2249,0.298
78.935000,0.1314,-0.0870,0.2462,0.292
78.935000,0.2036,-0.0599,0.2772,0.349
78.935000,0.2062,-0.0429,0.2632,0.337
78.935000,0.2277,-0.0337,0.2282,0.324
78.935000,0.1967,-0.0437,0.1344,0.242
78.935000,0.1710,-0.0345,0.1267,0.216
78.936000,0.1339,-0.0513,0.0596,0.155
78.936000,0.0763,-0.1295,0.0165,0.151
78.936000,0.0407,-0.1473,0.0328,0.156
78.936000,-0.0086,-0.1670,0.0369,0.171
78.936000,-0.0479,-0.2006,0.0717,0.218
78.936000,-0.0751,-0.1793,0.0302,0.197
78.936000,-0.1072,-0.2057,0.0105,0.232
78.937000,-0.0730,-0.2106,0.0076,0.223
78.937000,-0.0253,-0.1895,0.0453,0.196
78.937000,0.0098,-0.1807,0.0615,0.191
78.937000,0.0256,-0.1533,-0.0195,0.157
78.937000,0.0218,-0.1596,-0.1068,0.193
78.937000,0.0128,-0.1564,-0.2194,0.270
78.937000,0.0487,-0.1411,-0.2315,0.275
78.938000,0.1315,-0.0688,-0.2271,0.271
78.938000,0.1661,-0.0158,-0.1611,0.232
78.938000,0.2054,0.0062,-0.0508,0.212
78.938000,0.2065,-0.0074,-0.0128,0.207
78.938000,0.2010,-0.0040,0.0269,0.203
78.938000,0.1722,0.0306,0.0543,0.183
78.938000,0.1513,-0.0108,0.1024,0.183
78.938000,0.1026,-0.0490,0.1997,0.230
78.939000,0.1309,-0.0392,0.2912,0.322
78.939000,0.1167,-0.0104,0.3106,0.332
78.939000,0.1170,-0.0387,0.3986,0.417
78.939000,0.1056,-0.0574,0.4765,0.491
78.939000,0.1370,-0.0575,0.5256,0.546
78.939000,0.1540,-0.0200,0.5320,0.554
78.939000,0.1754,-0.0096,0.5839,0.610
78.940000,0.1678,-0.0380,0.5528,0.579
78.940000,0.1351,-0.0577,0.4760,0.498
78.940000,0.0973,-0.0923,0.3591,0.383
78.940000,0.0903,-0.0865,0.2834,0.310
78.940000,0.1048,-0.0906,0.2103,0.252
78.940000,0.1018,-0.0726,0.1647,0.207
78.940000,0.0609,-0.0641,0.0862,0.123
78.941000,0.0397,-0.0959,0.0130,0.105
78.941000,-0.0002,-0.1155,-0.0193,0.117
78.941000,-0.0327,-0.1465,-0.0563,0.160
78.941000,-0.0773,-0.1187,-0.1224,0.187
78.941000,-0.0263,-0.0861,-0.1813,0.202
78.941000,0.0458,-0.0892,-0.2234,0.245
78.941000,0.0935,-0.0635,-0.2848,0.306
78.942000,0.1194,-0.0495,-0.3295,0.354
78.942000,0.1976,-0.0114,-0.3122,0.370
78.942000,0.2157,-0.0138,-0.2687,0.345
78.942000,0.2169,-0.0183,-0.2494,0.331
78.942000,0.2682,-0.0156,-0.2253,0.351
78.942000,0.2930,-0.0244,-0.1443,0.327
78.942000,0.2940,-0.0209,-0.0468,0.298
78.943000,0.3288,-0.0818,0.0766,0.347
78.943000,0.3257,-0.0659,0.1926,0.384
78.943000,0.3329,-0.0692,0.3396,0.481
78.943000,0.3072,-0.0775,0.4003,0.511
78.943000,0.2608,-0.1029,0.4230,0.507
78.943000,0.1814,-0.1263,0.4053,0.462
78.943000,0.1501,-0.1357,0.3162,0.375
78.943000,0.0855,-0.1408,0.2132,0.269
78.944000,0.0398,-0.1606,0.0987,0.193
78.944000,0.0128,-0.1663,0.0109,0.167
78.944000,-0.0194,-0.1434,-0.1174,0.186
78.944000,-0.0162,-0.1492,-0.2503,0.292
78.944000,-0.0185,-0.1286,-0.3615,0.384
78.944000,-0.0119,-0.1149,-0.3939,0.410
78.944000,-0.0034,-0.1078,-0.3548,0.371
78.945000,0.0576,-0.0812,-0.3210,0.336
78.945000,0.0898,-0.1068,-0.2636,0.298
78.945000,0.1012,-0.0889,-0.2210,0.259
78.945000,0.0914,-0.0613,-0.1882,0.218
78.945000,0.1177,-0.0859,-0.2562,0.295
78.945000,0.0915,-0.0934,-0.2335,0.268
78.945000,0.1251,-0.0838,-0.1393,0.205
78.946000,0.1658,-0.0502,-0.0549,0.182
78.946000,0.2423,-0.0356,0.0053,0.245
78.946000,0.2567,-0.0400,0.0654,0.268
78.946000,0.2520,-0.0422,0.1422,0.292
78.946000,0.2235,-0.0351,0.2311,0.323
78.946000,0.1593,-0.0426,0.2771,0.322
78.946000,0.0926,-0.0746,0.2516,0.278
78.947000,0.0568,-0.1259,0.2217,0.261
78.947000,0.0185,-0.1441,0.2065,0.253
78.947000,-0.0200,-0.1530,0.1796,0.237
78.947000,-0.0159,-0.1356,0.1432,0.198
78.947000,-0.0045,-0.1088,0.1380,0.176
78.947000,-0.0147,-0.0868,0.1185,0.148
78.947000,-0.0080,-0.0864,0.1301,0.156
78.948000,-0.0132,-0.0789,0.0915,0.121
78.948000,-0.0183,-0.0593,0.0218,0.066
78.948000,0.0171,-0.0828,-0.0598,0.104
78.948000,0.0570,-0.0295,-0.0554,0.085
78.948000,0.1014,0.0025,0.0111,0.102
78.948000,0.1292,-0.0014,0.0080,0.129
78.948000,0.1497,-0.0147,0.0431,0.156
78.948000,0.2016,0.0103,0.0924,0.222
78.949000,0.1987,0.0161,0.0987,0.222
78.949000,0.1434,-0.0187,0.1456,0.205
78.949000,0.0692,-0.0248,0.1709,0.186
78.949000,0.0095,-0.0428,0.1722,0.178
78.949000,0.0119,-0.0537,0.1713,0.180
78.949000,0.0096,-0.0816,0.1537,0.174
78.949000,0.0669,-0.0975,0.1721,0.209
78.949000,0.0808,-0.0704,0.1667,0.198
78.950000,0.1057,-0.0077,0.1650,0.196
78.950000,0.1492,-0.0217,0.1754,0.231
78.950000,0.1925,0.0021,0.1741,0.260
78.950000,0.1953,-0.0197,0.1397,0.241
78.950000,0.1910,-0.0722,0.1199,0.237
78.950000,0.1845,-0.0485,0.0814,0.207
78.950000,0.1853,-0.0250,-0.0161,0.188
78.951000,0.2287,-0.0206,-0.0346,0.232
78.951000,0.2006,0.0220,-0.0411,0.206
78.951000,0.1586,0.0051,-0.0004,0.159
78.951000,0.1245,-0.0232,0.0540,0.138
78.951000,0.1006,-0.0393,0.0367,0.114
78.951000,0.0440,-0.0956,0.0716,0.127
78.951000,0.0213,-0.0967,0.0184,0.101
78.952000,0.0057,-0.0694,-0.0368,0.079
78.952000,0.0351,-0.0281,-0.0344,0.057
78.952000,0.0593,-0.0180,-0.0487,0.079
78.952000,0.0930,-0.0198,-0.0582,0.111
78.952000,0.1429,0.0046,-0.0011,0.143
78.952000,0.1661,-0.0377,0.0270,0.172
78.952000,0.1868,-0.0060,0.0525,0.194
78.953000,0.1765,-0.0009,0.0968,0.201
78.953000,0.2210,-0.0006,0.1385,0.261
78.953000,0.1894,-0.0218,0.1205,0.226
78.953000,0.1133,-0.0500,0.1313,0.180
78.953000,0.0238,-0.1279,0.1300,0.184
78.953000,-0.0602,-0.1505,0.1216,0.203
78.953000,-0.1479,-0.1750,0.1369,0.267
78.953000,-0.1824,-0.1946,0.1188,0.292
78.954000,-0.2306,-0.2140,0.1222,0.338
78.954000,-0.2974,-0.2167,0.0638,0.373
78.954000,-0.2760,-0.2170,-0.0060,0.351
78.967000,-0.3148,-0.2386,-0.0632,0.400
78.967000,-0.3038,-0.1960,-0.1104,0.378
78.968000,-0.2745,-0.1752,-0.1737,0.369
78.968000,-0.2342,-0.1761,-0.2222,0.368
78.968000,-0.1782,-0.1557,-0.3034,0.385
78.968000,-0.0521,-0.1567,-0.3103,0.352
78.968000,0.0465,-0.0628,-0.2816,0.292
78.969000,0.0819,-0.0122,-0.2247,0.239
78.969000,0.1452,0.0073,-0.1778,0.230
78.969000,0.2485,0.0647,-0.1030,0.277
78.969000,0.3085,0.0767,-0.0337,0.320
78.969000,0.2973,0.1078,0.0206,0.317
78.969000,0.2744,0.1063,0.0246,0.295
78.969000,0.2854,0.0837,0.1025,0.315
78.970000,0.2087,0.0470,0.1919,0.287
78.970000,0.1614,0.0608,0.3026,0.348
78.970000,0.1172,0.0388,0.3843,0.404
78.970000,0.0809,-0.0021,0.4275,0.435
78.970000,0.0188,-0.0432,0.4230,0.426
78.970000,-0.0573,-0.0627,0.4112,0.420
78.970000,-0.1047,-0.0825,0.4069,0.428
78.971000,-0.0996,-0.0645,0.3528,0.372
78.971000,-0.0882,-0.0446,0.3326,0.347
78.971000,-0.0967,-0.0635,0.3392,0.358
78.971000,-0.0340,-0.0543,0.3510,0.357
78.971000,-0.0056,-0.0336,0.3106,0.313
78.971000,0.0581,-0.0087,0.3066,0.312
78.971000,0.0711,0.0132,0.2265,0.238
78.972000,0.0530,-0.0152,0.1586,0.168
78.972000,0.0708,0.0207,0.1124,0.134
78.972000,0.0913,0.0231,0.0950,0.134
78.972000,0.0763,0.0209,0.0439,0.090
78.972000,0.0472,-0.0050,-0.0455,0.066
78.972000,0.0235,-0.0280,-0.1041,0.110
78.972000,0.0382,-0.0267,-0.1749,0.181
78.972000,0.0099,-0.0225,-0.2292,0.231
78.973000,-0.0041,-0.0202,-0.2289,0.230
78.973000,0.0537,-0.0129,-0.1522,0.162
78.973000,0.0876,-0.0246,-0.1163,0.148
78.973000,0.1740,-0.0195,-0.0806,0.193
78.974000,0.2030,0.0094,-0.0424,0.208
78.974000,0.1983,0.0143,-0.0185,0.200
78.974000,0.2055,0.0189,-0.0256,0.208
78.974000,0.2080,-0.0220,-0.0421,0.213
78.974000,0.1531,-0.0750,-0.0704,0.184
78.974000,0.0769,-0.0947,-0.1416,0.187
78.975000,0.0580,-0.0857,-0.2270,0.249
78.975000,0.0028,-0.1149,-0.2932,0.315
78.975000,-0.0432,-0.1009,-0.3522,0.369
78.975000,-0.0393,-0.1129,-0.2990,0.322
78.975000,0.0074,-0.0910,-0.2963,0.310
78.975000,0.0087,-0.0712,-0.2581,0.268
78.975000,0.0150,-0.0773,-0.2297,0.243
78.976000,0.0261,-0.0928,-0.1610,0.188
78.976000,0.0326,-0.0722,-0.1474,0.167
78.976000,0.0773,-0.0442,-0.0958,0.131
78.976000,0.1242,-0.0258,-0.0179,0.128
78.976000,0.1759,-0.0241,0.0430,0.183
78.976000,0.1678,0.0040,0.1899,0.253
78.976000,0.1791,-0.0206,0.2769,0.330
78.976000,0.1432,-0.0571,0.3302,0.364
78.977000,0.1317,-0.0723,0.3406,0.372
78.977000,0.0151,-0.0660,0.3797,0.386
78.977000,-0.0223,-0.0768,0.4118,0.420
78.977000,-0.0932,-0.1237,0.4369,0.464
78.977000,-0.1447,-0.1205,0.3450,0.393
78.977000,-0.2034,-0.1605,0.3058,0.401
78.978000,-0.2215,-0.2077,0.2908,0.420
78.978000,-0.2803,-0.1999,0.2256,0.412
78.978000,-0.2939,-0.1707,0.1797,0.384
78.978000,-0.2337,-0.2112,0.1459,0.347
78.978000,-0.2194,-0.1848,0.0837,0.299
78.978000,-0.1816,-0.1371,0.0194,0.228
78.978000,-0.1061,-0.1111,0.0126,0.154
78.978000,-0.0596,-0.1163,-0.0037,0.131
78.979000,-0.0084,-0.0903,0.0088,0.091
78.979000,0.0333,-0.0669,-0.0888,0.116
78.979000,0.0438,-0.0339,-0.1599,0.169
78.979000,0.0326,-0.0366,-0.1450,0.153
78.979000,0.1173,-0.0318,-0.1184,0.170
78.979000,0.1161,0.0020,-0.0778,0.140
78.979000,0.0866,-0.0286,-0.0685,0.114
78.980000,0.0288,-0.0660,0.0051,0.072
78.980000,0.0145,-0.0577,0.0522,0.079
78.980000,0.0028,-0.0709,0.0919,0.116
78.980000,-0.0041,-0.0650,0.1843,0.195
78.980000,-0.0015,-0.0329,0.2718,0.274
78.980000,0.0131,-0.0395,0.2734,0.277
78.981000,-0.0201,-0.0056,0.2800,0.281
78.981000,-0.0054,-0.0461,0.2723,0.276
78.981000,-0.0220,-0.0460,0.1739,0.181
78.981000,-0.0603,-0.0174,0.1595,0.171
78.981000,-0.0293,-0.0224,0.1738,0.178
78.981000,-0.0058,0.0014,0.1378,0.138
78.981000,-0.0136,-0.0273,0.1258,0.129
78.981000,0.0457,-0.0225,0.1471,0.156
78.982000,0.0978,0.0135,0.1637,0.191
78.982000,0.1380,0.0159,0.1802,0.228
78.982000,0.1879,0.0399,0.1847,0.266
78.982000,0.2431,0.0705,0.2021,0.324
78.982000,0.2788,0.0674,0.2480,0.379
78.982000,0.3002,0.0737,0.3079,0.436
78.982000,0.3408,0.0796,0.2891,0.454
78.983000,0.3455,0.0851,0.2708,0.447
78.983000,0.3029,0.0901,0.1699,0.359
78.983000,0.2655,0.0496,0.0249,0.271
78.983000,0.1916,0.0669,-0.0623,0.212
78.983000,0.1750,0.0722,-0.1279,0.228
78.983000,0.1464,0.0179,-0.1241,0.193
78.983000,0.1393,-0.0218,-0.1157,0.182
78.984000,0.1132,-0.0374,-0.1266,0.174
78.984000,0.0991,-0.0409,-0.1519,0.186
78.984000,0.0542,-0.0537,-0.1845,0.200
78.984000,0.0522,-0.0351,-0.2125,0.222
78.984000,0.0716,-0.0499,-0.2382,0.254
78.984000,0.1126,-0.0307,-0.2570,0.282
78.985000,0.1152,-0.0208,-0.2259,0.254
78.985000,0.1343,0.0085,-0.2261,0.263
78.985000,0.1453,-0.0026,-0.1299,0.195
78.985000,0.1966,-0.0351,0.0059,0.200
78.985000,0.1950,-0.0390,0.0292,0.201
78.985000,0.2123,-0.0907,0.0478,0.236
78.985000,0.2743,-0.0711,0.0428,0.287
78.985000,0.2287,-0.0566,0.0618,0.244
78.986000,0.1714,-0.0637,0.0426,0.188
78.986000,0.1290,-0.0684,0.0997,0.177
78.986000,0.0944,-0.0684,0.1183,0.166
78.986000,0.0770,-0.1113,0.0751,0.155
78.986000,0.0502,-0.1016,0.0370,0.119
78.986000,-0.0214,-0.1061,0.0016,0.108
78.986000,-0.0569,-0.0939,0.0020,0.110
78.987000,-0.0470,-0.0936,0.0047,0.105
78.987000,-0.0466,-0.1026,0.0049,0.113
78.987000,-0.0413,-0.1255,-0.0545,0.143
78.987000,-0.0502,-0.1031,-0.0849,0.143
78.987000,-0.1021,-0.1142,-0.1554,0.218
78.987000,-0.0971,-0.0870,-0.2586,0.290
78.987000,-0.0929,-0.0671,-0.2660,0.290
78.988000,-0.0824,-0.0494,-0.1572,0.184
78.988000,-0.0103,-0.0316,-0.0685,0.076
78.988000,0.0542,-0.0374,0.0121,0.067
78.988000,0.0424,-0.0596,0.1038,0.127
78.988000,0.0098,-0.0936,0.1710,0.195
78.988000,0.1177,-0.0943,0.2211,0.268
78.988000,0.2129,-0.0262,0.2686,0.344
78.989000,0.2791,0.0244,0.2352,0.366
78.989000,0.2762,0.0080,0.2614,0.380
78.989000,0.2454,0.0249,0.2970,0.386
78.989000,0.1655,-0.0246,0.3059,0.349
78.989000,0.0821,-0.0453,0.3860,0.397
78.989000,-0.0668,-0.0897,0.3611,0.378
78.989000,-0.1479,-0.1316,0.3034,0.362
78.990000,-0.1811,-0.1570,0.2630,0.356
78.990000,-0.2027,-0.1445,0.2233,0.334
78.990000,-0.1653,-0.1562,0.2365,0.328
78.990000,-0.1144,-0.1133,0.1832,0.244
78.990000,-0.0734,-0.0971,0.2017,0.236
78.990000,-0.0446,-0.1026,0.1584,0.194
78.990000,-0.0420,-0.0844,0.0824,0.125
78.991000,-0.0845,-0.0785,-0.0356,0.121
78.991000,-0.0485,-0.0679,-0.1287,0.153
78.991000,-0.0533,-0.0668,-0.2592,0.273
78.991000,-0.0277,-0.0636,-0.3819,0.388
78.991000,0.0526,-0.0648,-0.3852,0.394
78.991000,0.1112,-0.0107,-0.3241,0.343
78.991000,0.1579,-0.0064,-0.2827,0.324
78.992000,0.1710,-0.0089,-0.2296,0.286
78.992000,0.2227,0.0032,-0.1743,0.283
78.992000,0.2386,0.0536,-0.1407,0.282
78.992000,0.2689,0.0850,-0.0977,0.298
78.992000,0.2443,0.0781,-0.0692,0.266
78.992000,0.2607,0.0379,-0.0121,0.264
78.992000,0.2297,0.0385,0.0136,0.233
78.993000,0.1898,0.0465,0.0583,0.204
78.993000,0.1264,-0.0027,0.0717,0.145
78.993000,0.0202,-0.0807,0.1211,0.147
78.993000,-0.0452,-0.0798,0.0724,0.117
78.993000,-0.0989,-0.0791,0.0024,0.127
78.993000,-0.1383,-0.0880,0.0235,0.166
78.993000,-0.0824,-0.0899,-0.0056,0.122
78.994000,-0.0504,-0.0681,-0.0034,0.085
78.994000,0.0003,-0.0967,-0.0895,0.132
78.994000,0.0076,-0.0751,-0.1611,0.178
78.994000,-0.0239,-0.0200,-0.1848,0.187
78.994000,0.0279,-0.0032,-0.2251,0.227
78.994000,0.0720,0.0329,-0.2321,0.245
78.994000,0.1446,0.0739,-0.1484,0.220
78.995000,0.2555,0.0721,0.0188,0.266
78.995000,0.3118,0.1327,0.1281,0.362
78.995000,0.2923,0.1166,0.1847,0.365
78.995000,0.2350,0.1006,0.2388,0.350
78.995000,0.1592,0.0533,0.2499,0.301
78.995000,0.1533,0.0703,0.1990,0.261
78.995000,0.1190,0.0562,0.1434,0.195
78.995000,0.0681,0.0110,0.1262,0.144
78.996000,0.0268,-0.0031,0.1066,0.110
78.996000,0.0047,0.0210,0.0823,0.085
78.996000,-0.0274,0.0092,0.0342,0.045
78.996000,-0.0621,-0.0217,0.0148,0.067
78.996000,-0.0922,-0.0383,0.0385,0.107
78.996000,-0.0843,-0.0550,0.0313,0.105
78.996000,-0.0856,-0.0619,0.0122,0.106
78.996000,-0.0684,-0.0523,-0.0589,0.104
78.997000,-0.0942,-0.0523,-0.1007,0.148
78.997000,-0.0227,-0.0331,-0.1092,0.116
78.997000,0.0481,-0.0020,-0.0798,0.093
78.997000,0.0711,0.0052,-0.0435,0.083
78.997000,0.0845,0.0097,-0.0264,0.089
78.997000,0.0671,-0.0094,-0.0736,0.100
78.997000,0.0285,-0.0522,-0.1393,0.151
78.998000,0.0375,-0.0211,-0.1974,0.202
78.998000,0.0391,-0.0020,-0.1980,0.202
78.998000,0.0474,-0.0162,-0.2106,0.216
78.998000,0.0698,-0.0347,-0.1520,0.171
78.998000,0.0563,-0.0219,-0.1037,0.120
78.998000,0.0832,-0.0305,-0.0203,0.091
78.998000,0.0910,-0.0341,0.0862,0.130
78.999000,0.1203,-0.0259,0.1513,0.195
78.999000,0.1069,-0.0059,0.1851,0.214
78.999000,0.0702,-0.0029,0.2259,0.237
78.999000,0.0961,-0.0594,0.2047,0.234
78.999000,0.0533,-0.0514,0.1362,0.155
78.999000,-0.0006,-0.0888,0.0470,0.100
78.999000,0.0098,-0.0879,0.0037,0.089
78.999000,-0.0726,-0.0704,-0.1152,0.153
79.000000,-0.1144,-0.0718,-0.1810,0.226
79.000000,-0.1109,-0.0849,-0.2036,0.247
79.000000,-0.0557,-0.0741,-0.1692,0.193
79.000000,-0.0083,-0.0727,-0.0543,0.091
79.000000,0.0484,-0.0499,-0.0236,0.073
79.000000,0.0404,-0.0558,-0.0216,0.072
79.000000,0.0443,-0.0737,-0.0124,0.087
79.001000,0.0768,-0.0654,-0.0815,0.130
79.001000,0.0733,-0.0714,-0.1193,0.157
79.001000,0.1077,-0.0345,-0.1022,0.152
79.001000,0.1276,0.0237,-0.0664,0.146
79.001000,0.1783,0.0057,-0.0239,0.180
79.001000,0.1790,0.0448,0.0514,0.192
79.001000,0.1252,0.0172,0.0881,0.154
79.002000,0.1032,0.0064,0.1077,0.149
79.002000,0.0673,-0.0089,0.1604,0.174
79.002000,0.0438,-0.0361,0.1913,0.200
79.002000,-0.0314,-0.0465,0.1721,0.181
79.003000,-0.1296,-0.0949,0.1841,0.244
79.003000,-0.1532,-0.1192,0.1674,0.256
79.003000,-0.1693,-0.1006,0.0893,0.216
79.003000,-0.1785,-0.0965,-0.0048,0.203
79.003000,-0.1834,-0.0854,-0.0482,0.208
79.003000,-0.1578,-0.0933,-0.0484,0.190
79.003000,-0.0712,-0.0299,-0.0534,0.094
79.003000,0.0237,-0.0289,-0.0463,0.060
79.004000,0.0745,0.0338,-0.0084,0.082
79.004000,0.0918,0.0699,0.0742,0.137
79.004000,0.0806,0.0793,0.0851,0.142
79.004000,0.1007,0.0601,0.0153,0.118
79.004000,0.0757,0.0602,-0.0328,0.102
79.004000,0.0582,0.0510,-0.0592,0.097
79.005000,-0.0090,0.0324,-0.0498,0.060
79.005000,-0.0423,0.0284,-0.0549,0.075
79.005000,-0.0324,0.0103,-0.0742,0.082
79.005000,-0.0014,-0.0147,-0.0959,0.097
79.005000,0.0244,0.0010,-0.0628,0.067
79.005000,0.0499,0.0142,-0.0704,0.087
79.005000,0.1533,0.0297,-0.0019,0.156
79.006000,0.1867,0.0877,0.0447,0.211
79.006000,0.2319,0.0975,0.1576,0.297
79.006000,0.2392,0.0975,0.2127,0.335
79.006000,0.2468,0.1043,0.2604,0.374
79.006000,0.2240,0.0821,0.2225,0.326
79.006000,0.1707,0.0741,0.1163,0.219
79.006000,0.1486,0.0802,0.0182,0.170
79.007000,0.0532,0.0885,-0.1051,0.147
79.007000,-0.0059,0.0991,-0.1347,0.167
79.007000,-0.0030,0.1335,-0.1903,0.233
79.007000,-0.0503,0.0562,-0.2147,0.228
79.007000,-0.0786,0.0795,-0.1963,0.226
79.007000,-0.0762,0.0981,-0.2280,0.260
79.007000,-0.0929,0.0717,-0.2052,0.236
79.008000,-0.0456,0.0554,-0.1494,0.166
79.008000,0.0346,0.1010,-0.0847,0.136
79.008000,0.1309,0.0991,-0.0232,0.166
79.008000,0.1815,0.1020,0.0568,0.216
79.008000,0.1943,0.1262,0.1123,0.257
79.008000,0.1931,0.1193,0.1579,0.276
79.008000,0.2161,0.1052,0.2079,0.318
79.009000,0.2082,0.0909,0.2292,0.323
79.009000,0.1554,0.0668,0.2222,0.279
79.009000,0.0934,0.0450,0.2297,0.252
79.009000,0.0202,0.0065,0.2254,0.226
79.009000,-0.0383,-0.0033,0.2117,0.215
79.009000,-0.1057,-0.0345,0.2244,0.250
79.009000,-0.1107,-0.0418,0.2347,0.263
79.009000,-0.1893,-0.1084,0.2639,0.342
79.010000,-0.2598,-0.0961,0.2548,0.376
79.010000,-0.2775,-0.1029,0.2008,0.358
79.010000,-0.2834,-0.1478,0.1401,0.349
79.010000,-0.2869,-0.1401,0.1108,0.338
79.010000,-0.2693,-0.1229,0.0724,0.305
79.010000,-0.2144,-0.0919,0.0747,0.245
79.010000,-0.1722,-0.0706,0.0676,0.198
79.011000,-0.1521,-0.0638,0.0654,0.177
79.011000,-0.1085,-0.0881,0.0775,0.160
79.011000,-0.0916,-0.0627,-0.0003,0.111
79.011000,-0.0655,-0.0709,-0.0087,0.097
79.011000,-0.0352,-0.0719,-0.0382,0.089
79.011000,-0.0169,-0.0350,-0.0722,0.082
79.011000,0.0441,-0.0411,-0.1131,0.128
79.011000,0.0692,-0.0351,-0.1514,0.170
79.012000,0.0854,-0.0196,-0.1669,0.189
79.012000,0.0682,-0.0110,-0.1946,0.207
79.012000,0.0822,0.0194,-0.1197,0.146
79.012000,0.1035,0.0166,-0.1025,0.147
79.012000,0.1133,0.0283,-0.0497,0.127
79.012000,0.0855,0.0117,0.0076,0.087
79.012000,0.0201,-0.0119,-0.0238,0.033
79.013000,-0.0634,-0.0421,-0.0337,0.083
79.013000,-0.1292,-0.0814,-0.0531,0.162
79.013000,-0.1994,-0.0941,-0.0653,0.230
79.013000,-0.1885,-0.1018,-0.0038,0.214
79.013000,-0.2043,-0.0837,-0.0044,0.221
79.013000,-0.2062,-0.1230,-0.0237,0.241
79.013000,-0.1968,-0.1172,-0.0687,0.239
79.014000,-0.2189,-0.1236,-0.1272,0.282
79.014000,-0.2224,-0.0874,-0.2042,0.314
79.014000,-0.1624,-0.0825,-0.1783,0.255
79.014000,-0.0653,-0.0658,-0.1929,0.214
79.014000,0.0094,-0.0324,-0.2170,0.220
79.014000,0.1475,0.0294,-0.2030,0.253
79.014000,0.2277,0.0554,-0.1372,0.272
79.014000,0.2863,0.0697,-0.0200,0.295
79.015000,0.2882,0.0871,0.0320,0.303
79.015000,0.2215,0.0903,0.0408,0.243
79.015000,0.2225,0.0746,0.0184,0.235
79.015000,0.1415,0.0538,0.0149,0.152
79.015000,0.0662,0.0190,0.0208,0.072
79.015000,0.0127,0.0130,0.0718,0.074
79.015000,-0.0333,0.0070,0.1153,0.120
79.016000,-0.0459,-0.0157,0.1396,0.148
79.016000,-0.0398,-0.0076,0.1021,0.110
79.016000,-0.0483,0.0003,0.1078,0.118
79.016000,-0.0287,0.0175,0.0828,0.089
79.016000,0.0140,0.0413,0.0843,0.095
79.016000,0.0632,0.0790,0.0694,0.123
79.016000,0.0998,0.0686,0.0998,0.157
79.017000,0.1289,0.0820,0.0399,0.158
79.017000,0.2102,0.0785,-0.0052,0.224
79.017000,0.2103,0.0988,0.0214,0.233
79.017000,0.1892,0.0929,-0.0213,0.212
79.017000,0.1519,0.0658,-0.0922,0.189
79.017000,0.1127,0.0889,-0.0890,0.169
79.018000,0.1240,0.0812,-0.0955,0.176
79.018000,0.1637,0.0549,-0.0785,0.190
79.018000,0.2292,0.0931,-0.0308,0.249
79.018000,0.2802,0.1120,0.0472,0.305
79.018000,0.2859,0.1260,0.1578,0.350
79.018000,0.2512,0.1373,0.1751,0.336
79.018000,0.2431,0.0839,0.2258,0.342
79.019000,0.1948,0.0759,0.2074,0.295
79.019000,0.0806,0.0414,0.1752,0.197
79.019000,0.0147,-0.0073,0.1909,0.192
79.019000,-0.0222,-0.0249,0.1093,0.114
79.019000,-0.0756,-0.0402,0.0190,0.088
79.019000,-0.1262,-0.0743,-0.0088,0.147
79.019000,-0.1860,-0.0986,-0.0934,0.230
79.020000,-0.2312,-0.1060,-0.1654,0.303
79.020000,-0.1979,-0.1107,-0.2014,0.303
79.020000,-0.1913,-0.0938,-0.2895,0.359
79.020000,-0.1543,-0.0909,-0.2892,0.340
79.020000,-0.0919,-0.0617,-0.2156,0.242
79.020000,-0.0018,-0.0278,-0.1355,0.138
79.020000,0.0899,0.0131,-0.0846,0.124
79.021000,0.1546,0.0442,0.0250,0.163
79.021000,0.1314,0.0369,0.1007,0.170
79.021000,0.1038,0.0152,0.0856,0.135
79.021000,0.0647,-0.0231,0.0424,0.081
79.021000,0.0570,-0.0351,-0.0171,0.069
79.021000,0.0231,-0.0209,0.0046,0.032
79.021000,-0.0390,-0.0494,-0.0023,0.063
79.021000,-0.0364,-0.0348,0.0001,0.050
79.022000,-0.0741,-0.0486,0.0546,0.104
79.022000,-0.0805,-0.0860,0.0540,0.130
79.022000,-0.1222,-0.0897,0.0533,0.161
79.022000,-0.1114,-0.0840,0.0360,0.144
79.022000,-0.0654,-0.0902,0.0617,0.127
79.022000,0.0012,-0.0633,0.0731,0.097
79.022000,0.0077,-0.0605,0.1010,0.118
79.023000,0.0166,-0.0483,0.1574,0.165
79.023000,0.0325,-0.0293,0.1706,0.176
79.023000,0.0223,-0.0392,0.1816,0.187
79.023000,-0.0140,-0.0493,0.1119,0.123
79.023000,-0.0429,-0.0452,0.0168,0.065
79.023000,-0.0432,-0.0341,0.0009,0.055
79.023000,-0.0078,-0.0182,-0.0505,0.054
79.024000,0.0323,-0.0048,-0.0469,0.057
79.024000,0.0463,-0.0128,-0.0601,0.077
79.024000,0.0176,-0.0277,-0.1540,0.157
79.024000,-0.0151,-0.0208,-0.1952,0.197
79.024000,-0.0334,-0.0304,-0.1768,0.182
79.024000,-0.0516,-0.0349,-0.2395,0.247
79.024000,-0.0555,-0.0201,-0.2353,0.243
79.025000,-0.0145,-0.0478,-0.1958,0.202
79.025000,0.0213,-0.0464,-0.1355,0.145
79.025000,0.0191,-0.0522,-0.0260,0.061
79.025000,-0.0089,-0.0980,0.0232,0.101
79.025000,-0.0697,-0.1246,0.0672,0.158
79.025000,-0.1205,-0.1654,0.1158,0.235
79.025000,-0.1710,-0.1659,0.0717,0.249
79.025000,-0.1955,-0.1598,-0.0452,0.256
79.026000,-0.2252,-0.1586,-0.1254,0.303
79.026000,-0.1293,-0.1409,-0.1526,0.245
79.026000,-0.1320,-0.1162,-0.1748,0.248
79.026000,-0.0920,-0.0680,-0.2206,0.249
79.026000,-0.0073,-0.0177,-0.2233,0.224
79.026000,-0.0398,-0.0034,-0.2831,0.286
79.026000,-0.0202,0.0466,-0.2902,0.295
79.026000,0.0608,0.0537,-0.2357,0.249
79.026000,0.1245,0.1013,-0.1747,0.237
79.027000,0.2044,0.1206,-0.1573,0.285
79.027000,0.2961,0.1545,-0.0598,0.339
79.027000,0.3192,0.1720,0.0697,0.369
79.027000,0.3265,0.1542,0.1646,0.397
79.027000,0.3014,0.1532,0.2679,0.431
79.027000,0.2581,0.1406,0.3133,0.430
79.027000,0.1254,0.0898,0.3229,0.358
79.027000,0.0887,0.0866,0.2946,0.320
79.027000,0.0048,0.0454,0.3164,0.320
79.028000,-0.0243,0.0161,0.3503,0.351
79.028000,-0.0393,-0.0326,0.3916,0.395
79.028000,-0.0357,-0.0458,0.4835,0.487
79.028000,-0.0298,-0.0573,0.4945,0.499
79.028000,-0.0769,-0.0744,0.4057,0.420
79.028000,-0.1079,-0.0612,0.2722,0.299
79.028000,-0.1610,-0.0320,0.1537,0.225
79.028000,-0.1306,-0.0198,0.0285,0.135
79.028000,-0.0886,-0.0532,-0.1060,0.148
79.029000,-0.0803,-0.0146,-0.2190,0.234
79.029000,-0.0049,-0.0068,-0.3321,0.332
79.029000,0.0323,0.0063,-0.3714,0.373
79.029000,0.0577,0.0392,-0.3872,0.393
79.029000,0.1289,0.0750,-0.3890,0.417
79.029000,0.1451,0.1040,-0.3817,0.421
79.029000,0.1589,0.0974,-0.3578,0.403
79.029000,0.1658,0.1104,-0.3272,0.383
79.030000,0.1583,0.0664,-0.2394,0.295
79.030000,0.1270,0.0227,-0.2093,0.246
79.030000,0.0816,0.0030,-0.1865,0.204
79.030000,0.0458,-0.0213,-0.1113,0.122
79.030000,-0.0236,-0.0576,-0.0480,0.079
79.030000,-0.0357,-0.0053,-0.0111,0.038
79.030000,0.0357,-0.0057,-0.0102,0.038
79.030000,0.1118,0.0106,0.0123,0.113
79.030000,0.1306,0.0077,0.0731,0.150
79.031000,0.1184,0.0263,0.0740,0.142
79.031000,0.1301,0.0519,0.0966,0.170
79.031000,0.1253,0.0341,0.1073,0.169
79.031000,0.0965,0.0185,0.0059,0.098
79.031000,0.0458,-0.0260,-0.0904,0.105
79.031000,0.0520,0.0300,-0.1148,0.130
79.031000,0.1249,0.0739,-0.0675,0.160
79.031000,0.1162,0.0627,0.0038,0.132
79.031000,0.1244,0.0465,0.0512,0.142
79.032000,0.2260,0.0756,0.1106,0.263
79.032000,0.2751,0.0782,0.1390,0.318
79.032000,0.2767,0.0662,0.1388,0.317
79.032000,0.2165,0.0852,0.0957,0.252
79.032000,0.1259,0.0733,0.0141,0.146
79.032000,0.0501,0.0423,-0.0411,0.077
79.032000,-0.0660,-0.0050,-0.0846,0.107
79.032000,-0.1027,-0.0327,-0.1403,0.177
79.032000,-0.1635,-0.0169,-0.1556,0.226
79.033000,-0.1885,-0.0486,-0.0826,0.211
79.033000,-0.2039,-0.0778,-0.0049,0.218
79.033000,-0.1981,-0.0615,0.0534,0.214
79.033000,-0.1446,-0.0428,0.0806,0.171
79.033000,-0.1129,-0.0579,0.0769,0.148
79.033000,-0.0789,-0.0230,0.0806,0.115
79.033000,-0.0572,-0.0387,0.1084,0.129
79.033000,-0.0406,-0.0043,0.1316,0.138
79.033000,0.0450,-0.0013,0.1191,0.127
79.034000,0.0702,0.0679,0.0941,0.136
79.034000,0.0858,0.1103,0.1526,0.207
79.034000,0.0633,0.1235,0.1775,0.225
79.034000,0.0793,0.1057,0.1619,0.209
79.034000,0.0359,0.1069,0.1632,0.198
79.034000,0.0383,0.0889,0.1882,0.212
79.034000,0.0194,0.1042,0.1586,0.191
79.034000,0.0175,0.0552,0.1007,0.116
79.034000,-0.0197,0.0826,0.0765,0.114
79.034000,-0.0303,0.1123,0.0714,0.137
79.035000,-0.0072,0.1088,0.0021,0.109
79.035000,0.0446,0.0913,0.0565,0.116
79.035000,0.0824,0.1146,0.0486,0.149
79.035000,0.0942,0.1093,0.0453,0.151
79.035000,0.0826,0.0734,0.0514,0.122
79.035000,0.0477,0.0809,0.0738,0.119
79.035000,0.0014,0.0908,0.1149,0.146
79.035000,0.0010,0.0555,0.1105,0.124
79.035000,0.0438,0.0159,0.1156,0.125
79.036000,-0.0108,0.0241,0.1110,0.114
79.036000,-0.0579,-0.0059,0.0972,0.113
79.036000,-0.0619,-0.0596,0.0907,0.125
79.036000,-0.0516,-0.0418,0.0774,0.102
79.036000,-0.0059,-0.0341,0.0763,0.084
79.036000,-0.0608,-0.0195,-0.0125,0.065
79.036000,-0.0630,-0.0553,-0.0623,0.104
79.036000,-0.0510,-0.0599,-0.1187,0.142
79.036000,-0.0487,-0.0573,-0.2151,0.228
79.036000,-0.0608,-0.0569,-0.2086,0.225
79.037000,-0.0088,-0.0327,-0.1715,0.175
79.037000,-0.0169,-0.0322,-0.1799,0.184
79.037000,-0.0134,-0.0195,-0.1291,0.131
79.037000,-0.0265,-0.0401,-0.0764,0.090
79.037000,-0.0753,-0.0343,-0.0218,0.086
79.037000,-0.0408,-0.0549,0.0609,0.092
79.037000,-0.1065,-0.0850,0.0672,0.152
79.037000,-0.1031,-0.0749,0.0357,0.132
79.038000,-0.1498,-0.1219,-0.0571,0.201
79.038000,-0.1494,-0.1047,-0.0565,0.191
79.038000,-0.1427,-0.1162,-0.0960,0.208
79.038000,-0.1152,-0.0969,-0.0757,0.169
79.038000,-0.0719,-0.0995,-0.0767,0.145
79.038000,0.0465,-0.0595,-0.0846,0.113
79.038000,0.0518,-0.0747,-0.0472,0.102
79.038000,0.0547,-0.0329,-0.0717,0.096
79.038000,0.0765,-0.0151,-0.0628,0.100
79.038000,0.0773,-0.0307,-0.0897,0.122
79.039000,0.0712,-0.0199,-0.1520,0.169
79.039000,0.0653,-0.0588,-0.2093,0.227
79.039000,0.0239,-0.0591,-0.2022,0.212
79.039000,-0.0266,-0.0615,-0.2049,0.216
79.039000,-0.0007,-0.0469,-0.1746,0.181
79.039000,-0.0225,-0.0463,-0.0997,0.112
79.039000,-0.0133,-0.0455,-0.0659,0.081
79.039000,0.0007,-0.0493,-0.0016,0.049
79.039000,0.0217,-0.0103,0.0740,0.078
79.040000,0.0260,-0.0241,0.1063,0.112
79.040000,-0.0126,-0.0165,0.0792,0.082
79.040000,0.0323,-0.0140,0.0453,0.057
79.040000,0.0126,-0.0187,-0.0286,0.036
79.040000,-0.0118,-0.0330,-0.0852,0.092
79.041000,0.0233,-0.0140,-0.1128,0.116
79.041000,0.0437,-0.0164,-0.1354,0.143
79.041000,0.0757,-0.0164,-0.1460,0.165
79.041000,0.0739,0.0455,-0.1210,0.149
79.041000,0.0719,0.0263,-0.1201,0.142
79.041000,0.0889,-0.0069,-0.1097,0.141
79.041000,0.1225,0.0078,-0.0497,0.132
79.041000,0.1203,0.0226,0.0050,0.122
79.042000,0.0971,0.0135,0.0876,0.131
79.042000,0.0842,-0.0025,0.1671,0.187
79.043000,0.0625,-0.0091,0.2318,0.240
79.043000,0.0011,0.0034,0.2033,0.203
79.043000,-0.0170,-0.0107,0.1160,0.118
79.043000,-0.0823,-0.0415,0.0342,0.098
79.045000,-0.0974,-0.0080,-0.0681,0.119
79.045000,-0.1194,-0.0151,-0.2029,0.236
79.045000,-0.1465,-0.0173,-0.3199,0.352
79.045000,-0.1359,0.0091,-0.3863,0.410
79.045000,-0.1285,0.0024,-0.4545,0.472
79.045000,-0.1029,0.0173,-0.4061,0.419
79.046000,-0.0019,0.0489,-0.3439,0.347
79.046000,0.1311,0.1017,-0.2111,0.269
79.046000,0.1987,0.1329,-0.1245,0.270
79.046000,0.2542,0.1640,-0.0413,0.305
79.046000,0.2717,0.1430,0.0813,0.318
79.047000,0.2517,0.1318,0.2123,0.355
79.047000,0.2162,0.1209,0.2660,0.363
79.047000,0.1629,0.1148,0.3145,0.372
79.047000,0.1037,0.0827,0.2913,0.320
79.047000,0.0622,0.0436,0.3466,0.355
79.047000,-0.0142,0.0216,0.3350,0.336
79.048000,-0.1279,0.0043,0.2500,0.281
79.048000,-0.1738,-0.0344,0.2442,0.302
79.048000,-0.2022,-0.0736,0.2523,0.332
79.048000,-0.2262,-0.1107,0.2152,0.331
79.048000,-0.2340,-0.0692,0.1881,0.308
79.048000,-0.2139,-0.0856,0.1876,0.297
79.049000,-0.1898,-0.1097,0.1780,0.282
79.049000,-0.1377,-0.0770,0.1331,0.206
79.049000,-0.1124,-0.0424,0.1172,0.168
79.049000,-0.0516,-0.0202,0.1136,0.126
79.049000,0.0115,-0.0172,0.0312,0.037
79.049000,0.0293,-0.0024,-0.0702,0.076
79.049000,-0.0054,0.0053,-0.1787,0.179
79.050000,-0.0091,0.0325,-0.2730,0.275
79.050000,-0.0221,0.0459,-0.2767,0.281
79.050000,0.0345,0.0480,-0.2426,0.250
79.050000,0.1205,0.0387,-0.2115,0.246
79.050000,0.1665,0.0754,-0.1306,0.225
79.050000,0.1605,0.0504,-0.0598,0.179
79.051000,0.1955,0.0689,-0.0348,0.210
79.051000,0.1474,0.0778,0.0236,0.168
79.051000,0.0946,0.0506,0.0414,0.115
79.051000,0.0657,0.0256,0.0402,0.081
79.051000,0.1011,-0.0021,0.0871,0.134
79.051000,0.1123,0.0008,0.1034,0.153
79.052000,0.0681,-0.0303,0.0625,0.097
79.052000,0.0020,-0.0450,0.0005,0.045
79.052000,-0.0261,-0.0169,-0.0851,0.091
79.052000,-0.0904,-0.0080,-0.1132,0.145
79.052000,-0.0973,-0.0375,-0.1580,0.189
79.052000,-0.1260,-0.0451,-0.2148,0.253
79.053000,-0.1356,-0.0262,-0.3291,0.357
79.053000,-0.1047,-0.0522,-0.3647,0.383
79.053000,-0.1050,0.0037,-0.3577,0.373
79.053000,-0.0407,0.0053,-0.2292,0.233
79.053000,0.0526,0.0481,-0.0727,0.102
79.053000,0.1370,0.0718,0.0500,0.163
79.053000,0.1452,0.0790,0.1581,0.229
79.054000,0.1660,0.0549,0.2351,0.293
79.054000,0.1298,0.0043,0.2141,0.250
79.054000,0.0699,0.0035,0.1910,0.203
79.054000,-0.0285,-0.0072,0.1371,0.140
79.054000,-0.0744,-0.0086,0.0381,0.084
79.054000,-0.0993,-0.0270,-0.0079,0.103
79.055000,-0.0817,-0.0286,-0.0157,0.088
79.055000,-0.0946,-0.0276,0.0741,0.123
79.055000,-0.0859,-0.0407,0.1772,0.201
79.055000,-0.0963,-0.0728,0.2060,0.239
79.055000,-0.0684,-0.0810,0.2370,0.260
79.055000,-0.0906,-0.0989,0.2228,0.260
79.055000,-0.1007,-0.1025,0.1827,0.232
79.056000,-0.0988,-0.0943,0.1881,0.232
79.056000,-0.0852,-0.0721,0.1532,0.190
79.056000,-0.0386,-0.0906,0.1520,0.181
79.056000,-0.0092,-0.0474,0.1794,0.186
79.056000,-0.0158,-0.0357,0.2139,0.217
79.056000,0.0155,-0.0173,0.1653,0.167
79.057000,-0.0104,-0.0089,0.1172,0.118
79.057000,-0.0077,-0.0078,0.1315,0.132
79.057000,-0.0264,-0.0519,0.0412,0.071
79.057000,-0.0686,-0.0293,-0.0934,0.119
79.057000,-0.1009,-0.0354,-0.1746,0.205
79.057000,-0.0880,-0.0460,-0.2386,0.258
79.057000,-0.0447,-0.0110,-0.3000,0.303
79.058000,0.0382,0.0194,-0.2638,0.267
79.058000,0.0871,0.0617,-0.2020,0.228
79.058000,0.1952,0.0993,-0.1458,0.263
79.058000,0.2696,0.0798,-0.0498,0.286
79.058000,0.2727,0.0794,0.0548,0.289
79.059000,0.2334,0.0934,0.0612,0.259
79.059000,0.1661,0.0574,0.0200,0.177
79.059000,0.0975,0.0217,-0.0399,0.108
79.059000,0.0343,-0.0112,-0.0519,0.063
79.059000,0.0074,-0.0365,-0.0735,0.082
79.059000,-0.0076,-0.0425,-0.0522,0.068
79.060000,0.0389,-0.0556,-0.0120,0.069
79.060000,0.0729,-0.0307,0.0280,0.084
79.060000,0.0899,0.0010,0.0937,0.130
79.060000,0.0687,-0.0081,0.1899,0.202
79.060000,0.0430,-0.0292,0.1004,0.113
79.060000,-0.0063,-0.0695,0.0853,0.110
79.061000,-0.0529,-0.0858,0.0682,0.122
79.061000,-0.1136,-0.0975,-0.0413,0.155
79.061000,-0.1528,-0.0971,-0.0620,0.191
79.061000,-0.1254,-0.1084,-0.0637,0.178
79.061000,-0.0817,-0.0910,-0.0678,0.140
79.061000,-0.0456,-0.0714,-0.0718,0.111
79.061000,0.0046,-0.0710,-0.0141,0.073
79.062000,-0.0048,-0.0254,-0.0353,0.044
79.062000,0.0381,-0.0206,-0.0800,0.091
79.062000,0.0498,0.0057,-0.1079,0.119
79.062000,0.0618,0.0201,-0.1594,0.172
79.062000,0.0951,-0.0272,-0.1915,0.216
79.062000,0.0854,-0.0100,-0.2045,0.222
79.063000,0.0448,0.0217,-0.1891,0.196
79.063000,0.0542,0.0368,-0.1455,0.160
79.063000,0.0754,0.0042,-0.1094,0.133
79.063000,0.0278,-0.0065,-0.0287,0.040
79.063000,0.0498,-0.0503,-0.0436,0.083
79.063000,0.0172,-0.0581,-0.0276,0.067
79.063000,-0.0269,-0.0612,-0.0259,0.072
79.064000,-0.0304,-0.0594,-0.0338,0.075
79.064000,-0.0173,-0.0267,-0.0416,0.052
79.064000,-0.0234,0.0010,-0.0636,0.068
79.064000,0.0038,0.0166,-0.0641,0.066
79.064000,0.0376,-0.0225,-0.0338,0.055
79.064000,0.0518,0.0385,-0.0203,0.068
79.065000,0.0253,0.0634,0.0168,0.070
79.065000,0.0391,0.0761,0.1083,0.138
79.065000,0.0361,0.0458,0.1967,0.205
79.065000,0.0619,0.0274,0.2870,0.295
79.065000,0.0523,0.0280,0.3529,0.358
79.065000,0.0264,0.0069,0.3187,0.320
79.066000,0.0013,-0.0024,0.1947,0.195
79.066000,-0.0424,0.0024,0.1099,0.118
79.066000,-0.1047,-0.0119,-0.0074,0.106
79.066000,-0.1499,-0.0068,-0.1145,0.189
79.066000,-0.1380,-0.0157,-0.1187,0.183
79.066000,-0.1455,-0.0362,-0.0779,0.169
79.066000,-0.1220,-0.0252,-0.0615,0.139
79.067000,-0.0683,-0.0190,0.0331,0.078
79.067000,-0.0769,-0.0224,0.1056,0.133
79.067000,-0.0690,-0.0022,0.1680,0.182
79.067000,-0.0302,-0.0038,0.2468,0.249
79.067000,-0.0393,0.0135,0.2538,0.257
79.067000,-0.0244,0.0066,0.2134,0.215
79.068000,0.0261,0.0017,0.2141,0.216
79.068000,0.0643,0.0275,0.1365,0.153
79.068000,0.0691,0.0766,0.0692,0.124
79.068000,0.0595,0.0540,0.0097,0.081
79.068000,0.0617,0.0838,-0.0754,0.128
79.068000,0.0284,0.0895,-0.0909,0.131
79.068000,-0.0117,0.0644,-0.1515,0.165
79.069000,-0.0352,0.0350,-0.2235,0.229
79.069000,-0.0468,0.0203,-0.2287,0.234
79.069000,-0.0942,0.0416,-0.1627,0.193
79.069000,-0.0604,0.0369,-0.1972,0.210
79.069000,-0.0790,0.0491,-0.1129,0.146
79.069000,-0.0691,0.0543,-0.0628,0.108
79.069000,-0.0308,0.0310,-0.0059,0.044
79.070000,0.0264,0.0389,0.0266,0.054
79.070000,0.0667,0.0539,0.0826,0.119
79.070000,0.1379,0.0807,0.1191,0.199
79.070000,0.1923,0.0620,0.0889,0.221
79.070000,0.1656,0.0814,0.0542,0.192
79.070000,0.1011,0.0720,0.0128,0.125
79.071000,0.0656,0.0673,0.0288,0.098
79.071000,0.0252,0.0578,0.0376,0.073
79.071000,0.0038,0.0435,0.0726,0.085
79.071000,-0.0675,0.0149,0.0980,0.120
79.071000,-0.1006,-0.0304,0.0758,0.130
79.071000,-0.1407,-0.0638,0.0375,0.159
79.071000,-0.1926,-0.0923,-0.0098,0.214
79.072000,-0.1730,-0.0825,-0.0331,0.195
79.072000,-0.1444,-0.0538,-0.0467,0.161
79.072000,-0.1067,-0.0394,-0.0508,0.125
79.072000,-0.0384,0.0033,-0.0097,0.040
79.072000,0.0267,0.0076,-0.0306,0.041
79.072000,0.0345,0.0118,-0.0394,0.054
79.072000,0.0660,0.0135,-0.1431,0.158
79.073000,0.0685,-0.0110,-0.2008,0.212
79.073000,0.1278,0.0384,-0.2128,0.251
79.073000,0.1604,0.0044,-0.2202,0.272
79.073000,0.2282,0.0469,-0.1801,0.295
79.073000,0.3099,0.0963,-0.1073,0.342
79.073000,0.3129,0.0860,-0.0327,0.326
79.073000,0.2690,0.0758,-0.0016,0.279
79.074000,0.2567,0.0563,0.0767,0.274
79.074000,0.1907,0.0562,0.0758,0.213
79.074000,0.0998,0.0087,0.0416,0.108
79.074000,0.0031,-0.0099,0.0219,0.024
79.075000,-0.0876,-0.0496,-0.0192,0.102
79.075000,-0.1916,-0.0578,-0.1052,0.226
79.075000,-0.2355,-0.0918,-0.1765,0.308
79.075000,-0.2912,-0.1037,-0.1809,0.358
79.075000,-0.3353,-0.1295,-0.1594,0.393
79.075000,-0.2872,-0.1075,-0.0692,0.314
79.076000,-0.2520,-0.0881,0.0368,0.270
79.076000,-0.1916,-0.0811,0.1352,0.248
79.076000,-0.1298,-0.0673,0.2139,0.259
79.076000,-0.0877,-0.0707,0.2283,0.255
79.076000,-0.0507,-0.0483,0.2665,0.276
79.076000,-0.0140,-0.0265,0.2786,0.280
79.076000,-0.0013,-0.0313,0.1958,0.198
79.077000,-0.0052,-0.0340,0.1448,0.149
79.077000,-0.0541,0.0013,0.0871,0.103
79.077000,-0.0433,0.0007,0.0773,0.089
79.077000,-0.0347,0.0144,0.0914,0.099
79.077000,-0.0164,0.0139,0.0862,0.089
79.077000,-0.0076,0.0517,0.1141,0.125
79.078000,0.0226,0.0393,0.0847,0.096
79.078000,0.0265,0.0531,0.1339,0.147
79.078000,0.0686,0.0526,0.1970,0.215
79.078000,0.0558,0.0494,0.2360,0.247
79.078000,0.0383,0.0769,0.2179,0.234
79.078000,0.0114,0.0680,0.1812,0.194
79.078000,-0.0250,0.0708,0.1024,0.127
79.079000,-0.0015,0.0426,-0.0137,0.045
79.079000,0.0430,0.0453,-0.1049,0.122
79.079000,0.0137,0.0341,-0.1767,0.180
79.079000,0.0037,0.0350,-0.1744,0.178
79.079000,-0.0013,0.0788,-0.1888,0.205
79.079000,0.0033,0.0370,-0.2436,0.246
79.080000,-0.0184,0.0361,-0.3005,0.303
79.080000,-0.0375,0.0332,-0.3548,0.358
79.080000,-0.0210,0.0472,-0.3471,0.351
79.080000,0.0500,0.0732,-0.2803,0.294
79.080000,0.1545,0.0688,-0.1751,0.243
79.080000,0.1799,0.1123,-0.1298,0.249
79.080000,0.2269,0.1343,-0.0535,0.269
79.081000,0.1738,0.1154,0.0300,0.211
79.081000,0.1471,0.0870,0.0583,0.181
79.081000,0.1327,0.0703,0.0533,0.159
79.081000,0.0610,0.0463,0.0557,0.095
79.081000,-0.0175,0.0221,0.0078,0.029
79.081000,-0.1217,0.0004,-0.0729,0.142
79.082000,-0.1751,-0.0520,-0.0959,0.206
79.082000,-0.2023,-0.1252,-0.1497,0.281
79.082000,-0.1655,-0.1123,-0.1604,0.256
79.082000,-0.1007,-0.0921,-0.1140,0.178
79.082000,-0.0462,-0.0698,-0.0800,0.116
79.082000,-0.0180,-0.0452,-0.0367,0.061
79.082000,0.0406,-0.0209,0.0490,0.067
79.083000,0.0963,0.0220,0.0225,0.101
79.083000,0.1585,0.0597,0.0747,0.185
79.083000,0.2465,0.0756,0.1075,0.279
79.083000,0.2701,0.0794,0.1662,0.327
79.083000,0.3202,0.0901,0.1604,0.369
79.083000,0.2969,0.0628,0.1119,0.323
79.083000,0.2151,0.0689,0.1065,0.250
79.084000,0.0869,0.0679,0.0228,0.113
79.084000,0.0054,0.0503,-0.0105,0.052
79.084000,-0.0661,-0.0073,-0.0293,0.073
79.084000,-0.1229,-0.0478,-0.0979,0.164
79.084000,-0.1533,-0.0830,-0.1826,0.252
79.084000,-0.1886,-0.0656,-0.1979,0.281
79.085000,-0.1789,-0.0601,-0.2131,0.285
79.085000,-0.1506,-0.0283,-0.2021,0.254
79.085000,-0.1540,-0.0252,-0.1747,0.234
79.085000,-0.0749,-0.0148,-0.1333,0.154
79.085000,-0.0135,0.0097,-0.0851,0.087
79.085000,0.0164,0.0457,-0.0135,0.050
79.086000,0.0650,0.0457,0.0529,0.095
79.086000,0.0423,0.0077,0.0617,0.075
79.086000,0.0153,-0.0112,0.1276,0.129
79.086000,0.0223,-0.0276,0.1003,0.106
79.086000,0.0202,-0.0296,0.1017,0.108
79.086000,-0.0076,-0.0484,0.0296,0.057
79.086000,-0.0777,-0.0788,-0.0206,0.113
79.087000,-0.0949,-0.0520,-0.0846,0.137
79.087000,-0.1050,-0.0372,-0.1314,0.172
79.087000,-0.1389,-0.0534,-0.2254,0.270
79.087000,-0.1608,-0.0290,-0.2499,0.299
79.087000,-0.1663,-0.0686,-0.2790,0.332
79.087000,-0.1389,-0.0175,-0.3223,0.351
79.087000,-0.1169,0.0096,-0.3392,0.359
79.087000,-0.0716,0.0248,-0.2848,0.295
79.088000,-0.0388,0.0400,-0.2120,0.219
79.088000,0.0152,0.0456,-0.1683,0.175
79.088000,0.0545,0.0536,-0.1512,0.169
79.088000,0.0985,0.0522,-0.0892,0.143
79.088000,0.1378,0.0581,-0.0824,0.171
79.088000,0.1366,0.0640,-0.0046,0.151
79.088000,0.1119,0.1031,0.0821,0.173
79.089000,0.0593,0.0541,0.1514,0.171
79.089000,0.0429,0.0670,0.1680,0.186
79.089000,0.0055,0.0771,0.1753,0.192
79.089000,-0.0600,0.0537,0.1588,0.178
79.089000,-0.0964,0.0375,0.1260,0.163
79.089000,-0.1350,0.0093,0.1079,0.173
79.089000,-0.1758,0.0098,0.0471,0.182
79.089000,-0.1403,0.0152,0.0130,0.142
79.090000,-0.1004,0.0324,0.0099,0.106
79.090000,-0.0514,0.0852,-0.0026,0.099
79.090000,-0.0456,0.0805,-0.0151,0.094
79.090000,0.0266,0.1139,-0.0274,0.120
79.090000,0.0341,0.1351,-0.0942,0.168
79.090000,0.0319,0.1158,-0.1321,0.179
79.090000,0.0748,0.1467,-0.1222,0.205
79.091000,0.1265,0.1728,-0.1267,0.249
79.091000,0.2042,0.1678,-0.0293,0.266
79.091000,0.2364,0.1796,0.0175,0.297
79.091000,0.2948,0.1747,0.0235,0.343
79.091000,0.2583,0.1675,0.0175,0.308
79.091000,0.2202,0.1486,0.0257,0.267
79.091000,0.2279,0.1560,0.0409,0.279
79.091000,0.2576,0.1633,0.0584,0.311
79.092000,0.2044,0.1087,0.0734,0.243
79.092000,0.1306,0.1065,0.0576,0.178
79.092000,0.0672,0.0686,-0.0078,0.096
79.092000,0.0161,0.0734,-0.0914,0.118
79.092000,-0.0016,0.0565,-0.1742,0.183
79.092000,-0.0031,0.0513,-0.2939,0.298
79.092000,-0.0006,0.0793,-0.3936,0.401
79.092000,-0.0083,0.0808,-0.4259,0.434
79.093000,0.0360,0.1156,-0.4460,0.462
79.093000,0.1034,0.1718,-0.4852,0.525
79.093000,0.1463,0.1731,-0.5598,0.604
79.093000,0.1973,0.1952,-0.6290,0.688
79.093000,0.2005,0.2488,-0.6196,0.697
79.093000,0.2470,0.2576,-0.6562,0.747
79.094000,0.3418,0.2529,-0.6478,0.775
79.094000,0.3632,0.2584,-0.6161,0.760
79.094000,0.4545,0.2573,-0.5872,0.786
79.094000,0.4912,0.2757,-0.4989,0.752
79.094000,0.5258,0.2372,-0.4397,0.725
79.094000,0.5270,0.2515,-0.4357,0.729
79.094000,0.5019,0.2393,-0.3503,0.657
79.095000,0.4648,0.1841,-0.3247,0.596
79.095000,0.4372,0.1168,-0.3278,0.559
79.095000,0.3715,0.0589,-0.2541,0.454
79.095000,0.3012,0.0295,-0.2138,0.371
79.095000,0.2456,-0.0742,-0.2451,0.355
79.095000,0.1540,-0.1519,-0.3097,0.378
79.095000,0.0912,-0.1554,-0.4003,0.439
79.095000,0.0115,-0.1734,-0.4908,0.521
79.096000,0.0059,-0.1937,-0.5979,0.628
79.096000,-0.0358,-0.2044,-0.7575,0.785
79.096000,-0.0685,-0.1979,-0.9099,0.934
79.096000,-0.0492,-0.1646,-0.9645,0.980
79.096000,0.0101,-0.1309,-1.0481,1.056
79.096000,0.0730,-0.0727,-0.9908,0.996
79.097000,0.1659,-0.0237,-0.9052,0.921
79.097000,0.2795,0.0400,-0.8486,0.894
79.097000,0.4041,0.1398,-0.6632,0.789
79.097000,0.5643,0.1728,-0.5093,0.780
79.097000,0.7006,0.2731,-0.3893,0.847
79.097000,0.7914,0.3018,-0.2434,0.881
79.098000,0.8159,0.3332,-0.1265,0.890
79.098000,0.8150,0.3266,0.0163,0.878
79.098000,0.7650,0.3370,0.0487,0.837
79.098000,0.7327,0.3236,0.1144,0.809
79.098000,0.6630,0.2745,0.0914,0.723
79.098000,0.6579,0.2688,0.0301,0.711
79.098000,0.6339,0.2490,0.0763,0.685
79.098000,0.6076,0.2245,0.1989,0.678
79.099000,0.6175,0.2123,0.3499,0.741
79.099000,0.6372,0.2093,0.4435,0.804
79.099000,0.6286,0.1963,0.4919,0.822
79.099000,0.6104,0.1467,0.4522,0.774
79.099000,0.5656,0.1323,0.4132,0.713
79.099000,0.5086,0.1241,0.3677,0.640
79.099000,0.5275,0.1056,0.2438,0.591
79.100000,0.5772,0.1031,0.1350,0.602
79.100000,0.6192,0.0854,0.0054,0.625
79.100000,0.6371,0.1100,-0.1737,0.669
79.100000,0.6714,0.0982,-0.3092,0.746
79.100000,0.6936,0.1147,-0.4419,0.830
79.100000,0.6775,0.1404,-0.5838,0.905
79.100000,0.7283,0.1132,-0.7659,1.063
79.100000,0.7385,0.0740,-0.9239,1.185
79.101000,0.7203,0.0898,-1.1008,1.319
79.101000,0.6759,0.1059,-1.3086,1.477
79.101000,0.6122,0.1174,-1.4950,1.620
79.101000,0.5963,0.1439,-1.6958,1.803
79.101000,0.5827,0.2094,-1.8037,1.907
79.101000,0.5450,0.2543,-1.8762,1.970
79.102000,0.4619,0.2930,-1.8847,1.962
79.102000,0.4265,0.3279,-1.8605,1.937
79.102000,0.3671,0.3757,-1.7962,1.871
79.102000,0.2954,0.3838,-1.6873,1.755
79.102000,0.2521,0.4093,-1.5502,1.623
79.102000,0.1891,0.4067,-1.3420,1.415
79.103000,0.1591,0.3904,-1.2084,1.280
79.103000,0.1001,0.4317,-1.0968,1.183
79.103000,0.0858,0.4402,-0.9450,1.046
79.103000,0.0782,0.3895,-0.7603,0.858
79.103000,-0.0016,0.3824,-0.5379,0.660
79.103000,0.0143,0.3878,-0.2371,0.455
79.104000,0.0423,0.3791,0.0871,0.391
79.104000,0.0233,0.3035,0.4371,0.533
79.104000,0.0105,0.2657,0.7368,0.783
79.104000,-0.0344,0.2343,0.7474,0.784
79.104000,-0.1575,0.2016,0.6416,0.691
79.104000,-0.3163,0.1991,0.5031,0.627
79.105000,-0.3722,0.2218,0.3942,0.586
79.105000,-0.4089,0.2841,0.2597,0.562
79.105000,-0.4530,0.3501,0.0902,0.580
79.105000,-0.5429,0.4390,-0.1502,0.714
79.105000,-0.6380,0.4884,-0.4422,0.917
79.105000,-0.7817,0.5870,-0.7308,1.221
79.106000,-0.8981,0.6535,-1.0423,1.523
79.106000,-1.0208,0.7600,-1.3459,1.852
79.107000,-1.1719,0.8900,-1.6298,2.196
79.107000,-1.3271,0.9386,-1.8894,2.492
79.107000,-1.4075,0.9974,-2.0581,2.685
79.107000,-1.5154,1.0737,-2.1482,2.840
79.108000,-1.6103,1.1535,-2.2437,2.993
79.108000,-1.7398,1.2154,-2.2729,3.110
79.108000,-1.7779,1.3142,-2.2262,3.138
79.108000,-1.7991,1.4547,-2.1370,3.150
79.108000,-1.6434,1.5765,-1.9072,2.970
79.109000,-1.4200,1.7994,-1.8214,2.928
79.109000,-1.3103,1.9133,-1.7796,2.923
79.109000,-1.1526,1.8779,-1.3991,2.610
79.109000,-0.7290,1.9971,-1.0175,2.357
79.109000,-0.4547,2.1484,-0.9815,2.405
79.110000,-0.3818,2.1938,-0.9826,2.434
79.110000,-0.3400,2.1432,-0.7077,2.282
79.110000,-0.1740,2.2070,-0.3028,2.234
79.110000,-0.0748,2.2745,0.0145,2.276
79.110000,-0.0486,2.2020,0.3020,2.223
79.110000,-0.0859,2.0899,0.6650,2.195
79.110000,-0.1484,1.9829,0.8837,2.176
79.111000,-0.3274,1.8329,1.0305,2.128
79.111000,-0.4536,1.7514,1.1394,2.138
79.111000,-0.6184,1.6569,1.1890,2.131
79.111000,-0.7510,1.5583,1.0914,2.045
79.111000,-0.8781,1.4962,0.8850,1.948
79.111000,-0.9024,1.4202,0.4937,1.754
79.112000,-0.9918,1.4261,0.0394,1.738
79.112000,-1.1706,1.4854,-0.0355,1.892
79.112000,-1.2945,1.4499,-0.1142,1.947
79.112000,-1.3589,1.2958,-0.2971,1.901
79.112000,-1.3927,1.1337,-0.4386,1.849
79.112000,-1.4244,1.0254,-0.5647,1.844
79.113000,-1.3867,1.0357,-0.7426,1.883
79.113000,-1.3851,1.1023,-0.9388,2.004
79.113000,-1.3572,1.1608,-1.1319,2.114
79.115000,-1.2673,1.2282,-1.4272,2.270
79.115000,-1.1970,1.3213,-1.6477,2.428
79.116000,-1.0746,1.3353,-1.7507,2.450
79.116000,-1.0147,1.3374,-1.7484,2.424
79.116000,-0.9788,1.3991,-1.7364,2.435
79.116000,-0.9618,1.4296,-1.7675,2.468
79.116000,-1.0310,1.4219,-1.8297,2.536
79.116000,-1.1434,1.4237,-1.8821,2.622
79.116000,-1.2632,1.4469,-1.8890,2.694
79.117000,-1.3265,1.4701,-1.8528,2.712
79.117000,-1.4265,1.4574,-1.8429,2.749
79.117000,-1.4274,1.5072,-1.7901,2.741
79.117000,-1.4342,1.5263,-1.6993,2.697
79.117000,-1.4014,1.5722,-1.4487,2.556
79.117000,-1.3935,1.6590,-1.1077,2.433
79.118000,-1.4624,1.6791,-0.8366,2.379
79.118000,-1.4118,1.6683,-0.6688,2.286
79.118000,-1.2372,1.6816,-0.5586,2.161
79.118000,-1.1447,1.7381,-0.5587,2.155
79.118000,-1.1657,1.9045,-0.5587,2.302
79.118000,-1.1586,2.1187,-0.2527,2.428
79.118000,-0.9745,2.2919,0.0816,2.492
79.119000,-0.7092,2.3303,0.6336,2.517
79.119000,-0.4764,2.3098,1.0827,2.595
79.119000,-0.3092,2.2325,1.3625,2.634
79.119000,-0.3077,2.1769,1.4638,2.641
79.119000,-0.4766,2.1570,1.3153,2.571
79.119000,-0.6223,2.1324,1.0414,2.453
79.120000,-0.7668,2.0317,0.7068,2.284
79.120000,-0.8111,1.9723,0.4646,2.183
79.120000,-0.8229,1.9906,0.1780,2.161
79.120000,-0.9648,1.9814,-0.0956,2.206
79.120000,-1.1695,1.9385,-0.3208,2.287
79.120000,-1.3702,1.8167,-0.4691,2.323
79.120000,-1.4048,1.8365,-0.4499,2.356
79.121000,-1.3812,1.9116,-0.4213,2.396
79.121000,-1.4635,1.9132,-0.3597,2.435
79.121000,-1.4583,1.8675,-0.1358,2.373
79.121000,-1.3228,1.9561,0.0973,2.363
79.121000,-1.2172,2.0832,0.2177,2.423
79.121000,-1.1091,2.1198,0.4141,2.428
79.121000,-1.1079,2.1693,0.6694,2.526
79.122000,-1.1577,2.1717,0.8474,2.603
79.122000,-1.0748,2.0984,0.9338,2.536
79.122000,-1.0850,2.1187,1.0749,2.612
79.122000,-1.2123,2.1318,1.1249,2.698
79.122000,-1.3977,2.0993,1.1129,2.757
79.122000,-1.4292,2.0259,1.0341,2.686
79.122000,-1.3103,1.9144,1.0537,2.548
79.123000,-1.0848,1.8532,1.1954,2.458
79.123000,-0.7866,1.8637,1.4687,2.500
79.123000,-0.3859,1.9147,1.7969,2.654
79.123000,0.0481,1.9676,2.0964,2.875
79.123000,0.3847,1.9887,2.3984,3.139
79.124000,0.6489,1.9253,2.5955,3.296
79.124000,0.9126,1.8373,2.6780,3.373
79.124000,1.1336,1.7273,2.6078,3.327
79.124000,1.2690,1.6409,2.6048,3.330
79.124000,1.4320,1.6119,2.4991,3.301
79.124000,1.5061,1.5713,2.2618,3.139
79.125000,1.5678,1.4454,2.0433,2.953
79.125000,1.6244,1.3086,1.9296,2.842
79.125000,1.5940,1.1657,1.8657,2.717
79.125000,1.5766,0.9735,1.8109,2.591
79.125000,1.6057,0.7774,1.8346,2.559
79.125000,1.5688,0.6253,1.8243,2.486
79.126000,1.5346,0.4478,1.8710,2.461
79.126000,1.5052,0.2448,2.1492,2.635
79.126000,1.5457,0.0398,2.4940,2.934
79.126000,1.6152,-0.1271,2.7188,3.165
79.126000,1.6614,-0.2703,2.9916,3.433
79.126000,1.7154,-0.4287,3.2812,3.727
79.126000,1.8205,-0.5762,3.5115,3.997
79.127000,1.8700,-0.7225,3.6584,4.172
79.127000,1.8954,-0.8944,3.7678,4.311
79.127000,1.9161,-1.0415,3.8493,4.424
79.127000,1.9589,-1.1838,3.8363,4.467
79.127000,1.8445,-1.3235,3.4827,4.157
79.127000,1.7135,-1.5465,2.9776,3.768
79.128000,1.6294,-1.5945,2.5008,3.384
79.128000,1.5358,-1.5677,2.0235,2.985
79.128000,1.4178,-1.5070,1.5481,2.584
79.128000,1.3184,-1.5172,1.1294,2.306
79.128000,1.2444,-1.6291,0.7171,2.172
79.129000,1.1499,-1.6656,0.2298,2.037
79.129000,1.0990,-1.7531,-0.1963,2.078
79.129000,1.0893,-1.7785,-0.5472,2.156
79.129000,1.1572,-1.7559,-0.9143,2.293
79.129000,1.2024,-1.7113,-1.1996,2.411
79.129000,1.2830,-1.5868,-1.5259,2.548
79.129000,1.3755,-1.5186,-1.8261,2.745
79.130000,1.4395,-1.4344,-2.1605,2.966
79.130000,1.5253,-1.3582,-2.4788,3.212
79.130000,1.5780,-1.3157,-2.7122,3.403
79.130000,1.6310,-1.2375,-2.9754,3.612
79.130000,1.6295,-1.2286,-3.2162,3.809
79.131000,1.5999,-1.1810,-3.4372,3.971
79.131000,1.5274,-1.1641,-3.7173,4.184
79.131000,1.4355,-1.2205,-3.9012,4.332
79.132000,1.3172,-1.2282,-3.9461,4.338
79.132000,1.2225,-1.2156,-3.8643,4.231
79.132000,1.1493,-1.2476,-3.6150,3.993
79.132000,1.1124,-1.2814,-3.2295,3.648
79.132000,1.0642,-1.3270,-2.8654,3.332
79.133000,0.8996,-1.4497,-2.4840,3.013
79.133000,0.7527,-1.5950,-2.1660,2.793
79.133000,0.5729,-1.7276,-1.8800,2.617
79.133000,0.3698,-1.8429,-1.7284,2.554
79.133000,0.1653,-1.9461,-1.6895,2.582
79.133000,0.0373,-2.0065,-1.6886,2.623
79.133000,-0.1287,-2.0862,-1.6756,2.679
79.134000,-0.2496,-2.1660,-1.7747,2.811
79.134000,-0.3616,-2.1889,-1.8493,2.888
79.134000,-0.4267,-2.2100,-1.8586,2.919
79.134000,-0.4478,-2.1793,-1.9582,2.964
79.134000,-0.3868,-2.1135,-2.0188,2.948
79.135000,-0.3082,-2.0577,-2.1290,2.977
79.135000,-0.2168,-1.9978,-2.1071,2.912
79.135000,-0.1004,-1.8547,-2.0298,2.751
79.135000,0.1107,-1.6550,-1.9641,2.571
79.135000,0.1567,-1.4822,-2.0178,2.509
79.135000,0.1152,-1.5035,-2.0570,2.551
79.135000,0.1059,-1.4604,-1.9766,2.460
79.136000,0.0302,-1.3867,-2.0036,2.437
79.136000,-0.0522,-1.3473,-2.1473,2.536
79.136000,-0.1848,-1.3232,-2.3285,2.685
79.136000,-0.2775,-1.2614,-2.5449,2.854
79.136000,-0.3520,-1.1810,-2.7438,3.008
79.136000,-0.3058,-1.0963,-2.8441,3.063
79.137000,-0.2510,-1.0211,-2.8631,3.050
79.137000,-0.1682,-0.9050,-2.7936,2.941
79.137000,-0.0831,-0.8196,-2.6529,2.778
79.137000,-0.0382,-0.7217,-2.5894,2.688
79.137000,-0.0496,-0.6258,-2.4762,2.555
79.138000,-0.1290,-0.5629,-2.4353,2.503
79.138000,-0.2356,-0.4876,-2.4476,2.507
79.138000,-0.3675,-0.4167,-2.6253,2.683
79.138000,-0.4510,-0.3283,-2.8344,2.889
79.138000,-0.5326,-0.2293,-2.9602,3.016
79.138000,-0.5238,-0.1051,-2.9457,2.994
79.138000,-0.3988,-0.0203,-2.7743,2.803
79.139000,-0.2340,0.1256,-2.4675,2.482
79.139000,0.0496,0.3178,-1.9969,2.023
79.139000,0.2374,0.4795,-1.4891,1.582
79.139000,0.4354,0.6461,-0.9582,1.235
79.139000,0.6391,0.7886,-0.5118,1.137
79.139000,0.6741,0.8969,-0.1375,1.130
79.139000,0.7110,1.0188,0.0717,1.244
79.140000,0.7403,1.0611,0.1302,1.300
79.140000,0.7452,1.0789,0.1361,1.318
79.140000,0.7090,1.1013,0.1875,1.323
79.140000,0.6434,1.1330,0.1336,1.310
79.140000,0.4978,1.1765,0.0989,1.281
79.140000,0.3790,1.2008,0.1098,1.264
79.141000,0.2605,1.2151,0.1926,1.258
79.141000,0.0558,1.2625,0.2851,1.295
79.141000,-0.1037,1.2923,0.3686,1.348
79.141000,-0.2850,1.3165,0.3807,1.400
79.141000,-0.4577,1.3375,0.3170,1.449
79.141000,-0.5934,1.3674,0.2826,1.517
79.141000,-0.7185,1.4087,0.2701,1.604
79.142000,-0.8020,1.4760,0.3201,1.710
79.142000,-0.8440,1.6127,0.4515,1.875
79.142000,-0.8658,1.7470,0.6234,2.047
79.142000,-0.8597,1.8645,0.8212,2.211
79.142000,-0.7420,1.9629,1.0619,2.352
79.142000,-0.6492,2.0469,1.3071,2.514
79.143000,-0.5402,2.1523,1.5042,2.681
79.143000,-0.3988,2.2572,1.6870,2.846
79.143000,-0.3111,2.3641,1.8794,3.036
79.143000,-0.2057,2.4728,2.1986,3.315
79.143000,-0.1258,2.6262,2.4941,3.624
79.143000,0.0176,2.7334,2.6868,3.833
79.143000,0.1243,2.8017,2.8700,4.013
79.144000,0.3306,2.8958,3.1442,4.287
79.144000,0.4458,2.9941,3.4112,4.561
79.144000,0.4985,3.0677,3.7429,4.865
79.144000,0.6547,3.1736,4.1440,5.261
79.144000,0.7371,3.1606,4.3424,5.421
79.144000,0.7362,3.1580,4.3884,5.456
79.145000,0.6742,3.1467,4.4328,5.478
79.145000,0.5731,3.1676,4.4086,5.459
79.145000,0.5047,3.2063,4.3203,5.404
79.145000,0.4072,3.1341,4.1084,5.183
79.145000,0.2829,3.0684,3.7941,4.888
79.146000,0.0955,2.9691,3.4372,4.543
79.146000,-0.0639,2.8437,3.1189,4.221
79.146000,-0.2770,2.7069,2.8389,3.932
79.146000,-0.3909,2.5924,2.5875,3.684
79.146000,-0.3923,2.4836,2.3335,3.430
79.147000,-0.4105,2.3353,2.0697,3.147
79.147000,-0.4505,2.1597,1.9609,2.952
79.147000,-0.4028,1.9260,2.1097,2.885
79.147000,-0.1960,1.7412,2.4420,3.006
79.147000,0.0199,1.5496,2.7260,3.136
79.147000,0.1973,1.3580,2.9954,3.295
79.147000,0.3128,1.1394,3.3822,3.583
79.148000,0.3287,0.9410,3.7264,3.857
79.148000,0.2862,0.6808,3.8778,3.948
79.148000,0.1710,0.4034,3.9544,3.979
79.148000,-0.0575,0.0608,3.8775,3.878
79.148000,-0.3428,-0.2275,3.6953,3.718
79.148000,-0.6760,-0.5100,3.4993,3.600
79.148000,-0.8711,-0.7076,3.2798,3.467
79.149000,-1.1007,-0.8210,2.9442,3.249
79.149000,-1.3512,-0.9744,2.6120,3.098
79.149000,-1.4848,-1.0870,2.2622,2.916
79.149000,-1.6006,-1.1346,1.9188,2.744
79.149000,-1.7592,-1.2037,1.4983,2.606
79.149000,-2.0066,-1.2891,1.0414,2.602
79.150000,-2.2401,-1.3349,0.6100,2.678
79.150000,-2.3744,-1.4178,0.2091,2.773
79.150000,-2.4671,-1.4146,-0.1525,2.848
79.150000,-2.5278,-1.4376,-0.3313,2.927
79.150000,-2.4889,-1.4282,-0.5338,2.919
79.151000,-2.3741,-1.3869,-0.5039,2.795
79.151000,-2.2939,-1.2835,-0.5680,2.689
79.151000,-2.1832,-1.1832,-0.6826,2.575
79.151000,-2.0643,-1.1207,-0.8200,2.488
79.151000,-1.9098,-1.0475,-0.9758,2.387
79.151000,-1.7424,-1.0369,-1.1894,2.351
79.152000,-1.6481,-1.0026,-1.5300,2.462
79.152000,-1.5230,-0.9741,-1.8987,2.622
79.152000,-1.3983,-0.9226,-2.2193,2.781
79.152000,-1.2517,-0.8999,-2.4714,2.913
79.152000,-0.9967,-0.8620,-2.6488,2.958
79.152000,-0.7338,-0.8165,-2.7468,2.958
79.153000,-0.4553,-0.7581,-2.7711,2.909
79.153000,-0.1396,-0.7109,-2.7195,2.814
79.153000,0.0992,-0.6317,-2.5280,2.608
79.153000,0.3574,-0.6474,-2.3330,2.447
79.153000,0.5964,-0.7346,-1.9980,2.211
79.153000,0.8141,-0.8006,-1.4748,1.865
79.154000,0.9360,-0.8680,-0.9084,1.567
79.154000,1.0336,-0.9500,-0.3456,1.446
79.154000,1.0252,-1.0429,0.1336,1.469
79.154000,0.9294,-1.2245,0.5568,1.635
79.154000,0.7820,-1.4524,0.7931,1.830
79.154000,0.5803,-1.6959,0.8938,2.003
79.154000,0.3458,-1.9554,0.7683,2.129
79.154000,0.0304,-2.1875,0.5533,2.257
79.155000,-0.3570,-2.4180,0.1479,2.449
79.155000,-0.7136,-2.6397,-0.2874,2.749
79.155000,-0.9927,-2.8709,-0.7196,3.122
79.155000,-1.2093,-3.0110,-1.0985,3.426
79.155000,-1.3623,-3.1150,-1.4790,3.708
79.155000,-1.4735,-3.2020,-1.7896,3.953
79.156000,-1.4957,-3.2290,-2.0015,4.083
79.156000,-1.4221,-3.2557,-2.1387,4.147
79.156000,-1.2766,-3.2321,-2.2467,4.138
79.156000,-1.0854,-3.2514,-2.3232,4.141
79.157000,-0.9654,-3.2109,-2.3228,4.079
79.157000,-0.8852,-3.1465,-2.3175,4.007
79.157000,-0.8156,-3.1541,-2.3763,4.032
79.157000,-0.6467,-3.1379,-2.4610,4.040
79.157000,-0.5003,-3.0549,-2.5215,3.993
79.157000,-0.3333,-2.9362,-2.5076,3.876
79.157000,-0.2288,-2.8030,-2.5130,3.772
79.158000,-0.0905,-2.7177,-2.5929,3.757
79.158000,0.0457,-2.6010,-2.7231,3.766
79.158000,0.1129,-2.4792,-2.9064,3.822
79.158000,0.1323,-2.4022,-3.0257,3.866
79.158000,0.1084,-2.2935,-3.0402,3.810
79.158000,0.0937,-2.2032,-3.0315,3.749
79.159000,0.0736,-2.0500,-3.0044,3.638
79.159000,0.1028,-1.9201,-2.8081,3.403
79.159000,0.0979,-1.8423,-2.6437,3.224
79.159000,0.0877,-1.7378,-2.5038,3.049
79.159000,0.1008,-1.6407,-2.3472,2.866
79.159000,0.1532,-1.5104,-2.1855,2.661
79.160000,0.2467,-1.3212,-2.0782,2.475
79.160000,0.3359,-1.1615,-1.9199,2.269
79.160000,0.5024,-0.9236,-1.8495,2.127
79.160000,0.5203,-0.7316,-1.8053,2.016
79.160000,0.4625,-0.6875,-1.7666,1.951
79.160000,0.4778,-0.5877,-1.7099,1.870
79.160000,0.4826,-0.4222,-1.6498,1.770
79.160000,0.4196,-0.2199,-1.6390,1.706
79.160000,0.2936,-0.0047,-1.6272,1.653
79.161000,0.1212,0.2426,-1.6217,1.644
79.161000,-0.1169,0.4311,-1.6678,1.727
79.161000,-0.2684,0.5442,-1.7558,1.858
79.161000,-0.3274,0.7257,-1.8043,1.972
79.682000,-0.2944,0.9182,-1.7825,2.027
79.682000,-0.3107,1.0576,-1.7409,2.060
79.683000,-0.3785,1.1512,-1.5648,1.979
79.683000,-0.3523,1.2829,-1.3096,1.867
79.683000,-0.2011,1.4217,-1.0256,1.764
79.683000,-0.0299,1.5697,-0.6815,1.712
79.683000,0.2333,1.7319,-0.1796,1.757
79.683000,0.5224,1.8530,0.4658,1.981
79.683000,0.8142,1.9494,1.1350,2.398
79.683000,1.0237,2.0134,1.7879,2.881
79.684000,1.1182,2.0643,2.3740,3.339
79.684000,1.1700,2.0538,2.8819,3.727
79.684000,1.1940,2.0841,3.2643,4.053
79.684000,1.1397,2.0641,3.5695,4.278
79.684000,0.9664,2.0416,3.7331,4.363
79.684000,0.7547,2.0280,3.7009,4.287
79.685000,0.6109,1.9641,3.5089,4.067
79.685000,0.6054,1.9451,3.3967,3.961
79.685000,0.6588,1.9957,3.4835,4.068
79.685000,0.7806,1.9839,3.4773,4.079
79.685000,0.8680,1.9344,3.4782,4.073
79.685000,0.8995,1.9165,3.6153,4.190
79.686000,0.9973,1.8752,3.7308,4.293
79.686000,1.1040,1.8538,3.7047,4.287
79.686000,1.3535,1.7493,4.0850,4.645
79.686000,1.4053,1.6811,4.5100,5.014
79.686000,1.3038,1.5864,4.6454,5.079
79.686000,1.3577,1.4226,4.7517,5.143
79.687000,1.4802,1.1365,5.0042,5.341
79.687000,1.5566,0.8479,5.3812,5.666
79.687000,1.7027,0.5628,5.5124,5.797
79.687000,1.8331,0.3433,5.5058,5.813
79.687000,1.7621,0.0985,5.3160,5.601
79.688000,1.7296,-0.2211,5.1078,5.397
79.688000,1.6224,-0.5464,4.8645,5.157
79.688000,1.5123,-0.7360,4.5625,4.863
79.688000,1.3432,-0.8171,4.2262,4.509
79.688000,1.1793,-0.8785,3.8582,4.129
79.689000,1.0282,-0.9068,3.5098,3.768
79.689000,0.8917,-0.8977,3.0856,3.335
79.689000,0.8082,-0.9117,2.5504,2.826
79.689000,0.6947,-0.9179,2.0408,2.343
79.689000,0.5791,-0.9162,1.5354,1.879
79.689000,0.5176,-0.8826,1.0028,1.433
79.690000,0.4546,-0.8407,0.5529,1.104
79.690000,0.4276,-0.8142,0.2141,0.944
79.690000,0.4504,-0.7863,-0.0258,0.907
79.690000,0.5208,-0.6824,-0.2292,0.889
79.690000,0.5840,-0.5841,-0.5015,0.966
79.690000,0.6720,-0.4857,-0.7833,1.141
79.690000,0.7910,-0.4294,-1.0538,1.386
79.691000,0.8849,-0.4711,-1.3213,1.659
79.691000,1.0793,-0.4907,-1.5215,1.929
79.691000,1.3538,-0.4585,-1.6482,2.182
79.691000,1.5826,-0.4150,-1.7544,2.399
79.691000,1.8242,-0.3381,-1.8120,2.593
79.691000,2.0224,-0.2276,-1.8787,2.770
79.692000,2.1491,-0.1915,-1.9400,2.902
79.692000,2.2553,-0.2028,-2.0180,3.033
79.692000,2.3152,-0.2376,-2.0815,3.122
79.692000,2.3010,-0.2744,-2.1882,3.187
79.692000,2.1866,-0.3753,-2.2997,3.195
79.692000,2.0392,-0.5233,-2.4258,3.212
79.692000,1.7795,-0.7017,-2.5352,3.176
79.693000,1.4233,-0.9109,-2.5390,3.050
79.693000,1.0847,-1.0989,-2.5397,2.972
79.693000,0.6924,-1.3118,-2.5986,2.992
79.693000,0.3123,-1.5142,-2.5670,2.997
79.693000,-0.0422,-1.6613,-2.4468,2.958
79.694000,-0.3001,-1.8087,-2.3214,2.958
79.694000,-0.4694,-1.9497,-2.3053,3.055
79.694000,-0.5713,-2.0195,-2.3123,3.123
79.694000,-0.6845,-2.1402,-2.2778,3.200
79.694000,-0.6699,-2.1490,-2.2333,3.171
79.694000,-0.6803,-2.1132,-2.1665,3.102
79.695000,-0.7511,-2.0808,-2.1996,3.120
79.695000,-0.7535,-2.0371,-2.2058,3.096
79.695000,-0.7522,-1.9176,-2.2137,3.024
79.695000,-0.8258,-1.9041,-2.2475,3.059
79.695000,-0.8019,-1.8814,-2.1397,2.960
79.695000,-0.7238,-1.7350,-2.1010,2.819
79.696000,-0.7607,-1.6991,-2.1840,2.870
79.696000,-0.8312,-1.7019,-2.1184,2.842
79.696000,-0.7704,-1.6213,-2.0071,2.693
79.696000,-0.7054,-1.4982,-1.8789,2.505
79.696000,-0.7031,-1.4097,-1.7933,2.387
79.696000,-0.7036,-1.3173,-1.7166,2.275
79.696000,-0.6735,-1.2117,-1.7517,2.234
79.697000,-0.7014,-1.1310,-1.7263,2.180
79.697000,-0.7011,-1.0604,-1.7125,2.133
79.697000,-0.6244,-0.9830,-1.6602,2.028
79.697000,-0.5066,-0.8651,-1.5698,1.863
79.697000,-0.4310,-0.7566,-1.3769,1.629
79.697000,-0.3491,-0.6481,-1.2156,1.421
79.697000,-0.3087,-0.5565,-1.1144,1.283
79.698000,-0.3506,-0.5202,-1.0491,1.222
79.698000,-0.3623,-0.4530,-1.1441,1.283
79.698000,-0.3515,-0.4077,-1.2102,1.324
79.698000,-0.3474,-0.3243,-1.3694,1.449
79.698000,-0.3766,-0.2290,-1.5236,1.586
79.698000,-0.3751,-0.1623,-1.6109,1.662
79.698000,-0.3527,-0.0880,-1.5429,1.585
79.699000,-0.3022,-0.0134,-1.3772,1.410
79.699000,-0.2045,0.0899,-1.1854,1.206
79.699000,-0.1410,0.1861,-0.9964,1.023
79.699000,-0.1090,0.3395,-0.8458,0.918
79.699000,-0.0512,0.4684,-0.7548,0.890
79.699000,-0.0539,0.6136,-0.7115,0.941
79.699000,-0.1074,0.7729,-0.6061,0.988
79.699000,-0.2042,0.9132,-0.4866,1.055
79.700000,-0.1862,1.0512,-0.2479,1.096
79.700000,-0.1747,1.1679,-0.0983,1.185
79.700000,-0.1073,1.2373,0.0697,1.244
79.700000,-0.0557,1.3528,0.2321,1.374
79.700000,-0.1346,1.4523,0.3098,1.491
79.700000,-0.1904,1.5145,0.4225,1.584
79.700000,-0.1756,1.5562,0.5603,1.663
79.700000,-0.1195,1.6300,0.7403,1.794
79.701000,-0.0702,1.6999,0.9169,1.933
79.701000,-0.0185,1.7250,1.0665,2.028
79.701000,-0.0271,1.7627,1.2632,2.169
79.701000,-0.0511,1.8128,1.5479,2.384
79.701000,-0.0879,1.8534,1.8681,2.633
79.701000,-0.0490,1.8985,2.2430,2.939
79.702000,0.0272,1.9315,2.6489,3.278
79.702000,0.0836,1.9420,2.9304,3.517
79.702000,0.0584,1.9230,3.1191,3.665
79.702000,-0.0079,1.9675,3.3035,3.845
79.702000,-0.0742,2.0157,3.4406,3.988
79.702000,-0.0619,1.9957,3.5091,4.037
79.703000,0.0022,2.1226,3.5187,4.109
79.703000,-0.0928,2.2551,3.5008,4.165
79.703000,-0.2128,2.3574,3.4672,4.198
79.703000,-0.3818,2.4582,3.4059,4.218
79.703000,-0.5308,2.4859,3.3315,4.190
79.703000,-0.6027,2.4813,3.2772,4.155
79.703000,-0.6068,2.4711,3.1926,4.083
79.704000,-0.5933,2.4078,3.0560,3.936
79.704000,-0.5432,2.4162,2.8743,3.794
79.704000,-0.4469,2.3818,2.7119,3.637
79.704000,-0.2852,2.3289,2.6904,3.570
79.704000,-0.1104,2.2292,2.8382,3.611
79.704000,0.1553,2.1140,3.0376,3.704
79.705000,0.3879,1.9476,3.2095,3.774
79.705000,0.5648,1.7918,3.3230,3.817
79.705000,0.7037,1.6252,3.4619,3.889
79.705000,0.8655,1.3423,3.7193,4.048
79.705000,0.9332,1.0265,3.8612,4.103
79.706000,0.9620,0.7560,3.9457,4.131
79.706000,0.9370,0.5373,3.8752,4.023
79.706000,0.7145,0.3361,3.6959,3.779
79.706000,0.4157,0.1805,3.5593,3.588
