time,ax,ay,az,aT
0.004000,0.0587,-0.2892,-0.1740,0.343
0.004000,0.0821,-0.2693,-0.3026,0.413
0.005000,0.0542,-0.2468,-0.3526,0.434
0.005000,-0.0517,-0.2051,-0.3218,0.385
0.005000,-0.1689,-0.1469,-0.2415,0.329
0.010000,-0.1919,-0.1418,-0.1213,0.268
0.011000,-0.1946,-0.1735,-0.0207,0.262
0.020000,-0.1767,-0.1654,0.0126,0.242
0.021000,-0.1855,-0.1244,0.0099,0.224
0.032000,-0.1992,-0.0932,0.0096,0.220
0.032000,-0.1934,-0.0385,0.0884,0.216
0.035000,-0.1941,-0.0319,0.1077,0.224
0.040000,-0.1913,0.0156,0.1297,0.232
0.065000,-0.2355,0.0297,0.1257,0.269
0.066000,-0.2882,0.0440,0.1507,0.328
0.066000,-0.2685,0.0153,0.1329,0.300
0.066000,-0.2148,-0.0517,0.0652,0.230
0.066000,-0.0959,-0.0850,-0.0620,0.142
0.075000,-0.1922,-0.1254,-0.1029,0.251
0.075000,-0.2690,-0.1847,-0.1007,0.342
0.085000,-0.2622,-0.2944,-0.1893,0.437
0.085000,-0.1768,-0.3564,-0.2588,0.475
0.090000,-0.1542,-0.4065,-0.3308,0.546
0.103000,-0.1848,-0.3990,-0.4125,0.603
0.104000,-0.2258,-0.4344,-0.4824,0.687
0.105000,-0.2413,-0.4384,-0.4475,0.671
0.119000,-0.2386,-0.4422,-0.3987,0.641
0.120000,-0.2366,-0.4124,-0.3526,0.592
0.120000,-0.2518,-0.3514,-0.2996,0.526
0.136000,-0.2576,-0.3261,-0.2419,0.481
0.137000,-0.2564,-0.3271,-0.1390,0.438
0.137000,-0.3364,-0.3497,-0.0912,0.494
0.141000,-0.4306,-0.3772,0.0810,0.578
0.153000,-0.4432,-0.3833,0.1120,0.597
0.153000,-0.3617,-0.3755,0.0716,0.526
0.156000,-0.3058,-0.3749,0.0100,0.484
0.160000,-0.3571,-0.3337,0.0013,0.489
0.165000,-0.3888,-0.3162,-0.0598,0.505
0.170000,-0.3967,-0.3152,-0.0660,0.511
0.175000,-0.3834,-0.2878,-0.0389,0.481
0.191000,-0.4301,-0.3537,-0.0333,0.558
0.192000,-0.5177,-0.3837,-0.0303,0.645
0.192000,-0.5457,-0.3996,-0.0680,0.680
0.196000,-0.5045,-0.4274,-0.1153,0.671
0.200000,-0.4130,-0.4580,-0.2007,0.649
0.205000,-0.2956,-0.4598,-0.2789,0.614
0.209000,-0.2765,-0.4878,-0.3690,0.671
0.214000,-0.4605,-0.5347,-0.3322,0.780
0.219000,-0.4506,-0.6220,-0.3434,0.841
0.225000,-0.3834,-0.5850,-0.3664,0.790
0.230000,-0.3904,-0.5816,-0.3512,0.784
0.234000,-0.4387,-0.6046,-0.4271,0.860
0.239000,-0.4251,-0.6324,-0.5030,0.913
0.245000,-0.3572,-0.6214,-0.4859,0.866
0.249000,-0.4522,-0.6341,-0.3469,0.853
0.254000,-0.4707,-0.6132,-0.3302,0.841
0.268000,-0.4245,-0.6067,-0.3062,0.801
0.269000,-0.3951,-0.6191,-0.2369,0.772
0.269000,-0.4161,-0.6556,-0.1629,0.793
0.275000,-0.4416,-0.6586,-0.1247,0.803
0.280000,-0.4646,-0.6403,-0.1248,0.801
0.284000,-0.4227,-0.5816,-0.1128,0.728
0.289000,-0.4620,-0.5665,-0.1317,0.743
0.295000,-0.4917,-0.5540,-0.2128,0.771
0.299000,-0.4856,-0.5367,-0.3631,0.810
0.304000,-0.4487,-0.5192,-0.4489,0.820
0.311000,-0.4948,-0.5788,-0.4335,0.876
0.314000,-0.4908,-0.5998,-0.4254,0.884
0.320000,-0.3607,-0.6491,-0.4293,0.858
0.323000,-0.3358,-0.6649,-0.5160,0.906
0.331000,-0.3038,-0.6472,-0.6185,0.945
0.334000,-0.2333,-0.6719,-0.6202,0.944
0.339000,-0.3275,-0.7464,-0.5931,1.008
0.356000,-0.3523,-0.7967,-0.5900,1.052
0.359000,-0.3199,-0.8302,-0.5773,1.061
0.359000,-0.2899,-0.8544,-0.5408,1.052
0.360000,-0.2741,-0.8211,-0.5233,1.012
0.383000,-0.0960,-0.7879,-0.6232,1.009
0.384000,0.0570,-0.7427,-0.7304,1.043
0.384000,-0.2432,-0.7546,-0.6371,1.017
0.384000,-0.3716,-0.7234,-0.6780,1.059
0.387000,-0.1686,-0.6801,-0.7121,0.999
0.389000,-0.0149,-0.6942,-0.6701,0.965
0.394000,0.0783,-0.7225,-0.8580,1.124
0.398000,0.1157,-0.7838,-0.9382,1.228
0.404000,0.1468,-0.8037,-0.8659,1.191
0.411000,0.1952,-0.7970,-0.7729,1.127
0.414000,-0.2870,-1.0368,-0.6542,1.259
0.418000,-1.8945,-2.0624,-0.4844,2.842
0.423000,-1.5779,-1.5383,0.1144,2.207
0.429000,-1.0840,-1.0092,-0.1435,1.488
0.433000,-0.7153,-1.1343,-1.0016,1.674
0.438000,-0.8116,-1.5851,-2.1033,2.756
0.445000,-0.5700,-1.3902,-2.2025,2.666
0.448000,-0.5624,-1.8345,-1.3026,2.319
0.454000,-0.7016,-2.2116,-0.9348,2.501
0.461000,-0.6026,-2.0013,-1.4164,2.525
0.464000,-0.3561,-1.7711,-1.2802,2.214
0.470000,-0.1659,-1.6723,-1.3281,2.142
0.474000,-0.0350,-1.7047,-1.4955,2.268
0.489000,0.0827,-1.7578,-1.5979,2.377
0.492000,0.1420,-1.8547,-1.7958,2.586
0.493000,0.1245,-1.8847,-2.0698,2.802
0.493000,0.1118,-1.8545,-2.2810,2.942
0.535000,0.0431,-1.8478,-2.4848,3.097
0.536000,0.0052,-1.7873,-2.5306,3.098
0.537000,-0.0936,-1.6833,-2.5525,3.059
0.537000,-0.2361,-1.5717,-2.5481,3.003
0.538000,-0.3146,-1.5197,-2.4481,2.899
0.539000,-0.3590,-1.4467,-2.3889,2.816
0.539000,-0.5397,-1.4800,-2.4661,2.926
0.540000,-0.5588,-1.6672,-2.6202,3.156
0.540000,-0.8396,-1.5945,-2.5285,3.105
0.545000,-1.1354,-1.5252,-2.5112,3.150
0.547000,-1.1469,-1.4859,-2.7952,3.367
0.552000,-1.0589,-1.4112,-2.9401,3.429
0.557000,-0.8863,-1.2863,-2.8435,3.244
0.563000,-0.7065,-1.2782,-2.7687,3.130
0.568000,-0.5995,-1.3336,-2.6558,3.032
0.573000,-0.6384,-1.3975,-2.5767,3.000
0.589000,-0.6413,-1.4743,-2.4495,2.930
0.590000,-0.6061,-1.5686,-2.4179,2.945
0.590000,-0.5053,-1.5795,-2.3643,2.888
0.592000,-0.3641,-1.5493,-2.2959,2.794
0.598000,-0.1254,-1.4349,-2.1483,2.586
0.602000,-0.0058,-1.2623,-2.0339,2.394
0.606000,0.0818,-1.0317,-1.8688,2.136
0.626000,0.1318,-0.7814,-1.4380,1.642
0.627000,0.2415,-0.5456,-1.0023,1.166
0.627000,0.2474,-0.3680,-0.7339,0.857
0.627000,0.1997,-0.2494,-0.3837,0.499
0.632000,0.1156,-0.1667,0.0075,0.203
0.636000,0.0105,-0.1659,0.3418,0.380
0.641000,0.0266,-0.1257,0.6409,0.654
0.646000,0.3085,-0.0485,0.8473,0.903
0.652000,0.3329,0.0180,1.2312,1.276
0.656000,0.4957,0.1361,1.6252,1.705
0.661000,0.8821,0.3703,2.1008,2.308
0.666000,1.1844,0.7325,2.6651,3.007
0.671000,1.4164,1.0782,3.1170,3.590
0.688000,1.6309,1.2656,3.4975,4.061
0.690000,1.9056,1.3470,3.9524,4.590
0.692000,2.1148,1.4127,4.2283,4.934
0.693000,2.2421,1.4649,4.4113,5.161
0.696000,2.3286,1.5013,4.5709,5.345
0.701000,2.3956,1.5046,4.5087,5.323
0.705000,2.4479,1.4902,4.2917,5.161
0.721000,2.3982,1.4512,3.9822,4.870
0.723000,2.3681,1.4338,3.5205,4.479
0.723000,2.3215,1.4129,3.0477,4.083
0.732000,2.1662,1.4515,2.7478,3.788
0.733000,2.0289,1.5168,2.5320,3.582
0.737000,1.8731,1.5658,2.3069,3.359
0.742000,1.7270,1.5895,2.1037,3.152
0.747000,1.6024,1.5999,1.8576,2.929
0.752000,1.4387,1.6161,1.6215,2.704
0.757000,1.3341,1.6453,1.4503,2.567
0.760000,1.2737,1.6778,1.2316,2.440
0.766000,1.1928,1.7040,1.0349,2.323
0.770000,0.9937,1.7239,0.8361,2.158
0.792000,0.7147,1.7017,0.5157,1.916
0.793000,0.3662,1.6044,0.2508,1.665
0.793000,0.0412,1.5638,0.0076,1.564
0.793000,-0.1595,1.5445,-0.2116,1.567
0.795000,-0.3050,1.5922,-0.3448,1.657
0.801000,-0.4075,1.6446,-0.4422,1.751
0.805000,-0.4186,1.7138,-0.4634,1.824
0.811000,-0.3498,1.8136,-0.4085,1.892
0.819000,-0.1849,1.8195,-0.3230,1.857
0.820000,-0.0071,1.8362,-0.2689,1.856
0.825000,0.2884,1.9756,-0.2246,2.009
0.835000,0.4702,1.9959,-0.2333,2.064
0.836000,0.5984,2.0332,-0.2995,2.140
0.840000,0.7685,2.0900,-0.3084,2.248
0.845000,0.9474,2.1066,-0.3392,2.335
0.850000,1.1278,2.1405,-0.2484,2.432
0.855000,1.3001,2.2321,-0.1890,2.590
0.860000,1.3595,2.3049,-0.0823,2.677
0.865000,1.3583,2.2987,0.0288,2.670
0.870000,1.2399,2.2612,0.0367,2.579
0.875000,1.0735,2.2091,-0.0562,2.457
0.883000,0.9187,2.1283,-0.1636,2.324
0.885000,0.7586,2.0622,-0.3477,2.225
0.889000,0.6576,2.0421,-0.4626,2.195
0.913000,0.5582,2.0016,-0.6449,2.176
0.915000,0.5032,1.9245,-0.8251,2.154
0.915000,0.5620,1.8350,-0.9317,2.133
0.916000,0.6819,1.7669,-1.0197,2.151
0.916000,0.8434,1.7729,-1.0175,2.211
0.920000,0.9838,1.7595,-0.9106,2.212
0.925000,1.0984,1.8031,-0.7638,2.245
0.930000,1.1419,1.8792,-0.5818,2.275
0.934000,1.1406,1.9371,-0.3644,2.277
0.939000,1.1422,1.9884,-0.1524,2.298
0.945000,1.1055,2.0110,0.0547,2.295
0.949000,1.0128,1.9946,0.3503,2.264
0.954000,0.8275,1.9771,0.5625,2.216
0.961000,0.6858,1.9723,0.9020,2.275
0.964000,0.6303,2.0610,1.2803,2.507
0.970000,0.5891,2.1830,1.6425,2.795
0.974000,0.4348,2.2587,1.8261,2.937
0.980000,0.2454,2.2641,1.9967,3.029
0.983000,-0.0443,2.1251,2.1354,3.013
0.989000,-0.3414,1.9136,2.0678,2.838
1.000000,-0.6789,1.6278,1.8585,2.562
1.001000,-0.8825,1.3951,1.5699,2.278
1.004000,-0.9376,1.3053,1.1660,1.986
1.028000,-0.8476,1.2656,0.7258,1.687
1.029000,-0.6451,1.2505,0.4165,1.467
1.030000,-0.4667,1.2295,0.1638,1.325
1.030000,-0.3504,1.2028,-0.0706,1.255
1.030000,-0.3546,1.1256,-0.1795,1.194
1.033000,-0.3229,1.0388,-0.4528,1.178
1.039000,-0.2700,1.0141,-0.4474,1.141
1.044000,-0.1946,1.0439,-0.3388,1.115
1.048000,-0.2035,1.0871,-0.2633,1.137
1.053000,-0.2781,1.1311,-0.1081,1.170
1.058000,-0.3867,1.1536,0.0429,1.217
1.064000,-0.5714,1.1398,0.0054,1.275
1.068000,-0.7730,1.0918,-0.1410,1.345
1.073000,-0.9550,0.9997,-0.1454,1.390
1.079000,-1.2046,0.9330,-0.1843,1.535
1.083000,-1.4803,0.8151,-0.2198,1.704
1.088000,-1.7095,0.7253,-0.2117,1.869
1.100000,-1.8541,0.6873,-0.2243,1.990
1.100000,-1.8724,0.6534,-0.2918,2.004
1.107000,-1.7626,0.5999,-0.4115,1.907
1.108000,-1.7155,0.5820,-0.6124,1.912
1.129000,-1.6345,0.6576,-0.8616,1.961
1.131000,-1.5252,0.7026,-1.0367,1.973
1.131000,-1.3489,0.7482,-1.1333,1.914
1.132000,-1.1998,0.7443,-1.2374,1.877
1.133000,-1.1639,0.7026,-1.3824,1.939
1.138000,-1.1360,0.6279,-1.4080,1.915
1.144000,-1.0882,0.6348,-1.4121,1.892
1.148000,-1.0750,0.6207,-1.3829,1.858
1.153000,-1.0200,0.6189,-1.3660,1.814
1.159000,-0.8941,0.6582,-1.3089,1.716
1.163000,-0.7592,0.7025,-1.2597,1.630
1.168000,-0.6470,0.7850,-1.1797,1.558
1.172000,-0.6046,0.7977,-1.1101,1.495
1.179000,-0.5485,0.8052,-1.0721,1.449
1.182000,-0.4997,0.7571,-1.0278,1.371
1.187000,-0.4263,0.7443,-1.0731,1.374
1.195000,-0.2884,0.7286,-1.1241,1.370
1.197000,-0.2174,0.7009,-1.2264,1.429
1.203000,-0.2022,0.7069,-1.3078,1.500
1.207000,-0.2097,0.7110,-1.3227,1.516
1.214000,-0.2668,0.7248,-1.3164,1.526
1.217000,-0.2575,0.6789,-1.1828,1.388
1.222000,-0.0837,0.5967,-1.1517,1.300
1.236000,0.0467,0.4967,-1.1440,1.248
1.237000,0.0807,0.5005,-1.1043,1.215
1.238000,0.0673,0.4959,-1.1697,1.272
1.269000,0.0619,0.4589,-1.2995,1.380
1.270000,0.1346,0.4428,-1.4799,1.551
1.271000,0.1922,0.4524,-1.6177,1.691
1.271000,0.3132,0.4283,-1.7345,1.814
1.272000,0.3909,0.3922,-1.7446,1.830
1.273000,0.3437,0.3468,-1.6841,1.753
1.273000,0.3228,0.2946,-1.6848,1.741
1.279000,0.3280,0.2284,-1.6558,1.703
1.282000,0.2889,0.2705,-1.5701,1.619
1.287000,0.2246,0.3294,-1.3633,1.420
1.294000,0.2471,0.3958,-1.1117,1.206
1.298000,0.3754,0.4381,-0.8128,0.997
1.301000,0.4630,0.4679,-0.3996,0.770
1.306000,0.5791,0.5948,0.0973,0.836
1.311000,0.6643,0.7607,0.4957,1.125
1.316000,0.7567,0.9390,0.7722,1.432
1.321000,0.7296,1.0505,1.0272,1.640
1.331000,0.6937,1.1500,1.2606,1.842
1.332000,0.7211,1.1728,1.4461,1.997
1.336000,0.8001,1.1908,1.5856,2.138
1.341000,0.8974,1.0678,1.6362,2.150
1.361000,0.8698,0.9819,1.5640,2.041
1.363000,0.8156,0.8571,1.5699,1.966
1.363000,0.7395,0.7726,1.5961,1.921
1.364000,0.7022,0.6265,1.4746,1.749
1.366000,0.6516,0.4552,1.3102,1.532
1.371000,0.6587,0.2623,1.2131,1.405
1.377000,0.7522,0.0508,1.1877,1.407
1.384000,0.9319,-0.1739,1.1621,1.500
1.386000,1.2577,-0.3345,1.1359,1.727
1.391000,1.7240,-0.3708,1.1858,2.125
1.397000,2.2227,-0.2232,1.2715,2.570
1.402000,2.6859,0.0030,1.4506,3.053
1.406000,3.0611,0.1423,1.8284,3.568
1.411000,3.4270,0.1368,2.2928,4.126
1.415000,3.7500,0.1269,2.8607,4.718
1.421000,4.1385,0.0690,3.4695,5.401
1.433000,4.4942,0.0527,4.0648,6.060
1.437000,4.6429,0.0770,4.6348,6.561
1.438000,4.5793,-0.0392,5.1205,6.870
1.440000,4.4349,-0.2397,5.4367,7.020
1.466000,4.1839,-0.4249,5.5716,6.981
1.467000,3.9994,-0.5207,5.5130,6.831
1.468000,3.9174,-0.5178,5.1439,6.486
1.468000,3.8422,-0.4616,4.6271,6.032
1.469000,3.7498,-0.4754,3.9675,5.480
1.470000,3.6950,-0.5229,3.2824,4.970
1.478000,3.5884,-0.5553,2.5913,4.461
1.481000,3.2739,-0.7369,2.0498,3.932
1.485000,2.8939,-0.8827,1.5888,3.417
1.490000,2.4598,-0.9588,1.1464,2.878
1.496000,2.0836,-1.0033,0.7298,2.425
1.500000,1.6906,-1.0587,0.4706,2.049
1.505000,1.2095,-1.0843,0.2512,1.644
1.510000,0.7501,-1.1474,0.0860,1.374
1.515000,0.3718,-1.2882,-0.0847,1.343
1.520000,-0.0228,-1.3774,-0.2063,1.393
1.527000,-0.4545,-1.3891,-0.2387,1.481
1.530000,-0.7644,-1.3113,-0.3283,1.553
1.535000,-1.0476,-1.2785,-0.3773,1.695
1.539000,-1.2347,-1.2785,-0.4360,1.830
1.554000,-1.3610,-1.2850,-0.5047,1.939
1.555000,-1.4599,-1.2979,-0.7008,2.075
1.556000,-1.6056,-1.2714,-0.8090,2.202
1.581000,-1.7575,-1.1814,-0.8316,2.275
1.582000,-1.8587,-1.1047,-0.8355,2.318
1.582000,-1.8304,-1.0917,-0.8373,2.290
1.583000,-1.8026,-1.0637,-0.7291,2.216
1.583000,-1.8868,-1.0042,-0.5818,2.215
1.584000,-1.9663,-0.9398,-0.4789,2.231
1.589000,-2.0511,-0.8253,-0.4367,2.254
1.594000,-2.1273,-0.7588,-0.3977,2.293
1.599000,-2.2526,-0.7718,-0.3161,2.402
1.604000,-2.3887,-0.7850,-0.3306,2.536
1.614000,-2.4879,-0.8342,-0.4508,2.662
1.615000,-2.4786,-0.7730,-0.6120,2.668
1.619000,-2.3995,-0.7447,-0.7567,2.624
1.624000,-2.3321,-0.7300,-0.9280,2.614
1.628000,-2.2088,-0.7645,-1.1357,2.599
1.633000,-1.9769,-0.7712,-1.3727,2.527
1.638000,-1.5669,-0.7096,-1.4908,2.276
1.653000,-1.0748,-0.6036,-1.5667,1.994
1.654000,-0.6200,-0.5613,-1.6051,1.810
1.655000,-0.2787,-0.5710,-1.5702,1.694
1.687000,-0.0628,-0.4893,-1.4715,1.552
1.688000,0.1082,-0.4367,-1.3575,1.430
1.689000,0.0844,-0.3030,-1.2140,1.254
1.689000,0.1085,-0.1888,-1.1541,1.174
1.689000,0.1026,-0.1559,-1.1640,1.179
1.690000,-0.0272,-0.1199,-1.2626,1.269
1.690000,-0.1636,-0.1497,-1.4355,1.453
1.697000,-0.4237,-0.2092,-1.5152,1.587
1.699000,-0.7533,-0.1735,-1.4585,1.651
1.703000,-1.0611,-0.1172,-1.3517,1.722
1.711000,-1.1683,-0.1051,-1.2902,1.744
1.714000,-1.0869,-0.0348,-1.2619,1.666
1.719000,-1.0132,0.0618,-1.1829,1.559
1.723000,-0.9603,0.0933,-1.0212,1.405
1.729000,-0.7890,0.0708,-0.7269,1.075
1.734000,-0.4788,0.0754,-0.7959,0.932
1.738000,-0.0640,-0.0201,-0.7649,0.768
1.751000,0.9204,-0.5101,-0.8881,1.377
1.755000,2.4825,-1.3677,-1.0202,3.012
1.756000,1.9529,-0.8552,-1.5425,2.631
1.758000,0.9334,-0.1215,-1.8270,2.055
1.783000,0.1275,0.4083,-2.0716,2.115
1.784000,-0.2829,0.9279,-2.1754,2.382
1.785000,-0.2781,1.2826,-2.0948,2.472
1.785000,-0.1715,1.4406,-2.0069,2.476
1.786000,-0.4916,1.2671,-1.6939,2.172
1.788000,-0.9835,0.8928,-1.1731,1.772
1.795000,-1.3607,0.5727,-0.6393,1.609
1.798000,-1.5860,0.3397,-0.3996,1.670
1.803000,-1.6462,0.3230,-0.5358,1.761
1.808000,-1.5800,0.5180,-0.8970,1.889
1.813000,-1.3160,0.7410,-1.2772,1.978
1.818000,-1.0846,0.9256,-1.6355,2.170
1.823000,-0.9220,1.0672,-1.8187,2.301
1.828000,-0.7328,1.0847,-1.7791,2.209
1.833000,-0.5693,0.9800,-1.6508,2.002
1.837000,-0.4784,0.8533,-1.5468,1.830
1.844000,-0.4266,0.7234,-1.5147,1.732
1.847000,-0.4023,0.6065,-1.4824,1.651
1.853000,-0.4323,0.5788,-1.5760,1.734
1.857000,-0.5290,0.5776,-1.7208,1.891
1.862000,-0.6907,0.5603,-1.8183,2.024
1.868000,-0.9491,0.5152,-2.0091,2.281
1.872000,-1.1776,0.4284,-2.1856,2.519
1.883000,-1.2951,0.4131,-2.3118,2.682
1.885000,-1.4043,0.3979,-2.3378,2.756
1.887000,-1.5950,0.3970,-2.3674,2.882
1.920000,-1.7448,0.4775,-2.3482,2.964
1.922000,-1.8812,0.5486,-2.2545,2.987
1.923000,-1.9798,0.6369,-2.1874,3.018
1.924000,-2.0337,0.6686,-2.0677,2.976
1.924000,-2.0833,0.7302,-1.9100,2.919
1.928000,-2.0435,0.7619,-1.7783,2.814
1.928000,-1.9386,0.7350,-1.5742,2.603
1.929000,-1.7459,0.7807,-1.3185,2.323
1.933000,-1.6055,0.7527,-1.0678,2.070
1.937000,-1.5109,0.7321,-0.9960,1.952
1.943000,-1.4052,0.6493,-0.8481,1.765
1.947000,-1.2264,0.5353,-0.6894,1.505
1.953000,-0.9892,0.4972,-0.4842,1.208
1.957000,-0.7005,0.5058,-0.3139,0.919
1.962000,-0.5144,0.5538,-0.1578,0.772
1.967000,-0.4685,0.5622,0.0244,0.732
1.972000,-0.5765,0.5862,0.2181,0.851
1.993000,-0.6362,0.6256,0.3580,0.961
1.994000,-0.6330,0.6951,0.4894,1.060
1.994000,-0.6046,0.7536,0.5977,1.136
1.995000,-0.5820,0.7632,0.7331,1.208
2.003000,-0.5341,0.7719,0.9624,1.344
2.004000,-0.5007,0.7647,1.1465,1.466
2.006000,-0.4747,0.7683,1.2639,1.553
2.017000,-0.4219,0.7345,1.2404,1.502
2.017000,-0.3733,0.6134,1.1716,1.374
2.022000,-0.3960,0.5131,1.0647,1.246
2.026000,-0.4846,0.3838,0.9792,1.158
2.038000,-0.4645,0.2766,0.9173,1.065
2.038000,-0.3107,0.0891,0.8806,0.938
2.041000,-0.0415,-0.0293,0.9377,0.939
2.051000,0.4989,-0.0662,1.0378,1.153
2.052000,1.2075,-0.0567,1.2142,1.713
2.055000,2.0246,-0.0867,1.4641,2.500
2.061000,2.8678,-0.0890,1.8621,3.420
2.066000,3.6719,-0.1000,2.3772,4.375
2.071000,4.3290,-0.1157,2.9980,5.267
2.079000,4.8122,-0.1350,3.6555,6.045
2.081000,5.0514,-0.2452,4.2311,6.594
2.085000,5.0295,-0.3826,4.6871,6.886
2.090000,4.9240,-0.5020,5.0117,7.044
2.102000,4.7411,-0.5319,5.1123,6.993
2.104000,4.5200,-0.4414,5.0854,6.818
2.105000,4.1577,-0.3239,4.9360,6.462
2.111000,3.6202,-0.2463,4.8367,6.047
2.115000,3.0065,-0.2634,4.6698,5.560
2.120000,2.3120,-0.4180,4.5022,5.078
2.125000,1.6669,-0.5585,4.2305,4.581
2.131000,1.2559,-0.7060,3.9215,4.178
2.135000,1.1628,-0.8407,3.5796,3.856
2.140000,1.3540,-0.8948,3.2092,3.596
2.145000,1.7608,-0.9374,2.8864,3.509
2.150000,2.3407,-0.8965,2.6660,3.659
2.154000,2.9149,-0.8200,2.6047,3.994
2.160000,3.4761,-0.6893,2.5640,4.374
2.165000,3.9071,-0.5890,2.5442,4.699
2.170000,4.0908,-0.5554,2.5381,4.846
2.174000,4.1251,-0.5676,2.5056,4.860
2.185000,3.9544,-0.5591,2.3848,4.652
2.187000,3.5990,-0.4871,2.2507,4.273
2.190000,3.1547,-0.4403,2.0004,3.761
2.214000,2.6610,-0.3679,1.6797,3.168
2.215000,2.0802,-0.2958,1.4063,2.528
2.215000,1.4863,-0.2931,1.1609,1.909
2.216000,0.9732,-0.2950,1.0254,1.444
2.216000,0.4898,-0.3279,1.0116,1.171
2.220000,0.1076,-0.4015,0.9690,1.054
2.224000,-0.0923,-0.4251,0.9022,1.002
2.229000,-0.1239,-0.3941,0.7993,0.900
2.235000,-0.0586,-0.4139,0.6769,0.796
2.239000,0.0627,-0.4080,0.4538,0.613
2.246000,0.2002,-0.4001,0.2900,0.533
2.250000,0.3171,-0.3876,0.1133,0.513
2.254000,0.4142,-0.4110,-0.0933,0.591
2.261000,0.4976,-0.4149,-0.3255,0.725
2.264000,0.5029,-0.4348,-0.4925,0.827
2.269000,0.4598,-0.3988,-0.6473,0.888
2.274000,0.4455,-0.3595,-0.7448,0.939
2.279000,0.4580,-0.3145,-0.8400,1.007
2.284000,0.4718,-0.2498,-0.8902,1.038
2.289000,0.4868,-0.2038,-0.8427,0.994
2.301000,0.5083,-0.2082,-0.8532,1.015
2.301000,0.3762,-0.2632,-0.8186,0.939
2.304000,0.2218,-0.3068,-0.8561,0.936
2.308000,0.1556,-0.3124,-0.9562,1.018
2.330000,0.1482,-0.3140,-0.9822,1.042
2.331000,0.0966,-0.3548,-1.0322,1.096
2.332000,0.0825,-0.4131,-1.2307,1.301
2.332000,0.0744,-0.4455,-1.3909,1.462
2.334000,-0.0210,-0.4710,-1.5489,1.619
2.339000,-0.1821,-0.4990,-1.6471,1.731
2.345000,-0.3297,-0.4620,-1.8319,1.918
2.348000,-0.5426,-0.4485,-1.9526,2.076
2.354000,-0.7439,-0.4483,-2.0453,2.222
2.359000,-0.8855,-0.4612,-2.1055,2.330
2.364000,-0.9814,-0.4319,-2.1478,2.401
2.369000,-1.0270,-0.4200,-2.1627,2.431
2.373000,-1.0724,-0.3563,-2.1647,2.442
2.380000,-1.0244,-0.2982,-2.0795,2.337
2.385000,-0.8972,-0.1790,-1.8929,2.102
2.388000,-0.7558,-0.0375,-1.7531,1.909
2.399000,-0.6336,0.0443,-1.5570,1.682
2.400000,-0.5335,0.1308,-1.4073,1.511
2.406000,-0.4413,0.2021,-1.2365,1.328
2.407000,-0.4079,0.1862,-1.1377,1.223
2.430000,-0.4479,0.2384,-1.0676,1.182
2.431000,-0.5087,0.2701,-0.9663,1.125
2.432000,-0.5355,0.3029,-0.9032,1.093
2.432000,-0.5761,0.3490,-0.8853,1.112
2.433000,-0.6210,0.4034,-0.9294,1.188
2.438000,-0.6516,0.4066,-0.9133,1.193
2.444000,-0.7226,0.3825,-0.9137,1.226
2.448000,-0.6984,0.3815,-0.8993,1.201
2.454000,-0.6720,0.3270,-0.8845,1.158
2.457000,-0.6147,0.2668,-0.9196,1.138
2.463000,-0.5101,0.2658,-0.9303,1.094
2.468000,-0.3697,0.2381,-0.9528,1.049
2.472000,-0.2804,0.2124,-0.9941,1.055
2.477000,-0.1270,0.2223,-1.1044,1.134
2.483000,-0.0768,0.1723,-1.1474,1.163
2.487000,-0.1130,0.0959,-1.1353,1.145
2.498000,-0.1677,0.0509,-1.1042,1.118
2.499000,0.0415,0.0682,-1.1284,1.131
2.502000,0.1360,0.0924,-1.1668,1.178
2.507000,0.0198,0.0948,-1.1621,1.166
2.530000,-0.0628,0.1017,-1.0208,1.028
2.531000,-0.1348,0.1080,-0.9157,0.932
2.532000,-0.2347,0.0705,-0.9278,0.960
2.532000,-0.3416,0.0298,-0.9228,0.984
2.533000,-0.4338,-0.0001,-0.8720,0.974
2.537000,-0.5280,-0.0598,-0.8234,0.980
2.544000,-0.6427,-0.1063,-0.8296,1.055
2.547000,-0.7307,-0.1613,-0.8090,1.102
2.552000,-0.7678,-0.2340,-0.8480,1.168
2.556000,-0.8451,-0.2789,-1.0087,1.345
2.562000,-0.9387,-0.4105,-1.1546,1.544
2.567000,-0.9934,-0.5278,-1.3122,1.728
2.572000,-0.9716,-0.5708,-1.4527,1.839
2.577000,-0.7490,-0.5631,-1.6027,1.857
2.582000,-0.4168,-0.5596,-1.5852,1.732
2.587000,-0.0422,-0.4956,-1.5271,1.606
2.592000,0.3034,-0.4193,-1.4572,1.546
2.597000,0.5980,-0.3906,-1.4255,1.594
2.602000,0.7824,-0.4219,-1.3962,1.655
2.607000,0.8275,-0.4220,-1.3955,1.676
2.619000,0.8723,-0.3600,-1.3515,1.648
2.620000,0.8904,-0.3221,-1.3002,1.609
2.622000,0.8557,-0.2797,-1.2225,1.518
2.656000,0.7943,-0.2997,-1.2140,1.481
2.657000,0.7301,-0.3582,-1.2029,1.452
2.657000,0.6198,-0.3544,-1.0504,1.270
2.658000,0.5450,-0.3745,-0.9840,1.186
2.658000,0.4363,-0.3610,-0.8721,1.040
2.658000,0.3867,-0.3258,-0.7841,0.933
2.658000,0.3564,-0.2761,-0.6173,0.764
2.662000,0.3165,-0.1829,-0.4460,0.577
2.666000,0.2723,-0.0947,-0.3682,0.468
2.671000,0.2737,-0.0660,-0.2380,0.369
2.677000,0.2104,-0.0517,-0.0385,0.220
2.681000,0.1401,-0.1001,0.1802,0.249
2.686000,0.0598,-0.1728,0.3176,0.366
2.691000,0.0889,-0.3055,0.4360,0.540
2.697000,0.1864,-0.2969,0.6429,0.732
2.701000,0.4544,-0.1897,0.7613,0.907
2.706000,0.6153,-0.0916,0.9228,1.113
2.717000,0.4801,-0.0116,1.1055,1.205
2.718000,0.4268,0.0816,1.1373,1.217
2.721000,0.4732,0.1785,1.2409,1.340
2.755000,0.4593,0.2836,1.4473,1.545
2.757000,0.4288,0.4037,1.7827,1.877
2.757000,0.3820,0.4357,2.0797,2.159
2.757000,0.3411,0.3603,2.2138,2.269
2.758000,0.2506,0.3710,2.4127,2.454
2.758000,0.0893,0.4750,2.5854,2.630
2.759000,-0.0422,0.5646,2.6338,2.694
2.765000,-0.1484,0.6353,2.5483,2.630
2.766000,-0.1676,0.6701,2.5397,2.632
2.770000,-0.1601,0.6953,2.6032,2.699
2.775000,-0.0825,0.7156,2.7125,2.807
2.780000,-0.0137,0.6612,2.7959,2.873
2.785000,0.0608,0.5895,2.8079,2.870
2.790000,0.0600,0.5363,2.7918,2.843
2.796000,0.1727,0.4299,2.7714,2.810
2.800000,0.5066,0.2804,2.6701,2.732
2.804000,0.8866,0.2027,2.5095,2.669
2.816000,1.3677,0.1067,2.3371,2.710
2.817000,1.8522,0.1226,2.1192,2.817
2.820000,2.3326,0.2821,1.9271,3.039
2.825000,2.7592,0.4944,1.8539,3.361
2.847000,3.1037,0.6878,1.9329,3.720
2.849000,3.2997,0.8500,2.1040,4.005
2.850000,3.2982,0.9348,2.2311,4.090
2.850000,3.1327,0.9345,2.3790,4.043
2.850000,2.8279,0.9801,2.4784,3.886
2.855000,2.3820,0.9633,2.4314,3.537
2.860000,1.9338,0.8913,2.3364,3.161
2.864000,1.5696,0.8043,2.1552,2.785
2.869000,1.2889,0.7196,1.9476,2.444
2.874000,1.0965,0.6278,1.7518,2.160
2.879000,1.0757,0.5343,1.6059,2.005
2.884000,1.1233,0.4755,1.4786,1.917
2.889000,1.2606,0.4392,1.3650,1.909
2.895000,1.3796,0.4424,1.4423,2.044
2.900000,1.4304,0.4823,1.5261,2.147
2.904000,1.4132,0.5010,1.6284,2.214
2.910000,1.3165,0.5940,1.7923,2.302
2.914000,1.0973,0.6264,1.8482,2.239
2.920000,0.8419,0.6386,1.8514,2.132
2.924000,0.5568,0.6326,1.8238,2.009
2.929000,0.2203,0.5387,1.7680,1.861
2.935000,-0.1846,0.4070,1.5743,1.636
2.939000,-0.6582,0.2613,1.4102,1.578
2.953000,-1.1175,0.0873,1.1469,1.604
2.964000,-1.5676,-0.1172,0.7630,1.747
2.965000,-1.9186,-0.2297,0.3757,1.968
2.965000,-2.1691,-0.3457,0.0259,2.197
2.965000,-2.2795,-0.4479,-0.3295,2.346
2.987000,-2.3551,-0.5504,-0.6715,2.510
2.989000,-2.4533,-0.6170,-1.0384,2.735
2.989000,-2.5064,-0.6522,-1.4139,2.951
2.990000,-2.5173,-0.6988,-1.6999,3.117
2.990000,-2.4354,-0.7184,-1.9084,3.176
2.999000,-2.2722,-0.7324,-2.0615,3.154
3.000000,-2.0611,-0.7360,-2.1997,3.103
3.003000,-1.8586,-0.6982,-2.2922,3.033
3.009000,-1.6408,-0.6554,-2.3293,2.924
3.013000,-1.4478,-0.6240,-2.4214,2.889
3.018000,-1.3293,-0.6330,-2.5612,2.954
3.023000,-1.2305,-0.6178,-2.6099,2.951
3.031000,-1.1121,-0.6264,-2.7423,3.025
3.033000,-1.0672,-0.6276,-2.8987,3.152
3.038000,-0.9997,-0.6549,-2.9834,3.214
3.057000,-0.9690,-0.6649,-3.0686,3.286
3.058000,-0.9297,-0.6001,-3.1519,3.340
3.059000,-0.9292,-0.5993,-3.2310,3.415
3.059000,-0.9506,-0.5858,-3.2725,3.458
3.065000,-0.9795,-0.5932,-3.2645,3.460
3.068000,-1.0275,-0.5954,-3.2383,3.449
3.073000,-1.1046,-0.5902,-3.3250,3.553
3.078000,-1.1917,-0.6208,-3.3788,3.636
3.083000,-1.1979,-0.7039,-3.4401,3.710
3.088000,-1.2528,-0.6841,-3.4923,3.773
3.093000,-1.2845,-0.7193,-3.5329,3.827
3.097000,-1.3312,-0.7473,-3.5500,3.864
3.103000,-1.3378,-0.7225,-3.5127,3.828
3.108000,-1.3424,-0.7408,-3.4138,3.742
3.113000,-1.2925,-0.6897,-3.4639,3.761
3.118000,-1.2505,-0.6721,-3.4426,3.724
3.122000,-1.2050,-0.7049,-3.4623,3.733
3.133000,-1.1752,-0.6996,-3.5013,3.759
3.134000,-1.1731,-0.7450,-3.5356,3.799
3.139000,-1.1507,-0.7689,-3.5941,3.851
3.163000,-1.1180,-0.7809,-3.6359,3.883
3.165000,-1.1465,-0.8166,-3.6254,3.889
3.165000,-1.1311,-0.8951,-3.6511,3.926
3.166000,-1.1102,-0.9373,-3.6698,3.947
3.167000,-1.1316,-0.9239,-3.7057,3.983
3.167000,-1.1524,-0.9574,-3.6584,3.953
3.173000,-1.1986,-0.9776,-3.5473,3.870
3.177000,-1.3128,-0.9463,-3.4251,3.788
3.182000,-1.5165,-0.9302,-3.2777,3.729
3.187000,-1.7142,-0.9058,-3.1550,3.703
3.194000,-1.9991,-0.9232,-3.0714,3.779
3.197000,-2.2735,-0.9470,-2.9811,3.867
3.203000,-2.5013,-0.9992,-2.8887,3.950
3.207000,-2.7093,-1.0805,-2.7677,4.021
3.213000,-2.9095,-1.1266,-2.7349,4.149
3.217000,-3.1454,-1.2341,-2.7326,4.346
3.222000,-3.3888,-1.3315,-2.7748,4.578
3.228000,-3.5845,-1.4523,-2.8806,4.822
3.232000,-3.7474,-1.6204,-3.0570,5.100
3.237000,-3.8676,-1.7970,-3.2898,5.386
3.242000,-3.9766,-2.0535,-3.4547,5.654
3.251000,-4.1316,-2.2507,-3.6236,5.939
3.253000,-4.1693,-2.4572,-3.8186,6.165
3.257000,-4.0943,-2.6430,-4.0808,6.356
3.283000,-3.9112,-2.7476,-4.2216,6.377
3.285000,-3.5437,-2.8464,-4.2749,6.240
3.286000,-3.1567,-2.8859,-4.2055,5.998
3.287000,-2.7455,-2.8938,-4.0233,5.666
3.287000,-2.3772,-2.9347,-3.7309,5.309
3.288000,-2.0538,-3.0130,-3.3477,4.950
3.292000,-1.7419,-3.0423,-2.9622,4.590
3.297000,-1.4445,-3.0593,-2.5406,4.231
3.301000,-1.2047,-3.0402,-2.0468,3.858
3.306000,-1.0185,-3.0506,-1.4946,3.546
3.313000,-0.9170,-3.0498,-1.0229,3.345
3.317000,-0.8670,-2.9883,-0.5474,3.159
3.321000,-0.9744,-2.8716,-0.1061,3.034
3.326000,-1.1625,-2.7423,0.2820,2.992
3.331000,-1.3622,-2.6804,0.7201,3.092
3.337000,-1.6309,-2.6424,1.1961,3.328
3.342000,-1.8891,-2.7487,1.7604,3.771
3.347000,-2.0644,-2.9645,2.3653,4.318
3.352000,-2.0822,-3.3302,3.0059,4.946
3.357000,-1.7643,-3.7109,3.5387,5.423
3.395000,-1.3855,-4.0912,3.9373,5.845
3.397000,-0.8690,-4.3036,4.1275,6.026
3.397000,-0.1546,-4.3262,4.1692,6.010
3.398000,0.6354,-4.2294,4.2249,6.012
3.399000,1.4407,-4.0178,4.2516,6.024
3.400000,2.1750,-3.7607,4.1920,6.037
3.400000,2.8266,-3.5380,4.2133,6.185
3.401000,3.3313,-3.3241,4.3540,6.411
3.402000,3.6800,-3.1063,4.6019,6.661
3.405000,3.8141,-2.9628,4.8497,6.844
3.411000,3.7396,-2.8210,5.0452,6.885
3.416000,3.5199,-2.6794,5.3466,6.939
3.421000,3.1019,-2.5846,5.6967,6.982
3.425000,2.6890,-2.5245,5.9520,7.002
3.430000,2.3449,-2.5409,6.2467,7.140
3.435000,2.1789,-2.5040,6.4783,7.279
3.440000,2.1246,-2.4925,6.5534,7.326
3.446000,2.1820,-2.5034,6.6443,7.428
3.450000,2.3136,-2.5294,6.4903,7.340
3.455000,2.4173,-2.5473,6.1965,7.122
3.466000,2.4387,-2.4808,5.7344,6.707
3.467000,2.4001,-2.4054,5.1901,6.203
3.472000,2.3561,-2.3618,4.6305,5.707
3.474000,2.2901,-2.3103,4.2109,5.321
3.498000,2.2706,-2.2654,3.8405,5.004
3.499000,2.1897,-2.2153,3.5645,4.734
3.500000,2.0808,-2.1973,3.3016,4.479
3.501000,2.0301,-2.1742,3.1090,4.303
3.501000,1.8511,-2.0808,3.0106,4.101
3.505000,1.5804,-1.9467,2.9033,3.836
3.511000,1.3476,-1.7655,2.7009,3.497
3.515000,1.1472,-1.5700,2.4873,3.157
3.520000,0.9166,-1.2696,2.3008,2.783
3.528000,0.7421,-0.9928,2.1437,2.476
3.530000,0.7051,-0.7872,1.9752,2.240
3.535000,0.7358,-0.6599,1.8433,2.092
3.540000,0.8903,-0.5003,1.7529,2.029
3.546000,1.2570,-0.1367,1.7779,2.182
3.549000,1.5854,0.0938,1.7078,2.332
3.554000,1.8890,0.3013,1.5328,2.451
3.567000,2.2686,0.4646,1.2866,2.649
3.568000,2.6642,0.6777,1.0074,2.928
3.569000,2.7798,0.7924,0.6403,2.961
3.607000,2.9727,0.8614,0.3790,3.118
3.609000,3.3819,0.9573,0.2567,3.524
3.610000,3.5965,1.0434,0.1489,3.748
3.611000,3.6689,1.0075,0.1392,3.807
3.611000,3.7363,0.9111,0.1220,3.848
3.612000,3.9114,0.8101,-0.0340,3.995
3.613000,4.0727,0.9673,-0.1616,4.189
3.613000,4.0745,1.0470,-0.2536,4.215
3.615000,3.8407,1.0975,-0.4250,4.017
3.619000,3.6054,0.9754,-0.6468,3.791
3.624000,3.4495,0.8797,-0.8448,3.659
3.630000,3.3946,0.8686,-1.0379,3.654
3.634000,3.4381,0.9038,-1.2478,3.768
3.638000,3.2802,0.9121,-1.3594,3.666
3.645000,3.0829,0.9052,-1.4036,3.506
3.649000,2.8460,0.9244,-1.5239,3.358
3.653000,2.4997,0.9125,-1.5335,3.071
3.660000,2.2183,0.9003,-1.4684,2.808
3.663000,1.9803,0.9024,-1.3931,2.584
3.668000,1.7256,0.9422,-1.2742,2.343
3.673000,1.3819,1.0214,-1.0926,2.036
3.682000,1.1020,1.1592,-0.9056,1.838
3.685000,0.9235,1.2538,-0.7612,1.733
3.688000,0.7695,1.3581,-0.6498,1.691
3.694000,0.6544,1.4018,-0.5259,1.634
3.720000,0.6333,1.5014,-0.3779,1.673
3.721000,0.6157,1.6018,-0.2656,1.737
3.722000,0.6107,1.6525,-0.1772,1.771
3.722000,0.6353,1.6956,-0.1462,1.817
3.723000,0.6700,1.7149,-0.2014,1.852
3.723000,0.7820,1.7479,-0.3068,1.939
3.730000,0.8637,1.7616,-0.4361,2.010
3.734000,0.9677,1.6867,-0.6395,2.047
3.738000,1.1589,1.6737,-0.9218,2.235
3.743000,1.2793,1.6352,-1.1822,2.389
3.748000,1.4321,1.6238,-1.3731,2.564
3.754000,1.5768,1.6739,-1.5540,2.775
3.758000,1.7233,1.7904,-1.5983,2.955
3.763000,1.8052,1.8846,-1.5852,3.053
3.768000,1.9492,1.9450,-1.4190,3.098
3.774000,2.0503,1.9545,-1.2651,3.102
3.784000,2.0581,1.9199,-0.9632,2.975
3.786000,2.0112,1.8026,-0.6191,2.771
3.788000,1.9289,1.7000,-0.4719,2.614
3.820000,1.8347,1.5287,-0.2968,2.407
3.822000,1.7938,1.3316,-0.1009,2.236
3.823000,1.8395,1.0850,0.1778,2.143
3.823000,1.8475,0.8109,0.5107,2.081
3.823000,1.8350,0.5548,0.8138,2.083
3.824000,1.7542,0.2982,1.0038,2.043
3.824000,1.6312,0.0654,1.1551,2.000
3.834000,1.4705,-0.2358,1.3637,2.019
3.835000,1.2529,-0.4824,1.6322,2.113
3.837000,1.0001,-0.6715,1.9489,2.291
3.842000,0.6808,-0.7613,2.3141,2.529
3.848000,0.3960,-0.7829,2.8042,2.938
3.853000,0.0718,-0.7411,3.3664,3.448
3.858000,-0.2052,-0.7510,4.0125,4.087
3.862000,-0.4584,-0.7204,4.6678,4.745
3.868000,-0.6759,-0.7672,5.4421,5.537
3.872000,-0.9032,-0.8995,6.2057,6.335
3.877000,-1.1091,-1.0636,6.9080,7.077
3.882000,-1.2462,-1.2940,7.6350,7.843
3.886000,-1.3148,-1.6396,8.4267,8.685
3.891000,-1.3912,-2.1316,9.2351,9.580
3.897000,-1.4280,-2.6536,9.8449,10.296
3.903000,-1.5206,-3.0883,10.1508,10.719
3.907000,-1.6065,-3.4427,10.0505,10.745
3.916000,-1.6388,-3.6180,9.6788,10.462
3.917000,-1.4747,-3.5469,9.0868,9.865
3.922000,-1.1611,-3.2313,8.2728,8.957
3.928000,-0.6394,-2.7424,7.3619,7.882
3.932000,0.0012,-2.2086,6.4407,6.809
3.936000,0.7714,-1.6392,5.6937,5.975
3.941000,1.5649,-1.1582,5.1569,5.512
3.946000,2.3927,-0.7017,4.6698,5.294
3.952000,3.1172,-0.2506,4.3234,5.336
3.957000,3.6161,0.1540,4.0218,5.411
3.962000,3.9045,0.5832,3.6595,5.383
3.967000,4.1600,0.9820,3.2269,5.356
3.971000,4.2686,1.3336,2.6237,5.185
3.976000,4.3578,1.6861,2.1083,5.126
3.982000,4.3942,1.9346,1.7524,5.111
3.986000,4.4818,2.0554,1.4768,5.147
3.992000,4.5621,2.2014,1.3074,5.231
3.996000,4.4897,2.3586,1.1771,5.206
4.002000,4.4273,2.5053,1.0087,5.186
4.006000,4.3331,2.6224,0.8426,5.134
4.018000,4.1986,2.6334,0.7166,5.008
4.020000,3.9367,2.6148,0.5348,4.756
4.021000,3.6573,2.5787,0.2923,4.485
4.057000,3.2831,2.4964,0.1130,4.126
4.059000,2.9146,2.4325,-0.1203,3.798
4.059000,2.4257,2.3393,-0.4199,3.396
4.061000,1.8934,2.2457,-0.6852,3.016
4.061000,1.4609,2.1663,-0.9855,2.793
4.062000,1.0151,2.1224,-1.2441,2.661
4.063000,0.4884,2.0856,-1.4968,2.613
4.063000,-0.0387,1.9606,-1.8076,2.667
4.066000,-0.6249,1.9249,-2.0801,2.902
4.070000,-1.2803,1.9357,-2.2642,3.242
4.078000,-1.9062,1.9216,-2.4601,3.658
4.081000,-2.4910,1.8948,-2.6510,4.102
4.085000,-2.9655,1.8867,-2.7627,4.471
4.090000,-3.3332,1.8972,-2.8547,4.781
4.096000,-3.6566,1.9120,-2.8744,5.029
4.100000,-3.8935,1.9571,-2.9293,5.251
4.106000,-4.1636,1.9873,-2.9978,5.502
4.111000,-4.2905,2.0237,-3.0750,5.653
4.115000,-4.3585,2.0733,-3.0772,5.724
4.120000,-4.4273,2.0956,-3.0330,5.761
4.125000,-4.3753,2.1644,-3.0456,5.754
4.134000,-4.2149,2.2795,-3.1123,5.714
4.136000,-4.1067,2.3762,-2.9533,5.589
4.140000,-3.8972,2.5066,-2.9373,5.486
4.174000,-3.6138,2.5127,-2.8919,5.267
4.177000,-3.2499,2.5666,-2.7381,4.965
4.180000,-2.7789,2.6391,-2.5409,4.598
4.182000,-2.3392,2.6771,-2.2983,4.233
4.182000,-1.9659,2.7135,-2.2474,4.035
4.183000,-1.6848,2.7816,-2.2735,3.968
4.184000,-1.5201,2.8141,-2.3526,3.970
4.184000,-1.2820,2.8563,-2.4011,3.946
4.185000,-1.0642,2.9013,-2.5099,3.981
4.189000,-0.8089,2.9155,-2.5666,3.968
4.194000,-0.5066,2.9019,-2.5925,3.924
4.200000,-0.2026,2.8798,-2.5590,3.858
4.205000,0.0530,2.8951,-2.5163,3.836
4.213000,0.3490,2.9742,-2.4810,3.889
4.215000,0.5275,3.0264,-2.4365,3.921
4.219000,0.6462,3.1284,-2.4137,4.004
4.224000,0.7555,3.2037,-2.3528,4.046
4.232000,0.8408,3.2019,-2.4022,4.090
4.235000,0.8685,3.2716,-2.4133,4.157
4.239000,0.8415,3.2954,-2.3385,4.128
4.272000,0.7958,3.2567,-2.2474,4.036
4.274000,0.7700,3.2176,-2.1280,3.934
4.275000,0.7567,3.1085,-2.0211,3.784
4.275000,0.7820,3.0538,-1.9052,3.683
4.276000,0.8557,3.0150,-1.7373,3.583
4.277000,0.9227,2.9656,-1.4723,3.437
4.277000,0.9903,2.9602,-1.2943,3.379
4.280000,1.0127,2.9821,-1.1627,3.357
4.283000,0.9156,2.9329,-1.0773,3.256
4.288000,0.8308,2.8725,-1.0022,3.154
4.294000,0.6891,2.7794,-0.9734,3.024
4.299000,0.4404,2.6610,-0.9788,2.869
4.304000,0.1517,2.5607,-0.9871,2.748
4.309000,-0.1433,2.4766,-0.9885,2.670
4.314000,-0.3965,2.3754,-0.9137,2.576
4.319000,-0.5288,2.2864,-0.7891,2.476
4.324000,-0.6810,2.1208,-0.5265,2.289
4.334000,-0.7768,1.8933,-0.1450,2.052
4.335000,-0.7429,1.5702,0.2957,1.762
4.339000,-0.6321,1.1872,0.9675,1.657
4.384000,-0.4655,0.7726,1.6139,1.849
4.386000,-0.2976,0.3210,2.2538,2.296
4.388000,-0.2027,-0.1604,2.7460,2.758
4.388000,-0.0854,-0.6673,3.1506,3.222
4.389000,0.0775,-1.2064,3.4369,3.643
4.389000,0.2478,-1.6887,3.7081,4.082
4.390000,0.3682,-2.1230,4.0887,4.622
4.390000,0.4964,-2.3868,4.4042,5.034
4.391000,0.6326,-2.5466,4.6166,5.310
4.395000,0.7958,-2.8744,4.9294,5.761
4.397000,0.8040,-2.8963,4.9124,5.759
4.398000,0.8339,-2.9416,5.1306,5.973
4.403000,0.8764,-2.8787,5.3780,6.163
4.408000,0.8836,-2.7839,5.5279,6.252
4.414000,0.7525,-2.5521,5.6331,6.230
4.420000,0.6601,-2.2626,5.8610,6.317
4.423000,0.5684,-1.9497,6.1489,6.476
4.430000,0.5040,-1.7744,6.5706,6.825
4.437000,0.4862,-1.8695,7.2568,7.509
4.437000,0.4846,-2.2075,8.0488,8.360
4.456000,0.5105,-2.7247,8.7120,9.142
4.457000,0.6011,-3.1903,9.1054,9.667
4.458000,0.7333,-3.5455,9.1601,9.850
4.458000,0.9317,-3.6731,8.8652,9.641
4.465000,1.1999,-3.5997,8.2311,9.064
4.467000,1.5705,-3.3556,7.3495,8.231
4.472000,1.9930,-3.0386,6.5677,7.506
4.477000,2.4584,-2.7507,5.8163,6.888
4.483000,2.9760,-2.5626,5.0550,6.401
4.488000,3.4352,-2.4262,4.3774,6.070
4.493000,3.7597,-2.2589,3.8099,5.810
4.497000,3.9455,-2.1353,3.3999,5.629
4.502000,3.9941,-2.0044,3.0539,5.413
4.506000,3.9763,-1.9687,2.7164,5.202
4.512000,3.9692,-1.9999,2.4040,5.053
4.517000,3.8418,-2.0471,2.1404,4.851
4.522000,3.7335,-2.1081,1.9040,4.691
4.527000,3.6165,-2.1490,1.6968,4.536
4.532000,3.5293,-2.1870,1.4947,4.413
4.537000,3.4866,-2.1766,1.3430,4.324
4.542000,3.4770,-2.1438,1.1985,4.257
4.548000,3.4621,-2.0847,1.0346,4.172
4.557000,3.4755,-2.0350,0.7606,4.099
4.559000,3.4428,-1.9587,0.4315,3.984
4.596000,3.2805,-1.8561,-0.0147,3.769
4.598000,3.0651,-1.7389,-0.4870,3.558
4.599000,2.8681,-1.5899,-0.9254,3.407
4.599000,2.6080,-1.4473,-1.3369,3.269
4.600000,2.3138,-1.3199,-1.7002,3.160
4.600000,2.0096,-1.2413,-2.0010,3.096
4.600000,1.7931,-1.1373,-2.2297,3.079
4.601000,1.5375,-1.0697,-2.4199,3.060
4.602000,1.2591,-1.0535,-2.5476,3.031
4.606000,0.9697,-1.0071,-2.7228,3.061
4.612000,0.6164,-0.9739,-2.8379,3.063
4.617000,0.2781,-0.9278,-2.9646,3.119
4.621000,0.0001,-0.9115,-3.0622,3.195
4.630000,-0.3014,-0.8728,-3.1715,3.303
4.631000,-0.5452,-0.8016,-3.2086,3.352
4.637000,-0.7528,-0.7845,-3.2908,3.466
4.642000,-0.9174,-0.7213,-3.3321,3.531
4.650000,-1.0270,-0.6979,-3.3827,3.603
4.653000,-1.1207,-0.7097,-3.3633,3.615
4.656000,-1.1772,-0.6492,-3.3051,3.568
4.663000,-1.2463,-0.5477,-3.2562,3.529
4.667000,-1.3345,-0.4581,-3.2336,3.528
4.671000,-1.4631,-0.3375,-3.2470,3.577
4.677000,-1.7012,-0.3153,-3.1767,3.617
4.711000,-1.9355,-0.3939,-3.1667,3.732
4.713000,-2.0628,-0.4271,-3.1597,3.798
4.714000,-2.1840,-0.4130,-3.1005,3.815
4.714000,-2.2895,-0.4017,-3.0898,3.867
4.715000,-2.3887,-0.4295,-3.0988,3.936
4.715000,-2.4747,-0.4651,-3.1274,4.015
4.716000,-2.6335,-0.5253,-3.1374,4.130
4.716000,-2.8145,-0.6314,-3.2221,4.325
4.720000,-2.9574,-0.6922,-3.2883,4.476
4.727000,-3.0793,-0.7794,-3.3837,4.641
4.731000,-3.1087,-0.8518,-3.4508,4.722
4.735000,-3.1225,-0.9525,-3.5182,4.799
4.740000,-3.1544,-1.0263,-3.5905,4.888
4.745000,-3.1997,-1.1401,-3.6462,4.983
4.750000,-3.1675,-1.2867,-3.7093,5.045
4.755000,-3.1420,-1.3895,-3.7963,5.120
4.764000,-3.1495,-1.4885,-3.8927,5.224
4.766000,-3.1517,-1.5721,-4.0082,5.336
4.770000,-3.1611,-1.6276,-4.1089,5.434
4.775000,-3.0891,-1.6597,-4.2069,5.477
4.803000,-3.0407,-1.7206,-4.2950,5.537
4.805000,-2.9994,-1.7386,-4.2943,5.519
4.806000,-2.9076,-1.7830,-4.2743,5.468
4.806000,-2.8304,-1.8325,-4.2110,5.395
4.807000,-2.6847,-1.8847,-4.1472,5.288
4.808000,-2.5325,-1.8464,-4.1238,5.180
4.815000,-2.3453,-1.8161,-4.0377,5.010
4.817000,-2.2111,-1.7123,-3.9515,4.841
4.820000,-2.0870,-1.6194,-3.8435,4.664
4.825000,-1.9870,-1.5301,-3.7044,4.473
4.830000,-1.8830,-1.4829,-3.6560,4.372
4.835000,-1.7681,-1.4805,-3.6336,4.304
4.840000,-1.6495,-1.4440,-3.6011,4.216
4.845000,-1.5581,-1.4430,-3.6186,4.196
4.851000,-1.4796,-1.3552,-3.6404,4.157
4.855000,-1.3757,-1.2883,-3.6882,4.142
4.859000,-1.2776,-1.2661,-3.7784,4.185
4.864000,-1.1540,-1.1971,-3.7916,4.140
4.869000,-1.0601,-1.1723,-3.8426,4.155
4.875000,-0.9719,-1.2008,-3.8212,4.122
4.882000,-0.8609,-1.2678,-3.6676,3.975
4.885000,-0.7486,-1.3781,-3.4346,3.776
4.889000,-0.5562,-1.4403,-3.1175,3.479
4.915000,-0.3432,-1.4861,-2.6518,3.059
4.916000,-0.1377,-1.5276,-2.1553,2.645
4.917000,-0.0279,-1.5887,-1.7164,2.339
4.917000,0.1063,-1.7364,-1.2994,2.171
4.917000,0.2486,-1.9611,-0.7562,2.117
4.919000,0.3730,-2.1962,-0.2520,2.242
4.924000,0.4489,-2.3369,0.1866,2.387
4.928000,0.3793,-2.5838,0.6361,2.688
4.934000,0.3772,-2.8726,0.9672,3.054
4.940000,0.4404,-3.0875,1.1945,3.340
4.944000,0.4535,-3.1757,1.4715,3.529
4.949000,0.5336,-3.2061,1.7074,3.671
4.953000,0.7243,-3.1946,1.9717,3.823
4.958000,0.9776,-3.1053,2.3457,4.013
4.963000,1.3008,-2.9591,2.7458,4.241
4.968000,1.6360,-2.7998,3.2104,4.563
4.974000,1.8825,-2.6282,3.7512,4.952
4.979000,2.0546,-2.4367,4.3517,5.394
4.983000,2.2713,-2.2753,4.9806,5.928
4.988000,2.4322,-2.2300,5.7167,6.601
5.012000,2.5747,-2.2949,6.5239,7.379
5.013000,2.6843,-2.4781,7.2895,8.154
5.014000,2.8189,-2.6743,7.9179,8.820
5.014000,3.0253,-2.8128,8.4115,9.371
5.015000,3.3047,-2.8321,8.5722,9.614
5.018000,3.6942,-2.7317,8.4676,9.634
5.023000,4.1363,-2.3689,8.0843,9.385
5.029000,4.6058,-1.8504,7.5977,9.075
5.033000,4.9774,-1.2336,7.1518,8.800
5.038000,5.2244,-0.5543,6.7370,8.543
5.045000,5.4341,0.0974,6.4823,8.459
5.048000,5.6361,0.6559,6.4061,8.558
5.053000,5.7735,1.0879,6.4746,8.743
5.058000,5.8322,1.4112,6.6295,8.942
5.063000,5.8699,1.6962,6.6502,9.031
5.068000,5.8554,1.9498,6.6013,9.037
5.073000,5.7054,2.1756,6.3987,8.845
5.078000,5.4296,2.3475,6.0305,8.447
5.083000,5.0434,2.4869,5.6570,7.976
5.088000,4.5735,2.5482,5.2587,7.421
5.099000,4.0902,2.5586,4.7951,6.802
5.100000,3.6090,2.5064,4.3736,6.200
5.103000,3.1284,2.3465,3.9917,5.588
5.107000,2.6949,2.1464,3.6538,5.022
5.152000,2.2826,1.9592,3.2953,4.462
5.154000,1.8867,1.8070,2.8663,3.878
5.155000,1.5269,1.6137,2.3644,3.244
5.157000,1.1146,1.4156,1.9166,2.631
5.157000,0.7166,1.2471,1.5329,2.102
5.157000,0.3255,1.0850,1.0771,1.563
5.158000,-0.0640,0.9583,0.6955,1.186
5.158000,-0.4064,0.8489,0.3166,0.993
5.159000,-0.7280,0.8670,-0.0428,1.133
5.159000,-1.0433,0.8958,-0.3299,1.414
5.163000,-1.3495,0.9119,-0.5782,1.728
5.167000,-1.6014,0.9512,-0.7735,2.017
5.172000,-1.8278,0.9947,-0.9396,2.283
5.177000,-1.9574,1.0781,-1.0717,2.478
5.182000,-2.0509,1.0885,-1.1554,2.593
5.187000,-2.1946,1.1187,-1.2315,2.754
5.193000,-2.2931,1.1659,-1.3503,2.905
5.198000,-2.3873,1.2204,-1.4304,3.039
5.202000,-2.4467,1.3178,-1.6032,3.208
5.208000,-2.4644,1.4053,-1.8662,3.396
5.212000,-2.4884,1.4759,-2.1522,3.606
5.218000,-2.5814,1.6637,-2.4299,3.916
5.222000,-2.5921,1.8252,-2.7113,4.172
5.270000,-2.5873,1.9345,-2.9056,4.345
5.273000,-2.5287,2.0224,-3.0824,4.470
5.273000,-2.4280,2.0845,-3.0861,4.446
5.274000,-2.3163,2.1250,-3.1182,4.428
5.274000,-2.2463,2.1271,-3.2001,4.451
5.277000,-2.1725,2.0930,-3.2815,4.457
5.278000,-2.0972,2.0682,-3.4105,4.506
5.279000,-2.0172,2.0096,-3.5679,4.565
5.279000,-1.9399,1.9868,-3.7393,4.658
5.280000,-1.8436,1.9974,-3.9512,4.796
5.281000,-1.7018,1.9771,-4.1961,4.941
5.281000,-1.6774,1.9907,-4.3305,5.053
5.286000,-1.5729,1.9573,-4.4386,5.100
5.292000,-1.4748,1.9150,-4.5754,5.175
5.297000,-1.4137,1.8615,-4.7145,5.262
5.301000,-1.3061,1.7520,-4.7603,5.238
5.307000,-1.1692,1.6748,-4.8538,5.266
5.345000,-1.0553,1.6277,-4.9543,5.321
5.347000,-0.9452,1.6132,-5.0403,5.376
5.347000,-0.7216,1.6146,-5.0999,5.398
5.348000,-0.5852,1.6870,-5.0760,5.381
5.348000,-0.4997,1.6988,-5.0953,5.394
5.349000,-0.3813,1.7171,-4.9977,5.298
5.349000,-0.3232,1.7537,-4.8767,5.192
5.350000,-0.2829,1.7441,-4.7153,5.035
5.351000,-0.2243,1.7457,-4.4682,4.802
5.356000,-0.2025,1.7250,-4.1785,4.525
5.360000,-0.2462,1.7296,-3.8989,4.272
5.366000,-0.2554,1.7425,-3.5816,3.991
5.371000,-0.3281,1.7681,-3.2935,3.752
5.376000,-0.3781,1.7990,-2.9845,3.505
5.381000,-0.4007,1.8064,-2.5829,3.177
5.386000,-0.4511,1.8280,-2.2373,2.924
5.400000,-0.5270,1.8636,-1.4692,2.431
5.402000,-0.5233,1.8721,-1.4654,2.434
5.403000,-0.5259,1.9585,-0.9936,2.258
5.406000,-0.5656,2.0841,-0.5925,2.239
5.414000,-0.6185,2.2107,-0.2359,2.308
5.417000,-0.5821,2.3255,0.1959,2.405
5.420000,-0.5232,2.4259,0.7120,2.582
5.459000,-0.3749,2.5068,1.4104,2.901
5.461000,-0.1292,2.5723,2.2090,3.393
5.461000,0.0468,2.5835,3.0522,3.999
5.462000,0.1749,2.4804,3.7724,4.518
5.462000,0.3458,2.2859,4.4893,5.050
5.462000,0.2154,1.9426,5.4297,5.771
5.463000,-0.2050,1.3886,6.3779,6.531
5.463000,-0.4908,0.7866,6.9940,7.055
5.466000,-0.8103,0.2283,7.4606,7.508
5.471000,-1.0983,-0.3124,7.7590,7.843
5.475000,-1.2762,-0.8514,7.8227,7.972
5.481000,-1.4852,-1.3345,7.5906,7.849
5.486000,-1.6852,-1.6796,7.1352,7.521
5.490000,-1.8971,-1.8968,6.5849,7.110
5.495000,-2.0491,-1.9845,5.9115,6.564
5.500000,-2.0921,-1.9504,5.3503,6.067
5.504000,-2.0250,-1.7957,5.0309,5.713
5.510000,-1.8022,-1.5610,4.9362,5.482
5.515000,-1.5490,-1.2868,5.0375,5.425
5.520000,-1.2606,-1.0438,5.3436,5.589
5.524000,-0.9386,-0.8259,5.7541,5.888
5.530000,-0.7265,-0.6997,6.1589,6.241
5.535000,-0.4814,-0.6218,6.4550,6.503
5.539000,-0.2141,-0.6436,6.8410,6.875
5.545000,0.0721,-0.9154,7.5555,7.611
5.550000,0.3650,-1.4911,8.3085,8.449
5.556000,0.8009,-2.3860,8.8868,9.236
5.600000,1.3133,-3.3356,9.1204,9.800
5.603000,1.8895,-4.1260,8.7974,9.899
5.604000,2.4707,-4.6083,8.0458,9.596
5.604000,3.0988,-4.8172,6.9363,8.996
5.605000,3.6226,-4.8315,5.7257,8.322
5.605000,4.0406,-4.6226,4.4458,7.580
5.606000,4.4534,-4.3030,3.1611,6.953
5.606000,4.7700,-3.9082,2.1654,6.536
5.607000,4.9926,-3.4708,1.3647,6.232
5.608000,5.1146,-2.9872,0.8011,5.977
5.610000,5.1041,-2.4892,0.4474,5.696
5.614000,5.0543,-2.0156,0.3359,5.452
