time,ax,ay,az,aT
18.779000,-0.3024,-2.0490,-2.4066,3.175
18.783000,-0.3858,-1.9874,-2.4000,3.140
18.788000,-0.5023,-1.9554,-2.4741,3.193
18.794000,-0.6256,-1.9004,-2.5331,3.228
18.799000,-0.6911,-1.8030,-2.5773,3.220
18.803000,-0.5938,-1.6868,-2.4970,3.071
18.880000,-0.4431,-1.5808,-2.3901,2.900
18.882000,-0.2982,-1.3320,-2.5508,2.893
18.883000,-0.0008,-1.1259,-2.8001,3.018
18.883000,0.2056,-1.0843,-3.0020,3.198
18.884000,0.2710,-1.0724,-3.2286,3.413
18.884000,0.5330,-0.8262,-3.2034,3.351
18.885000,0.8167,-0.6043,-3.0318,3.198
18.885000,0.8563,-0.5120,-2.6663,2.847
18.886000,0.7480,-0.5112,-2.3362,2.506
18.886000,0.6620,-0.4199,-2.0225,2.169
18.887000,0.5358,-0.3246,-1.5289,1.652
18.887000,0.4267,-0.2305,-0.8984,1.021
18.887000,0.3993,-0.1384,-0.3361,0.540
18.888000,0.3329,-0.0513,0.1275,0.360
18.888000,0.2892,0.0517,0.5960,0.664
18.888000,0.3760,0.1631,0.8494,0.943
18.889000,0.5362,0.3022,1.0243,1.195
18.893000,0.6718,0.4759,1.1568,1.420
18.897000,0.7352,0.5479,1.3116,1.600
18.904000,0.7579,0.6236,1.4646,1.763
18.908000,0.7072,0.7345,1.6420,1.933
18.914000,0.6796,0.8951,1.8816,2.192
18.917000,0.6845,1.0573,2.0761,2.428
18.921000,0.6310,1.1996,2.2328,2.612
18.980000,0.5931,1.3458,2.2990,2.729
18.980000,0.5777,1.4460,2.1886,2.686
18.981000,0.6041,1.5799,2.0183,2.633
18.981000,0.5692,1.6953,1.8882,2.601
18.982000,0.5420,1.7737,1.8051,2.588
18.982000,0.4931,1.8896,1.7731,2.638
18.982000,0.2811,1.9548,1.7537,2.641
18.982000,0.0896,1.9552,1.7657,2.636
18.983000,-0.1230,1.9436,1.8713,2.701
18.983000,-0.3212,1.9200,2.0462,2.824
18.983000,-0.3450,1.8915,2.4244,3.094
18.983000,-0.2636,1.8815,2.7911,3.376
18.987000,-0.1278,1.9085,3.1346,3.672
18.991000,0.0703,1.9240,3.4867,3.983
18.996000,0.2412,1.8631,3.7451,4.190
19.002000,0.3718,1.7994,3.8935,4.305
19.006000,0.4602,1.7711,3.8966,4.305
19.011000,0.3441,1.7561,3.9007,4.292
19.016000,0.2155,1.7803,3.9156,4.307
19.021000,0.0219,1.7601,3.8242,4.210
19.089000,-0.2651,1.7361,3.7748,4.163
19.089000,-0.4254,1.7202,3.6408,4.049
19.090000,-0.5502,1.6957,3.3887,3.829
19.090000,-0.6327,1.6343,3.0877,3.550
19.091000,-0.6920,1.5149,2.8356,3.288
19.091000,-0.6805,1.4624,2.5577,3.024
19.091000,-0.6818,1.4436,2.3063,2.805
19.092000,-0.6625,1.3493,2.1718,2.641
19.092000,-0.6276,1.2299,2.1155,2.526
19.092000,-0.5250,1.1717,2.0941,2.456
19.092000,-0.3413,1.1170,2.0265,2.339
19.093000,-0.2590,1.0297,1.9558,2.225
19.093000,-0.2140,0.9099,1.8678,2.089
19.093000,-0.2785,0.7410,1.8459,2.008
19.097000,-0.3309,0.5588,1.7658,1.881
19.101000,-0.4358,0.3178,1.7448,1.826
19.106000,-0.5261,0.1040,1.9791,2.050
19.111000,-0.6250,-0.0379,2.4164,2.496
19.115000,-0.8204,-0.1592,2.7224,2.848
19.120000,-0.9419,-0.3062,3.0583,3.215
19.125000,-0.9679,-0.4629,3.3148,3.484
19.131000,-0.8744,-0.6829,3.3228,3.503
19.134000,-0.8078,-0.9283,2.9493,3.196
19.140000,-0.7274,-1.0722,2.4719,2.791
19.146000,-0.6164,-1.2244,1.9575,2.390
19.150000,-0.5383,-1.2934,1.4153,1.991
19.155000,-0.4809,-1.3431,0.7753,1.624
19.227000,-0.4366,-1.3896,0.1472,1.464
19.228000,-0.4457,-1.4562,-0.4193,1.580
19.228000,-0.4845,-1.4989,-1.0254,1.880
19.228000,-0.4381,-1.4602,-1.6523,2.248
19.229000,-0.4237,-1.3939,-2.3079,2.729
19.229000,-0.4120,-1.3612,-2.9597,3.284
19.229000,-0.4862,-1.3348,-3.5105,3.787
19.230000,-0.5290,-1.2847,-3.9758,4.212
19.230000,-0.6600,-1.3133,-4.3946,4.634
19.230000,-0.8752,-1.3457,-4.6143,4.886
19.230000,-1.1373,-1.3861,-4.6095,4.946
19.231000,-1.3760,-1.4348,-4.3900,4.819
19.231000,-1.4540,-1.5307,-3.9363,4.467
19.232000,-1.3745,-1.6315,-3.4752,4.078
19.232000,-1.3721,-1.6975,-3.0847,3.779
19.234000,-1.4349,-1.7964,-2.8861,3.690
19.245000,-1.4487,-1.8399,-2.6542,3.540
19.246000,-1.3705,-1.9126,-2.4362,3.387
19.249000,-1.3228,-2.0172,-2.1838,3.254
19.254000,-1.3178,-2.1330,-1.8700,3.128
19.260000,-1.0753,-2.1728,-1.4963,2.849
19.264000,-0.7983,-2.2088,-1.1414,2.611
19.269000,-0.5143,-2.2206,-0.8616,2.437
19.273000,-0.2680,-2.2158,-0.6756,2.332
19.332000,-0.0011,-2.2285,-0.5804,2.303
19.333000,0.1610,-2.2140,-0.5083,2.277
19.333000,0.2997,-2.2201,-0.5074,2.297
19.334000,0.3947,-2.1684,-0.5817,2.279
19.334000,0.5058,-2.1019,-0.7148,2.277
19.334000,0.5071,-2.0061,-0.9591,2.281
19.335000,0.5091,-1.9356,-1.2672,2.369
19.335000,0.5116,-1.8158,-1.7182,2.552
19.335000,0.5311,-1.7847,-2.0853,2.796
19.336000,0.4764,-1.7962,-2.4479,3.073
19.336000,0.4978,-1.7254,-2.6943,3.238
19.336000,0.5253,-1.6507,-2.8224,3.312
19.338000,0.5345,-1.5913,-2.8947,3.346
19.343000,0.5490,-1.5181,-2.8995,3.319
19.348000,0.4559,-1.3978,-2.8752,3.229
19.353000,0.3008,-1.2878,-2.9198,3.205
19.362000,0.1982,-1.1516,-2.9858,3.206
19.365000,0.1099,-1.0061,-3.0470,3.211
19.368000,-0.0143,-0.8602,-3.0989,3.216
19.373000,-0.2132,-0.7044,-3.0914,3.178
19.429000,-0.2621,-0.6058,-3.0627,3.133
19.430000,-0.2186,-0.4226,-2.9607,2.999
19.430000,-0.1421,-0.3680,-2.8356,2.863
19.431000,-0.1739,-0.2121,-2.6372,2.651
19.431000,-0.1822,0.0161,-2.3942,2.401
19.431000,-0.2101,0.2111,-2.0947,2.116
19.432000,-0.3076,0.3180,-1.6978,1.754
19.432000,-0.4930,0.3819,-1.3280,1.467
19.433000,-0.6394,0.4722,-0.9396,1.231
19.433000,-0.7851,0.5431,-0.5108,1.083
19.433000,-0.9086,0.6899,-0.1229,1.147
19.433000,-0.9056,0.8095,0.0835,1.217
19.438000,-0.9011,0.8919,0.2688,1.296
19.442000,-0.9048,0.9997,0.4164,1.411
19.448000,-0.8045,1.1088,0.5429,1.474
19.454000,-0.6126,1.1621,0.6579,1.469
19.461000,-0.4554,1.2384,0.7517,1.519
19.464000,-0.3809,1.3307,0.7551,1.577
19.468000,-0.3669,1.3911,0.7733,1.633
19.472000,-0.3580,1.4701,0.7489,1.688
19.555000,-0.4469,1.5990,0.7224,1.811
19.556000,-0.5468,1.7111,0.7031,1.929
19.556000,-0.6841,1.8446,0.6432,2.070
19.556000,-0.8132,1.9378,0.5590,2.175
19.557000,-0.9818,1.9864,0.4719,2.265
19.557000,-1.1686,2.0694,0.2956,2.395
19.557000,-1.3095,2.1706,0.2571,2.548
19.557000,-1.4287,2.2640,0.3151,2.696
19.558000,-1.5880,2.3070,0.4094,2.831
19.558000,-1.7614,2.3549,0.6139,3.004
19.558000,-1.8540,2.3431,0.9165,3.125
19.559000,-1.8476,2.3959,1.3268,3.304
19.559000,-1.7433,2.3643,1.8521,3.473
19.559000,-1.4816,2.4033,2.2801,3.629
19.559000,-1.1729,2.4385,2.7260,3.841
19.560000,-0.8939,2.4404,3.1782,4.106
19.560000,-0.6444,2.3846,3.4914,4.277
19.564000,-0.3051,2.4641,3.7836,4.526
19.568000,-0.0066,2.5943,4.0315,4.794
19.572000,0.1683,2.6745,4.0609,4.865
19.578000,0.1991,2.6924,4.0180,4.841
19.582000,0.2540,2.6890,4.0608,4.877
19.587000,0.4015,2.7936,3.9618,4.864
19.594000,0.5940,2.8647,3.8910,4.868
19.597000,0.8038,2.9099,3.7574,4.820
19.601000,1.0149,2.9554,3.5299,4.714
19.607000,1.2617,3.0019,3.0934,4.491
19.669000,1.4706,3.0119,2.5646,4.220
19.670000,1.6093,2.9389,2.0477,3.927
19.670000,1.6422,2.8320,1.5442,3.620
19.671000,1.5744,2.7860,1.2180,3.424
19.671000,1.4194,2.6558,1.0034,3.174
19.671000,1.1591,2.3709,1.0358,2.835
19.672000,0.8343,1.9983,1.3654,2.560
19.672000,0.4833,1.6403,2.0281,2.653
19.672000,0.1433,1.2124,2.6559,2.923
19.673000,-0.0267,0.8858,3.2858,3.403
19.673000,-0.0426,0.5727,4.0528,4.093
19.673000,-0.0626,0.2790,4.7354,4.744
19.674000,-0.0250,-0.0520,5.2081,5.208
19.678000,0.2061,-0.3093,5.5155,5.528
19.681000,0.5381,-0.5368,5.7108,5.761
19.686000,0.9096,-0.7262,5.7641,5.880
19.691000,1.1399,-0.9046,5.5972,5.783
19.696000,1.2192,-1.0511,5.1845,5.429
19.701000,1.2400,-1.1440,4.6313,4.929
19.707000,1.2232,-1.1665,4.0956,4.431
19.766000,1.1934,-1.1517,3.4887,3.863
19.767000,1.0671,-1.1636,2.6715,3.103
19.769000,1.0124,-1.2230,1.6845,2.315
19.770000,0.9689,-1.2828,0.6534,1.735
19.771000,0.9124,-1.3303,-0.4151,1.666
19.772000,0.8945,-1.3277,-1.4147,2.136
19.772000,0.9027,-1.3175,-2.3102,2.809
19.773000,0.8859,-1.2794,-3.0334,3.409
19.775000,0.8744,-1.2672,-3.6907,3.999
19.776000,0.8654,-1.2757,-4.3160,4.583
19.778000,0.7361,-1.3519,-4.9319,5.166
19.780000,0.6412,-1.4544,-5.4526,5.680
19.781000,0.5656,-1.4991,-5.7546,5.974
19.782000,0.4778,-1.5740,-6.0014,6.223
19.783000,0.4160,-1.6311,-6.0471,6.277
19.788000,0.3225,-1.7279,-5.9448,6.199
19.791000,0.2812,-1.8527,-5.6774,5.979
19.803000,0.2491,-2.0039,-5.2950,5.667
19.808000,0.2288,-2.1367,-4.7562,5.219
19.809000,0.2828,-2.2375,-4.2231,4.788
19.811000,0.3442,-2.3675,-3.6110,4.332
19.885000,0.4494,-2.4795,-2.9479,3.878
19.887000,0.5853,-2.5388,-2.4983,3.610
19.888000,0.6806,-2.6061,-2.0724,3.398
19.888000,0.7575,-2.6889,-1.7916,3.319
19.889000,0.8280,-2.7641,-1.6481,3.323
19.889000,0.8903,-2.8153,-1.5433,3.332
19.890000,0.9399,-2.8713,-1.3816,3.322
19.890000,0.9528,-2.8798,-1.3347,3.314
19.891000,0.9149,-2.8579,-1.4695,3.341
19.891000,0.7757,-2.8173,-1.6543,3.358
19.891000,0.6164,-2.7863,-1.8967,3.426
19.892000,0.5538,-2.7691,-2.0582,3.494
19.892000,0.4775,-2.7368,-2.2422,3.570
19.893000,0.3893,-2.6964,-2.4391,3.657
19.893000,0.3533,-2.6333,-2.5848,3.707
19.894000,0.4288,-2.6045,-2.7486,3.811
19.895000,0.4791,-2.5451,-2.9024,3.890
19.900000,0.4708,-2.4956,-2.9962,3.928
19.904000,0.3725,-2.4364,-3.0732,3.939
19.916000,0.3156,-2.3174,-3.1647,3.935
19.918000,0.2188,-2.2007,-3.0913,3.801
19.919000,0.1947,-2.0745,-2.9297,3.595
19.999000,0.2126,-1.9580,-2.8043,3.427
20.001000,0.1892,-1.8225,-2.6145,3.193
20.001000,0.1413,-1.6635,-2.4534,2.968
20.002000,0.1912,-1.5074,-2.3449,2.794
20.003000,0.2507,-1.2774,-2.2461,2.596
20.004000,0.2769,-1.0979,-2.1928,2.468
20.004000,0.2937,-0.9186,-2.0798,2.292
20.005000,0.3152,-0.7130,-1.8977,2.052
20.006000,0.2886,-0.5459,-1.7446,1.851
20.006000,0.1992,-0.3935,-1.5582,1.619
20.007000,0.2049,-0.1863,-1.4532,1.479
20.007000,0.2936,0.0732,-1.4441,1.475
20.007000,0.4245,0.2655,-1.3227,1.414
20.008000,0.4474,0.4127,-1.1468,1.298
20.008000,0.5129,0.6033,-1.0482,1.314
20.009000,0.6450,0.7633,-0.9743,1.396
20.009000,0.7213,0.9358,-0.8173,1.437
20.009000,0.7302,1.1542,-0.4700,1.444
20.015000,0.7629,1.3132,-0.2191,1.534
20.018000,0.9080,1.4628,-0.0647,1.723
20.023000,1.0243,1.5818,0.0700,1.886
20.029000,1.0498,1.6605,0.2304,1.978
20.038000,1.0706,1.7922,0.2060,2.098
20.038000,1.0872,1.9175,0.2908,2.223
20.084000,1.0687,2.0367,0.4631,2.346
20.085000,1.0825,2.1903,0.7371,2.552
20.085000,1.0285,2.2948,0.9069,2.673
20.085000,0.8853,2.3262,1.0635,2.707
20.085000,0.6716,2.4159,1.2001,2.780
20.085000,0.4705,2.4228,1.3238,2.801
20.086000,0.3535,2.4668,1.5061,2.912
20.086000,0.2900,2.6055,1.8016,3.181
20.086000,0.2203,2.6717,2.0977,3.404
20.087000,0.0677,2.5935,2.4138,3.544
20.092000,-0.1234,2.5504,2.6613,3.688
20.097000,-0.2508,2.4917,2.8956,3.828
20.103000,-0.2434,2.4821,3.4084,4.223
20.108000,-0.2374,2.4783,3.8551,4.589
20.113000,-0.1848,2.4317,4.3562,4.992
20.118000,-0.0956,2.3180,4.7587,5.294
20.123000,0.0519,2.2895,5.2286,5.708
20.130000,0.0983,2.2665,5.6587,6.097
20.133000,-0.0039,2.2075,5.9995,6.393
20.137000,-0.2396,2.1165,6.1895,6.546
20.193000,-0.4936,2.0720,6.2318,6.586
20.195000,-0.6600,2.0383,6.2363,6.594
20.196000,-0.8483,2.0485,6.0576,6.451
20.197000,-0.9581,2.0143,5.7529,6.170
20.199000,-1.0277,1.9816,5.2625,5.716
20.200000,-1.0958,1.9655,4.6648,5.179
20.200000,-1.0314,1.9737,3.9141,4.503
20.200000,-0.9402,1.9478,3.1027,3.782
20.201000,-0.8759,1.9222,2.2061,3.054
20.201000,-0.8658,1.8050,1.3594,2.420
20.202000,-0.8914,1.6310,0.7410,2.001
20.202000,-0.9915,1.4967,0.2878,1.818
20.202000,-0.9993,1.4457,-0.0178,1.758
20.208000,-0.9172,1.3541,-0.0425,1.636
20.212000,-0.8454,1.1835,0.1514,1.462
20.218000,-0.7505,0.9479,0.5186,1.316
20.222000,-0.5961,0.7641,1.0856,1.455
20.228000,-0.3815,0.5566,1.7505,1.876
20.232000,-0.1181,0.3624,2.4998,2.529
20.237000,0.1182,0.2184,3.0525,3.063
20.305000,0.3067,0.0634,3.3716,3.386
20.307000,0.4863,-0.0768,3.5989,3.632
20.307000,0.5569,-0.3342,3.7300,3.786
20.307000,0.5408,-0.5443,3.6699,3.749
20.308000,0.5815,-0.6644,3.6700,3.775
20.308000,0.6177,-0.8597,3.5607,3.715
20.309000,0.5465,-1.0465,3.4067,3.605
20.309000,0.3972,-1.1724,3.0956,3.334
20.309000,0.1627,-1.2536,2.6895,2.972
20.311000,-0.0734,-1.3858,2.3367,2.718
20.312000,-0.2993,-1.4919,1.9387,2.464
20.312000,-0.4460,-1.5239,1.5385,2.211
20.312000,-0.5693,-1.5557,1.1358,2.008
20.313000,-0.7319,-1.7468,0.5484,1.972
20.313000,-0.8343,-1.8221,-0.0489,2.005
20.317000,-0.9033,-1.7924,-0.6474,2.109
20.322000,-0.9201,-1.7484,-1.2212,2.323
20.327000,-0.9588,-1.7919,-1.5701,2.568
20.331000,-0.9335,-1.7625,-1.8860,2.745
20.337000,-0.9810,-1.8612,-2.2549,3.084
20.344000,-1.0009,-1.8650,-2.6269,3.374
20.347000,-0.9431,-1.7596,-3.0523,3.647
20.351000,-0.8195,-1.6952,-3.4527,3.933
20.356000,-0.7809,-1.6975,-3.7591,4.198
20.412000,-0.7600,-1.7185,-3.8666,4.299
20.413000,-0.7874,-1.8657,-4.0099,4.492
20.414000,-0.6818,-1.9741,-4.0405,4.548
20.414000,-0.4769,-1.9890,-3.9394,4.439
20.415000,-0.2298,-1.9466,-3.8569,4.326
20.416000,-0.0167,-1.9455,-3.6638,4.148
20.416000,0.1319,-1.9954,-3.3957,3.941
20.417000,0.2352,-2.0684,-3.0975,3.732
20.418000,0.1783,-2.1411,-2.9098,3.617
20.418000,0.0834,-2.2403,-2.6575,3.477
20.420000,0.0506,-2.2517,-2.3450,3.251
20.421000,0.0392,-2.2739,-2.3213,3.250
20.422000,0.0347,-2.2734,-2.4185,3.319
20.426000,0.0243,-2.3055,-2.5430,3.433
20.430000,0.0582,-2.3747,-2.6950,3.592
20.437000,0.1033,-2.4043,-2.7502,3.654
20.440000,0.1765,-2.4206,-2.7876,3.696
20.445000,0.2540,-2.4429,-2.6160,3.588
20.450000,0.2885,-2.4858,-2.5294,3.558
20.455000,0.3114,-2.4658,-2.5514,3.562
20.461000,0.3924,-2.4979,-2.4356,3.511
20.465000,0.4457,-2.4699,-2.3204,3.418
20.470000,0.4435,-2.4869,-2.3138,3.426
20.536000,0.4480,-2.4442,-2.3648,3.430
20.537000,0.3758,-2.3486,-2.4498,3.414
20.537000,0.2390,-2.3125,-2.5257,3.433
20.538000,0.1480,-2.2495,-2.6049,3.445
20.538000,0.0092,-2.1805,-2.7497,3.509
20.538000,-0.1591,-2.0289,-3.1134,3.720
20.539000,-0.3265,-1.9399,-3.4643,3.984
20.539000,-0.4866,-1.8604,-3.7598,4.223
20.539000,-0.6546,-1.7705,-4.0197,4.441
20.540000,-0.7634,-1.6790,-4.2066,4.593
20.540000,-0.8132,-1.5138,-4.2108,4.548
20.540000,-0.8450,-1.3679,-4.0953,4.400
20.541000,-0.9092,-1.2556,-3.8624,4.162
20.541000,-0.9529,-1.1173,-3.5554,3.847
20.550000,-0.9351,-0.9890,-3.2864,3.557
20.551000,-0.8867,-0.8425,-2.9763,3.218
20.555000,-0.8341,-0.6730,-2.6680,2.875
20.566000,-0.7673,-0.4761,-2.4665,2.627
20.567000,-0.7793,-0.3023,-2.3213,2.467
20.569000,-0.9224,-0.1226,-2.1081,2.304
20.573000,-1.0504,0.0103,-1.9250,2.193
20.633000,-1.2257,0.1656,-1.7671,2.157
20.634000,-1.3166,0.4127,-1.6103,2.121
20.634000,-1.4189,0.6226,-1.4359,2.112
20.634000,-1.5710,0.7808,-1.2102,2.131
20.635000,-1.6849,0.9208,-1.0145,2.172
20.635000,-1.7344,1.0762,-0.8154,2.198
20.635000,-1.6693,1.2038,-0.5769,2.137
20.636000,-1.6287,1.3325,-0.3971,2.141
20.636000,-1.5692,1.5194,-0.1780,2.192
20.636000,-1.4525,1.6477,0.1258,2.200
20.636000,-1.3138,1.8223,0.4809,2.297
20.637000,-1.2339,1.9881,0.8012,2.473
20.638000,-1.2673,2.0687,1.1968,2.705
20.643000,-1.3418,2.1807,1.7326,3.092
20.648000,-1.4257,2.2881,2.3202,3.557
20.655000,-1.5287,2.4331,2.8622,4.056
20.661000,-1.6341,2.4859,3.4095,4.525
20.663000,-1.7733,2.5442,3.8668,4.957
20.668000,-1.8605,2.6025,4.2659,5.332
20.673000,-1.9322,2.6820,4.5451,5.620
20.719000,-2.0830,2.7989,4.7405,5.886
20.719000,-2.2011,2.8958,4.8884,6.093
20.720000,-2.2344,2.9677,4.9601,6.197
20.720000,-2.1330,3.0386,4.9580,6.194
20.720000,-2.0308,3.1586,4.8347,6.122
20.721000,-1.8122,3.2586,4.5182,5.858
20.721000,-1.4958,3.3514,4.0106,5.436
20.721000,-1.2361,3.3826,3.4527,4.989
20.721000,-1.0804,3.4298,2.9393,4.644
20.722000,-0.9116,3.4749,2.4671,4.358
20.728000,-0.7414,3.4659,2.1240,4.132
20.732000,-0.5959,3.4538,1.9714,4.021
20.738000,-0.4077,3.4935,1.7436,3.926
20.742000,-0.2487,3.4659,1.5120,3.790
20.747000,-0.1238,3.3812,1.3837,3.656
20.752000,-0.0539,3.2446,1.2341,3.472
20.757000,-0.0465,3.1188,1.1247,3.316
20.762000,-0.0797,2.9324,1.1534,3.152
20.767000,-0.2760,2.7668,1.3893,3.108
20.773000,-0.4809,2.5620,1.7723,3.152
20.777000,-0.6879,2.4016,2.0802,3.251
20.783000,-0.9274,2.1963,2.3349,3.337
20.789000,-0.8872,1.9844,2.5580,3.357
20.833000,-0.7298,1.7651,2.6736,3.286
20.833000,-0.6666,1.5091,2.7587,3.214
20.834000,-0.5519,1.2475,2.9639,3.263
20.834000,-0.3789,1.0229,3.0792,3.267
20.835000,-0.0664,0.8134,3.1813,3.284
20.835000,0.2829,0.5871,3.2973,3.361
20.835000,0.6812,0.2573,3.5211,3.596
20.835000,1.1322,0.0100,3.7935,3.959
20.836000,1.6372,-0.1465,3.9817,4.308
20.837000,2.0688,-0.2179,3.9743,4.486
20.843000,2.4523,-0.3169,3.8125,4.544
20.847000,2.7670,-0.4323,3.4852,4.471
20.852000,3.0572,-0.4873,3.0858,4.371
20.857000,3.2593,-0.5751,2.6095,4.215
20.862000,3.4102,-0.6281,2.0034,4.005
20.867000,3.4242,-0.7222,1.4082,3.772
20.872000,3.4759,-0.7707,0.8521,3.661
20.878000,3.4268,-0.8521,0.3752,3.551
20.883000,3.2961,-0.9488,-0.0542,3.430
20.887000,3.1244,-1.0201,-0.3836,3.309
20.956000,2.9043,-1.0632,-0.8024,3.195
20.957000,2.6135,-1.1015,-1.2202,3.088
20.958000,2.3231,-1.1779,-1.6467,3.082
20.958000,1.9982,-1.3299,-2.1568,3.227
20.958000,1.6878,-1.4230,-2.5574,3.378
20.959000,1.3772,-1.5670,-2.9158,3.585
20.959000,1.0195,-1.7540,-3.3094,3.882
20.959000,0.7143,-1.8834,-3.5781,4.106
20.960000,0.4346,-1.9814,-3.7607,4.273
20.960000,0.2972,-2.0887,-3.8861,4.422
20.960000,0.2634,-2.1621,-3.9162,4.481
20.960000,0.3140,-2.2643,-3.8365,4.466
20.961000,0.3202,-2.4385,-3.7592,4.492
20.961000,0.3969,-2.5417,-3.8607,4.639
20.961000,0.4470,-2.6910,-3.8897,4.751
20.968000,0.5588,-2.7718,-3.8462,4.774
20.972000,0.7064,-2.8898,-3.8374,4.855
20.976000,0.7754,-3.0330,-3.7602,4.893
20.981000,0.8118,-3.0727,-3.7579,4.922
20.986000,0.9502,-3.0713,-3.6460,4.861
20.992000,1.0479,-3.0670,-3.4509,4.734
20.996000,1.0914,-3.0674,-3.2105,4.572
21.000000,1.1338,-3.1279,-3.0105,4.487
21.006000,1.2035,-3.1318,-2.7956,4.367
21.011000,1.3054,-3.1058,-2.5820,4.245
21.015000,1.3849,-3.0385,-2.4099,4.118
21.022000,1.3536,-2.9323,-2.3656,4.003
21.078000,1.2570,-2.7895,-2.4562,3.924
21.079000,1.2192,-2.7315,-2.5193,3.911
21.079000,1.1292,-2.7152,-2.4929,3.855
21.080000,1.0747,-2.6592,-2.3488,3.707
21.080000,1.0459,-2.6330,-2.1155,3.536
21.080000,1.0238,-2.4816,-1.9267,3.304
21.080000,0.9515,-2.3729,-1.7412,3.093
21.081000,0.8154,-2.1851,-1.6475,2.855
21.081000,0.6999,-1.9614,-1.6738,2.672
21.081000,0.6362,-1.7325,-1.8275,2.597
21.082000,0.6077,-1.5196,-2.0012,2.585
21.082000,0.6072,-1.3342,-2.2048,2.648
21.086000,0.6413,-1.1969,-2.5011,2.846
21.090000,0.6781,-1.0160,-2.7283,2.989
21.096000,0.7030,-0.8463,-2.8078,3.016
21.100000,0.7130,-0.6538,-2.7571,2.922
21.105000,0.6575,-0.4576,-2.6027,2.723
21.111000,0.6846,-0.2217,-2.4955,2.597
21.115000,0.7362,0.0061,-2.3518,2.464
21.119000,0.7241,0.1684,-2.1623,2.287
21.187000,0.7418,0.3492,-2.0084,2.169
21.188000,0.8085,0.5558,-1.9499,2.183
21.188000,0.7925,0.7333,-1.8481,2.140
21.188000,0.7993,0.8911,-1.6409,2.031
21.189000,0.7930,1.0703,-1.5055,2.010
21.189000,0.7216,1.2828,-1.2696,1.944
21.189000,0.5180,1.3640,-0.9457,1.739
21.190000,0.4308,1.5003,-0.5504,1.655
21.190000,0.4119,1.5718,0.0003,1.625
21.190000,0.3845,1.6643,0.6132,1.815
21.191000,0.4324,1.8171,1.2104,2.226
21.191000,0.4742,1.8982,1.9023,2.729
21.191000,0.4463,1.9477,2.4791,3.184
21.191000,0.3903,1.9835,2.9659,3.589
21.200000,0.2802,2.0104,3.3868,3.948
21.201000,0.2386,2.0849,3.6947,4.249
21.206000,0.2203,2.2000,3.9590,4.535
21.213000,0.2232,2.2716,4.2231,4.800
21.214000,0.2002,2.3618,4.3436,4.948
21.219000,0.2062,2.3754,4.2963,4.914
21.225000,0.2264,2.4061,4.1338,4.788
21.283000,0.2815,2.4830,3.8987,4.631
21.285000,0.3638,2.5157,3.6672,4.462
21.287000,0.3700,2.5218,3.4388,4.280
21.290000,0.3907,2.5545,3.2773,4.174
21.291000,0.3587,2.5139,3.2277,4.107
21.294000,0.2739,2.5058,3.4281,4.255
21.295000,0.1124,2.5344,3.7615,4.537
21.296000,-0.1499,2.5181,4.0844,4.801
21.296000,-0.5010,2.4826,4.2586,4.955
21.297000,-0.7139,2.4253,4.3947,5.070
21.297000,-0.8844,2.4103,4.4522,5.139
21.298000,-1.0578,2.4109,4.3741,5.105
21.298000,-1.1478,2.3913,4.3161,5.066
21.299000,-1.2063,2.3397,4.1777,4.938
21.299000,-1.3431,2.2373,3.8416,4.644
21.303000,-1.4220,2.1345,3.5566,4.385
21.311000,-1.5051,1.9982,3.2528,4.104
21.314000,-1.5999,1.9056,2.9827,3.884
21.318000,-1.5940,1.8277,2.7868,3.694
21.324000,-1.4925,1.7436,2.6454,3.502
21.376000,-1.3931,1.6344,2.5106,3.304
21.377000,-1.3057,1.4549,2.3653,3.069
21.378000,-1.1419,1.3106,2.3123,2.893
21.379000,-0.9336,1.1848,2.4446,2.872
21.380000,-0.9326,1.0170,2.7623,3.088
21.381000,-0.8756,0.7971,3.0435,3.266
21.382000,-0.8511,0.5799,3.3912,3.544
21.383000,-0.8688,0.4720,3.6865,3.817
21.384000,-0.9236,0.3816,3.8679,3.995
21.384000,-0.9270,0.2677,3.9503,4.066
21.385000,-0.9290,0.0270,3.9269,4.035
21.386000,-0.9986,-0.1586,3.7717,3.905
21.389000,-1.0131,-0.2177,3.4539,3.606
21.393000,-0.9627,-0.2457,3.1193,3.274
21.398000,-0.9763,-0.3069,2.7821,2.964
21.404000,-1.0318,-0.4439,2.4755,2.718
21.408000,-1.0598,-0.5802,2.0704,2.397
21.413000,-1.0622,-0.6505,1.6764,2.089
21.418000,-1.0867,-0.7071,1.3483,1.871
21.423000,-1.1502,-0.8002,1.0332,1.741
21.428000,-1.1619,-0.8889,0.6306,1.593
21.432000,-1.1845,-0.9537,0.1809,1.531
21.437000,-1.2234,-0.9994,-0.1581,1.588
21.504000,-1.3124,-1.1163,-0.6380,1.837
21.505000,-1.3563,-1.2324,-1.0988,2.137
21.506000,-1.3893,-1.3639,-1.5935,2.516
21.507000,-1.3997,-1.4603,-2.1079,2.921
21.507000,-1.2468,-1.5358,-2.5251,3.208
21.508000,-1.1169,-1.6686,-2.7835,3.432
21.508000,-1.0378,-1.7464,-3.0556,3.669
21.508000,-0.9159,-1.7808,-3.3580,3.910
21.509000,-0.8158,-1.8988,-3.5618,4.118
21.509000,-0.7902,-1.9949,-3.7244,4.298
21.509000,-0.7667,-2.0240,-3.8121,4.384
21.510000,-0.7215,-2.0625,-3.8372,4.416
21.510000,-0.6087,-2.0966,-3.7061,4.301
21.510000,-0.5382,-2.0907,-3.6003,4.198
21.513000,-0.5004,-2.0740,-3.5937,4.179
21.517000,-0.4960,-2.0612,-3.6164,4.192
21.523000,-0.4607,-2.0548,-3.6206,4.188
21.528000,-0.4116,-2.0908,-3.6253,4.205
21.532000,-0.3252,-2.1049,-3.7092,4.277
21.537000,-0.2614,-2.1185,-3.8388,4.392
21.545000,-0.1989,-2.1339,-4.0046,4.542
21.547000,-0.0496,-2.1414,-4.1230,4.646
21.553000,0.0813,-2.1291,-4.1461,4.662
21.558000,0.1844,-2.1497,-4.1171,4.648
21.629000,0.3318,-2.1337,-3.9833,4.531
21.630000,0.5213,-2.1440,-3.6633,4.276
21.631000,0.6649,-2.1163,-3.2095,3.901
21.632000,0.8609,-2.0681,-2.8581,3.631
21.632000,1.0092,-2.0314,-2.5751,3.432
21.632000,1.0215,-2.0087,-2.4629,3.338
21.633000,1.0514,-2.0003,-2.4015,3.298
21.633000,1.0440,-1.9128,-2.4939,3.312
21.633000,1.0042,-1.8563,-2.5223,3.289
21.634000,1.0013,-1.7299,-2.5804,3.264
21.634000,0.9731,-1.6628,-2.5485,3.195
21.635000,1.0659,-1.5856,-2.4578,3.113
21.635000,1.1648,-1.4460,-2.3322,2.981
21.636000,1.2508,-1.3466,-2.3128,2.954
21.636000,1.2499,-1.2804,-2.3852,2.982
21.636000,1.2364,-1.2062,-2.5137,3.050
21.641000,1.1671,-1.0852,-2.6150,3.062
21.646000,1.0895,-0.9891,-2.6341,3.017
21.651000,0.9862,-0.8339,-2.5523,2.860
21.655000,0.8785,-0.6964,-2.4653,2.708
21.661000,0.8333,-0.5500,-2.3754,2.577
21.666000,0.8866,-0.3612,-2.3548,2.542
21.671000,0.8087,-0.2229,-2.3914,2.534
21.724000,0.7768,-0.1299,-2.3684,2.496
21.726000,0.6513,0.0065,-2.2764,2.368
21.726000,0.5758,0.1332,-2.1081,2.189
21.727000,0.4525,0.2531,-1.8949,1.965
21.728000,0.3989,0.3878,-1.7182,1.806
21.728000,0.4247,0.5064,-1.4397,1.584
21.728000,0.4440,0.6687,-1.0807,1.346
21.729000,0.3991,0.8330,-0.6670,1.139
21.729000,0.3713,0.9777,-0.2679,1.080
21.729000,0.3655,1.0499,-0.0219,1.112
21.729000,0.2194,1.1790,0.0209,1.199
21.730000,0.1334,1.3292,0.2553,1.360
21.736000,0.0264,1.4310,0.5136,1.521
21.741000,-0.2643,1.4940,0.6643,1.656
21.745000,-0.5308,1.5952,0.7838,1.855
21.751000,-0.6520,1.7229,0.8431,2.026
21.756000,-0.8149,1.7887,1.0311,2.220
21.761000,-0.9000,1.8793,1.1486,2.379
21.766000,-0.9645,1.9520,1.3510,2.562
21.771000,-0.9989,2.0140,1.5734,2.744
21.849000,-0.9843,2.0487,1.8661,2.941
21.851000,-0.9994,2.0750,2.2745,3.237
21.851000,-1.0228,2.0879,2.6145,3.499
21.851000,-1.1071,2.0921,2.9415,3.776
21.852000,-1.1447,2.1137,3.3247,4.103
21.852000,-1.1479,2.0591,3.5852,4.291
21.853000,-1.1268,2.0383,3.8283,4.481
21.853000,-1.0865,2.0700,3.9516,4.591
21.853000,-1.0540,2.0917,3.9481,4.591
21.853000,-0.8738,2.1250,3.9472,4.567
21.854000,-0.7301,2.2057,3.9083,4.547
21.855000,-0.5980,2.2931,3.7979,4.477
21.855000,-0.4592,2.3825,3.6066,4.347
21.856000,-0.3711,2.4190,3.4205,4.206
21.856000,-0.2895,2.5058,3.2299,4.098
21.856000,-0.2021,2.5617,3.1350,4.054
21.856000,-0.0388,2.6252,2.9155,3.923
21.860000,0.1607,2.6276,2.7505,3.807
21.865000,0.3606,2.6075,2.5679,3.677
21.870000,0.4844,2.5724,2.4034,3.554
21.874000,0.4604,2.5039,2.2826,3.419
21.880000,0.3335,2.3734,2.2294,3.273
21.884000,0.1052,2.2003,2.2124,3.122
21.889000,-0.0702,1.9872,2.2721,3.019
21.956000,-0.2422,1.7746,2.4443,3.030
21.958000,-0.2892,1.5193,2.7507,3.156
21.959000,-0.3674,1.2587,3.1056,3.371
21.959000,-0.2497,1.0301,3.5697,3.724
21.959000,0.0203,0.8636,4.0958,4.186
21.960000,0.2662,0.6307,4.4555,4.508
21.960000,0.4767,0.4145,4.5539,4.598
21.960000,0.6956,0.2070,4.4542,4.513
21.961000,0.9122,0.0316,4.2430,4.340
21.961000,1.0769,-0.1600,3.9686,4.115
21.961000,1.1526,-0.2697,3.5402,3.733
21.962000,1.2431,-0.3549,3.0966,3.356
21.962000,1.2511,-0.4749,2.6015,2.926
21.963000,1.2539,-0.5196,2.0885,2.491
21.963000,1.2158,-0.5486,1.5287,2.029
21.969000,1.1343,-0.5421,0.8546,1.520
21.974000,1.0590,-0.5974,0.0945,1.220
21.978000,0.9179,-0.6321,-0.7736,1.357
21.983000,0.7340,-0.6761,-1.6025,1.888
21.988000,0.6378,-0.7044,-2.4001,2.581
21.994000,0.5257,-0.7806,-3.0406,3.183
21.998000,0.4709,-0.7219,-3.5873,3.689
22.003000,0.4226,-0.7385,-3.9926,4.082
22.065000,0.3416,-0.7752,-4.0442,4.132
22.065000,0.2518,-0.8604,-4.0728,4.170
22.066000,0.2247,-0.9679,-4.1164,4.235
22.066000,0.1646,-1.0620,-4.1534,4.290
22.066000,0.1789,-1.0733,-4.2174,4.355
22.066000,0.1959,-1.1144,-4.2125,4.362
22.067000,0.1394,-1.2045,-3.9714,4.152
22.067000,0.1105,-1.3204,-3.6205,3.855
22.067000,0.0541,-1.4150,-3.3504,3.637
22.067000,-0.0271,-1.4312,-3.0677,3.385
22.067000,-0.0372,-1.5181,-2.8004,3.186
22.068000,0.0335,-1.6307,-2.5911,3.062
22.068000,0.0462,-1.7216,-2.4322,2.980
22.073000,0.0485,-1.8344,-2.2347,2.892
22.079000,0.0528,-1.9384,-2.0153,2.797
22.082000,0.0929,-1.9741,-1.9217,2.757
22.088000,0.1879,-2.0232,-1.9275,2.801
22.094000,0.2731,-2.1147,-1.8004,2.791
22.098000,0.3320,-2.1318,-1.5975,2.685
22.102000,0.4749,-2.1442,-1.4264,2.619
22.172000,0.5490,-2.1525,-1.2652,2.556
22.172000,0.5214,-2.1739,-1.2377,2.555
22.173000,0.4689,-2.1536,-1.3413,2.580
22.173000,0.4614,-2.1580,-1.4975,2.667
22.173000,0.4466,-2.1676,-1.6704,2.773
22.173000,0.3670,-2.1057,-1.9894,2.920
22.174000,0.2219,-2.0413,-2.3374,3.111
22.174000,0.0444,-1.9212,-2.6454,3.270
22.174000,-0.0938,-1.8475,-2.9117,3.450
22.175000,-0.2221,-1.8458,-3.1153,3.628
22.175000,-0.3008,-1.7792,-3.1970,3.671
22.175000,-0.3112,-1.6811,-3.1928,3.622
22.176000,-0.3184,-1.5757,-3.1818,3.565
22.176000,-0.2894,-1.4579,-3.1306,3.465
22.178000,-0.3056,-1.4066,-3.1182,3.434
22.183000,-0.2734,-1.3617,-3.0873,3.385
22.187000,-0.2070,-1.3089,-2.9017,3.190
22.191000,-0.0802,-1.2411,-2.7074,2.979
22.198000,0.0642,-1.1730,-2.3582,2.635
22.202000,0.2292,-1.0621,-1.9759,2.255
22.211000,0.3699,-0.9997,-1.6511,1.965
22.212000,0.4174,-0.9023,-1.5269,1.822
22.216000,0.4655,-0.7913,-1.3640,1.644
22.221000,0.5480,-0.6311,-1.2054,1.467
22.282000,0.5811,-0.4812,-1.2068,1.423
22.283000,0.6508,-0.3249,-1.2101,1.412
22.286000,0.6966,-0.1474,-1.2108,1.405
22.286000,0.7448,-0.0562,-1.2284,1.438
22.287000,0.7665,0.1117,-1.1216,1.363
22.287000,0.8167,0.2870,-1.0345,1.349
22.287000,0.8474,0.4223,-1.0248,1.395
22.288000,0.8364,0.5319,-0.6880,1.207
22.288000,0.8631,0.6396,-0.4287,1.157
22.289000,0.9181,0.7787,-0.2586,1.231
22.289000,0.8960,0.9421,-0.0317,1.301
22.289000,0.8693,1.0987,0.2470,1.423
22.289000,0.8434,1.1625,0.5010,1.521
22.293000,0.8520,1.2458,0.8357,1.725
22.296000,0.9120,1.3890,1.1793,2.038
22.301000,1.0311,1.5392,1.5370,2.407
22.305000,1.0899,1.6674,1.7318,2.640
22.311000,1.1366,1.8003,1.7567,2.760
22.316000,1.1520,1.9619,1.8794,2.951
22.321000,1.0379,1.9568,2.0277,3.003
22.390000,0.8676,2.0144,2.0893,3.029
22.390000,0.6959,2.1349,2.0666,3.052
22.391000,0.5192,2.1897,2.0882,3.070
22.391000,0.3161,2.2009,2.1297,3.079
22.391000,0.1490,2.1954,2.1191,3.055
22.392000,-0.0210,2.1828,2.3432,3.202
22.392000,-0.2256,2.1654,2.7707,3.524
22.392000,-0.4026,2.1475,3.1891,3.866
22.393000,-0.5114,2.1623,3.6009,4.231
22.393000,-0.5358,2.0870,4.0664,4.602
22.393000,-0.5092,1.9975,4.5099,4.959
22.393000,-0.4345,1.9267,4.8456,5.233
22.394000,-0.2991,1.8789,5.0644,5.410
22.394000,-0.1724,1.7984,5.1432,5.451
22.395000,-0.0855,1.7497,5.2088,5.496
22.401000,0.0727,1.7564,5.2211,5.509
22.406000,0.2093,1.7704,5.0150,5.322
22.411000,0.1718,1.8132,4.6675,5.010
22.415000,0.0179,1.8516,4.2790,4.662
22.421000,-0.1585,1.8840,3.8728,4.310
22.430000,-0.3046,1.8654,3.5011,3.979
22.433000,-0.4155,1.8851,3.3237,3.844
22.436000,-0.5437,1.8905,3.0699,3.646
22.441000,-0.5868,1.8724,2.8401,3.452
22.510000,-0.6218,1.7905,2.6054,3.222
22.511000,-0.6009,1.7265,2.3198,2.954
22.512000,-0.7277,1.6046,2.2270,2.840
22.512000,-0.7990,1.4132,2.2092,2.742
22.512000,-0.8609,1.2481,2.2639,2.725
22.513000,-0.9695,1.1066,2.4557,2.863
22.513000,-1.1140,1.0046,2.8544,3.225
22.513000,-1.1899,0.8578,3.2163,3.535
22.513000,-1.1685,0.7133,3.3100,3.582
22.514000,-1.1651,0.5254,3.2508,3.493
22.514000,-1.0580,0.3251,3.2495,3.433
22.514000,-0.8996,0.0931,3.1818,3.308
22.514000,-0.7274,-0.0844,3.0932,3.179
22.514000,-0.5600,-0.2029,3.0437,3.101
22.515000,-0.4993,-0.3132,3.0336,3.090
22.521000,-0.4437,-0.4250,2.9365,3.000
22.525000,-0.4044,-0.5266,2.8815,2.957
22.530000,-0.4377,-0.6923,2.8570,2.972
22.535000,-0.4237,-0.8194,2.5807,2.741
22.540000,-0.4164,-0.8528,2.2540,2.446
22.545000,-0.4422,-0.8621,2.0536,2.271
22.549000,-0.5736,-0.9021,1.7882,2.083
22.554000,-0.7056,-0.9489,1.3479,1.793
22.593000,-0.7788,-1.0333,0.8926,1.572
22.594000,-0.8969,-1.0735,0.3458,1.441
22.595000,-1.0219,-1.1218,-0.1876,1.529
22.595000,-1.1375,-1.1344,-0.8707,1.827
22.595000,-1.3514,-1.1799,-1.5103,2.345
22.596000,-1.5249,-1.2437,-2.0350,2.831
22.596000,-1.5745,-1.2747,-2.4143,3.152
22.597000,-1.5697,-1.3014,-2.8614,3.514
22.600000,-1.5652,-1.3618,-3.1996,3.813
22.604000,-1.5532,-1.4221,-3.5011,4.086
22.609000,-1.5361,-1.5010,-3.7207,4.296
22.614000,-1.5280,-1.5648,-3.8993,4.471
22.619000,-1.6707,-1.6639,-3.9342,4.587
22.623000,-1.7940,-1.7837,-4.0048,4.737
22.630000,-1.8575,-1.9143,-4.0086,4.815
22.633000,-1.8455,-1.9173,-3.8308,4.664
22.638000,-1.8111,-1.9923,-3.4587,4.383
22.690000,-1.6166,-2.0993,-3.1550,4.120
22.692000,-1.4037,-2.2559,-2.8209,3.875
22.692000,-1.0980,-2.4364,-2.4894,3.652
22.693000,-0.8230,-2.5504,-2.2222,3.481
22.693000,-0.5423,-2.6201,-2.0141,3.349
22.693000,-0.2722,-2.6486,-1.8812,3.260
22.693000,-0.0938,-2.6579,-1.8900,3.263
22.694000,0.0364,-2.6894,-1.8343,3.256
22.694000,0.0529,-2.7549,-1.8481,3.318
22.694000,0.1553,-2.7898,-1.9720,3.420
22.695000,0.2034,-2.7940,-2.2228,3.576
22.699000,0.2326,-2.8130,-2.5094,3.777
22.704000,0.2765,-2.8202,-2.7124,3.923
22.708000,0.3234,-2.8035,-2.9470,4.080
22.713000,0.3280,-2.8102,-3.1870,4.262
22.718000,0.3188,-2.7801,-3.4544,4.446
22.722000,0.3502,-2.7512,-3.7326,4.650
22.728000,0.3978,-2.6680,-3.8783,4.724
22.733000,0.3754,-2.5998,-4.0259,4.807
22.737000,0.3664,-2.5363,-4.0945,4.830
22.745000,0.5307,-2.4148,-4.1946,4.869
22.749000,0.6380,-2.2450,-4.2328,4.834
22.753000,0.6062,-2.1461,-4.3149,4.857
22.758000,0.6456,-2.0603,-4.3619,4.867
22.828000,0.6509,-1.9084,-4.2404,4.695
22.829000,0.6867,-1.7646,-4.0629,4.483
22.829000,0.6456,-1.5909,-3.8102,4.179
22.830000,0.5325,-1.4064,-3.4562,3.769
22.830000,0.3958,-1.2136,-3.1371,3.387
22.830000,0.4202,-1.0534,-2.8001,3.021
22.831000,0.4451,-0.8852,-2.4190,2.614
22.831000,0.3506,-0.7601,-2.0195,2.186
22.831000,0.2254,-0.6137,-1.5940,1.723
22.832000,0.1056,-0.4607,-1.3193,1.401
22.832000,-0.0635,-0.3253,-1.0613,1.112
22.832000,-0.1959,-0.1642,-0.7626,0.804
22.832000,-0.2819,0.0296,-0.5426,0.612
22.833000,-0.3045,0.2154,-0.2986,0.478
22.833000,-0.3404,0.3980,-0.0089,0.524
22.838000,-0.3583,0.6110,0.1588,0.726
22.843000,-0.3920,0.7681,0.3435,0.928
22.847000,-0.4990,0.9722,0.4043,1.165
22.853000,-0.6301,1.1086,0.3530,1.323
22.857000,-0.7306,1.2977,0.3280,1.525
22.863000,-0.8177,1.4536,0.3217,1.699
22.867000,-0.8584,1.5528,0.2358,1.790
22.871000,-0.9445,1.6076,0.2304,1.879
22.938000,-1.1245,1.6759,0.2979,2.040
22.939000,-1.3026,1.7720,0.3543,2.228
22.939000,-1.4481,1.8911,0.5242,2.439
22.940000,-1.5032,2.0191,0.7784,2.635
22.940000,-1.5247,2.1226,0.9421,2.778
22.941000,-1.5435,2.1395,1.0801,2.851
22.941000,-1.4920,2.1654,1.3073,2.937
22.941000,-1.3729,2.2289,1.5232,3.029
22.941000,-1.2239,2.2413,1.8332,3.144
22.942000,-1.0635,2.2719,2.1298,3.291
22.942000,-0.8966,2.3610,2.3987,3.483
22.942000,-0.7065,2.3574,2.6620,3.625
22.942000,-0.4936,2.3257,2.8961,3.747
22.943000,-0.3314,2.3586,3.0556,3.874
22.947000,-0.2415,2.4106,3.4542,4.219
22.952000,-0.2403,2.4592,3.9010,4.618
22.958000,-0.2099,2.5611,4.1333,4.867
22.960000,-0.2242,2.7090,4.2831,5.073
22.967000,-0.2469,2.7709,4.2503,5.080
22.972000,-0.1746,2.8834,4.0109,4.943
22.979000,-0.0190,2.9777,3.6079,4.678
22.982000,0.1885,3.0090,3.4020,4.546
22.985000,0.2210,3.0880,3.0123,4.320
23.068000,0.2674,3.1700,2.5890,4.102
23.069000,0.2893,3.2414,2.2248,3.942
23.069000,0.2698,3.2052,1.7801,3.676
23.069000,0.1940,3.0459,1.6225,3.457
23.070000,-0.0408,2.7853,1.6726,3.249
23.070000,-0.2988,2.6657,1.8197,3.241
23.070000,-0.3271,2.5147,2.1189,3.305
23.071000,-0.2533,2.2655,2.5674,3.433
23.071000,-0.2168,1.8907,3.1901,3.715
23.071000,-0.0292,1.5934,3.8866,4.201
23.071000,0.1752,1.2669,4.4929,4.671
23.072000,0.4035,0.9433,5.1084,5.210
23.072000,0.7295,0.6884,5.7481,5.835
23.072000,1.0528,0.4497,6.2748,6.378
23.073000,1.2465,0.1999,6.7230,6.840
23.073000,1.5050,-0.0272,6.8382,7.002
23.073000,1.7760,-0.1275,6.6980,6.931
23.081000,1.9502,-0.2354,6.3005,6.600
23.082000,1.9337,-0.3867,5.6531,5.987
23.086000,1.7739,-0.4780,4.9254,5.257
23.091000,1.6821,-0.5398,4.2629,4.614
23.097000,1.6567,-0.5143,3.5982,3.994
23.100000,1.6599,-0.6019,2.6774,3.207
23.104000,1.6969,-0.6029,1.6246,2.425
23.176000,1.7441,-0.6498,0.4793,1.922
23.176000,1.7773,-0.7052,-0.6371,2.015
23.177000,1.8007,-0.7386,-1.7046,2.587
23.177000,1.7563,-0.7633,-2.7167,3.324
23.177000,1.6383,-0.8159,-3.4548,3.910
23.178000,1.4695,-0.8905,-4.1137,4.458
23.178000,1.2707,-0.9196,-4.5433,4.806
23.178000,1.0214,-1.0628,-4.8280,5.048
23.179000,0.7954,-1.1048,-4.8677,5.054
23.179000,0.5536,-1.1675,-4.8756,5.044
23.179000,0.1513,-1.5504,-4.9661,5.205
23.180000,-0.0897,-1.7224,-4.8399,5.138
23.180000,-0.0764,-1.7537,-4.5712,4.897
23.180000,0.0003,-1.8218,-4.2388,4.614
23.180000,0.0212,-1.9296,-3.7489,4.216
23.186000,0.0349,-2.0497,-3.2563,3.848
23.191000,0.0970,-2.1541,-2.8727,3.592
23.196000,0.1935,-2.2797,-2.6689,3.515
23.199000,0.2770,-2.4032,-2.4721,3.459
23.204000,0.3767,-2.4747,-2.3683,3.446
23.211000,0.4529,-2.5019,-2.3209,3.443
23.215000,0.5516,-2.5446,-2.3062,3.478
23.218000,0.7067,-2.5600,-2.2449,3.477
23.225000,0.7824,-2.5630,-2.1464,3.433
23.300000,0.7889,-2.5871,-2.1135,3.433
23.301000,0.8266,-2.6136,-1.9976,3.392
23.301000,0.9053,-2.6090,-1.7748,3.283
23.302000,0.9722,-2.6168,-1.6555,3.246
23.302000,1.0055,-2.6731,-1.5653,3.257
23.302000,0.8968,-2.7228,-1.5158,3.243
23.303000,0.7846,-2.7232,-1.7271,3.319
23.303000,0.6755,-2.7335,-1.8618,3.376
23.303000,0.4041,-2.7225,-1.9848,3.393
23.303000,0.2527,-2.6586,-2.3238,3.540
23.304000,0.0411,-2.6106,-2.5391,3.642
23.304000,-0.1379,-2.5995,-2.6984,3.749
23.304000,-0.2225,-2.5393,-2.9092,3.868
23.305000,-0.2729,-2.4485,-3.1050,3.964
23.305000,-0.2413,-2.3194,-3.3676,4.096
23.305000,-0.2115,-2.1993,-3.6495,4.266
23.310000,-0.1190,-2.0757,-3.8435,4.370
23.315000,0.0455,-1.9768,-3.9214,4.392
23.318000,0.1818,-1.8261,-3.6896,4.121
23.324000,0.3408,-1.6190,-3.3685,3.753
23.329000,0.4752,-1.4828,-3.0222,3.400
23.333000,0.5497,-1.3483,-2.7655,3.125
23.337000,0.6102,-1.2562,-2.3998,2.777
23.406000,0.6590,-1.1014,-2.1090,2.469
23.407000,0.8228,-0.8984,-1.9529,2.302
23.407000,0.9392,-0.6161,-1.6087,1.962
23.407000,0.9747,-0.3958,-1.2078,1.602
23.408000,0.9317,-0.2064,-0.9082,1.317
23.408000,0.8483,-0.0195,-0.6832,1.089
23.408000,0.7528,0.2154,-0.4922,0.925
23.409000,0.7072,0.4092,-0.2703,0.861
23.409000,0.5797,0.5979,-0.1777,0.852
23.409000,0.5619,0.7602,-0.2073,0.968
23.409000,0.4937,0.9467,-0.2564,1.098
23.410000,0.3697,1.0288,-0.2298,1.117
23.410000,0.3146,1.1215,-0.1419,1.173
23.410000,0.2275,1.2464,-0.0264,1.267
23.414000,0.1204,1.4082,0.2123,1.429
23.419000,0.1010,1.5878,0.4807,1.662
23.423000,0.0066,1.7013,0.6547,1.823
23.427000,-0.0598,1.8110,0.7917,1.977
23.434000,-0.1563,1.8234,1.0473,2.109
23.437000,-0.1463,1.9106,1.3475,2.343
23.444000,-0.0321,1.9747,1.4720,2.463
23.447000,0.0382,1.9990,1.5214,2.512
23.452000,0.1439,1.9861,1.6058,2.558
23.457000,0.2272,1.8741,1.7824,2.596
23.530000,0.2763,1.8377,2.0055,2.734
23.530000,0.2699,1.8480,2.1676,2.861
23.531000,0.3396,1.7782,2.3908,2.999
23.531000,0.3895,1.6974,2.6872,3.202
23.531000,0.4748,1.5888,3.0066,3.434
23.532000,0.5048,1.4853,3.3733,3.720
23.532000,0.4061,1.4274,3.7540,4.037
23.532000,0.3395,1.3764,3.9074,4.157
23.533000,0.2475,1.3582,4.1903,4.412
23.533000,0.1488,1.3053,4.5743,4.759
23.533000,0.1133,1.2983,4.7585,4.934
23.533000,0.0482,1.2725,4.7767,4.944
23.534000,-0.1018,1.2489,4.7634,4.925
23.534000,-0.1954,1.2609,4.7258,4.895
23.534000,-0.3428,1.2531,4.5972,4.777
23.537000,-0.5699,1.1753,4.2631,4.459
23.543000,-0.6438,1.1765,3.9360,4.158
23.546000,-0.6697,1.3098,3.4338,3.736
23.554000,-0.8223,1.3627,2.8974,3.306
23.556000,-1.0042,1.4126,2.2210,2.817
23.562000,-1.0967,1.4220,1.7583,2.513
23.566000,-1.1153,1.4252,1.3025,2.230
23.571000,-1.0201,1.4704,0.8630,1.987
23.638000,-0.9047,1.3888,0.3339,1.691
23.639000,-0.8624,1.3084,0.0132,1.567
23.639000,-0.7692,1.2512,-0.0974,1.472
23.640000,-0.6417,1.1673,-0.0675,1.334
23.640000,-0.5351,1.1448,0.1435,1.272
23.640000,-0.5086,1.0854,0.5690,1.327
23.641000,-0.5548,1.0459,1.0397,1.576
23.641000,-0.6399,0.9773,1.6781,2.045
23.641000,-0.8184,0.8070,2.2361,2.514
23.641000,-1.1526,0.6437,2.7460,3.047
23.642000,-1.4199,0.5391,3.3064,3.639
23.642000,-1.5767,0.4635,3.7865,4.128
23.642000,-1.8455,0.2675,4.0605,4.468
23.643000,-1.8744,0.0723,4.2869,4.679
23.647000,-1.7423,-0.0365,4.2199,4.566
23.653000,-1.6791,-0.1504,3.9414,4.287
23.655000,-1.6182,-0.3169,3.4827,3.853
23.663000,-1.4850,-0.4443,2.9582,3.340
23.665000,-1.3393,-0.5486,2.3627,2.771
23.670000,-1.2265,-0.6100,1.7100,2.191
23.677000,-1.1805,-0.7136,1.1215,1.778
23.680000,-1.1270,-0.7868,0.5656,1.486
23.686000,-1.1551,-0.9129,0.1086,1.476
23.690000,-1.1410,-0.9692,-0.3049,1.528
23.750000,-1.1328,-0.9843,-0.4839,1.577
23.751000,-1.1112,-1.0277,-0.8925,1.757
23.751000,-1.1457,-1.0272,-1.4208,2.094
23.751000,-1.2553,-1.0945,-1.9806,2.588
23.752000,-1.3535,-1.1594,-2.5390,3.102
23.752000,-1.3566,-1.2357,-2.8574,3.396
23.752000,-1.3748,-1.3443,-3.0656,3.619
23.753000,-1.3457,-1.4277,-3.3263,3.862
23.753000,-1.2884,-1.5000,-3.6207,4.125
23.753000,-1.2118,-1.5823,-3.8939,4.374
23.753000,-1.2433,-1.6817,-3.9930,4.508
23.754000,-1.3524,-1.8226,-3.7528,4.386
23.756000,-1.4650,-1.9407,-3.5012,4.263
23.760000,-1.4376,-1.9289,-3.4243,4.185
23.765000,-1.4879,-2.0342,-3.1483,4.033
23.771000,-1.6184,-2.1778,-2.7331,3.851
23.778000,-1.6834,-2.2723,-2.3000,3.645
23.780000,-1.6353,-2.2954,-1.9866,3.448
23.785000,-1.4816,-2.2836,-1.6584,3.188
23.789000,-1.3224,-2.2428,-1.4966,3.003
23.854000,-1.0956,-2.2210,-1.5652,2.930
23.858000,-0.8175,-2.2398,-1.7110,2.935
23.860000,-0.5020,-2.2634,-1.8979,2.996
23.861000,-0.1876,-2.2389,-2.0615,3.049
23.862000,0.1433,-2.1806,-2.2233,3.118
23.862000,0.4524,-2.1626,-2.3837,3.250
23.863000,0.6282,-2.1343,-2.4612,3.318
23.864000,0.8537,-2.0767,-2.4346,3.312
23.865000,0.9616,-1.9802,-2.4307,3.279
23.867000,0.9667,-1.8976,-2.4566,3.251
23.867000,0.9435,-1.8553,-2.4763,3.235
23.869000,0.8729,-1.7911,-2.4850,3.185
23.870000,0.7501,-1.7001,-2.4901,3.107
23.871000,0.6300,-1.5608,-2.4414,2.965
23.873000,0.5123,-1.4735,-2.3915,2.855
23.874000,0.3990,-1.3738,-2.4386,2.827
23.876000,0.2776,-1.2710,-2.5921,2.900
23.879000,0.1616,-1.1621,-2.6395,2.889
23.885000,0.0292,-1.0684,-2.6504,2.858
23.890000,-0.0481,-0.9799,-2.6708,2.845
23.895000,-0.0058,-0.8650,-2.6792,2.815
23.900000,0.0263,-0.6925,-2.6185,2.709
23.905000,-0.0165,-0.5650,-2.4746,2.538
23.976000,-0.0888,-0.4995,-2.3264,2.381
23.978000,-0.1671,-0.3856,-2.0736,2.116
23.978000,-0.1864,-0.2690,-1.6779,1.710
23.979000,-0.2228,-0.2053,-1.3400,1.374
23.980000,-0.3691,-0.1709,-1.0213,1.099
23.981000,-0.4437,-0.1855,-0.6137,0.780
23.981000,-0.4106,-0.1491,-0.2270,0.492
23.983000,-0.2958,-0.0791,0.1681,0.349
23.984000,-0.1057,-0.0001,0.2395,0.262
23.985000,-0.0435,0.1336,0.0736,0.159
23.985000,-0.1614,0.2357,-0.1234,0.311
23.986000,-0.2989,0.3071,-0.4767,0.641
23.987000,-0.3841,0.4595,-0.9463,1.120
23.987000,-0.4990,0.6045,-1.2860,1.506
23.990000,-0.5586,0.8074,-1.4774,1.774
23.992000,-0.6206,1.0303,-1.5138,1.933
23.993000,-0.7087,1.1658,-1.4053,1.959
23.995000,-0.8064,1.2309,-1.1663,1.878
23.998000,-0.8637,1.3114,-0.8519,1.786
24.003000,-0.8210,1.4166,-0.7800,1.814
24.008000,-0.8146,1.5391,-0.7326,1.889
24.016000,-0.8727,1.6502,-0.6355,1.972
24.019000,-0.9138,1.7265,-0.5848,2.039
24.023000,-0.9754,1.8473,-0.6524,2.188
24.091000,-0.9880,1.9748,-0.5732,2.281
24.093000,-1.1055,1.9968,-0.4743,2.331
24.095000,-1.2156,2.0308,-0.4778,2.415
24.096000,-1.2404,2.0437,-0.5434,2.452
24.097000,-1.2880,2.0551,-0.3842,2.456
24.098000,-1.2824,2.0889,0.0423,2.451
24.099000,-1.2090,2.1234,0.5304,2.500
24.099000,-1.1253,2.1343,0.9176,2.581
24.100000,-1.0131,2.1568,1.4054,2.766
24.100000,-0.8347,2.1376,1.8604,2.954
24.102000,-0.5871,2.1292,2.2493,3.152
24.104000,-0.3346,2.1164,2.5512,3.332
24.105000,-0.0292,2.2020,2.8525,3.604
24.105000,0.2242,2.2514,3.0987,3.837
24.107000,0.4073,2.3192,3.3761,4.116
24.108000,0.5620,2.3788,3.6444,4.388
24.110000,0.5773,2.3963,3.7532,4.490
24.115000,0.6406,2.4393,3.8269,4.583
24.117000,0.5901,2.4860,3.8869,4.652
24.123000,0.3665,2.4317,3.8207,4.544
24.128000,0.1808,2.4275,3.9557,4.645
24.133000,0.2267,2.4952,4.0213,4.738
24.137000,0.1995,2.5510,4.0485,4.789
24.205000,0.1157,2.5616,4.1617,4.888
24.206000,-0.0633,2.5517,4.1953,4.911
24.207000,-0.1778,2.4883,4.1801,4.868
24.208000,-0.3628,2.4123,4.1375,4.803
24.208000,-0.6718,2.2147,4.0525,4.667
24.209000,-0.7331,1.9794,4.1043,4.615
24.209000,-0.7438,1.7908,4.2804,4.699
24.209000,-0.7364,1.5406,4.5571,4.867
24.210000,-0.6592,1.2615,4.9373,5.138
24.210000,-0.6134,0.9075,5.4665,5.575
24.210000,-0.4684,0.5874,5.8969,5.945
24.211000,-0.1670,0.2902,6.2104,6.219
24.211000,0.1329,0.0436,6.3264,6.328
24.212000,0.4073,-0.1296,6.2245,6.239
24.212000,0.8935,-0.3261,6.2284,6.301
24.216000,1.2176,-0.7998,6.1088,6.280
24.221000,1.3895,-1.0201,5.7373,5.991
24.228000,1.6329,-1.0211,5.1765,5.523
24.231000,1.8437,-1.0133,4.4864,4.955
24.236000,1.9578,-1.1045,3.8562,4.464
24.242000,1.9547,-1.2510,3.0918,3.866
24.298000,1.9818,-1.3634,2.3316,3.350
24.300000,1.9946,-1.3862,1.4508,2.829
24.301000,2.0606,-1.3878,0.6116,2.559
24.302000,2.1033,-1.3626,-0.2991,2.524
24.303000,1.9689,-1.3482,-1.1957,2.669
24.303000,1.8029,-1.3409,-2.1005,3.076
24.304000,1.5833,-1.4020,-2.9663,3.643
24.305000,1.3810,-1.4061,-3.6600,4.157
24.306000,1.2601,-1.3521,-4.2448,4.630
24.308000,1.1341,-1.3259,-4.7930,5.101
24.309000,0.9614,-1.4055,-5.2883,5.556
24.311000,0.8012,-1.4516,-5.7744,6.008
24.312000,0.5969,-1.5453,-6.0867,6.308
24.313000,0.4683,-1.6860,-6.3690,6.605
24.316000,0.3387,-1.7802,-6.4903,6.739
24.321000,0.2581,-1.8779,-6.3456,6.623
24.330000,0.1908,-1.9604,-6.1644,6.471
24.333000,0.0959,-2.0331,-5.9059,6.247
24.335000,0.0447,-2.1327,-5.6075,6.000
24.403000,0.0254,-2.2695,-5.2449,5.715
24.404000,0.0330,-2.3824,-4.8892,5.439
24.404000,0.0822,-2.4787,-4.6356,5.257
24.405000,0.1564,-2.5977,-4.3734,5.089
24.405000,0.1865,-2.6970,-4.0903,4.903
24.405000,0.2494,-2.7886,-3.8314,4.745
24.405000,0.3356,-2.8091,-3.5220,4.518
24.406000,0.5130,-2.8928,-3.2789,4.403
24.406000,0.6885,-2.9377,-3.0442,4.286
24.407000,0.8413,-2.9636,-2.8628,4.206
24.407000,0.9863,-2.9946,-2.7681,4.196
24.408000,1.0716,-3.0381,-2.7669,4.247
24.408000,1.1619,-3.0489,-2.7538,4.270
24.408000,1.1618,-2.9984,-2.8484,4.296
24.415000,1.0526,-2.8648,-2.9693,4.258
24.416000,0.9489,-2.7579,-3.0811,4.243
24.421000,0.7506,-2.6244,-3.1697,4.183
24.429000,0.5318,-2.5140,-3.2808,4.167
24.430000,0.2941,-2.3831,-3.3360,4.110
24.434000,0.0895,-2.2147,-3.2950,3.971
24.439000,-0.0994,-2.0180,-3.2393,3.818
24.498000,-0.2187,-1.8909,-3.1333,3.666
24.499000,-0.2621,-1.7043,-2.9795,3.442
24.500000,-0.2263,-1.5156,-2.7733,3.168
24.500000,-0.0973,-1.3083,-2.5577,2.875
24.500000,0.1151,-1.1396,-2.3879,2.648
24.501000,0.3412,-0.9644,-2.2301,2.454
24.501000,0.4901,-0.7948,-2.0581,2.260
24.501000,0.5384,-0.6070,-1.9099,2.075
24.501000,0.5267,-0.4657,-1.8046,1.937
24.502000,0.3936,-0.2801,-1.6560,1.725
24.502000,0.2975,-0.0357,-1.5933,1.621
24.503000,0.3651,0.2410,-1.5182,1.580
24.506000,0.4888,0.4949,-1.5193,1.671
24.510000,0.5471,0.7071,-1.5368,1.778
24.515000,0.5525,0.9522,-1.6042,1.946
24.519000,0.6063,1.1136,-1.6884,2.112
24.528000,0.6752,1.3021,-1.7612,2.292
24.530000,0.7043,1.5565,-1.8228,2.498
24.534000,0.7346,1.8508,-1.7993,2.684
24.538000,0.8230,2.0419,-1.6386,2.744
24.598000,0.9153,2.1804,-1.2931,2.695
24.599000,0.9777,2.3569,-0.9541,2.724
24.599000,1.0101,2.5070,-0.6003,2.769
24.600000,1.0101,2.6281,-0.1932,2.822
24.600000,1.0131,2.7129,0.2839,2.910
24.600000,1.0576,2.8166,0.7186,3.093
24.600000,0.9875,2.8191,1.2520,3.239
24.601000,0.7979,2.8213,1.8339,3.458
24.601000,0.6969,2.8822,2.3592,3.789
24.601000,0.6238,2.9560,2.8259,4.137
24.602000,0.5089,2.9780,3.2292,4.422
24.602000,0.3421,2.9765,3.4954,4.604
24.605000,0.1995,2.9233,3.6697,4.696
24.610000,0.1245,2.9019,4.0608,4.993
24.613000,-0.0496,2.8476,4.3434,5.194
24.619000,-0.2512,2.7490,4.6921,5.444
24.623000,-0.4560,2.6819,5.0568,5.742
24.629000,-0.6210,2.5791,5.4568,6.067
24.633000,-0.7754,2.4543,5.9524,6.485
24.638000,-0.8328,2.3496,6.3668,6.837
24.703000,-0.7715,2.2864,6.6718,7.095
24.705000,-0.6414,2.2352,6.8916,7.273
24.708000,-0.5238,2.1314,7.0864,7.418
24.709000,-0.5098,2.0055,7.2037,7.495
24.710000,-0.4561,1.9217,7.1075,7.377
24.711000,-0.3701,1.8875,6.8409,7.106
24.713000,-0.3358,1.7686,6.4305,6.678
24.714000,-0.3820,1.6852,5.9144,6.162
24.715000,-0.4219,1.5758,5.2997,5.545
24.716000,-0.4125,1.4769,4.7104,4.954
24.718000,-0.4231,1.4679,4.1917,4.461
24.719000,-0.4368,1.4391,3.7241,4.016
24.719000,-0.4602,1.3671,3.2524,3.558
24.720000,-0.5665,1.3391,2.6949,3.062
24.721000,-0.6026,1.3082,2.2280,2.653
24.721000,-0.5995,1.3278,1.9541,2.437
24.725000,-0.7294,1.2620,1.7339,2.265
24.728000,-0.9302,1.2259,1.6175,2.233
24.733000,-1.0089,1.1578,1.5948,2.214
24.738000,-0.9947,1.0218,1.6490,2.180
24.745000,-0.9096,0.8350,1.7918,2.176
24.748000,-0.7971,0.6829,2.0855,2.335
24.752000,-0.6864,0.4715,2.5138,2.648
24.758000,-0.6277,0.2407,2.9476,3.023
24.817000,-0.5732,0.0634,3.4499,3.498
24.818000,-0.5133,-0.0733,3.8058,3.841
24.819000,-0.3882,-0.0394,4.0330,4.052
24.819000,-0.2191,-0.2160,4.0556,4.067
24.820000,-0.2069,-0.4286,4.0508,4.079
24.821000,-0.0949,-0.4051,4.0191,4.041
24.822000,0.1104,-0.3615,3.8029,3.822
24.823000,0.1652,-0.3767,3.5699,3.593
24.824000,0.0921,-0.4103,3.1934,3.221
24.825000,-0.0487,-0.3737,2.7503,2.776
24.826000,-0.2471,-0.3502,2.1853,2.227
24.827000,-0.3521,-0.3442,1.7088,1.778
24.829000,-0.5092,-0.3647,1.1866,1.342
24.830000,-0.8500,-0.3659,0.7717,1.205
24.834000,-1.2312,-0.3380,0.4253,1.346
24.837000,-1.5353,-0.3307,0.1952,1.583
24.842000,-1.8438,-0.3105,-0.0505,1.870
24.847000,-2.0115,-0.3012,-0.3524,2.064
24.852000,-2.1128,-0.2619,-0.7514,2.258
24.856000,-2.1223,-0.2783,-1.2282,2.468
24.928000,-1.9399,-0.2610,-1.6711,2.574
24.928000,-1.8223,-0.2762,-2.2405,2.901
24.929000,-1.7229,-0.3641,-2.7982,3.306
24.929000,-1.5876,-0.4495,-3.2560,3.650
24.930000,-1.4410,-0.5729,-3.6288,3.946
24.930000,-1.2216,-0.6690,-3.8094,4.056
24.930000,-1.0109,-0.7761,-3.8889,4.092
24.931000,-0.9072,-0.9307,-3.8218,4.037
24.931000,-0.8361,-1.0353,-3.8349,4.059
24.932000,-0.7740,-1.1669,-3.8325,4.080
24.932000,-0.6556,-1.3307,-3.5965,3.890
24.932000,-0.4779,-1.4844,-3.4017,3.742
24.933000,-0.3722,-1.5861,-3.3217,3.700
24.933000,-0.2778,-1.6626,-3.1838,3.603
24.933000,-0.2589,-1.7484,-3.0282,3.506
24.937000,-0.3407,-1.8346,-2.9884,3.523
24.941000,-0.3529,-1.9071,-3.0019,3.574
24.946000,-0.2689,-1.9282,-3.0181,3.592
24.952000,-0.1976,-2.0107,-3.1828,3.770
24.956000,-0.1552,-2.0540,-3.4358,4.006
24.963000,-0.1483,-2.1034,-3.7366,4.290
24.966000,-0.1997,-2.1699,-4.1022,4.645
24.971000,-0.1634,-2.1740,-4.4874,4.989
