time,ax,ay,az,aT
0.002000,-0.2132,0.4877,-0.4442,0.693
0.002000,-0.2823,0.5000,-0.5409,0.789
0.002000,-0.3175,0.4794,-0.6332,0.855
0.002000,-0.3933,0.4809,-0.6156,0.875
0.003000,-0.4140,0.4662,-0.5983,0.864
0.012000,-0.3722,0.4571,-0.6629,0.887
0.013000,-0.3922,0.4799,-0.7015,0.936
0.018000,-0.4860,0.5535,-0.8290,1.109
0.024000,-0.4874,0.5002,-0.8357,1.089
0.028000,-0.5040,0.5187,-0.5306,0.897
0.034000,-0.5129,0.5119,-0.5971,0.939
0.040000,-0.4481,0.5459,-0.7688,1.044
0.051000,-0.4230,0.5747,-0.7008,1.000
0.052000,-0.4424,0.6267,-0.4555,0.892
0.054000,-0.4966,0.6221,-0.3147,0.856
0.059000,-0.5423,0.5919,-0.3286,0.867
0.064000,-0.6216,0.4623,-0.3726,0.860
0.068000,-0.6914,0.4016,-0.2250,0.831
0.095000,-0.7227,0.3691,-0.1322,0.822
0.096000,-0.7988,0.2766,-0.0753,0.849
0.096000,-0.9271,0.1459,-0.0089,0.939
0.096000,-1.0707,-0.0843,0.0020,1.074
0.096000,-0.9037,-0.0738,0.2799,0.949
0.104000,-0.8593,-0.0033,0.1434,0.871
0.104000,-0.8445,0.0576,-0.0958,0.852
0.116000,-0.8819,0.1303,-0.2295,0.921
0.116000,-0.7951,0.2576,-0.3604,0.910
0.119000,-0.7782,0.3749,-0.4383,0.969
0.122000,-0.7759,0.4205,-0.5043,1.016
0.138000,-0.8049,0.4354,-0.5250,1.055
0.139000,-0.9055,0.4125,-0.6272,1.176
0.139000,-0.9030,0.3783,-0.7679,1.244
0.149000,-0.8906,0.3549,-0.8277,1.267
0.150000,-0.9498,0.2681,-0.7733,1.254
0.152000,-0.9488,0.2303,-0.7411,1.226
0.168000,-0.9761,0.1552,-0.7716,1.254
0.169000,-0.9871,0.1287,-0.6923,1.212
0.169000,-0.9771,0.0782,-0.6632,1.184
0.172000,-0.9421,0.0442,-0.6483,1.144
0.177000,-0.8295,0.0811,-0.6496,1.057
0.182000,-0.8260,0.1673,-0.6503,1.065
0.187000,-0.9457,0.1640,-0.6289,1.148
0.222000,-1.0254,0.1079,-0.4830,1.139
0.223000,-0.9951,0.1455,-0.2107,1.028
0.223000,-0.8946,0.2022,-0.0967,0.922
0.224000,-0.8776,0.2039,-0.1071,0.907
0.224000,-0.7788,0.2199,-0.0411,0.810
0.224000,-0.6701,0.3053,-0.0421,0.738
0.224000,-0.6117,0.3403,0.0120,0.700
0.238000,-0.6083,0.3632,0.1043,0.716
0.239000,-0.5664,0.3861,0.0244,0.686
0.239000,-0.5670,0.4039,0.0594,0.699
0.249000,-0.5667,0.4430,0.1662,0.738
0.250000,-0.4769,0.4245,0.2322,0.679
0.253000,-0.3358,0.3911,0.2363,0.567
0.269000,-0.2742,0.4085,-0.0542,0.495
0.269000,-0.5292,0.3152,0.2215,0.655
0.270000,-0.5691,0.2156,0.2861,0.672
0.272000,-0.4161,0.1304,0.1116,0.450
0.319000,-0.3119,0.0451,0.0284,0.316
0.319000,-0.2448,-0.0906,0.0268,0.262
0.320000,-0.3749,-0.1028,0.0879,0.399
0.320000,-0.4987,-0.0707,0.1353,0.522
0.320000,-0.4081,0.0028,0.2671,0.488
0.320000,-0.1818,0.1336,0.4024,0.461
0.320000,-0.0558,0.2328,0.3643,0.436
0.321000,-0.1194,0.1793,0.2840,0.356
0.321000,-0.1456,0.1056,0.1947,0.265
0.321000,-0.0943,0.0724,0.0889,0.148
0.329000,-0.0156,0.0896,0.3442,0.356
0.336000,-0.0239,0.1263,0.4840,0.501
0.338000,0.0193,0.1369,0.3198,0.348
0.342000,-0.0733,0.1410,0.2034,0.258
0.346000,-0.0602,0.1241,0.2231,0.262
0.352000,-0.0323,0.1457,0.2355,0.279
0.357000,-0.0442,0.1293,0.1137,0.178
0.362000,-0.1511,0.0821,0.0327,0.175
0.366000,-0.1738,0.0308,-0.0486,0.183
0.372000,-0.0837,0.0325,-0.1443,0.170
0.385000,-0.0386,0.0371,-0.3357,0.340
0.385000,0.0040,0.0828,-0.5032,0.510
0.386000,0.1810,0.1438,-0.7451,0.780
0.393000,-0.0107,0.0727,-0.7366,0.740
0.396000,-0.1796,-0.0014,-0.3798,0.420
0.400000,-0.0403,-0.0692,-0.4712,0.478
0.406000,0.2576,-0.1539,-0.7596,0.817
0.450000,0.2468,-0.2853,-0.5639,0.678
0.450000,0.1269,-0.1938,-0.3075,0.385
0.450000,0.1815,-0.0570,-0.1719,0.256
0.451000,-0.0214,-0.0165,0.0512,0.058
0.451000,-0.4145,0.0537,0.1517,0.445
0.451000,-0.6051,0.1603,0.3908,0.738
0.451000,-0.3464,0.3712,0.7521,0.907
0.451000,0.2224,0.4184,0.3269,0.576
0.452000,0.4056,0.2386,-0.0833,0.478
0.457000,0.2094,0.1196,0.0711,0.251
0.467000,0.4754,0.1471,-0.0927,0.506
0.467000,0.5859,0.0964,-0.2277,0.636
0.469000,0.4872,0.0200,-0.1952,0.525
0.484000,0.2799,-0.0489,-0.2583,0.384
0.485000,0.2969,-0.0102,-0.3020,0.424
0.485000,0.4700,0.1240,-0.3574,0.603
0.545000,0.5753,0.3604,-0.3024,0.743
0.546000,0.4526,0.5525,-0.2829,0.768
0.546000,0.4990,0.1907,-0.6455,0.838
0.547000,2.4473,1.0730,-1.9964,3.336
0.547000,2.0398,1.0373,-1.3446,2.654
0.547000,0.2455,0.0304,-0.3944,0.466
0.548000,0.2340,-0.2937,-0.8418,0.922
0.548000,0.3702,-0.4486,0.0566,0.584
0.548000,0.3799,-0.4252,0.2448,0.621
0.548000,0.3660,-0.2764,-0.0946,0.468
0.548000,0.1858,-0.2433,0.2103,0.371
0.549000,0.3317,0.0745,0.1300,0.364
0.555000,1.1827,1.2067,-1.1592,2.049
0.556000,0.7756,0.5157,-0.4028,1.015
0.567000,0.3356,0.0064,0.1828,0.382
0.568000,0.3715,-0.0851,-0.5224,0.647
0.569000,0.7194,-0.2271,-0.9359,1.202
0.574000,1.0674,-0.2882,-0.5631,1.241
0.585000,1.1169,-0.3211,-0.6578,1.335
0.586000,1.0616,-0.3493,-0.7126,1.325
0.590000,0.8879,-0.5055,-0.1735,1.036
0.604000,0.6970,-0.6739,-0.3043,1.016
0.605000,1.0363,-0.4128,-1.7073,2.039
0.605000,1.8038,0.0727,-0.9725,2.051
0.650000,2.1557,0.5227,0.3639,2.248
0.651000,2.0212,0.7060,0.0277,2.141
0.652000,0.9148,0.6986,0.0265,1.151
0.652000,0.6395,0.8396,0.2742,1.091
0.652000,0.8413,1.1265,0.4763,1.484
0.653000,1.1066,1.2646,0.2218,1.695
0.653000,1.2206,1.2091,-0.3552,1.754
0.653000,1.1475,1.1236,-0.4679,1.673
0.654000,1.0102,1.1323,-0.2960,1.546
0.654000,0.7696,1.1467,-0.1462,1.389
0.659000,0.5729,1.0928,-0.1692,1.245
0.664000,0.6000,1.0522,-0.2739,1.242
0.669000,0.7373,0.9847,-0.6950,1.413
0.675000,0.8749,1.0154,-0.6790,1.503
0.678000,1.3233,1.1941,-1.0752,2.082
0.683000,0.9490,1.2552,-0.6965,1.721
0.690000,0.6890,1.3342,-0.0786,1.504
0.694000,1.0252,1.2972,0.8835,1.875
0.699000,1.0035,1.1100,1.8662,2.392
0.704000,0.6170,1.0127,0.7414,1.399
0.720000,-0.0348,0.7090,0.4477,0.839
0.721000,-0.3759,0.3887,1.0060,1.142
0.722000,-0.1365,0.2848,0.9883,1.038
0.728000,0.9599,0.2393,0.1634,1.003
0.729000,1.7856,0.1872,-0.8037,1.967
0.734000,1.4470,0.1612,-0.8922,1.708
0.738000,1.0594,0.2331,-1.1289,1.566
0.778000,0.9594,0.4655,-1.0975,1.530
0.779000,0.9983,0.6716,-1.0854,1.620
0.779000,0.9959,0.7839,-1.2094,1.752
0.779000,1.0158,0.8598,-1.2900,1.853
0.779000,1.0072,0.9665,-1.1812,1.829
0.780000,1.0303,1.0705,-1.1083,1.854
0.780000,1.0047,1.0719,-1.1143,1.844
0.780000,1.0166,1.0974,-1.1491,1.886
0.783000,1.0953,1.0161,-1.2056,1.920
0.788000,1.1839,0.9529,-1.3150,2.010
0.794000,1.3086,0.9128,-1.5181,2.202
0.797000,1.3645,0.9013,-1.6810,2.345
0.803000,1.0958,0.6962,-1.9044,2.305
0.813000,0.2224,-0.1123,-2.2554,2.269
0.815000,-0.3087,-0.3776,-2.3465,2.397
0.817000,0.0195,0.2060,-2.1232,2.133
0.822000,0.2625,0.7508,-1.9041,2.064
0.851000,0.3748,1.1936,-1.4832,1.940
0.852000,0.5597,1.4448,-1.1448,1.926
0.852000,0.7214,1.5680,-0.8764,1.936
0.852000,0.8434,1.5932,-0.6345,1.911
0.853000,0.9042,1.5324,-0.4597,1.838
0.853000,0.8893,1.4014,-0.2966,1.686
0.861000,0.8325,1.2044,-0.0973,1.467
0.862000,0.7093,1.0273,0.0524,1.249
0.867000,0.5339,0.8383,0.1908,1.012
0.873000,0.3545,0.7660,0.3850,0.928
0.878000,0.1927,0.7479,0.5465,0.946
0.882000,0.1323,0.7571,0.6802,1.026
0.887000,0.0698,0.8124,0.8005,1.143
0.892000,-0.0073,0.8323,0.8454,1.186
0.898000,-0.0532,0.8716,0.7910,1.178
0.901000,-0.0994,0.9300,0.6830,1.158
0.908000,-0.0602,0.9861,0.6934,1.207
0.912000,-0.0179,1.1073,0.6070,1.263
0.917000,-0.0376,1.1716,0.5339,1.288
0.922000,-0.0258,1.2246,0.4260,1.297
0.927000,0.0052,1.2621,0.3002,1.297
0.932000,-0.0238,1.2867,0.1899,1.301
0.936000,0.0599,1.3326,0.1140,1.339
0.950000,0.1130,1.3643,0.1178,1.374
0.951000,0.1982,1.3774,0.1270,1.397
0.952000,0.2323,1.4010,0.1700,1.430
1.010000,0.2590,1.4400,0.2063,1.478
1.011000,0.2621,1.3776,0.2045,1.417
1.011000,0.2344,1.2978,0.1312,1.325
1.011000,0.0871,1.1911,0.0558,1.196
1.012000,-0.0918,1.0842,0.0477,1.089
1.012000,-0.2593,1.0366,0.1165,1.075
1.012000,-0.4009,1.0268,0.1686,1.115
1.012000,-0.5043,1.0046,0.2185,1.145
1.012000,-0.5192,1.0271,0.2997,1.189
1.013000,-0.5169,1.0372,0.3141,1.201
1.013000,-0.4638,1.0682,0.3692,1.222
1.013000,-0.3764,1.1398,0.3980,1.265
1.019000,-0.2426,1.1995,0.4985,1.321
1.021000,-0.0718,1.2830,0.6682,1.448
1.028000,0.1227,1.3856,0.8567,1.634
1.031000,0.2578,1.4497,1.0401,1.803
1.036000,0.3531,1.4560,1.1371,1.881
1.044000,0.3991,1.4881,1.1168,1.903
1.046000,0.3717,1.4138,1.0298,1.788
1.050000,0.3232,1.3480,0.9240,1.666
1.057000,0.2335,1.3005,0.7661,1.527
1.091000,0.1305,1.2706,0.5682,1.398
1.092000,-0.0113,1.2752,0.3833,1.332
1.092000,-0.0757,1.3196,0.2254,1.341
1.092000,-0.1377,1.4065,0.1375,1.420
1.093000,-0.3053,1.4931,0.1649,1.533
1.093000,-0.4895,1.5440,0.2810,1.644
1.093000,-0.5823,1.6099,0.3754,1.753
1.096000,-0.6246,1.6664,0.5129,1.852
1.101000,-0.7120,1.6469,0.7292,1.937
1.108000,-0.7510,1.5612,0.9547,1.978
1.110000,-0.8636,1.4397,1.1085,2.012
1.115000,-0.9508,1.2325,1.3961,2.091
1.120000,-0.9810,1.0517,1.7075,2.232
1.125000,-1.0226,0.8566,1.8800,2.305
1.130000,-1.2237,0.5155,1.9736,2.379
1.135000,-1.3905,0.0953,1.9382,2.387
1.149000,-1.3778,-0.0404,1.9511,2.389
1.151000,-1.1540,0.1793,2.0266,2.339
1.152000,-0.7809,0.4122,2.0714,2.252
1.155000,-0.3992,0.5322,1.9704,2.080
1.195000,-0.0492,0.5850,1.6997,1.798
1.196000,0.2690,0.5902,1.2668,1.423
1.196000,0.5665,0.5725,0.8268,1.154
1.196000,0.8024,0.5758,0.4059,1.068
1.197000,0.8857,0.5888,0.0346,1.064
1.197000,0.7141,0.6192,-0.2010,0.966
1.197000,0.3374,0.5145,-0.3159,0.692
1.197000,-0.0796,0.3842,-0.3148,0.503
1.199000,-0.4467,0.2333,-0.2192,0.550
1.205000,-0.6569,0.0159,-0.1559,0.675
1.210000,-0.7535,-0.1274,-0.0360,0.765
1.214000,-0.8105,-0.3070,0.0830,0.871
1.219000,-0.7799,-0.4706,0.1868,0.930
1.225000,-0.7285,-0.5944,0.3236,0.994
1.229000,-0.7298,-0.6620,0.5003,1.105
1.235000,-0.7571,-0.7000,0.6478,1.218
1.246000,-0.8167,-0.7184,0.6346,1.259
1.247000,-0.8512,-0.7170,0.5470,1.240
1.249000,-0.9107,-0.7149,0.6241,1.315
1.253000,-0.9471,-0.7435,0.6650,1.376
1.295000,-1.0678,-0.7621,0.5956,1.441
1.296000,-1.1774,-0.8208,0.4614,1.508
1.297000,-1.2787,-0.8431,0.3200,1.565
1.297000,-1.3964,-0.9393,0.2170,1.697
1.297000,-1.5218,-1.0112,0.1116,1.831
1.297000,-1.6245,-1.1212,0.0303,1.974
1.298000,-1.6878,-1.1352,-0.1370,2.039
1.298000,-1.7246,-1.1084,-0.2036,2.060
1.299000,-1.7183,-1.0956,-0.2822,2.057
1.304000,-1.6621,-1.0537,-0.3249,1.995
1.310000,-1.5965,-0.9900,-0.3197,1.906
1.314000,-1.4832,-0.9668,-0.2955,1.795
1.318000,-1.3889,-0.9502,-0.3743,1.724
1.324000,-1.2852,-0.9257,-0.3600,1.624
1.328000,-1.0611,-0.8097,-0.1905,1.348
1.336000,-0.8711,-0.7557,-0.0978,1.157
1.341000,-0.6644,-0.7182,-0.0389,0.979
1.344000,-0.4858,-0.6951,0.0032,0.848
1.349000,-0.3399,-0.6842,-0.0240,0.764
1.353000,-0.2529,-0.6546,-0.1252,0.713
1.359000,-0.1934,-0.6421,-0.2334,0.710
1.364000,-0.1210,-0.5416,-0.2862,0.624
1.368000,-0.0548,-0.4605,-0.3749,0.596
1.384000,-0.0332,-0.3748,-0.4036,0.552
1.385000,0.0921,-0.3659,-0.4706,0.603
1.385000,0.1514,-0.3714,-0.5637,0.692
1.435000,0.1686,-0.3914,-0.7142,0.832
1.436000,0.1910,-0.4282,-0.9576,1.066
1.437000,0.1365,-0.4885,-1.1747,1.279
1.438000,0.0311,-0.5194,-1.2195,1.326
1.438000,-0.0653,-0.5662,-1.2861,1.407
1.439000,-0.2342,-0.5596,-1.3266,1.459
1.439000,-0.3129,-0.5689,-1.2885,1.443
1.439000,-0.3231,-0.5779,-1.1979,1.369
1.439000,-0.3272,-0.6317,-1.2367,1.427
1.440000,-0.2603,-0.5745,-0.8144,1.030
1.440000,-0.1737,-0.5987,-0.4978,0.798
1.446000,-0.0591,-0.6045,-0.3703,0.711
1.448000,0.0497,-0.6233,-0.3334,0.709
1.453000,0.1073,-0.6630,-0.3676,0.766
1.460000,0.0989,-0.6426,-0.4295,0.779
1.463000,0.0361,-0.6411,-0.5742,0.861
1.468000,-0.1559,-0.6252,-0.9114,1.116
1.481000,-0.3105,-0.6017,-1.2592,1.430
1.482000,-0.5504,-0.5959,-1.5678,1.765
1.482000,-0.6963,-0.6050,-1.8972,2.110
1.487000,-0.7607,-0.5734,-2.1903,2.388
1.528000,-0.8225,-0.5317,-2.4209,2.611
1.529000,-0.8105,-0.5010,-2.5702,2.741
1.529000,-0.7438,-0.4048,-2.5953,2.730
1.530000,-0.6605,-0.2908,-2.5179,2.619
1.530000,-0.5220,-0.1997,-2.3285,2.395
1.530000,-0.3854,-0.1437,-2.1110,2.151
1.530000,-0.1951,-0.0872,-1.9010,1.913
1.531000,-0.0105,-0.0493,-1.7034,1.704
1.532000,0.1909,-0.0686,-1.4201,1.435
1.536000,0.2307,-0.0734,-1.2353,1.259
1.541000,0.2286,-0.1236,-1.1989,1.227
1.547000,0.2637,-0.1310,-1.2009,1.236
1.552000,0.1948,-0.1766,-1.2889,1.315
1.558000,0.0890,-0.1480,-1.4057,1.416
1.562000,-0.0017,-0.1766,-1.5654,1.575
1.568000,-0.1656,-0.1758,-1.6942,1.711
1.572000,-0.2289,-0.1839,-1.7921,1.816
1.578000,-0.3187,-0.1410,-1.7920,1.826
1.584000,-0.2937,-0.0829,-1.8234,1.849
1.587000,-0.2740,-0.0217,-1.7882,1.809
1.596000,-0.2049,0.0425,-1.6455,1.659
1.597000,-0.0718,0.1358,-1.4004,1.409
1.601000,0.0255,0.2340,-1.1771,1.200
1.606000,0.1612,0.3105,-0.9566,1.019
1.651000,0.2185,0.3508,-0.7816,0.884
1.652000,0.2098,0.3522,-0.6355,0.756
1.652000,0.1710,0.3578,-0.5777,0.701
1.653000,0.1450,0.3961,-0.6059,0.738
1.653000,0.0932,0.4194,-0.6648,0.792
1.653000,0.0466,0.4876,-0.7713,0.914
1.653000,-0.0068,0.5506,-0.8345,1.000
1.654000,-0.0935,0.6112,-0.8690,1.067
1.654000,-0.1419,0.6911,-0.8748,1.124
1.664000,-0.1684,0.7114,-0.9238,1.178
1.665000,-0.1234,0.7682,-0.9969,1.265
1.666000,-0.1550,0.7708,-1.0105,1.280
1.672000,-0.1484,0.7339,-0.9361,1.199
1.678000,-0.1539,0.7271,-0.8528,1.131
1.682000,-0.1447,0.7097,-0.6171,0.952
1.687000,-0.0820,0.6867,-0.4112,0.805
1.691000,-0.0137,0.6435,-0.1057,0.652
1.696000,0.0703,0.5725,0.2251,0.619
1.700000,0.1513,0.5358,0.4570,0.720
1.705000,0.1627,0.4611,0.6165,0.787
1.745000,0.1623,0.3628,0.8018,0.895
1.746000,0.1144,0.2454,0.8695,0.911
1.747000,0.0739,0.0803,0.7359,0.744
1.747000,-0.0409,0.0186,0.7647,0.766
1.747000,-0.1507,-0.0263,0.9009,0.914
1.747000,-0.2886,-0.0094,1.0225,1.062
1.748000,-0.4339,0.0949,0.9600,1.058
1.748000,-0.5565,0.1358,0.8813,1.051
1.750000,-0.7147,0.1776,0.8129,1.097
1.756000,-0.8305,0.2821,0.7980,1.186
1.761000,-0.9261,0.4469,0.8941,1.363
1.766000,-0.9730,0.5164,0.9575,1.460
1.771000,-1.0120,0.5864,0.9835,1.528
1.777000,-1.0458,0.6377,0.9507,1.551
1.780000,-1.0507,0.6489,0.8877,1.521
1.785000,-1.0533,0.7017,0.6990,1.446
1.791000,-0.9846,0.7965,0.5422,1.378
1.795000,-0.8427,0.8357,0.4196,1.259
1.800000,-0.6492,0.9588,0.2998,1.196
1.805000,-0.4348,1.0825,0.2351,1.190
1.815000,-0.2064,1.1573,0.0935,1.179
1.816000,0.1060,1.2103,0.0638,1.217
1.820000,0.3900,1.3020,0.1407,1.366
1.867000,0.7060,1.3203,0.2713,1.522
1.868000,1.0188,1.3230,0.4602,1.732
1.868000,1.3617,1.2935,0.7358,2.017
1.869000,1.6534,1.2387,1.2130,2.396
1.869000,1.8368,1.1442,1.8559,2.851
1.869000,2.0202,1.0304,2.5091,3.382
1.870000,2.1395,0.8816,3.1396,3.900
1.870000,2.1613,0.7282,3.6499,4.304
1.870000,2.1268,0.5764,4.1383,4.688
1.871000,2.0336,0.4060,4.3877,4.853
1.878000,1.8688,0.2982,4.3318,4.727
1.879000,1.7125,0.2842,4.7787,5.084
1.884000,1.6095,0.2964,4.9245,5.189
1.890000,1.5532,0.2766,4.8294,5.081
1.896000,1.4980,0.3180,4.7043,4.947
1.900000,1.4151,0.3083,4.4104,4.642
1.905000,1.2514,0.2622,3.9503,4.152
1.910000,1.0805,0.1975,3.3573,3.532
1.915000,0.8777,0.1681,2.7413,2.883
1.918000,0.7125,0.1247,2.2118,2.327
1.954000,0.6632,0.1594,1.8042,1.929
1.955000,0.7108,0.1819,1.4177,1.596
1.955000,0.7714,0.1831,1.1787,1.421
1.955000,0.8637,0.1964,1.0968,1.410
1.955000,0.9397,0.1715,1.0165,1.395
1.955000,0.9824,0.1056,1.1100,1.486
1.956000,0.9798,0.0529,1.2891,1.620
1.967000,0.8960,-0.0040,1.4701,1.722
1.967000,0.8126,-0.0971,1.6582,1.849
1.970000,0.6766,-0.2273,1.8061,1.942
1.976000,0.5934,-0.3112,1.8420,1.960
1.978000,0.4576,-0.4383,1.8693,1.974
1.983000,0.3627,-0.5250,1.8140,1.923
1.989000,0.2893,-0.5982,1.5448,1.682
1.994000,0.1865,-0.6074,1.2533,1.405
1.999000,0.2128,-0.6076,1.1140,1.287
2.003000,0.2490,-0.5417,0.9330,1.107
2.008000,0.3216,-0.4914,0.5072,0.776
2.013000,0.3411,-0.4637,-0.0219,0.576
2.018000,0.3283,-0.4291,-0.4320,0.692
2.024000,0.3097,-0.4254,-0.8263,0.980
2.028000,0.2856,-0.4087,-1.2098,1.309
2.034000,0.3278,-0.3694,-1.5468,1.624
2.038000,0.3670,-0.3403,-1.7659,1.835
2.086000,0.4585,-0.3327,-1.8746,1.958
2.088000,0.5432,-0.3493,-1.9782,2.081
2.088000,0.5732,-0.3944,-2.0578,2.172
2.088000,0.5513,-0.4589,-2.1755,2.291
2.089000,0.4679,-0.5114,-2.3024,2.405
2.089000,0.3564,-0.5615,-2.4484,2.537
2.089000,0.1880,-0.5757,-2.6108,2.680
2.090000,0.0650,-0.5682,-2.8064,2.864
2.091000,-0.0510,-0.5749,-2.8750,2.932
2.091000,-0.0931,-0.6118,-2.9222,2.987
2.094000,-0.1211,-0.5569,-2.8645,2.921
2.097000,-0.1033,-0.5230,-2.8453,2.895
2.103000,-0.1115,-0.5383,-2.9102,2.962
2.108000,-0.1435,-0.5603,-2.9679,3.024
2.113000,-0.1853,-0.5670,-2.9781,3.037
2.117000,-0.2465,-0.5631,-3.0556,3.117
2.122000,-0.3179,-0.5823,-3.2170,3.285
2.128000,-0.4551,-0.5427,-3.4336,3.506
2.132000,-0.6152,-0.4608,-3.5549,3.637
2.136000,-0.7441,-0.4296,-3.3993,3.506
2.178000,-0.7509,-0.3965,-3.0797,3.195
2.179000,-0.7099,-0.3332,-2.5720,2.689
2.180000,-0.6156,-0.3097,-2.0174,2.132
2.180000,-0.3939,-0.3147,-1.2172,1.317
2.180000,-0.1252,-0.3615,-0.4246,0.572
2.181000,0.0774,-0.4863,-0.0197,0.493
2.181000,0.1907,-0.6136,0.1610,0.662
2.181000,0.2646,-0.7050,0.0245,0.753
2.182000,0.2580,-0.7531,-0.2567,0.836
2.187000,0.1514,-0.7572,-0.5535,0.950
2.192000,0.0878,-0.6833,-0.7180,0.995
2.197000,0.0480,-0.6079,-0.8628,1.056
2.202000,0.0482,-0.4898,-1.0860,1.192
2.209000,0.0932,-0.4529,-1.3208,1.399
2.212000,0.1685,-0.4396,-1.6965,1.761
2.217000,0.2550,-0.3962,-1.9409,1.997
2.221000,0.3385,-0.3558,-2.0279,2.086
2.228000,0.4000,-0.3160,-1.8908,1.958
2.231000,0.3677,-0.3132,-1.5967,1.668
2.236000,0.2902,-0.2475,-1.2123,1.271
2.247000,0.2156,-0.2465,-0.8907,0.949
2.247000,0.1182,-0.2653,-0.6958,0.754
2.251000,0.0461,-0.2561,-0.4770,0.543
2.256000,-0.0156,-0.2172,-0.4683,0.516
2.293000,-0.0622,-0.1366,-0.5929,0.612
2.296000,-0.0992,-0.0668,-0.7310,0.741
2.296000,-0.1316,-0.0363,-1.0333,1.042
2.296000,-0.2343,-0.0180,-1.2705,1.292
2.296000,-0.3384,-0.0090,-1.3926,1.433
2.297000,-0.4157,0.0364,-1.5218,1.578
2.298000,-0.3850,0.1067,-1.5388,1.590
2.299000,-0.3426,0.1204,-1.3263,1.375
2.301000,-0.2721,0.1997,-1.0068,1.062
2.308000,-0.0852,0.3061,-0.6400,0.715
2.311000,0.1254,0.3840,-0.0321,0.405
2.316000,0.3748,0.4232,0.7261,0.920
2.321000,0.5800,0.3963,1.3958,1.563
2.327000,0.7633,0.1573,1.6139,1.792
2.331000,0.8241,0.0747,2.0741,2.233
2.336000,0.7309,0.1547,2.5567,2.664
2.342000,0.6361,0.2482,2.6767,2.762
2.346000,0.4576,0.4191,2.6622,2.734
2.351000,0.2204,0.5883,2.5711,2.647
2.356000,-0.0543,0.6944,2.3696,2.470
2.366000,-0.3405,0.7655,1.9723,2.143
2.368000,-0.5798,0.8127,1.5867,1.875
2.372000,-0.6863,0.8512,1.1838,1.611
2.421000,-0.8370,0.9133,0.7056,1.426
2.423000,-0.9726,0.9737,0.3117,1.411
2.423000,-1.1558,1.0593,-0.0053,1.568
2.423000,-1.3055,1.1903,-0.2654,1.787
2.424000,-1.3985,1.3522,-0.4901,2.006
2.424000,-1.3924,1.6368,-0.6296,2.239
2.425000,-1.3424,1.8344,-0.6775,2.372
2.425000,-1.2161,2.0188,-0.6144,2.436
2.426000,-0.9700,2.1430,-0.3573,2.379
2.427000,-0.5890,2.2478,0.0026,2.324
2.427000,-0.1868,2.2328,0.4887,2.293
2.430000,0.2856,2.2368,1.0147,2.473
2.435000,0.7026,2.2640,1.5665,2.841
2.440000,1.0664,2.2351,2.1820,3.301
2.445000,1.3973,2.2118,2.7465,3.793
2.450000,1.6011,2.2365,3.2076,4.225
2.457000,1.7655,2.2295,3.6420,4.621
2.467000,1.7570,2.1881,3.8634,4.775
2.472000,1.6458,2.1120,3.8983,4.729
2.473000,1.4152,2.1134,3.6970,4.487
2.520000,1.0621,2.0657,3.4295,4.142
2.525000,0.6718,1.9619,3.1055,3.734
2.526000,0.2577,1.8767,2.7561,3.344
2.526000,-0.0856,1.7266,2.3885,2.948
2.527000,-0.3831,1.5936,2.1222,2.681
2.527000,-0.5476,1.4203,1.9693,2.489
2.528000,-0.5895,1.3332,1.6885,2.231
2.528000,-0.6240,1.1965,1.5330,2.042
2.529000,-0.5558,1.0434,1.5126,1.920
2.529000,-0.5332,0.9741,1.6394,1.980
2.529000,-0.4842,0.8279,1.8821,2.112
2.530000,-0.3540,0.6686,2.2413,2.366
2.534000,-0.2180,0.4960,2.7120,2.766
2.541000,-0.0201,0.3210,2.7780,2.797
2.545000,0.1085,0.1026,2.5762,2.581
2.550000,0.0773,-0.1083,2.4151,2.419
2.555000,-0.0204,-0.2981,2.4481,2.466
2.560000,-0.1097,-0.4838,2.4980,2.547
2.565000,-0.3321,-0.6755,2.5222,2.632
2.570000,-0.5924,-0.9650,2.4209,2.673
2.577000,-0.8216,-1.2447,2.2637,2.711
2.580000,-1.0510,-1.4239,1.9718,2.650
2.584000,-1.2327,-1.6102,1.6148,2.592
2.589000,-1.3626,-1.7536,1.2455,2.546
2.626000,-1.4520,-1.7875,0.7996,2.438
2.627000,-1.5537,-1.8506,0.3132,2.437
2.628000,-1.6260,-1.9284,-0.2688,2.537
2.628000,-1.6433,-1.9702,-0.7958,2.686
2.629000,-1.6374,-2.0358,-1.2390,2.892
2.629000,-1.5705,-2.0291,-1.3622,2.905
2.629000,-1.4258,-2.0008,-1.5171,2.887
2.630000,-1.2563,-1.9533,-1.7825,2.928
2.634000,-1.1119,-1.9319,-2.0103,3.002
2.639000,-0.9854,-1.9077,-2.2794,3.131
2.644000,-0.9154,-1.8783,-2.4799,3.243
2.650000,-0.8206,-1.9011,-2.5161,3.259
2.654000,-0.7269,-1.8660,-2.5199,3.219
2.659000,-0.6317,-1.8354,-2.5844,3.232
2.664000,-0.5517,-1.8282,-2.7242,3.327
2.668000,-0.4797,-1.8346,-2.8841,3.452
2.677000,-0.4201,-1.8158,-2.9090,3.455
2.679000,-0.4177,-1.8218,-2.9260,3.472
2.683000,-0.3722,-1.7953,-3.0378,3.548
2.688000,-0.3765,-1.7768,-3.0795,3.575
2.729000,-0.3851,-1.7037,-3.1254,3.580
2.730000,-0.3000,-1.6979,-3.1493,3.590
2.731000,-0.2929,-1.6513,-3.1897,3.604
2.731000,-0.3062,-1.6333,-3.1965,3.603
2.732000,-0.3634,-1.6077,-3.2009,3.600
2.732000,-0.4259,-1.6006,-3.1744,3.581
2.732000,-0.5393,-1.5952,-3.1505,3.572
2.733000,-0.5692,-1.6080,-3.1150,3.551
2.733000,-0.6115,-1.6031,-3.1063,3.549
2.739000,-0.6085,-1.5993,-3.0862,3.529
2.744000,-0.5622,-1.5533,-2.9402,3.373
2.749000,-0.4851,-1.5133,-2.7807,3.203
2.755000,-0.3788,-1.4504,-2.5408,2.950
2.757000,-0.2648,-1.3484,-2.2850,2.666
2.762000,-0.2219,-1.2603,-2.0586,2.424
2.767000,-0.1446,-1.2316,-1.9070,2.275
2.774000,-0.0929,-1.2077,-1.8824,2.238
2.778000,-0.0884,-1.1334,-1.7814,2.113
2.782000,-0.1410,-1.0710,-1.6901,2.006
2.787000,-0.1955,-1.0037,-1.5705,1.874
2.794000,-0.2012,-0.9600,-1.3508,1.669
2.799000,-0.1916,-0.9282,-1.0838,1.440
2.802000,-0.1277,-0.8699,-0.7767,1.173
2.848000,-0.0833,-0.8144,-0.5371,0.979
2.849000,-0.0488,-0.7452,-0.4174,0.856
2.849000,-0.0412,-0.6864,-0.3933,0.792
2.849000,-0.0847,-0.5926,-0.5028,0.782
2.850000,-0.1724,-0.5187,-0.7076,0.894
2.850000,-0.3553,-0.4091,-1.0173,1.153
2.850000,-0.5262,-0.3135,-1.1955,1.343
2.850000,-0.6499,-0.2528,-1.3715,1.539
2.851000,-0.6555,-0.1740,-1.5071,1.653
2.852000,-0.5290,-0.1293,-1.4498,1.549
2.859000,-0.2993,-0.1423,-1.2213,1.265
2.863000,-0.0144,-0.1416,-0.8527,0.865
2.867000,0.3147,-0.0819,-0.4424,0.549
2.873000,0.5928,-0.0258,0.1628,0.615
2.878000,0.8569,-0.0264,0.8624,1.216
2.882000,1.0007,-0.0919,1.4749,1.785
2.886000,1.0371,-0.1962,2.0483,2.304
2.893000,0.9166,-0.3471,2.4800,2.667
2.897000,0.6516,-0.4612,2.8710,2.980
2.901000,0.3906,-0.5441,3.1499,3.220
2.939000,0.0353,-0.5529,3.2501,3.297
2.940000,-0.3454,-0.5357,3.2245,3.287
2.941000,-0.6232,-0.5018,3.0589,3.162
2.942000,-0.8198,-0.4604,2.8276,2.980
2.942000,-0.9161,-0.4062,2.5136,2.706
2.942000,-0.9989,-0.3410,2.0232,2.282
2.943000,-1.0641,-0.1972,1.5599,1.899
2.943000,-1.0023,0.0236,1.2499,1.602
2.947000,-0.9358,0.3332,0.9972,1.408
2.951000,-0.8556,0.6529,0.8282,1.358
2.956000,-0.7695,0.8991,0.6566,1.353
2.962000,-0.6632,1.0791,0.4514,1.345
2.966000,-0.5563,1.2624,0.2818,1.408
2.971000,-0.4302,1.4614,0.0951,1.526
2.976000,-0.1971,1.7483,-0.1042,1.762
2.981000,0.0513,2.0254,-0.3282,2.052
2.985000,0.3646,2.2506,-0.4386,2.322
2.994000,0.8020,2.4457,-0.3999,2.605
2.996000,1.3583,2.6094,-0.2558,2.953
3.001000,2.0170,2.7326,0.1367,3.399
3.006000,2.6308,2.7437,0.7579,3.876
3.055000,3.2246,2.6523,1.6028,4.472
3.057000,3.7432,2.4933,2.6977,5.245
3.058000,4.1237,2.2038,3.8419,6.052
3.059000,4.3509,1.8181,4.8758,6.783
3.060000,4.4221,1.3822,5.8148,7.435
3.061000,4.3456,1.0336,6.5903,7.961
3.061000,4.0701,0.6274,7.0883,8.198
3.062000,3.6537,0.2275,7.1898,8.068
3.062000,3.1087,-0.1596,7.0415,7.699
3.063000,2.4682,-0.5314,6.5745,7.043
3.063000,1.8207,-0.8035,5.6739,6.013
3.065000,1.1766,-0.9966,4.7920,5.034
3.070000,0.6170,-1.0764,3.7919,3.990
3.077000,0.1188,-1.0468,2.7119,2.909
3.080000,-0.2628,-1.0074,1.7406,2.028
3.086000,-0.6361,-0.9502,0.7963,1.393
3.091000,-1.0147,-0.8533,0.0965,1.329
3.095000,-1.2727,-0.7400,-0.5649,1.577
3.100000,-1.4385,-0.5722,-1.1566,1.932
3.104000,-1.4986,-0.3947,-1.5044,2.160
3.111000,-1.4133,-0.2533,-1.5917,2.144
3.115000,-1.1562,-0.0906,-1.5623,1.946
3.119000,-0.6987,0.0427,-1.3229,1.497
3.131000,-0.0928,0.1456,-0.9425,0.958
3.132000,0.5305,0.1765,-0.4998,0.750
3.135000,1.0430,0.1419,-0.1238,1.060
3.196000,1.3673,0.1170,0.0906,1.375
3.196000,1.4711,0.0013,0.1650,1.480
3.196000,1.4219,-0.1363,0.1429,1.436
3.197000,1.1893,-0.2242,0.0436,1.211
3.197000,0.9073,-0.3101,-0.1761,0.975
3.197000,0.6044,-0.3864,-0.5136,0.882
3.197000,0.3116,-0.4577,-0.8137,0.984
3.197000,0.1220,-0.4734,-1.0933,1.198
3.198000,-0.0246,-0.4546,-1.3741,1.448
3.198000,-0.1618,-0.4537,-1.6204,1.690
3.198000,-0.2874,-0.5014,-1.8611,1.949
3.198000,-0.3678,-0.5450,-2.0939,2.195
3.199000,-0.4031,-0.5578,-2.2927,2.394
3.204000,-0.4914,-0.5538,-2.5295,2.636
3.209000,-0.4985,-0.4991,-2.7327,2.822
3.214000,-0.4845,-0.4415,-2.8906,2.964
3.220000,-0.4277,-0.3258,-2.9553,3.004
3.227000,-0.3737,-0.2405,-2.8530,2.887
3.230000,-0.2956,-0.1833,-2.7585,2.780
3.234000,-0.2553,-0.1091,-2.6404,2.655
3.239000,-0.1713,-0.0997,-2.5463,2.554
3.271000,-0.1251,-0.0762,-2.4906,2.495
3.272000,-0.1331,-0.0606,-2.5207,2.525
3.272000,-0.2197,-0.1027,-2.6105,2.622
3.272000,-0.3062,-0.0471,-2.7381,2.756
3.272000,-0.4740,-0.0273,-2.8609,2.900
3.273000,-0.6203,-0.0717,-2.9168,2.983
3.273000,-0.6900,-0.0557,-2.9394,3.020
3.280000,-0.7050,-0.0412,-2.8525,2.939
3.285000,-0.7727,-0.0306,-2.6896,2.799
3.290000,-0.7877,-0.0264,-2.4317,2.556
3.294000,-0.7785,-0.0456,-2.1505,2.288
3.300000,-0.8286,-0.1030,-1.7765,1.963
3.305000,-0.7727,-0.1198,-1.4748,1.669
3.310000,-0.7304,-0.1683,-1.2927,1.494
3.313000,-0.7183,-0.2605,-1.2468,1.462
3.318000,-0.7439,-0.2863,-1.2724,1.501
3.326000,-0.8074,-0.3127,-1.3120,1.572
3.331000,-0.8087,-0.3202,-1.3586,1.613
3.333000,-0.8099,-0.2944,-1.3357,1.590
3.338000,-0.7514,-0.1538,-1.2698,1.483
3.375000,-0.6546,-0.0636,-1.1226,1.301
3.376000,-0.5149,0.0024,-0.9445,1.076
3.378000,-0.3823,0.0727,-0.8118,0.900
3.378000,-0.2158,0.0708,-0.5786,0.622
3.378000,-0.0510,0.0826,-0.3431,0.357
3.379000,0.0025,0.0934,-0.1577,0.183
3.379000,0.0912,0.0864,-0.0701,0.144
3.379000,0.1076,0.1069,-0.1041,0.184
3.383000,0.0154,0.1405,-0.1351,0.196
3.387000,-0.1115,0.2065,-0.2421,0.337
3.393000,-0.3144,0.2738,-0.4487,0.613
3.398000,-0.5220,0.3450,-0.6188,0.880
3.402000,-0.7235,0.3774,-0.7762,1.126
3.409000,-0.9312,0.3854,-0.8015,1.288
3.414000,-0.9733,0.3884,-0.7451,1.286
3.418000,-0.9363,0.4128,-0.6311,1.202
3.425000,-0.8178,0.4321,-0.4858,1.045
3.429000,-0.6657,0.4870,-0.2711,0.868
3.433000,-0.4869,0.5654,-0.1758,0.767
3.438000,-0.3436,0.6412,-0.0851,0.732
3.443000,-0.2381,0.7360,0.0535,0.775
3.448000,-0.1103,0.7803,0.2734,0.834
3.453000,-0.0247,0.8364,0.5411,0.996
3.469000,0.1272,0.8517,0.8396,1.203
3.474000,0.2908,0.8212,1.2050,1.487
3.475000,0.5117,0.7999,1.5582,1.825
3.476000,0.7017,0.7947,1.9018,2.177
3.519000,0.8207,0.7955,2.3412,2.605
3.524000,0.9004,0.8638,2.7309,3.002
3.525000,0.9343,0.8606,2.9586,3.220
3.525000,0.8870,0.8719,3.0079,3.255
3.527000,0.8301,0.8590,2.8577,3.097
3.528000,0.6628,0.8395,2.6131,2.824
3.528000,0.4829,0.8566,2.1595,2.373
3.529000,0.2541,0.8511,1.7238,1.939
3.529000,0.0759,0.8694,1.3343,1.594
3.529000,-0.1312,0.9403,0.9598,1.350
3.530000,-0.3177,1.0025,0.6428,1.233
3.532000,-0.4267,1.0799,0.4790,1.256
3.538000,-0.4756,1.1681,0.4247,1.331
3.542000,-0.4239,1.2095,0.4777,1.368
3.548000,-0.3652,1.1587,0.6928,1.399
3.553000,-0.2344,1.0874,0.9718,1.477
3.561000,-0.0717,1.0427,1.2361,1.619
3.563000,0.0687,1.0367,1.4953,1.821
3.568000,0.2062,1.1813,1.6705,2.056
3.571000,0.3153,1.3180,1.7216,2.191
3.632000,0.3655,1.4373,1.7275,2.277
3.633000,0.4675,1.5611,1.5781,2.268
3.633000,0.4636,1.6296,1.2831,2.125
3.634000,0.4424,1.6582,0.9447,1.959
3.634000,0.3608,1.6732,0.5273,1.791
3.634000,0.1559,1.6610,0.1596,1.676
3.635000,-0.1248,1.6009,-0.2499,1.625
3.635000,-0.3814,1.5937,-0.5148,1.718
3.635000,-0.6748,1.5944,-0.6355,1.844
3.635000,-0.9264,1.6558,-0.6721,2.013
3.636000,-1.2589,1.6510,-0.6032,2.162
3.636000,-1.5488,1.6253,-0.3353,2.270
3.637000,-1.7945,1.6021,0.0431,2.406
3.641000,-1.9489,1.5427,0.4008,2.518
3.646000,-1.9547,1.4281,0.8049,2.551
3.651000,-1.8647,1.3248,1.1527,2.561
3.658000,-1.6568,1.1900,1.4608,2.509
3.661000,-1.3092,1.0911,1.7530,2.445
3.665000,-0.8878,1.0427,2.0458,2.462
3.670000,-0.4296,1.0090,2.3509,2.594
3.679000,0.0334,1.0400,2.7353,2.927
3.680000,0.4353,1.0328,3.1629,3.356
3.685000,0.7846,0.9942,3.7032,3.914
3.719000,1.0732,0.9185,4.2849,4.512
3.721000,1.2734,0.7598,4.7670,4.992
3.721000,1.3219,0.5214,5.0668,5.262
3.721000,1.2956,0.1907,5.1205,5.285
3.722000,1.1541,-0.1372,5.0318,5.164
3.722000,0.8802,-0.5465,4.5904,4.706
3.723000,0.5378,-0.8574,3.9787,4.105
3.726000,0.1569,-1.0893,3.2186,3.402
3.730000,-0.1712,-1.2919,2.4510,2.776
3.735000,-0.4931,-1.4743,1.7547,2.344
3.740000,-0.6906,-1.6242,1.1558,2.110
3.746000,-0.7413,-1.7222,0.6901,1.998
3.751000,-0.7268,-1.8162,0.2376,1.971
3.756000,-0.6795,-1.9206,-0.0842,2.039
3.761000,-0.5731,-1.9231,-0.3042,2.030
3.767000,-0.4318,-1.9363,-0.3771,2.019
3.771000,-0.3106,-1.9628,-0.4272,2.033
3.816000,-0.1587,-1.9935,-0.4399,2.048
3.817000,-0.0452,-2.0452,-0.4392,2.092
3.817000,0.0376,-2.0753,-0.4776,2.130
3.818000,0.1046,-2.0812,-0.6124,2.172
3.818000,0.1176,-2.1660,-0.7860,2.307
3.819000,0.0747,-2.2029,-1.0007,2.421
3.819000,0.0455,-2.2373,-1.2686,2.572
3.820000,0.0251,-2.2855,-1.5181,2.744
3.820000,0.0133,-2.3306,-1.7588,2.920
3.821000,0.0052,-2.3413,-2.0171,3.090
3.824000,0.0107,-2.3461,-2.2526,3.252
3.829000,0.0200,-2.3468,-2.4441,3.388
3.836000,0.0330,-2.3676,-2.6679,3.567
3.840000,0.0685,-2.3866,-2.8837,3.744
3.845000,0.0792,-2.4031,-3.1014,3.924
3.849000,0.1051,-2.4220,-3.2971,4.092
3.854000,0.1564,-2.3899,-3.4712,4.217
3.859000,0.2879,-2.3547,-3.5594,4.277
3.865000,0.3687,-2.3090,-3.5953,4.289
3.870000,0.4373,-2.2146,-3.6174,4.264
3.882000,0.5415,-2.1362,-3.6422,4.257
3.884000,0.6048,-2.1383,-3.6318,4.258
3.885000,0.6707,-2.1104,-3.5455,4.180
3.889000,0.7398,-2.0625,-3.4051,4.049
3.933000,0.7838,-2.0473,-3.3301,3.987
3.935000,0.8271,-2.0957,-3.3111,4.005
3.935000,0.7814,-2.0763,-3.3382,4.008
3.936000,0.7853,-2.0586,-3.3826,4.037
3.936000,0.7212,-2.1021,-3.4447,4.099
3.937000,0.6488,-2.1015,-3.5194,4.150
3.938000,0.5752,-2.0855,-3.5328,4.143
3.939000,0.4741,-2.1089,-3.5257,4.136
3.940000,0.3645,-2.0379,-3.4430,4.017
3.941000,0.2892,-1.9919,-3.3328,3.893
3.945000,0.2243,-1.9472,-3.2620,3.806
3.949000,0.1361,-1.8202,-3.1777,3.665
3.954000,0.1177,-1.7762,-3.1062,3.580
3.958000,0.0636,-1.6834,-3.0929,3.522
3.963000,-0.0979,-1.6210,-3.0517,3.457
3.969000,-0.2043,-1.5193,-3.0255,3.392
3.981000,-0.2104,-1.3641,-2.9261,3.235
3.982000,-0.2384,-1.2226,-2.8346,3.096
3.983000,-0.2430,-1.0491,-2.7678,2.970
3.988000,-0.1935,-0.9058,-2.7257,2.879
4.030000,-0.1668,-0.7662,-2.7083,2.820
4.031000,-0.1222,-0.6659,-2.6441,2.729
4.032000,-0.0452,-0.5279,-2.5144,2.570
4.032000,0.1263,-0.4120,-2.2833,2.324
4.032000,0.2703,-0.3035,-1.8891,1.932
4.033000,0.4112,-0.1789,-1.3579,1.430
4.033000,0.5211,-0.0408,-0.7473,0.912
4.033000,0.6580,0.0931,-0.1310,0.677
4.034000,0.6979,0.2107,0.4195,0.841
4.038000,0.6702,0.3234,0.9188,1.182
4.043000,0.5325,0.4069,1.3673,1.523
4.048000,0.2974,0.4637,1.6286,1.719
4.053000,-0.0154,0.5341,1.7891,1.867
4.057000,-0.2510,0.6688,1.7198,1.862
4.063000,-0.4386,0.8127,1.5667,1.819
4.069000,-0.5935,0.9564,1.3706,1.774
4.072000,-0.6299,1.1124,0.9758,1.608
4.078000,-0.5611,1.3027,0.4231,1.480
4.082000,-0.2763,1.4664,-0.2283,1.510
4.087000,0.1365,1.6645,-0.8593,1.878
4.130000,0.6018,1.9224,-1.2748,2.384
4.131000,1.1029,2.2370,-1.1820,2.760
4.132000,1.5931,2.3460,-0.6514,2.910
4.132000,2.0740,2.3367,0.2989,3.139
4.133000,2.5188,2.2423,1.6185,3.741
4.133000,2.9756,2.0521,3.1619,4.802
4.133000,3.3529,1.7060,4.7255,6.040
4.134000,3.5314,1.3257,6.2562,7.305
4.134000,3.5705,0.9273,7.6229,8.469
4.138000,3.4256,0.4607,8.2222,8.919
4.142000,3.0340,0.0280,8.8424,9.349
4.147000,2.3935,-0.2780,9.5985,9.896
4.153000,1.7320,-0.5537,9.7004,9.869
4.157000,0.9790,-0.7254,9.3719,9.451
4.163000,0.2227,-0.7851,8.9088,8.946
4.167000,-0.4366,-0.8513,8.3788,8.433
4.174000,-0.9764,-0.7877,7.7106,7.812
4.177000,-1.2953,-0.6296,6.6446,6.799
4.183000,-1.5549,-0.5125,5.1233,5.379
4.187000,-1.8056,-0.3966,3.8474,4.268
4.192000,-1.9997,-0.2305,2.8371,3.479
4.197000,-2.0368,-0.0892,2.0122,2.864
4.202000,-1.8775,0.0881,1.3765,2.330
4.216000,-1.5502,0.2426,1.0534,1.890
4.219000,-1.0884,0.3816,1.0017,1.528
4.220000,-0.5031,0.4839,1.0750,1.282
4.222000,0.1601,0.5210,1.3231,1.431
4.264000,0.7622,0.5142,1.6503,1.889
4.265000,1.2026,0.4370,1.9132,2.302
4.265000,1.5167,0.3752,2.0712,2.594
4.265000,1.6991,0.2974,2.0912,2.711
4.266000,1.7099,0.2348,1.9876,2.632
4.266000,1.6263,0.2209,1.7940,2.431
4.266000,1.5015,0.1789,1.5105,2.137
4.266000,1.3614,0.1740,1.2447,1.853
4.266000,1.2706,0.1607,0.9320,1.584
4.273000,1.2360,0.1127,0.6130,1.384
4.278000,1.2597,0.1256,0.2758,1.296
4.282000,1.2697,0.0562,-0.0891,1.274
4.287000,1.2943,-0.0453,-0.3216,1.334
4.291000,1.3023,-0.1217,-0.6155,1.446
4.297000,1.3052,-0.1778,-0.9082,1.600
4.302000,1.2983,-0.2425,-1.2718,1.834
4.306000,1.2474,-0.2727,-1.6222,2.064
4.311000,1.2215,-0.2709,-1.9356,2.305
4.316000,1.2017,-0.2702,-2.1596,2.486
4.320000,1.1691,-0.2370,-2.4235,2.701
4.326000,1.1974,-0.2288,-2.5861,2.859
4.331000,1.1962,-0.2452,-2.7458,3.005
4.335000,1.0679,-0.3145,-2.9123,3.118
4.372000,0.9831,-0.3622,-3.0666,3.241
4.374000,0.9086,-0.4118,-3.1827,3.335
4.375000,0.8187,-0.4702,-3.2177,3.353
4.375000,0.7136,-0.5156,-3.2005,3.319
4.375000,0.5797,-0.5481,-3.1335,3.233
4.376000,0.4480,-0.6277,-3.1531,3.246
4.376000,0.2418,-0.6994,-3.1969,3.281
4.377000,0.0610,-0.7419,-3.2672,3.351
4.380000,-0.0923,-0.7861,-3.4405,3.530
4.385000,-0.2641,-0.7867,-3.5540,3.650
4.394000,-0.4238,-0.7959,-3.6081,3.719
4.395000,-0.5430,-0.7995,-3.6242,3.751
4.400000,-0.6245,-0.7519,-3.5595,3.691
4.405000,-0.7114,-0.7537,-3.4473,3.600
4.411000,-0.8039,-0.8147,-3.2758,3.470
4.415000,-1.0742,-0.8752,-3.1669,3.457
4.420000,-1.8808,-1.2818,-2.9914,3.759
4.430000,-1.9079,-1.0947,-2.8210,3.577
4.432000,-1.4383,-0.5703,-2.6198,3.043
4.435000,-1.0870,-0.2855,-2.6509,2.879
4.439000,-0.7325,-0.1374,-2.7967,2.894
4.471000,-0.3996,-0.1210,-2.7391,2.771
4.474000,-0.1910,-0.1694,-2.5164,2.529
4.474000,-0.0483,-0.2612,-2.2650,2.281
4.475000,0.0367,-0.2553,-2.0185,2.035
4.476000,0.0456,-0.1473,-1.7912,1.798
4.476000,0.0436,0.0438,-1.5233,1.525
4.477000,0.0460,0.1720,-1.3679,1.379
4.480000,0.1390,0.2613,-1.3081,1.341
4.484000,0.2316,0.3189,-1.2794,1.339
4.489000,0.3090,0.3760,-1.2767,1.366
4.495000,0.3130,0.4085,-1.2284,1.332
4.499000,0.1930,0.4331,-1.1416,1.236
4.504000,-0.0250,0.4304,-1.0257,1.113
4.509000,-0.2478,0.4100,-0.8688,0.992
4.515000,-0.5114,0.4146,-0.7187,0.975
4.519000,-0.7417,0.4155,-0.6398,1.064
4.530000,-0.8643,0.4559,-0.6729,1.186
4.531000,-0.9660,0.4524,-0.7700,1.316
4.534000,-1.0470,0.5248,-0.8572,1.451
4.538000,-1.0286,0.5944,-0.8580,1.465
4.571000,-1.0356,0.6138,-0.7464,1.416
4.572000,-1.0698,0.6239,-0.5776,1.367
4.572000,-1.0640,0.6749,-0.3207,1.300
4.573000,-1.1231,0.6637,-0.1047,1.309
4.573000,-1.1369,0.5737,0.0870,1.276
4.575000,-1.1250,0.5100,0.2953,1.270
4.576000,-1.0996,0.4869,0.5513,1.323
4.579000,-0.9915,0.4302,0.8047,1.348
4.584000,-0.8894,0.3946,1.1609,1.515
4.588000,-0.7997,0.4256,1.5407,1.787
4.594000,-0.6980,0.3961,2.0113,2.166
4.599000,-0.6639,0.3968,2.7831,2.889
4.603000,-0.4497,0.6373,3.0048,3.104
4.610000,-0.3591,0.8556,3.2132,3.344
4.614000,-0.5205,0.9438,3.4038,3.570
4.618000,-0.7365,1.0284,3.1535,3.398
4.625000,-0.9753,1.1025,2.6615,3.041
4.629000,-1.2620,1.1768,2.1832,2.783
4.634000,-1.5063,1.2376,1.7925,2.648
4.638000,-1.7640,1.2552,1.4599,2.611
4.647000,-1.8824,1.3283,1.1946,2.595
4.649000,-1.9314,1.4241,1.0439,2.617
4.653000,-1.8949,1.5385,0.9546,2.621
4.693000,-1.8214,1.6045,0.9961,2.624
4.694000,-1.7541,1.6679,1.2253,2.713
4.695000,-1.5800,1.6761,1.4722,2.734
4.695000,-1.3134,1.7558,1.7488,2.805
4.696000,-1.0372,1.7754,2.1100,2.946
4.696000,-0.7867,1.8040,2.4746,3.162
4.696000,-0.5967,1.7865,2.7398,3.325
4.697000,-0.4448,1.7203,2.9967,3.484
4.699000,-0.3715,1.6176,3.1903,3.596
4.703000,-0.3832,1.5142,3.3205,3.670
4.711000,-0.4343,1.4126,3.4663,3.768
4.713000,-0.4864,1.2579,3.6469,3.888
4.718000,-0.6251,1.1215,3.7976,4.009
4.724000,-0.7552,1.0008,3.9404,4.135
4.728000,-0.9053,0.8858,3.9916,4.188
4.733000,-1.0401,0.7739,4.0208,4.225
4.738000,-1.1648,0.6935,4.0404,4.262
4.748000,-1.2939,0.5939,4.0097,4.255
4.750000,-1.3153,0.5251,3.9459,4.192
4.753000,-1.3036,0.4918,3.8274,4.073
4.806000,-1.2472,0.4269,3.6377,3.869
4.807000,-1.1558,0.3642,3.4772,3.682
4.808000,-1.0461,0.2796,3.2429,3.419
4.809000,-0.8561,0.2596,3.0689,3.197
4.809000,-0.6598,0.2349,2.8928,2.976
4.810000,-0.4877,0.1460,2.6640,2.712
4.810000,-0.3609,0.1180,2.4589,2.488
4.810000,-0.2382,0.0361,2.2988,2.311
4.811000,-0.1501,-0.0229,2.1932,2.198
4.811000,-0.0845,-0.1164,2.1586,2.163
4.811000,0.0261,-0.2709,2.0827,2.100
4.814000,0.0764,-0.4530,2.0517,2.102
4.816000,0.1340,-0.6103,1.9317,2.030
4.821000,0.1487,-0.8169,1.8281,2.008
4.827000,0.1349,-0.9801,1.7173,1.982
4.832000,0.0712,-1.1552,1.5802,1.959
4.836000,-0.0020,-1.2875,1.4148,1.913
4.841000,-0.0731,-1.4111,1.2406,1.880
4.847000,-0.1421,-1.5502,1.0122,1.857
4.851000,-0.1981,-1.6526,0.7253,1.816
4.867000,-0.2245,-1.7449,0.3417,1.792
4.871000,-0.2436,-1.8919,-0.0472,1.908
4.872000,-0.2459,-1.9907,-0.4105,2.047
4.873000,-0.2993,-2.0415,-0.7887,2.209
4.912000,-0.3201,-2.0802,-1.2152,2.430
4.913000,-0.3472,-2.1089,-1.6065,2.674
4.914000,-0.2376,-2.1251,-2.0273,2.947
4.914000,-0.1451,-2.0903,-2.3818,3.172
4.915000,-0.0887,-2.0717,-2.6822,3.390
4.915000,0.0367,-2.0498,-2.9668,3.606
4.916000,0.1260,-2.0221,-3.2430,3.824
4.917000,0.2294,-2.0003,-3.4893,4.029
4.917000,0.3465,-1.9847,-3.7464,4.254
4.921000,0.4179,-1.9220,-3.9570,4.419
4.926000,0.4415,-1.8646,-4.1598,4.580
4.932000,0.4369,-1.8551,-4.3286,4.730
4.937000,0.4427,-1.8167,-4.4852,4.859
4.942000,0.4541,-1.8138,-4.6107,4.975
4.946000,0.4574,-1.7691,-4.6982,5.041
4.951000,0.4603,-1.7448,-4.6977,5.032
4.956000,0.4583,-1.6949,-4.7387,5.054
4.964000,0.4276,-1.6602,-4.8117,5.108
4.966000,0.3566,-1.6500,-4.8021,5.090
4.971000,0.3507,-1.5731,-4.7793,5.044
5.006000,0.3240,-1.5084,-4.7293,4.975
5.007000,0.3458,-1.4153,-4.7452,4.964
5.007000,0.3536,-1.3440,-4.6908,4.892
5.007000,0.2972,-1.2800,-4.5208,4.708
5.008000,0.3201,-1.1974,-4.3235,4.498
5.008000,0.3384,-1.1417,-4.0296,4.202
5.008000,0.3021,-1.1230,-3.7322,3.909
5.012000,0.2565,-1.1246,-3.4358,3.624
5.016000,0.2061,-1.1207,-3.1499,3.350
5.021000,0.1724,-1.1139,-2.8622,3.076
5.025000,0.1505,-1.0829,-2.5057,2.734
5.030000,0.0400,-1.0976,-2.1685,2.431
5.035000,-0.0205,-1.0603,-1.8289,2.114
5.040000,-0.0957,-0.9909,-1.5630,1.853
5.045000,-0.1140,-0.9446,-1.3108,1.620
5.050000,-0.1305,-0.9381,-1.2347,1.556
5.057000,-0.1526,-0.8806,-1.2652,1.549
5.061000,-0.1989,-0.7860,-1.2878,1.522
5.065000,-0.2193,-0.7044,-1.3384,1.528
5.071000,-0.1947,-0.6113,-1.3000,1.450
5.079000,-0.1008,-0.4873,-1.2426,1.338
5.080000,-0.0233,-0.3512,-1.1064,1.161
5.085000,0.0881,-0.2438,-0.8486,0.887
5.125000,0.1910,-0.0646,-0.5387,0.575
5.126000,0.2615,0.0854,-0.3319,0.431
5.126000,0.2996,0.1728,-0.1565,0.380
5.127000,0.3126,0.1885,0.0569,0.369
5.127000,0.3221,0.2018,0.1478,0.408
5.127000,0.2636,0.1795,0.2312,0.394
5.127000,0.2302,0.0815,0.2731,0.366
5.127000,0.2100,-0.0246,0.4073,0.459
5.131000,0.1863,-0.0241,0.6121,0.640
5.134000,0.2190,0.0614,0.8539,0.884
5.139000,0.1763,0.1219,1.1828,1.202
5.145000,0.1111,0.1593,1.6182,1.630
5.150000,0.0185,0.2305,2.1148,2.127
5.155000,-0.0749,0.3444,2.4553,2.480
5.161000,-0.1378,0.4911,2.6760,2.724
5.165000,-0.2636,0.6247,2.7438,2.826
5.170000,-0.3787,0.7930,2.6949,2.835
5.177000,-0.4645,0.9268,2.4840,2.692
5.180000,-0.4731,1.0241,2.3452,2.602
5.184000,-0.3809,1.0950,2.2042,2.491
5.188000,-0.1861,1.1830,2.0248,2.352
5.231000,0.0086,1.2813,1.8690,2.266
5.232000,0.2387,1.4693,1.5787,2.170
5.233000,0.4895,1.6809,1.2513,2.152
5.233000,0.7443,1.9073,1.0014,2.279
5.234000,1.0054,2.1183,0.9143,2.517
5.234000,1.3357,2.2548,0.9414,2.785
5.235000,1.7169,2.2865,1.1060,3.066
5.235000,2.1757,2.2259,1.5106,3.460
5.236000,2.4933,2.1066,2.2121,3.943
5.239000,2.7234,1.8942,3.0027,4.474
5.244000,2.8600,1.5804,3.7779,4.995
5.249000,2.8062,1.2532,4.3492,5.325
5.254000,2.6790,0.9254,4.8757,5.640
5.258000,2.4021,0.6250,5.3222,5.872
5.264000,2.0084,0.3218,5.6275,5.984
5.269000,1.5674,0.0511,5.6943,5.906
5.275000,1.0943,-0.2169,5.5116,5.623
5.279000,0.6452,-0.4850,5.0657,5.130
5.284000,0.2123,-0.6763,4.4572,4.513
5.289000,-0.1634,-0.8221,3.8418,3.932
5.294000,-0.5152,-0.9437,3.1766,3.354
5.299000,-0.7365,-0.9546,2.5162,2.790
5.307000,-0.8484,-0.9052,1.9897,2.345
5.308000,-0.9112,-0.8571,1.5370,1.982
5.315000,-0.8393,-0.7600,1.2102,1.657
5.319000,-0.6716,-0.6593,0.9230,1.318
5.323000,-0.4796,-0.5901,0.7970,1.102
5.361000,-0.2220,-0.5598,0.9036,1.086
5.362000,0.1524,-0.5445,1.1374,1.270
5.362000,0.5277,-0.5369,1.3810,1.573
5.363000,0.8626,-0.5209,1.5149,1.819
5.363000,1.1344,-0.5201,1.5273,1.972
5.363000,1.3254,-0.5322,1.4349,2.025
5.363000,1.4053,-0.5284,1.2259,1.938
5.363000,1.4224,-0.5464,0.9814,1.812
5.367000,1.3673,-0.5954,0.7683,1.678
5.373000,1.2472,-0.6087,0.5770,1.503
5.378000,1.1963,-0.5837,0.5222,1.430
5.383000,1.1164,-0.5975,0.4438,1.342
5.388000,1.0744,-0.6526,0.3706,1.311
5.395000,1.0555,-0.7493,0.2453,1.317
5.397000,1.0549,-0.8350,0.0490,1.346
5.402000,1.0341,-0.9030,-0.1583,1.382
5.447000,0.9690,-0.9437,-0.4602,1.429
5.447000,0.8830,-0.9718,-0.7610,1.518
5.448000,0.7898,-0.9683,-1.1201,1.678
5.448000,0.7317,-0.9092,-1.3846,1.811
5.448000,0.6965,-0.8785,-1.6502,1.995
5.449000,0.6480,-0.8619,-1.8331,2.127
5.449000,0.6050,-0.8642,-2.0290,2.287
5.450000,0.5525,-0.8615,-2.3217,2.537
5.450000,0.5146,-0.8632,-2.5866,2.775
5.453000,0.4984,-0.8881,-2.8360,3.013
5.459000,0.4876,-0.8593,-3.0773,3.232
5.462000,0.4582,-0.8146,-3.3513,3.479
5.467000,0.4128,-0.7703,-3.5554,3.661
5.471000,0.3657,-0.6950,-3.6588,3.742
5.476000,0.3006,-0.6554,-3.7023,3.772
5.482000,0.2632,-0.5556,-3.7125,3.763
5.487000,0.2803,-0.5414,-3.7157,3.765
5.492000,0.3095,-0.5073,-3.7290,3.776
5.497000,0.3075,-0.4433,-3.7714,3.810
5.502000,0.2581,-0.4235,-3.7642,3.797
5.511000,0.2357,-0.3689,-3.7076,3.733
5.513000,0.1688,-0.3106,-3.6588,3.676
5.516000,0.0837,-0.2940,-3.6348,3.648
5.522000,-0.0147,-0.2544,-3.5947,3.604
5.562000,-0.0768,-0.1777,-3.4574,3.463
5.564000,-0.1070,-0.1094,-3.2730,3.277
5.564000,-0.1847,-0.0714,-3.0607,3.067
5.565000,-0.2238,0.0177,-2.8729,2.882
5.566000,-0.2914,0.0356,-2.5972,2.614
5.566000,-0.3662,0.0395,-2.2814,2.311
5.566000,-0.3550,0.0816,-1.8894,1.924
5.567000,-0.3892,0.1041,-1.5934,1.644
5.567000,-0.3566,0.1663,-1.3308,1.388
5.572000,-0.3316,0.2393,-1.1205,1.193
5.577000,-0.3547,0.2847,-0.9362,1.041
5.581000,-0.2726,0.3070,-0.7036,0.815
5.586000,-0.2096,0.3564,-0.4466,0.609
5.591000,-0.1196,0.4304,-0.2800,0.527
5.596000,-0.0933,0.4930,-0.2323,0.553
5.602000,-0.1140,0.5298,-0.3106,0.625
5.606000,-0.2296,0.5823,-0.3309,0.708
5.611000,-0.3686,0.6454,-0.2287,0.778
5.616000,-0.5259,0.6717,-0.1213,0.862
5.620000,-0.6558,0.6586,-0.0279,0.930
5.626000,-0.7847,0.6422,-0.0513,1.015
5.631000,-0.8685,0.6918,0.0095,1.110
5.635000,-0.9264,0.7017,0.0829,1.165
5.679000,-1.0374,0.6988,0.0156,1.251
5.681000,-1.0750,0.7115,-0.0438,1.290
5.682000,-1.1569,0.7786,-0.0956,1.398
5.682000,-1.2282,0.8024,-0.1018,1.471
5.682000,-1.3059,0.8400,0.0335,1.553
5.682000,-1.3710,0.8796,0.2191,1.644
5.682000,-1.3305,0.9332,0.4143,1.677
5.683000,-1.2588,0.9385,0.6311,1.692
5.683000,-1.0792,0.9622,0.8720,1.688
5.685000,-0.8107,0.9757,1.1466,1.710
5.692000,-0.5918,1.0294,1.5000,1.913
5.695000,-0.3930,1.1299,1.9158,2.259
5.700000,-0.2110,1.2460,2.4369,2.745
5.705000,-0.0830,1.3271,2.9629,3.248
5.710000,-0.0631,1.4252,3.3387,3.631
5.715000,-0.1030,1.4943,3.5194,3.825
5.720000,-0.2241,1.5134,3.5839,3.897
5.728000,-0.3331,1.5469,3.4559,3.801
5.730000,-0.5214,1.5715,3.3004,3.692
5.735000,-0.6890,1.5877,3.0669,3.522
5.769000,-0.8624,1.6299,2.7720,3.329
5.770000,-0.9727,1.7076,2.5016,3.181
5.771000,-1.0162,1.7833,2.2123,3.018
5.771000,-1.0581,1.9419,1.9346,2.938
5.771000,-1.0725,2.0777,1.7452,2.918
5.772000,-1.0434,2.1223,1.5262,2.815
5.772000,-0.9975,2.1383,1.5525,2.824
5.779000,-0.8920,2.1903,1.7712,2.955
5.780000,-0.7000,2.2138,2.0933,3.126
5.785000,-0.4478,2.2297,2.4164,3.318
5.790000,-0.1588,2.2257,2.7861,3.569
5.795000,0.1531,2.1964,3.2098,3.892
5.800000,0.3812,2.1890,3.5108,4.155
5.804000,0.5503,2.1198,3.7037,4.303
5.810000,0.6013,1.9810,3.8079,4.334
5.815000,0.5760,1.8137,3.8331,4.279
5.819000,0.4245,1.6373,3.8149,4.173
5.824000,0.1902,1.4085,3.6867,3.951
5.829000,-0.0478,1.2642,3.5103,3.731
5.834000,-0.3281,1.1013,3.3363,3.529
5.839000,-0.6272,1.0059,3.1358,3.352
5.847000,-0.8955,0.9756,2.8587,3.151
5.850000,-1.1121,0.8857,2.6201,2.981
5.854000,-1.3184,0.7605,2.3194,2.774
5.906000,-1.4840,0.6717,1.8993,2.502
5.907000,-1.5860,0.6077,1.4913,2.260
5.908000,-1.6206,0.5352,1.0761,2.018
5.909000,-1.6411,0.4974,0.7589,1.875
5.909000,-1.6023,0.4421,0.5010,1.736
5.910000,-1.5212,0.3648,0.3140,1.596
5.910000,-1.4074,0.2897,0.2576,1.460
5.910000,-1.1791,0.1617,0.3554,1.242
5.910000,-0.8759,0.0909,0.4734,1.000
5.911000,-0.5593,0.0100,0.5446,0.781
5.911000,-0.2070,-0.1244,0.6244,0.670
5.913000,0.0644,-0.2072,0.6699,0.704
5.918000,0.2911,-0.3416,0.6524,0.792
5.925000,0.4736,-0.4823,0.5961,0.901
5.928000,0.6172,-0.5840,0.4989,0.985
5.934000,0.7144,-0.7378,0.3895,1.098
5.939000,0.7510,-0.8911,0.3444,1.215
5.944000,0.8039,-1.0442,0.3376,1.360
5.949000,0.8325,-1.2114,0.2493,1.491
5.954000,0.8464,-1.3835,0.2020,1.634
5.960000,0.7832,-1.5275,0.1456,1.723
5.963000,0.6858,-1.7296,-0.1302,1.865
5.967000,0.6132,-1.8919,-0.4075,2.030
5.991000,0.5507,-1.9999,-0.6359,2.170
5.992000,0.4810,-2.0847,-0.8420,2.299
5.992000,0.4585,-2.1488,-0.9921,2.411
5.993000,0.4329,-2.1638,-1.0744,2.454
5.993000,0.4208,-2.1728,-1.0935,2.469
5.998000,0.3936,-2.1716,-1.1425,2.485
6.002000,0.3416,-2.1963,-1.1638,2.509
6.008000,0.2956,-2.1850,-1.1668,2.495
6.013000,0.3225,-2.1430,-1.2253,2.490
6.017000,0.3788,-2.0800,-1.2937,2.479
6.024000,0.5120,-1.9989,-1.4650,2.531
6.030000,0.6546,-1.8397,-1.6171,2.535
6.033000,0.7853,-1.7511,-1.7187,2.576
6.038000,0.9213,-1.6153,-1.8540,2.626
6.044000,1.0603,-1.5108,-1.9036,2.652
6.048000,1.2434,-1.4163,-1.9200,2.690
6.052000,1.4689,-1.2525,-2.0445,2.812
6.060000,1.6723,-1.1388,-2.2605,3.034
6.063000,1.7937,-1.0153,-2.5320,3.265
6.067000,1.8405,-0.9051,-2.7899,3.463
6.072000,1.8250,-0.8841,-3.0349,3.650
6.107000,1.7951,-0.8679,-3.2768,3.836
6.108000,1.7670,-0.9236,-3.4868,4.017
6.109000,1.7410,-0.9287,-3.6176,4.121
6.109000,1.6742,-0.9615,-3.7031,4.176
6.109000,1.5882,-1.0247,-3.8078,4.251
6.110000,1.4619,-1.0961,-3.8102,4.226
6.110000,1.3340,-1.1393,-3.7970,4.183
6.113000,1.2048,-1.1598,-3.7558,4.111
6.118000,1.0531,-1.2479,-3.6751,4.021
6.122000,0.9342,-1.3247,-3.6244,3.970
6.127000,0.8102,-1.4424,-3.4725,3.846
6.133000,0.7026,-1.5511,-3.3747,3.780
6.137000,0.6623,-1.5906,-3.2548,3.683
6.142000,0.6057,-1.6469,-3.1657,3.619
6.146000,0.5568,-1.6772,-3.0929,3.562
6.152000,0.5611,-1.6641,-2.9842,3.463
6.158000,0.5182,-1.6153,-2.7533,3.234
6.161000,0.5164,-1.6050,-2.4195,2.949
6.167000,0.4814,-1.6022,-1.9492,2.569
6.172000,0.4374,-1.5980,-1.5836,2.292
6.176000,0.4124,-1.5952,-1.2841,2.089
6.181000,0.3129,-1.5892,-1.0812,1.947
6.186000,0.2292,-1.5349,-1.0249,1.860
6.196000,0.0936,-1.4728,-1.0289,1.799
6.198000,-0.1013,-1.3719,-1.0836,1.751
6.201000,-0.3371,-1.2415,-1.1007,1.693
6.206000,-0.4879,-1.0862,-0.9655,1.533
6.237000,-0.5540,-0.9658,-0.7691,1.353
6.237000,-0.5456,-0.9209,-0.5786,1.217
6.238000,-0.4247,-0.8918,-0.3388,1.044
6.238000,-0.2775,-0.8523,-0.0068,0.896
6.238000,-0.1349,-0.8481,0.3819,0.940
6.238000,-0.0490,-0.8603,0.8632,1.220
6.241000,0.0454,-0.8368,1.3990,1.631
6.246000,0.0848,-0.8690,1.9563,2.142
6.251000,0.1088,-0.9311,2.4134,2.589
6.259000,0.0301,-0.9826,2.6631,2.839
6.261000,-0.1194,-0.9974,2.5744,2.763
6.266000,-0.3942,-0.9231,2.2408,2.455
6.272000,-0.7142,-0.7256,1.6336,1.925
6.276000,-1.1186,-0.5243,0.9584,1.564
6.281000,-1.5078,-0.3610,0.2480,1.570
6.289000,-1.9065,-0.1657,-0.3955,1.954
6.293000,-2.2397,-0.0019,-0.9802,2.445
6.297000,-2.4823,0.1670,-1.3728,2.842
6.300000,-2.5635,0.3272,-1.6124,3.046
6.329000,-2.4602,0.5315,-1.6658,3.018
6.330000,-2.1852,0.7941,-1.5429,2.790
6.330000,-1.7058,0.9598,-1.2798,2.339
6.330000,-1.1558,1.1047,-0.6971,1.744
6.330000,-0.6465,1.2141,0.1599,1.385
6.330000,-0.1764,1.2656,1.1242,1.702
6.335000,0.2615,1.3396,2.1224,2.523
6.339000,0.5882,1.4018,2.9591,3.327
6.345000,0.7597,1.4274,3.4439,3.805
6.350000,0.7584,1.4283,3.5726,3.922
6.355000,0.6087,1.4115,3.4509,3.778
6.360000,0.2843,1.3895,3.0452,3.359
6.366000,-0.0975,1.3654,2.4056,2.768
6.370000,-0.5061,1.2712,1.6102,2.113
6.376000,-0.9528,1.1600,0.9004,1.750
6.380000,-1.3124,1.0640,0.1845,1.700
6.385000,-1.5250,1.0509,-0.3229,1.880
6.393000,-1.5663,1.0618,-0.5725,1.977
6.395000,-1.4734,1.1134,-0.3949,1.888
6.400000,-1.1775,1.1645,0.2267,1.672
6.405000,-0.6764,1.1447,1.1419,1.753
6.445000,-0.1297,1.1411,1.9929,2.300
6.446000,0.3482,1.0305,2.8548,3.055
6.446000,0.6962,0.9359,3.7335,3.911
6.447000,0.9203,0.8847,4.5486,4.724
6.447000,1.0290,0.7625,5.2391,5.393
6.448000,1.0571,0.6194,5.6429,5.774
6.448000,1.0371,0.4346,5.7684,5.877
6.448000,0.9556,0.2061,5.5224,5.608
6.449000,0.7839,0.0180,4.9886,5.050
6.454000,0.5895,-0.1268,4.3416,4.383
6.461000,0.3224,-0.3158,3.5521,3.581
6.465000,0.0348,-0.4188,2.6315,2.665
6.470000,-0.2571,-0.5067,1.7036,1.796
6.475000,-0.3893,-0.5161,0.9375,1.139
6.479000,-0.4438,-0.5159,0.2656,0.730
6.484000,-0.5120,-0.5054,-0.3006,0.780
6.490000,-0.4891,-0.4559,-0.6562,0.937
6.499000,-0.3823,-0.4554,-0.9117,1.088
6.499000,-0.3095,-0.4854,-1.0429,1.191
6.504000,-0.2159,-0.4839,-1.0905,1.212
6.540000,-0.1115,-0.4942,-1.1021,1.213
6.541000,0.0206,-0.4858,-1.0752,1.180
6.541000,0.1015,-0.4665,-0.9760,1.086
6.541000,0.1843,-0.4221,-0.8689,0.983
6.541000,0.2762,-0.3940,-0.8754,0.999
6.541000,0.2867,-0.3894,-0.9788,1.092
6.542000,0.2326,-0.3988,-1.1501,1.239
6.543000,0.1569,-0.4531,-1.3272,1.411
6.550000,0.0359,-0.4539,-1.5604,1.625
6.554000,-0.1207,-0.4703,-1.7567,1.823
6.558000,-0.2937,-0.4898,-1.9857,2.066
6.563000,-0.4781,-0.5528,-2.2357,2.352
6.570000,-0.6362,-0.6063,-2.4255,2.580
6.574000,-0.7324,-0.6403,-2.4885,2.672
6.578000,-0.7737,-0.6882,-2.4727,2.681
6.582000,-0.7698,-0.6855,-2.3377,2.555
6.588000,-0.7564,-0.6754,-2.1503,2.377
6.593000,-0.6737,-0.6990,-2.0013,2.224
6.598000,-0.5792,-0.6846,-1.9335,2.131
6.604000,-0.5781,-0.7234,-1.8488,2.068
6.609000,-0.5414,-0.7271,-1.8259,2.039
6.613000,-0.5674,-0.7339,-1.8623,2.081
6.618000,-0.5677,-0.6912,-1.9244,2.122
6.647000,-0.5302,-0.6614,-1.9239,2.102
6.648000,-0.4625,-0.6084,-1.8774,2.027
6.649000,-0.4006,-0.5513,-1.8330,1.956
6.649000,-0.2913,-0.5358,-1.7045,1.810
6.649000,-0.2064,-0.5424,-1.6139,1.715
6.650000,-0.1339,-0.5333,-1.5588,1.653
6.653000,-0.0807,-0.5249,-1.5223,1.612
6.658000,0.0415,-0.4863,-1.5451,1.620
6.663000,0.1728,-0.3933,-1.6368,1.692
6.668000,0.2727,-0.3629,-1.7450,1.803
6.674000,0.4177,-0.3160,-1.7596,1.836
6.678000,0.4984,-0.2544,-1.7529,1.840
6.682000,0.6082,-0.1661,-1.6819,1.796
6.688000,0.6948,-0.1372,-1.5133,1.671
6.693000,0.7345,-0.1557,-1.2878,1.491
6.698000,0.7563,-0.1835,-1.1152,1.360
6.705000,0.7558,-0.1945,-0.9404,1.222
6.710000,0.6854,-0.2371,-0.7487,1.042
6.712000,0.5903,-0.2587,-0.6859,0.941
6.718000,0.4391,-0.2666,-0.5963,0.787
6.722000,0.2032,-0.2657,-0.5851,0.674
6.730000,0.0180,-0.2920,-0.5256,0.602
6.732000,-0.0997,-0.2641,-0.4248,0.510
6.737000,-0.1816,-0.2849,-0.3426,0.481
6.747000,-0.1750,-0.2732,-0.2910,0.436
6.756000,-0.1471,-0.2217,-0.2579,0.371
6.756000,-0.1009,-0.1399,-0.3199,0.363
6.793000,-0.0893,-0.0875,-0.4173,0.436
6.794000,-0.0981,-0.0214,-0.3947,0.407
6.794000,-0.0628,0.0469,-0.1974,0.212
6.794000,-0.0338,0.0955,0.0359,0.107
6.794000,0.0056,0.0599,0.2978,0.304
6.795000,0.0866,-0.0097,0.6316,0.638
6.795000,0.1904,-0.0491,0.9394,0.960
6.795000,0.2576,-0.1326,1.1806,1.216
6.796000,0.2669,-0.1145,1.4920,1.520
6.801000,0.2525,-0.0502,1.7324,1.751
6.807000,0.0805,0.0577,1.8496,1.852
6.812000,-0.1226,0.2303,1.9062,1.924
6.817000,-0.3452,0.4076,1.8402,1.916
6.825000,-0.5801,0.5089,1.7350,1.899
6.828000,-0.8060,0.5843,1.5453,1.838
6.832000,-1.0208,0.7279,1.3259,1.825
6.836000,-1.2367,0.8851,1.0546,1.851
6.846000,-1.3779,1.0210,0.8170,1.900
6.848000,-1.4379,1.2170,0.5149,1.953
6.851000,-1.3504,1.4929,0.4085,2.054
6.889000,-1.2113,1.7151,0.3775,2.133
6.891000,-1.0876,1.8859,0.4147,2.216
6.891000,-0.8791,2.0724,0.4939,2.305
6.892000,-0.6414,2.2266,0.5504,2.382
6.892000,-0.3937,2.3246,0.6631,2.449
6.892000,-0.0832,2.4027,0.7745,2.526
6.893000,0.2375,2.3865,1.0402,2.614
6.893000,0.4431,2.2980,1.2995,2.677
6.896000,0.5247,2.2544,1.5645,2.794
6.901000,0.7014,2.1696,1.9404,2.994
6.906000,0.8447,2.1414,2.2407,3.212
6.911000,0.8678,2.1626,2.4248,3.363
6.916000,0.8988,2.2165,2.4999,3.460
6.921000,0.9496,2.1714,2.5428,3.476
6.931000,0.8229,2.1207,2.4744,3.361
6.936000,0.5861,1.9881,2.2228,3.039
6.936000,0.3324,1.8914,1.9458,2.734
