SensorId, TimeStamp (s), FrameNumber, AccX (g), AccY (g), AccZ (g), GyroX (deg/s), GyroY (deg/s), GyroZ (deg/s), MagX (uT), MagY (uT), MagZ (uT), EulerX (deg), EulerY (deg), EulerZ (deg), QuatW, QuatX, QuatY, QuatZ, LinAccX (g), LinAccY (g), LinAccZ (g), Pressure (kPa), Altitude (m), Temperature (degC), HeaveMotion (m)
1, 0.0000, 0, -0.24313536, -0.88151014, 0.10042187, 34.48772812, -23.95171738, -157.01405334, -37.12364578, 6.22624969, -69.92107391, 92.69728088, -20.09351730, -117.01358795, -0.46269777, 0.26950541, -0.67042077, -0.51362795, -0.10392758, -0.05558376, -0.05915377, 99.97400665, 113.07157135, 30.21999931, 0.00000000
1, 0.0250, 1, -0.25805217, -0.96958911, 0.12375429, 38.55706024, -14.43668938, -174.78576660, -33.90821457, 5.52470016, -69.39491272, 93.68018341, -15.84967995, -117.23355865, -0.43867555, 0.29572558, -0.66589755, -0.52601397, -0.01906501, 0.01039582, -0.06512895, 99.97400665, 113.07157135, 30.21999931, 0.00000000
1, 0.0300, 2, -0.27359274, -0.98350000, 0.11429664, 39.48749924, -12.58615971, -177.55767822, -33.90821457, 5.52470016, -69.39491272, 93.87699890, -14.95919037, -117.23951721, -0.43370661, 0.30132917, -0.66472709, -0.52842897, 0.01140924, 0.02037590, -0.05216149, 99.97400665, 113.07157135, 30.21999931, 0.00000000
1, 0.0350, 3, -0.28404871, -0.99539065, 0.10644165, 40.79980469, -9.96552086, -180.35113525, -32.73896408, 6.48933077, -68.98567963, 94.07582855, -14.05564213, -117.22775269, -0.42870408, 0.30707967, -0.66345769, -0.53079069, 0.03708041, 0.02852240, -0.04074129, 99.97400665, 113.07157135, 30.21999931, 0.00000000
1, 0.0400, 4, -0.28868258, -1.00281811, 0.10740326, 42.35321045, -6.68212938, -183.09683228, -32.73896408, 6.48933077, -68.98567963, 94.27762604, -13.13958454, -117.19493866, -0.42368346, 0.31299445, -0.66208196, -0.53308010, 0.05718577, 0.03239575, -0.03805103, 99.97400665, 113.07157135, 30.21999931, 0.00000000
1, 0.0450, 5, -0.27893209, -1.00844502, 0.11053998, 43.43131256, -2.32378387, -185.81085205, -32.73896408, 6.48933077, -68.98567963, 94.47950745, -12.21173954, -117.13564301, -0.41868159, 0.31908759, -0.66056830, -0.53529280, 0.06316242, 0.03468169, -0.03747255, 99.97400665, 113.07157135, 30.21999931, 0.00000000
1, 0.0500, 6, -0.25491041, -1.02211547, 0.11571796, 44.30389023, 1.37212837, -188.57308960, -31.97895241, 7.04472351, -69.39491272, 94.68191528, -11.27176666, -117.05326843, -0.41368017, 0.32534015, -0.65892214, -0.53744233, 0.05512142, 0.04523415, -0.03890829, 99.97400665, 113.07157135, 30.21999931, 0.00000000
1, 0.0550, 7, -0.21911493, -1.01457179, 0.12589392, 44.62966537, 3.34399652, -190.80863953, -31.97895241, 7.04472351, -69.39491272, 94.88464355, -10.32174778, -116.95685577, -0.40864825, 0.33168548, -0.65716857, -0.53955626, 0.03553779, 0.03480516, -0.04526190, 99.97400665, 113.07157135, 30.21999931, 0.00000000
1, 0.0600, 8, -0.19534712, -1.01065075, 0.12747259, 45.64829636, 3.95766401, -192.80493164, -31.97895241, 7.04472351, -69.39491272, 95.09279633, -9.36236858, -116.85330963, -0.40354186, 0.33809608, -0.65535039, -0.54162812, 0.02822059, 0.02827306, -0.04298253, 99.97400665, 113.07157135, 30.21999931, 0.00000000
1, 0.0650, 9, -0.17982657, -1.01795864, 0.10522584, 46.73398209, 5.04510975, -194.19493103, -30.75124168, 6.43086815, -68.92721558, 95.30664063, -8.39691830, -116.74038696, -0.39838696, 0.34456572, -0.65346879, -0.54363668, 0.02936238, 0.03329034, -0.01682887, 99.97400665, 113.07157135, 30.21999931, 0.00000000
1, 0.0700, 10, -0.17934281, -1.02949464, 0.07790300, 48.13732910, 6.43784142, -195.12599182, -30.75124168, 6.43086815, -68.92721558, 95.52752686, -7.42845249, -116.61654663, -0.39320233, 0.35108927, -0.65153188, -0.54555887, 0.04566858, 0.04283907, 0.01446749, 99.97400665, 113.07157135, 30.21999931, 0.00000000
1, 0.0950, 11, -0.16029988, -1.06784379, 0.10065032, 59.59199142, 9.88050175, -192.21032715, -27.74042702, 7.57088566, -67.64103699, 96.82732391, -2.62765551, -115.86242676, -0.36684877, 0.38411683, -0.64173996, -0.55321431, 0.11006890, 0.07586895, 0.01467393, 99.97400665, 113.07157135, 30.21999931, 0.00000000
1, 0.1000, 12, -0.13665953, -1.08169854, 0.11311544, 61.01725006, 9.93442726, -191.03540039, -26.27886581, 7.74627304, -67.81642914, 97.12387848, -1.68457305, -115.69845581, -0.36147410, 0.39065719, -0.63981825, -0.55439699, 0.10287078, 0.08963691, 0.00742406, 99.97400665, 113.07157135, 30.21999931, 0.00000000
1, 0.1050, 13, -0.10992141, -1.09557950, 0.12550910, 62.02484512, 9.28253937, -189.62663269, -26.27886581, 7.74627304, -67.81642914, 97.42815399, -0.74892098, -115.53375244, -0.35607049, 0.39712864, -0.63790637, -0.55549824, 0.09246182, 0.10374743, 0.00035904, 99.97400665, 113.07157135, 30.21999931, 0.00000000
1, 0.1100, 14, -0.08777697, -1.11889184, 0.14125441, 62.54451752, 7.91752911, -187.70286560, -25.08038521, 7.68781042, -67.78719330, 97.73773193, 0.17719421, -115.37208557, -0.35063976, 0.40349177, -0.63601351, -0.55653661, 0.08648348, 0.12759203, -0.01001065, 99.97400665, 113.07157135, 30.21999931, 0.00000000
1, 0.1150, 15, -0.06270496, -1.13603508, 0.15213104, 62.49928284, 6.48344994, -184.54670715, -25.08038521, 7.68781042, -67.78719330, 98.04965973, 1.08776140, -115.21463776, -0.34522101, 0.40970236, -0.63415045, -0.55751204, 0.07733405, 0.14556730, -0.01548487, 99.97400665, 113.07157135, 30.21999931, 0.00000000
1, 0.1200, 16, -0.04907492, -1.14982748, 0.14549537, 60.88941956, 2.26437044, -180.56072998, -25.08038521, 7.68781042, -67.78719330, 98.35527802, 1.97968411, -115.07594299, -0.33979377, 0.41564107, -0.63234031, -0.55850559, 0.07938410, 0.16048285, -0.00357684, 99.97400665, 113.07157135, 30.21999931, 0.00000000
1, 0.1250, 17, -0.05027897, -1.16024733, 0.13375123, 60.58208847, -0.95583349, -177.09330750, -24.08652496, 8.91552162, -67.26103210, 98.66123962, 2.85706472, -114.95086670, -0.33433819, 0.42137867, -0.63058877, -0.55947816, 0.09598025, 0.17228669, 0.01333361, 99.97400665, 113.07157135, 30.21999931, 0.00000000
1, 0.1300, 18, -0.05329062, -1.16141665, 0.13549964, 60.30916595, -4.07212687, -173.58877563, -24.08652496, 8.91552162, -67.26103210, 98.96703339, 3.71879458, -114.83912659, -0.32886562, 0.42691228, -0.62889957, -0.56042725, 0.11407214, 0.17506295, 0.01672377, 99.97400665, 113.07157135, 30.21999931, 0.00000000
1, 0.1650, 19, -0.08397491, -1.09034264, 0.16082077, 50.02193832, -17.90456581, -146.44685364, -20.78339577, 10.05553913, -66.06255341, 100.91355133, 9.28491879, -114.38249207, -0.29137594, 0.45977354, -0.61808711, -0.56716561, 0.24176486, 0.12032691, 0.02305184, 99.97400665, 113.07157135, 30.21999931, 0.00000000
1, 0.1700, 20, -0.10811751, -1.07975841, 0.13784419, 48.08248138, -17.98999214, -140.64057922, -20.78339577, 10.05553913, -66.06255341, 101.15872955, 9.98845291, -114.33675385, -0.28646874, 0.46369135, -0.61667436, -0.56801307, 0.27826366, 0.11260554, 0.04979362, 99.97400665, 113.07157135, 30.21999931, 0.00000000
1, 0.1750, 21, -0.12953548, -1.07727361, 0.12648299, 47.37189484, -17.02568245, -136.05177307, -19.81876564, 10.40631390, -66.15024567, 101.40275574, 10.67287064, -114.28739166, -0.28167307, 0.46750554, -0.61528897, -0.56878680, 0.31153333, 0.11303052, 0.06479143, 99.97400665, 113.07157135, 30.21999931, 0.00000000
1, 0.1800, 22, -0.15700759, -1.06801653, 0.12378033, 47.17194748, -13.92349434, -130.36694336, -19.81876564, 10.40631390, -66.15024567, 101.64888000, 11.32613945, -114.22518158, -0.27709493, 0.47122425, -0.61395282, -0.56941026, 0.35032094, 0.10673494, 0.07113443, 99.97400665, 113.07157135, 30.21999931, 0.00000000
1, 0.1850, 23, -0.16504785, -1.04482496, 0.13125192, 46.89342880, -10.41652489, -125.61785889, -19.43876076, 9.67553329, -65.39023590, 101.89750671, 11.95233250, -114.14732361, -0.27272436, 0.47488314, -0.61264318, -0.56989098, 0.36917043, 0.08654536, 0.06738794, 99.97400665, 113.07157135, 30.21999931, 0.00000000
1, 0.1900, 24, -0.16529912, -1.02517557, 0.13291752, 46.82086182, -6.15604019, -120.25755310, -19.43876076, 9.67553329, -65.39023590, 102.15060425, 12.54755878, -114.05083466, -0.26859319, 0.47848868, -0.61137205, -0.57020217, 0.37971207, 0.06994251, 0.06950134, 99.97400665, 113.07157135, 30.21999931, 0.00000000
1, 0.1950, 25, -0.16694537, -1.00838470, 0.13896559, 47.01909637, -0.58780152, -114.13343811, -19.43876076, 9.67553329, -65.39023590, 102.41110992, 13.10654736, -113.93010712, -0.26475036, 0.48205787, -0.61014986, -0.57030225, 0.39102265, 0.05620243, 0.06731911, 99.97400665, 113.07157135, 30.21999931, 0.00000000
1, 0.2000, 26, -0.15547617, -0.99218905, 0.14277177, 46.52918243, 6.17521286, -107.23597717, -18.29874229, 10.26015759, -64.89330292, 102.67708588, 13.62401199, -113.78019714, -0.26126191, 0.48559341, -0.60896581, -0.57017714, 0.38851741, 0.04303204, 0.06750257, 99.97400665, 113.07157135, 30.21999931, 0.00000000
1, 0.2050, 27, -0.12555943, -0.97469962, 0.14642124, 45.82381058, 13.36215115, -99.20400238, -18.29874229, 10.26015759, -64.89330292, 102.94805145, 14.09369087, -113.60048676, -0.25817239, 0.48907512, -0.60783762, -0.56981218, 0.36676481, 0.02849434, 0.06797706, 99.97400665, 113.07157135, 30.21999931, 0.00000000
1, 0.2100, 28, -0.06578407, -0.95427346, 0.15227802, 44.51786041, 20.48054123, -89.97424316, -18.29874229, 11.75094986, -64.80561066, 103.22077942, 14.50957203, -113.39302063, -0.25552323, 0.49246490, -0.60678071, -0.56921297, 0.31424582, 0.01088872, 0.06638226, 99.97400665, 113.07157135, 30.21999931, 0.00000000
1, 0.2150, 29, 0.02489165, -0.93566942, 0.16152011, 42.80129623, 26.61692238, -79.15026855, -18.29874229, 11.75094986, -64.80561066, 103.49158478, 14.86475277, -113.16515350, -0.25333723, 0.49569309, -0.60583466, -0.56839520, 0.22981089, -0.00508970, 0.06148444, 99.97400665, 113.07157135, 30.21999931, 0.00000000
1, 0.2250, 30, 0.21593867, -0.94952011, 0.20635772, 37.96593094, 30.40617561, -48.43288803, -17.65565681, 12.80327415, -64.74714661, 103.99881744, 15.34893799, -112.72088623, -0.25039464, 0.50106895, -0.60462099, -0.56627387, 0.04755420, 0.01306383, 0.02496703, 99.97400665, 113.07157135, 30.21999931, 0.00000000
1, 0.2300, 31, 0.25067276, -0.96079659, 0.21027212, 34.58453751, 28.10231590, -33.37231827, -17.65565681, 12.80327415, -64.74714661, 104.22009277, 15.47721958, -112.53744507, -0.24955156, 0.50302130, -0.60443288, -0.56511474, 0.01526302, 0.02592852, 0.02471281, 99.97400665, 113.07157135, 30.21999931, 0.00000000
1, 0.2350, 32, 0.27452049, -0.97837293, 0.21847138, 29.11777496, 22.65600777, -14.36415577, -17.94796753, 12.86173630, -64.63022614, 104.40088654, 15.51938057, -112.40510559, -0.24915275, 0.50427699, -0.60458499, -0.56400776, -0.00760889, 0.04453924, 0.01954711, 99.97400665, 113.07157135, 30.21999931, 0.00000000
1, 0.2400, 33, 0.25611147, -0.97871304, 0.21694595, 24.88676643, 17.00842476, 0.38216472, -17.94796753, 12.86173630, -64.63022614, 104.54806519, 15.49670410, -112.32003784, -0.24906079, 0.50495791, -0.60501850, -0.56297332, 0.01068765, 0.04550385, 0.02357174, 99.97400665, 113.07157135, 30.21999931, 0.00000000
1, 0.2450, 34, 0.21072704, -0.97334027, 0.20632842, 21.45090103, 10.03862000, 13.89507389, -17.94796753, 12.86173630, -64.63022614, 104.66413116, 15.41714287, -112.28762054, -0.24919230, 0.50507325, -0.60574108, -0.56203383, 0.05499262, 0.04037438, 0.03617045, 99.97400665, 113.07157135, 30.21999931, 0.00000000
1, 0.2500, 35, 0.15552726, -0.97634816, 0.19120358, 18.75210381, 3.59365249, 26.11418152, -17.59719276, 12.94942951, -64.89330292, 104.75395966, 15.28648949, -112.30371094, -0.24951252, 0.50467759, -0.60673678, -0.56117249, 0.10824091, 0.04328905, 0.05286057, 99.97400665, 113.07157135, 30.21999931, 0.00000000
1, 0.2550, 36, 0.11224419, -0.98453212, 0.17666592, 16.15297508, -2.47975659, 37.39446640, -17.59719276, 12.94942951, -64.89330292, 104.81906128, 15.10897255, -112.36522675, -0.25000507, 0.50380540, -0.60798258, -0.56038803, 0.14876202, 0.05106546, 0.06863089, 99.97400665, 113.07157135, 30.21999931, 0.00000000
1, 0.2600, 37, 0.06567295, -1.01727819, 0.17817564, 13.59840107, -9.50581074, 47.74011230, -17.94796753, 12.45249939, -65.12715149, 104.85907745, 14.89038944, -112.47567749, -0.25061959, 0.50245732, -0.60946858, -0.55970943, 0.19181569, 0.08309560, 0.06794815, 99.97400665, 113.07157135, 30.21999931, 0.00000000
1, 0.2650, 38, 0.05856983, -1.07171905, 0.20135874, 12.20513725, -15.82584953, 56.65067673, -17.94796753, 12.45249939, -65.12715149, 104.88161469, 14.63685322, -112.62947845, -0.25131297, 0.50070006, -0.61118186, -0.55910474, 0.19471519, 0.13655120, 0.04536627, 99.97400665, 113.07157135, 30.21999931, 0.00000000
1, 0.2700, 39, 0.12636065, -1.09130275, 0.23093824, 11.59275532, -22.72522163, 62.38278198, -17.94796753, 12.45249939, -65.12715149, 104.88979340, 14.36058998, -112.82554626, -0.25200230, 0.49859047, -0.61308497, -0.55859590, 0.12228119, 0.15499100, 0.01642451, 99.97400665, 113.07157135, 30.21999931, 0.00000000
1, 0.2850, 40, 0.18048991, -1.04000521, 0.05281729, -6.21253729, -62.57364273, 86.65184021, -18.79567337, 12.59865570, -65.21485138, 104.64434052, 13.42196083, -113.81790924, -0.25393352, 0.48899627, -0.61954731, -0.55907208, 0.05302715, 0.09933824, 0.19233111, 99.97400665, 113.07157135, 30.21999931, 0.00000000
1, 0.2900, 41, 0.08827225, -1.00331545, 0.05099287, -0.33797851, -81.11414337, 97.94773102, -18.79567337, 12.59865570, -65.21485138, 104.52268982, 13.04925442, -114.34716797, -0.25413600, 0.48436153, -0.62252516, -0.55970651, 0.13897939, 0.06066364, 0.19224958, 99.97400665, 113.07157135, 30.21999931, 0.00000000
1, 0.2950, 42, 0.06019541, -1.02114940, 0.08171285, 2.41130829, -79.28833008, 96.86962891, -18.79567337, 12.59865570, -65.21485138, 104.42078400, 12.67854977, -114.86442566, -0.25429550, 0.47981670, -0.62550783, -0.56022286, 0.16064192, 0.07658394, 0.16004980, 99.97400665, 113.07157135, 30.21999931, 0.00000000
1, 0.3000, 43, 0.16098857, -1.07077026, 0.10870559, 1.63955593, -72.86444855, 90.12728882, -19.35106659, 12.71557999, -64.60099030, 104.32714844, 12.33172417, -115.33992767, -0.25447446, 0.47559077, -0.62824154, -0.56068593, 0.05374900, 0.12445338, 0.13199773, 99.97400665, 113.07157135, 30.21999931, 0.00000000
1, 0.3050, 44, 0.34732419, -1.13872278, 0.11737607, -3.40049672, -67.16512299, 80.09206390, -19.35106659, 12.71557999, -64.60099030, 104.21970367, 12.02570248, -115.77338409, -0.25466281, 0.47171164, -0.63056552, -0.56126833, -0.13801076, 0.19082184, 0.12227409, 99.97400665, 113.07157135, 30.21999931, 0.00000000
1, 0.3100, 45, 0.52311283, -1.16676855, 0.07347573, -9.25029278, -64.93782043, 70.75551605, -19.05875397, 12.56942368, -65.06869507, 104.08989716, 11.76131725, -116.18314362, -0.25479960, 0.46806890, -0.63251698, -0.56205964, -0.31837380, 0.21745458, 0.16474104, 99.97400665, 113.07157135, 30.21999931, 0.00000000
1, 0.3150, 46, 0.59907734, -1.16291666, 0.04620870, -9.29470921, -65.56047058, 64.71227264, -19.05875397, 12.56942368, -65.06869507, 103.96261597, 11.52607536, -116.58754730, -0.25476789, 0.46456873, -0.63433993, -0.56292289, -0.39839828, 0.21227893, 0.19025937, 99.97400665, 113.07157135, 30.21999931, 0.00000000
1, 0.3200, 47, 0.57631725, -1.18284106, 0.07772020, -5.80602455, -66.43901062, 61.91285324, -19.05875397, 12.56942368, -65.06869507, 103.85140991, 11.30927086, -116.99263000, -0.25454918, 0.46116549, -0.63616371, -0.56376147, -0.37951055, 0.23093247, 0.15694264, 99.97400665, 113.07157135, 30.21999931, 0.00000000
1, 0.3250, 48, 0.50837123, -1.24993241, 0.10704950, -4.83924341, -67.17541504, 61.00668716, -19.20491028, 11.57556248, -65.06869507, 103.74906158, 11.09245300, -117.39895630, -0.25428325, 0.45776314, -0.63801843, -0.56455773, -0.31532028, 0.29684013, 0.12578659, 99.97400665, 113.07157135, 30.21999931, 0.00000000
1, 0.3300, 49, 0.43116358, -1.31474769, 0.04041471, -10.63001060, -67.71519470, 61.10259247, -19.20491028, 11.57556248, -65.06869507, 103.61885071, 10.87494278, -117.80737305, -0.25411654, 0.45427281, -0.63972855, -0.56551611, -0.24166825, 0.36056805, 0.19028071, 99.97400665, 113.07157135, 30.21999931, 0.00000000
1, 0.3500, 50, -0.13936436, -1.14016509, -0.41397393, -11.29694843, -68.19939423, 75.33071899, -18.82490540, 10.75708866, -65.56562042, 102.92032623, 9.86004925, -119.54299927, -0.25443950, 0.43859351, -0.64636064, -0.57018799, 0.31291175, 0.18088830, 0.63248909, 99.97400665, 113.07157135, 30.21999931, 0.00000000
1, 0.3550, 51, -0.21231142, -1.15697920, -0.31353140, -6.33391857, -57.39027786, 78.11904144, -18.82490540, 10.75708866, -65.56562042, 102.82698059, 9.54252911, -119.91455841, -0.25488612, 0.43489045, -0.64833468, -0.57058346, 0.38025439, 0.19625109, 0.53035313, 99.97400665, 113.07157135, 30.21999931, 0.00000000
1, 0.3600, 52, -0.22289227, -1.14371574, -0.18840043, -3.21438265, -50.35791779, 79.40367889, -19.29260445, 11.34171295, -66.03332520, 102.75691223, 9.21052074, -120.25196838, -0.25549960, 0.43135399, -0.65032113, -0.57073307, 0.38485515, 0.18157338, 0.40415967, 99.97400665, 113.07157135, 30.21999931, 0.00000000
1, 0.3650, 53, -0.21298647, -1.14008331, -0.08284505, -1.25406122, -47.76266479, 79.37047577, -19.29260445, 11.34171295, -66.03332520, 102.70072174, 8.87550259, -120.57582855, -0.25614434, 0.42789799, -0.65231586, -0.57076913, 0.36892039, 0.17664087, 0.29785103, 99.97400665, 113.07157135, 30.21999931, 0.00000000
1, 0.3700, 54, -0.21092378, -1.15329826, -0.00724155, -1.87757838, -46.26376724, 79.09867096, -19.29260445, 11.34171295, -66.03332520, 102.63916016, 8.53163910, -120.89215088, -0.25689879, 0.42441988, -0.65426445, -0.57079679, 0.36081052, 0.18862820, 0.22145373, 99.97400665, 113.07157135, 30.21999931, 0.00000000
1, 0.3750, 55, -0.21456979, -1.14898181, 0.01326667, -4.37067223, -43.17177963, 78.53810883, -19.26337242, 9.47091484, -66.55948639, 102.57478333, 8.19499397, -121.19116211, -0.25770342, 0.42105341, -0.65609384, -0.57082742, 0.35853064, 0.18318124, 0.20003919, 99.97400665, 113.07157135, 30.21999931, 0.00000000
1, 0.3800, 56, -0.21269655, -1.12746620, 0.01903222, -5.91604996, -35.97433472, 78.51902771, -19.26337242, 9.47091484, -66.55948639, 102.50949097, 7.85033464, -121.45401764, -0.25873807, 0.41784340, -0.65779352, -0.57076204, 0.35073304, 0.16058725, 0.19338670, 99.97400665, 113.07157135, 30.21999931, 0.00000000
1, 0.3850, 57, -0.18063578, -1.08905649, 0.07472315, -5.65036154, -25.37167168, 79.50445557, -19.76030350, 10.52323914, -66.53025055, 102.45401001, 7.48921776, -121.66508484, -0.26009279, 0.41486695, -0.65938860, -0.57047689, 0.31236666, 0.12104699, 0.13703269, 99.97400665, 113.07157135, 30.21999931, 0.00000000
1, 0.4150, 58, 0.04400704, -0.90806568, 0.56487244, 5.82738018, -36.18231201, 92.94628906, -20.69570351, 10.55247021, -66.82256317, 102.36630249, 5.09203434, -122.95617676, -0.26860362, 0.39614031, -0.67061937, -0.56674033, 0.04516251, -0.06565640, -0.35303003, 99.97400665, 113.07157135, 30.21999931, 0.00000000
1, 0.4200, 59, -0.02825164, -0.93641114, 0.65263134, 9.01050091, -36.98997879, 95.83090210, -21.42648315, 9.47091484, -66.38409424, 102.39788818, 4.66050196, -123.23909760, -0.26972222, 0.39254212, -0.67298234, -0.56591123, 0.10977781, -0.03799285, -0.44044650, 99.97400665, 113.07157135, 30.21999931, 0.00000000
1, 0.4250, 60, -0.11874263, -0.89442635, 0.64635009, 8.15288353, -42.12701416, 97.68229675, -21.42648315, 9.47091484, -66.38409424, 102.41580200, 4.22833776, -123.54996490, -0.27075633, 0.38873065, -0.67535025, -0.56522703, 0.19273886, -0.08046931, -0.43380594, 99.97400665, 113.07157135, 30.21999931, 0.00000000
1, 0.4300, 61, -0.27945521, -0.91469526, 0.53677106, 9.32612801, -42.36583710, 96.43484497, -21.42648315, 9.47091484, -66.38409424, 102.44186401, 3.80265832, -123.86064911, -0.27172697, 0.38495547, -0.67771405, -0.56451535, 0.34628373, -0.06045159, -0.32412302, 99.97400665, 113.07157135, 30.21999931, 0.00000000
1, 0.4350, 62, -0.41366023, -0.94538379, 0.35363835, 4.78113985, -29.02190971, 93.20037842, -21.66033363, 10.61093235, -66.44255829, 102.45172882, 3.37855482, -124.10256195, -0.27308318, 0.38154310, -0.67973942, -0.56374174, 0.47355765, -0.02987207, -0.14101425, 99.97400665, 113.07157135, 30.21999931, 0.00000000
1, 0.4400, 63, -0.44121513, -0.90816557, 0.19853081, 0.72569591, -9.24890232, 89.30673218, -21.66033363, 10.61093235, -66.44255829, 102.44863892, 2.95227814, -124.24350739, -0.27499250, 0.37867832, -0.68135279, -0.56279689, 0.49408093, -0.06725387, 0.01415842, 99.97400665, 113.07157135, 30.21999931, 0.00000000
1, 0.4450, 64, -0.38562489, -0.84979141, 0.15509799, -1.05944884, 8.29210281, 86.34748840, -22.42034531, 7.83396673, -65.82870483, 102.44190216, 2.52164626, -124.29541779, -0.27737546, 0.37630570, -0.68265235, -0.56164289, 0.43111312, -0.12594230, 0.05780403, 99.97400665, 113.07157135, 30.21999931, 0.00000000
1, 0.4500, 65, -0.26717138, -0.78324878, 0.22612621, -1.05263722, 16.29596901, 85.20619965, -22.42034531, 7.83396673, -65.82870483, 102.43722534, 2.08804154, -124.30693054, -0.27996430, 0.37415835, -0.68382651, -0.56036317, 0.30493098, -0.19293198, -0.01284259, 99.97400665, 113.07157135, 30.21999931, 0.00000000
1, 0.4550, 66, -0.16710038, -0.81417871, 0.36210561, 3.41916275, 17.00641441, 84.78063965, -22.42034531, 7.83396673, -65.82870483, 102.45511627, 1.65580404, -124.31452942, -0.28248668, 0.37209073, -0.68508434, -0.55893576, 0.19697034, -0.16243583, -0.14836711, 99.97400665, 113.07157135, 30.21999931, 0.00000000
1, 0.4600, 67, -0.10946225, -0.86831152, 0.37360027, 3.90627933, 14.76714039, 83.91485596, -23.26804924, 9.99707699, -65.97486115, 102.47525024, 1.23020685, -124.33229828, -0.28490913, 0.36999500, -0.68635815, -0.55753309, 0.13184802, -0.10844262, -0.15941781, 99.97400665, 113.07157135, 30.21999931, 0.00000000
1, 0.5100, 68, -0.36309063, -0.99992549, 0.07156193, 2.42405295, -25.72227097, 78.13143921, -25.43115997, 9.70476437, -65.85793304, 102.61210632, -2.56818008, -125.81488800, -0.30021656, 0.34289944, -0.70105976, -0.54845721, 0.31964618, 0.02482881, 0.14394191, 99.97400665, 113.07157135, 30.21999931, 0.00000000
1, 0.5150, 69, -0.33980340, -0.98478925, 0.11096617, 3.65077925, -18.64330482, 76.77730560, -25.43115997, 9.70476437, -65.85793304, 102.63967133, -2.92265272, -125.98937225, -0.30142871, 0.34015533, -0.70253915, -0.54760742, 0.29007852, 0.01000735, 0.10500229, 99.97400665, 113.07157135, 30.21999931, 0.00000000
1, 0.5200, 70, -0.27780166, -0.98031223, 0.15069987, 4.53582954, -15.64462376, 75.50553131, -26.01578522, 9.64630222, -65.88716888, 102.66964722, -3.28217030, -126.14790344, -0.30274144, 0.33748475, -0.70398057, -0.54668373, 0.22176564, 0.00589908, 0.06586994, 99.97400665, 113.07157135, 30.21999931, 0.00000000
1, 0.5250, 71, -0.22333349, -0.97316337, 0.17502105, 4.66948080, -15.29171181, 73.89984131, -26.01578522, 9.64630222, -65.88716888, 102.70327759, -3.62605643, -126.30332947, -0.30396548, 0.33491480, -0.70538127, -0.54577869, 0.16113660, -0.00081528, 0.04217096, 99.97400665, 113.07157135, 30.21999931, 0.00000000
1, 0.5300, 72, -0.19757412, -0.95386100, 0.16748209, 4.68003559, -16.57190895, 72.08153534, -26.01578522, 9.64630222, -65.88716888, 102.73816681, -3.95957637, -126.46331787, -0.30510330, 0.33236665, -0.70676517, -0.54491049, 0.12954092, -0.01960453, 0.05030125, 99.97400665, 113.07157135, 30.21999931, 0.00000000
1, 0.5350, 73, -0.20892708, -0.93361378, 0.16233183, 6.01835060, -18.75376129, 70.57536316, -26.42502213, 7.30780458, -65.91639709, 102.78131104, -4.28323507, -126.63258362, -0.30611557, 0.32982743, -0.70818067, -0.54404718, 0.13523078, -0.03929566, 0.05605994, 99.97400665, 113.07157135, 30.21999931, 0.00000000
1, 0.5400, 74, -0.25780579, -0.92582893, 0.17309551, 7.78781652, -21.25009346, 69.26651001, -26.42502213, 7.30780458, -65.91639709, 102.83506775, -4.59759617, -126.81297302, -0.30699104, 0.32728952, -0.70964545, -0.54317731, 0.17857051, -0.04649112, 0.04596252, 99.97400665, 113.07157135, 30.21999931, 0.00000000
1, 0.5450, 75, -0.33361751, -0.91944158, 0.18701838, 9.65329266, -22.90505981, 67.76616669, -26.98041534, 9.55860806, -65.85793304, 102.89970398, -4.90261078, -127.00019836, -0.30774984, 0.32478049, -0.71114802, -0.54228795, 0.24900299, -0.05223566, 0.03281543, 99.97400665, 113.07157135, 30.21999931, 0.00000000
1, 0.5500, 76, -0.41226259, -0.91979933, 0.19966286, 10.98937416, -22.07885933, 65.73582458, -26.98041534, 9.55860806, -65.85793304, 102.97142792, -5.19839859, -127.18155670, -0.30846423, 0.32236883, -0.71263528, -0.54136789, 0.32243228, -0.05118607, 0.02106252, 99.97400665, 113.07157135, 30.21999931, 0.00000000
1, 0.5550, 77, -0.47576463, -0.91839373, 0.20895126, 11.28667068, -17.80293465, 63.27515411, -26.98041534, 9.55860806, -65.85793304, 103.04336548, -5.48674107, -127.33967590, -0.30924633, 0.32013589, -0.71403074, -0.54040706, 0.38086855, -0.05187027, 0.01274275, 99.97400665, 113.07157135, 30.21999931, 0.00000000
1, 0.5800, 78, -0.40707204, -0.96389186, 0.26188788, 9.58854294, 7.60687828, 48.79492950, -27.27272606, 10.20169544, -66.03332520, 103.33782196, -6.81576920, -127.63924408, -0.31499606, 0.31239682, -0.71898454, -0.53502047, 0.28879499, -0.00286180, -0.03560310, 99.97400665, 113.07157135, 30.21999931, 0.00000000
1, 0.5850, 79, -0.39463976, -0.96374297, 0.25875178, 10.33216763, 10.28289318, 46.39559937, -28.00350761, 9.17860222, -65.36100769, 103.39042664, -7.05322504, -127.64245605, -0.31626004, 0.31132737, -0.71971625, -0.53391337, 0.27221870, -0.00230996, -0.03167261, 99.97400665, 113.07157135, 30.21999931, 0.00000000
1, 0.5900, 80, -0.39010510, -0.97070205, 0.28156105, 10.71461773, 13.40908909, 43.97653961, -28.00350761, 9.17860222, -65.36100769, 103.44271851, -7.28250837, -127.62773132, -0.31755903, 0.31041068, -0.72037756, -0.53278297, 0.26362139, 0.00530874, -0.05371267, 99.97400665, 113.07157135, 30.21999931, 0.00000000
1, 0.5950, 81, -0.39044702, -0.97629762, 0.29384363, 10.28226280, 16.28267288, 41.63193893, -27.94504547, 10.14323330, -66.06255341, 103.49061584, -7.50374317, -127.59638214, -0.31889835, 0.30962709, -0.72095418, -0.53165776, 0.26007050, 0.01156635, -0.06529085, 99.97400665, 113.07157135, 30.21999931, 0.00000000
1, 0.6000, 82, -0.39544094, -0.97493196, 0.27335489, 9.78978062, 18.34417534, 39.72441864, -27.94504547, 10.14323330, -66.06255341, 103.53428650, -7.71810007, -127.55284119, -0.32026350, 0.30894327, -0.72146195, -0.53054506, 0.26137701, 0.01089580, -0.04418146, 99.97400665, 113.07157135, 30.21999931, 0.00000000
1, 0.6050, 83, -0.40384457, -0.97910333, 0.24918379, 10.21900272, 20.75199318, 38.23405457, -27.94504547, 10.14323330, -66.06255341, 103.57810974, -7.92806387, -127.49588013, -0.32166284, 0.30836689, -0.72192317, -0.52940524, 0.26619312, 0.01576810, -0.01941804, 99.97400665, 113.07157135, 30.21999931, 0.00000000
1, 0.6100, 84, -0.40859538, -0.97693110, 0.23059340, 10.55678463, 24.67430496, 36.00979614, -28.32505035, 9.50014591, -65.62408447, 103.62034607, -8.13181305, -127.41716766, -0.32312831, 0.30795482, -0.72230411, -0.52823162, 0.26743680, 0.01428363, -0.00023668, 99.97400665, 113.07157135, 30.21999931, 0.00000000
1, 0.6150, 85, -0.39221701, -0.96232462, 0.20738061, 10.64436150, 28.50999069, 32.94541168, -28.32505035, 9.50014591, -65.62408447, 103.65950012, -8.32522297, -127.31607819, -0.32464156, 0.30772781, -0.72258890, -0.52704531, 0.24772769, 0.00035137, 0.02359734, 99.97400665, 113.07157135, 30.21999931, 0.00000000
1, 0.6200, 86, -0.37502837, -0.95220268, 0.19871616, 10.92513657, 30.96575356, 29.38999748, -28.61736298, 10.28938866, -65.79947662, 103.69572449, -8.51637745, -127.19853210, -0.32622269, 0.30760834, -0.72281003, -0.52583426, 0.22731456, -0.00914055, 0.03283240, 99.97400665, 113.07157135, 30.21999931, 0.00000000
1, 0.6250, 87, -0.34976074, -0.94646561, 0.20123705, 12.08156872, 37.84857941, 27.47125244, -28.61736298, 10.28938866, -65.79947662, 103.73352051, -8.69428635, -127.04521179, -0.32788214, 0.30778649, -0.72291529, -0.52455163, 0.19886070, -0.01426706, 0.03088448, 99.97400665, 113.07157135, 30.21999931, 0.00000000
1, 0.6500, 88, -0.24609697, -0.97391236, 0.17587098, 11.35732269, 35.11249924, 23.62961960, -29.34814262, 10.72785759, -65.53639221, 103.92354584, -9.52725124, -126.27081299, -0.33583081, 0.30902538, -0.72329599, -0.51823169, 0.08081153, 0.01624794, 0.05911274, 99.97400665, 113.07157135, 30.21999931, 0.00000000
1, 0.6550, 89, -0.22612640, -0.97340930, 0.19604357, 12.00456905, 34.49497604, 23.46645164, -29.34814262, 10.72785759, -65.53639221, 103.96027374, -9.68231583, -126.12941742, -0.33728603, 0.30924454, -0.72337669, -0.51704168, 0.05811357, 0.01629878, 0.03948321, 99.97400665, 113.07157135, 30.21999931, 0.00000000
1, 0.6600, 90, -0.20038016, -0.97608721, 0.20969503, 11.57093716, 32.12218094, 23.48551941, -30.10815430, 10.58170128, -65.09792328, 103.99643707, -9.83471394, -125.99976349, -0.33867174, 0.30940205, -0.72348034, -0.51589549, 0.02969873, 0.01954423, 0.02639310, 99.97400665, 113.07157135, 30.21999931, 0.00000000
1, 0.6650, 91, -0.17294386, -0.97404671, 0.20041156, 10.33642101, 28.31578827, 23.44556236, -30.10815430, 10.58170128, -65.09792328, 104.02933502, -9.98242760, -125.88885498, -0.33995208, 0.30945566, -0.72360986, -0.51483834, -0.00027425, 0.01809156, 0.03620325, 99.97400665, 113.07157135, 30.21999931, 0.00000000
1, 0.6700, 92, -0.15253435, -0.97387969, 0.19014220, 9.93060493, 26.60301781, 23.55011177, -30.37123680, 10.66939449, -65.12715149, 104.05819702, -10.12663364, -125.78596497, -0.34118488, 0.30946481, -0.72373539, -0.51384008, -0.02315723, 0.01849664, 0.04692428, 99.97400665, 113.07157135, 30.21999931, 0.00000000
1, 0.6750, 93, -0.14167073, -0.97498000, 0.20733650, 10.18393612, 26.16106033, 23.18583107, -30.37123680, 10.66939449, -65.12715149, 104.09160614, -10.27061558, -125.68542480, -0.34239185, 0.30947426, -0.72388625, -0.51281804, -0.03652825, 0.02012912, 0.03017357, 99.97400665, 113.07157135, 30.21999931, 0.00000000
1, 0.6800, 94, -0.12637725, -0.96841288, 0.23098564, 9.16656494, 22.01181221, 22.99472618, -30.37123680, 10.66939449, -65.12715149, 104.12332153, -10.40870190, -125.60514832, -0.34347656, 0.30938068, -0.72407210, -0.51188576, -0.05427815, 0.01408047, 0.00700267, 99.97400665, 113.07157135, 30.21999931, 0.00000000
1, 0.6850, 95, -0.13382810, -0.95993221, 0.24369185, 9.04399967, 20.46895027, 23.38013649, -30.95586014, 10.17246437, -64.68869019, 104.15570068, -10.54683685, -125.53300476, -0.34452218, 0.30923790, -0.72428215, -0.51097131, -0.04922709, 0.00613593, -0.00528362, 99.97400665, 113.07157135, 30.21999931, 0.00000000
1, 0.6900, 96, -0.14621438, -0.95854640, 0.25852144, 9.02613544, 19.19465828, 24.22629738, -30.95586014, 10.17246437, -64.68869019, 104.18920135, -10.68756580, -125.46825409, -0.34554604, 0.30903912, -0.72452110, -0.51006079, -0.03927937, 0.00530230, -0.01969162, 99.97400665, 113.07157135, 30.21999931, 0.00000000
1, 0.6950, 97, -0.15944268, -0.95474958, 0.25906548, 8.47001457, 18.30018997, 25.01825523, -31.18971062, 10.81555080, -65.39023590, 104.22078705, -10.83108234, -125.40894318, -0.34656611, 0.30878639, -0.72477043, -0.50916684, -0.02850218, 0.00208923, -0.01984278, 99.97400665, 113.07157135, 30.21999931, 0.00000000
1, 0.7150, 98, -0.11959455, -0.93368602, 0.28711221, 7.07981110, 21.93368530, 26.98032379, -31.89126015, 10.87401295, -65.50716400, 104.32308960, -11.44178391, -125.13391876, -0.35108152, 0.30775926, -0.72561735, -0.50547558, -0.07882003, -0.01660034, -0.04651750, 99.97400665, 113.07157135, 30.21999931, 0.00000000
1, 0.7200, 99, -0.10628684, -0.93299925, 0.28963327, 6.94217110, 21.67541313, 27.53675461, -32.32972717, 11.16632557, -65.03945923, 104.34751129, -11.59451580, -125.06206512, -0.35222426, 0.30751878, -0.72581333, -0.50454479, -0.09479538, -0.01667265, -0.04876658, 99.97400665, 113.07157135, 30.21999931, 0.00000000
1, 0.7250, 100, -0.09012275, -0.93951309, 0.29698351, 7.12020540, 21.89563560, 28.59130287, -32.32972717, 11.16632557, -65.03945923, 104.36881256, -11.75995064, -124.98966217, -0.35345048, 0.30720818, -0.72601634, -0.50358343, -0.11371790, -0.00952595, -0.05584401, 99.97400665, 113.07157135, 30.21999931, 0.00000000
1, 0.7300, 101, -0.06927099, -0.95121503, 0.30476224, 7.26288462, 22.08240128, 29.57539749, -32.32972717, 11.16632557, -65.03945923, 104.39068604, -11.93041039, -124.91760254, -0.35470140, 0.30687198, -0.72623092, -0.50259846, -0.13748626, 0.00284184, -0.06338090, 99.97400665, 113.07157135, 30.21999931, 0.00000000
1, 0.7350, 102, -0.06953643, -0.95863557, 0.30485916, 6.72258329, 20.14928055, 31.56922913, -31.56971550, 11.22478771, -64.77638245, 104.41219330, -12.10817719, -124.85765076, -0.35594121, 0.30642101, -0.72648835, -0.50162405, -0.14022118, 0.01097057, -0.06329063, 99.97400665, 113.07157135, 30.21999931, 0.00000000
1, 0.7400, 103, -0.07235612, -0.95886624, 0.31051329, 6.41278648, 19.52965927, 32.60997009, -31.56971550, 11.22478771, -64.77638245, 104.43293762, -12.29024601, -124.80211639, -0.35718733, 0.30591786, -0.72676080, -0.50064993, -0.14050001, 0.01192397, -0.06877229, 99.97400665, 113.07157135, 30.21999931, 0.00000000
1, 0.7450, 104, -0.08526895, -0.97115278, 0.33971372, 6.20224571, 19.50523758, 33.55847549, -32.68050385, 11.25401878, -64.54253387, 104.45273590, -12.47689724, -124.74794006, -0.35845527, 0.30537999, -0.72703940, -0.49966660, -0.13082710, 0.02491977, -0.09786283, 99.97400665, 113.07157135, 30.21999931, 0.00000000
1, 0.7500, 105, -0.10451066, -0.97469711, 0.34450594, 5.14740896, 18.67594910, 34.35833359, -32.68050385, 11.25401878, -64.54253387, 104.46823120, -12.66641808, -124.69891357, -0.35972729, 0.30478120, -0.72731668, -0.49871352, -0.11481531, 0.02921891, -0.10261369, 99.97400665, 113.07157135, 30.21999931, 0.00000000
1, 0.7550, 106, -0.11540587, -0.96760285, 0.30367866, 4.45469189, 17.35750198, 35.35224152, -32.68050385, 11.25401878, -64.54253387, 104.48183441, -12.85914230, -124.65771484, -0.36098751, 0.30411038, -0.72761065, -0.49778277, -0.10708268, 0.02296300, -0.06176040, 99.97400665, 113.07157135, 30.21999931, 0.00000000
1, 0.7600, 107, -0.10611753, -0.96876943, 0.27865824, 4.66044044, 18.30151939, 36.73915863, -32.68050385, 10.99093819, -64.57176208, 104.49570465, -13.05976391, -124.61361694, -0.36230385, 0.30341849, -0.72791046, -0.49680942, -0.11968390, 0.02497876, -0.03668359, 99.97400665, 113.07157135, 30.21999931, 0.00000000
1, 0.7850, 108, -0.08115280, -0.97539604, 0.28451931, 2.58889651, 17.69330788, 43.97178268, -33.76205826, 10.40631390, -64.68869019, 104.53887177, -14.15869617, -124.38647461, -0.36951023, 0.29942396, -0.72941792, -0.49168801, -0.16315779, 0.03610478, -0.04286705, 99.97400665, 113.07157135, 30.21999931, 0.00000000
1, 0.7900, 109, -0.09295161, -0.97338486, 0.28660268, 2.34887004, 17.30546951, 45.54294586, -33.76205826, 10.40631390, -64.68869019, 104.54433441, -14.40077400, -124.35863495, -0.37100670, 0.29838747, -0.72978348, -0.49064761, -0.15542929, 0.03511047, -0.04514578, 99.97400665, 113.07157135, 30.21999931, 0.00000000
1, 0.7950, 110, -0.10880915, -0.97086465, 0.28111622, 2.10664845, 17.15545273, 47.36516571, -34.34668350, 11.28325081, -64.86407471, 104.54924011, -14.65148354, -124.33388519, -0.37253886, 0.29728454, -0.73016661, -0.48958510, -0.14376830, 0.03367203, -0.03988434, 99.97400665, 113.07157135, 30.21999931, 0.00000000
1, 0.8000, 111, -0.12958930, -0.95686781, 0.25922883, 1.82268262, 17.40053177, 48.67155075, -34.34668350, 11.28325081, -64.86407471, 104.55275726, -14.90883446, -124.30957794, -0.37410870, 0.29613921, -0.73055297, -0.48850453, -0.12724921, 0.02082383, -0.01825011, 99.97400665, 113.07157135, 30.21999931, 0.00000000
1, 0.8050, 112, -0.15032479, -0.94275022, 0.26686630, 2.49231315, 18.11584854, 49.59143066, -34.22975540, 11.54633141, -64.27944946, 104.55892181, -15.17152405, -124.28287506, -0.37571016, 0.29498938, -0.73095018, -0.48737577, -0.11094274, 0.00785885, -0.02612242, 99.97400665, 113.07157135, 30.21999931, 0.00000000
1, 0.8100, 113, -0.16071163, -0.93358314, 0.27759120, 3.02534485, 18.34424210, 50.43134308, -34.22975540, 11.54633141, -64.27944946, 104.56761169, -15.43856716, -124.25610352, -0.37732795, 0.29382482, -0.73136175, -0.48621058, -0.10505900, -0.00011063, -0.03703060, 99.97400665, 113.07157135, 30.21999931, 0.00000000
1, 0.8150, 114, -0.15710348, -0.93397176, 0.27028206, 2.90662694, 19.54074860, 51.33768082, -34.22975540, 11.54633141, -64.27944946, 104.57431030, -15.71149445, -124.22450256, -0.37900248, 0.29265329, -0.73175859, -0.48501611, -0.11321363, 0.00154686, -0.02991248, 99.97400665, 113.07157135, 30.21999931, 0.00000000
1, 0.8200, 115, -0.15489976, -0.92850018, 0.25398165, 3.07251835, 20.77043152, 52.41644287, -34.43437576, 11.22478771, -64.80561066, 104.58106232, -15.98469257, -124.18830109, -0.38069519, 0.29150873, -0.73214090, -0.48380125, -0.11999129, -0.00260947, -0.01382386, 99.97400665, 113.07157135, 30.21999931, 0.00000000
1, 0.8250, 116, -0.16081305, -0.93209183, 0.24184157, 3.60785198, 20.79163933, 53.18128204, -34.43437576, 11.22478771, -64.80561066, 104.58991241, -16.26810837, -124.15280151, -0.38243508, 0.29031312, -0.73254669, -0.48253196, -0.11873373, 0.00234332, -0.00190642, 99.97400665, 113.07157135, 30.21999931, 0.00000000
1, 0.8300, 117, -0.16550407, -0.94537878, 0.25113106, 3.61424470, 20.42603493, 53.90858459, -35.16515732, 12.04326248, -63.84098053, 104.59940338, -16.55459404, -124.12005615, -0.38417622, 0.28908497, -0.73296326, -0.48125190, -0.11885298, 0.01701333, -0.01142852, 99.97400665, 113.07157135, 30.21999931, 0.00000000
1, 0.9150, 118, -0.13526349, -1.08547854, 0.35000688, -0.05181448, 28.88584518, 64.46223450, -38.11750793, 12.30634308, -64.74714661, 104.47216797, -21.76657867, -123.36788940, -0.41666391, 0.26644406, -0.73827720, -0.45863450, -0.23502277, 0.18514839, -0.11979793, 99.97400665, 113.07157135, 30.21999931, 0.00000000
1, 0.9200, 119, -0.13061182, -1.14212537, 0.28806284, -1.15110707, 28.91395187, 65.80888367, -38.78982544, 11.92633724, -64.74714661, 104.44287872, -22.11105537, -123.30461121, -0.41887179, 0.26493925, -0.73847324, -0.45717704, -0.24515250, 0.24397397, -0.05892509, 99.97400665, 113.07157135, 30.21999931, 0.00000000
1, 0.9250, 120, -0.12198237, -1.20490742, 0.22768509, -2.26107335, 29.90836906, 67.52922058, -38.78982544, 11.92633724, -64.74714661, 104.40727234, -22.47524261, -123.23834991, -0.42120737, 0.26332393, -0.73865914, -0.45566171, -0.25939131, 0.30899507, 0.00025299, 99.97400665, 113.07157135, 30.21999931, 0.00000000
1, 0.9300, 121, -0.10369590, -1.23693860, 0.19619218, -4.65810156, 31.51209259, 69.52582550, -39.37445068, 11.45863724, -65.12715149, 104.35691071, -22.85106277, -123.16587830, -0.42365739, 0.26162922, -0.73878300, -0.45416331, -0.28360909, 0.34331194, 0.03039637, 99.97400665, 113.07157135, 30.21999931, 0.00000000
1, 0.9350, 122, -0.05464647, -1.22425199, 0.18844540, -7.05439043, 33.20440674, 72.19052887, -39.37445068, 11.45863724, -65.12715149, 104.29183960, -23.24182892, -123.08745575, -0.42623720, 0.25983500, -0.73885000, -0.45266801, -0.33885422, 0.33294159, 0.03666962, 99.97400665, 113.07157135, 30.21999931, 0.00000000
1, 0.9400, 123, -0.02381830, -1.22016680, 0.20361120, -7.76330853, 33.77770233, 75.64833069, -39.37445068, 11.45863724, -65.12715149, 104.22309113, -23.64999962, -123.00986481, -0.42890671, 0.25792441, -0.73892230, -0.45111865, -0.37619412, 0.33126885, 0.01983456, 99.97400665, 113.07157135, 30.21999931, 0.00000000
1, 0.9450, 124, -0.03164741, -1.24020112, 0.24351500, -8.40400696, 31.57327652, 78.75864410, -40.01753998, 12.21864891, -65.30254364, 104.15674591, -24.07047272, -122.94734192, -0.43156785, 0.25585476, -0.73904824, -0.44955015, -0.37513638, 0.35382223, -0.02187893, 99.97400665, 113.07157135, 30.21999931, 0.00000000
1, 0.9500, 125, -0.06228894, -1.26122618, 0.29647407, -9.88062954, 27.83633804, 81.56263733, -40.01753998, 12.21864891, -65.30254364, 104.09207916, -24.49997711, -122.90771484, -0.43417415, 0.25358987, -0.73923683, -0.44801116, -0.35143012, 0.37746942, -0.07669932, 99.97400665, 113.07157135, 30.21999931, 0.00000000
1, 0.9850, 126, -0.02825417, -1.34872651, 0.28794706, -15.45795059, 34.79040527, 101.98945618, -42.67757797, 13.62174797, -65.79947662, 103.51495361, -27.89992905, -122.68521118, -0.45424131, 0.23460174, -0.74042517, -0.43634552, -0.43830672, 0.48798266, -0.08304696, 99.97400665, 113.07157135, 30.21999931, 0.00000000
1, 0.9900, 127, 0.01448311, -1.38934922, 0.31694955, -16.46089363, 36.22388077, 105.78697205, -42.67757797, 13.62174797, -65.79947662, 103.40508270, -28.45660591, -122.62406921, -0.45759127, 0.23155376, -0.74046910, -0.43439472, -0.48960972, 0.53257042, -0.11467750, 99.97400665, 113.07157135, 30.21999931, 0.00000000
1, 0.9950, 128, 0.05276185, -1.42485988, 0.35360053, -17.17724037, 37.48585129, 109.57675934, -43.02835464, 13.62174797, -65.74101257, 103.28941345, -29.03308105, -122.55931854, -0.46104962, 0.22838742, -0.74049389, -0.43236715, -0.53674346, 0.57226419, -0.15410450, 99.97400665, 113.07157135, 30.21999931, 0.00000000
1, 1.0000, 129, 0.08612017, -1.46091533, 0.37822917, -18.62980652, 34.91104126, 113.31950378, -43.02835464, 13.62174797, -65.74101257, 103.17456818, -29.62473679, -122.51212311, -0.46449763, 0.22501636, -0.74056077, -0.43032488, -0.57912332, 0.61274618, -0.18157086, 99.97400665, 113.07157135, 30.21999931, 0.00000000
1, 1.0050, 130, 0.07331190, -1.48658049, 0.40528119, -20.60293388, 31.28471375, 117.14897156, -43.99298477, 11.98479939, -65.71177673, 103.06130219, -30.23091888, -122.48865509, -0.46790707, 0.22140707, -0.74068093, -0.42829162, -0.57551050, 0.64306271, -0.21155629, 99.97400665, 113.07157135, 30.21999931, 0.00000000
1, 1.0100, 131, 0.07310697, -1.49411440, 0.40507191, -22.45820427, 29.67939949, 120.99006653, -43.99298477, 11.98479939, -65.71177673, 102.94493866, -30.85399437, -122.47769928, -0.47134075, 0.21759927, -0.74081445, -0.42624229, -0.58463418, 0.65553474, -0.21428862, 99.97400665, 113.07157135, 30.21999931, 0.00000000
1, 1.0150, 132, 0.07829715, -1.50279307, 0.38957492, -22.87183380, 29.47692680, 124.95140839, -43.99298477, 11.98479939, -65.71177673, 102.82891846, -31.49616432, -122.47146606, -0.47483081, 0.21364464, -0.74095881, -0.42411283, -0.59930533, 0.66942883, -0.20176932, 99.97400665, 113.07157135, 30.21999931, 0.00000000
1, 1.0200, 133, 0.08242080, -1.52906442, 0.36978453, -22.33742142, 30.07214165, 127.93822479, -44.86991882, 13.38789845, -65.74101257, 102.71520233, -32.14655685, -122.46427155, -0.47833875, 0.20964716, -0.74109936, -0.42191470, -0.61303759, 0.70116448, -0.18498211, 99.97400665, 113.07157135, 30.21999931, 0.00000000
1, 1.0250, 134, 0.05255208, -1.54692328, 0.37372085, -22.46469879, 32.47005463, 131.04655457, -44.86991882, 13.38789845, -65.74101257, 102.59438324, -32.82168198, -122.44541931, -0.48200214, 0.20554541, -0.74119520, -0.41958892, -0.59301639, 0.72470492, -0.19209515, 99.97400665, 113.07157135, 30.21999931, 0.00000000
1, 1.0300, 135, 0.06427846, -1.57254732, 0.36788985, -21.85751152, 35.91721725, 134.24063110, -46.21455765, 12.94942951, -66.12101746, 102.46662903, -33.51607513, -122.40866089, -0.48581243, 0.20140921, -0.74123091, -0.41712993, -0.61482048, 0.75633353, -0.18950489, 99.97400665, 113.07157135, 30.21999931, 0.00000000
1, 1.0600, 136, 0.18256159, -1.78864396, 0.29409137, -14.98562241, 70.03413391, 144.81604004, -48.69921112, 14.99561501, -66.64717865, 101.42940521, -37.99406433, -121.53769684, -0.51223224, 0.17752025, -0.73930299, -0.39941928, -0.79617995, 1.01382399, -0.13918599, 99.97400665, 113.07157135, 30.21999931, 0.00000000
1, 1.0650, 137, 0.12792744, -1.87165844, 0.34134609, -11.91807652, 86.98619843, 144.93563843, -48.69921112, 14.99561501, -66.64717865, 101.14491272, -38.78950500, -121.17284393, -0.51764554, 0.17410524, -0.73825324, -0.39586961, -0.75251156, 1.10441065, -0.19196828, 99.97400665, 113.07157135, 30.21999931, 0.00000000
1, 1.0700, 138, 0.15729387, -1.91540945, 0.35101345, -10.69457626, 103.18770599, 143.72889709, -50.33615875, 15.69716454, -67.31949615, 100.79042816, -39.58872604, -120.69399261, -0.52350253, 0.17104968, -0.73680407, -0.39218229, -0.79275489, 1.15589857, -0.20776792, 99.97400665, 113.07157135, 30.21999931, 0.00000000
1, 1.0750, 139, 0.27067107, -1.92832780, 0.30518860, -11.60431385, 127.83327484, 141.13816833, -50.33615875, 15.69716454, -67.31949615, 100.31425476, -40.39885712, -120.04080963, -0.53009760, 0.16844615, -0.73471242, -0.38835561, -0.91683674, 1.17663741, -0.16925402, 99.97400665, 113.07157135, 30.21999931, 0.00000000
1, 1.0800, 140, 0.37796196, -1.87814903, 0.24423184, -7.99858952, 149.78862000, 139.05677795, -51.35925293, 16.66179466, -68.25489807, 99.74252319, -41.21300888, -119.22465515, -0.53729451, 0.16635381, -0.73210365, -0.38427255, -1.03475428, 1.13436723, -0.11675158, 99.97400665, 113.07157135, 30.21999931, 0.00000000
1, 1.0850, 141, 0.47200370, -1.81886530, 0.25669822, -2.47234464, 168.73823547, 136.63394165, -51.35925293, 16.66179466, -68.25489807, 99.09040833, -42.02385330, -118.25902557, -0.54496962, 0.16477315, -0.72906339, -0.37990081, -1.13945746, 1.08293569, -0.13859750, 99.97400665, 113.07157135, 30.21999931, 0.00000000
1, 1.0900, 142, 0.54930872, -1.73624194, 0.26445782, -1.83059824, 182.86415100, 134.61396790, -51.35925293, 16.66179466, -68.25489807, 98.34896088, -42.82648849, -117.17118073, -0.55300409, 0.16349126, -0.72561496, -0.37541994, -1.22718132, 1.00818658, -0.15667319, 99.97400665, 113.07157135, 30.21999931, 0.00000000
1, 1.0950, 143, 0.60533220, -1.66830397, 0.27685648, -0.15211199, 191.19598389, 134.93139648, -53.11312485, 16.77871895, -68.34259033, 97.54637146, -43.62544632, -115.99803162, -0.56123924, 0.16236074, -0.72192168, -0.37078112, -1.29343390, 0.94822377, -0.18014595, 99.97400665, 113.07157135, 30.21999931, 0.00000000
1, 1.1000, 144, 0.55751735, -1.63231206, 0.39107928, 1.89684951, 193.08607483, 138.21020508, -53.11312485, 16.77871895, -68.34259033, 96.71320343, -44.42955780, -114.78314209, -0.56951320, 0.16119106, -0.71816224, -0.36594439, -1.25600791, 0.92033565, -0.30598921, 99.97400665, 113.07157135, 30.21999931, 0.00000000
1, 1.1050, 145, 0.50589603, -1.60732210, 0.49385870, -2.82353020, 181.38523865, 142.23271179, -54.54545212, 17.88950539, -68.57643890, 95.88101196, -45.23466110, -113.62020111, -0.57745892, 0.15957381, -0.71457225, -0.36119801, -1.21464288, 0.90381026, -0.42028707, 99.97400665, 113.07157135, 30.21999931, 0.00000000
1, 1.1550, 146, -0.63014650, -0.88760269, 0.14616510, -23.79760933, 34.57687378, 121.08879852, -58.84244156, 20.22800255, -71.79187012, 90.65172577, -52.67163849, -108.35490417, -0.62458056, 0.12009919, -0.69930303, -0.32626775, -0.16381353, 0.27896613, -0.14141415, 99.97400665, 113.07157135, 30.21999931, 0.00000000
1, 1.1600, 147, -0.58019209, -0.80902886, 0.07739450, -18.64528847, 32.79928207, 111.30644226, -58.84244156, 20.22800255, -71.79187012, 90.34781647, -53.22953033, -108.08921814, -0.62725955, 0.11667053, -0.69871652, -0.32361811, -0.21961670, 0.20840460, -0.07572334, 99.97400665, 113.07157135, 30.21999931, 0.00000000
1, 1.1650, 148, -0.50482398, -0.74544191, 0.11673599, -13.98753738, 33.47754288, 100.60746002, -59.69014740, 20.22800255, -72.05495453, 90.05432892, -53.73304367, -107.80950165, -0.62976867, 0.11370172, -0.69810617, -0.32110924, -0.30047342, 0.15198423, -0.11789925, 99.97400665, 113.07157135, 30.21999931, 0.00000000
1, 1.1700, 149, -0.45481014, -0.64811599, 0.14498374, -14.07169724, 26.18299103, 89.49838257, -59.69014740, 21.25109673, -72.05495453, 89.81345367, -54.17114258, -107.59297180, -0.63183010, 0.11102501, -0.69765347, -0.31897318, -0.35526162, 0.06104817, -0.14854161, 99.97400665, 113.07157135, 30.21999931, 0.00000000
1, 1.1750, 150, -0.53492725, -0.43011066, 0.04502080, -15.90811634, 10.07328606, 74.94163513, -59.69014740, 21.25109673, -72.05495453, 89.66136169, -54.54573822, -107.50253296, -0.63325644, 0.10845096, -0.69751287, -0.31733364, -0.27889317, -0.15123124, -0.05017434, 99.97400665, 113.07157135, 30.21999931, 0.00000000
1, 1.1800, 151, -0.69193918, -0.24835935, -0.04258904, -14.19964886, -4.62345695, 62.30132294, -60.59631729, 19.96492195, -72.49342346, 89.62039948, -54.85760880, -107.53829193, -0.63404590, 0.10610276, -0.69773579, -0.31605807, -0.12497921, -0.32816440, 0.03653244, 99.97400665, 113.07157135, 30.21999931, 0.00000000
1, 1.1850, 152, -1.00646412, -0.13033834, -0.15232415, -5.72046757, -21.13259125, 46.30682373, -60.59631729, 19.96492195, -72.49342346, 89.74073792, -55.08997345, -107.71945190, -0.63406861, 0.10424583, -0.69845396, -0.31504282, 0.18733098, -0.44247124, 0.14666294, 99.97400665, 113.07157135, 30.21999931, 0.00000000
1, 1.1900, 153, -1.27543211, -0.15132560, -0.15896015, 1.45218801, -19.72232628, 35.03242874, -60.94709015, 22.09880066, -72.02572632, 89.88897705, -55.26559830, -107.89063263, -0.63394332, 0.10294944, -0.69917756, -0.31411484, 0.45442554, -0.41876832, 0.15408242, 99.97400665, 113.07157135, 30.21999931, 0.00000000
1, 1.1950, 154, -1.36016726, -0.17749253, -0.08107931, 11.82413960, -6.02813482, 25.41219521, -60.94709015, 22.09880066, -72.02572632, 89.99143982, -55.39260101, -107.94297791, -0.63405502, 0.10242138, -0.69961941, -0.31307647, 0.53758681, -0.39073873, 0.07710183, 99.97400665, 113.07157135, 30.21999931, 0.00000000
1, 1.2000, 155, -1.21985567, -0.28150919, 0.18872337, 27.79843521, 11.84553623, 14.90890694, -60.94709015, 22.09880066, -72.02572632, 90.04449463, -55.46673965, -107.83840179, -0.63449484, 0.10290103, -0.69973665, -0.31176329, 0.39573050, -0.28589672, -0.19188255, 99.97400665, 113.07157135, 30.21999931, 0.00000000
1, 1.2400, 156, -0.02998165, 0.11942912, -0.13674794, 12.18432713, 20.68814850, -103.05278778, -60.59631729, 21.04647827, -71.67494965, 88.95770264, -53.40901184, -105.87348175, -0.63541204, 0.12137137, -0.69271004, -0.31886262, -0.77396762, -0.71334201, 0.12618780, 99.97400665, 113.07157135, 30.21999931, 0.00000000
1, 1.2450, 157, -0.01687049, 0.09513032, -0.10957211, 18.92117882, 17.00438499, -114.12757874, -60.59631729, 21.04647827, -71.67494965, 88.95274353, -52.83655548, -105.75077820, -0.63422436, 0.12557217, -0.69188941, -0.32137236, -0.78131056, -0.69690049, 0.09865510, 99.97400665, 113.07157135, 30.21999931, 0.00000000
1, 1.2500, 158, -0.02148583, 0.03692647, -0.03149645, 25.54444313, 14.00417137, -124.69390869, -60.59631729, 21.04647827, -71.67494965, 89.00343323, -52.21151733, -105.65570831, -0.63274300, 0.13022894, -0.69116694, -0.32398319, -0.77041435, -0.64732218, 0.02071394, 99.97400665, 113.07157135, 30.21999931, 0.00000000
1, 1.2550, 159, -0.04515964, -0.02710224, 0.03553165, 29.10535812, 8.33260155, -135.35502625, -59.63168716, 20.75416565, -71.70417786, 89.10980225, -51.53373718, -105.60809326, -0.63089788, 0.13521987, -0.69056731, -0.32680309, -0.73977125, -0.59256423, -0.04564164, 99.97400665, 113.07157135, 30.21999931, 0.00000000
1, 1.2600, 160, -0.09576610, -0.07056979, 0.06083712, 29.95389938, 0.57291716, -145.61074829, -59.63168716, 20.75416565, -71.70417786, 89.26847839, -50.80534363, -105.62188721, -0.62864268, 0.14042604, -0.69010597, -0.32991323, -0.68142295, -0.55891883, -0.06969506, 99.97400665, 113.07157135, 30.21999931, 0.00000000
1, 1.2650, 161, -0.17196621, -0.08985382, 0.05335623, 29.84340096, -7.14154673, -155.18722534, -58.40397644, 19.17568016, -71.41186523, 89.47079468, -50.02957153, -105.69329834, -0.62598979, 0.14579883, -0.68976510, -0.33332211, -0.59674001, -0.54995394, -0.06042816, 99.97400665, 113.07157135, 30.21999931, 0.00000000
1, 1.2700, 162, -0.25446492, -0.08908191, 0.02114435, 30.88670540, -12.95693398, -163.64645386, -58.40397644, 19.17568016, -71.41186523, 89.70849609, -49.21535110, -105.80493164, -0.62300915, 0.15133953, -0.68951762, -0.33692956, -0.50508845, -0.56143814, -0.02592978, 99.97400665, 113.07157135, 30.21999931, 0.00000000
1, 1.2750, 163, -0.32604897, -0.09090091, -0.00975767, 34.54207993, -17.01928329, -171.64152527, -58.40397644, 19.17568016, -71.41186523, 89.98052216, -48.35710144, -105.93978882, -0.61972076, 0.15717362, -0.68933547, -0.34067494, -0.42373377, -0.57072932, 0.00776178, 99.97400665, 113.07157135, 30.21999931, 0.00000000
1, 1.2800, 164, -0.37648910, -0.10810960, -0.01145078, 40.07831573, -20.65548325, -179.29983521, -58.19935608, 18.70797920, -70.85647583, 90.29226685, -47.46004105, -106.09287262, -0.61613250, 0.16332349, -0.68923855, -0.34446561, -0.36295369, -0.56504494, 0.01283398, 99.97400665, 113.07157135, 30.21999931, 0.00000000
1, 1.2850, 165, -0.41933331, -0.14495367, 0.02708143, 45.28746414, -23.76656342, -187.18682861, -58.19935608, 18.70797920, -70.85647583, 90.63730621, -46.52280045, -106.25821686, -0.61225241, 0.16979218, -0.68920028, -0.34831104, -0.30921659, -0.54011267, -0.02179004, 99.97400665, 113.07157135, 30.21999931, 0.00000000
1, 1.3000, 166, -0.40694237, -0.23300228, 0.11003792, 47.12084961, -32.40730286, -218.57751465, -55.97778320, 17.50950050, -71.14878845, 91.73619843, -43.38605881, -106.79767609, -0.59875154, 0.19101089, -0.68885702, -0.36123055, -0.28374463, -0.49027959, -0.09063786, 99.97400665, 113.07157135, 30.21999931, 0.00000000
1, 1.3050, 167, -0.39439890, -0.24476153, 0.07726448, 44.22760391, -33.49734879, -227.96064758, -55.24700165, 15.58023930, -69.92107391, 92.07616425, -42.24098206, -106.97666931, -0.59374464, 0.19846110, -0.68849349, -0.36613840, -0.28176486, -0.49183100, -0.05301463, 99.97400665, 113.07157135, 30.21999931, 0.00000000
1, 1.3100, 168, -0.37763336, -0.24746618, 0.03900703, 42.02940369, -33.06698608, -236.58029175, -55.24700165, 15.58023930, -69.92107391, 92.39102173, -41.05221939, -107.13862610, -0.58856732, 0.20609766, -0.68793458, -0.37129277, -0.28313896, -0.50264084, -0.01004397, 99.97400665, 113.07157135, 30.21999931, 0.00000000
1, 1.3150, 169, -0.35450840, -0.26068467, 0.01570696, 41.48060226, -33.42205048, -243.80252075, -53.72697830, 14.29406548, -70.30107880, 92.69327545, -39.82668686, -107.28951263, -0.58319938, 0.21390659, -0.68723160, -0.37661013, -0.29011554, -0.50305849, 0.01790980, 99.97400665, 113.07157135, 30.21999931, 0.00000000
1, 1.3200, 170, -0.33646074, -0.29116660, 0.00994114, 42.30497742, -35.38630676, -250.23933411, -53.72697830, 14.29406548, -70.30107880, 92.99671936, -38.56953049, -107.43996429, -0.57759404, 0.22186109, -0.68645072, -0.38203174, -0.29132122, -0.48622957, 0.02841093, 99.97400665, 113.07157135, 30.21999931, 0.00000000
1, 1.3250, 171, -0.30168343, -0.32325253, 0.00493884, 42.71045303, -37.73163605, -255.45306396, -53.72697830, 14.29406548, -70.30107880, 93.30081940, -37.28350830, -107.59245300, -0.57174766, 0.22992343, -0.68559539, -0.38755488, -0.30855769, -0.46770737, 0.03835068, 99.97400665, 113.07157135, 30.21999931, 0.00000000
1, 1.3300, 172, -0.28750524, -0.37495947, -0.00445407, 43.16647720, -41.10863495, -259.74560547, -51.68079376, 11.86787510, -69.13182831, 93.60931396, -35.97444534, -107.75319672, -0.56564724, 0.23803730, -0.68469787, -0.39315426, -0.30453283, -0.42938554, 0.05277313, 99.97400665, 113.07157135, 30.21999931, 0.00000000
1, 1.3350, 173, -0.29837751, -0.41976520, -0.02346860, 43.78013992, -45.77145004, -264.10589600, -51.68079376, 11.86787510, -69.13182831, 93.92671967, -34.64142227, -107.92934418, -0.55924827, 0.24618322, -0.68378651, -0.39883751, -0.27479357, -0.39772603, 0.07701182, 99.97400665, 113.07157135, 30.21999931, 0.00000000
1, 1.3400, 174, -0.31302321, -0.45584083, -0.05547973, 45.45994949, -50.35598755, -268.44284058, -49.63460922, 10.90324497, -68.72259521, 94.25679016, -33.28438568, -108.11927795, -0.55253899, 0.25438389, -0.68287170, -0.40456870, -0.24058959, -0.37452304, 0.11455588, 99.97400665, 113.07157135, 30.21999931, 0.00000000
1, 1.3450, 175, -0.32825109, -0.50844646, -0.06819525, 47.33272934, -53.01351166, -271.71975708, -49.63460922, 10.90324497, -68.72259521, 94.59347534, -31.90907288, -108.31118011, -0.54558980, 0.26264271, -0.68191671, -0.41029292, -0.20523112, -0.33450776, 0.13304821, 99.97400665, 113.07157135, 30.21999931, 0.00000000
1, 1.4000, 176, -0.74699050, -1.19570541, 0.27536643, 36.09394836, -55.18651199, -333.67083740, -39.22829437, 8.41859055, -66.38409424, 98.20605469, -14.75222969, -110.45230865, -0.45002320, 0.35850367, -0.66369355, -0.47798043, 0.48446363, 0.23994897, -0.14213683, 99.97400665, 113.07157135, 30.21999931, 0.00000000
1, 1.4050, 177, -0.82364851, -1.22480655, 0.30335066, 31.22518349, -42.69746399, -342.07421875, -36.24671173, 7.39549828, -65.85793304, 98.35034180, -13.02857494, -110.41902924, -0.44110951, 0.36806464, -0.65975124, -0.48443690, 0.59007335, 0.26205218, -0.16667785, 99.97400665, 113.07157135, 30.21999931, 0.00000000
1, 1.4100, 178, -0.88191360, -1.24628174, 0.35772833, 27.71038246, -19.13714790, -352.68460083, -36.24671173, 7.39549828, -65.85793304, 98.45023346, -11.26953888, -110.25522614, -0.43260276, 0.37827435, -0.65495551, -0.49071050, 0.67805052, 0.27710938, -0.21847126, 99.97400665, 113.07157135, 30.21999931, 0.00000000
1, 1.4150, 179, -0.75212932, -1.20590842, 0.40548190, 26.78388596, 3.09193134, -359.11834717, -33.38205338, 7.39549828, -65.36100769, 98.52906799, -9.49518585, -109.97310638, -0.42450276, 0.38903487, -0.64945459, -0.49664682, 0.57851791, 0.23112476, -0.26356763, 99.97400665, 113.07157135, 30.21999931, 0.00000000
1, 1.4200, 180, -0.51618868, -1.15223348, 0.40582752, 30.00428200, 24.55647659, -361.20657349, -33.38205338, 7.39549828, -65.36100769, 98.61795044, -7.72904730, -109.58126068, -0.41680878, 0.40027675, -0.64344406, -0.50202477, 0.37308574, 0.17285444, -0.26109836, 99.97400665, 113.07157135, 30.21999931, 0.00000000
1, 1.4250, 181, -0.26203051, -1.16327488, 0.33965087, 38.52191162, 35.44207382, -358.88226318, -33.38205338, 7.39549828, -65.36100769, 98.75285339, -5.98077393, -109.13483429, -0.40921295, 0.41175354, -0.63728398, -0.50682628, 0.14943051, 0.18048336, -0.19163629, 99.97400665, 113.07157135, 30.21999931, 0.00000000
1, 1.4300, 182, -0.04033502, -1.25967002, 0.24054603, 47.89652252, 26.09950829, -353.72109985, -30.60508537, 7.33703566, -66.09178162, 98.95208740, -4.25207424, -108.73497009, -0.40120277, 0.42294589, -0.63143218, -0.51131850, -0.04191407, 0.27463719, -0.08854611, 99.97400665, 113.07157135, 30.21999931, 0.00000000
1, 1.4350, 183, 0.06469716, -1.40891707, 0.10742959, 54.19412994, -4.99876881, -347.35681152, -30.60508537, 7.33703566, -66.09178162, 99.20375824, -2.53199720, -108.48795319, -0.39226687, 0.43327731, -0.62623113, -0.51597691, -0.11663697, 0.42277908, 0.04902785, 99.97400665, 113.07157135, 30.21999931, 0.00000000
1, 1.4400, 184, 0.04056716, -1.52885485, -0.07916985, 57.14030838, -49.68843460, -338.99542236, -27.91581345, 3.65390229, -65.77024078, 99.48400879, -0.81838548, -108.46061707, -0.38215292, 0.44232252, -0.62187481, -0.52113503, -0.06212685, 0.54270804, 0.24026442, 99.97400665, 113.07157135, 30.21999931, 0.00000000
1, 1.4450, 185, -0.03928249, -1.57909977, -0.23468280, 60.97924423, -94.39938354, -329.41909790, -27.91581345, 3.65390229, -65.77024078, 99.78433228, 0.88492066, -108.65301514, -0.37088275, 0.45005259, -0.61839491, -0.52676976, 0.04788713, 0.59386158, 0.40061083, 99.97400665, 113.07157135, 30.21999931, 0.00000000
1, 1.4650, 186, -0.52447188, -1.45629346, 0.29049054, 113.98477173, -92.64313507, -265.59103394, -21.71879578, 7.48319197, -64.48406982, 101.47424316, 7.07159805, -109.86888123, -0.32382298, 0.47591731, -0.61008978, -0.54445559, 0.64089978, 0.48210171, -0.09895065, 99.97400665, 113.07157135, 30.21999931, 0.00000000
1, 1.4700, 187, -0.74382502, -1.54740763, 0.44947577, 110.67127991, -89.34941101, -252.99174500, -21.71879578, 7.48319197, -64.48406982, 102.00018311, 8.39857006, -110.05242157, -0.31312811, 0.48202664, -0.60868102, -0.54690814, 0.88308918, 0.57776785, -0.25018430, 99.97400665, 113.07157135, 30.21999931, 0.00000000
1, 1.4750, 188, -0.94880277, -1.61044252, 0.46730947, 99.86983490, -91.34762573, -244.66459656, -21.71879578, 7.48319197, -64.48406982, 102.46640778, 9.69179535, -110.24374390, -0.30274019, 0.48765832, -0.60710973, -0.54950482, 1.11044741, 0.64588153, -0.26121563, 99.97400665, 113.07157135, 30.21999931, 0.00000000
1, 1.4800, 189, -1.09750223, -1.62517691, 0.42170545, 87.27159119, -83.58152008, -238.92112732, -20.02338409, 8.97398376, -64.01636505, 102.87303925, 10.94974232, -110.39363861, -0.29292068, 0.49308807, -0.60517067, -0.55211419, 1.28104138, 0.66601181, -0.20978647, 99.97400665, 113.07157135, 30.21999931, 0.00000000
1, 1.4850, 190, -1.14210200, -1.59728146, 0.38796183, 75.46836853, -62.34229279, -234.05831909, -20.02338409, 8.97398376, -64.01636505, 103.23925781, 12.16098690, -110.43547821, -0.28399470, 0.49868697, -0.60270256, -0.55444384, 1.34666896, 0.64367068, -0.17078298, 99.97400665, 113.07157135, 30.21999931, 0.00000000
1, 1.4900, 191, -1.15687943, -1.53315544, 0.34226286, 65.42756653, -36.68119812, -228.48164368, -18.06489372, 10.43554497, -64.22098541, 103.58290100, 13.31566238, -110.34846497, -0.27606326, 0.50457823, -0.59972471, -0.55634546, 1.38149345, 0.58526504, -0.12026183, 99.97400665, 113.07157135, 30.21999931, 0.00000000
1, 1.4950, 192, -1.22095704, -1.43369675, 0.31886956, 59.95481491, -11.76811981, -220.56239319, -18.06489372, 10.43554497, -64.22098541, 103.93029785, 14.40183067, -110.13887024, -0.26906666, 0.51074928, -0.59642518, -0.55768758, 1.46436048, 0.49162385, -0.09224735, 99.97400665, 113.07157135, 30.21999931, 0.00000000
1, 1.5000, 193, -1.16701663, -1.27872777, 0.32826033, 57.56433487, 14.61925411, -210.54408264, -18.06489372, 10.43554497, -64.22098541, 104.30245972, 15.40612030, -109.80138397, -0.26302692, 0.51722646, -0.59292364, -0.55833256, 1.42771363, 0.34252164, -0.09637177, 99.97400665, 113.07157135, 30.21999931, 0.00000000
1, 1.5250, 194, 0.45847082, -0.97326112, -0.05411616, 38.15957260, 58.48399734, -74.79133606, -15.34638977, 11.86787510, -62.84711838, 106.02699280, 18.52547836, -107.50144196, -0.24741566, 0.54425406, -0.57851464, -0.55488193, -0.14159605, 0.06133829, 0.31425244, 99.97400665, 113.07157135, 30.21999931, 0.00000000
1, 1.5300, 195, 0.62537855, -1.02258313, 0.20289253, 40.51530457, 48.01936722, -39.70310593, -15.22946453, 11.28325081, -62.84711838, 106.32521057, 18.65023041, -107.19990540, -0.24669905, 0.54685527, -0.57802540, -0.55315059, -0.30646938, 0.11251254, 0.06222470, 99.97400665, 113.07157135, 30.21999931, 0.00000000
1, 1.5350, 196, 0.68051767, -1.08607733, 0.43690556, 34.27555084, 18.38055229, -7.03055334, -15.22946453, 11.28325081, -62.84711838, 106.52964783, 18.65857124, -107.09626007, -0.24617182, 0.54784691, -0.57848305, -0.55192459, -0.36161357, 0.17689112, -0.16812685, 99.97400665, 113.07157135, 30.21999931, 0.00000000
1, 1.5400, 197, 0.54822940, -1.14120007, 0.48059496, 22.50802612, -19.71407890, 21.83033752, -14.96638393, 13.03712368, -62.67173386, 106.60021210, 18.58215332, -107.22860718, -0.24566023, 0.54706424, -0.57975823, -0.55159068, -0.23036644, 0.23213109, -0.21049370, 99.97400665, 113.07157135, 30.21999931, 0.00000000
1, 1.5450, 198, 0.28154442, -1.14760458, 0.36459333, 12.34952641, -44.89541626, 45.82587051, -14.96638393, 13.03712368, -62.67173386, 106.56873322, 18.42633438, -107.52413177, -0.24533176, 0.54495656, -0.58163106, -0.55185151, 0.03435976, 0.23795904, -0.09510233, 99.97400665, 113.07157135, 30.21999931, 0.00000000
1, 1.5500, 199, 0.03793795, -1.10395777, 0.31140715, 7.62032509, -55.39216614, 65.08983612, -14.84945869, 13.30020428, -62.55480957, 106.48927307, 18.19264221, -107.90090179, -0.24531096, 0.54205114, -0.58395547, -0.55226725, 0.27453887, 0.19293745, -0.04322444, 99.97400665, 113.07157135, 30.21999931, 0.00000000
1, 1.5550, 200, -0.14098750, -1.07266021, 0.34535912, 4.51462317, -65.65003967, 80.76351166, -14.84945869, 13.30020428, -62.55480957, 106.37321472, 17.89752769, -108.35165405, -0.24547592, 0.53845698, -0.58667684, -0.55282557, 0.44871712, 0.15962327, -0.07882521, 99.97400665, 113.07157135, 30.21999931, 0.00000000
1, 1.5600, 201, -0.27498761, -1.03935683, 0.36911881, -1.10566854, -80.29388428, 93.94604492, -14.84945869, 13.30020428, -62.55480957, 106.20373535, 17.55840874, -108.89396667, -0.24571051, 0.53409839, -0.58971602, -0.55371511, 0.57719398, 0.12387137, -0.10484657, 99.97400665, 113.07157135, 30.21999931, 0.00000000
1, 1.5650, 202, -0.41196731, -0.98237991, 0.28723353, -8.17413139, -93.10947418, 105.89366913, -15.63870239, 12.59865570, -63.72405624, 105.97856140, 17.17766190, -109.51579285, -0.24606130, 0.52902895, -0.59298182, -0.55493683, 0.70821512, 0.06418687, -0.02605791, 99.97400665, 113.07157135, 30.21999931, 0.00000000
1, 1.5700, 203, -0.50839472, -0.95696938, 0.19165052, -14.05868626, -100.23641968, 120.73094177, -15.63870239, 12.59865570, -63.72405624, 105.71124268, 16.71730804, -110.19184875, -0.24681047, 0.52325583, -0.59655291, -0.55624872, 0.79755199, 0.03558338, 0.06577282, 99.97400665, 113.07157135, 30.21999931, 0.00000000
1, 1.5950, 204, -0.04092588, -1.03037119, 0.32995111, -20.14879417, -106.19954681, 143.66055298, -15.37562084, 12.21864891, -63.49020767, 104.40180206, 13.95856571, -113.67217255, -0.25241795, 0.49138790, -0.61581290, -0.56178075, 0.28366211, 0.09068877, -0.08948636, 99.97400665, 113.07157135, 30.21999931, 0.00000000
1, 1.6000, 205, 0.04890309, -1.15957272, 0.29398969, -5.40416813, -99.06442261, 130.21795654, -16.10640144, 11.75094986, -64.04560089, 104.22032928, 13.44897556, -114.33097076, -0.25306082, 0.48539287, -0.61955708, -0.56258613, 0.18503609, 0.21697581, -0.05629966, 99.97400665, 113.07157135, 30.21999931, 0.00000000
1, 1.6050, 206, 0.18644416, -1.50100517, 0.15246508, -9.26473713, -78.29315186, 110.81748962, -16.10640144, 11.75094986, -64.04560089, 104.05445862, 13.00638390, -114.85927582, -0.25385875, 0.48036772, -0.62253803, -0.56324875, 0.04003283, 0.55616343, 0.08277259, 99.97400665, 113.07157135, 30.21999931, 0.00000000
1, 1.6100, 207, 0.50232345, -1.85552204, -0.08382033, -30.83119392, -58.46995926, 89.72700500, -16.10640144, 11.75094986, -64.04560089, 103.81233215, 12.64041042, -115.26061249, -0.25512177, 0.47614765, -0.62430859, -0.56430066, -0.28181070, 0.90870947, 0.31601462, 99.97400665, 113.07157135, 30.21999931, 0.00000000
1, 1.6150, 208, 0.87475026, -2.07793689, -0.49329346, -61.10089874, -43.99451828, 75.03440094, -15.96024513, 11.16632557, -64.63022614, 103.44091034, 12.32646179, -115.56983185, -0.25704178, 0.47233397, -0.62485385, -0.56602818, -0.65873587, 1.12924182, 0.72076547, 99.97400665, 113.07157135, 30.21999931, 0.00000000
1, 1.6200, 209, 1.01453543, -1.85615802, -1.20167232, -90.41611481, -34.50054169, 75.31839752, -15.96024513, 11.16632557, -64.63022614, 102.93218994, 11.99878883, -115.82984161, -0.25982958, 0.46839994, -0.62454414, -0.56836158, -0.80221516, 0.90560347, 1.42221749, 99.97400665, 113.07157135, 30.21999931, 0.00000000
1, 1.6250, 210, 0.74024689, -1.38557410, -1.68100262, -97.05466461, -31.53573227, 93.20997620, -16.22332573, 9.70476437, -64.98100281, 102.39473724, 11.57704449, -116.09095001, -0.26326725, 0.46396738, -0.62439841, -0.57057101, -0.53358233, 0.43236747, 1.89300036, 99.97400665, 113.07157135, 30.21999931, 0.00000000
1, 1.6300, 211, 0.09422445, -1.08183479, -1.14813197, -29.50054741, -60.65266800, 111.63576508, -16.22332573, 9.70476437, -64.98100281, 102.16566467, 11.09500599, -116.51341248, -0.26499134, 0.45907307, -0.62661934, -0.57129663, 0.10314947, 0.12502101, 1.35409760, 99.97400665, 113.07157135, 30.21999931, 0.00000000
1, 1.6350, 212, -0.22854090, -1.17920494, -0.49573135, -8.99382210, -98.29582977, 121.51892090, -16.22332573, 9.70476437, -64.98100281, 102.00599670, 10.60264206, -117.13146973, -0.26551065, 0.45318925, -0.62996072, -0.57207793, 0.41587797, 0.21912655, 0.69828749, 99.97400665, 113.07157135, 30.21999931, 0.00000000
1, 1.6400, 213, -0.34092113, -1.28749144, -0.12986921, -14.84519672, -135.77909851, 131.25068665, -17.21718788, 10.40631390, -64.95176697, 101.78755188, 10.09898186, -117.94352722, -0.26534441, 0.44600707, -0.63374805, -0.57361442, 0.51876897, 0.32455435, 0.32895535, 99.97400665, 113.07157135, 30.21999931, 0.00000000
1, 1.6600, 214, -0.14522336, -1.13510382, 0.28788558, -23.23455048, -203.14706421, 147.31288147, -16.66179466, 9.70476437, -65.97486115, 100.64871216, 7.95556784, -122.15489960, -0.26129118, 0.41010159, -0.65063101, -0.58328640, 0.28520408, 0.16185468, -0.10597695, 99.97400665, 113.07157135, 30.21999931, 0.00000000
1, 1.6650, 215, -0.22069606, -1.01602960, 0.25046068, -21.74833488, -217.80609131, 144.70120239, -16.63256264, 9.17860222, -66.47179413, 100.37937164, 7.44064760, -123.36778259, -0.25917339, 0.40017438, -0.65512145, -0.58609343, 0.35177043, 0.04075850, -0.07295702, 99.97400665, 113.07157135, 30.21999931, 0.00000000
1, 1.6700, 216, -0.41864413, -0.91505575, 0.16733938, -15.99666882, -223.69146729, 140.87733459, -16.63256264, 9.17860222, -66.47179413, 100.14645386, 6.93635273, -124.60274506, -0.25670508, 0.39017874, -0.65969545, -0.58878273, 0.54119498, -0.06193700, 0.00589156, 99.97400665, 113.07157135, 30.21999931, 0.00000000
1, 1.6750, 217, -0.64467067, -0.78522718, 0.18092175, -8.42572212, -212.51303101, 136.42050171, -16.13563347, 8.24320412, -67.49488068, 99.96932983, 6.44822359, -125.77526855, -0.25423133, 0.38067329, -0.66415393, -0.59106159, 0.75863415, -0.19338019, -0.01114488, 99.97400665, 113.07157135, 30.21999931, 0.00000000
1, 1.6800, 218, -0.88990813, -0.61451709, 0.29779509, 7.63102055, -191.61239624, 130.47500610, -16.13563347, 8.24320412, -67.49488068, 99.89427948, 5.96905994, -126.83684540, -0.25191355, 0.37201613, -0.66862047, -0.59252870, 0.99520075, -0.36551625, -0.13000336, 99.97400665, 113.07157135, 30.21999931, 0.00000000
1, 1.6850, 219, -1.02627575, -0.56885850, 0.42550099, 19.90451431, -169.28355408, 126.08389282, -16.13563347, 8.24320412, -67.49488068, 99.90071869, 5.49205303, -127.78285980, -0.24990951, 0.36416554, -0.67302251, -0.59327018, 1.12301362, -0.41225442, -0.25805119, 99.97400665, 113.07157135, 30.21999931, 0.00000000
1, 1.6900, 220, -1.07588792, -0.50181282, 0.69148117, 32.39123917, -132.31483459, 121.33795929, -16.19409561, 8.00935364, -67.72873688, 99.99466705, 5.00786638, -128.54158020, -0.24864766, 0.35752305, -0.67721784, -0.59306633, 1.16356897, -0.48028281, -0.52259064, 99.97400665, 113.07157135, 30.21999931, 0.00000000
1, 1.6950, 221, -1.03754652, -0.55687964, 0.99284101, 40.84737778, -105.32750702, 120.33126831, -16.19409561, 8.00935364, -67.72873688, 100.14849091, 4.50701332, -129.16654968, -0.24800903, 0.35168162, -0.68128353, -0.59216917, 1.11585641, -0.42600709, -0.82139826, 99.97400665, 113.07157135, 30.21999931, 0.00000000
1, 1.7000, 222, -1.07753408, -0.67376435, 1.21894252, 36.83090591, -88.03638458, 119.74298096, -16.36948204, 7.60011673, -67.99181366, 100.29405975, 3.99549603, -129.70657349, -0.24791779, 0.34624478, -0.68501627, -0.59110415, 1.14640296, -0.30969518, -1.04506993, 99.97400665, 113.07157135, 30.21999931, 0.00000000
1, 1.7050, 223, -1.30731463, -0.75624895, 1.14504993, 30.95602608, -79.40815735, 116.58830261, -16.36948204, 7.60011673, -67.99181366, 100.41792297, 3.49299097, -130.20210266, -0.24808140, 0.34104636, -0.68842757, -0.59009361, 1.36756063, -0.22727698, -0.96958733, 99.97400665, 113.07157135, 30.21999931, 0.00000000
1, 1.7900, 224, -0.18363394, -0.99065149, 0.01204777, 16.15982437, -5.71214390, 64.86833954, -22.21572685, 6.84010506, -65.74101257, 101.19982910, -3.94646978, -126.12808990, -0.31108031, 0.33035159, -0.69839311, -0.55348343, 0.11610814, 0.01183742, 0.17928201, 99.97400665, 113.07157135, 30.21999931, 0.00000000
1, 1.7950, 225, -0.20745938, -0.99803698, 0.03500289, 15.80219841, -17.75520897, 62.90334702, -22.21572685, 6.84010506, -65.74101257, 101.29025269, -4.23767090, -126.27635956, -0.31182966, 0.32822415, -0.69992191, -0.55239528, 0.13467589, 0.01984685, 0.15771328, 99.97400665, 113.07157135, 30.21999931, 0.00000000
1, 1.8000, 226, -0.23496541, -0.98724759, 0.08335749, 15.67395878, -31.27730370, 60.23417282, -22.27418900, 7.22011089, -65.41946411, 101.38558197, -4.50236225, -126.48904419, -0.31210148, 0.32584667, -0.70158708, -0.55153632, 0.15738934, 0.00964437, 0.11084559, 99.97400665, 113.07157135, 30.21999931, 0.00000000
1, 1.8050, 227, -0.26528502, -0.96251786, 0.13946921, 16.61409378, -35.89373016, 58.42966461, -22.27418900, 7.22011089, -65.41946411, 101.48827362, -4.75331593, -126.72318268, -0.31217247, 0.32342264, -0.70330560, -0.55073363, 0.18314426, -0.01448468, 0.05634543, 99.97400665, 113.07157135, 30.21999931, 0.00000000
1, 1.8100, 228, -0.27901119, -0.95789266, 0.15054037, 18.46001625, -38.96700287, 56.51020050, -22.27418900, 7.22011089, -65.41946411, 101.60234070, -4.99133110, -126.97107697, -0.31207389, 0.32100567, -0.70507640, -0.54993868, 0.19264393, -0.01839591, 0.04707056, 99.97400665, 113.07157135, 30.21999931, 0.00000000
1, 1.8150, 229, -0.37051478, -0.92162097, 0.21996059, 19.41285706, -38.96301270, 53.76409912, -23.23881912, 7.39549828, -65.68254852, 101.72191620, -5.21539783, -127.21677399, -0.31189325, 0.31868294, -0.70682478, -0.54914707, 0.28003609, -0.05402354, -0.02056066, 99.97400665, 113.07157135, 30.21999931, 0.00000000
1, 1.8200, 230, -0.41804999, -0.89828038, 0.26832601, 19.65577888, -24.11875343, 52.15190506, -23.23881912, 7.39549828, -65.68254852, 101.84281158, -5.46615124, -127.38893127, -0.31222525, 0.31667832, -0.70842201, -0.54805899, 0.32330424, -0.07664555, -0.06705266, 99.97400665, 113.07157135, 30.21999931, 0.00000000
1, 1.8250, 231, -0.43924779, -0.89065254, 0.36118492, 22.64144516, -12.74776268, 49.65085983, -23.09266281, 7.51242304, -65.44869995, 101.96768188, -5.69583511, -127.50260162, -0.31270486, 0.31515098, -0.70982230, -0.54685277, 0.34008592, -0.08358859, -0.15793490, 99.97400665, 113.07157135, 30.21999931, 0.00000000
1, 1.8300, 232, -0.46880877, -0.94782424, 0.42369077, 21.14060402, -7.00651932, 46.44179916, -23.09266281, 7.51242304, -65.44869995, 102.08231354, -5.91552544, -127.58525848, -0.31330425, 0.31383765, -0.71106029, -0.54565531, 0.36563212, -0.02570113, -0.21862653, 99.97400665, 113.07157135, 30.21999931, 0.00000000
1, 1.8350, 233, -0.52113545, -0.93065929, 0.34128466, 15.59586430, -2.01256895, 43.89734650, -23.09266281, 7.51242304, -65.44869995, 102.16669464, -6.12790632, -127.64112854, -0.31407264, 0.31264460, -0.71205992, -0.54459399, 0.41444945, -0.04202541, -0.13488404, 99.97400665, 113.07157135, 30.21999931, 0.00000000
1, 1.8500, 234, -0.53066117, -0.95706892, 0.37772679, 17.67207909, 33.24613190, 35.52764893, -23.53113174, 6.84010506, -65.41946411, 102.42147827, -6.76048613, -127.46524048, -0.31797624, 0.31123331, -0.71409833, -0.54045224, 0.41290247, -0.01352604, -0.16729870, 99.97400665, 113.07157135, 30.21999931, 0.00000000
1, 1.8550, 235, -0.48015237, -0.96656048, 0.38259643, 16.33577347, 48.94690323, 32.48377991, -23.53113174, 6.84010506, -65.41946411, 102.47893524, -6.97131252, -127.25940704, -0.32004213, 0.31160712, -0.71424252, -0.53882444, 0.35873342, -0.00338458, -0.17109908, 99.97400665, 113.07157135, 30.21999931, 0.00000000
1, 1.8600, 236, -0.44239843, -0.97259831, 0.35295123, 15.28888226, 55.64021683, 30.41330719, -23.53113174, 6.84010506, -65.41946411, 102.52606964, -7.17943048, -127.01850128, -0.32227957, 0.31218585, -0.71423489, -0.53716338, 0.31743851, 0.00332282, -0.14062566, 99.97400665, 113.07157135, 30.21999931, 0.00000000
1, 1.8650, 237, -0.40035683, -0.97201359, 0.31297469, 15.04967880, 63.24084473, 28.56448746, -24.52499199, 7.65857935, -65.12715149, 102.56613922, -7.38689137, -126.73823547, -0.32471058, 0.31299451, -0.71408308, -0.53542787, 0.27190155, 0.00340538, -0.09993906, 99.97400665, 113.07157135, 30.21999931, 0.00000000
1, 1.8700, 238, -0.34639278, -0.96988571, 0.27961069, 15.20344067, 70.64192963, 26.46054649, -24.52499199, 7.65857935, -65.12715149, 102.60359955, -7.60128021, -126.41959381, -0.32736135, 0.31400061, -0.71382558, -0.53356475, 0.21437694, 0.00193767, -0.06590879, 99.97400665, 113.07157135, 30.21999931, 0.00000000
1, 1.8750, 239, -0.28022018, -0.96659827, 0.24884154, 15.27354622, 76.12759399, 24.31201363, -24.72961044, 8.06781673, -65.56562042, 102.63356781, -7.80231285, -126.07118225, -0.33008382, 0.31523868, -0.71342087, -0.53169531, 0.14470217, -0.00070760, -0.03452639, 99.97400665, 113.07157135, 30.21999931, 0.00000000
1, 1.8800, 240, -0.20023605, -0.96046865, 0.20739175, 15.39379692, 77.49996948, 22.31016922, -24.72961044, 8.06781673, -65.56562042, 102.66168976, -7.99523449, -125.71376038, -0.33279654, 0.31656864, -0.71296263, -0.52982557, 0.06144927, -0.00620940, 0.00750452, 99.97400665, 113.07157135, 30.21999931, 0.00000000
1, 1.8850, 241, -0.13113895, -0.96069360, 0.16998279, 16.09585381, 75.02978516, 20.98047638, -24.72961044, 8.06781673, -65.56562042, 102.69364166, -8.17914867, -125.36698914, -0.33538789, 0.31788895, -0.71252918, -0.52798098, -0.01077079, -0.00536323, 0.04550461, 99.97400665, 113.07157135, 30.21999931, 0.00000000
1, 1.8900, 242, -0.06407504, -0.96626246, 0.13642320, 17.06088638, 71.56880188, 20.39496613, -25.34346581, 7.16164875, -65.39023590, 102.73168182, -8.35662460, -125.03657532, -0.33784100, 0.31915808, -0.71215218, -0.52615678, -0.08083947, 0.00083487, 0.07973887, 99.97400665, 113.07157135, 30.21999931, 0.00000000
1, 1.8950, 243, -0.01858731, -0.97856951, 0.12764652, 18.09789467, 68.22769165, 20.65265083, -25.34346581, 7.16164875, -65.39023590, 102.77635956, -8.53191948, -124.72291565, -0.34017813, 0.32035419, -0.71184433, -0.52433747, -0.12933919, 0.01375669, 0.08923186, 99.97400665, 113.07157135, 30.21999931, 0.00000000
1, 1.9250, 244, 0.00165193, -1.00441563, 0.14425914, 12.97229671, 20.53103256, 29.50079727, -26.80502701, 6.22624969, -65.15638733, 103.06216431, -9.53803825, -123.67588806, -0.34997708, 0.32264826, -0.71227783, -0.51582414, -0.16700110, 0.04334886, 0.07677993, 99.97400665, 113.07157135, 30.21999931, 0.00000000
1, 1.9300, 245, -0.04677160, -0.99416399, 0.16606523, 12.76418877, 17.30805206, 30.19777489, -26.80502701, 6.22624969, -65.15638733, 103.11782837, -9.70446682, -123.62477112, -0.35101357, 0.32229790, -0.71272510, -0.51471978, -0.12149673, 0.03374850, 0.05569118, 99.97400665, 113.07157135, 30.21999931, 0.00000000
1, 1.9350, 246, -0.09506225, -0.97599101, 0.21906905, 12.15773487, 17.41209984, 29.99765968, -27.21426392, 8.56474686, -64.86407471, 103.17018890, -9.87009239, -123.57304382, -0.35205653, 0.32194594, -0.71315247, -0.51363468, -0.07618892, 0.01617431, 0.00338092, 99.97400665, 113.07157135, 30.21999931, 0.00000000
1, 1.9400, 247, -0.10600310, -0.94709015, 0.27459198, 11.56590843, 19.25690460, 29.83885193, -27.21426392, 8.56474686, -64.86407471, 103.21784973, -10.03708553, -123.51213074, -0.35316068, 0.32163033, -0.71353412, -0.51254320, -0.06825036, -0.01213918, -0.05141997, 99.97400665, 113.07157135, 30.21999931, 0.00000000
1, 1.9450, 248, -0.10290014, -0.92930436, 0.30633971, 11.28842545, 18.78934479, 30.35701942, -27.21426392, 8.56474686, -64.86407471, 103.26449585, -10.20612049, -123.45423889, -0.35426480, 0.32128307, -0.71392220, -0.51145738, -0.07432804, -0.02929232, -0.08246771, 99.97400665, 113.07157135, 30.21999931, 0.00000000
1, 1.9500, 249, -0.10926285, -0.92667258, 0.31516027, 10.69101143, 15.42197990, 31.12561607, -27.76965714, 6.60625553, -64.39637756, 103.31116486, -10.37511063, -123.41401672, -0.35528880, 0.32082647, -0.71435815, -0.51042408, -0.07089167, -0.03124262, -0.09063745, 99.97400665, 113.07157135, 30.21999931, 0.00000000
1, 1.9550, 250, -0.12975408, -0.92194104, 0.27972427, 9.66203022, 12.46685219, 31.97963524, -27.76965714, 6.60625553, -64.39637756, 103.35542297, -10.54492474, -123.38951111, -0.35625353, 0.32026052, -0.71482724, -0.50944948, -0.05322154, -0.03521861, -0.05462003, 99.97400665, 113.07157135, 30.21999931, 0.00000000
1, 1.9600, 251, -0.14795624, -0.91394734, 0.24853681, 9.74446869, 11.65353584, 32.52003479, -28.41274452, 6.60625553, -63.84098053, 103.40091705, -10.71643543, -123.36980438, -0.35720283, 0.31966019, -0.71531659, -0.50847399, -0.03787873, -0.04244799, -0.02283831, 99.97400665, 113.07157135, 30.21999931, 0.00000000
1, 1.9650, 252, -0.14985575, -0.92570150, 0.26094553, 10.67460155, 17.34686089, 33.66041183, -28.41274452, 7.51242304, -63.84098053, 103.44599915, -10.90007114, -123.32335663, -0.35834089, 0.31916451, -0.71575171, -0.50737095, -0.03909822, -0.02996256, -0.03465017, 99.97400665, 113.07157135, 30.21999931, 0.00000000
1, 1.9700, 253, -0.12882224, -0.93650031, 0.28143749, 10.53808498, 19.94406509, 34.24983597, -28.41274452, 7.51242304, -63.84098053, 103.49360657, -11.08319855, -123.26595306, -0.35951644, 0.31874827, -0.71616459, -0.50621718, -0.06335542, -0.01841905, -0.05449171, 99.97400665, 113.07157135, 30.21999931, 0.00000000
1, 2.0350, 254, -0.12726656, -0.97610295, 0.28101262, 5.40671062, 11.76577473, 46.70395660, -30.34200478, 9.29552746, -63.89944458, 103.93489075, -13.80870724, -123.16911316, -0.37433532, 0.30695868, -0.72298378, -0.49289337, -0.11108921, 0.03285138, -0.04911674, 99.97400665, 113.07157135, 30.21999931, 0.00000000
1, 2.0400, 255, -0.12642184, -0.97360027, 0.28585833, 5.01574183, 12.01240253, 47.90658951, -30.34200478, 9.29552746, -63.89944458, 103.96031189, -14.05559254, -123.16810608, -0.37567675, 0.30579162, -0.72353625, -0.49178642, -0.11610529, 0.03144221, -0.05378173, 99.97400665, 113.07157135, 30.21999931, 0.00000000
1, 2.0450, 256, -0.13245058, -0.96681750, 0.29901224, 4.66064930, 12.22537422, 49.07290649, -30.34200478, 9.29552746, -63.89944458, 103.98411560, -14.30839729, -123.16760254, -0.37705281, 0.30458510, -0.72408980, -0.49066609, -0.11436173, 0.02577613, -0.06679516, 99.97400665, 113.07157135, 30.21999931, 0.00000000
1, 2.0500, 257, -0.13188680, -0.94967794, 0.29928902, 4.25774384, 13.41684341, 50.08789444, -31.10201645, 8.36012840, -63.81174850, 104.00474548, -14.56757736, -123.16245270, -0.37849179, 0.30336395, -0.72462487, -0.48952338, -0.11928312, 0.00980579, -0.06696651, 99.97400665, 113.07157135, 30.21999931, 0.00000000
1, 2.0550, 258, -0.13201830, -0.94463873, 0.30929089, 4.10608101, 14.40334797, 51.02470016, -31.10201645, 8.36012840, -63.81174850, 104.02366638, -14.83247948, -123.15362549, -0.37998194, 0.30213034, -0.72514904, -0.48835438, -0.12362505, 0.00595774, -0.07691946, 99.97400665, 113.07157135, 30.21999931, 0.00000000
1, 2.0600, 259, -0.13284765, -0.93952179, 0.30356330, 3.88790107, 15.06926441, 52.23512268, -31.10201645, 9.35398960, -63.08097076, 104.04103088, -15.10407066, -123.14303589, -0.38151971, 0.30086732, -0.72566956, -0.48716056, -0.12733316, 0.00209650, -0.07119376, 99.97400665, 113.07157135, 30.21999931, 0.00000000
1, 2.0650, 260, -0.13884333, -0.94390738, 0.29644966, 3.57810616, 14.48111439, 53.41682053, -31.10201645, 9.35398960, -63.08097076, 104.05799866, -15.38069439, -123.13696289, -0.38306588, 0.29954758, -0.72620457, -0.48596162, -0.12596083, 0.00778466, -0.06412779, 99.97400665, 113.07157135, 30.21999931, 0.00000000
1, 2.0700, 261, -0.14869694, -0.95027173, 0.27922574, 3.66620302, 13.37097931, 54.72122192, -31.10201645, 9.35398960, -63.08097076, 104.08061981, -15.65262318, -123.13910675, -0.38453415, 0.29821751, -0.72677261, -0.48476952, -0.12069251, 0.01550035, -0.04692038, 99.97400665, 113.07157135, 30.21999931, 0.00000000
1, 2.0750, 262, -0.16571055, -0.95300424, 0.27181667, 3.62227559, 14.28714752, 55.72507858, -31.24817276, 8.68167210, -64.22098541, 104.09887695, -15.94020844, -123.13708496, -0.38611796, 0.29681772, -0.72733331, -0.48352721, -0.10838230, 0.01961998, -0.03954305, 99.97400665, 113.07157135, 30.21999931, 0.00000000
1, 2.0800, 263, -0.19682468, -0.95180142, 0.26143402, 3.63502908, 16.42058945, 56.82733154, -31.24817276, 8.68167210, -64.22098541, 104.11460876, -16.23571968, -123.12577057, -0.38779002, 0.29542643, -0.72786778, -0.48223513, -0.08217454, 0.01987188, -0.02932265, 99.97400665, 113.07157135, 30.21999931, 0.00000000
1, 2.1100, 264, -0.23112698, -0.96355879, 0.27972040, 1.35837746, 23.48794365, 62.00218201, -33.17743301, 9.41245270, -64.27944946, 104.12914276, -18.13481331, -122.94074249, -0.39915821, 0.28686720, -0.73054659, -0.47400600, -0.07945481, 0.04109342, -0.04975919, 99.97400665, 113.07157135, 30.21999931, 0.00000000
1, 2.1150, 265, -0.22826350, -0.95690000, 0.29679096, 0.66929275, 24.75317192, 62.74215317, -33.17743301, 9.41245270, -64.27944946, 104.11871338, -18.46916580, -122.89436340, -0.40123528, 0.28539583, -0.73091245, -0.47257447, -0.08788431, 0.03613421, -0.06739691, 99.97400665, 113.07157135, 30.21999931, 0.00000000
1, 2.1200, 266, -0.21670853, -0.95341420, 0.31808308, 0.02948475, 24.90233040, 63.56005478, -33.17743301, 9.41245270, -64.27944946, 104.11067200, -18.79981613, -122.85002136, -0.40327272, 0.28393665, -0.73128265, -0.47114414, -0.10501137, 0.03436712, -0.08927572, 99.97400665, 113.07157135, 30.21999931, 0.00000000
1, 2.1250, 267, -0.22656779, -0.97941685, 0.35022137, -0.31200060, 23.96827888, 64.62874603, -33.96667480, 9.23706532, -64.33791351, 104.09683228, -19.14235115, -122.80979156, -0.40536875, 0.28236669, -0.73165286, -0.46971214, -0.10080693, 0.06212386, -0.12211737, 99.97400665, 113.07157135, 30.21999931, 0.00000000
1, 2.1300, 268, -0.24838386, -1.00915790, 0.35389584, -1.52632928, 21.70107079, 65.78194427, -33.96667480, 9.23706532, -64.33791351, 104.08099365, -19.48775864, -122.78251648, -0.40742743, 0.28068921, -0.73204583, -0.46832183, -0.08468454, 0.09371977, -0.12662531, 99.97400665, 113.07157135, 30.21999931, 0.00000000
1, 2.1350, 269, -0.27687398, -1.03524172, 0.35675356, -2.50878382, 20.79946327, 66.71936035, -33.93744659, 8.27243519, -64.04560089, 104.06201172, -19.83662033, -122.76093292, -0.40948486, 0.27894330, -0.73243964, -0.46695292, -0.06192265, 0.12170111, -0.13037482, 99.97400665, 113.07157135, 30.21999931, 0.00000000
1, 2.1400, 270, -0.28456596, -1.02115679, 0.36149234, -3.29140043, 23.81617546, 67.01154327, -33.93744659, 8.27243519, -64.04560089, 104.03371429, -20.19054604, -122.72393799, -0.41165027, 0.27723294, -0.73276019, -0.46556264, -0.06002137, 0.10953844, -0.13602689, 99.97400665, 113.07157135, 30.21999931, 0.00000000
1, 2.1450, 271, -0.26620436, -1.02140939, 0.37466943, -2.46984434, 29.52356911, 67.52270508, -33.93744659, 8.27243519, -64.04560089, 103.99914551, -20.55378914, -122.65773773, -0.41399437, 0.27563465, -0.73299348, -0.46406338, -0.08432249, 0.11175396, -0.15022196, 99.97400665, 113.07157135, 30.21999931, 0.00000000
1, 2.1650, 272, -0.18081836, -1.12530684, 0.28935114, -7.47154379, 23.30332756, 70.94332886, -35.83747482, 10.20169544, -63.89944458, 103.82581329, -22.03466415, -122.41094971, -0.42346251, 0.26881373, -0.73382348, -0.45817238, -0.19355762, 0.22418287, -0.06979971, 99.97400665, 113.07157135, 30.21999931, 0.00000000
1, 2.1700, 273, -0.18336169, -1.18925083, 0.22692186, -7.74419546, 22.79739952, 73.07292938, -35.83747482, 10.20169544, -63.89944458, 103.77507782, -22.40619659, -122.38372803, -0.42569792, 0.26684299, -0.73407215, -0.45685247, -0.19691119, 0.29043192, -0.00883069, 99.97400665, 113.07157135, 30.21999931, 0.00000000
1, 2.1750, 274, -0.16555414, -1.22144759, 0.17489503, -10.27112579, 23.32579613, 74.83524323, -36.86056519, 10.20169544, -63.69482422, 103.71424103, -22.79744720, -122.35665131, -0.42805538, 0.26472494, -0.73430234, -0.45551002, -0.22077426, 0.32497913, 0.04166305, 99.97400665, 113.07157135, 30.21999931, 0.00000000
1, 2.1800, 275, -0.11041487, -1.20148361, 0.16551065, -12.14863110, 26.14674759, 77.09960938, -36.86056519, 10.20169544, -63.69482422, 103.63893890, -23.20301247, -122.31697845, -0.43056470, 0.26255223, -0.73445964, -0.45414698, -0.28234664, 0.30740571, 0.04944396, 99.97400665, 113.07157135, 30.21999931, 0.00000000
1, 2.1850, 276, -0.07252627, -1.18997407, 0.20054269, -12.10971451, 29.55152893, 80.40506744, -37.21134186, 10.87401295, -64.04560089, 103.55786133, -23.62857056, -122.26276398, -0.43324214, 0.26033872, -0.73458171, -0.45267510, -0.32708079, 0.29836670, 0.01259039, 99.97400665, 113.07157135, 30.21999931, 0.00000000
1, 2.1900, 277, -0.03534849, -1.20916569, 0.28465948, -11.85864925, 30.13504982, 83.78079224, -37.21134186, 10.87401295, -64.04560089, 103.47783661, -24.07115555, -122.20890045, -0.43599588, 0.25802973, -0.73472524, -0.45111769, -0.37146014, 0.32010901, -0.07343840, 99.97400665, 113.07157135, 30.21999931, 0.00000000
1, 2.1950, 278, -0.05551638, -1.24070823, 0.31763327, -13.70332623, 24.47929955, 86.57880402, -37.21134186, 10.87401295, -64.04560089, 103.40179443, -24.52078247, -122.18791962, -0.43863758, 0.25548044, -0.73496038, -0.44962221, -0.35851038, 0.35442922, -0.10844940, 99.97400665, 113.07157135, 30.21999931, 0.00000000
1, 2.2000, 279, -0.10935065, -1.26246345, 0.30662787, -16.33195877, 18.89204979, 89.14305115, -37.56211472, 10.61093235, -63.92867661, 103.32606506, -24.97647285, -122.19939423, -0.44117305, 0.25268453, -0.73526788, -0.44821656, -0.31185246, 0.37913895, -0.09954297, 99.97400665, 113.07157135, 30.21999931, 0.00000000
1, 2.2050, 280, -0.14891770, -1.27362204, 0.27634653, -17.97480965, 17.04435921, 91.53852844, -37.56211472, 10.61093235, -63.92867661, 103.24745941, -25.44174576, -122.22320557, -0.44370711, 0.24973971, -0.73559290, -0.44683015, -0.27952152, 0.39339697, -0.07136030, 99.97400665, 113.07157135, 30.21999931, 0.00000000
1, 2.2100, 281, -0.16534483, -1.28764307, 0.27095962, -18.61818695, 20.84187317, 94.19603729, -38.55597687, 9.26629639, -64.89330292, 103.15812683, -25.92431450, -122.22917175, -0.44641399, 0.24676712, -0.73584777, -0.44536346, -0.27060115, 0.41061872, -0.06817879, 99.97400665, 113.07157135, 30.21999931, 0.00000000
1, 2.2400, 282, 0.07386177, -1.42819452, 0.41390735, -21.77531242, 29.78504181, 110.95897675, -39.92984390, 10.69862556, -64.74714661, 102.45582581, -29.16822052, -121.99952698, -0.46552008, 0.22788951, -0.73636556, -0.43488315, -0.56008106, 0.57378829, -0.22700980, 99.97400665, 113.07157135, 30.21999931, 0.00000000
1, 2.2450, 283, 0.08920432, -1.48317313, 0.44144025, -22.44609833, 27.88312912, 117.44188690, -39.92984390, 10.69862556, -64.74714661, 102.33881378, -29.77192116, -121.98686218, -0.46886438, 0.22419527, -0.73653215, -0.43292382, -0.58454996, 0.63330382, -0.25744423, 99.97400665, 113.07157135, 30.21999931, 0.00000000
1, 2.2500, 284, 0.11071789, -1.51516986, 0.45416060, -23.99575043, 27.43436432, 121.09634399, -41.21601868, 10.72785759, -64.98100281, 102.21675110, -30.39299965, -121.97966766, -0.47226477, 0.22033697, -0.73669291, -0.43093067, -0.61542124, 0.67013621, -0.27309051, 99.97400665, 113.07157135, 30.21999931, 0.00000000
1, 2.2550, 285, 0.13554661, -1.54055142, 0.45643118, -24.58938980, 27.40517998, 125.02906036, -41.21601868, 10.72785759, -64.98100281, 102.09339905, -31.03327179, -121.97581482, -0.47572920, 0.21633285, -0.73685777, -0.42886195, -0.64980721, 0.70063388, -0.27834606, 99.97400665, 113.07157135, 30.21999931, 0.00000000
1, 2.2600, 286, 0.15878274, -1.57179248, 0.43198413, -25.30947495, 26.02135658, 128.75581360, -41.91756821, 10.87401295, -65.91639709, 101.97206879, -31.69035339, -121.98278046, -0.47921014, 0.21216103, -0.73704857, -0.42673737, -0.68273306, 0.73730946, -0.25690550, 99.97400665, 113.07157135, 30.21999931, 0.00000000
1, 2.2650, 287, 0.16631547, -1.59733057, 0.39385167, -26.35770035, 25.13952255, 131.76263428, -41.91756821, 10.87401295, -65.91639709, 101.84938812, -32.36125946, -121.99686432, -0.48271185, 0.20784691, -0.73724061, -0.42457661, -0.70006621, 0.76855278, -0.22183658, 99.97400665, 113.07157135, 30.21999931, 0.00000000
1, 2.2700, 288, 0.16519657, -1.61800051, 0.35177416, -26.05550385, 27.29924011, 134.78970337, -41.91756821, 10.87401295, -66.00408936, 101.72280121, -33.04057693, -122.00048828, -0.48627594, 0.20352244, -0.73738629, -0.42234576, -0.70883429, 0.79515076, -0.18291181, 99.97400665, 113.07157135, 30.21999931, 0.00000000
1, 2.2750, 289, 0.18346286, -1.65993297, 0.34705654, -23.98702431, 33.40934372, 137.85337830, -42.70681000, 11.54633141, -66.00408936, 101.58775330, -33.74961853, -121.96997833, -0.49009907, 0.19920111, -0.73744643, -0.41987473, -0.73729849, 0.84324789, -0.18146411, 99.97400665, 113.07157135, 30.21999931, 0.00000000
1, 2.2800, 290, 0.21454252, -1.71153271, 0.34058660, -22.43140411, 40.64141083, 140.42456055, -42.70681000, 11.54633141, -66.00408936, 101.43657684, -34.47833633, -121.89733887, -0.49416837, 0.19495541, -0.73737270, -0.41721880, -0.77884686, 0.90134388, -0.17849785, 99.97400665, 113.07157135, 30.21999931, 0.00000000
1, 2.2850, 291, 0.22117124, -1.76439285, 0.32542485, -22.02391624, 45.70903778, 142.78350830, -43.84682846, 9.67553329, -65.97486115, 101.26921082, -35.22340012, -121.79410553, -0.49841911, 0.19072707, -0.73718578, -0.41443795, -0.79607874, 0.96097887, -0.16716023, 99.97400665, 113.07157135, 30.21999931, 0.00000000
1, 2.3000, 292, 0.14638673, -1.91323137, 0.33936852, -16.36843300, 75.81214905, 145.95278931, -44.95761490, 12.48173046, -66.99795532, 100.60497284, -37.54470825, -121.14205170, -0.51280242, 0.17891587, -0.73549187, -0.40506127, -0.75385511, 1.13145494, -0.19482595, 99.97400665, 113.07157135, 30.21999931, 0.00000000
1, 2.3050, 293, 0.11434597, -1.98579371, 0.35711154, -15.86210060, 98.47571564, 145.18960571, -44.95761490, 12.48173046, -66.99795532, 100.25125885, -38.34739304, -120.69299316, -0.51864004, 0.17565268, -0.73411971, -0.40153080, -0.73290884, 1.21156001, -0.21885318, 99.97400665, 113.07157135, 30.21999931, 0.00000000
1, 2.3100, 294, 0.16186559, -2.00422668, 0.33885193, -15.94841576, 119.81138611, 142.93014526, -46.56533051, 12.74481106, -66.76410675, 99.79853058, -39.15482712, -120.09445190, -0.52508891, 0.17282355, -0.73219937, -0.39786667, -0.79139256, 1.23763502, -0.20778063, 99.97400665, 113.07157135, 30.21999931, 0.00000000
1, 2.3150, 295, 0.28849226, -1.96654594, 0.32703131, -15.13491631, 143.11543274, 140.25045776, -46.56533051, 12.74481106, -66.76410675, 99.23620605, -39.96397018, -119.32778931, -0.53219116, 0.17049189, -0.72968602, -0.39403474, -0.92890322, 1.20758915, -0.20420179, 99.97400665, 113.07157135, 30.21999931, 0.00000000
1, 2.3200, 296, 0.43823236, -1.90644789, 0.36241373, -12.98036003, 164.43624878, 137.96208191, -48.20227814, 13.35866737, -67.61180878, 98.57243347, -40.76590729, -118.40036011, -0.53984571, 0.16867045, -0.72663456, -0.39002454, -1.08947515, 1.15504599, -0.24895746, 99.97400665, 113.07157135, 30.21999931, 0.00000000
1, 2.3250, 297, 0.59668553, -1.81029463, 0.36914098, -13.13481236, 179.70391846, 135.97946167, -48.20227814, 13.35866737, -67.61180878, 97.81435394, -41.56579208, -117.34600830, -0.54792780, 0.16711962, -0.72314209, -0.38589078, -1.25847876, 1.06652009, -0.26605126, 99.97400665, 113.07157135, 30.21999931, 0.00000000
1, 2.3300, 298, 0.70097977, -1.70397687, 0.40364462, -13.87670135, 187.90498352, 135.06271362, -48.20227814, 13.35866737, -67.61180878, 96.98589325, -42.35528946, -116.20830536, -0.55620390, 0.16570190, -0.71936226, -0.38170439, -1.37316597, 0.96787077, -0.31181931, 99.97400665, 113.07157135, 30.21999931, 0.00000000
1, 2.3350, 299, 0.71156031, -1.62320256, 0.39117691, -13.72525597, 190.35128784, 136.24078369, -50.21923447, 13.76790428, -68.86875153, 96.11566925, -43.13941574, -115.02484131, -0.56451750, 0.16427496, -0.71545994, -0.37742677, -1.39381003, 0.89500999, -0.31131759, 99.97400665, 113.07157135, 30.21999931, 0.00000000
1, 2.3400, 300, 0.63626987, -1.56126225, 0.41275877, -13.97937012, 168.10472107, 140.06021118, -50.21923447, 13.76790428, -68.86875153, 95.31822968, -43.91891479, -113.96579742, -0.57214671, 0.16233954, -0.71205908, -0.37318361, -1.32848501, 0.84125900, -0.34432086, 99.97400665, 113.07157135, 30.21999931, 0.00000000
1, 2.3450, 301, 0.47085348, -1.55061519, 0.40276301, -19.17133713, 142.62365723, 144.81182861, -51.85618210, 13.73867321, -69.30722046, 94.59056091, -44.70107651, -113.05862427, -0.57905042, 0.15969656, -0.70918310, -0.36913007, -1.17282939, 0.83924389, -0.34482789, 99.97400665, 113.07157135, 30.21999931, 0.00000000
1, 2.4050, 302, -0.49740291, -0.58621168, -0.01201527, -6.37671471, 34.01388168, 89.62213135, -56.27009583, 17.77258110, -72.05495453, 89.38987732, -52.89826202, -107.91550446, -0.62778085, 0.11449888, -0.69546974, -0.33030760, -0.29899514, -0.01847740, 0.00406957, 99.97400665, 113.07157135, 30.21999931, 0.00000000
1, 2.4100, 303, -0.55242163, -0.41414112, -0.06747169, -7.31626081, 26.97852325, 79.02085114, -57.05933762, 17.86027527, -72.08418274, 89.16725159, -53.29149628, -107.68156433, -0.62977320, 0.11229679, -0.69501483, -0.32822198, -0.24817500, -0.18467425, 0.05718761, 99.97400665, 113.07157135, 30.21999931, 0.00000000
1, 2.4150, 304, -0.76217330, -0.17595507, -0.15433678, -4.86987114, 9.46320152, 63.60494232, -57.05933762, 17.86027527, -72.08418274, 89.07258606, -53.60873795, -107.59302521, -0.63099480, 0.11037526, -0.69499332, -0.32656881, -0.04164048, -0.41808200, 0.14269656, 99.97400665, 113.07157135, 30.21999931, 0.00000000
1, 2.4200, 305, -1.03560197, -0.10407550, -0.16258158, 3.09209061, -1.29330230, 53.04701614, -57.20549393, 18.76644325, -72.84420013, 89.06838226, -53.92136765, -107.57757568, -0.63190037, 0.10853519, -0.69529313, -0.32479152, 0.22868608, -0.48569721, 0.15025243, 99.97400665, 113.07157135, 30.21999931, 0.00000000
1, 2.4250, 306, -1.29408169, -0.15696448, -0.17243521, 10.89392090, -1.74170399, 42.52651596, -57.20549393, 18.76644325, -72.84420013, 89.13028717, -54.13397598, -107.58611298, -0.63239878, 0.10752515, -0.69569510, -0.32329327, 0.48462778, -0.42928094, 0.15990114, 99.97400665, 113.07157135, 30.21999931, 0.00000000
1, 2.4300, 307, -1.38152599, -0.23871464, -0.15596710, 19.46609306, 10.75533581, 32.79549789, -57.20549393, 18.76644325, -72.84420013, 89.14958191, -54.29681396, -107.48943329, -0.63309616, 0.10722321, -0.69582486, -0.32174560, 0.57024205, -0.34508649, 0.14346728, 99.97400665, 113.07157135, 30.21999931, 0.00000000
1, 2.4350, 308, -1.23652804, -0.33669943, 0.04402070, 34.35602188, 30.08064461, 22.37566376, -57.67319489, 19.05875397, -71.44110107, 89.10931396, -54.40571976, -107.22816467, -0.63416034, 0.10792100, -0.69557822, -0.31994483, 0.42349333, -0.24567977, -0.05656388, 99.97400665, 113.07157135, 30.21999931, 0.00000000
1, 2.4400, 309, -0.98437864, -0.44399485, 0.36168289, 44.82209396, 41.07417297, 9.18463898, -57.67319489, 19.05875397, -71.44110107, 89.04524231, -54.44743347, -106.87375641, -0.63531995, 0.10946175, -0.69510698, -0.31814006, 0.16995241, -0.13805382, -0.37438685, 99.97400665, 113.07157135, 30.21999931, 0.00000000
1, 2.4450, 310, -0.74385995, -0.49299672, 0.55382121, 39.91605759, 37.55430603, -5.66387844, -57.73165512, 18.53259277, -71.99649048, 88.98294067, -54.41509628, -106.55190277, -0.63618553, 0.11126528, -0.69459009, -0.31691104, -0.07090458, -0.08955050, -0.56663579, 99.97400665, 113.07157135, 30.21999931, 0.00000000
1, 2.4500, 311, -0.56867772, -0.41885707, 0.46006915, 26.23691368, 33.14561462, -20.00127792, -57.73165512, 18.53259277, -71.99649048, 88.88554382, -54.31144714, -106.27097321, -0.63678259, 0.11305957, -0.69393384, -0.31651449, -0.24497652, -0.16474351, -0.47322184, 99.97400665, 113.07157135, 30.21999931, 0.00000000
1, 2.4750, 312, 0.08745337, -0.01234279, -0.09874095, 23.60474968, 15.68491268, -84.84492493, -57.90704346, 19.35106659, -71.99649048, 88.22814941, -52.79386139, -104.85980225, -0.63740760, 0.12717955, -0.68882287, -0.32102972, -0.88483012, -0.59035659, 0.08014170, 99.97400665, 113.07157135, 30.21999931, 0.00000000
1, 2.4800, 313, 0.08379420, -0.02956083, -0.10945744, 29.77274132, 9.19354439, -95.24329376, -57.90704346, 19.35106659, -71.99649048, 88.33553314, -52.31605530, -104.80905151, -0.63617378, 0.13099158, -0.68844974, -0.32274020, -0.87622070, -0.57960337, 0.09159197, 99.97400665, 113.07157135, 30.21999931, 0.00000000
1, 2.4850, 314, 0.06086566, -0.07429556, -0.08001611, 35.94968033, 7.88765621, -105.44808197, -57.84858322, 18.94182968, -71.73341370, 88.48330688, -51.78744507, -104.77017212, -0.63470763, 0.13525985, -0.68812668, -0.32455012, -0.84784579, -0.54206628, 0.06330146, 99.97400665, 113.07157135, 30.21999931, 0.00000000
1, 2.4900, 315, 0.02399891, -0.13267854, -0.02328105, 39.51819992, 4.57923412, -115.87770844, -57.84858322, 18.94182968, -71.73341370, 88.66996765, -51.20714951, -104.75807953, -0.63295639, 0.13988888, -0.68786627, -0.32655400, -0.80497521, -0.49158621, 0.00809033, 99.97400665, 113.07157135, 30.21999931, 0.00000000
1, 2.4950, 316, -0.02696520, -0.18112263, 0.02367419, 39.97764587, -3.45239520, -126.55558777, -57.11780167, 18.53259277, -72.11341858, 88.90722656, -50.57442474, -104.80828857, -0.63078928, 0.14473088, -0.68774778, -0.32887834, -0.74732733, -0.45168239, -0.03679463, 99.97400665, 113.07157135, 30.21999931, 0.00000000
1, 2.5000, 317, -0.10038298, -0.20355108, 0.03884093, 37.82763672, -13.16349316, -136.39903259, -57.11780167, 18.53259277, -72.11341858, 89.18862915, -49.89327621, -104.93058014, -0.62818062, 0.14966299, -0.68777877, -0.33158797, -0.66650182, -0.43833029, -0.04932856, 99.97400665, 113.07157135, 30.21999931, 0.00000000
1, 2.5050, 318, -0.18709527, -0.20807649, 0.02239280, 35.85398483, -22.60955238, -145.60746765, -57.11780167, 18.53259277, -72.11341858, 89.50960541, -49.16633224, -105.11927795, -0.62514222, 0.15467304, -0.68795198, -0.33465740, -0.57166994, -0.44335014, -0.02970789, 99.97400665, 113.07157135, 30.21999931, 0.00000000
1, 2.5100, 319, -0.27584338, -0.21034697, -0.00499903, 35.63692093, -30.13696480, -154.30181885, -55.71470261, 17.33411217, -71.20724487, 89.86414337, -48.39546585, -105.35628510, -0.62172288, 0.15981984, -0.68823707, -0.33800605, -0.47414756, -0.45106649, 0.00135507, 99.97400665, 113.07157135, 30.21999931, 0.00000000
1, 2.5150, 320, -0.37848380, -0.21650691, -0.03837520, 38.20063019, -35.14479828, -162.48075867, -55.71470261, 17.33411217, -71.20724487, 90.24884033, -47.58269882, -105.61966705, -0.61798179, 0.16519880, -0.68860292, -0.34151730, -0.36208671, -0.45529342, 0.03885441, 99.97400665, 113.07157135, 30.21999931, 0.00000000
1, 2.5200, 321, -0.44586211, -0.23258020, -0.04655055, 41.43392181, -37.04475784, -172.20657349, -54.83776474, 16.25255775, -70.73954773, 90.64550018, -46.72452927, -105.88249969, -0.61400104, 0.17088930, -0.68895435, -0.34516883, -0.28463489, -0.45009631, 0.05159175, 99.97400665, 113.07157135, 30.21999931, 0.00000000
1, 2.5350, 322, -0.50128722, -0.28703597, 0.03510791, 49.29420853, -37.61293030, -201.06295776, -54.01929092, 16.95410728, -70.56416321, 91.89296722, -43.83668518, -106.60644531, -0.60058707, 0.19031699, -0.68970484, -0.35690615, -0.19461547, -0.43087807, -0.01432625, 99.97400665, 113.07157135, 30.21999931, 0.00000000
1, 2.5400, 323, -0.48141846, -0.28996435, 0.02933501, 46.57895279, -35.96429825, -211.29443359, -54.01929092, 16.95410728, -70.56416321, 92.25818634, -42.77405548, -106.80314636, -0.59579325, 0.19731013, -0.68958688, -0.36134365, -0.20119505, -0.44039476, -0.00334276, 99.97400665, 113.07157135, 30.21999931, 0.00000000
1, 2.5450, 324, -0.44318148, -0.29250032, 0.01804215, 44.07979965, -34.42987442, -221.04067993, -52.44080734, 16.19409561, -69.54106903, 92.59109497, -41.66223907, -106.97463989, -0.59085655, 0.20453584, -0.68923998, -0.36606282, -0.22524980, -0.45061570, 0.01295147, 99.97400665, 113.07157135, 30.21999931, 0.00000000
1, 2.5500, 325, -0.39187297, -0.28225261, 0.00665561, 41.90741730, -33.29217529, -230.09947205, -52.44080734, 16.19409561, -69.54106903, 92.89633942, -40.50476074, -107.12461090, -0.58576798, 0.21197422, -0.68867755, -0.37103397, -0.26151779, -0.47386026, 0.02917405, 99.97400665, 113.07157135, 30.21999931, 0.00000000
1, 2.5550, 326, -0.34014180, -0.27327418, 0.00253208, 40.47414780, -34.28983307, -238.44740295, -52.44080734, 16.19409561, -69.54106903, 93.18764496, -39.30479050, -107.26782990, -0.58046275, 0.21958636, -0.68796462, -0.37623072, -0.29738003, -0.49601233, 0.03804690, 99.97400665, 113.07157135, 30.21999931, 0.00000000
1, 2.5600, 327, -0.30584922, -0.28532961, -0.00893628, 39.44516373, -36.11213684, -245.66345215, -50.97924423, 12.51096153, -69.48260498, 93.47063446, -38.06777573, -107.40991974, -0.57492644, 0.22733252, -0.68713135, -0.38161498, -0.31498402, -0.49718302, 0.05420721, 99.97400665, 113.07157135, 30.21999931, 0.00000000
1, 2.5650, 328, -0.29797766, -0.31311801, -0.02475981, 38.98330688, -37.53668213, -251.82565308, -50.97924423, 12.51096153, -69.48260498, 93.74668884, -36.79904175, -107.54855347, -0.56917852, 0.23519951, -0.68618035, -0.38713527, -0.30541363, -0.48257947, 0.07466486, 99.97400665, 113.07157135, 30.21999931, 0.00000000
1, 2.5700, 329, -0.27006847, -0.32881483, -0.05638622, 38.51266861, -38.10435867, -257.40649414, -49.25460434, 13.65097904, -68.34259033, 94.00951385, -35.50244522, -107.67675018, -0.56326669, 0.24317282, -0.68507540, -0.39277148, -0.31513929, -0.47993523, 0.11095963, 99.97400665, 113.07157135, 30.21999931, 0.00000000
1, 2.5750, 330, -0.27781522, -0.37950680, -0.08427507, 39.81631088, -41.45852280, -263.81243896, -49.25460434, 13.65097904, -68.34259033, 94.28428650, -34.17155075, -107.81504822, -0.55703843, 0.25128677, -0.68392891, -0.39850271, -0.28848675, -0.44216204, 0.14351252, 99.97400665, 113.07157135, 30.21999931, 0.00000000
1, 2.5800, 331, -0.30151436, -0.40016398, -0.10216164, 41.34381104, -45.49216461, -269.39614868, -49.25460434, 13.65097904, -68.34259033, 94.57033539, -32.81072617, -107.96494293, -0.55049670, 0.25949800, -0.68274879, -0.40431219, -0.24512705, -0.43427217, 0.16639847, 99.97400665, 113.07157135, 30.21999931, 0.00000000
1, 2.6050, 332, -0.46462116, -0.59507620, -0.02535934, 53.10512161, -60.57589722, -301.62759399, -45.68839645, 12.21864891, -67.69950104, 96.17945862, -25.49447632, -108.78519440, -0.51282716, 0.30278081, -0.67594695, -0.43408284, 0.02820589, -0.29948521, 0.11878138, 99.97400665, 113.07157135, 30.21999931, 0.00000000
1, 2.6100, 333, -0.45428127, -0.62430656, 0.01569961, 52.54107285, -62.63524628, -308.96035767, -43.49605179, 11.51710033, -67.23180389, 96.50418091, -23.92414284, -108.94271088, -0.50437921, 0.31182677, -0.67419249, -0.44026154, 0.04242975, -0.28124177, 0.08410375, 99.97400665, 113.07157135, 30.21999931, 0.00000000
1, 2.6150, 334, -0.47113177, -0.67878807, 0.06582459, 50.28976440, -63.26168060, -315.64163208, -43.49605179, 11.51710033, -67.23180389, 96.80886841, -22.31954384, -109.08812714, -0.49571520, 0.32094526, -0.67218417, -0.44657487, 0.08470470, -0.23731910, 0.04005822, 99.97400665, 113.07157135, 30.21999931, 0.00000000
1, 2.6200, 335, -0.52322847, -0.74633467, 0.09333098, 46.78379440, -59.97966385, -321.61782837, -41.18678665, 10.43554497, -66.99795532, 97.08054352, -20.69035149, -109.20188141, -0.48699570, 0.33014098, -0.66982377, -0.45296615, 0.16303036, -0.17977521, 0.01808207, 99.97400665, 113.07157135, 30.21999931, 0.00000000
1, 2.6250, 336, -0.54547459, -0.81387603, 0.07202061, 45.19298553, -56.22969818, -327.53723145, -41.18678665, 10.43554497, -66.99795532, 97.33000183, -19.02993584, -109.28286743, -0.47817162, 0.33949971, -0.66711724, -0.45939803, 0.21236736, -0.12159070, 0.04459231, 99.97400665, 113.07157135, 30.21999931, 0.00000000
1, 2.6300, 337, -0.55862671, -0.95035923, 0.05769798, 44.73649597, -52.66072083, -335.68356323, -41.18678665, 10.43554497, -66.99795532, 97.56475830, -17.33111191, -109.33149719, -0.46919021, 0.34908286, -0.66406006, -0.46586043, 0.25345442, 0.00611220, 0.06378363, 99.97400665, 113.07157135, 30.21999931, 0.00000000
1, 2.6350, 338, -0.58410388, -1.03193200, 0.07639512, 42.81743622, -48.62823868, -343.34460449, -38.49751663, 10.28938866, -66.09178162, 97.77899933, -15.59684849, -109.34659576, -0.46009213, 0.35885090, -0.66061336, -0.47236782, 0.30769175, 0.07947128, 0.04971006, 99.97400665, 113.07157135, 30.21999931, 0.00000000
1, 2.6400, 339, -0.66099244, -1.17517340, 0.09659192, 38.77896881, -40.63713837, -354.17922974, -38.49751663, 10.28938866, -66.09178162, 97.95852661, -13.81432343, -109.30695343, -0.45095432, 0.36892802, -0.65659547, -0.47897273, 0.41438973, 0.21509969, 0.03330228, 99.97400665, 113.07157135, 30.21999931, 0.00000000
1, 2.6800, 340, -0.13104582, -1.62744176, -0.16268507, 60.10767746, -83.24739075, -351.89102173, -28.23735809, 9.96784592, -64.65945435, 99.66660309, 0.96644086, -107.93419647, -0.37420419, 0.45390666, -0.61474711, -0.52538186, 0.14046666, 0.64176011, 0.32632083, 99.97400665, 113.07157135, 30.21999931, 0.00000000
1, 2.6850, 341, -0.22252992, -1.70773804, -0.41552344, 61.36497879, -121.70631409, -335.19247437, -28.23735809, 9.96784592, -64.65945435, 99.95868683, 2.72185445, -108.25113678, -0.36199820, 0.46102375, -0.61141497, -0.53158832, 0.26350287, 0.72408032, 0.58371395, 99.97400665, 113.07157135, 30.21999931, 0.00000000
1, 2.6900, 342, -0.25617114, -1.62908435, -0.45461565, 69.45004272, -143.01016235, -321.15139771, -28.23735809, 9.96784592, -64.65945435, 100.27487183, 4.42840099, -108.67678070, -0.34929752, 0.46728474, -0.60873950, -0.53765464, 0.32718179, 0.64802957, 0.62775040, 99.97400665, 113.07157135, 30.21999931, 0.00000000
1, 2.6950, 343, -0.26831040, -1.50229907, -0.28519517, 89.17774200, -149.33549500, -301.46838379, -25.69424057, 11.02016926, -63.46097565, 100.67466736, 6.04659653, -109.14153290, -0.33640292, 0.47306883, -0.60688251, -0.54289281, 0.36742586, 0.52453053, 0.46460554, 99.97400665, 113.07157135, 30.21999931, 0.00000000
1, 2.7000, 344, -0.34557900, -1.51588428, 0.02435317, 101.36437225, -126.91247559, -285.00009155, -25.69424057, 11.02016926, -63.46097565, 101.13564301, 7.56646395, -109.49993134, -0.32416549, 0.47902763, -0.60519224, -0.54698420, 0.47071266, 0.54202068, 0.16190487, 99.97400665, 113.07157135, 30.21999931, 0.00000000
1, 2.7050, 345, -0.44759601, -1.58018517, 0.30704018, 103.41744232, -105.47592926, -271.72122192, -23.26804924, 8.91552162, -62.70096207, 101.61287689, 9.00318623, -109.75376129, -0.31270474, 0.48508638, -0.60340691, -0.55027908, 0.59719026, 0.61089718, -0.11374425, 99.97400665, 113.07157135, 30.21999931, 0.00000000
1, 2.7100, 346, -0.56495368, -1.68846202, 0.51315647, 96.52913666, -104.23848724, -261.82449341, -23.26804924, 8.91552162, -62.70096207, 102.05055237, 10.39215660, -110.00093842, -0.30160600, 0.49073592, -0.60154223, -0.55349725, 0.73811734, 0.72429514, -0.31352282, 99.97400665, 113.07157135, 30.21999931, 0.00000000
1, 2.7150, 347, -0.73803872, -1.80543256, 0.58734363, 80.23322296, -116.87760162, -254.76765442, -23.26804924, 8.91552162, -62.70096207, 102.38906860, 11.76134396, -110.31009674, -0.29064655, 0.49559870, -0.59950310, -0.55722761, 0.93456471, 0.84682679, -0.38312575, 99.97400665, 113.07157135, 30.21999931, 0.00000000
1, 2.7200, 348, -0.91643453, -1.80452764, 0.49385399, 59.73574066, -117.64629364, -248.91671753, -20.72493362, 12.62788677, -62.58403778, 102.61727142, 13.09993076, -110.62416840, -0.28023112, 0.49993587, -0.59702623, -0.56133270, 1.13621366, 0.85182309, -0.28691405, 99.97400665, 113.07157135, 30.21999931, 0.00000000
1, 2.7250, 349, -1.01949143, -1.69162917, 0.35519460, 45.54148483, -98.09319305, -241.39970398, -20.72493362, 12.62788677, -62.58403778, 102.78955841, 14.38540649, -110.84547424, -0.27075502, 0.50432748, -0.59402740, -0.56522292, 1.26167512, 0.74496388, -0.14645985, 99.97400665, 113.07157135, 30.21999931, 0.00000000
1, 2.7300, 350, -1.14247799, -1.52925229, 0.26684591, 40.12220764, -71.18163300, -231.08500671, -18.50336075, 10.90324497, -62.78865814, 102.96300507, 15.59139252, -110.94002533, -0.26231551, 0.50899029, -0.59073043, -0.56846917, 1.40559542, 0.58866006, -0.05655315, 99.97400665, 113.07157135, 30.21999931, 0.00000000
1, 2.7500, 351, -0.39685142, -0.97493124, 0.29237312, 28.95896912, 43.46102905, -137.60043335, -16.80795097, 14.38175964, -62.55480957, 103.94762421, 19.20786858, -110.21158600, -0.23967089, 0.52861196, -0.57825381, -0.57336706, 0.72278666, 0.05691484, -0.06821997, 99.97400665, 113.07157135, 30.21999931, 0.00000000
1, 2.7550, 352, 0.14553389, -0.94226468, 0.09417086, 23.43592644, 65.06163025, -97.40631866, -16.69102669, 15.02484608, -62.05787659, 104.21640015, 19.60210419, -109.75203705, -0.23832862, 0.53293300, -0.57589769, -0.57229692, 0.18833178, 0.02816710, 0.13504179, 99.97400665, 113.07157135, 30.21999931, 0.00000000
1, 2.7600, 353, 0.56872910, -0.98441994, 0.09291252, 22.86414909, 72.28897858, -53.02596664, -16.69102669, 15.02484608, -62.05787659, 104.47882843, 19.77036667, -109.31060028, -0.23828337, 0.53630489, -0.57447314, -0.57059520, -0.23118110, 0.07267299, 0.14119534, 99.97400665, 113.07157135, 30.21999931, 0.00000000
1, 2.7650, 354, 0.74253827, -1.05981302, 0.24216518, 19.69113731, 59.04258347, -9.90670109, -16.69102669, 15.02484608, -62.05787659, 104.68436432, 19.74470520, -108.99369812, -0.23905116, 0.53822887, -0.57411206, -0.56882310, -0.40503633, 0.14885509, -0.00422193, 99.97400665, 113.07157135, 30.21999931, 0.00000000
1, 2.7700, 355, 0.70208925, -1.09973919, 0.37435979, 11.63723087, 27.34542656, 26.63067436, -16.83718109, 13.73867321, -61.38555908, 104.78218842, 19.59050560, -108.88759613, -0.24005373, 0.53841203, -0.57471728, -0.56761491, -0.36701620, 0.18836442, -0.13438216, 99.97400665, 113.07157135, 30.21999931, 0.00000000
1, 2.7750, 356, 0.50107616, -1.13569736, 0.43693992, 3.04871511, -11.77612495, 55.88229752, -16.83718109, 13.73867321, -61.38555908, 104.75302887, 19.33517456, -109.02307129, -0.24106912, 0.53675288, -0.57623011, -0.56722212, -0.16994202, 0.22293457, -0.19713762, 99.97400665, 113.07157135, 30.21999931, 0.00000000
1, 2.7800, 357, 0.22346029, -1.17572773, 0.48875767, -3.04071355, -44.24831009, 78.88110352, -17.07103157, 15.20023346, -61.79479599, 104.62982941, 19.00923157, -109.35500336, -0.24197859, 0.53364158, -0.57846868, -0.56749183, 0.10245302, 0.26073468, -0.25088310, 99.97400665, 113.07157135, 30.21999931, 0.00000000
1, 2.7850, 358, 0.00794156, -1.17189384, 0.52872556, -9.68164921, -64.58898926, 96.88320923, -17.07103157, 15.20023346, -61.79479599, 104.43490601, 18.62053871, -109.81304932, -0.24297106, 0.52949101, -0.58116663, -0.56819880, 0.31170279, 0.25405294, -0.29368544, 99.97400665, 113.07157135, 30.21999931, 0.00000000
1, 2.7900, 359, -0.11478791, -1.10916460, 0.52016705, -18.29566193, -81.41145325, 111.24369812, -17.07103157, 15.20023346, -61.79479599, 104.16812897, 18.18103981, -110.37285614, -0.24408513, 0.52445102, -0.58414465, -0.56934059, 0.42737889, 0.18802437, -0.28872585, 99.97400665, 113.07157135, 30.21999931, 0.00000000
1, 2.7950, 360, -0.24233027, -1.02058530, 0.36634552, -27.78295517, -99.81551361, 124.42089081, -16.60333252, 14.46945286, -61.59017944, 103.82552338, 17.69674492, -111.03928375, -0.24526522, 0.51849365, -0.58736110, -0.57097840, 0.54745108, 0.09590781, -0.13966715, 99.97400665, 113.07157135, 30.21999931, 0.00000000
1, 2.8000, 361, -0.38671055, -0.97576380, 0.18298008, -33.32621765, -113.93892670, 142.10156250, -16.60333252, 14.46945286, -61.59017944, 103.43468475, 17.13891411, -111.79416656, -0.24663597, 0.51164240, -0.59095818, -0.57285362, 0.68326914, 0.04710214, 0.03788384, 99.97400665, 113.07157135, 30.21999931, 0.00000000
1, 2.8050, 362, -0.65844285, -0.93919456, -0.02612824, -39.95524597, -132.26538086, 160.36181641, -16.69102669, 13.82636642, -62.32095718, 102.98706818, 16.50760841, -112.65723419, -0.24812122, 0.50375241, -0.59495163, -0.57506704, 0.94536269, 0.00619589, 0.24005960, 99.97400665, 113.07157135, 30.21999931, 0.00000000
1, 2.8100, 363, -0.90145177, -0.90847063, -0.08983842, -38.50603104, -128.34101868, 174.52787781, -16.69102669, 13.82636642, -62.32095718, 102.55979156, 15.79661560, -113.50849152, -0.25000980, 0.49556533, -0.59919751, -0.57695097, 1.17696130, -0.02935086, 0.29686311, 99.97400665, 113.07157135, 30.21999931, 0.00000000
1, 2.8150, 364, -1.05618179, -0.98034406, 0.04884326, -26.80381775, -111.31803894, 185.01991272, -16.69102669, 13.82636642, -62.32095718, 102.22382355, 15.01090622, -114.27692413, -0.25233093, 0.48761731, -0.60372359, -0.57799333, 1.31842136, 0.03744863, 0.15247434, 99.97400665, 113.07157135, 30.21999931, 0.00000000
1, 2.8200, 365, -0.94871682, -1.05851126, 0.39228305, -5.32033062, -86.09963226, 179.63401794, -17.30488205, 13.50482273, -62.35018921, 102.04414368, 14.20821857, -114.90470886, -0.25477406, 0.48059979, -0.60841161, -0.57788348, 1.19657946, 0.11077172, -0.19370575, 99.97400665, 113.07157135, 30.21999931, 0.00000000
1, 2.8250, 366, -0.60819876, -1.10621071, 0.69753057, 2.30929089, -54.48822021, 156.77035522, -17.30488205, 13.50482273, -62.35018921, 101.95190430, 13.49748230, -115.34581757, -0.25722635, 0.47508556, -0.61235511, -0.57719105, 0.84277076, 0.15453599, -0.49925816, 99.97400665, 113.07157135, 30.21999931, 0.00000000
1, 2.8300, 367, -0.19149783, -1.03537011, 0.59757107, -11.90184498, -24.38370514, 126.40226746, -17.50950050, 12.77404213, -62.43788147, 101.83560181, 12.90363598, -115.60122681, -0.26000145, 0.47095966, -0.61494648, -0.57657367, 0.41569862, 0.08101207, -0.39941934, 99.97400665, 113.07157135, 30.21999931, 0.00000000
1, 2.8350, 368, 0.30149022, -0.93076491, 0.42592296, -13.63606739, -8.63423729, 94.86718750, -17.50950050, 12.77404213, -62.43788147, 101.73743439, 12.44773483, -115.74311066, -0.26243499, 0.46804345, -0.61665034, -0.57602572, -0.08519921, -0.02554235, -0.22778042, 99.97400665, 113.07157135, 30.21999931, 0.00000000
1, 2.8400, 369, 0.58410734, -1.05175996, 0.23683318, -10.85441017, 3.16297555, 71.48780060, -17.50950050, 12.77404213, -62.43788147, 101.67174530, 12.09430313, -115.80092621, -0.26453727, 0.46607715, -0.61780161, -0.57542449, -0.37374890, 0.09414282, -0.03908048, 99.97400665, 113.07157135, 30.21999931, 0.00000000
1, 2.8450, 370, 0.63770443, -1.18862629, 0.09222528, -16.58402061, 4.18209267, 61.73536301, -17.83104324, 12.77404213, -62.29172516, 101.58087158, 11.78747940, -115.84309387, -0.26653665, 0.46432811, -0.61859345, -0.57506502, -0.43236697, 0.22984204, 0.10429980, 99.97400665, 113.07157135, 30.21999931, 0.00000000
1, 2.8750, 371, 0.06395578, -1.55007339, -0.42756057, -37.80301666, -11.68096828, 114.59121704, -18.94182968, 12.48173046, -62.49634552, 100.67910004, 9.10419655, -116.35807800, -0.28354406, 0.44767153, -0.62536132, -0.57281429, 0.09771125, 0.58104289, 0.60908592, 99.97400665, 113.07157135, 30.21999931, 0.00000000
1, 2.8800, 372, 0.07601919, -1.41010833, -0.46844444, -47.72446442, -51.59200287, 120.95191193, -19.02952385, 11.22478771, -62.73019409, 100.38567352, 8.55554676, -116.72581482, -0.28609061, 0.44248623, -0.62716770, -0.57360172, 0.07626289, 0.43879524, 0.64581001, 99.97400665, 113.07157135, 30.21999931, 0.00000000
1, 2.8850, 373, 0.07943031, -1.21076512, -0.34331954, -37.15514755, -95.21347046, 125.24576569, -19.02952385, 11.22478771, -62.73019409, 100.11721802, 8.02253246, -117.31098175, -0.28733611, 0.43620348, -0.62983960, -0.57486218, 0.06326159, 0.23702185, 0.51647407, 99.97400665, 113.07157135, 30.21999931, 0.00000000
1, 2.8900, 374, 0.11385018, -1.21806574, -0.04330920, -20.94077301, -129.80166626, 126.70367432, -19.02952385, 11.22478771, -62.73019409, 99.91210938, 7.50998783, -118.06637573, -0.28734285, 0.42919138, -0.63334417, -0.57628465, 0.01914627, 0.24194859, 0.21304096, 99.97400665, 113.07157135, 30.21999931, 0.00000000
1, 2.8950, 375, 0.12996393, -1.26280320, 0.13319136, -17.57712173, -154.89830017, 127.18431854, -19.35106659, 11.07863140, -63.49020767, 99.71492004, 7.01372766, -118.94419098, -0.28658545, 0.42154616, -0.63721293, -0.57803756, -0.00605445, 0.28471091, 0.03335814, 99.97400665, 113.07157135, 30.21999931, 0.00000000
1, 2.9000, 376, 0.04012275, -1.23650074, 0.09774299, -20.79933167, -173.45254517, 128.46559143, -19.35106659, 11.07863140, -63.49020767, 99.49845123, 6.52329922, -119.91246796, -0.28538093, 0.41332084, -0.64120346, -0.58015668, 0.07536291, 0.25683701, 0.06518176, 99.97400665, 113.07157135, 30.21999931, 0.00000000
1, 2.9050, 377, -0.14284815, -1.12422705, -0.05980027, -20.23793793, -184.08900452, 130.65856934, -19.08798599, 10.40631390, -64.04560089, 99.28738403, 6.02704859, -120.93250275, -0.28389832, 0.40473294, -0.64532030, -0.58236998, 0.25015685, 0.14326157, 0.21893322, 99.97400665, 113.07157135, 30.21999931, 0.00000000
