SensorId, TimeStamp (s), FrameNumber, AccX (g), AccY (g), AccZ (g), GyroX (deg/s), GyroY (deg/s), GyroZ (deg/s), MagX (uT), MagY (uT), MagZ (uT), EulerX (deg), EulerY (deg), EulerZ (deg), QuatW, QuatX, QuatY, QuatZ, LinAccX (g), LinAccY (g), LinAccZ (g), Pressure (kPa), Altitude (m), Temperature (degC), HeaveMotion (m)
1, 0.0000, 0, -0.03610968, -0.88512826, 0.24460797, -33.18276596, 68.05583191, -100.34781647, -4.32622051, 7.95089149, -80.18123627, 89.90735626, 15.40044594, -108.01488495, -0.33554286, 0.48819214, -0.51077265, -0.62304950, 0.29896522, -0.07993883, -0.24741554, 100.12100220, 100.70898438, 32.55999756, 0.00000000
1, 0.0050, 1, -0.00678233, -0.89810240, 0.23374526, -30.56409264, 72.96716309, -96.47844696, -3.77082729, 8.38935947, -79.50891113, 89.86656952, 15.87213612, -107.63356018, -0.33522990, 0.49186563, -0.50690037, -0.62349111, 0.27777934, -0.06469281, -0.23737478, 100.12100220, 100.70898438, 32.55999756, 0.00000000
1, 0.0100, 2, 0.03562893, -0.90589094, 0.21790013, -28.31357193, 76.05495453, -92.22723389, -3.77082729, 8.38935947, -79.50891113, 89.83309174, 16.33454704, -107.23980713, -0.33500588, 0.49554718, -0.50302589, -0.62383425, 0.24315873, -0.05465587, -0.22196899, 100.12100220, 100.70898438, 32.55999756, 0.00000000
1, 0.0600, 3, 0.12718156, -0.95131814, 0.03950202, -4.41710043, 35.49037933, -25.77748299, -3.39082146, 9.38322163, -77.98889160, 90.11827850, 19.15142632, -103.93383789, -0.33640093, 0.52258754, -0.47736478, -0.62117606, 0.20028517, 0.00642658, -0.03895287, 100.12100220, 100.70898438, 32.55999756, 0.00000000
1, 0.0650, 4, 0.09914906, -0.95145738, 0.05520347, -2.55365968, 26.92702293, -19.48560715, -3.39082146, 9.38322163, -77.98889160, 90.15219116, 19.24872780, -103.79119110, -0.33649090, 0.52368444, -0.47645378, -0.62090278, 0.23001075, 0.00714355, -0.05414202, 100.12100220, 100.70898438, 32.55999756, 0.00000000
1, 0.0700, 5, 0.06136559, -0.96901608, 0.07800316, -1.39398408, 20.28069496, -14.96179771, -3.62467122, 9.79245853, -78.51505280, 90.18054962, 19.32337952, -103.68367004, -0.33653834, 0.52452344, -0.47577482, -0.62068945, 0.26902878, 0.02511754, -0.07658206, 100.12100220, 100.70898438, 32.55999756, 0.00000000
1, 0.0750, 6, 0.01146004, -0.99228394, 0.10279513, 0.78773630, 6.91860533, -4.51198912, -3.62467122, 9.79245853, -78.51505280, 90.19658661, 19.34590149, -103.64697266, -0.33654141, 0.52481598, -0.47559083, -0.62058163, 0.31948885, 0.04856184, -0.10121801, 100.12100220, 100.70898438, 32.55999756, 0.00000000
1, 0.0800, 7, -0.02218086, -1.00053906, 0.11738243, 2.07146382, 2.11819172, 1.52643394, -3.44928384, 9.79245853, -78.36889648, 90.21066284, 19.33826637, -103.63576508, -0.33657902, 0.52487230, -0.47565064, -0.62046772, 0.35309207, 0.05679353, -0.11566488, 100.12100220, 100.70898438, 32.55999756, 0.00000000
1, 0.0850, 8, -0.05762164, -0.99181485, 0.13279787, 3.70977306, -2.57629609, 7.63297224, -3.44928384, 9.79245853, -78.36889648, 90.22477722, 19.30017471, -103.64950562, -0.33664691, 0.52469939, -0.47596392, -0.62033695, 0.38799232, 0.04786885, -0.13092339, 100.12100220, 100.70898438, 32.55999756, 0.00000000
1, 0.0900, 9, -0.09505036, -0.97810197, 0.15208490, 5.76750803, -6.67356539, 13.67830181, -3.44928384, 9.79245853, -78.36889648, 90.24205780, 19.23193359, -103.68502808, -0.33674601, 0.52432036, -0.47653162, -0.62016767, 0.42437309, 0.03377556, -0.15001273, 100.12100220, 100.70898438, 32.55999756, 0.00000000
1, 0.0950, 10, -0.12526201, -0.95948088, 0.17016967, 8.09257603, -9.37261200, 19.61334801, -3.53697753, 9.67553329, -78.39812469, 90.26634979, 19.13409805, -103.73494720, -0.33689597, 0.52377915, -0.47733748, -0.61992371, 0.45304781, 0.01460675, -0.16776970, 100.12100220, 100.70898438, 32.55999756, 0.00000000
1, 0.1000, 11, -0.14690383, -0.94931960, 0.18010089, 10.73907089, -12.17406940, 25.57691574, -3.53697753, 9.67553329, -78.39812469, 90.29919434, 19.00654411, -103.79979706, -0.33708769, 0.52307683, -0.47839212, -0.61959952, 0.47268450, 0.00374599, -0.17722948, 100.12100220, 100.70898438, 32.55999756, 0.00000000
1, 0.1050, 12, -0.16065317, -0.95345151, 0.19871348, 13.34675884, -14.69820595, 31.58263206, -3.18620276, 10.05553913, -78.22274017, 90.37161255, 18.78088570, -103.86142731, -0.33764929, 0.52209562, -0.48008969, -0.61880773, 0.48334870, 0.00680976, -0.19497353, 100.12100220, 100.70898438, 32.55999756, 0.00000000
1, 0.1150, 13, -0.08902653, -1.02926433, 0.23755448, 19.43257523, -21.63646317, 41.36471558, -3.18620276, 10.05553913, -78.22274017, 90.48434448, 18.38860512, -104.06934357, -0.33814380, 0.51992065, -0.48341811, -0.61777687, 0.40476081, 0.08025641, -0.23170137, 100.12100220, 100.70898438, 32.55999756, 0.00000000
1, 0.1200, 14, -0.07359767, -1.07325423, 0.26317856, 21.68338013, -27.58491135, 44.76959229, -3.97544575, 9.79245853, -78.80736542, 90.54723358, 18.16605186, -104.21631622, -0.33827448, 0.51855499, -0.48542556, -0.61727887, 0.38565207, 0.12301517, -0.25630826, 100.12100220, 100.70898438, 32.55999756, 0.00000000
1, 0.1250, 15, -0.12886913, -1.04119718, 0.25318280, 23.22072029, -26.43955994, 52.80427551, -3.97544575, 9.79245853, -78.80736542, 90.62018585, 17.90346336, -104.35771942, -0.33860856, 0.51706964, -0.48763585, -0.61659914, 0.43682802, 0.08963967, -0.24524340, 100.12100220, 100.70898438, 32.55999756, 0.00000000
1, 0.1300, 16, -0.15310545, -1.01047850, 0.23935269, 27.01684380, -26.61617661, 61.58489227, -4.58930111, 9.73399544, -79.07044983, 90.71244049, 17.59720802, -104.50066376, -0.33908609, 0.51544517, -0.49014503, -0.61570668, 0.45619524, 0.05738311, -0.22997656, 100.12100220, 100.70898438, 32.55999756, 0.00000000
1, 0.1350, 17, -0.21343845, -1.01648283, 0.28663251, 34.54914093, -35.52670288, 71.33660126, -4.58930111, 9.73399544, -79.07044983, 90.82903290, 17.24308968, -104.69123077, -0.33946100, 0.51347905, -0.49320215, -0.61470091, 0.51065713, 0.06151989, -0.27551776, 100.12100220, 100.70898438, 32.55999756, 0.00000000
1, 0.1400, 18, -0.26025203, -1.02855110, 0.36861598, 39.42412186, -42.96594238, 78.31798553, -4.58930111, 9.73399544, -79.07044983, 90.95957947, 16.85503960, -104.92163086, -0.33974817, 0.51122749, -0.49664885, -0.61364293, 0.55093729, 0.07153380, -0.35548770, 100.12100220, 100.70898438, 32.55999756, 0.00000000
1, 0.1450, 19, -0.22459334, -1.03012574, 0.40825596, 43.07525253, -43.37392044, 85.06190491, -5.23238802, 8.94475269, -78.31043243, 91.10910797, 16.43386841, -105.15522766, -0.34011886, 0.50886369, -0.50034022, -0.61240244, 0.50827372, 0.07100794, -0.39259630, 100.12100220, 100.70898438, 32.55999756, 0.00000000
1, 0.1500, 20, -0.08963352, -1.08852684, 0.40926653, 45.28312683, -33.99771500, 88.51712799, -5.23238802, 8.94475269, -78.31043243, 91.28469086, 15.99517632, -105.34108734, -0.34072989, 0.50669760, -0.50401729, -0.61084151, 0.36601532, 0.12732792, -0.39049667, 100.12100220, 100.70898438, 32.55999756, 0.00000000
1, 0.1550, 21, 0.14014141, -1.18318093, 0.34643498, 45.08234024, -17.63734055, 87.43745422, -5.55393171, 9.29552746, -78.45658875, 91.49510193, 15.55571651, -105.43920135, -0.34166399, 0.50500882, -0.50747782, -0.60884982, 0.12902007, 0.22006458, -0.32385093, 100.12100220, 100.70898438, 32.55999756, 0.00000000
1, 0.1600, 22, 0.41234919, -1.28859878, 0.21114464, 41.86367035, 0.32477322, 82.36831665, -5.55393171, 9.29552746, -78.45658875, 91.70288086, 15.14447403, -105.44872284, -0.34293017, 0.50382233, -0.51039702, -0.60667706, -0.14992452, 0.32384497, -0.18443674, 100.12100220, 100.70898438, 32.55999756, 0.00000000
1, 0.1850, 23, 0.76678097, -1.33229315, -0.73512810, 22.70152473, -20.23046875, 59.54869461, -7.13241720, 8.91552162, -77.49195862, 92.43077087, 13.54063034, -105.17055511, -0.34988406, 0.50037175, -0.51985043, -0.59746534, -0.52956057, 0.36245915, 0.77575904, 100.12100220, 100.70898438, 32.55999756, 0.00000000
1, 0.1900, 24, 0.37862203, -1.12331009, -0.53878450, 30.74151230, -63.08404541, 65.78587341, -7.13241720, 8.91552162, -77.49195862, 92.50709534, 13.22544193, -105.50848389, -0.34949335, 0.49770474, -0.52304995, -0.59712917, -0.14713477, 0.15195483, 0.58011818, 100.12100220, 100.70898438, 32.55999756, 0.00000000
1, 0.1950, 25, 0.07480589, -1.01295805, -0.26764596, 36.92468643, -81.49931335, 73.40032959, -7.36626720, 8.71090317, -78.13504791, 92.59463501, 12.87670231, -105.94252777, -0.34873927, 0.49446791, -0.52684605, -0.59692192, 0.15023169, 0.03987554, 0.30989736, 100.12100220, 100.70898438, 32.55999756, 0.00000000
1, 0.2000, 26, -0.11332837, -0.96043456, -0.01953818, 41.98215485, -82.99340820, 82.37885284, -7.36626720, 8.71090317, -78.13504791, 92.70812225, 12.48423672, -106.38626099, -0.34806588, 0.49104986, -0.53097576, -0.59647715, 0.33126748, -0.01443970, 0.06327625, 100.12100220, 100.70898438, 32.55999756, 0.00000000
1, 0.2050, 27, -0.14400081, -0.94298911, 0.13921300, 46.23399353, -70.71141815, 91.80114746, -8.09704781, 8.03858471, -77.66735077, 92.86453247, 12.02789021, -106.76738739, -0.34788945, 0.48774630, -0.53529620, -0.59542793, 0.35409760, -0.03365787, -0.09299284, 100.12100220, 100.70898438, 32.55999756, 0.00000000
1, 0.2100, 28, -0.05902956, -0.94657612, 0.18308499, 49.39409256, -53.96035004, 98.92525482, -8.09704781, 8.03858471, -77.66735077, 93.05130005, 11.54795265, -107.06788635, -0.34814098, 0.48478505, -0.53949928, -0.59390396, 0.26084116, -0.03170774, -0.13348424, 100.12100220, 100.70898438, 32.55999756, 0.00000000
1, 0.2150, 29, 0.07092739, -0.95728517, 0.13123536, 50.73587036, -40.58840942, 102.48675537, -8.09704781, 8.03858471, -77.66735077, 93.26027679, 11.04770279, -107.30241394, -0.34876058, 0.48209411, -0.54359353, -0.59199446, 0.12252292, -0.02243683, -0.07774135, 100.12100220, 100.70898438, 32.55999756, 0.00000000
1, 0.2200, 30, 0.17832132, -0.94384837, 0.03468236, 50.02959061, -34.93695068, 103.33149719, -7.95089149, 8.09704781, -78.04735565, 93.47283173, 10.54248428, -107.50994110, -0.34954071, 0.47950542, -0.54758626, -0.58995360, 0.00671748, -0.03717106, 0.02283834, 100.12100220, 100.70898438, 32.55999756, 0.00000000
1, 0.2850, 31, -0.80807763, -1.34259653, 0.67340165, 71.88500214, 8.34850121, 92.69305420, -9.88015175, 7.39549828, -76.70272064, 96.47746277, 5.24429131, -110.85672760, -0.34943375, 0.44791225, -0.59627551, -0.56720924, 0.89983654, 0.35204875, -0.56685489, 100.12100220, 100.70898438, 32.55999756, 0.00000000
1, 0.2900, 32, -0.68510920, -1.25135374, 0.51698440, 69.68055725, 34.57696152, 91.90914154, -11.25401878, 6.84010506, -75.67962646, 96.83740997, 4.76881123, -110.73696899, -0.35123548, 0.44744569, -0.59925967, -0.56330621, 0.76902282, 0.26104757, -0.40365493, 100.12100220, 100.70898438, 32.55999756, 0.00000000
1, 0.2950, 33, -0.54487377, -1.15780056, 0.35812613, 64.83808136, 48.77712631, 87.71740723, -11.25401878, 6.84010506, -75.67962646, 97.17772675, 4.30486298, -110.54695129, -0.35338977, 0.44735184, -0.60180861, -0.55930179, 0.62106013, 0.16782022, -0.23826861, 100.12100220, 100.70898438, 32.55999756, 0.00000000
1, 0.3000, 34, -0.29312173, -1.08684993, 0.09202522, 47.87781906, 58.95643234, 82.70780945, -11.25401878, 6.84010506, -75.67962646, 97.43530273, 3.85817409, -110.30574799, -0.35601175, 0.44736370, -0.60367382, -0.55560708, 0.36209440, 0.09734837, 0.03350411, 100.12100220, 100.70898438, 32.55999756, 0.00000000
1, 0.3050, 35, -0.10039019, -1.03858352, -0.04166061, 39.57729721, 50.34085846, 78.75237274, -11.89710617, 6.81087399, -75.12422943, 97.63576508, 3.42843008, -110.10698700, -0.35854733, 0.44706222, -0.60535419, -0.55238163, 0.16216737, 0.04930270, 0.17155178, 100.12100220, 100.70898438, 32.55999756, 0.00000000
1, 0.3100, 36, -0.02733454, -0.98771203, -0.11828476, 37.86928177, 40.79586792, 75.25170135, -11.89710617, 6.81087399, -75.12422943, 97.83463287, 3.02888799, -109.95453644, -0.36069253, 0.44665694, -0.60709089, -0.54939896, 0.08218213, -0.00140305, 0.25183868, 100.12100220, 100.70898438, 32.55999756, 0.00000000
1, 0.3150, 37, 0.01185096, -1.00599778, -0.02079248, 41.71110916, 37.17026901, 72.38230133, -12.77404213, 7.19087982, -74.89038086, 98.05075836, 2.64549923, -109.81960297, -0.36259228, 0.44629359, -0.60891080, -0.54642165, 0.03601107, 0.01688673, 0.15811484, 100.12100220, 100.70898438, 32.55999756, 0.00000000
1, 0.3200, 38, 0.03671542, -1.05395210, 0.09541605, 41.90188599, 35.77804947, 70.94461060, -12.77404213, 7.19087982, -74.89038086, 98.26662445, 2.26971269, -109.69205475, -0.36441123, 0.44593114, -0.61071980, -0.54348069, 0.00428008, 0.06489508, 0.04568721, 100.12100220, 100.70898438, 32.55999756, 0.00000000
1, 0.3250, 39, 0.05708743, -1.06216204, 0.13382088, 39.29560089, 30.57946396, 70.36314392, -12.77404213, 7.19087982, -74.89038086, 98.46765900, 1.90004981, -109.59123993, -0.36612356, 0.44541246, -0.61252970, -0.54071134, -0.02266561, 0.07331519, 0.01089114, 100.12100220, 100.70898438, 32.55999756, 0.00000000
1, 0.3300, 40, 0.03199638, -1.03415501, 0.12358465, 36.98744965, 21.34025955, 69.89189148, -13.53405380, 7.16164875, -74.30575562, 98.65509796, 1.53915167, -109.53707123, -0.36761832, 0.44464493, -0.61441565, -0.53818327, -0.00388433, 0.04561887, 0.02442791, 100.12100220, 100.70898438, 32.55999756, 0.00000000
1, 0.3850, 41, -0.23318841, -0.96539354, 0.25472417, 27.64472198, 29.51536560, 45.03820419, -15.05407715, 3.80005836, -73.39958954, 100.41831970, -1.75210404, -109.59029388, -0.37851000, 0.43492866, -0.63341248, -0.51609695, 0.20304382, -0.01821682, -0.07671212, 100.12100220, 100.70898438, 32.55999756, 0.00000000
1, 0.3900, 42, -0.16773506, -0.96370435, 0.22192110, 27.39219856, 29.32119942, 42.86355972, -15.78485775, 6.43086815, -73.16574097, 100.55235291, -1.98900986, -109.48462677, -0.37976182, 0.43486178, -0.63435537, -0.51407152, 0.13349321, -0.01929660, -0.04146024, 100.12100220, 100.70898438, 32.55999756, 0.00000000
1, 0.3950, 43, -0.12142914, -0.96477747, 0.20164014, 26.72925949, 27.82863235, 40.94360352, -15.78485775, 6.43086815, -73.16574097, 100.68284607, -2.21536779, -109.38508606, -0.38093960, 0.43480060, -0.63526773, -0.51212150, 0.08324327, -0.01762894, -0.01883789, 100.12100220, 100.70898438, 32.55999756, 0.00000000
1, 0.4000, 44, -0.09257499, -0.96347737, 0.18358989, 26.08683777, 24.72485352, 39.40561295, -15.78485775, 6.43086815, -73.16574097, 100.81031799, -2.43153334, -109.29988861, -0.38200706, 0.43469924, -0.63618469, -0.51027071, 0.05062111, -0.01833548, 0.00145405, 100.12100220, 100.70898438, 32.55999756, 0.00000000
1, 0.4050, 45, -0.09962799, -0.96821451, 0.19269201, 25.44965363, 21.20169830, 37.92765808, -15.78485775, 5.87547493, -72.90265656, 100.93596649, -2.64368725, -109.23091888, -0.38298559, 0.43452218, -0.63713831, -0.50849521, 0.05395912, -0.01304173, -0.00554088, 100.12100220, 100.70898438, 32.55999756, 0.00000000
1, 0.4100, 46, -0.11057875, -0.97017014, 0.19578744, 24.55945396, 18.14946938, 37.06003952, -15.78485775, 5.87547493, -72.90265656, 101.05664825, -2.84250450, -109.17673492, -0.38384384, 0.43430954, -0.63808048, -0.50684565, 0.06134609, -0.01052259, -0.00660980, 100.12100220, 100.70898438, 32.55999756, 0.00000000
1, 0.4150, 47, -0.13581300, -0.97650409, 0.19774985, 23.92823792, 14.26404667, 36.16926193, -16.16486359, 6.46009922, -72.55188751, 101.17491913, -3.03335762, -109.14120483, -0.38458472, 0.43402296, -0.63905436, -0.50530016, 0.08322507, -0.00362841, -0.00664894, 100.12100220, 100.70898438, 32.55999756, 0.00000000
1, 0.4200, 48, -0.14696306, -0.97632265, 0.20283215, 23.65650177, 13.02674389, 35.37207794, -16.16486359, 6.46009922, -72.55188751, 101.29201508, -3.21917081, -109.11135864, -0.38527724, 0.43372509, -0.64002544, -0.50379711, 0.09110113, -0.00324864, -0.00978716, 100.12100220, 100.70898438, 32.55999756, 0.00000000
1, 0.4250, 49, -0.16358422, -0.96688676, 0.20738679, 23.41351891, 12.31606388, 34.41182709, -16.16486359, 6.46009922, -72.55188751, 101.40796661, -3.39965916, -109.08444977, -0.38593209, 0.43343258, -0.64098269, -0.50232857, 0.10454583, -0.01211766, -0.01241757, 100.12100220, 100.70898438, 32.55999756, 0.00000000
1, 0.4300, 50, -0.17255814, -0.95507014, 0.22708917, 23.62081337, 12.61811924, 33.50503159, -16.10640144, 6.08009338, -72.52265167, 101.52473450, -3.57605124, -109.05552673, -0.38657016, 0.43317384, -0.64191985, -0.50086218, 0.11037976, -0.02338182, -0.03017040, 100.12100220, 100.70898438, 32.55999756, 0.00000000
1, 0.4600, 51, -0.04650472, -0.96114504, 0.26877180, 21.62807083, 26.58577728, 29.86737442, -17.42180634, 6.51856184, -72.40573120, 102.17230225, -4.61555195, -108.61081696, -0.39165267, 0.43307841, -0.64616340, -0.49145120, -0.03387953, -0.01379613, -0.06070866, 100.12100220, 100.70898438, 32.55999756, 0.00000000
1, 0.4650, 52, -0.02468248, -0.96731198, 0.25715744, 21.51981735, 26.78617477, 30.18899918, -17.62642479, 6.84010506, -72.20111084, 102.27211761, -4.79101372, -108.51119995, -0.39264572, 0.43317360, -0.64673531, -0.48981994, -0.05871391, -0.00699992, -0.04739944, 100.12100220, 100.70898438, 32.55999756, 0.00000000
1, 0.4700, 53, 0.00498142, -0.97045362, 0.23227371, 21.16974449, 26.45554733, 30.78146172, -17.62642479, 6.84010506, -72.20111084, 102.37009430, -4.96918249, -108.41411591, -0.39364710, 0.43323731, -0.64731395, -0.48819274, -0.09140655, -0.00319756, -0.02083094, 100.12100220, 100.70898438, 32.55999756, 0.00000000
1, 0.4750, 54, 0.01783057, -0.96675777, 0.20387530, 20.93860245, 25.08411026, 31.24244690, -17.62642479, 6.84010506, -72.20111084, 102.46727753, -5.14831638, -108.32451630, -0.39462256, 0.43325308, -0.64791751, -0.48658800, -0.10729706, -0.00621763, 0.00919596, 100.12100220, 100.70898438, 32.55999756, 0.00000000
1, 0.4800, 55, 0.01280701, -0.96586514, 0.18775107, 20.99897766, 23.12429047, 31.65064240, -18.35720444, 7.42472935, -70.91493988, 102.56543732, -5.32747602, -108.24525452, -0.39554858, 0.43321505, -0.64856136, -0.48500967, -0.10534713, -0.00643934, 0.02691004, 100.12100220, 100.70898438, 32.55999756, 0.00000000
1, 0.4850, 56, 0.00207510, -0.96863866, 0.18469422, 21.16615295, 21.19605637, 32.23349380, -18.35720444, 7.42472935, -70.91493988, 102.66515350, -5.50752449, -108.17637634, -0.39642781, 0.43312091, -0.64925063, -0.48345107, -0.09773163, -0.00299802, 0.03155504, 100.12100220, 100.70898438, 32.55999756, 0.00000000
1, 0.4900, 57, -0.01305331, -0.96768367, 0.18628168, 21.07632256, 19.95928192, 32.94125366, -18.41566849, 7.04472351, -71.55802155, 102.76493835, -5.68980789, -108.11462402, -0.39728731, 0.43297756, -0.64997059, -0.48190415, -0.08576083, -0.00327451, 0.03156044, 100.12100220, 100.70898438, 32.55999756, 0.00000000
1, 0.4950, 58, -0.02646061, -0.96746457, 0.17904067, 21.23093224, 19.10678482, 33.69011307, -18.41566849, 7.04472351, -71.55802155, 102.86582947, -5.87491274, -108.05819702, -0.39813390, 0.43279600, -0.65072042, -0.48035419, -0.07553893, -0.00278237, 0.04039519, 100.12100220, 100.70898438, 32.55999756, 0.00000000
1, 0.5000, 59, -0.03669350, -0.97703004, 0.17311411, 21.55822754, 18.64294052, 34.27077866, -18.41566849, 7.04472351, -71.55802155, 102.96852112, -6.06241846, -108.00499725, -0.39897180, 0.43259239, -0.65149355, -0.47879168, -0.06853513, 0.00751768, 0.04793948, 100.12100220, 100.70898438, 32.55999756, 0.00000000
1, 0.5050, 60, -0.04887684, -0.97488248, 0.17198190, 21.67874146, 17.65256500, 34.94668198, -18.62028694, 6.54779291, -71.03186035, 103.06593323, -6.24471045, -107.95718384, -0.39977816, 0.43236482, -0.65224671, -0.47729704, -0.05956997, 0.00609855, 0.05066133, 100.12100220, 100.70898438, 32.55999756, 0.00000000
1, 0.5350, 61, -0.00275209, -0.96525371, 0.16618884, 22.22270966, 18.10894012, 40.83940506, -19.64337921, 6.72318029, -71.11955261, 103.69697571, -7.48787069, -107.65944672, -0.40525821, 0.43055809, -0.65726966, -0.46731389, -0.12702546, 0.00147285, 0.06657062, 100.12100220, 100.70898438, 32.55999756, 0.00000000
1, 0.5400, 62, 0.00261695, -0.96640956, 0.17835823, 22.31164551, 16.96065712, 42.28309250, -20.25723457, 7.07395506, -71.00263214, 103.80471802, -7.71305847, -107.62658691, -0.40618497, 0.43009049, -0.65821671, -0.46560371, -0.13629709, 0.00354814, 0.05609745, 100.12100220, 100.70898438, 32.55999756, 0.00000000
1, 0.5450, 63, 0.00520445, -0.96584368, 0.18607567, 22.25131416, 16.37055588, 43.63682938, -20.25723457, 7.07395506, -71.00263214, 103.91272736, -7.94420004, -107.59867859, -0.40712142, 0.42956880, -0.65919530, -0.46387970, -0.14287388, 0.00394148, 0.05006834, 100.12100220, 100.70898438, 32.55999756, 0.00000000
1, 0.5500, 64, -0.00029906, -0.96603501, 0.17916496, 21.82247543, 16.76110649, 44.63306046, -20.25723457, 7.07395506, -71.00263214, 104.01844025, -8.18068790, -107.57047272, -0.40809524, 0.42901665, -0.66017354, -0.46214068, -0.14141648, 0.00514279, 0.05861659, 100.12100220, 100.70898438, 32.55999756, 0.00000000
1, 0.5550, 65, -0.01212036, -0.95971632, 0.17665623, 22.03649139, 16.91536522, 45.54536819, -20.72493362, 6.86933661, -70.27185059, 104.11861420, -8.40721798, -107.54223633, -0.40903610, 0.42849141, -0.66109705, -0.46047306, -0.13361168, -0.00017647, 0.06268548, 100.12100220, 100.70898438, 32.55999756, 0.00000000
1, 0.5600, 66, -0.02849079, -0.95845234, 0.18487523, 22.42507172, 17.28590012, 46.21524048, -20.72493362, 6.86933661, -70.27185059, 104.22716522, -8.65211773, -107.51425171, -0.41004115, 0.42791051, -0.66210073, -0.45867357, -0.12134816, -0.00042003, 0.05603842, 100.12100220, 100.70898438, 32.55999756, 0.00000000
1, 0.5650, 67, -0.05747442, -0.96092749, 0.19877192, 22.42560005, 17.37614441, 46.81327438, -20.63723946, 7.04472351, -70.47647095, 104.33573151, -8.90006351, -107.48699951, -0.41105849, 0.42731205, -0.66311026, -0.45685908, -0.09666222, 0.00312633, 0.04371869, 100.12100220, 100.70898438, 32.55999756, 0.00000000
1, 0.5700, 68, -0.10258066, -0.98215592, 0.20706551, 23.10276604, 17.43343163, 47.57717514, -20.63723946, 7.04472351, -70.47647095, 104.44773865, -9.15182114, -107.46089172, -0.41207767, 0.42670226, -0.66414261, -0.45500767, -0.05590170, 0.02547626, 0.03696112, 100.12100220, 100.70898438, 32.55999756, 0.00000000
1, 0.5750, 69, -0.13998623, -1.00941980, 0.20956478, 23.92898941, 16.90273476, 48.21998978, -20.63723946, 7.04472351, -70.47647095, 104.56440735, -9.40608120, -107.43868256, -0.41307631, 0.42607570, -0.66520888, -0.45312774, -0.02287509, 0.05392193, 0.03607924, 100.12100220, 100.70898438, 32.55999756, 0.00000000
1, 0.5800, 70, -0.16623339, -1.03826118, 0.22657509, 25.02045250, 18.03872299, 49.17958450, -21.07570839, 7.27857351, -70.41800690, 104.68580627, -9.66644096, -107.41262054, -0.41410404, 0.42546099, -0.66628981, -0.45117486, -0.00112128, 0.08397579, 0.02077354, 100.12100220, 100.70898438, 32.55999756, 0.00000000
1, 0.6600, 71, 0.11207154, -1.14997172, 0.23030952, 31.86034966, 25.68688965, 74.19691467, -24.52499199, 7.57088566, -68.78105927, 106.76647949, -14.62204361, -106.70920563, -0.43506142, 0.41427130, -0.68406391, -0.41371197, -0.36342114, 0.22251171, 0.04670750, 100.12100220, 100.70898438, 32.55999756, 0.00000000
1, 0.6650, 72, 0.09157216, -1.16350591, 0.22561388, 32.04017639, 26.08176994, 76.69274139, -25.25577354, 7.57088566, -68.66413116, 106.92380524, -15.02644348, -106.69425201, -0.43663999, 0.41306767, -0.68552738, -0.41081965, -0.34968367, 0.23852216, 0.05334665, 100.12100220, 100.70898438, 32.55999756, 0.00000000
1, 0.6700, 73, 0.06443581, -1.17213619, 0.21885039, 32.59601974, 27.76555824, 79.31966400, -25.25577354, 7.57088566, -68.66413116, 107.08297729, -15.44588375, -106.67601776, -0.43829960, 0.41182053, -0.68700576, -0.40782410, -0.32952976, 0.24975567, 0.06203851, 100.12100220, 100.70898438, 32.55999756, 0.00000000
1, 0.6750, 74, 0.04515289, -1.18246412, 0.20054635, 33.39525604, 29.96785545, 82.20121002, -25.69424057, 8.41859055, -67.84565735, 107.24458313, -15.88236237, -106.65241241, -0.44005498, 0.41053522, -0.68849683, -0.40470320, -0.31746939, 0.26284373, 0.08226733, 100.12100220, 100.70898438, 32.55999756, 0.00000000
1, 0.6800, 75, 0.04615732, -1.19425273, 0.17874469, 34.02431488, 31.54117584, 85.10498047, -25.69424057, 8.41859055, -67.84565735, 107.40863800, -16.33511734, -106.62672424, -0.44188994, 0.40919566, -0.69000900, -0.40147206, -0.32594547, 0.27754223, 0.10602644, 100.12100220, 100.70898438, 32.55999756, 0.00000000
1, 0.6850, 76, 0.06925708, -1.21987712, 0.14341427, 34.55361938, 32.83819199, 89.33541870, -25.69424057, 8.41859055, -67.84565735, 107.57559967, -16.81002617, -106.60247040, -0.44382024, 0.40775463, -0.69156802, -0.39811257, -0.35679692, 0.30626869, 0.14333421, 100.12100220, 100.70898438, 32.55999756, 0.00000000
1, 0.6900, 77, 0.08697660, -1.23221266, 0.11158429, 34.65750885, 33.83730698, 92.75797272, -26.57117844, 7.36626720, -68.05027771, 107.74346161, -17.30284309, -106.58004761, -0.44582927, 0.40622160, -0.69315648, -0.39465740, -0.38258791, 0.32186908, 0.17710531, 100.12100220, 100.70898438, 32.55999756, 0.00000000
1, 0.6950, 78, 0.09698278, -1.25221407, 0.06201154, 34.62502670, 34.53667450, 97.01637268, -26.57117844, 7.36626720, -68.05027771, 107.91245270, -17.81705475, -106.56236267, -0.44792384, 0.40456289, -0.69479108, -0.39109910, -0.40096658, 0.34534949, 0.22852811, 100.12100220, 100.70898438, 32.55999756, 0.00000000
1, 0.7000, 79, 0.09938792, -1.26068783, 0.02721049, 35.09993362, 34.28333664, 100.50950623, -27.33119011, 7.83396673, -67.58258057, 108.08635712, -18.34755516, -106.55317688, -0.45005149, 0.40279406, -0.69648457, -0.38745302, -0.41202372, 0.35745692, 0.26517385, 100.12100220, 100.70898438, 32.55999756, 0.00000000
1, 0.7050, 80, 0.10717555, -1.26150358, 0.01684180, 35.17245865, 34.96552277, 104.06511688, -27.33119011, 7.83396673, -67.58258057, 108.24764252, -18.87861252, -106.54273224, -0.45222676, 0.40097940, -0.69810855, -0.38386333, -0.42864433, 0.36196968, 0.27728572, 100.12100220, 100.70898438, 32.55999756, 0.00000000
1, 0.7100, 81, 0.12042732, -1.25577724, -0.00009743, 35.82392883, 34.84967041, 107.69949341, -27.33119011, 7.83396673, -67.58258057, 108.42912292, -19.44416237, -106.54586029, -0.45445752, 0.39899677, -0.69989425, -0.38002372, -0.45097613, 0.36015153, 0.29598120, 100.12100220, 100.70898438, 32.55999756, 0.00000000
1, 0.7150, 82, 0.12694344, -1.25509119, 0.00445063, 36.66703415, 33.55523682, 111.16312408, -28.52966881, 6.98626137, -67.17333984, 108.61972809, -20.02407837, -106.56328583, -0.45667905, 0.39689285, -0.70176071, -0.37610143, -0.46697748, 0.36363715, 0.29331756, 100.12100220, 100.70898438, 32.55999756, 0.00000000
1, 0.7200, 83, 0.14379644, -1.26764250, 0.02273484, 37.76564026, 34.69745636, 114.78673553, -28.52966881, 6.98626137, -67.17333984, 108.81693268, -20.62291336, -106.58327484, -0.45896265, 0.39470744, -0.70366466, -0.37204230, -0.49360418, 0.38057190, 0.27694929, 100.12100220, 100.70898438, 32.55999756, 0.00000000
1, 0.7250, 84, 0.14663053, -1.27894628, 0.01405793, 38.89028931, 36.60828400, 118.32318878, -29.49429893, 8.03858471, -67.34872437, 109.01953125, -21.24148178, -106.60198975, -0.46132866, 0.39245522, -0.70558745, -0.36783311, -0.50643492, 0.39654779, 0.28748953, 100.12100220, 100.70898438, 32.55999756, 0.00000000
1, 0.7300, 85, 0.14489652, -1.29402006, 0.01576977, 40.94531631, 37.94643784, 121.37845612, -29.49429893, 8.03858471, -67.34872437, 109.23302460, -21.87658882, -106.62176514, -0.46373430, 0.39015919, -0.70754534, -0.36346388, -0.51495659, 0.41653508, 0.28767103, 100.12100220, 100.70898438, 32.55999756, 0.00000000
1, 0.7350, 86, 0.15243419, -1.33008325, 0.03945074, 42.57807159, 41.85779953, 124.46538544, -29.49429893, 8.03858471, -67.34872437, 109.45046997, -22.53261948, -106.62973022, -0.46626550, 0.38784975, -0.70947742, -0.35890239, -0.53307545, 0.45774013, 0.26585555, 100.12100220, 100.70898438, 32.55999756, 0.00000000
1, 0.7400, 87, 0.16842681, -1.37269807, 0.03922233, 43.67832565, 45.91427231, 128.57907104, -31.13124847, 9.03244686, -67.08564758, 109.66946411, -23.21476364, -106.62715912, -0.46895027, 0.38548487, -0.71138704, -0.35414061, -0.55993533, 0.50581622, 0.26785097, 100.12100220, 100.70898438, 32.55999756, 0.00000000
1, 0.7450, 88, 0.17500921, -1.39126658, 0.02115577, 44.86673737, 51.28379822, 131.70643616, -31.13124847, 9.03244686, -67.08564758, 109.88673401, -23.92067719, -106.60553741, -0.47181135, 0.38311496, -0.71322852, -0.34917355, -0.57765776, 0.53015101, 0.28756821, 100.12100220, 100.70898438, 32.55999756, 0.00000000
1, 0.7500, 89, 0.20286022, -1.42069399, 0.01136927, 47.00381088, 60.71981812, 135.54957581, -32.27126694, 9.35398960, -66.41333008, 110.09858704, -24.66074371, -106.54520416, -0.47496751, 0.38079745, -0.71494091, -0.34388760, -0.61717552, 0.56566715, 0.29877335, 100.12100220, 100.70898438, 32.55999756, 0.00000000
1, 0.7550, 90, 0.24902059, -1.44832098, 0.01036623, 48.43267822, 66.75710297, 138.51451111, -32.27126694, 9.35398960, -66.41333008, 110.29795074, -25.41140938, -106.45698547, -0.47828612, 0.37854913, -0.71649843, -0.33848649, -0.67523348, 0.59958959, 0.30100024, 100.12100220, 100.70898438, 32.55999756, 0.00000000
1, 0.7850, 91, 0.50395411, -1.72482407, 0.08077254, 52.27119446, 102.63086700, 153.20137024, -34.93130493, 10.31861973, -65.39023590, 111.35688782, -30.49311638, -105.43025970, -0.50233889, 0.36472324, -0.72379577, -0.30125141, -1.00818574, 0.92012358, 0.23168594, 100.12100220, 100.70898438, 32.55999756, 0.00000000
1, 0.7900, 92, 0.57819235, -1.75950825, 0.05523869, 52.80931091, 108.51621246, 154.91213989, -36.59748459, 9.96784592, -65.47792816, 111.48855591, -31.41135406, -105.16914368, -0.50694120, 0.36242291, -0.72454464, -0.29444095, -1.09607089, 0.96317542, 0.25626069, 100.12100220, 100.70898438, 32.55999756, 0.00000000
1, 0.7950, 93, 0.64945263, -1.76694965, -0.01384759, 52.94747162, 112.16999817, 156.57482910, -36.59748459, 9.96784592, -65.47792816, 111.60853577, -32.34451294, -104.89137268, -0.51164019, 0.36009327, -0.72518653, -0.28750947, -1.18097270, 0.97931707, 0.32408074, 100.12100220, 100.70898438, 32.55999756, 0.00000000
1, 0.8000, 94, 0.65081310, -1.75105476, -0.03662087, 53.89651489, 110.66204834, 158.80520630, -38.40982056, 10.78631973, -65.91639709, 111.73633575, -33.28575134, -104.62631226, -0.51626557, 0.35766807, -0.72585356, -0.28049973, -1.19609940, 0.97235286, 0.34534532, 100.12100220, 100.70898438, 32.55999756, 0.00000000
1, 0.8050, 95, 0.56759775, -1.74614906, -0.02495052, 56.58282089, 98.16353607, 162.43399048, -38.40982056, 10.78631973, -65.91639709, 111.91147614, -34.21112061, -104.43495941, -0.52044088, 0.35505989, -0.72679728, -0.27356824, -1.12647986, 0.97664022, 0.33231634, 100.12100220, 100.70898438, 32.55999756, 0.00000000
1, 0.8100, 96, 0.51136214, -1.75900984, 0.04325895, 58.87313080, 86.26641846, 166.99353027, -38.40982056, 10.78631973, -65.91639709, 112.14676666, -35.14606857, -104.32736969, -0.52423710, 0.35213992, -0.72809565, -0.26655146, -1.08378685, 0.99907601, 0.26343742, 100.12100220, 100.70898438, 32.55999756, 0.00000000
1, 0.8150, 97, 0.43349543, -1.78471792, 0.05886138, 59.26847458, 75.50347137, 172.97122192, -40.19292450, 11.69248772, -65.50716400, 112.42874908, -36.08874130, -104.29891205, -0.52771622, 0.34888771, -0.72968292, -0.25953001, -1.01934814, 1.03501630, 0.24756546, 100.12100220, 100.70898438, 32.55999756, 0.00000000
1, 0.8200, 98, 0.32343060, -1.81082356, 0.06198766, 59.53568649, 63.36776352, 178.04156494, -40.19292450, 11.69248772, -65.50716400, 112.76406860, -37.03171539, -104.35828400, -0.53082335, 0.34531659, -0.73157561, -0.25254774, -0.92255116, 1.07185686, 0.24457210, 100.12100220, 100.70898438, 32.55999756, 0.00000000
1, 0.8600, 99, -0.27216449, -1.21629882, 0.19618449, 54.78785324, -49.63007736, 139.86573792, -44.43145370, 14.55714703, -63.98713684, 116.91477966, -43.36508179, -107.37469482, -0.54160130, 0.31324288, -0.75260937, -0.20524654, -0.41337770, 0.56527948, 0.12870032, 100.12100220, 100.70898438, 32.55999756, 0.00000000
1, 0.8650, 100, -0.18857656, -1.15747249, 0.34547669, 49.09008026, -59.31451797, 133.46813965, -44.66530228, 14.35252857, -63.60713196, 117.70336914, -43.82233429, -108.15986633, -0.54016769, 0.30949289, -0.75625545, -0.20127305, -0.50331885, 0.51578212, -0.01403333, 100.12100220, 100.70898438, 32.55999756, 0.00000000
1, 0.8700, 101, -0.19962151, -1.07469857, 0.44434616, 42.61563110, -72.07297516, 128.61956787, -44.66530228, 14.35252857, -63.60713196, 118.51722717, -44.22031021, -109.02202606, -0.53833389, 0.30562264, -0.76004636, -0.19779034, -0.49770242, 0.44201106, -0.10615319, 100.12100220, 100.70898438, 32.55999756, 0.00000000
1, 0.8750, 102, -0.28361741, -0.97174633, 0.44070873, 36.57173157, -79.41243744, 123.08846283, -45.13300323, 16.36948204, -63.89944458, 119.33259583, -44.56756973, -109.92389679, -0.53626591, 0.30171567, -0.76385087, -0.19472711, -0.41819006, 0.34781140, -0.09571691, 100.12100220, 100.70898438, 32.55999756, 0.00000000
1, 0.8800, 103, -0.46344331, -0.86654651, 0.43530571, 30.83719826, -83.01253510, 117.15181732, -45.13300323, 16.36948204, -63.89944458, 120.13217163, -44.87108612, -110.83899689, -0.53408051, 0.29782778, -0.76758057, -0.19203332, -0.24224684, 0.25089175, -0.08379234, 100.12100220, 100.70898438, 32.55999756, 0.00000000
1, 0.8850, 104, -0.72175807, -0.73161185, 0.42273182, 26.29170799, -84.58481598, 112.79069519, -45.07453918, 17.12949371, -63.13943100, 120.91535950, -45.14286041, -111.75854492, -0.53184354, 0.29395410, -0.77122170, -0.18960622, 0.01264996, 0.12385280, -0.06499203, 100.12100220, 100.70898438, 32.55999756, 0.00000000
1, 0.8900, 105, -0.93970823, -0.52014649, 0.34860727, 27.13180542, -87.36656952, 108.50743866, -45.07453918, 17.12949371, -63.13943100, 121.71300507, -45.38013840, -112.68852234, -0.52944642, 0.29020932, -0.77484959, -0.18727878, 0.22774611, -0.07984269, 0.01568671, 100.12100220, 100.70898438, 32.55999756, 0.00000000
1, 0.8950, 106, -0.98130125, -0.37145916, 0.33504438, 35.50683212, -96.37345886, 100.68496704, -45.07453918, 17.12949371, -63.13943100, 122.57823944, -45.55076981, -113.65143585, -0.52655387, 0.28683728, -0.77862483, -0.18495637, 0.26705366, -0.22102702, 0.03694149, 100.12100220, 100.70898438, 32.55999756, 0.00000000
1, 0.9000, 107, -0.93366933, -0.34789896, 0.53083509, 40.68357086, -103.16132355, 90.67771149, -45.33761978, 17.97719955, -62.40865326, 123.47634125, -45.65045547, -114.62208557, -0.52326423, 0.28385743, -0.78244215, -0.18276703, 0.21751909, -0.23776343, -0.15027352, 100.12100220, 100.70898438, 32.55999756, 0.00000000
1, 0.9050, 108, -0.71604818, -0.41904205, 0.76786643, 36.49248886, -94.30210114, 79.90079498, -45.33761978, 17.97719955, -62.40865326, 124.31434631, -45.71411896, -115.51830292, -0.52010304, 0.28123397, -0.78595001, -0.18078412, -0.00155933, -0.16049041, -0.37869966, 100.12100220, 100.70898438, 32.55999756, 0.00000000
1, 0.9550, 109, -0.15648027, -0.37550676, 0.24094288, -44.24207306, -94.40582275, -76.42321014, -43.67144012, 17.62642479, -61.76556396, 125.29202271, -43.55451584, -118.25692749, -0.50177354, 0.27689910, -0.79541051, -0.19716112, -0.53512466, -0.21475722, 0.17585927, 100.12100220, 100.70898438, 32.55999756, 0.00000000
1, 0.9600, 110, -0.16618927, -0.36969814, 0.36312899, -50.23316574, -95.52404022, -87.20471191, -42.91143036, 16.63256264, -61.44402313, 125.17144012, -42.92356491, -118.44907379, -0.49830577, 0.27798352, -0.79600620, -0.20196712, -0.51777613, -0.22766095, 0.05691610, 100.12100220, 100.70898438, 32.55999756, 0.00000000
1, 0.9650, 111, -0.19040541, -0.33744276, 0.44196716, -58.60242844, -91.47441101, -99.37507629, -42.91143036, 16.63256264, -61.44402313, 124.96033478, -42.25481033, -118.57183838, -0.49495322, 0.27933252, -0.79626191, -0.20727238, -0.48532611, -0.26777977, -0.01938064, 100.12100220, 100.70898438, 32.55999756, 0.00000000
1, 0.9700, 112, -0.20942570, -0.33024549, 0.45735896, -64.61972809, -84.19995117, -108.62422943, -42.91143036, 16.63256264, -61.44402313, 124.66928864, -41.56922150, -118.62168121, -0.49182162, 0.28092644, -0.79615951, -0.21288961, -0.45747581, -0.28355685, -0.03307579, 100.12100220, 100.70898438, 32.55999756, 0.00000000
1, 0.9750, 113, -0.24716458, -0.34340432, 0.44483060, -71.01186371, -72.80982971, -119.69837189, -41.94680023, 16.31101990, -61.29786682, 124.28037262, -40.87041855, -118.57247925, -0.48903868, 0.28285959, -0.79558158, -0.21881875, -0.41060740, -0.27974504, -0.02012490, 100.12100220, 100.70898438, 32.55999756, 0.00000000
1, 0.9800, 114, -0.28881702, -0.38670570, 0.41076082, -75.45110321, -66.50858307, -128.46502686, -41.94680023, 16.31101990, -61.29786682, 123.83104706, -40.15267181, -118.46395111, -0.48642170, 0.28504804, -0.79467976, -0.22500159, -0.35943943, -0.24632698, 0.01356454, 100.12100220, 100.70898438, 32.55999756, 0.00000000
1, 0.9850, 115, -0.34107500, -0.47672999, 0.37877733, -79.12260437, -62.09849930, -137.98759460, -39.92984390, 14.20637226, -61.94095230, 123.33286285, -39.40674591, -118.30626678, -0.48388347, 0.28751618, -0.79348791, -0.23144799, -0.29722634, -0.16674995, 0.04444300, 100.12100220, 100.70898438, 32.55999756, 0.00000000
1, 0.9900, 116, -0.39243805, -0.60612667, 0.35888940, -81.90051270, -58.09402847, -147.70645142, -39.92984390, 14.20637226, -61.94095230, 122.79380035, -38.62992859, -118.10335541, -0.48139244, 0.29028511, -0.79201561, -0.23813310, -0.23541090, -0.04834039, 0.06265012, 100.12100220, 100.70898438, 32.55999756, 0.00000000
1, 0.9950, 117, -0.40613726, -0.70788097, 0.35078421, -85.59521484, -54.53801346, -156.47789001, -39.92984390, 14.20637226, -61.94095230, 122.21537781, -37.82414627, -117.86332703, -0.47894910, 0.29329732, -0.79026884, -0.24507084, -0.21077242, 0.04194164, 0.06868415, 100.12100220, 100.70898438, 32.55999756, 0.00000000
1, 1.0000, 118, -0.41137964, -0.71889269, 0.35386375, -91.96525574, -52.95559311, -163.79016113, -39.54983902, 13.94329166, -62.08710861, 121.59590149, -36.98961258, -117.60385132, -0.47653064, 0.29642427, -0.78827250, -0.25234434, -0.19409993, 0.04101001, 0.06311253, 100.12100220, 100.70898438, 32.55999756, 0.00000000
1, 1.0100, 119, -0.52383786, -0.61618006, 0.36489451, -107.41844177, -48.78807068, -177.62014771, -37.32826614, 11.63402462, -62.70096207, 120.21996307, -35.23614883, -117.03738403, -0.47182152, 0.30288923, -0.78345996, -0.26801708, -0.05719586, -0.08694761, 0.04497157, 100.12100220, 100.70898438, 32.55999756, 0.00000000
1, 1.0150, 120, -0.57870764, -0.57105267, 0.35989445, -113.82575226, -41.18006516, -184.92851257, -37.32826614, 11.63402462, -62.70096207, 119.45459747, -34.33237839, -116.69735718, -0.46973318, 0.30634737, -0.78050172, -0.27625906, 0.01055896, -0.14524649, 0.04512078, 100.12100220, 100.70898438, 32.55999756, 0.00000000
1, 1.0200, 121, -0.60831487, -0.51587188, 0.31315607, -119.23632813, -31.21043396, -194.50671387, -37.32826614, 11.63402462, -62.70096207, 118.63224792, -33.40709686, -116.29576111, -0.46789521, 0.31011069, -0.77707046, -0.28472272, 0.05354203, -0.21388529, 0.08607562, 100.12100220, 100.70898438, 32.55999756, 0.00000000
1, 1.0250, 122, -0.59902418, -0.48788851, 0.28178784, -123.49128723, -22.28350830, -202.30175781, -36.07132339, 11.40017509, -63.16866302, 117.76779938, -32.46365738, -115.84587860, -0.46627149, 0.31413037, -0.77321726, -0.29333976, 0.05808027, -0.25562477, 0.11087886, 100.12100220, 100.70898438, 32.55999756, 0.00000000
1, 1.0300, 123, -0.57110596, -0.45177943, 0.24444447, -128.74099731, -10.94975662, -212.05984497, -36.07132339, 11.40017509, -63.16866302, 116.84959412, -31.49709320, -115.33249664, -0.46492466, 0.31848064, -0.76884550, -0.30214566, 0.04442775, -0.30581594, 0.14054102, 100.12100220, 100.70898438, 32.55999756, 0.00000000
1, 1.0350, 124, -0.51826882, -0.45929962, 0.24679415, -132.03584290, -4.87809563, -219.54959106, -34.75592041, 8.74013424, -64.07482910, 115.90818787, -30.50351524, -114.79174042, -0.46367210, 0.32305622, -0.76410973, -0.31109381, 0.00631012, -0.31254104, 0.12982830, 100.12100220, 100.70898438, 32.55999756, 0.00000000
1, 1.0400, 125, -0.44429669, -0.48385572, 0.25153109, -136.46260071, 0.91474861, -225.98002625, -34.75592041, 8.74013424, -64.07482910, 114.94205475, -29.48574257, -114.22962189, -0.46252805, 0.32779312, -0.75900757, -0.32019848, -0.05241542, -0.30227780, 0.11604628, 100.12100220, 100.70898438, 32.55999756, 0.00000000
1, 1.0450, 126, -0.38900536, -0.50934255, 0.22691008, -141.16578674, 6.29463720, -231.26007080, -34.75592041, 8.74013424, -64.07482910, 113.95394897, -28.44690895, -113.65268707, -0.46149254, 0.33263990, -0.75355226, -0.32944545, -0.09190138, -0.29100752, 0.13083759, 100.12100220, 100.70898438, 32.55999756, 0.00000000
1, 1.0500, 127, -0.33758554, -0.54863000, 0.18356170, -145.35435486, 10.31807899, -236.43879700, -32.59280777, 9.47091484, -64.57176208, 112.95117950, -27.38372612, -113.06945801, -0.46050966, 0.33758223, -0.74777257, -0.33882934, -0.12695743, -0.26580393, 0.16366796, 100.12100220, 100.70898438, 32.55999756, 0.00000000
1, 1.0550, 128, -0.27209994, -0.57964027, 0.13352725, -149.04383850, 11.25182152, -241.87275696, -32.59280777, 9.47091484, -64.57176208, 111.94024658, -26.28703117, -112.49472046, -0.45947242, 0.34259176, -0.74170798, -0.34840387, -0.17542343, -0.24873410, 0.20269799, 100.12100220, 100.70898438, 32.55999756, 0.00000000
1, 1.0850, 129, -0.52465951, -0.91302729, 0.15776676, -152.57872009, -35.60073471, -272.24819946, -27.24349594, 5.78778124, -68.05027771, 106.46034241, -18.80937386, -110.12684631, -0.44550055, 0.37238121, -0.70387626, -0.40916950, 0.19622701, 0.00782990, 0.11041990, 100.12100220, 100.70898438, 32.55999756, 0.00000000
1, 1.0900, 130, -0.52189654, -0.90900731, 0.21512091, -153.64508057, -39.48617172, -276.21795654, -27.24349594, 5.78778124, -68.05027771, 105.62678528, -17.42905998, -109.92786407, -0.44181505, 0.37710154, -0.69734901, -0.41987890, 0.21608046, -0.00745413, 0.04190985, 100.12100220, 100.70898438, 32.55999756, 0.00000000
1, 1.0950, 131, -0.48194811, -0.91015720, 0.25171784, -151.49217224, -32.75768280, -278.60876465, -27.24349594, 5.78778124, -68.05027771, 104.80435181, -16.04332161, -109.71404266, -0.43816888, 0.38198727, -0.69055718, -0.43037730, 0.19915223, -0.01687019, -0.00596749, 100.12100220, 100.70898438, 32.55999756, 0.00000000
1, 1.1000, 132, -0.44198483, -0.92885661, 0.26063141, -146.79444885, -21.66330910, -280.57736206, -24.64191818, 4.53083897, -69.65799713, 104.00074005, -14.65893841, -109.46387482, -0.43465653, 0.38715750, -0.68347520, -0.44050467, 0.18243504, -0.00794157, -0.02631949, 100.12100220, 100.70898438, 32.55999756, 0.00000000
1, 1.1050, 133, -0.45031345, -0.97295976, 0.29538277, -141.35272217, -10.16209316, -281.80963135, -24.64191818, 4.53083897, -69.65799713, 103.22257996, -13.28308201, -109.17602539, -0.43130472, 0.39259982, -0.67614543, -0.45018765, 0.21400216, 0.02715750, -0.07262812, 100.12100220, 100.70898438, 32.55999756, 0.00000000
1, 1.1100, 134, -0.48255768, -1.01221776, 0.32301942, -137.50532532, -1.83910286, -281.80044556, -22.42034531, 3.39082146, -70.44723511, 102.46417999, -11.90847588, -108.86702728, -0.42803523, 0.39822039, -0.66858983, -0.45955849, 0.26954198, 0.05821402, -0.11184010, 100.12100220, 100.70898438, 32.55999756, 0.00000000
1, 1.1150, 135, -0.50403839, -1.05173922, 0.30942944, -134.96324158, -0.34765825, -282.07766724, -22.42034531, 3.39082146, -70.44723511, 101.72804260, -10.53022861, -108.57013702, -0.42467970, 0.40385208, -0.66092730, -0.46874917, 0.31459230, 0.09035549, -0.10973193, 100.12100220, 100.70898438, 32.55999756, 0.00000000
1, 1.1200, 136, -0.55353081, -1.10745931, 0.27769092, -133.64677429, -3.64621115, -283.50500488, -22.42034531, 3.39082146, -70.44723511, 101.01135254, -9.13817215, -108.30734253, -0.42109758, 0.40940624, -0.65320444, -0.47789907, 0.38801146, 0.13945085, -0.08949026, 100.12100220, 100.70898438, 32.55999756, 0.00000000
1, 1.1250, 137, -0.64350092, -1.15320349, 0.26511475, -133.11750793, -6.59863758, -285.12442017, -19.67260933, 3.85852075, -71.49955750, 100.30828857, -7.73233080, -108.07620239, -0.41730884, 0.41487765, -0.64539522, -0.48702663, 0.50220394, 0.17925429, -0.08846973, 100.12100220, 100.70898438, 32.55999756, 0.00000000
1, 1.1300, 138, -0.71001983, -1.22189832, 0.29598698, -131.69752502, -6.78625965, -286.96969604, -19.67260933, 3.85852075, -71.49955750, 99.62007141, -6.31454802, -107.86238098, -0.41337085, 0.42034441, -0.63746411, -0.49605924, 0.59313357, 0.24266905, -0.13085511, 100.12100220, 100.70898438, 32.55999756, 0.00000000
1, 1.1600, 139, -0.63619941, -0.93535399, 0.47673139, -112.00592804, 48.68126297, -280.46520996, -13.18327999, 3.18620276, -74.48114777, 95.88411713, 2.04722214, -106.06471252, -0.39218137, 0.45598352, -0.58592182, -0.54310995, 0.66477484, -0.05945207, -0.37500989, 100.12100220, 100.70898438, 32.55999756, 0.00000000
1, 1.1650, 140, -0.59260994, -0.93167365, 0.42775986, -106.99713898, 52.42158508, -279.21295166, -13.18327999, 3.18620276, -74.48114777, 95.36449432, 3.41019845, -105.66902161, -0.38900548, 0.46246541, -0.57687813, -0.54955631, 0.64509106, -0.06298929, -0.33518350, 100.12100220, 100.70898438, 32.55999756, 0.00000000
1, 1.1700, 141, -0.54463774, -0.94534457, 0.37199116, -102.43790436, 55.08038712, -278.05090332, -13.18327999, 3.18620276, -74.48114777, 94.87717438, 4.76970863, -105.27200317, -0.38576424, 0.46897924, -0.56782126, -0.55571890, 0.62094796, -0.04846990, -0.28805143, 100.12100220, 100.70898438, 32.55999756, 0.00000000
1, 1.1750, 142, -0.48862189, -0.97496033, 0.31557649, -97.20420837, 57.88110352, -276.75381470, -11.31248188, 3.77082729, -75.85501099, 94.42569733, 6.12489939, -104.87190247, -0.38245010, 0.47553694, -0.55877298, -0.56157756, 0.58865249, -0.01732703, -0.23970330, 100.12100220, 100.70898438, 32.55999756, 0.00000000
1, 1.1800, 143, -0.43317559, -1.01222789, 0.25864765, -90.85584259, 59.87017822, -274.61398315, -11.31248188, 3.77082729, -75.85501099, 94.01535797, 7.47173262, -104.47184753, -0.37904045, 0.48211771, -0.54979724, -0.56711024, 0.55674469, 0.02212473, -0.19017561, 100.12100220, 100.70898438, 32.55999756, 0.00000000
1, 1.1850, 144, -0.39981392, -1.05855930, 0.21710248, -83.96133423, 61.07068634, -271.34320068, -9.12014008, 3.74159598, -76.29347992, 93.64839935, 8.80461502, -104.07482910, -0.37553290, 0.48868579, -0.54095089, -0.57230544, 0.54660028, 0.07123660, -0.15535887, 100.12100220, 100.70898438, 32.55999756, 0.00000000
1, 1.1900, 145, -0.35778096, -1.10842359, 0.19678064, -79.04338074, 60.96971130, -268.25354004, -9.12014008, 3.74159598, -76.29347992, 93.31375885, 10.12452412, -103.68605042, -0.37193590, 0.49518216, -0.53220880, -0.57724530, 0.52739662, 0.12442395, -0.14109644, 100.12100220, 100.70898438, 32.55999756, 0.00000000
1, 1.1950, 146, -0.35218725, -1.14202821, 0.16201812, -68.53345490, 55.87692642, -258.30850220, -7.39549828, 5.64162540, -76.08885956, 93.03407288, 11.39833164, -103.33151245, -0.36818787, 0.50141740, -0.52394968, -0.58180326, 0.54398465, 0.16186050, -0.11166289, 100.12100220, 100.70898438, 32.55999756, 0.00000000
1, 1.2000, 147, -0.35541654, -1.17075360, 0.12525521, -61.71459198, 52.45426941, -251.08087158, -7.39549828, 5.64162540, -76.08885956, 92.79124451, 12.63853264, -103.00066376, -0.36434501, 0.50744194, -0.51600498, -0.58608395, 0.56865025, 0.19483797, -0.07948958, 100.12100220, 100.70898438, 32.55999756, 0.00000000
1, 1.2050, 148, -0.32767987, -1.21289325, 0.10841376, -55.10173035, 45.76047897, -242.59658813, -7.39549828, 5.64162540, -76.08885956, 92.58067322, 13.82609940, -102.70829010, -0.36044639, 0.51310045, -0.50851583, -0.59009999, 0.56144440, 0.24152583, -0.06657970, 100.12100220, 100.70898438, 32.55999756, 0.00000000
1, 1.2100, 149, -0.28292525, -1.26787698, 0.11683600, -50.49255753, 34.55025101, -232.40682983, -5.87547493, 5.93393755, -76.41040802, 92.38198090, 14.97927380, -102.48014832, -0.35634646, 0.51830351, -0.50143379, -0.59408998, 0.53628731, 0.30127382, -0.07858171, 100.12100220, 100.70898438, 32.55999756, 0.00000000
1, 1.2150, 150, -0.21344271, -1.34708095, 0.11248709, -47.58033371, 22.86708260, -220.52420044, -5.87547493, 5.93393755, -76.41040802, 92.18472290, 16.07610512, -102.31788635, -0.35219589, 0.52293593, -0.49482638, -0.59803265, 0.48552549, 0.38544509, -0.07771699, 100.12100220, 100.70898438, 32.55999756, 0.00000000
1, 1.2200, 151, -0.14641221, -1.40548801, 0.09932468, -45.66867065, 11.84286499, -207.42137146, -4.29698896, 7.62934828, -76.81964111, 91.98210907, 17.10994530, -102.21856689, -0.34807333, 0.52697998, -0.48869228, -0.60192764, 0.43612283, 0.44889909, -0.06803197, 100.12100220, 100.70898438, 32.55999756, 0.00000000
1, 1.2250, 152, -0.12402583, -1.37526071, 0.06886889, -45.26955414, 3.31675100, -190.06852722, -4.29698896, 7.62934828, -76.81964111, 91.76798248, 18.05873108, -102.17018890, -0.34418780, 0.53039557, -0.48305959, -0.60569704, 0.43000156, 0.42365414, -0.04116386, 100.12100220, 100.70898438, 32.55999756, 0.00000000
1, 1.2300, 153, -0.11919848, -1.29356086, 0.05091058, -42.24457932, -6.58760405, -168.01487732, -4.29698896, 7.62934828, -76.81964111, 91.55126190, 18.89885330, -102.18070984, -0.34058377, 0.53309691, -0.47813532, -0.60925943, 0.43961388, 0.34662211, -0.02678776, 100.12100220, 100.70898438, 32.55999756, 0.00000000
1, 1.2350, 154, -0.13800317, -1.22707105, 0.08235862, -36.07180786, -20.35509872, -143.49949646, -2.80619693, 7.36626720, -77.19964600, 91.33940887, 19.61807823, -102.27058411, -0.33718327, 0.53498775, -0.47412753, -0.61261630, 0.47070870, 0.28426111, -0.06181037, 100.12100220, 100.70898438, 32.55999756, 0.00000000
1, 1.2400, 155, -0.18864332, -1.23164785, 0.14980251, -29.53128242, -32.04393387, -118.37842560, -2.80619693, 7.36626720, -77.19964600, 91.13646698, 20.21266747, -102.42839050, -0.33404687, 0.53612524, -0.47103676, -0.61571646, 0.53146648, 0.29234385, -0.13283622, 100.12100220, 100.70898438, 32.55999756, 0.00000000
1, 1.2450, 156, -0.26706696, -1.26218975, 0.20576800, -23.26797676, -39.38603973, -84.28202820, -2.07541656, 9.00321579, -77.72580719, 90.94827271, 20.63698006, -102.63105774, -0.33152029, 0.53644603, -0.46900886, -0.61834508, 0.61755157, 0.32561815, -0.19227131, 100.12100220, 100.70898438, 32.55999756, 0.00000000
1, 1.2500, 157, -0.33202362, -1.25108051, 0.22758487, -17.55317116, -43.74897766, -55.54071808, -2.07541656, 9.00321579, -77.72580719, 90.77816772, 20.91735077, -102.86100769, -0.32954070, 0.53613853, -0.46786568, -0.62053210, 0.68762559, 0.31638199, -0.21711622, 100.12100220, 100.70898438, 32.55999756, 0.00000000
1, 1.2550, 158, -0.45287922, -1.18370140, 0.26035893, -8.99333763, -49.34530258, -19.32880211, -2.07541656, 9.00321579, -77.72580719, 90.65862274, 20.95514107, -103.11022186, -0.32854161, 0.53492910, -0.46820712, -0.62184674, 0.81010520, 0.24957162, -0.25231379, 100.12100220, 100.70898438, 32.55999756, 0.00000000
1, 1.2800, 159, -0.88974607, -1.05719864, 0.67160779, 29.47443581, -43.96674728, 90.40861511, -1.87079799, 8.88629055, -78.28120422, 90.57188416, 19.68029976, -104.46095276, -0.32858664, 0.52389371, -0.47982723, -0.62236011, 1.22677422, 0.11524991, -0.66647428, 100.12100220, 100.70898438, 32.55999756, 0.00000000
1, 1.2850, 160, -0.91341966, -1.08923912, 0.79199702, 34.16173935, -36.75478745, 106.64485931, -1.28617358, 8.09704781, -78.86582947, 90.67747498, 19.14921188, -104.66101837, -0.32992506, 0.52115464, -0.48371726, -0.62093878, 1.24174440, 0.14412767, -0.78536397, 100.12100220, 100.70898438, 32.55999756, 0.00000000
1, 1.2900, 161, -0.85741311, -1.11948526, 0.90353310, 39.03958893, -27.84841156, 122.00769806, -1.28617358, 8.09704781, -78.86582947, 90.82424164, 18.54128838, -104.81552124, -0.33174589, 0.51838923, -0.48794636, -0.61897147, 1.17573309, 0.17087200, -0.89451921, 100.12100220, 100.70898438, 32.55999756, 0.00000000
1, 1.2950, 162, -0.68663085, -1.17496192, 0.98351425, 45.19613647, -22.34928131, 134.64414978, -3.09850907, 7.98012257, -78.16427612, 91.01194000, 17.87030602, -104.94332123, -0.33387297, 0.51557541, -0.49253032, -0.61654264, 0.99388766, 0.22265613, -0.97116745, 100.12100220, 100.70898438, 32.55999756, 0.00000000
1, 1.3000, 163, -0.33397803, -1.32861841, 0.88922197, 51.76755142, -13.28947926, 145.64260864, -3.09850907, 7.98012257, -78.16427612, 91.24742126, 17.14403534, -105.02676392, -0.33632770, 0.51284403, -0.49738520, -0.61358184, 0.62962353, 0.37276042, -0.87248713, 100.12100220, 100.70898438, 32.55999756, 0.00000000
1, 1.3050, 164, -0.07429659, -1.43491113, 0.74952108, 57.11251068, 12.64279747, 146.85867310, -3.09850907, 7.98012257, -78.16427612, 91.55699921, 16.40454865, -104.97514343, -0.33924568, 0.51085442, -0.50205594, -0.60981965, 0.35793069, 0.47562277, -0.72755432, 100.12100220, 100.70898438, 32.55999756, 0.00000000
1, 1.3100, 165, 0.38609594, -1.59199488, 0.45185268, 57.97194290, 68.85224915, 137.35638428, -3.82928967, 7.07395506, -78.31043243, 91.94169617, 15.70874596, -104.63768768, -0.34309971, 0.51053822, -0.50562739, -0.60495818, -0.11361289, 0.62991560, -0.42256027, 100.12100220, 100.70898438, 32.55999756, 0.00000000
1, 1.3150, 166, 0.80216014, -1.68671048, 0.05630622, 51.52369690, 113.61370850, 123.25767517, -3.82928967, 7.07395506, -78.31043243, 92.35089874, 15.07307625, -104.07173920, -0.34769237, 0.51159030, -0.50801498, -0.59942162, -0.53964055, 0.72247660, -0.01922952, 100.12100220, 100.70898438, 32.55999756, 0.00000000
1, 1.3200, 167, 1.21334302, -1.75446308, -0.38704419, 44.83622360, 131.76068115, 112.10296631, -5.29085064, 6.95702982, -77.22888184, 92.74377441, 14.48541069, -103.41581726, -0.35252300, 0.51323229, -0.50967282, -0.59376252, -0.95980757, 0.78855634, 0.43188357, 100.12100220, 100.70898438, 32.55999756, 0.00000000
1, 1.3250, 168, 1.34548521, -1.80386758, -0.77541149, 41.62379456, 111.08232117, 107.51482391, -5.29085064, 6.95702982, -77.22888184, 93.08705902, 13.92170811, -102.87084961, -0.35682783, 0.51436245, -0.51143593, -0.58867520, -1.10059476, 0.83643931, 0.82664639, 100.12100220, 100.70898438, 32.55999756, 0.00000000
1, 1.3600, 169, -0.64957905, -0.65400493, 0.66051549, 82.53109741, -124.67828369, 146.31153870, -6.86933661, 5.46623802, -77.11195374, 94.67230988, 9.64748669, -106.51693726, -0.35441488, 0.48399523, -0.55308294, -0.57813323, 0.81843936, -0.32925859, -0.58420813, 100.12100220, 100.70898438, 32.55999756, 0.00000000
1, 1.3650, 170, -0.72366303, -0.80380893, 0.45338237, 78.80838776, -88.88719940, 139.81599426, -6.86933661, 5.46623802, -77.11195374, 94.98590088, 8.98841667, -107.02417755, -0.35411844, 0.47959411, -0.55938447, -0.57591558, 0.88157034, -0.18058273, -0.37203154, 100.12100220, 100.70898438, 32.55999756, 0.00000000
1, 1.3700, 171, -0.77830249, -0.87823403, 0.27385944, 72.03594208, -74.91149139, 131.19189453, -7.65857935, 5.55393171, -76.35194397, 95.28197479, 8.36879635, -107.45983887, -0.35406673, 0.47562155, -0.56508619, -0.57367104, 0.92578393, -0.10708876, -0.18743427, 100.12100220, 100.70898438, 32.55999756, 0.00000000
1, 1.3750, 172, -0.78204387, -0.86145282, 0.24255534, 65.41071320, -76.24030304, 121.71035004, -7.65857935, 5.55393171, -76.35194397, 95.54866791, 7.79906940, -107.90013123, -0.35386500, 0.47172251, -0.57041746, -0.57173550, 0.91954154, -0.12482634, -0.15125825, 100.12100220, 100.70898438, 32.55999756, 0.00000000
1, 1.3800, 173, -0.74694937, -0.80902207, 0.38386232, 59.29785919, -84.41620636, 113.25085449, -7.65857935, 5.55393171, -76.35194397, 95.78375244, 7.27723932, -108.37926483, -0.35335898, 0.46771240, -0.57552248, -0.57022500, 0.87486994, -0.17831610, -0.28809193, 100.12100220, 100.70898438, 32.55999756, 0.00000000
1, 1.3850, 174, -0.75370228, -0.78042316, 0.56638575, 56.71730423, -87.20729828, 106.66241455, -7.74627304, 3.71236467, -76.52732849, 96.00849915, 6.79143381, -108.87058258, -0.35265708, 0.46373719, -0.58044660, -0.56891346, 0.87261873, -0.20788684, -0.46660462, 100.12100220, 100.70898438, 32.55999756, 0.00000000
1, 1.3900, 175, -0.77223563, -0.86354625, 0.67037767, 63.39876556, -76.00199127, 102.21756744, -7.74627304, 3.71236467, -76.52732849, 96.27710724, 6.32396173, -109.30506134, -0.35197887, 0.46023712, -0.58524990, -0.56725234, 0.88273174, -0.12541784, -0.56629860, 100.12100220, 100.70898438, 32.55999756, 0.00000000
1, 1.3950, 176, -0.80607063, -1.05119383, 0.71294045, 76.23448181, -52.70117188, 99.63011932, -8.44782257, 5.34931278, -76.26425171, 96.62562561, 5.85890913, -109.62377167, -0.35155946, 0.45756125, -0.58993798, -0.56481582, 0.90839183, 0.06191953, -0.60349846, 100.12100220, 100.70898438, 32.55999756, 0.00000000
1, 1.4300, 177, -0.50345123, -0.99296260, 0.25069568, 53.64286423, 64.76809692, 70.39951324, -9.70476437, 5.08623219, -74.68576050, 99.05426025, 2.77364874, -108.75036621, -0.36300179, 0.45573628, -0.60901302, -0.53817970, 0.55293620, 0.00606093, -0.09761623, 100.12100220, 100.70898438, 32.55999756, 0.00000000
1, 1.4350, 178, -0.35947058, -1.02023315, 0.28710052, 52.15403748, 72.68009949, 68.18846130, -10.64016342, 4.26775789, -74.18883514, 99.32958984, 2.38015580, -108.44504547, -0.36548671, 0.45646331, -0.61043245, -0.53425926, 0.40199262, 0.03372284, -0.12887293, 100.12100220, 100.70898438, 32.55999756, 0.00000000
1, 1.4400, 179, -0.21352193, -1.05504763, 0.24601962, 48.47385025, 76.40426636, 65.51990509, -10.64016342, 4.26775789, -74.18883514, 99.58514404, 1.99535549, -108.12108612, -0.36807325, 0.45727849, -0.61163890, -0.53039265, 0.24938583, 0.06908143, -0.08294978, 100.12100220, 100.70898438, 32.55999756, 0.00000000
1, 1.4450, 180, -0.06067786, -1.06443751, 0.16295783, 44.56270218, 69.72158813, 62.43096542, -11.28325081, 4.82315111, -74.15959930, 99.81797028, 1.62995481, -107.82923126, -0.37048015, 0.45794779, -0.61278731, -0.52680165, 0.09028085, 0.07909070, 0.00460688, 100.12100220, 100.70898438, 32.55999756, 0.00000000
1, 1.4500, 181, 0.05987538, -1.06883180, 0.11715663, 42.72546005, 56.32602310, 59.68140793, -11.28325081, 4.82315111, -74.15959930, 100.03813171, 1.28837478, -107.60253143, -0.37249625, 0.45834392, -0.61404431, -0.52356195, -0.03622115, 0.08406475, 0.05455702, 100.12100220, 100.70898438, 32.55999756, 0.00000000
1, 1.4550, 182, 0.13269177, -1.08109283, 0.11825312, 41.97904205, 44.00851440, 57.39934921, -11.28325081, 4.82315111, -74.15959930, 100.24700928, 0.97650683, -107.43601227, -0.37411273, 0.45852101, -0.61537904, -0.52067918, -0.11464399, 0.09685706, 0.05729443, 100.12100220, 100.70898438, 32.55999756, 0.00000000
1, 1.4600, 183, 0.16849956, -1.09074652, 0.13319117, 42.19426346, 34.64694214, 55.66622162, -11.98479939, 4.29698896, -73.13651276, 100.46043396, 0.67230082, -107.31501007, -0.37545720, 0.45850837, -0.61688071, -0.51793844, -0.15578918, 0.10706252, 0.04606486, 100.12100220, 100.70898438, 32.55999756, 0.00000000
1, 1.4650, 184, 0.15875177, -1.10166585, 0.14533857, 41.79289246, 26.41450691, 54.56375504, -11.98479939, 4.29698896, -73.13651276, 100.67082977, 0.38054687, -107.23462677, -0.37655950, 0.45832729, -0.61847955, -0.51538545, -0.15121430, 0.11858268, 0.03751708, 100.12100220, 100.70898438, 32.55999756, 0.00000000
1, 1.4700, 185, 0.09934635, -1.09659159, 0.13585481, 40.61655426, 20.66580391, 54.19633865, -12.71557999, 5.02776957, -72.49342346, 100.87480164, 0.09561078, -107.18320465, -0.37751853, 0.45800248, -0.62013310, -0.51297998, -0.09677616, 0.11416341, 0.05038337, 100.12100220, 100.70898438, 32.55999756, 0.00000000
1, 1.4750, 186, 0.00755345, -1.07702577, 0.15810984, 38.91763687, 5.35126066, 54.55398178, -12.71557999, 5.02776957, -72.49342346, 101.07008362, -0.17683220, -107.20831299, -0.37810242, 0.45729238, -0.62200308, -0.51091540, -0.00985343, 0.09521252, 0.03132108, 100.12100220, 100.70898438, 32.55999756, 0.00000000
1, 1.4850, 187, -0.17972517, -1.07175505, 0.36093432, 34.57913971, -0.51192707, 54.92513275, -13.06635475, 2.28003502, -72.25957489, 101.43253326, -0.71540242, -107.32041931, -0.37907949, 0.45547020, -0.62581617, -0.50714880, 0.16750714, 0.09092002, -0.16566259, 100.12100220, 100.70898438, 32.55999756, 0.00000000
1, 1.4900, 188, -0.27173802, -1.07767665, 0.44531468, 31.35099220, 7.23280525, 53.25801468, -13.06635475, 2.28003502, -72.25957489, 101.59017181, -0.98320478, -107.33763123, -0.37982887, 0.45469922, -0.62744606, -0.50526249, 0.25463596, 0.09732758, -0.24752575, 100.12100220, 100.70898438, 32.55999756, 0.00000000
1, 1.4950, 189, -0.32754698, -1.06806207, 0.47004834, 27.63431931, 19.93494034, 50.94411469, -13.21251106, 4.61853266, -71.96726227, 101.72805023, -1.25240660, -107.29096985, -0.38094580, 0.45420700, -0.62873274, -0.50326097, 0.30569038, 0.08825935, -0.26995593, 100.12100220, 100.70898438, 32.55999756, 0.00000000
1, 1.5000, 190, -0.33331585, -1.04346943, 0.46362928, 24.09315300, 32.68848419, 47.99827576, -13.21251106, 4.61853266, -71.96726227, 101.84638977, -1.52026451, -107.17947388, -0.38241506, 0.45401341, -0.62966639, -0.50114965, 0.30679217, 0.06422032, -0.26143140, 100.12100220, 100.70898438, 32.55999756, 0.00000000
1, 1.5050, 191, -0.30579221, -1.02883518, 0.45635653, 20.93775940, 42.90747833, 44.84690475, -13.76790428, 4.61853266, -72.02572632, 101.96456909, -1.80300689, -107.01441193, -0.38419479, 0.45404962, -0.63042903, -0.49879116, 0.27450112, 0.05013742, -0.25214702, 100.12100220, 100.70898438, 32.55999756, 0.00000000
1, 1.5100, 192, -0.25991488, -1.00549138, 0.43905112, 17.46494293, 49.92340469, 41.51807022, -13.76790428, 4.26775789, -72.02572632, 102.04561615, -2.05744600, -106.81285095, -0.38612118, 0.45429152, -0.63079071, -0.49662146, 0.22401625, 0.02731168, -0.23310801, 100.12100220, 100.70898438, 32.55999756, 0.00000000
1, 1.5150, 193, -0.19690196, -0.98178530, 0.37024438, 15.85084915, 53.35515594, 38.71108246, -13.76790428, 4.26775789, -72.02572632, 102.11694336, -2.30199599, -106.59189606, -0.38810971, 0.45465371, -0.63099831, -0.49447146, 0.15686616, 0.00413996, -0.16289590, 100.12100220, 100.70898438, 32.55999756, 0.00000000
1, 1.5200, 194, -0.14299898, -0.96635628, 0.29304227, 16.26847839, 53.71477127, 36.92667389, -14.41099072, 5.14469433, -71.35340118, 102.18927002, -2.53845978, -106.36757660, -0.39005798, 0.45507592, -0.63116789, -0.49232900, 0.09899709, -0.01073210, -0.08434899, 100.12100220, 100.70898438, 32.55999756, 0.00000000
1, 1.5250, 195, -0.05997981, -0.96901977, 0.25207657, 17.00316811, 51.48855972, 35.60238266, -14.41099072, 5.14469433, -71.35340118, 102.26478577, -2.76640534, -106.15303040, -0.39189875, 0.45549524, -0.63135964, -0.49022907, 0.01206712, -0.00754793, -0.04194436, 100.12100220, 100.70898438, 32.55999756, 0.00000000
1, 1.5300, 196, -0.03067837, -0.96562266, 0.24281381, 17.06011009, 46.66013718, 35.06594467, -15.25869656, 4.88161373, -71.26570892, 102.34094238, -2.98688340, -105.96179962, -0.39359093, 0.45582354, -0.63161993, -0.48822886, -0.02109751, -0.01046117, -0.03135104, 100.12100220, 100.70898438, 32.55999756, 0.00000000
1, 1.5800, 197, -0.03984042, -0.93153322, 0.18520275, 14.07219124, 22.33822441, 31.43966866, -16.74948883, 2.28003502, -71.29494476, 103.02812195, -4.85852194, -105.03894806, -0.40466690, 0.45494333, -0.63666004, -0.47321814, -0.04454380, -0.03965792, 0.03753009, 100.12100220, 100.70898438, 32.55999756, 0.00000000
1, 1.5850, 198, -0.03785615, -0.93920755, 0.17441364, 14.79936218, 21.08476639, 31.68095016, -16.74948883, 2.28003502, -71.29494476, 103.09669495, -5.03636408, -104.97145844, -0.40561074, 0.45476365, -0.63722044, -0.47182634, -0.04959886, -0.03144495, 0.04938278, 100.12100220, 100.70898438, 32.55999756, 0.00000000
1, 1.5900, 199, -0.03783045, -0.95781898, 0.16754517, 15.71292782, 19.13504601, 31.97337151, -16.74948883, 2.28003502, -71.29494476, 103.17052460, -5.21350765, -104.91405487, -0.40648702, 0.45455039, -0.63783807, -0.47044122, -0.05268994, -0.01226611, 0.05740029, 100.12100220, 100.70898438, 32.55999756, 0.00000000
1, 1.5950, 200, -0.02917892, -0.96931493, 0.16668153, 15.76493168, 17.87140274, 32.39826584, -17.04179955, 4.82315111, -70.79801178, 103.24508667, -5.39134645, -104.86351776, -0.40733457, 0.45429897, -0.63848561, -0.46907061, -0.06442206, -0.00019737, 0.05946156, 100.12100220, 100.70898438, 32.55999756, 0.00000000
1, 1.6000, 201, -0.01867198, -0.96410656, 0.15721287, 15.66829872, 17.19240189, 33.08435440, -17.04179955, 4.82315111, -70.79801178, 103.31942749, -5.57183504, -104.81731415, -0.40817797, 0.45401135, -0.63915497, -0.46770233, -0.07802883, -0.00480433, 0.07015435, 100.12100220, 100.70898438, 32.55999756, 0.00000000
1, 1.6050, 202, -0.01775651, -0.95690918, 0.13202122, 15.82259750, 16.40535545, 34.01003265, -17.15872574, 5.26161957, -70.15492249, 103.37837982, -5.74282646, -104.77471161, -0.40901658, 0.45369178, -0.63974476, -0.46647191, -0.08195082, -0.01139945, 0.09641944, 100.12100220, 100.70898438, 32.55999756, 0.00000000
1, 1.6100, 203, -0.02435908, -0.94963503, 0.12015928, 16.24216461, 14.26297855, 34.90004349, -17.15872574, 5.26161957, -70.15492249, 103.45702362, -5.92886686, -104.74533081, -0.40980145, 0.45330149, -0.64051002, -0.46511012, -0.07842857, -0.01806725, 0.10937735, 100.12100220, 100.70898438, 32.55999756, 0.00000000
1, 1.6150, 204, -0.01985938, -0.94200456, 0.12813181, 16.70420456, 11.56231117, 35.84630585, -17.15872574, 5.26161957, -70.15492249, 103.53944397, -6.11641455, -104.73051453, -0.41051963, 0.45283678, -0.64134985, -0.46377033, -0.08619580, -0.02505027, 0.10272626, 100.12100220, 100.70898438, 32.55999756, 0.00000000
1, 1.6200, 205, -0.01450203, -0.93046761, 0.13581438, 17.05233383, 9.48474979, 36.91402054, -17.97719955, 5.20315695, -70.79801178, 103.62482452, -6.30674171, -104.72737885, -0.41119313, 0.45230493, -0.64225292, -0.46244109, -0.09486181, -0.03590978, 0.09642144, 100.12100220, 100.70898438, 32.55999756, 0.00000000
1, 1.6250, 206, -0.01461574, -0.91854560, 0.13295279, 17.50945473, 7.20095396, 37.90533066, -17.97719955, 5.20315695, -70.79801178, 103.71390533, -6.49920988, -104.73686981, -0.41181225, 0.45170587, -0.64322364, -0.46112448, -0.09807134, -0.04710666, 0.10069715, 100.12100220, 100.70898438, 32.55999756, 0.00000000
1, 1.6600, 207, -0.06911405, -0.92041206, 0.24395736, 21.02210617, -5.48289728, 43.76253128, -18.47413063, 2.54311609, -69.54106903, 104.47339630, -7.89517117, -105.15003967, -0.41450793, 0.44581205, -0.65194488, -0.45210934, -0.06797227, -0.03931871, 0.00146577, 100.12100220, 100.70898438, 32.55999756, 0.00000000
1, 1.6650, 208, -0.09773270, -0.92639077, 0.24976493, 20.89345741, -6.63118649, 43.66669464, -18.47413063, 2.54311609, -69.54106903, 104.59057617, -8.09808636, -105.23738098, -0.41477227, 0.44482049, -0.65332502, -0.45084935, -0.04288523, -0.03236818, -0.00258869, 100.12100220, 100.70898438, 32.55999756, 0.00000000
1, 1.6700, 209, -0.13663083, -0.93390882, 0.24950133, 21.05350685, -8.09355927, 43.69990540, -18.82490540, 4.82315111, -70.33031464, 104.70993042, -8.29914474, -105.33238220, -0.41499075, 0.44379997, -0.65473241, -0.44961068, -0.00746838, -0.02384963, -0.00057521, 100.12100220, 100.70898438, 32.55999756, 0.00000000
1, 1.6750, 210, -0.17556089, -0.94070399, 0.26668632, 21.02767754, -8.92678738, 43.57521820, -18.82490540, 4.82315111, -70.33031464, 104.83013153, -8.49835014, -105.43175507, -0.41518170, 0.44276422, -0.65614897, -0.44838896, 0.02797044, -0.01606480, -0.01598841, 100.12100220, 100.70898438, 32.55999756, 0.00000000
1, 1.6800, 211, -0.21379022, -0.93969345, 0.27576208, 20.49234962, -8.85357761, 43.23325348, -18.62028694, 3.85852075, -69.77491760, 104.94793701, -8.69579983, -105.53079987, -0.41537648, 0.44172785, -0.65754420, -0.44718534, 0.06276069, -0.01606970, -0.02331304, 100.12100220, 100.70898438, 32.55999756, 0.00000000
1, 1.6850, 212, -0.25102958, -0.93966687, 0.28572631, 20.16390038, -8.31761360, 42.54916382, -18.62028694, 3.85852075, -69.77491760, 105.06394196, -8.89043331, -105.62680054, -0.41557780, 0.44071355, -0.65890706, -0.44599137, 0.09660695, -0.01509289, -0.03156263, 100.12100220, 100.70898438, 32.55999756, 0.00000000
1, 1.6900, 213, -0.29907998, -0.93938792, 0.28576875, 19.75898933, -7.39354706, 41.62993240, -18.62028694, 3.85852075, -69.77491760, 105.17742157, -9.08163452, -105.71752167, -0.41579369, 0.43973446, -0.66022480, -0.44480604, 0.14134167, -0.01435589, -0.02995945, 100.12100220, 100.70898438, 32.55999756, 0.00000000
1, 1.6950, 214, -0.33728614, -0.94653726, 0.29055211, 19.78333282, -6.83189631, 39.99555969, -19.81876564, 5.37854433, -69.92107391, 105.29058838, -9.26551056, -105.80376434, -0.41599196, 0.43881193, -0.66149884, -0.44363731, 0.17634109, -0.00620830, -0.03310409, 100.12100220, 100.70898438, 32.55999756, 0.00000000
1, 1.7000, 215, -0.35913971, -0.95991671, 0.29376101, 19.62376404, -2.85524297, 38.23461151, -19.81876564, 5.37854433, -69.92107391, 105.39972687, -9.44596291, -105.86862946, -0.41627237, 0.43801269, -0.66266131, -0.44242769, 0.19506198, 0.00816286, -0.03468825, 100.12100220, 100.70898438, 32.55999756, 0.00000000
1, 1.7050, 216, -0.35242599, -0.96047854, 0.28741017, 19.61513901, 0.48694417, 36.84218979, -19.38029861, 3.94621444, -69.89184570, 105.50984955, -9.65421009, -105.91511536, -0.41676748, 0.43719608, -0.66382813, -0.44101778, 0.18502903, 0.00977057, -0.02666820, 100.12100220, 100.70898438, 32.55999756, 0.00000000
1, 1.7350, 217, 0.00713041, -1.02698040, 0.17914851, 20.79460716, 17.63691711, 36.74522400, -19.90645981, 5.05700064, -68.75182343, 106.11609650, -10.75388908, -105.82607269, -0.42057347, 0.43491840, -0.66873050, -0.43216145, -0.19329666, 0.08258238, 0.09154214, 100.12100220, 100.70898438, 32.55999756, 0.00000000
1, 1.7400, 218, 0.10490755, -1.05230784, 0.18105811, 19.42496300, 16.85749245, 39.72351456, -19.90645981, 5.05700064, -68.75182343, 106.20870209, -10.96783829, -105.79949951, -0.42144352, 0.43443805, -0.66953903, -0.43054223, -0.29468840, 0.10901631, 0.09118987, 100.12100220, 100.70898438, 32.55999756, 0.00000000
1, 1.7450, 219, 0.17711365, -1.06086254, 0.14754394, 18.66826630, 15.51316643, 43.24137497, -20.63723946, 4.70622635, -69.54106903, 106.29975891, -11.19687176, -105.78483582, -0.42235282, 0.43381384, -0.67042190, -0.42890337, -0.37066835, 0.11878340, 0.12615645, 100.12100220, 100.70898438, 32.55999756, 0.00000000
1, 1.7500, 220, 0.24673454, -1.07894230, 0.13924156, 18.82822990, 14.61813259, 45.77681732, -20.63723946, 4.70622635, -69.54106903, 106.39323425, -11.43683624, -105.77853394, -0.42327842, 0.43309981, -0.67136902, -0.42722782, -0.44434536, 0.13810310, 0.13590191, 100.12100220, 100.70898438, 32.55999756, 0.00000000
1, 1.7550, 221, 0.29982388, -1.08721077, 0.18421942, 20.14237404, 13.38447952, 52.70606613, -20.57877731, 5.14469433, -68.37181854, 106.48468018, -11.65813637, -105.78497314, -0.42406619, 0.43238884, -0.67230368, -0.42569420, -0.50160432, 0.14754690, 0.09236306, 100.12100220, 100.70898438, 32.55999756, 0.00000000
1, 1.7600, 222, 0.32938251, -1.08628643, 0.20376126, 21.09287262, 15.10717297, 56.76602936, -20.57877731, 5.14469433, -68.37181854, 106.59246826, -11.95148659, -105.79296112, -0.42516300, 0.43139952, -0.67348379, -0.42373413, -0.53569818, 0.14797375, 0.07427801, 100.12100220, 100.70898438, 32.55999756, 0.00000000
1, 1.7650, 223, 0.34762993, -1.09452021, 0.21028088, 22.78945732, 16.90529633, 60.85334778, -20.57877731, 5.14469433, -68.37181854, 106.70838928, -12.26694965, -105.79870605, -0.42635244, 0.43035185, -0.67473352, -0.42161068, -0.55925786, 0.15783340, 0.06932547, 100.12100220, 100.70898438, 32.55999756, 0.00000000
1, 1.7700, 224, 0.35369715, -1.11705649, 0.20987533, 24.88299179, 18.22041702, 64.88903809, -21.30955887, 4.20929527, -68.72259521, 106.83486938, -12.60359287, -105.80458832, -0.42761174, 0.42924514, -0.67606670, -0.41932184, -0.57096851, 0.18216236, 0.07137474, 100.12100220, 100.70898438, 32.55999756, 0.00000000
1, 1.7750, 225, 0.34923840, -1.16357660, 0.23587938, 26.47279167, 20.08136940, 69.22457123, -21.30955887, 4.20929527, -68.72259521, 106.96897125, -12.96364403, -105.80856323, -0.42897069, 0.42807013, -0.67746824, -0.41686553, -0.57260317, 0.23059607, 0.04705467, 100.12100220, 100.70898438, 32.55999756, 0.00000000
1, 1.7800, 226, 0.32741463, -1.19706142, 0.25083926, 27.15425682, 23.56708336, 73.75061798, -21.89418221, 5.02776957, -68.25489807, 107.10438538, -13.35041046, -105.80306244, -0.43049723, 0.42683303, -0.67889327, -0.41423398, -0.55727839, 0.26616132, 0.03374165, 100.12100220, 100.70898438, 32.55999756, 0.00000000
1, 1.8300, 227, 0.16949721, -1.32371116, -0.05354250, 30.40753937, 31.77202797, 116.49318695, -25.37269783, 4.67699480, -67.11487579, 108.59222412, -18.46531296, -105.64926910, -0.45188528, 0.40971923, -0.69522500, -0.38025254, -0.48358396, 0.42377603, 0.35382599, 100.12100220, 100.70898438, 32.55999756, 0.00000000
1, 1.8350, 228, 0.20436780, -1.33602500, -0.04940612, 30.25981903, 30.33510971, 121.19284821, -25.37269783, 4.67699480, -67.11487579, 108.76177979, -19.08764648, -105.70127106, -0.45426667, 0.40714943, -0.69728351, -0.37638664, -0.52867377, 0.44023120, 0.35129091, 100.12100220, 100.70898438, 32.55999756, 0.00000000
1, 1.8400, 229, 0.22995971, -1.34368336, -0.05316544, 30.35579681, 29.35125923, 125.97033691, -26.10347748, 5.61239386, -67.46565247, 108.93746948, -19.73088074, -105.76852417, -0.45668024, 0.40440708, -0.69942528, -0.37242773, -0.56476760, 0.45229501, 0.35663193, 100.12100220, 100.70898438, 32.55999756, 0.00000000
1, 1.8450, 230, 0.24218544, -1.35849774, -0.03138750, 30.96292496, 30.15490913, 130.46844482, -26.10347748, 5.61239386, -67.46565247, 109.11908722, -20.39648438, -105.84190369, -0.45916483, 0.40153903, -0.70161593, -0.36833310, -0.58787858, 0.47174358, 0.33638230, 100.12100220, 100.70898438, 32.55999756, 0.00000000
1, 1.8500, 231, 0.25304419, -1.37388885, -0.01635931, 32.23035049, 32.12577820, 134.46018982, -26.10347748, 5.61239386, -67.46565247, 109.30775452, -21.08392906, -105.91493988, -0.46173456, 0.39859134, -0.70383114, -0.36407128, -0.60991800, 0.49206150, 0.32286346, 100.12100220, 100.70898438, 32.55999756, 0.00000000
1, 1.8550, 232, 0.25211173, -1.38808417, -0.01050198, 33.80234528, 35.32448196, 138.19689941, -27.12657166, 6.05086231, -66.96871948, 109.48970032, -21.77578163, -105.97547150, -0.46438742, 0.39566579, -0.70594853, -0.35976329, -0.62030858, 0.51140815, 0.31839907, 100.12100220, 100.70898438, 32.55999756, 0.00000000
1, 1.8600, 233, 0.26599425, -1.40168357, -0.01500854, 35.80713654, 41.12295151, 142.62100220, -27.12657166, 6.05086231, -66.96871948, 109.68838501, -22.51619911, -106.02295685, -0.46726322, 0.39265066, -0.70812190, -0.35504091, -0.64587730, 0.53049624, 0.32425129, 100.12100220, 100.70898438, 32.55999756, 0.00000000
1, 1.8650, 234, 0.28608766, -1.40901959, -0.00222039, 38.47945404, 47.37016296, 145.99572754, -28.85121346, 6.28471184, -67.02718353, 109.89218903, -23.28285980, -106.04776764, -0.47031701, 0.38966498, -0.71023405, -0.35004395, -0.67821538, 0.54372180, 0.31283933, 100.12100220, 100.70898438, 32.55999756, 0.00000000
1, 1.8700, 235, 0.34997961, -1.43725538, 0.02653243, 42.56808853, 57.33071899, 150.45747375, -28.85121346, 6.28471184, -67.02718353, 110.10091400, -24.08729935, -106.03289795, -0.47365382, 0.38675883, -0.71224427, -0.34464166, -0.75493896, 0.57825869, 0.28543824, 100.12100220, 100.70898438, 32.55999756, 0.00000000
1, 1.8750, 236, 0.40321794, -1.46789300, 0.03480135, 44.48259735, 64.57157135, 154.25112915, -28.85121346, 6.28471184, -67.02718353, 110.30780029, -24.92201996, -105.99093628, -0.47721416, 0.38386273, -0.71415818, -0.33896041, -0.82135415, 0.61559796, 0.27830714, 100.12100220, 100.70898438, 32.55999756, 0.00000000
1, 1.9350, 237, 0.37337041, -1.81589627, 0.03049899, 59.65478897, 82.75485229, 190.38482666, -37.85442734, 6.02163124, -65.53639221, 112.28666687, -36.78254318, -103.72161102, -0.53255880, 0.34841236, -0.72833937, -0.25399160, -0.96859574, 1.07187486, 0.27125072, 100.12100220, 100.70898438, 32.55999756, 0.00000000
1, 1.9400, 238, 0.33043751, -1.80953765, 0.04741094, 58.08927536, 69.36934662, 196.07962036, -39.57907104, 9.06167793, -65.41946411, 112.61917877, -37.82047653, -103.78685760, -0.53602916, 0.34430778, -0.73031384, -0.24650879, -0.94016099, 1.07727444, 0.25421238, 100.12100220, 100.70898438, 32.55999756, 0.00000000
1, 1.9450, 239, 0.29811117, -1.80174005, -0.04332584, 57.31032181, 55.29652786, 200.20573425, -39.57907104, 9.06167793, -65.41946411, 113.01216888, -38.84991455, -103.95430756, -0.53906000, 0.33987132, -0.73260665, -0.23914284, -0.92179745, 1.08187652, 0.34535903, 100.12100220, 100.70898438, 32.55999756, 0.00000000
1, 1.9500, 240, 0.32081258, -1.82953370, -0.02554500, 57.79077148, 42.31378937, 201.43247986, -39.57907104, 9.06167793, -65.41946411, 113.46859741, -39.85848236, -104.21435547, -0.54163456, 0.33524084, -0.73516417, -0.23190379, -0.95827639, 1.12225628, 0.32870996, 100.12100220, 100.70898438, 32.55999756, 0.00000000
1, 1.9550, 241, 0.38620946, -1.84193933, 0.27298644, 53.93879700, 31.32021141, 200.93905640, -41.30371094, 10.46477604, -65.09792328, 113.95640564, -40.82961655, -104.55025482, -0.54383081, 0.33045599, -0.73784536, -0.22501382, -1.03754711, 1.14688671, 0.03180800, 100.12100220, 100.70898438, 32.55999756, 0.00000000
1, 1.9600, 242, 0.42035258, -1.76587808, 0.35547620, 47.37301254, 23.72688293, 198.56326294, -41.30371094, 10.46477604, -65.09792328, 114.45686340, -41.78371048, -104.94574738, -0.54584068, 0.32542741, -0.74057585, -0.21840888, -1.08447957, 1.08336544, -0.04898790, 100.12100220, 100.70898438, 32.55999756, 0.00000000
1, 1.9650, 243, 0.25109467, -1.63535023, 0.10968126, 41.46379852, 7.91856241, 191.81208801, -42.88219833, 11.16632557, -64.89330292, 114.99664307, -42.67150497, -105.43667603, -0.54731750, 0.32029924, -0.74347436, -0.21236259, -0.92638963, 0.96572340, 0.19839074, 100.12100220, 100.70898438, 32.55999756, 0.00000000
1, 1.9700, 244, 0.00596593, -1.48950911, -0.17589572, 39.37516022, -21.89110374, 180.54237366, -42.88219833, 11.16632557, -64.89330292, 115.64773560, -43.44098282, -106.09842682, -0.54771423, 0.31518602, -0.74685705, -0.20705456, -0.69079971, 0.83232403, 0.48672330, 100.12100220, 100.70898438, 32.55999756, 0.00000000
1, 2.0350, 245, -0.33248872, -0.46015245, 0.67788780, -4.32872152, -25.39399147, 36.98578262, -43.55451584, 13.56328583, -62.73019409, 126.39919281, -46.82907867, -118.08674622, -0.51700258, 0.26767629, -0.79457361, -0.17236756, -0.39830121, -0.09211144, -0.27370566, 100.12100220, 100.70898438, 32.55999756, 0.00000000
1, 2.0400, 246, -0.21351850, -0.43939713, 0.48704201, -12.06224728, -7.67446136, 18.54335403, -43.55451584, 14.93715286, -62.70096207, 126.43079376, -46.88116074, -118.21240234, -0.51701730, 0.26670325, -0.79487240, -0.17245413, -0.51750314, -0.11144437, -0.08229509, 100.12100220, 100.70898438, 32.55999756, 0.00000000
1, 2.0450, 247, -0.12438595, -0.45425484, 0.31757945, -17.04645920, 0.44458264, 0.53813440, -43.55451584, 14.93715286, -62.70096207, 126.34551239, -46.88480759, -118.21229553, -0.51723522, 0.26630193, -0.79474068, -0.17302705, -0.60641891, -0.09655058, 0.08666804, 100.12100220, 100.70898438, 32.55999756, 0.00000000
1, 2.0500, 248, -0.04709931, -0.47878852, 0.16807136, -22.52311516, -0.32907414, -15.74490643, -43.55451584, 14.93715286, -62.70096207, 126.18471527, -46.82049942, -118.14655304, -0.51736623, 0.26633379, -0.79439545, -0.17416756, -0.68278515, -0.07326278, 0.23528677, 100.12100220, 100.70898438, 32.55999756, 0.00000000
1, 2.0550, 249, -0.00347886, -0.47321802, 0.06483004, -29.22656441, -11.07698536, -30.49746132, -43.87606049, 14.93715286, -62.99327469, 125.95650482, -46.63507080, -118.05382538, -0.51705307, 0.26681837, -0.79397494, -0.17626111, -0.72440040, -0.08161577, 0.33775383, 100.12100220, 100.70898438, 32.55999756, 0.00000000
1, 2.0600, 250, 0.00459357, -0.46192002, 0.03665868, -35.40537262, -29.61933136, -43.93524551, -43.87606049, 14.93715286, -62.99327469, 125.77051544, -46.37063599, -118.04223633, -0.51609915, 0.26730487, -0.79385877, -0.17882460, -0.72938597, -0.09690646, 0.36582056, 100.12100220, 100.70898438, 32.55999756, 0.00000000
1, 2.0650, 251, -0.00988732, -0.43746668, 0.07880182, -41.20404816, -49.99025345, -56.51008606, -43.11604691, 15.25869656, -62.84711838, 125.60453033, -45.99582672, -118.09870911, -0.51440352, 0.26793206, -0.79400140, -0.18210804, -0.71081340, -0.12619117, 0.32457167, 100.12100220, 100.70898438, 32.55999756, 0.00000000
1, 2.0700, 252, -0.05111361, -0.40508497, 0.15751638, -47.15253830, -66.61945343, -68.29279327, -43.11604691, 15.25869656, -62.84711838, 125.44371796, -45.52496719, -118.20452118, -0.51209837, 0.26869485, -0.79431885, -0.18605337, -0.66433752, -0.16440316, 0.24748327, 100.12100220, 100.70898438, 32.55999756, 0.00000000
1, 2.0750, 253, -0.12086383, -0.36744034, 0.24220008, -53.06592941, -77.13803101, -79.22924805, -43.11604691, 15.25869656, -62.84711838, 125.26480865, -44.97938538, -118.32756042, -0.50939637, 0.26961067, -0.79467583, -0.19056706, -0.58832026, -0.20876457, 0.16476300, 100.12100220, 100.70898438, 32.55999756, 0.00000000
1, 2.0800, 254, -0.19676548, -0.32310387, 0.32891971, -58.83962250, -81.33953094, -89.17565918, -42.18064880, 14.73253441, -63.75328827, 125.04583740, -44.38138199, -118.43611145, -0.50651783, 0.27069831, -0.79493648, -0.19554603, -0.50537658, -0.26061869, 0.07998557, 100.12100220, 100.70898438, 32.55999756, 0.00000000
1, 2.1100, 255, -0.43779752, -0.47261772, 0.41671884, -92.21257019, -49.91665268, -149.62359619, -39.08213806, 13.03712368, -64.25022125, 122.26917267, -40.14234161, -117.76909637, -0.49162674, 0.28323543, -0.78983879, -0.23288575, -0.21049127, -0.17146511, -0.00981411, 100.12100220, 100.70898438, 32.55999756, 0.00000000
1, 2.1150, 256, -0.46913630, -0.44618294, 0.39365464, -100.13693237, -46.22784424, -156.72564697, -38.55597687, 12.18941784, -64.01636505, 121.58665466, -39.35572815, -117.48774719, -0.48966062, 0.28598702, -0.78785396, -0.24027124, -0.16864289, -0.21002847, 0.01028893, 100.12100220, 100.70898438, 32.55999756, 0.00000000
1, 2.1200, 257, -0.48608735, -0.41203946, 0.35508388, -107.92750549, -41.87223053, -163.98876953, -38.55597687, 12.18941784, -64.01636505, 120.84783173, -38.54673386, -117.17411041, -0.48782933, 0.28884566, -0.78554618, -0.24800825, -0.14072433, -0.25677496, 0.04510857, 100.12100220, 100.70898438, 32.55999756, 0.00000000
1, 2.1250, 258, -0.48268729, -0.37942576, 0.31337842, -113.93943024, -37.75672913, -172.22668457, -38.55597687, 12.18941784, -64.95176697, 120.06277466, -37.70949554, -116.82877350, -0.48608637, 0.29187903, -0.78291899, -0.25605562, -0.13266169, -0.30245101, 0.08233269, 100.12100220, 100.70898438, 32.55999756, 0.00000000
1, 2.1300, 259, -0.47187257, -0.35692894, 0.28086382, -118.94315338, -34.70727158, -180.67807007, -36.62671661, 11.45863724, -64.95176697, 119.24208832, -36.83935928, -116.45935822, -0.48437425, 0.29510260, -0.77999538, -0.26439264, -0.13146296, -0.33843088, 0.10971136, 100.12100220, 100.70898438, 32.55999756, 0.00000000
1, 2.1350, 260, -0.45540485, -0.34247652, 0.25163382, -123.91996002, -33.91787720, -189.28886414, -36.62671661, 11.45863724, -64.95176697, 118.39511108, -35.92923355, -116.08001709, -0.48260733, 0.29849380, -0.77681243, -0.27304628, -0.13525289, -0.36673915, 0.13324706, 100.12100220, 100.70898438, 32.55999756, 0.00000000
1, 2.1400, 261, -0.43635097, -0.35492557, 0.22988108, -128.87629700, -35.27473831, -199.91395569, -35.77901077, 9.99707699, -65.15638733, 117.52719116, -34.96456146, -115.69885254, -0.48068166, 0.30209196, -0.77337950, -0.28208148, -0.14080648, -0.36853665, 0.14881125, 100.12100220, 100.70898438, 32.55999756, 0.00000000
1, 2.1450, 262, -0.41696760, -0.38297844, 0.22968687, -133.25747681, -36.58049011, -208.09152222, -35.77901077, 9.99707699, -65.15638733, 116.64656830, -33.95592117, -115.32469940, -0.47861421, 0.30582258, -0.76972377, -0.29142156, -0.14587468, -0.35505641, 0.14239420, 100.12100220, 100.70898438, 32.55999756, 0.00000000
1, 2.1500, 263, -0.36994010, -0.44886675, 0.22780181, -139.56507874, -37.79285049, -217.95988464, -33.73282623, 9.82168961, -66.70564270, 115.74207306, -32.89569092, -114.95447540, -0.47640505, 0.30969808, -0.76578587, -0.30116010, -0.17765063, -0.30409122, 0.13708469, 100.12100220, 100.70898438, 32.55999756, 0.00000000
1, 2.1550, 264, -0.31152120, -0.50841403, 0.22509356, -143.30636597, -38.93387222, -225.51072693, -33.73282623, 9.82168961, -66.70564270, 114.83024597, -31.79240990, -114.59552002, -0.47403830, 0.31369838, -0.76161414, -0.31116730, -0.22000885, -0.25957221, 0.13219130, 100.12100220, 100.70898438, 32.55999756, 0.00000000
1, 2.2100, 265, -0.58751613, -0.95294309, 0.36590749, -143.47068787, -36.68436432, -276.10540771, -25.34346581, 6.43086815, -70.41800690, 105.35583496, -17.76024437, -112.03099060, -0.43662849, 0.36158037, -0.70381492, -0.42808849, 0.27584362, 0.03666902, -0.11412229, 100.12100220, 100.70898438, 32.55999756, 0.00000000
1, 2.2150, 266, -0.60621500, -1.04837239, 0.41200814, -139.17140198, -28.36910248, -279.99298096, -23.35574341, 6.02163124, -71.38263702, 104.58840942, -16.37247276, -111.79888916, -0.43268603, 0.36692968, -0.69727492, -0.43812457, 0.31749296, 0.12168074, -0.17093092, 100.12100220, 100.70898438, 32.55999756, 0.00000000
1, 2.2200, 267, -0.60257775, -1.15532804, 0.44960612, -137.96861267, -22.70487976, -283.37850952, -23.35574341, 6.02163124, -71.38263702, 103.82911682, -14.97234821, -111.55480957, -0.42875019, 0.37244383, -0.69046462, -0.44801509, 0.33719718, 0.21888596, -0.21937314, 100.12100220, 100.70898438, 32.55999756, 0.00000000
1, 2.2250, 268, -0.59636050, -1.20162022, 0.44150087, -140.78718567, -16.77150345, -286.35592651, -20.78339577, 5.49546909, -72.34726715, 103.05843353, -13.56160927, -111.29829407, -0.42489821, 0.37803930, -0.68330699, -0.45786393, 0.35478139, 0.25611109, -0.22245067, 100.12100220, 100.70898438, 32.55999756, 0.00000000
1, 2.2300, 269, -0.58569479, -1.20221198, 0.40366986, -144.06156921, -8.40698242, -289.19943237, -20.78339577, 5.49546909, -72.34726715, 102.27220154, -12.14287758, -111.01794434, -0.42120907, 0.38375172, -0.67574751, -0.46763545, 0.36828488, 0.24829763, -0.19630128, 100.12100220, 100.70898438, 32.55999756, 0.00000000
1, 2.2350, 270, -0.57630348, -1.17692018, 0.37303770, -145.59225464, -0.06758650, -291.82040405, -20.78339577, 5.49546909, -72.34726715, 101.48056030, -10.71621990, -110.71472168, -0.41765302, 0.38960630, -0.66782397, -0.47726732, 0.38330626, 0.21526408, -0.17775886, 100.12100220, 100.70898438, 32.55999756, 0.00000000
1, 2.2400, 271, -0.58583194, -1.14921081, 0.36432368, -144.83586121, 4.58450747, -293.82226563, -18.97106171, 5.49546909, -73.60420990, 100.69940948, -9.28023624, -110.40770721, -0.41409308, 0.39555043, -0.65966117, -0.48673803, 0.41746962, 0.18052176, -0.18135343, 100.12100220, 100.70898438, 32.55999756, 0.00000000
1, 2.2450, 272, -0.59921557, -1.12458706, 0.37548602, -141.90490723, 6.12925863, -294.73410034, -18.97106171, 5.49546909, -73.60420990, 99.94234467, -7.83718300, -110.11297607, -0.41042292, 0.40152597, -0.65138227, -0.49601519, 0.45568150, 0.14964271, -0.20474049, 100.12100220, 100.70898438, 32.55999756, 0.00000000
1, 2.2500, 273, -0.60618544, -1.08905089, 0.40773997, -138.04846191, 7.86440611, -294.53152466, -16.80795097, 5.61239386, -73.98421478, 99.21333313, -6.39284039, -109.82968140, -0.40665543, 0.40752140, -0.64302701, -0.50504851, 0.48756510, 0.10866158, -0.24894966, 100.12100220, 100.70898438, 32.55999756, 0.00000000
1, 2.2550, 274, -0.61156034, -1.07532728, 0.44526684, -131.92945862, 10.95484638, -293.37905884, -16.80795097, 5.61239386, -73.98421478, 98.52763367, -4.96240282, -109.55047607, -0.40284103, 0.41355538, -0.63469440, -0.51366746, 0.51776767, 0.09037251, -0.29799145, 100.12100220, 100.70898438, 32.55999756, 0.00000000
1, 2.2850, 275, -0.46812668, -1.05785060, 0.50060123, -88.69596863, 47.75146103, -279.80261230, -12.86173630, 5.75855017, -75.47500610, 95.30635071, 3.37439895, -107.32771301, -0.38143021, 0.45370823, -0.58335996, -0.55529356, 0.51977503, 0.06289875, -0.40932363, 100.12100220, 100.70898438, 32.55999756, 0.00000000
1, 2.2900, 276, -0.44893482, -1.09918129, 0.48914966, -83.68962860, 45.78249741, -278.68643188, -11.25401878, 5.84624386, -76.26425171, 94.90921021, 4.74143887, -106.97715759, -0.37747389, 0.46045434, -0.57499892, -0.56113428, 0.52442759, 0.10514864, -0.40505019, 100.12100220, 100.70898438, 32.55999756, 0.00000000
1, 2.2950, 277, -0.43428233, -1.12815201, 0.47735032, -80.17599487, 43.72978592, -277.51818848, -11.25401878, 5.84624386, -76.26425171, 94.53617859, 6.10584164, -106.64586639, -0.37336218, 0.46710366, -0.56668675, -0.56681657, 0.53353584, 0.13568896, -0.39999676, 100.12100220, 100.70898438, 32.55999756, 0.00000000
1, 2.3000, 278, -0.43978107, -1.13468349, 0.45646393, -77.46630096, 43.47849655, -276.22671509, -9.79245853, 6.95702982, -76.41040802, 94.18341064, 7.46601486, -106.32418823, -0.36916032, 0.47368389, -0.55838048, -0.57232457, 0.56269622, 0.14443219, -0.38552886, 100.12100220, 100.70898438, 32.55999756, 0.00000000
1, 2.3050, 279, -0.45396200, -1.12275231, 0.41525733, -74.05050659, 46.79998779, -274.05285645, -9.79245853, 6.95702982, -76.41040802, 93.86361694, 8.80267715, -105.99149323, -0.36501741, 0.48024762, -0.55014181, -0.57746738, 0.60026026, 0.13533887, -0.35026646, 100.12100220, 100.70898438, 32.55999756, 0.00000000
1, 2.3100, 280, -0.46981889, -1.10852623, 0.38376033, -70.25303650, 50.95619965, -271.68865967, -9.79245853, 6.95702982, -76.41040802, 93.56570435, 10.14142704, -105.64679718, -0.36084470, 0.48687273, -0.54181665, -0.58239222, 0.63917971, 0.12451282, -0.32418847, 100.12100220, 100.70898438, 32.55999756, 0.00000000
1, 2.3150, 281, -0.46748078, -1.11216843, 0.36983037, -59.18806458, 58.44430161, -263.27359009, -8.00935364, 8.12627888, -76.67348480, 93.33677673, 11.43768978, -105.27145386, -0.35677221, 0.49359199, -0.53375196, -0.58667666, 0.65934074, 0.13205472, -0.31476754, 100.12100220, 100.70898438, 32.55999756, 0.00000000
1, 2.3200, 282, -0.45391732, -1.12365603, 0.34617084, -52.84276581, 61.81172562, -256.12347412, -8.00935364, 8.12627888, -76.67348480, 93.15041351, 12.69873810, -104.88401794, -0.35277340, 0.50026113, -0.52587563, -0.59054613, 0.66754508, 0.14789480, -0.29471686, 100.12100220, 100.70898438, 32.55999756, 0.00000000
1, 2.3250, 283, -0.43156016, -1.13352108, 0.30246827, -45.57031250, 65.35619354, -247.29838562, -6.10932446, 8.76936531, -76.14732361, 93.01193237, 13.91596413, -104.48254395, -0.34887680, 0.50686562, -0.51825452, -0.59395659, 0.66618800, 0.16250706, -0.25379679, 100.12100220, 100.70898438, 32.55999756, 0.00000000
1, 2.3300, 284, -0.39182255, -1.15914547, 0.24478914, -37.29316330, 65.50189972, -237.27017212, -6.10932446, 8.76936531, -76.14732361, 92.92247009, 15.08394051, -104.08335876, -0.34501681, 0.51331186, -0.51100355, -0.59695041, 0.64657009, 0.19318454, -0.19804001, 100.12100220, 100.70898438, 32.55999756, 0.00000000
1, 2.3600, 285, -0.13999495, -1.32593465, 0.19582520, -15.12682438, 1.84611642, -137.94404602, -3.94621444, 11.04940033, -76.38117218, 92.63130188, 20.59141922, -102.84611511, -0.32270971, 0.54017985, -0.47926340, -0.61185849, 0.48850766, 0.38949573, -0.15506372, 100.12100220, 100.70898438, 32.55999756, 0.00000000
1, 2.3650, 286, -0.18597928, -1.29159486, 0.20072685, -10.81437874, -6.65582037, -107.04022980, -3.21543407, 11.57556248, -76.20578766, 92.57212067, 21.12742424, -102.85665131, -0.31996793, 0.54207289, -0.47653633, -0.61375135, 0.54399192, 0.35869372, -0.16119334, 100.12100220, 100.70898438, 32.55999756, 0.00000000
1, 2.3700, 287, -0.24283601, -1.26629221, 0.19528002, -6.16142654, -15.00300789, -81.04433441, -3.21543407, 11.57556248, -76.20578766, 92.51770782, 21.53540421, -102.91853333, -0.31763268, 0.54325914, -0.47465780, -0.61536896, 0.60802686, 0.33614042, -0.15685016, 100.12100220, 100.70898438, 32.55999756, 0.00000000
1, 2.3750, 288, -0.34316435, -1.19709718, 0.17821053, 0.53600711, -28.97876358, -47.60229492, -2.28003502, 12.27711201, -76.64425659, 92.46623230, 21.77926826, -103.06359100, -0.31574333, 0.54346788, -0.47394294, -0.61670649, 0.71289319, 0.26871228, -0.14084542, 100.12100220, 100.70898438, 32.55999756, 0.00000000
1, 2.3800, 289, -0.42765373, -1.13496649, 0.19551349, 7.14275455, -39.80947113, -20.46364021, -2.28003502, 12.27711201, -76.64425659, 92.42366028, 21.88974953, -103.27332306, -0.31420135, 0.54291451, -0.47419757, -0.61778486, 0.79966921, 0.20745243, -0.15903234, 100.12100220, 100.70898438, 32.55999756, 0.00000000
1, 2.3850, 290, -0.57390720, -1.07669675, 0.19496278, 14.39168358, -48.16418076, 5.32376957, -2.28003502, 12.27711201, -76.64425659, 92.39859772, 21.87306023, -103.53377533, -0.31300777, 0.54170144, -0.47537196, -0.61855251, 0.94615984, 0.14925751, -0.15924415, 100.12100220, 100.70898438, 32.55999756, 0.00000000
1, 2.3900, 291, -0.70802218, -1.04235041, 0.23301888, 23.35779953, -52.02061081, 28.60267639, -2.30926633, 12.39403629, -75.97193909, 92.40940857, 21.74092102, -103.81991577, -0.31214765, 0.54002255, -0.47738892, -0.61890185, 1.07849050, 0.11417331, -0.19753394, 100.12100220, 100.70898438, 32.55999756, 0.00000000
1, 2.3950, 292, -0.80245966, -1.06761336, 0.35863534, 31.76657677, -54.65303421, 48.55284119, -2.30926633, 12.39403629, -75.97193909, 92.45665741, 21.50990486, -104.12426758, -0.31156921, 0.53796816, -0.48013461, -0.61885846, 1.16925120, 0.13792139, -0.32273906, 100.12100220, 100.70898438, 32.55999756, 0.00000000
1, 2.4000, 293, -0.87694818, -1.08069146, 0.47446495, 37.29145432, -54.95563126, 64.70446014, -2.42619109, 11.75094986, -76.08885956, 92.53126526, 21.19862556, -104.43356323, -0.31128570, 0.53563619, -0.48340631, -0.61847669, 1.23870349, 0.14899634, -0.43758941, 100.12100220, 100.70898438, 32.55999756, 0.00000000
1, 2.4050, 294, -0.93603963, -1.03920591, 0.54114795, 39.71496582, -49.30926132, 78.58370209, -2.42619109, 11.75094986, -76.08885956, 92.64370728, 20.78437614, -104.70607758, -0.31160274, 0.53313613, -0.48716256, -0.61752927, 1.29143429, 0.10508826, -0.50262547, 100.12100220, 100.70898438, 32.55999756, 0.00000000
1, 2.4350, 295, -0.41656575, -1.06741619, 0.35906765, 62.21500015, -19.93132973, 151.87103271, -3.50774622, 11.13709450, -75.38731384, 93.89546967, 17.05077171, -105.79653931, -0.32085600, 0.51664633, -0.51531684, -0.60380179, 0.71200413, 0.11387922, -0.29809648, 100.12100220, 100.70898438, 32.55999756, 0.00000000
1, 2.4400, 296, 0.04994674, -1.10461819, 0.24252905, 63.31527710, -12.82239723, 143.36857605, -3.85852075, 9.52937698, -75.38731384, 94.17987061, 16.34082031, -105.91469574, -0.32290381, 0.51397353, -0.52038717, -0.60063440, 0.23369449, 0.14793760, -0.17552781, 100.12100220, 100.70898438, 32.55999756, 0.00000000
1, 2.4450, 297, 0.65008402, -1.21702480, 0.15212530, 57.89883041, -10.07752037, 125.62631989, -3.85852075, 9.52937698, -75.38731384, 94.44323730, 15.71881008, -106.01499176, -0.32465726, 0.51167589, -0.52485675, -0.59775484, -0.37704483, 0.25769317, -0.07903432, 100.12100220, 100.70898438, 32.55999756, 0.00000000
1, 2.4500, 298, 1.16071296, -1.36435103, -0.06879313, 42.98997498, -5.48860836, 104.54364777, -4.20929527, 10.23092651, -74.83191681, 94.64068604, 15.20032692, -106.08542633, -0.32629010, 0.50975150, -0.52838546, -0.59539652, -0.89627463, 0.40311682, 0.14672066, 100.12100220, 100.70898438, 32.55999756, 0.00000000
1, 2.4550, 299, 1.51787233, -1.55654395, -0.47555208, 26.60775375, 3.64737058, 85.06031799, -4.20929527, 10.23092651, -74.83191681, 94.76712036, 14.78039074, -106.10265350, -0.32796943, 0.50827706, -0.53087860, -0.59351355, -1.25991654, 0.59415698, 0.55663460, 100.12100220, 100.70898438, 32.55999756, 0.00000000
1, 2.4600, 300, 1.69104862, -1.73424006, -0.90109903, 15.86210442, 0.79488128, 70.79276276, -5.11546326, 9.20783424, -75.29962158, 94.84079742, 14.42750263, -106.12857819, -0.32946527, 0.50688887, -0.53284758, -0.59210634, -1.43822920, 0.77105224, 0.98389709, 100.12100220, 100.70898438, 32.55999756, 0.00000000
1, 2.4650, 301, 1.58875453, -1.81952322, -1.11178184, 11.85148430, -30.62428665, 64.97731781, -5.11546326, 9.20783424, -75.29962158, 94.85527802, 14.11657619, -106.31381226, -0.33016723, 0.50475961, -0.53503186, -0.59156430, -1.34080827, 0.85534698, 1.19480228, 100.12100220, 100.70898438, 32.55999756, 0.00000000
1, 2.4700, 302, 1.18622649, -1.73554254, -1.02089167, 14.89113617, -86.85452271, 69.45206451, -5.11546326, 9.20783424, -75.29962158, 94.81595612, 13.80661488, -106.78932190, -0.32960147, 0.50110829, -0.53819615, -0.59211349, -0.94371063, 0.76988232, 1.10270584, 100.12100220, 100.70898438, 32.55999756, 0.00000000
1, 2.4750, 303, 0.42832816, -1.42640328, -0.45213026, 22.25757790, -148.99485779, 82.31864929, -4.76468849, 9.73399544, -75.24115753, 94.74013519, 13.45750332, -107.58787537, -0.32773677, 0.49563414, -0.54270649, -0.59363723, -0.19294956, 0.45832342, 0.53153741, 100.12100220, 100.70898438, 32.55999756, 0.00000000
1, 2.4800, 304, -0.14093585, -1.16404712, -0.01934846, 33.84140778, -191.46554565, 98.61486816, -4.76468849, 9.73399544, -75.24115753, 94.67658234, 13.04335403, -108.60887146, -0.32501560, 0.48880339, -0.54843855, -0.59552616, 0.36864558, 0.19359872, 0.09668298, 100.12100220, 100.70898438, 32.55999756, 0.00000000
1, 2.5100, 305, -0.23818545, -1.10539305, -0.05370653, 65.41761017, -35.02808762, 137.55468750, -5.84624386, 7.71704149, -76.49810028, 95.92832184, 9.12470341, -112.58822632, -0.32125348, 0.45516375, -0.58635682, -0.58805436, 0.39972073, 0.12374952, 0.15202045, 100.12100220, 100.70898438, 32.55999756, 0.00000000
1, 2.5150, 306, -0.17749442, -1.01629806, -0.19671826, 60.07785416, -36.98517990, 127.13047028, -5.84624386, 7.71704149, -76.49810028, 96.19155121, 8.51247311, -112.84113312, -0.32236615, 0.45180738, -0.59093332, -0.58544689, 0.32857680, 0.03367604, 0.30013281, 100.12100220, 100.70898438, 32.55999756, 0.00000000
1, 2.5200, 307, -0.16944712, -0.91064334, 0.01243119, 55.49016571, -42.47143555, 115.98159790, -5.84624386, 7.71704149, -76.49810028, 96.43083191, 7.95966005, -113.11781311, -0.32313165, 0.44851536, -0.59522766, -0.58320147, 0.31021801, -0.07329533, 0.09553703, 100.12100220, 100.70898438, 32.55999756, 0.00000000
1, 2.5250, 308, -0.27135897, -0.76982582, 0.30088064, 50.67575073, -37.56018829, 106.94123077, -6.57702398, 7.39549828, -76.46886444, 96.65213776, 7.45005941, -113.36664581, -0.32387882, 0.44549990, -0.59913373, -0.58109486, 0.40243766, -0.21537369, -0.18892831, 100.12100220, 100.70898438, 32.55999756, 0.00000000
1, 2.5300, 309, -0.49105790, -0.67017615, 0.56654865, 52.37847519, -23.88160515, 100.69083405, -6.57702398, 7.39549828, -76.46886444, 96.89286804, 6.96450901, -113.54511261, -0.32478276, 0.44300649, -0.60275108, -0.57875091, 0.61298907, -0.31607208, -0.45084929, 100.12100220, 100.70898438, 32.55999756, 0.00000000
1, 2.5350, 310, -0.62228513, -0.69129312, 0.88712090, 60.59760284, -10.02296066, 98.00719452, -7.45396090, 7.77550411, -75.50423431, 97.18422699, 6.48489141, -113.65476990, -0.32581472, 0.44104004, -0.60631138, -0.57594717, 0.73509508, -0.29588056, -0.76682115, 100.12100220, 100.70898438, 32.55999756, 0.00000000
1, 2.5400, 311, -0.73448682, -0.86965907, 1.02452540, 65.70182037, 15.93645954, 102.38166046, -7.45396090, 7.77550411, -75.50423431, 97.51555634, 5.96781397, -113.64019012, -0.32753515, 0.43967238, -0.60969764, -0.57243145, 0.83818245, -0.11800457, -0.89916110, 100.12100220, 100.70898438, 32.55999756, 0.00000000
1, 2.5450, 312, -0.89001852, -1.05589902, 0.92603946, 68.45268250, 24.98974228, 107.89036560, -7.45396090, 7.77550411, -75.50423431, 97.86437988, 5.41741991, -113.58726501, -0.32957071, 0.43841130, -0.61311013, -0.56857252, 0.98454857, 0.06823552, -0.79531854, 100.12100220, 100.70898438, 32.55999756, 0.00000000
1, 2.5500, 313, -0.96948218, -1.22155178, 0.86828882, 70.11589813, 38.54252243, 112.74900818, -7.98012257, 7.60011673, -75.12422943, 98.22645569, 4.83326626, -113.47383118, -0.33204564, 0.43736616, -0.61644071, -0.56432039, 1.05414367, 0.23393540, -0.73170865, 100.12100220, 100.70898438, 32.55999756, 0.00000000
1, 2.5550, 314, -0.80470681, -1.27799237, 0.71196800, 66.17093658, 50.29131317, 113.81537628, -7.98012257, 7.60011673, -75.12422943, 98.57985687, 4.22045326, -113.30475616, -0.33498403, 0.43647629, -0.61958027, -0.55981642, 0.87924981, 0.29067528, -0.56882852, 100.12100220, 100.70898438, 32.55999756, 0.00000000
1, 2.5800, 315, -0.34363425, -0.91655481, -0.02975531, 37.43471146, 25.49380302, 82.84934235, -10.20169544, 6.05086231, -74.13037109, 99.76786804, 1.66410589, -112.66471863, -0.34792474, 0.43169552, -0.63121420, -0.54236156, 0.37457299, -0.06857026, 0.19615273, 100.12100220, 100.70898438, 32.55999756, 0.00000000
1, 2.5850, 316, -0.31892538, -0.95858717, 0.10497709, 38.08692932, 14.76391792, 78.76460266, -10.40631390, 5.52470016, -73.83805847, 99.95944214, 1.26394570, -112.65869904, -0.34947231, 0.43045998, -0.63337070, -0.53982866, 0.34244251, -0.02638005, 0.06474037, 100.12100220, 100.70898438, 32.55999756, 0.00000000
1, 2.5900, 317, -0.24638110, -0.99985027, 0.08666884, 37.64677429, 12.25401115, 75.76600647, -10.40631390, 5.52470016, -73.83805847, 100.14851379, 0.88068873, -112.66381073, -0.35088325, 0.42923468, -0.63548964, -0.53739327, 0.26320320, 0.01535207, 0.08644219, 100.12100220, 100.70898438, 32.55999756, 0.00000000
1, 2.5950, 318, -0.25735381, -1.04310799, 0.00013554, 37.78192139, 9.54176235, 74.15734100, -10.40631390, 5.52470016, -73.83805847, 100.33813477, 0.50776654, -112.68209076, -0.35217404, 0.42798656, -0.63761449, -0.53502220, 0.26782924, 0.05924761, 0.17614514, 100.12100220, 100.70898438, 32.55999756, 0.00000000
1, 2.6000, 319, -0.27364793, -1.05506587, -0.01979004, 38.40105438, 5.18176937, 73.16922760, -11.19555664, 5.81701231, -73.92575073, 100.53083801, 0.14368859, -112.72219086, -0.35330430, 0.42666769, -0.63979405, -0.53272349, 0.27777565, 0.07179543, 0.19931042, 100.12100220, 100.70898438, 32.55999756, 0.00000000
1, 2.6050, 320, -0.26844451, -1.06165600, -0.00669503, 39.73091507, 0.67491752, 71.29226685, -11.19555664, 5.81701231, -73.92575073, 100.71253967, -0.23201886, -112.78276062, -0.35444838, 0.42514604, -0.64202076, -0.53049648, 0.26614004, 0.07896352, 0.18945822, 100.12100220, 100.70898438, 32.55999756, 0.00000000
1, 2.6100, 321, -0.27437401, -1.08413601, 0.05180316, 40.16926575, -0.83012861, 68.83220673, -11.42940617, 4.29698896, -73.25343323, 100.91472626, -0.56891304, -112.85076141, -0.35526881, 0.42382532, -0.64423680, -0.52831346, 0.26576528, 0.10200986, 0.13421403, 100.12100220, 100.70898438, 32.55999756, 0.00000000
1, 2.6150, 322, -0.31328076, -1.08643329, 0.11566947, 39.43662262, 0.27786472, 65.92356110, -11.42940617, 4.29698896, -73.25343323, 101.11350250, -0.89234257, -112.91175079, -0.35606274, 0.42259532, -0.64635736, -0.52616990, 0.29881066, 0.10492814, 0.07365429, 100.12100220, 100.70898438, 32.55999756, 0.00000000
1, 2.7100, 323, -0.16375954, -0.91672981, 0.28297690, 20.13509750, 20.08283234, 27.41793633, -14.11867905, 5.40777540, -70.91493988, 103.80952454, -5.17288971, -112.18572235, -0.37330034, 0.41546494, -0.66801953, -0.49171719, 0.07356656, -0.05103249, -0.04755075, 100.12100220, 100.70898438, 32.55999756, 0.00000000
1, 2.7150, 324, -0.14505598, -0.92209530, 0.26956633, 20.64361382, 21.89119148, 26.26279259, -14.11867905, 5.40777540, -70.91493988, 103.90616608, -5.32622862, -112.11027527, -0.37412533, 0.41550919, -0.66858000, -0.49028885, 0.05221843, -0.04500859, -0.03253929, 100.12100220, 100.70898438, 32.55999756, 0.00000000
1, 2.7200, 325, -0.13379118, -0.93299305, 0.23827209, 21.43338966, 24.04266739, 25.42771530, -14.11867905, 5.40777540, -70.91493988, 104.00548553, -5.47820663, -112.02356720, -0.37497962, 0.41563565, -0.66910499, -0.48881078, 0.03838728, -0.03340593, 0.00036930, 100.12100220, 100.70898438, 32.55999756, 0.00000000
1, 2.7250, 326, -0.12739149, -0.94457126, 0.24713363, 22.12715721, 25.38424683, 24.92507935, -14.58637810, 6.40163708, -70.85647583, 104.10735321, -5.62950373, -111.92996979, -0.37584841, 0.41581538, -0.66961133, -0.48729485, 0.02933459, -0.02116897, -0.00684928, 100.12100220, 100.70898438, 32.55999756, 0.00000000
1, 2.7300, 327, -0.11808822, -0.94708347, 0.23229188, 22.46634865, 26.65137482, 24.49528503, -14.58637810, 6.40163708, -70.85647583, 104.21004486, -5.78042221, -111.82990265, -0.37673765, 0.41603884, -0.67009401, -0.48575151, 0.01744584, -0.01794461, 0.00967674, 100.12100220, 100.70898438, 32.55999756, 0.00000000
1, 2.7350, 328, -0.15760502, -0.97231698, 0.18867120, 22.63567924, 27.28702354, 24.19280815, -15.14177132, 5.23238802, -70.94416809, 104.31298828, -5.93082380, -111.72662354, -0.37763458, 0.41628599, -0.67056203, -0.48419499, 0.05445322, 0.00805681, 0.05481926, 100.12100220, 100.70898438, 32.55999756, 0.00000000
1, 2.7400, 329, -0.12694187, -1.01284945, 0.23095800, 22.52258492, 27.36842537, 22.19821548, -15.14177132, 5.23238802, -70.94416809, 104.41481018, -6.07185316, -111.62071228, -0.37849247, 0.41658974, -0.67098778, -0.48267162, 0.02120679, 0.04921599, 0.01421910, 100.12100220, 100.70898438, 32.55999756, 0.00000000
1, 2.7450, 330, -0.04367677, -0.95503712, 0.16069447, 18.84006310, 29.41160202, 24.29176521, -14.87869072, 5.23238802, -70.12569427, 104.49718475, -6.22576141, -111.50765991, -0.37952021, 0.41681302, -0.67133796, -0.48118258, -0.06449391, -0.00783895, 0.08615779, 100.12100220, 100.70898438, 32.55999756, 0.00000000
1, 2.7500, 331, -0.00170173, -0.94312644, 0.12476941, 19.83022881, 27.63945198, 27.39162064, -14.87869072, 5.61239386, -70.12569427, 104.58567047, -6.39262962, -111.40733337, -0.38054159, 0.41692340, -0.67179263, -0.47964329, -0.10922375, -0.01900991, 0.12358871, 100.12100220, 100.70898438, 32.55999756, 0.00000000
1, 2.7550, 332, 0.02002938, -0.94386244, 0.10980037, 21.49638748, 25.55609512, 29.17851830, -14.87869072, 5.61239386, -70.12569427, 104.66056061, -6.54611683, -111.31707001, -0.38149440, 0.41699284, -0.67218882, -0.47826916, -0.13372546, -0.01757816, 0.13993205, 100.12100220, 100.70898438, 32.55999756, 0.00000000
1, 2.7850, 333, -0.05901467, -0.99828446, 0.15047298, 22.97126961, 17.15723610, 37.19681168, -16.31101990, 5.81701231, -69.83338165, 105.30359650, -7.68303251, -111.02653503, -0.38662732, 0.41560811, -0.67679524, -0.46876174, -0.07417768, 0.04191371, 0.10887478, 100.12100220, 100.70898438, 32.55999756, 0.00000000
1, 2.7900, 334, -0.07042771, -1.00584126, 0.16603348, 23.14564133, 17.62695885, 38.01198959, -16.31101990, 5.81701231, -69.83338165, 105.41499329, -7.88930845, -110.99113464, -0.38750315, 0.41524109, -0.67765832, -0.46711391, -0.06635207, 0.05041961, 0.09500505, 100.12100220, 100.70898438, 32.55999756, 0.00000000
1, 2.7950, 335, -0.09233080, -0.99712145, 0.18006776, 22.92692947, 18.23410034, 38.76534271, -16.63256264, 6.46009922, -69.42414093, 105.52495575, -8.10009861, -110.95417786, -0.38841453, 0.41485870, -0.67851740, -0.46544662, -0.04810836, 0.04267220, 0.08263454, 100.12100220, 100.70898438, 32.55999756, 0.00000000
1, 2.8000, 336, -0.10160458, -0.98607075, 0.19866252, 22.78332520, 18.49546051, 39.43938828, -16.63256264, 6.46009922, -69.42414093, 105.63410187, -8.31455135, -110.91725922, -0.38934809, 0.41445744, -0.67937839, -0.46376520, -0.04257061, 0.03260665, 0.06571249, 100.12100220, 100.70898438, 32.55999756, 0.00000000
1, 2.8050, 337, -0.10315509, -0.97440505, 0.22028132, 22.42037773, 19.24307251, 40.09276581, -16.63256264, 6.46009922, -69.42414093, 105.73400879, -8.52595043, -110.87707520, -0.39031056, 0.41405925, -0.68017805, -0.46213683, -0.04476885, 0.02191374, 0.04569304, 100.12100220, 100.70898438, 32.55999756, 0.00000000
1, 2.8100, 338, -0.10329343, -0.96512306, 0.22830184, 22.23670197, 19.82322884, 40.52956390, -17.30488205, 6.10932446, -69.19029236, 105.83952332, -8.74758434, -110.83593750, -0.39131173, 0.41363943, -0.68101883, -0.46042475, -0.04840095, 0.01364245, 0.03923041, 100.12100220, 100.70898438, 32.55999756, 0.00000000
1, 2.8150, 339, -0.12596604, -0.96331155, 0.21905756, 22.51535034, 20.40750504, 40.96056366, -17.30488205, 6.10932446, -69.19029236, 105.94596863, -8.97216225, -110.79291534, -0.39233214, 0.41322142, -0.68185949, -0.45868421, -0.02956911, 0.01292296, 0.05002058, 100.12100220, 100.70898438, 32.55999756, 0.00000000
1, 2.8200, 340, -0.15947647, -0.95535445, 0.21962936, 23.28318214, 21.66341782, 41.15599060, -17.50950050, 6.86933661, -68.92721558, 106.05525208, -9.19946861, -110.74445343, -0.39337784, 0.41283399, -0.68269420, -0.45689252, 0.00003780, 0.00607507, 0.05100366, 100.12100220, 100.70898438, 32.55999756, 0.00000000
1, 2.8250, 341, -0.16739170, -0.94945848, 0.24079040, 23.86514091, 23.61142540, 41.47543716, -17.50950050, 6.86933661, -68.92721558, 106.16583252, -9.43109131, -110.68735504, -0.39447537, 0.41248369, -0.68350893, -0.45504060, 0.00392906, 0.00129348, 0.03148150, 100.12100220, 100.70898438, 32.55999756, 0.00000000
1, 2.8300, 342, -0.16349886, -0.94601393, 0.26046675, 24.33245468, 26.18837738, 41.67111588, -17.50950050, 6.86933661, -68.92721558, 106.27658081, -9.66733551, -110.61840820, -0.39564285, 0.41218472, -0.68428844, -0.45312247, -0.00405753, -0.00100244, 0.01346234, 100.12100220, 100.70898438, 32.55999756, 0.00000000
1, 2.8800, 343, 0.22087973, -1.07475352, 0.18484791, 32.09694672, 36.55206680, 65.61973572, -19.99415398, 6.37240553, -67.93334961, 107.47759247, -12.60439396, -109.72112274, -0.41075438, 0.40819868, -0.69276327, -0.42980671, -0.43797630, 0.14307943, 0.10654582, 100.12100220, 100.70898438, 32.55999756, 0.00000000
1, 2.8850, 344, 0.22494777, -1.09564507, 0.17852843, 33.44984055, 37.30775833, 69.47625732, -19.73107338, 5.46623802, -67.72873688, 107.62893677, -12.99134827, -109.64539337, -0.41258407, 0.40740451, -0.69395316, -0.42687815, -0.44853121, 0.16614574, 0.11482760, 100.12100220, 100.70898438, 32.55999756, 0.00000000
1, 2.8900, 345, 0.22294222, -1.12050748, 0.16303837, 34.73505402, 37.81499481, 73.50299835, -19.73107338, 5.46623802, -67.72873688, 107.78731537, -13.39842796, -109.57438660, -0.41447517, 0.40651557, -0.69521928, -0.42382279, -0.45332265, 0.19335696, 0.13232724, 100.12100220, 100.70898438, 32.55999756, 0.00000000
1, 2.8950, 346, 0.21985336, -1.14222467, 0.16735671, 35.98251343, 38.49678802, 77.49931335, -21.13417053, 5.96316862, -67.61180878, 107.95243073, -13.82575893, -109.50738525, -0.41643187, 0.40553430, -0.69655591, -0.42063794, -0.45741075, 0.21755561, 0.13008100, 100.12100220, 100.70898438, 32.55999756, 0.00000000
1, 2.9000, 347, 0.21935098, -1.16492307, 0.17559560, 36.84568787, 38.58501816, 81.41627502, -21.13417053, 5.96316862, -67.61180878, 108.12310028, -14.27203846, -109.44731903, -0.41844076, 0.40444475, -0.69796401, -0.41734645, -0.46440947, 0.24289200, 0.12395597, 100.12100220, 100.70898438, 32.55999756, 0.00000000
1, 2.9050, 348, 0.20959188, -1.19106364, 0.17158684, 37.91753769, 39.02740479, 85.16374969, -21.13417053, 5.96316862, -67.61180878, 108.28849030, -14.71063805, -109.38890839, -0.42041674, 0.40336320, -0.69932514, -0.41411626, -0.46219960, 0.27177507, 0.13001963, 100.12100220, 100.70898438, 32.55999756, 0.00000000
1, 2.9100, 349, 0.19711149, -1.21877527, 0.16603729, 38.77337646, 39.67757797, 88.88388062, -21.22186470, 5.70008755, -67.23180389, 108.47036743, -15.19440842, -109.33809662, -0.42254439, 0.40208668, -0.70085347, -0.41059363, -0.45756435, 0.30240074, 0.13763723, 100.12100220, 100.70898438, 32.55999756, 0.00000000
1, 2.9150, 350, 0.17951024, -1.25128889, 0.14601271, 39.60559464, 39.35112381, 92.65114594, -21.22186470, 5.70008755, -67.23180389, 108.65847778, -15.69566441, -109.29657745, -0.42470577, 0.40069604, -0.70245355, -0.40697265, -0.44828022, 0.33811748, 0.15981284, 100.12100220, 100.70898438, 32.55999756, 0.00000000
1, 2.9200, 351, 0.16436383, -1.27897692, 0.13099602, 40.15655899, 38.74448776, 96.38025665, -21.86495209, 6.37240553, -66.70564270, 108.85202789, -16.21373940, -109.26589966, -0.42689541, 0.39918163, -0.70412391, -0.40326661, -0.44172710, 0.36918396, 0.17702200, 100.12100220, 100.70898438, 32.55999756, 0.00000000
1, 2.9250, 352, 0.15283792, -1.30384600, 0.09694889, 39.79138184, 37.62145615, 100.98503113, -21.86495209, 6.37240553, -66.70564270, 109.04781342, -16.75188637, -109.25028229, -0.42912751, 0.39748973, -0.70587194, -0.39949512, -0.43902731, 0.39764106, 0.21324608, 100.12100220, 100.70898438, 32.55999756, 0.00000000
1, 2.9600, 353, 0.16247635, -1.35431552, 0.01840555, 36.92818069, 31.50977325, 132.77330017, -24.81730461, 5.96316862, -65.59485626, 110.46991730, -21.02705574, -109.60626221, -0.44563800, 0.38052848, -0.72000837, -0.37174296, -0.51855278, 0.47850555, 0.30573696, 100.12100220, 100.70898438, 32.55999756, 0.00000000
1, 2.9650, 354, 0.17326838, -1.39065945, 0.01552414, 37.88339233, 32.88020706, 137.00004578, -24.81730461, 5.96316862, -65.59485626, 110.69454193, -21.72582245, -109.69817352, -0.44825411, 0.37750167, -0.72224230, -0.36732396, -0.54061878, 0.52022517, 0.31044894, 100.12100220, 100.70898438, 32.55999756, 0.00000000
1, 2.9700, 355, 0.19672120, -1.43252170, 0.01510379, 39.06963730, 35.71732712, 141.15370178, -25.92809105, 6.98626137, -65.94563293, 110.92509460, -22.44867516, -109.78714752, -0.45098782, 0.37439728, -0.72447777, -0.36272392, -0.57567596, 0.56776738, 0.31267470, 100.12100220, 100.70898438, 32.55999756, 0.00000000
1, 2.9750, 356, 0.23468113, -1.47617006, 0.01939919, 40.16445541, 40.16336441, 144.99632263, -25.92809105, 6.98626137, -65.94563293, 111.15778351, -23.19707298, -109.86468506, -0.45388481, 0.37124720, -0.72667336, -0.35792470, -0.62559628, 0.61740285, 0.31011426, 100.12100220, 100.70898438, 32.55999756, 0.00000000
1, 2.9800, 357, 0.27938411, -1.54214954, 0.02511326, 41.27589035, 46.30284119, 149.40486145, -25.92809105, 6.98626137, -65.94563293, 111.38950348, -23.97679901, -109.92342377, -0.45700529, 0.36805815, -0.72880101, -0.35288614, -0.68266237, 0.68969691, 0.30593073, 100.12100220, 100.70898438, 32.55999756, 0.00000000
1, 2.9850, 358, 0.31832692, -1.58855450, 0.03560768, 42.70371628, 52.47435760, 152.58334351, -27.06810760, 4.96930695, -65.06869507, 111.62027740, -24.78237343, -109.96079254, -0.46032470, 0.36487299, -0.73084080, -0.34762159, -0.73433727, 0.74274421, 0.29680642, 100.12100220, 100.70898438, 32.55999756, 0.00000000
1, 2.9900, 359, 0.40057069, -1.67671442, 0.03267949, 43.85319519, 61.20699310, 156.35217285, -27.06810760, 4.96930695, -65.06869507, 111.84316254, -25.62137794, -109.96476746, -0.46393549, 0.36170414, -0.73274219, -0.34208632, -0.82974887, 0.83792973, 0.30082911, 100.12100220, 100.70898438, 32.55999756, 0.00000000
1, 2.9950, 360, 0.47280917, -1.74517787, 0.02531464, 44.18401337, 66.85324860, 159.25166321, -29.08506203, 7.86319780, -64.57176208, 112.05921936, -26.48432541, -109.94920349, -0.46773726, 0.35851270, -0.73453671, -0.33637232, -0.91543299, 0.91373032, 0.30900240, 100.12100220, 100.70898438, 32.55999756, 0.00000000
1, 3.0000, 361, 0.53155690, -1.81300819, 0.05044528, 43.63717270, 71.55088806, 162.17477417, -29.08506203, 7.86319780, -64.57176208, 112.26564026, -27.36969757, -109.91882324, -0.47171214, 0.35526365, -0.73622739, -0.33052176, -0.98795718, 0.98913908, 0.28433096, 100.12100220, 100.70898438, 32.55999756, 0.00000000
1, 3.0050, 362, 0.57358825, -1.85647011, 0.06615122, 42.50153732, 77.84883881, 164.96824646, -29.08506203, 7.86319780, -64.57176208, 112.44910431, -28.26946449, -109.86128998, -0.47589034, 0.35201883, -0.73772717, -0.32460713, -1.04392672, 1.04041886, 0.26863557, 100.12100220, 100.70898438, 32.55999756, 0.00000000
1, 3.0350, 363, 0.78380352, -1.78027105, -0.01473665, 48.89170456, 102.98799896, 180.83898926, -33.84975052, 7.54165459, -64.10406494, 113.26300049, -34.30184937, -108.87843323, -0.50599617, 0.33215114, -0.74350965, -0.28431854, -1.34360874, 1.01880407, 0.34041244, 100.12100220, 100.70898438, 32.55999756, 0.00000000
1, 3.0400, 364, 0.58210945, -1.79104602, 0.02957382, 53.01952362, 91.35811615, 182.15666199, -33.84975052, 7.54165459, -64.10406494, 113.48886871, -35.31835175, -108.80542755, -0.51042914, 0.32855597, -0.74475384, -0.27722713, -1.15671885, 1.03995991, 0.29426956, 100.12100220, 100.70898438, 32.55999756, 0.00000000
1, 3.0450, 365, 0.29065558, -1.82233143, 0.06101740, 59.36643982, 73.11915588, 185.35665894, -35.86670685, 9.09090900, -64.13329315, 113.81330872, -36.31330872, -108.84851837, -0.51417506, 0.32474902, -0.74646497, -0.27009654, -0.87951589, 1.08221865, 0.26197866, 100.12100220, 100.70898438, 32.55999756, 0.00000000
1, 3.0500, 366, 0.18278515, -1.87914097, 0.09001376, 63.05154419, 60.38500977, 189.00221252, -35.86670685, 9.09090900, -64.13329315, 114.21088409, -37.29883194, -108.98191071, -0.51745480, 0.32072899, -0.74849558, -0.26292175, -0.78556079, 1.15052235, 0.23332500, 100.12100220, 100.70898438, 32.55999756, 0.00000000
1, 3.0550, 367, 0.16178966, -1.90417755, 0.14219341, 63.38391495, 48.67514801, 193.76637268, -35.86670685, 9.09090900, -63.40251160, 114.66091156, -38.27075958, -109.20142365, -0.52033997, 0.31645218, -0.75076407, -0.25584716, -0.77822745, 1.18745506, 0.18231291, 100.12100220, 100.70898438, 32.55999756, 0.00000000
1, 3.0600, 368, 0.20903480, -1.89264405, 0.20975503, 61.68696213, 39.67203522, 196.76309204, -37.32826614, 9.12014008, -63.40251160, 115.15853119, -39.24626160, -109.49964905, -0.52296358, 0.31185886, -0.75323260, -0.24878505, -0.83891964, 1.18818521, 0.11647195, 100.12100220, 100.70898438, 32.55999756, 0.00000000
1, 3.0650, 369, 0.29776761, -1.84899271, 0.29901627, 58.79742813, 34.49236679, 196.74655151, -37.32826614, 9.12014008, -63.40251160, 115.67485046, -40.20856857, -109.84362793, -0.52541286, 0.30711737, -0.75572509, -0.24186775, -0.94088435, 1.15703154, 0.02917229, 100.12100220, 100.70898438, 32.55999756, 0.00000000
1, 3.0700, 370, 0.35017845, -1.75361717, 0.33833402, 54.56479645, 33.79876709, 193.62921143, -38.93598175, 11.02016926, -63.08097076, 116.18173218, -41.15298462, -110.19900513, -0.52782065, 0.30234855, -0.75808609, -0.23515141, -1.00600159, 1.07422233, -0.00842403, 100.12100220, 100.70898438, 32.55999756, 0.00000000
1, 3.0750, 371, 0.17333865, -1.60559642, 0.21015061, 49.26223755, 29.49985886, 186.47863770, -38.93598175, 11.02016926, -63.08097076, 116.68014526, -42.05345154, -110.57507324, -0.53004259, 0.29762650, -0.76034045, -0.22881390, -0.84082454, 0.93875802, 0.12072421, 100.12100220, 100.70898438, 32.55999756, 0.00000000
1, 3.0800, 372, -0.08259849, -1.54739809, -0.03357128, 44.69673157, 1.33104837, 174.15789795, -39.81291962, 10.52323914, -62.81789017, 117.26030731, -42.83265305, -111.10009003, -0.53123087, 0.29290438, -0.76299065, -0.22326255, -0.59481013, 0.89271700, 0.36597496, 100.12100220, 100.70898438, 32.55999756, 0.00000000
1, 3.1850, 373, -0.15003926, -0.34185392, 0.29856795, -28.35663795, -68.74389648, -111.20614624, -38.93598175, 13.56328583, -62.11634064, 125.22041321, -43.56814575, -119.66476440, -0.49955481, 0.26673052, -0.79861677, -0.20374313, -0.54200578, -0.24856396, 0.11772817, 100.12100220, 100.70898438, 32.55999756, 0.00000000
1, 3.1900, 374, -0.16157202, -0.32103017, 0.34864798, -32.69225311, -62.73224640, -122.39962769, -38.93598175, 13.56328583, -62.11634064, 124.96721649, -42.88724136, -119.53594971, -0.49664983, 0.26970571, -0.79825765, -0.20828515, -0.52204329, -0.27779901, 0.06987233, 100.12100220, 100.70898438, 32.55999756, 0.00000000
1, 3.1950, 375, -0.19420445, -0.31942433, 0.36063290, -36.52058411, -54.36718750, -132.77230835, -38.11750793, 12.68634892, -62.84711838, 124.64143372, -42.18709183, -119.32652283, -0.49396682, 0.27302396, -0.79752856, -0.21307965, -0.48051780, -0.28843850, 0.05928073, 100.12100220, 100.70898438, 32.55999756, 0.00000000
1, 3.2000, 376, -0.23304990, -0.34408948, 0.31890437, -39.81452942, -45.94195175, -142.55447388, -38.11750793, 12.68634892, -62.84711838, 124.25062561, -41.46942520, -119.04163361, -0.49150339, 0.27667749, -0.79643601, -0.21809119, -0.43232197, -0.27332509, 0.10158229, 100.12100220, 100.70898438, 32.55999756, 0.00000000
1, 3.2050, 377, -0.29669720, -0.43735713, 0.26326397, -43.97798538, -39.60041046, -154.37322998, -36.91902924, 9.73399544, -63.22712708, 123.79286194, -40.71212769, -118.68590546, -0.48915061, 0.28073108, -0.79497528, -0.22346385, -0.35879138, -0.19027016, 0.15695561, 100.12100220, 100.70898438, 32.55999756, 0.00000000
