time,ax,ay,az,aT
6.978000,0.0989,1.7781,1.6430,2.423
6.979000,-0.0903,1.6705,1.3595,2.156
6.980000,-0.1545,1.6238,1.1999,2.025
6.980000,-0.1418,1.5258,1.1617,1.923
6.980000,-0.0451,1.4482,1.2352,1.904
6.981000,0.0592,1.3383,1.2387,1.825
6.981000,0.2072,1.2508,1.2896,1.808
6.981000,0.2720,1.1281,1.3498,1.780
6.982000,0.2748,0.9695,1.3603,1.693
6.985000,0.2707,0.7891,1.4432,1.667
6.992000,0.2333,0.6057,1.5249,1.657
6.995000,0.1888,0.3928,1.5625,1.622
7.001000,0.0963,0.1859,1.5538,1.568
7.005000,0.0248,-0.0251,1.4756,1.476
7.011000,-0.0805,-0.2567,1.4308,1.456
7.016000,-0.1936,-0.4569,1.4172,1.502
7.021000,-0.3340,-0.6423,1.4276,1.601
7.027000,-0.3962,-0.8684,1.4360,1.724
7.031000,-0.4739,-1.0760,1.3570,1.796
7.035000,-0.6289,-1.2794,1.1737,1.847
7.078000,-0.6923,-1.4407,0.9487,1.859
7.079000,-0.7576,-1.6148,0.6654,1.904
7.080000,-0.8998,-1.7183,0.3693,1.974
7.080000,-0.9948,-1.8493,0.0770,2.101
7.080000,-1.0790,-1.8496,-0.1229,2.145
7.081000,-1.0715,-1.8512,-0.1853,2.147
7.081000,-1.0154,-1.8470,-0.2440,2.122
7.081000,-0.9517,-1.8351,-0.1984,2.077
7.082000,-0.8304,-1.8446,-0.1870,2.031
7.085000,-0.6729,-1.8470,-0.2836,1.986
7.092000,-0.5633,-1.9219,-0.4115,2.045
7.095000,-0.4655,-1.9469,-0.6016,2.090
7.100000,-0.4346,-1.9198,-0.9257,2.175
7.105000,-0.4567,-1.9550,-1.2548,2.368
7.110000,-0.4386,-1.9495,-1.5174,2.509
7.115000,-0.4020,-1.9219,-1.7400,2.624
7.119000,-0.4019,-1.9129,-1.8632,2.700
7.125000,-0.3541,-1.8935,-1.9970,2.775
7.130000,-0.3114,-1.8947,-2.1297,2.868
7.135000,-0.2620,-1.8782,-2.2062,2.909
7.140000,-0.1769,-1.8031,-2.3010,2.929
7.146000,-0.1232,-1.8080,-2.4260,3.028
7.150000,-0.0505,-1.7683,-2.4473,3.020
7.155000,0.0779,-1.7457,-2.4660,3.022
7.160000,0.1881,-1.6733,-2.4461,2.970
7.168000,0.2761,-1.6846,-2.3855,2.933
7.169000,0.3400,-1.6623,-2.3417,2.892
7.220000,0.4302,-1.6639,-2.2190,2.807
7.222000,0.4610,-1.7084,-2.1491,2.784
7.223000,0.4994,-1.7145,-2.0672,2.732
7.223000,0.5000,-1.7158,-1.9495,2.645
7.224000,0.4993,-1.7483,-1.8246,2.576
7.224000,0.4802,-1.7977,-1.6996,2.520
7.225000,0.5006,-1.7995,-1.6534,2.495
7.225000,0.4962,-1.8135,-1.6716,2.516
7.225000,0.4118,-1.8518,-1.7252,2.564
7.226000,0.3859,-1.8758,-1.8624,2.671
7.226000,0.3206,-1.8663,-1.9419,2.712
7.229000,0.2445,-1.8135,-2.0143,2.721
7.234000,0.1859,-1.7582,-2.1203,2.761
7.238000,0.0611,-1.6955,-2.1593,2.746
7.244000,0.0086,-1.6492,-2.2200,2.766
7.250000,0.0113,-1.5549,-2.3096,2.784
7.254000,0.0401,-1.4221,-2.4087,2.798
7.260000,0.0375,-1.2652,-2.5487,2.846
7.263000,-0.0016,-1.1295,-2.6554,2.886
7.269000,-0.0485,-0.9548,-2.7411,2.903
7.317000,-0.0556,-0.8655,-2.7890,2.921
7.318000,-0.0491,-0.7704,-2.7254,2.833
7.318000,-0.0842,-0.6982,-2.6388,2.731
7.318000,-0.0439,-0.6343,-2.5605,2.638
7.319000,0.0337,-0.6506,-2.4736,2.558
7.319000,0.0597,-0.6680,-2.3758,2.469
7.319000,0.0342,-0.6123,-2.2385,2.321
7.320000,0.0218,-0.5456,-1.9925,2.066
7.320000,0.0585,-0.4844,-1.6382,1.709
7.320000,0.1280,-0.4120,-1.2712,1.342
7.323000,0.2284,-0.3523,-0.7291,0.841
7.328000,0.3923,-0.3533,-0.0311,0.529
7.333000,0.4838,-0.4107,0.5288,0.826
7.338000,0.5635,-0.4462,1.0231,1.250
7.343000,0.6056,-0.4411,1.3804,1.571
7.348000,0.5027,-0.4390,1.6467,1.777
7.353000,0.2144,-0.4473,1.8223,1.889
7.360000,-0.0492,-0.4351,1.7592,1.813
7.363000,-0.3101,-0.3328,1.5508,1.616
7.367000,-0.5142,-0.2312,1.4004,1.510
7.372000,-0.6406,-0.1302,1.2433,1.405
7.409000,-0.7618,0.0421,1.0627,1.308
7.410000,-0.8805,0.2284,0.9136,1.289
7.410000,-1.0715,0.3594,0.7671,1.366
7.410000,-1.2327,0.5118,0.7835,1.548
7.411000,-1.3457,0.7094,0.8671,1.751
7.411000,-1.3275,0.9493,0.8602,1.845
7.411000,-1.2499,1.1766,0.8681,1.924
7.412000,-1.1538,1.3436,0.8357,1.958
7.417000,-0.9700,1.5152,0.8276,1.980
7.422000,-0.8087,1.6532,0.9295,2.062
7.428000,-0.7021,1.9110,1.0623,2.296
7.434000,-0.5996,2.2025,1.1444,2.553
7.438000,-0.4550,2.4920,1.1255,2.772
7.444000,-0.2629,2.7272,1.0222,2.924
7.447000,0.0362,2.9086,0.8006,3.017
7.452000,0.3825,2.9510,0.4294,3.007
7.459000,0.6991,2.9201,0.0299,3.003
7.461000,1.0402,2.9056,-0.4131,3.114
7.467000,1.4245,2.9019,-0.5420,3.278
7.472000,1.8113,2.8619,-0.1257,3.389
7.508000,2.1752,2.7907,0.7202,3.611
7.509000,2.6410,2.6156,1.8931,4.171
7.510000,3.0594,2.3880,3.3436,5.123
7.510000,3.3789,2.0576,4.7382,6.173
7.511000,3.5146,1.7088,6.0426,7.196
7.512000,3.5110,1.3873,7.1985,8.128
7.512000,3.3170,0.9852,7.9735,8.692
7.513000,2.9406,0.5594,8.3035,8.827
7.517000,2.4283,0.1526,8.1224,8.479
7.522000,1.8590,-0.1781,7.5000,7.729
7.527000,1.1654,-0.4870,6.5107,6.632
7.531000,0.5453,-0.6652,5.3644,5.433
7.537000,-0.0339,-0.7428,4.2662,4.331
7.541000,-0.5280,-0.7857,3.1821,3.320
7.546000,-0.8887,-0.7549,2.2097,2.498
7.551000,-1.0961,-0.7363,1.3272,1.872
7.558000,-1.2499,-0.7194,0.5031,1.527
7.562000,-1.3273,-0.6992,-0.1624,1.509
7.566000,-1.3467,-0.6064,-0.6336,1.607
7.571000,-1.2758,-0.6418,-0.9464,1.713
7.578000,-1.1216,-0.6260,-1.0365,1.651
7.581000,-0.8892,-0.5860,-1.0234,1.477
7.586000,-0.5998,-0.5722,-0.9502,1.261
7.601000,-0.2816,-0.6162,-0.8046,1.052
7.602000,0.0137,-0.6490,-0.6225,0.899
7.603000,0.2087,-0.6735,-0.5351,0.885
7.668000,0.4048,-0.6662,-0.4849,0.918
7.669000,0.5836,-0.6365,-0.5796,1.040
7.669000,0.6647,-0.6106,-0.7426,1.169
7.669000,0.6967,-0.5643,-0.9047,1.274
7.670000,0.7187,-0.5812,-1.0375,1.390
7.670000,0.6641,-0.5607,-1.2416,1.516
7.670000,0.6332,-0.5958,-1.4499,1.691
7.670000,0.5236,-0.6410,-1.6938,1.885
7.671000,0.3905,-0.6936,-1.9589,2.114
7.675000,0.2334,-0.6864,-2.2430,2.357
7.676000,0.1638,-0.6743,-2.5532,2.646
7.677000,0.1024,-0.6353,-2.8109,2.884
7.677000,0.0393,-0.6176,-3.0112,3.074
7.678000,-0.0617,-0.5611,-3.1494,3.200
7.678000,-0.1410,-0.4493,-3.2493,3.283
7.681000,-0.2160,-0.4142,-3.2941,3.327
7.686000,-0.2199,-0.3884,-3.3460,3.376
7.694000,-0.2012,-0.3125,-3.3858,3.406
7.696000,-0.1792,-0.2633,-3.3654,3.380
7.700000,-0.1660,-0.2145,-3.2682,3.279
7.705000,-0.1018,-0.1709,-3.1611,3.167
7.732000,-0.0414,-0.1230,-3.0251,3.028
7.733000,-0.0489,-0.0566,-2.9629,2.964
7.733000,-0.1288,-0.0317,-2.8070,2.810
7.733000,-0.1975,-0.0217,-2.5815,2.589
7.734000,-0.2666,-0.0363,-2.3009,2.317
7.734000,-0.4027,-0.0802,-1.9006,1.944
7.740000,-0.4452,-0.0628,-1.4692,1.536
7.744000,-0.4936,-0.1759,-1.1214,1.238
7.749000,-0.6263,-0.3186,-0.9217,1.159
7.755000,-0.6427,-0.3979,-0.6569,1.001
7.760000,-0.6788,-0.4692,-0.4562,0.943
7.765000,-0.7152,-0.4631,-0.3626,0.926
7.770000,-0.7981,-0.4202,-0.2850,0.946
7.775000,-0.8465,-0.2790,-0.1178,0.899
7.779000,-0.9390,-0.2741,-0.2127,1.001
7.786000,-1.0591,-0.2660,-0.4116,1.167
7.794000,-1.1743,-0.1974,-0.4897,1.288
7.795000,-1.2135,-0.1065,-0.5953,1.356
7.799000,-1.2009,0.0572,-0.6784,1.380
7.804000,-1.1392,0.2460,-0.7271,1.374
7.846000,-1.0791,0.4047,-0.6792,1.338
7.847000,-0.9898,0.5646,-0.6735,1.324
7.847000,-0.9692,0.7163,-0.5570,1.328
7.847000,-0.9071,0.8738,-0.4637,1.342
7.847000,-0.8275,1.0038,-0.3601,1.350
7.848000,-0.7375,1.1613,-0.2605,1.400
7.848000,-0.5795,1.3133,-0.2608,1.459
7.848000,-0.3803,1.4838,-0.2128,1.546
7.850000,-0.2038,1.5969,0.0074,1.610
7.855000,-0.0494,1.6458,0.1840,1.657
7.860000,0.0350,1.7093,0.4393,1.765
7.865000,0.2318,1.7997,0.8254,1.993
7.870000,0.4097,1.7994,1.1990,2.201
7.875000,0.5904,1.7582,1.6345,2.472
7.879000,0.7672,1.6737,2.0218,2.735
7.883000,0.9314,1.5433,2.3301,2.946
7.889000,1.0902,1.4292,2.6000,3.161
7.894000,1.1628,1.3262,2.8917,3.387
7.899000,1.1831,1.2343,3.1095,3.549
7.904000,1.1034,1.1583,3.2414,3.615
7.918000,0.9196,1.0999,3.2857,3.585
7.920000,0.7706,1.0425,3.2280,3.479
7.921000,0.5417,1.0154,3.1302,3.335
7.924000,0.2976,0.9224,3.0262,3.178
7.984000,0.1238,0.9530,2.8584,3.016
7.985000,-0.0182,1.0491,2.6440,2.845
7.985000,-0.1698,1.1536,2.3831,2.653
7.986000,-0.3199,1.3052,1.9366,2.357
7.986000,-0.4276,1.4509,1.4366,2.086
7.986000,-0.5611,1.5824,0.9948,1.952
7.987000,-0.7233,1.6808,0.5582,1.913
7.987000,-0.8363,1.7780,0.1624,1.972
7.987000,-0.9200,1.8936,-0.0785,2.107
7.987000,-1.0061,2.0081,-0.1812,2.253
7.988000,-1.0735,2.0859,-0.1101,2.348
7.988000,-1.0719,2.1767,-0.0372,2.427
7.989000,-1.1045,2.2253,0.0065,2.484
7.993000,-1.1068,2.2006,-0.0148,2.463
7.998000,-1.0310,2.1311,-0.0314,2.368
8.003000,-0.9205,2.0723,-0.1347,2.272
8.010000,-0.8538,2.0529,-0.3461,2.250
8.012000,-0.8426,2.0328,-0.5775,2.275
8.017000,-0.8200,2.0391,-0.7555,2.324
8.022000,-0.8697,2.0314,-0.9020,2.387
8.027000,-0.9625,2.0652,-0.9433,2.466
8.032000,-1.0273,2.1241,-0.8895,2.522
8.037000,-1.0594,2.1793,-0.8483,2.567
8.045000,-1.1399,2.2190,-0.6309,2.573
8.048000,-1.1018,2.3032,-0.2973,2.570
8.052000,-0.9304,2.2400,0.2027,2.434
8.086000,-0.7186,2.2038,0.7740,2.444
8.087000,-0.3708,2.1986,1.3259,2.594
8.087000,-0.0488,2.1187,1.9619,2.888
8.087000,0.2311,1.9755,2.6274,3.295
8.088000,0.4457,1.8090,3.2488,3.745
8.088000,0.6865,1.5753,3.8031,4.173
8.088000,0.8970,1.3837,4.3459,4.648
8.096000,1.1047,1.1501,4.7315,4.993
8.098000,1.2382,0.8812,4.9270,5.156
8.102000,1.3558,0.5412,4.9828,5.192
8.108000,1.4132,0.1874,4.7986,5.006
8.112000,1.3457,-0.1729,4.4582,4.660
8.117000,1.1946,-0.5344,3.9902,4.199
8.122000,0.9813,-0.9134,3.4229,3.676
8.131000,0.7703,-1.2257,2.9090,3.249
8.131000,0.5703,-1.5522,2.2953,2.829
8.137000,0.3544,-1.8019,1.7394,2.529
8.178000,0.2101,-1.9937,1.2150,2.344
8.178000,0.1458,-2.1373,0.7867,2.282
8.179000,0.1370,-2.2616,0.4068,2.302
8.179000,0.1852,-2.3623,0.1401,2.374
8.179000,0.2108,-2.4469,-0.1158,2.459
8.180000,0.2752,-2.5542,-0.4228,2.604
8.180000,0.4091,-2.5864,-0.7087,2.713
8.180000,0.5734,-2.6538,-0.9494,2.876
8.181000,0.6866,-2.7563,-1.1258,3.056
8.186000,0.7608,-2.8559,-1.3120,3.234
8.191000,0.8205,-2.9620,-1.3668,3.364
8.197000,0.9379,-3.0057,-1.4075,3.449
8.202000,1.0489,-3.0300,-1.5942,3.581
8.207000,1.0128,-3.0777,-1.7955,3.704
8.212000,0.9448,-3.1487,-2.0042,3.850
8.216000,0.8761,-3.2186,-2.1467,3.967
8.221000,0.8834,-3.2301,-2.3783,4.107
8.227000,0.8786,-3.2355,-2.6347,4.264
8.230000,0.8502,-3.2077,-2.9622,4.448
8.235000,0.8528,-3.2016,-3.2553,4.645
8.284000,0.8052,-3.1711,-3.4910,4.784
8.285000,0.8605,-2.9775,-3.7051,4.831
8.286000,0.8970,-2.8431,-3.8383,4.860
8.287000,0.8529,-2.7575,-4.0229,4.951
8.287000,0.7944,-2.7331,-4.2344,5.102
8.288000,0.7482,-2.7024,-4.2319,5.077
8.288000,0.7381,-2.6011,-4.1515,4.954
8.289000,0.7953,-2.5249,-4.1513,4.924
8.289000,0.8003,-2.4667,-4.0830,4.837
8.290000,0.8486,-2.4077,-4.0681,4.803
8.293000,0.8995,-2.3815,-4.0252,4.763
8.295000,0.9146,-2.3020,-4.0046,4.709
8.301000,0.8750,-2.2816,-3.9990,4.687
8.306000,0.8338,-2.2032,-3.9368,4.588
8.313000,0.8172,-2.1361,-3.8108,4.444
8.316000,0.8208,-2.0923,-3.7288,4.354
8.320000,0.7156,-2.0050,-3.6739,4.246
8.331000,0.6192,-1.9527,-3.6632,4.197
8.333000,0.5172,-1.8733,-3.6154,4.105
8.335000,0.4147,-1.8120,-3.5331,3.992
8.340000,0.2568,-1.7543,-3.4693,3.896
8.379000,0.1036,-1.6377,-3.4768,3.845
8.380000,0.0456,-1.5053,-3.5172,3.826
8.381000,-0.0203,-1.3402,-3.4139,3.668
8.381000,-0.1345,-1.1590,-3.3249,3.524
8.382000,-0.2786,-0.9691,-3.2619,3.414
8.382000,-0.4648,-0.7968,-3.1100,3.244
8.382000,-0.6965,-0.7186,-2.8572,3.027
8.383000,-0.9314,-0.6366,-2.4459,2.694
8.385000,-1.1291,-0.5537,-2.0216,2.381
8.390000,-1.2234,-0.5108,-1.5672,2.053
8.396000,-1.2673,-0.4795,-1.1086,1.751
8.400000,-1.2060,-0.5103,-0.6240,1.451
8.406000,-1.1330,-0.5390,-0.1632,1.265
8.411000,-0.9401,-0.5347,0.3170,1.127
8.415000,-0.6986,-0.4687,0.6896,1.088
8.420000,-0.5228,-0.4370,1.0053,1.214
8.425000,-0.4292,-0.3464,1.3335,1.443
8.430000,-0.3694,-0.2591,1.7196,1.778
8.435000,-0.3472,-0.0580,2.1824,2.211
8.440000,-0.3570,0.0772,2.6981,2.723
8.446000,-0.4694,0.1057,3.2141,3.250
8.450000,-0.5923,0.0922,3.7135,3.762
8.455000,-0.7030,0.0606,3.9452,4.008
8.496000,-0.8610,0.0442,3.8403,3.936
8.497000,-1.1028,0.1437,3.4420,3.617
8.497000,-1.3074,0.3809,2.9538,3.253
8.498000,-1.5828,0.6342,2.3179,2.878
8.498000,-1.8683,0.9784,1.6059,2.651
8.498000,-1.9975,1.3949,0.9415,2.612
8.498000,-2.0367,1.8722,0.2575,2.778
8.499000,-2.0011,2.2889,-0.3485,3.060
8.499000,-1.8889,2.7103,-0.6884,3.375
8.506000,-1.7321,3.1131,-0.9306,3.682
8.510000,-1.5400,3.4046,-0.9655,3.859
8.514000,-1.2166,3.6472,-0.8367,3.935
8.519000,-0.7621,3.8529,-0.5421,3.965
8.525000,-0.1878,3.9241,-0.2541,3.937
8.529000,0.3914,3.8893,0.0776,3.910
8.534000,0.8730,3.7586,0.5316,3.895
8.540000,1.2211,3.6083,1.0795,3.959
8.545000,1.5556,3.4219,1.8288,4.180
8.552000,1.9174,3.1865,2.8112,4.662
8.556000,2.1637,2.8626,3.8676,5.276
8.561000,2.3953,2.5623,4.9456,6.063
8.563000,2.5127,2.2574,6.0157,6.899
8.568000,2.5385,1.8985,7.0864,7.763
8.573000,2.4287,1.4774,7.9577,8.450
8.618000,2.1225,1.0069,8.4803,8.800
8.619000,1.7235,0.4535,8.5566,8.740
8.620000,1.2078,-0.0228,8.2686,8.356
8.620000,0.6781,-0.4028,7.6715,7.712
8.621000,0.1581,-0.6494,6.7263,6.759
8.622000,-0.2627,-0.7524,5.4831,5.541
8.623000,-0.5512,-0.7124,4.3377,4.430
8.624000,-0.7503,-0.5337,3.3158,3.441
8.624000,-0.8269,-0.3372,2.3828,2.545
8.625000,-0.7627,-0.1747,1.6792,1.853
8.629000,-0.6261,-0.0439,1.1928,1.348
8.633000,-0.5014,-0.0573,0.8422,0.982
8.639000,-0.3647,-0.1739,0.5985,0.722
8.644000,-0.1783,-0.3320,0.4166,0.562
8.648000,0.0003,-0.5080,0.4066,0.651
8.654000,0.1472,-0.6956,0.4734,0.854
8.665000,0.2126,-0.8471,0.5070,1.010
8.666000,0.3708,-0.9950,0.5682,1.204
8.671000,0.4668,-1.1084,0.5734,1.332
8.672000,0.5440,-1.2259,0.5395,1.446
8.716000,0.6052,-1.3028,0.4720,1.512
8.718000,0.6532,-1.3562,0.3733,1.551
8.718000,0.6143,-1.4075,0.2171,1.551
8.718000,0.6443,-1.4737,-0.0227,1.609
8.719000,0.6475,-1.4927,-0.3412,1.662
8.719000,0.6502,-1.5193,-0.6285,1.768
8.720000,0.6644,-1.4601,-1.0091,1.895
8.720000,0.6135,-1.4538,-1.4423,2.138
8.721000,0.5360,-1.4326,-1.9478,2.477
8.729000,0.4960,-1.4392,-2.4443,2.880
8.730000,0.5265,-1.3893,-2.9012,3.260
8.733000,0.4409,-1.3182,-3.2952,3.576
8.737000,0.4256,-1.2497,-3.5906,3.826
8.744000,0.4018,-1.2144,-3.8021,4.012
8.750000,0.3858,-1.1716,-4.0112,4.197
8.751000,0.3560,-1.1022,-4.0218,4.185
8.757000,0.3767,-1.0660,-3.9559,4.114
8.763000,0.4002,-1.0105,-3.8856,4.035
8.767000,0.4315,-0.9479,-3.7794,3.920
8.772000,0.4489,-0.9238,-3.6109,3.754
8.777000,0.4816,-0.8735,-3.4425,3.584
8.781000,0.4318,-0.8619,-3.2381,3.379
8.786000,0.3693,-0.8407,-3.0435,3.179
8.818000,0.2829,-0.8555,-2.8443,2.984
8.819000,0.1819,-0.8848,-2.6212,2.772
8.819000,0.0985,-0.9334,-2.4604,2.633
8.820000,0.0278,-0.9703,-2.3378,2.531
8.820000,-0.0421,-0.9523,-2.1938,2.392
8.820000,-0.1065,-0.9033,-2.0665,2.258
8.822000,-0.1387,-0.8451,-1.8987,2.083
8.828000,-0.1120,-0.8157,-1.7717,1.954
8.833000,-0.1220,-0.7815,-1.6904,1.866
8.836000,-0.1445,-0.7762,-1.6283,1.810
8.842000,-0.1149,-0.7924,-1.5569,1.751
8.846000,-0.0718,-0.7464,-1.4952,1.673
8.851000,-0.0488,-0.6621,-1.4624,1.606
8.857000,-0.0532,-0.5514,-1.3701,1.478
8.863000,-0.1045,-0.4791,-1.1895,1.287
8.866000,-0.1902,-0.4166,-0.9039,1.013
8.871000,-0.2434,-0.4119,-0.6950,0.844
8.876000,-0.3217,-0.4221,-0.4717,0.710
8.881000,-0.3555,-0.3853,-0.2983,0.603
8.886000,-0.3855,-0.3138,-0.2080,0.539
8.895000,-0.3879,-0.2241,-0.1938,0.488
8.896000,-0.3603,-0.1214,-0.2672,0.465
8.900000,-0.3944,0.0282,-0.4189,0.576
8.943000,-0.4810,0.2367,-0.5770,0.788
8.944000,-0.6185,0.4276,-0.6555,0.997
8.944000,-0.7621,0.5775,-0.6810,1.174
8.945000,-0.8162,0.6648,-0.5198,1.174
8.945000,-0.8219,0.7470,-0.2174,1.132
8.945000,-0.7552,0.7904,0.0492,1.094
8.945000,-0.6450,0.7758,0.3017,1.053
8.945000,-0.5079,0.8249,0.5403,1.109
8.946000,-0.3271,0.9067,0.8200,1.265
8.951000,-0.1688,0.8798,1.0522,1.382
8.956000,-0.0660,0.9335,1.1820,1.508
8.960000,0.0648,0.9598,1.3197,1.633
8.966000,0.2097,0.9784,1.4075,1.727
8.971000,0.3280,1.0415,1.5342,1.883
8.977000,0.3793,1.0946,1.8045,2.144
8.981000,0.3958,1.1759,2.1848,2.513
8.985000,0.3708,1.2539,2.6252,2.933
9.022000,0.3840,1.2875,3.0683,3.350
9.023000,0.3408,1.3169,3.3806,3.644
9.023000,0.2392,1.3038,3.4979,3.741
9.024000,0.0549,1.3078,3.4849,3.723
9.024000,-0.1713,1.3554,3.1317,3.417
9.024000,-0.4833,1.4153,2.6228,3.019
9.025000,-0.7870,1.5339,2.0581,2.685
9.025000,-1.0526,1.6903,1.5856,2.545
9.031000,-1.2572,1.7656,1.2499,2.502
9.035000,-1.3589,1.8199,0.9287,2.454
9.040000,-1.3441,1.8752,0.8036,2.443
9.045000,-1.2825,1.9149,0.9073,2.477
9.050000,-1.1285,1.9795,1.1754,2.564
9.055000,-0.9103,2.0712,1.3924,2.657
9.060000,-0.6995,2.2038,1.6163,2.821
9.065000,-0.5192,2.3241,1.8235,2.999
9.069000,-0.4476,2.3982,1.8734,3.076
9.074000,-0.4505,2.5123,1.7350,3.086
9.080000,-0.5327,2.5324,1.3968,2.941
9.084000,-0.6490,2.5021,0.9133,2.742
9.089000,-0.7879,2.4555,0.3779,2.606
9.098000,-0.8377,2.4292,-0.2175,2.579
9.101000,-0.8134,2.4675,-0.8450,2.732
9.104000,-0.6894,2.5950,-1.2833,2.976
9.142000,-0.5640,2.6951,-1.6071,3.188
9.144000,-0.4610,2.7948,-1.7672,3.339
9.144000,-0.2538,2.9064,-1.7305,3.392
9.145000,0.0914,2.9796,-1.4831,3.330
9.145000,0.4246,2.9307,-1.0393,3.138
9.145000,0.7585,2.8286,-0.4397,2.961
9.146000,1.0538,2.6346,0.1414,2.841
9.146000,1.3119,2.3696,0.6689,2.790
9.149000,1.5743,2.1290,1.1335,2.880
9.154000,1.7087,1.8883,1.5787,2.996
9.160000,1.8405,1.6307,1.9830,3.159
9.164000,1.9184,1.3103,2.3873,3.331
9.169000,1.8573,0.9840,2.6439,3.378
9.176000,1.6653,0.5491,2.7147,3.232
9.179000,1.3642,0.0673,2.6073,2.943
9.185000,1.0209,-0.4514,2.4081,2.654
9.190000,0.6462,-0.8904,2.0388,2.317
9.194000,0.3491,-1.2258,1.6337,2.072
9.200000,0.0212,-1.4768,1.2263,1.920
9.205000,-0.2699,-1.7562,0.7742,1.938
9.209000,-0.4415,-1.9753,0.2941,2.045
9.214000,-0.5264,-2.1011,-0.1443,2.171
9.219000,-0.5690,-2.2295,-0.5742,2.372
9.265000,-0.6104,-2.3173,-0.8787,2.552
9.267000,-0.6684,-2.4130,-1.1505,2.756
9.268000,-0.6958,-2.5236,-1.3420,2.942
9.268000,-0.7437,-2.6427,-1.5078,3.132
9.269000,-0.7887,-2.7346,-1.6428,3.286
9.269000,-0.8194,-2.8211,-1.7352,3.412
9.269000,-0.7955,-2.8761,-1.8421,3.507
9.270000,-0.7602,-2.9022,-1.9133,3.558
9.270000,-0.7303,-2.9379,-1.9535,3.603
9.271000,-0.6912,-2.9709,-1.9773,3.635
9.276000,-0.6376,-2.9991,-1.9728,3.646
9.279000,-0.5930,-2.9983,-2.0021,3.654
9.283000,-0.5167,-3.0214,-2.0173,3.670
9.289000,-0.4055,-2.9940,-2.0665,3.660
9.294000,-0.2640,-2.9375,-2.0708,3.604
9.299000,-0.0993,-2.8615,-2.0733,3.535
9.304000,0.0012,-2.8088,-2.1389,3.530
9.309000,0.0760,-2.7290,-2.2077,3.511
9.315000,0.1543,-2.6144,-2.3471,3.517
9.317000,0.2249,-2.5248,-2.4424,3.520
9.322000,0.3545,-2.4240,-2.5704,3.551
9.361000,0.4790,-2.2995,-2.6716,3.557
9.362000,0.5672,-2.1752,-2.7223,3.530
9.363000,0.6649,-2.0437,-2.6821,3.437
9.363000,0.7083,-1.9265,-2.7280,3.414
9.364000,0.7401,-1.8667,-2.7356,3.394
9.364000,0.7393,-1.7901,-2.7576,3.370
9.365000,0.7176,-1.7374,-2.8251,3.393
9.365000,0.6337,-1.7134,-2.8924,3.421
9.367000,0.5813,-1.6748,-2.9477,3.440
9.373000,0.5602,-1.5858,-3.0294,3.465
9.378000,0.5321,-1.4939,-3.1042,3.486
9.383000,0.5588,-1.4447,-3.1170,3.481
9.388000,0.5353,-1.3926,-3.1420,3.478
9.392000,0.5264,-1.2728,-3.1223,3.413
9.397000,0.4748,-1.2264,-3.0099,3.285
9.402000,0.4382,-1.1887,-2.8531,3.122
9.410000,0.4101,-1.1167,-2.7259,2.974
9.412000,0.3851,-1.0893,-2.5137,2.766
9.417000,0.3763,-0.9967,-2.2714,2.509
9.422000,0.3098,-0.9347,-2.0588,2.282
9.461000,0.2146,-0.8579,-1.9834,2.172
9.462000,0.0910,-0.7523,-1.9182,2.063
9.463000,-0.0353,-0.6702,-1.9041,2.019
9.463000,-0.1713,-0.5778,-1.9604,2.051
9.463000,-0.3317,-0.4580,-1.9270,2.008
9.464000,-0.5313,-0.3419,-1.8017,1.909
9.464000,-0.7773,-0.2555,-1.5681,1.769
9.464000,-0.9172,-0.2347,-1.2739,1.587
9.467000,-1.0663,-0.2225,-0.9834,1.467
9.471000,-1.1846,-0.1998,-0.6605,1.371
9.476000,-1.2323,-0.1670,-0.2378,1.266
9.481000,-1.2362,-0.1534,0.2061,1.263
9.488000,-1.1110,-0.0398,0.6217,1.274
9.492000,-0.9208,0.0344,1.2100,1.521
9.497000,-0.7353,0.0783,1.7801,1.928
9.502000,-0.5511,0.0817,2.3182,2.384
9.506000,-0.3461,0.0708,2.7717,2.794
9.511000,-0.2367,0.0450,3.1266,3.136
9.516000,-0.2432,0.0355,3.3973,3.406
9.521000,-0.2667,0.0616,3.5717,3.582
9.527000,-0.3491,0.1115,3.6183,3.637
9.531000,-0.4923,0.1925,3.5514,3.591
9.536000,-0.6601,0.2981,3.3611,3.438
9.583000,-0.8931,0.4814,3.0206,3.186
9.585000,-1.0673,0.7164,2.5778,2.881
9.585000,-1.2766,0.9726,2.1182,2.658
9.586000,-1.4930,1.1866,1.7298,2.575
9.586000,-1.6184,1.3583,1.2521,2.456
9.587000,-1.6829,1.5673,0.6131,2.380
9.588000,-1.6137,1.7978,-0.0105,2.416
9.588000,-1.3930,2.0790,-0.4303,2.539
9.588000,-1.0886,2.4953,-0.6231,2.793
9.589000,-0.7388,2.9365,-0.4482,3.061
9.595000,-0.4507,3.3544,-0.0899,3.386
9.597000,-0.1521,3.7319,0.4709,3.765
9.601000,0.2721,4.0059,1.1153,4.167
9.605000,0.7531,4.0487,1.7101,4.459
9.610000,1.1259,3.9439,2.1243,4.619
9.616000,1.4674,3.7175,2.3154,4.619
9.621000,1.7817,3.4585,2.3886,4.565
9.628000,2.0184,3.2031,2.3846,4.474
9.632000,2.1582,3.0404,2.4824,4.479
9.636000,2.2897,2.8899,2.8220,4.643
9.680000,2.4066,2.7514,3.4534,5.029
9.682000,2.5552,2.5291,4.1539,5.494
9.682000,2.7033,2.2008,4.8786,5.996
9.682000,2.7397,1.7655,5.4536,6.353
9.683000,2.6580,1.3137,5.9774,6.672
9.683000,2.4257,0.9020,6.3216,6.831
9.684000,2.1014,0.4772,6.4126,6.765
9.684000,1.6019,0.0799,6.2890,6.490
9.685000,1.1209,-0.2515,5.8504,5.962
9.685000,0.6297,-0.5212,5.1807,5.245
9.692000,0.2492,-0.6956,4.4402,4.501
9.696000,-0.0741,-0.7786,3.6117,3.695
9.701000,-0.3158,-0.7894,2.7436,2.872
9.706000,-0.4900,-0.6563,1.9483,2.113
9.710000,-0.6172,-0.4556,1.2447,1.462
9.716000,-0.6724,-0.2806,0.6520,0.978
9.721000,-0.6992,-0.2245,0.2130,0.765
9.724000,-0.6464,-0.2060,-0.1249,0.690
9.729000,-0.4979,-0.1823,-0.3113,0.615
9.735000,-0.3033,-0.2468,-0.4302,0.581
9.740000,-0.1257,-0.2589,-0.5553,0.625
9.745000,-0.0217,-0.3285,-0.5984,0.683
9.749000,0.0780,-0.4105,-0.5044,0.655
9.755000,0.2052,-0.5456,-0.3474,0.679
9.797000,0.2960,-0.6413,-0.2037,0.735
9.798000,0.3517,-0.7502,-0.0661,0.831
9.800000,0.3967,-0.8392,-0.0205,0.928
9.801000,0.4030,-0.9108,-0.0477,0.997
9.801000,0.3830,-0.9437,-0.1784,1.034
9.801000,0.3777,-0.9621,-0.3720,1.098
9.801000,0.3253,-0.9822,-0.6812,1.239
9.802000,0.3358,-0.9392,-1.0798,1.470
9.802000,0.3757,-0.9569,-1.4390,1.769
9.806000,0.3759,-0.9249,-1.7568,2.021
9.810000,0.4009,-0.8882,-2.1196,2.333
9.815000,0.4082,-0.8847,-2.4392,2.627
9.820000,0.4476,-0.8593,-2.7492,2.915
9.825000,0.4137,-0.8474,-2.9565,3.103
9.829000,0.3420,-0.8637,-3.0850,3.222
9.834000,0.3160,-0.8364,-3.2520,3.373
9.838000,0.3422,-0.8467,-3.3953,3.516
9.844000,0.3050,-0.8565,-3.4884,3.605
9.849000,0.2045,-0.8706,-3.4311,3.546
9.853000,0.1263,-0.9109,-3.2805,3.407
9.859000,0.0538,-0.9415,-3.1181,3.258
9.864000,-0.0108,-1.0300,-2.8957,3.073
9.868000,-0.1085,-1.1598,-2.6562,2.900
9.922000,-0.2271,-1.3074,-2.4304,2.769
9.924000,-0.2641,-1.4061,-2.3114,2.718
9.925000,-0.2814,-1.4273,-2.1865,2.626
9.925000,-0.2501,-1.4212,-1.9915,2.459
9.925000,-0.2080,-1.3827,-1.7600,2.248
9.926000,-0.0898,-1.3072,-1.4562,1.959
9.926000,0.0025,-1.3550,-1.2452,1.840
9.929000,0.0195,-1.4161,-1.0981,1.792
9.929000,0.0545,-1.4880,-1.0243,1.807
9.929000,0.1078,-1.4728,-0.9927,1.779
9.930000,0.1698,-1.5046,-1.0964,1.869
9.930000,0.0759,-1.5425,-1.3257,2.035
9.932000,-0.0483,-1.5626,-1.5203,2.181
9.938000,-0.1101,-1.4356,-1.6661,2.202
9.944000,-0.1171,-1.2834,-1.7678,2.188
9.948000,-0.0911,-1.1728,-1.7994,2.150
9.954000,-0.1041,-1.0632,-1.7563,2.056
9.961000,-0.1800,-0.9837,-1.5400,1.836
9.963000,-0.2421,-0.8770,-1.4640,1.724
9.968000,-0.2813,-0.8031,-1.5256,1.747
9.974000,-0.3675,-0.7453,-1.6264,1.826
10.022000,-0.4244,-0.6266,-1.7285,1.887
10.024000,-0.5026,-0.4687,-1.9489,2.066
10.024000,-0.5210,-0.3066,-2.0585,2.145
10.024000,-0.5730,-0.0777,-2.1154,2.193
10.025000,-0.5872,0.1156,-2.0480,2.134
10.025000,-0.5797,0.2664,-1.7109,1.826
10.026000,-0.5459,0.3457,-1.2071,1.369
10.026000,-0.4565,0.4088,-0.6228,0.874
10.026000,-0.3732,0.3834,-0.0631,0.539
10.026000,-0.1952,0.4128,0.4437,0.637
10.028000,0.0068,0.4301,0.9333,1.028
10.032000,0.1572,0.4394,1.2938,1.375
10.036000,0.3069,0.4815,1.5063,1.611
10.041000,0.3799,0.5613,1.5682,1.708
10.047000,0.4216,0.7148,1.6208,1.821
10.052000,0.4032,0.9612,1.7022,1.996
10.060000,0.3443,1.2072,1.7407,2.146
10.064000,0.1924,1.4452,1.7363,2.267
10.067000,-0.0409,1.6516,1.6438,2.331
10.073000,-0.2486,1.8505,1.4821,2.384
10.078000,-0.5130,1.9654,1.3160,2.420
10.082000,-0.7321,2.0232,1.1570,2.443
10.087000,-0.9135,2.0457,1.0075,2.456
10.108000,-1.0579,2.0526,0.9076,2.481
10.112000,-1.1395,2.0966,0.9360,2.563
10.114000,-1.2494,2.2020,1.1904,2.798
10.114000,-1.3276,2.3017,1.5388,3.071
10.115000,-1.2787,2.4547,1.8864,3.349
10.116000,-1.1911,2.5698,2.2044,3.589
10.121000,-1.0406,2.6850,2.4240,3.764
10.161000,-0.8432,2.6736,2.5046,3.759
10.162000,-0.6800,2.6672,2.3816,3.640
10.162000,-0.5270,2.7020,2.1676,3.504
10.163000,-0.4193,2.6902,1.8596,3.297
10.163000,-0.3690,2.7544,1.5623,3.188
10.163000,-0.3756,2.8209,1.3063,3.131
10.164000,-0.2765,2.8736,1.1029,3.090
10.164000,-0.2636,2.9342,1.0380,3.124
10.167000,-0.2936,2.9290,1.0345,3.120
10.172000,-0.2496,2.9061,1.1831,3.148
10.176000,-0.0888,2.8865,1.4217,3.219
10.182000,0.0699,2.7767,1.7267,3.271
10.186000,0.2075,2.6150,1.9522,3.270
10.193000,0.3460,2.4535,2.2111,3.321
10.198000,0.4783,2.3088,2.4677,3.413
10.201000,0.6625,2.1806,2.6839,3.521
10.205000,0.8342,2.0421,2.8387,3.595
10.255000,0.8914,1.8430,2.9584,3.598
10.257000,0.9468,1.6089,3.1396,3.653
10.258000,0.9553,1.3306,3.1952,3.591
10.258000,0.9031,1.0818,3.1473,3.448
10.259000,0.7810,0.8048,3.0012,3.204
10.259000,0.6724,0.5166,2.7543,2.882
10.260000,0.5005,0.2002,2.4884,2.546
10.260000,0.2269,-0.1202,2.1699,2.185
10.260000,-0.0792,-0.4134,1.7558,1.806
10.260000,-0.3470,-0.6915,1.3659,1.570
10.261000,-0.5964,-0.9568,1.0528,1.543
10.266000,-0.8016,-1.2523,0.8547,1.715
10.271000,-0.9755,-1.4566,0.6117,1.857
10.276000,-1.1237,-1.6324,0.3649,2.015
10.281000,-1.1898,-1.7828,0.1795,2.151
10.285000,-1.2271,-1.8935,-0.0667,2.257
10.291000,-1.2557,-1.9917,-0.2652,2.369
10.296000,-1.1878,-2.1039,-0.5069,2.469
10.301000,-1.1078,-2.1300,-0.7149,2.505
10.306000,-0.9734,-2.1589,-0.8677,2.522
10.312000,-0.7680,-2.1932,-0.9700,2.518
10.317000,-0.5562,-2.2353,-0.9619,2.496
10.320000,-0.2990,-2.2641,-0.9583,2.477
10.351000,-0.1085,-2.2748,-1.0283,2.499
10.354000,0.0495,-2.3202,-1.1743,2.601
10.354000,0.2352,-2.2899,-1.2625,2.625
10.355000,0.3393,-2.2220,-1.3721,2.633
10.355000,0.4244,-2.1593,-1.4960,2.661
10.357000,0.4843,-2.0726,-1.6825,2.713
10.357000,0.4550,-2.0763,-1.8457,2.815
10.362000,0.4181,-2.0790,-2.1318,3.007
10.365000,0.4074,-2.0754,-2.4478,3.235
10.370000,0.3774,-2.0887,-2.7153,3.446
10.376000,0.3595,-2.1040,-3.0209,3.699
10.380000,0.3372,-2.1133,-3.2576,3.898
10.386000,0.3318,-2.0494,-3.4017,3.985
10.392000,0.3825,-1.9932,-3.4252,3.981
10.395000,0.4534,-1.8802,-3.3257,3.847
10.399000,0.5476,-1.8422,-3.0771,3.628
10.404000,0.6003,-1.8294,-2.9086,3.488
10.411000,0.6694,-1.8425,-2.8054,3.422
10.415000,0.7184,-1.7788,-2.7983,3.393
10.419000,0.7091,-1.7556,-2.8847,3.451
10.431000,0.6671,-1.7036,-2.9544,3.475
10.433000,0.5469,-1.6801,-2.9860,3.470
10.439000,0.4797,-1.6708,-2.8671,3.353
10.440000,0.3989,-1.6231,-2.7030,3.178
10.492000,0.3045,-1.6472,-2.4937,3.004
10.493000,0.2110,-1.6836,-2.3132,2.869
10.494000,0.0421,-1.6967,-2.2352,2.807
10.494000,-0.1091,-1.7226,-2.3122,2.885
10.495000,-0.2981,-1.7347,-2.4866,3.047
10.495000,-0.4919,-1.6397,-2.6365,3.143
10.496000,-0.6213,-1.5495,-2.8339,3.289
10.496000,-0.7278,-1.4494,-2.9524,3.369
10.496000,-0.7753,-1.2844,-2.9275,3.290
10.497000,-0.8119,-1.1431,-2.8670,3.191
10.498000,-0.7873,-1.0345,-2.7712,3.061
10.500000,-0.8045,-0.9277,-2.5924,2.868
10.504000,-0.8777,-0.8202,-2.2970,2.592
10.508000,-0.9016,-0.6980,-1.9018,2.217
10.514000,-0.8928,-0.6141,-1.5717,1.909
10.520000,-0.8293,-0.4916,-1.3140,1.630
10.524000,-0.7210,-0.3763,-1.0948,1.364
10.530000,-0.5989,-0.2681,-0.8473,1.072
10.533000,-0.4629,-0.1072,-0.5332,0.714
10.539000,-0.2987,0.0418,-0.2364,0.383
10.593000,-0.1900,0.1982,0.1507,0.313
10.595000,-0.0525,0.2614,0.5611,0.621
10.595000,0.0473,0.2961,1.0400,1.082
10.595000,0.1721,0.2949,1.5779,1.614
10.596000,0.2628,0.2290,2.0625,2.092
10.596000,0.3226,0.1125,2.6157,2.638
10.596000,0.3188,0.0266,3.1515,3.168
10.597000,0.2997,-0.0100,3.4883,3.501
10.597000,0.1700,-0.0551,3.7033,3.708
10.598000,-0.0008,-0.0850,3.8540,3.855
10.598000,-0.1893,-0.0781,3.7949,3.800
10.599000,-0.4558,-0.0082,3.6027,3.631
10.603000,-0.7622,0.0677,3.2438,3.333
10.610000,-0.9783,0.2696,2.8355,3.012
10.613000,-1.0642,0.4857,2.4873,2.749
10.619000,-1.1208,0.7190,2.0887,2.477
10.623000,-1.1371,0.9147,1.8070,2.323
10.629000,-1.0322,1.1881,1.6921,2.311
10.634000,-0.8445,1.3834,1.5884,2.269
10.637000,-0.6582,1.5511,1.6394,2.351
10.643000,-0.4803,1.8102,1.7209,2.543
10.647000,-0.3232,2.0242,1.7518,2.696
10.652000,-0.1677,2.2720,1.8350,2.925
10.705000,0.0272,2.4889,1.8651,3.110
10.706000,0.2048,2.5916,1.9090,3.225
10.706000,0.4253,2.5709,1.9757,3.270
10.707000,0.6533,2.4775,1.9431,3.216
10.707000,0.9490,2.4195,1.8635,3.198
10.707000,1.2542,2.3420,1.7247,3.167
10.708000,1.5356,2.3009,1.5982,3.195
10.708000,1.7761,2.2127,1.6031,3.259
10.708000,1.9637,2.1592,1.7725,3.415
10.709000,2.1439,2.0495,2.1014,3.635
10.709000,2.3575,1.9265,2.5635,3.980
10.713000,2.5247,1.6540,3.0388,4.283
10.718000,2.5739,1.3798,3.6332,4.661
10.722000,2.5817,1.1701,4.3184,5.166
10.727000,2.5495,0.9160,4.9590,5.651
10.733000,2.3965,0.6331,5.3765,5.920
10.738000,2.1693,0.3691,5.5306,5.952
10.743000,1.8008,0.0943,5.4561,5.746
10.747000,1.4082,-0.2132,5.1844,5.376
10.753000,0.9747,-0.4717,4.6296,4.755
10.757000,0.5564,-0.6669,3.9118,4.007
10.813000,0.1601,-0.7765,3.1549,3.253
10.815000,-0.1132,-0.8149,2.5241,2.655
10.815000,-0.3074,-0.9301,2.0095,2.236
10.815000,-0.4593,-1.0240,1.4292,1.817
10.816000,-0.4936,-1.0610,0.9104,1.483
10.816000,-0.5310,-1.1131,0.5822,1.364
10.817000,-0.5340,-1.1733,0.3322,1.331
10.817000,-0.5049,-1.2108,0.0050,1.312
10.817000,-0.4469,-1.2712,-0.2964,1.380
10.818000,-0.3215,-1.3690,-0.4573,1.479
10.818000,-0.1959,-1.3990,-0.7049,1.579
10.819000,-0.0219,-1.4188,-0.9315,1.697
10.822000,0.1168,-1.4236,-1.1754,1.850
10.826000,0.2280,-1.3917,-1.4081,1.993
10.832000,0.3290,-1.3589,-1.5772,2.108
10.836000,0.4633,-1.3297,-1.7571,2.252
10.849000,0.5883,-1.2703,-1.8762,2.341
10.850000,0.7337,-1.2021,-1.9707,2.422
10.851000,0.9118,-1.1369,-2.0862,2.545
10.856000,1.0496,-1.0772,-2.1319,2.609
10.897000,1.1066,-1.0441,-2.1199,2.609
10.898000,1.1240,-1.0594,-2.1770,2.669
10.899000,1.1475,-1.0582,-2.2793,2.763
10.899000,1.1583,-0.9713,-2.5128,2.932
10.899000,1.1036,-0.9229,-2.8274,3.172
10.900000,0.9791,-0.9627,-3.1562,3.442
10.900000,0.9201,-0.9490,-3.5283,3.768
10.901000,0.9168,-0.8814,-3.9272,4.128
10.903000,0.8276,-0.8363,-4.0278,4.196
10.906000,0.7644,-0.7923,-3.8901,4.043
10.911000,0.7150,-0.7307,-3.6910,3.830
10.917000,0.6839,-0.7119,-3.5115,3.648
10.922000,0.7264,-0.6905,-3.4543,3.597
10.925000,0.7681,-0.6739,-3.3946,3.545
10.930000,0.7751,-0.6648,-3.2607,3.417
10.936000,0.7143,-0.6272,-3.1626,3.302
10.943000,0.6768,-0.5422,-2.9758,3.100
10.945000,0.6290,-0.5510,-2.7340,2.859
10.950000,0.6501,-0.4913,-2.5181,2.647
10.957000,0.7139,-0.4659,-2.3210,2.473
10.962000,0.7014,-0.4822,-2.1211,2.286
10.965000,0.7035,-0.4686,-1.9589,2.133
10.970000,0.6487,-0.4107,-1.9276,2.075
11.018000,0.5373,-0.4087,-1.9604,2.073
11.019000,0.5104,-0.3690,-1.9976,2.095
11.019000,0.4722,-0.3824,-1.9388,2.032
11.019000,0.4276,-0.3481,-1.8704,1.950
11.019000,0.3816,-0.3116,-1.8906,1.954
11.020000,0.3531,-0.3469,-1.8534,1.918
11.020000,0.2941,-0.3487,-1.8306,1.887
11.020000,0.2739,-0.3242,-1.6595,1.713
11.021000,0.2328,-0.3263,-1.6224,1.671
11.021000,0.1229,-0.3142,-1.6499,1.684
11.030000,0.1096,-0.3236,-1.7467,1.780
11.031000,0.0414,-0.1918,-1.7789,1.790
11.034000,-0.0050,0.0072,-1.6201,1.620
11.041000,0.0374,0.2018,-1.5599,1.573
11.046000,0.0438,0.3294,-1.3637,1.404
11.049000,0.0458,0.4142,-1.1824,1.254
11.054000,0.0510,0.4825,-1.0183,1.128
11.060000,0.0331,0.5176,-0.8906,1.031
11.066000,0.0158,0.5627,-0.7944,0.974
11.069000,-0.0991,0.5986,-0.6749,0.908
11.077000,-0.1994,0.6014,-0.4576,0.782
11.079000,-0.3381,0.6737,-0.1738,0.774
11.084000,-0.5395,0.6766,0.1048,0.872
11.090000,-0.6106,0.6459,0.4574,1.000
11.128000,-0.6000,0.5693,0.9105,1.230
11.130000,-0.5077,0.5565,1.3708,1.564
11.130000,-0.4223,0.4874,1.8340,1.944
11.130000,-0.3100,0.4404,2.2836,2.346
11.130000,-0.2351,0.4368,2.6913,2.737
11.131000,-0.2065,0.4496,3.1434,3.182
11.131000,-0.2498,0.5025,3.4967,3.541
11.131000,-0.2468,0.5806,3.7324,3.785
11.134000,-0.2284,0.7293,3.7910,3.867
11.139000,-0.2922,0.9126,3.6728,3.796
11.144000,-0.3473,1.0831,3.4396,3.623
11.149000,-0.4133,1.2196,3.0368,3.299
11.155000,-0.4785,1.2825,2.5138,2.862
11.159000,-0.5410,1.3419,1.9637,2.439
11.164000,-0.5992,1.4302,1.5052,2.161
11.169000,-0.7375,1.5266,1.2547,2.109
11.175000,-0.8676,1.6410,1.2786,2.254
11.179000,-1.0161,1.7927,1.4427,2.515
11.184000,-1.1353,1.9213,1.6825,2.795
11.189000,-1.2349,2.0100,1.9406,3.055
11.199000,-1.2316,2.1036,2.2749,3.334
11.201000,-1.1134,2.1729,2.4945,3.490
11.204000,-0.9781,2.2105,2.6378,3.578
11.252000,-0.8637,2.2380,2.6574,3.580
11.254000,-0.7725,2.2029,2.5507,3.458
11.258000,-0.7058,2.2756,2.4058,3.386
11.259000,-0.6805,2.3056,2.1272,3.210
11.259000,-0.6434,2.3897,1.7642,3.039
11.260000,-0.6549,2.4849,1.3669,2.911
11.260000,-0.6169,2.5968,1.0663,2.874
11.261000,-0.5148,2.6806,0.9046,2.876
11.261000,-0.4453,2.7269,0.7215,2.856
11.262000,-0.3314,2.6838,0.5857,2.767
11.262000,-0.1253,2.7191,0.6786,2.805
11.262000,0.1206,2.7226,0.8803,2.864
11.268000,0.3715,2.6823,1.2937,3.001
11.281000,0.5466,2.5093,1.7967,3.134
11.282000,0.7400,2.2795,2.3039,3.324
11.283000,0.9424,2.0139,2.7966,3.573
11.287000,1.0377,1.7885,3.1317,3.753
11.325000,1.0701,1.5427,3.4200,3.901
11.326000,1.0520,1.3457,3.5899,3.976
11.326000,0.9508,1.0771,3.6946,3.964
11.326000,0.7498,0.7633,3.5933,3.749
11.327000,0.5278,0.3847,3.3392,3.403
11.327000,0.2556,0.0562,2.9136,2.925
11.327000,0.0191,-0.2338,2.4476,2.459
11.327000,-0.2401,-0.4805,1.9583,2.031
11.333000,-0.4366,-0.6911,1.4433,1.659
11.339000,-0.5615,-0.9062,1.0365,1.487
11.342000,-0.7261,-1.1235,0.4941,1.426
11.348000,-0.8139,-1.2855,-0.0762,1.523
11.352000,-0.8766,-1.4207,-0.5095,1.745
11.358000,-0.9216,-1.5505,-0.9568,2.042
11.362000,-0.9568,-1.6366,-1.2314,2.261
11.367000,-0.8899,-1.7056,-1.3908,2.374
11.372000,-0.8453,-1.8103,-1.4471,2.467
11.378000,-0.7324,-1.9173,-1.4361,2.505
11.382000,-0.6157,-1.9507,-1.4100,2.484
11.387000,-0.4784,-2.0283,-1.3470,2.481
11.393000,-0.3517,-2.0930,-1.2851,2.481
11.397000,-0.2781,-2.1402,-1.2506,2.494
11.402000,-0.1902,-2.2633,-1.2073,2.572
11.451000,-0.1115,-2.2738,-1.1408,2.546
11.452000,-0.0273,-2.2912,-1.0990,2.541
11.453000,-0.0134,-2.3586,-1.1272,2.614
11.454000,-0.0244,-2.4139,-1.2014,2.696
11.454000,-0.0076,-2.4690,-1.3622,2.820
11.455000,-0.0416,-2.4662,-1.6122,2.947
11.455000,-0.0550,-2.4555,-1.9706,3.149
11.455000,-0.0453,-2.4482,-2.3085,3.365
11.457000,-0.1059,-2.4104,-2.6120,3.556
11.458000,-0.1360,-2.4635,-2.8123,3.741
11.459000,-0.1408,-2.4300,-2.9815,3.849
11.464000,-0.0751,-2.3913,-3.0767,3.897
11.467000,-0.0344,-2.3092,-3.0572,3.831
11.472000,0.0602,-2.1958,-2.9900,3.710
11.477000,0.2111,-2.0848,-2.9038,3.581
11.482000,0.2898,-1.9929,-2.7746,3.428
11.486000,0.3748,-1.9590,-2.6692,3.332
11.493000,0.5072,-1.8849,-2.6901,3.324
11.496000,0.6055,-1.7802,-2.6891,3.281
11.501000,0.6772,-1.7167,-2.6639,3.241
11.505000,0.7180,-1.6750,-2.6313,3.201
11.559000,0.7187,-1.6239,-2.6058,3.153
11.560000,0.7272,-1.5777,-2.5540,3.089
11.560000,0.7151,-1.5508,-2.4017,2.947
11.560000,0.6971,-1.5433,-2.1706,2.753
11.561000,0.6328,-1.5553,-1.9658,2.585
11.561000,0.5106,-1.6467,-1.7897,2.485
11.561000,0.3981,-1.7003,-1.8191,2.522
11.561000,0.2301,-1.7353,-1.9630,2.630
11.562000,0.1213,-1.7202,-2.2047,2.799
11.562000,-0.0413,-1.6523,-2.3674,2.887
11.562000,-0.2005,-1.6267,-2.5450,3.027
11.567000,-0.3612,-1.5453,-2.7374,3.164
11.570000,-0.5355,-1.4437,-2.8660,3.253
11.578000,-0.6424,-1.3477,-3.0197,3.369
11.581000,-0.6892,-1.2741,-2.9570,3.293
11.591000,-0.6927,-1.1485,-2.8982,3.194
11.592000,-0.7299,-0.9952,-2.6878,2.958
11.595000,-0.7527,-0.8502,-2.4000,2.655
11.600000,-0.8428,-0.7043,-2.0631,2.337
11.605000,-0.9573,-0.6105,-1.7510,2.087
11.611000,-0.9502,-0.5257,-1.5427,1.887
11.615000,-0.8960,-0.4452,-1.3470,1.678
11.620000,-0.8330,-0.3976,-1.0899,1.428
11.631000,-0.7350,-0.3109,-0.8193,1.144
11.633000,-0.6498,-0.2044,-0.4445,0.813
11.636000,-0.5989,-0.2312,-0.0468,0.644
11.640000,-0.5223,-0.1617,0.3859,0.669
11.691000,-0.5538,-0.1038,0.8153,0.991
11.692000,-0.5810,-0.0958,1.4401,1.556
11.693000,-0.6029,-0.1407,2.2317,2.316
11.693000,-0.6119,-0.1076,3.0062,3.070
11.694000,-0.6573,-0.0907,3.7356,3.794
11.695000,-0.7626,-0.0929,4.2435,4.312
11.695000,-0.8747,-0.0694,4.6858,4.767
11.696000,-0.9622,-0.0326,4.9387,5.032
11.696000,-1.0536,0.0077,4.9022,5.014
11.697000,-1.1828,0.1400,4.5168,4.671
11.697000,-1.3054,0.3171,3.8783,4.104
11.700000,-1.4748,0.5683,3.2016,3.570
11.706000,-1.6227,0.8468,2.5603,3.147
11.711000,-1.6826,1.0504,1.9680,2.794
11.715000,-1.7805,1.2425,1.4025,2.585
11.721000,-1.6752,1.4497,1.0285,2.442
11.728000,-1.4443,1.8041,0.7951,2.444
11.730000,-1.1740,2.1671,0.6396,2.546
11.735000,-0.8882,2.4696,0.6670,2.708
11.738000,-0.5844,2.6930,0.7668,2.860
11.770000,-0.1995,2.8254,1.0152,3.009
11.771000,0.2530,2.8482,1.3708,3.171
11.771000,0.6839,2.8119,1.8072,3.412
11.772000,1.1184,2.7597,2.2473,3.731
11.772000,1.5213,2.6987,2.5525,4.014
11.772000,1.8291,2.6385,2.9764,4.378
11.776000,2.0853,2.5383,3.5238,4.817
11.779000,2.2999,2.3304,4.0515,5.209
11.785000,2.4923,2.1725,4.5263,5.605
11.789000,2.6339,1.9564,4.9537,5.942
11.794000,2.7202,1.6503,5.2386,6.129
11.799000,2.6150,1.3906,5.4747,6.224
11.803000,2.3158,1.1357,5.5980,6.164
11.810000,1.9518,0.9597,5.6783,6.081
11.813000,1.5893,0.7587,5.6853,5.952
11.819000,1.1798,0.5109,5.5405,5.688
11.824000,0.7779,0.2617,5.2133,5.278
11.828000,0.4731,-0.0106,4.7710,4.794
11.834000,0.2244,-0.2794,4.2949,4.310
11.839000,0.0668,-0.4585,3.7706,3.799
11.844000,-0.0890,-0.5576,3.3798,3.427
11.848000,-0.1729,-0.6054,3.0077,3.073
11.853000,-0.1836,-0.6215,2.4416,2.526
11.894000,-0.1933,-0.6152,1.8514,1.960
11.895000,-0.2288,-0.6102,1.1556,1.327
11.895000,-0.2291,-0.6256,0.5670,0.875
11.895000,-0.1751,-0.6227,-0.0392,0.648
11.895000,-0.0292,-0.5819,-0.4456,0.733
11.896000,0.1582,-0.5079,-0.9110,1.055
11.896000,0.3440,-0.4650,-1.2443,1.372
11.897000,0.4734,-0.4721,-1.5055,1.647
11.899000,0.5924,-0.4886,-1.7258,1.889
11.904000,0.6942,-0.5672,-1.7761,1.990
11.909000,0.7765,-0.6073,-1.8240,2.073
11.913000,0.8040,-0.6595,-1.8263,2.102
11.918000,0.8440,-0.6879,-1.9073,2.196
11.924000,0.8776,-0.6593,-1.9927,2.275
11.928000,0.9124,-0.6646,-2.0274,2.320
11.934000,0.8797,-0.7204,-2.1073,2.394
11.939000,0.8754,-0.7931,-2.2420,2.534
11.943000,0.8758,-0.8277,-2.3594,2.649
11.948000,0.9291,-0.8287,-2.5366,2.826
11.952000,0.9326,-0.8105,-2.7257,2.993
12.011000,0.9223,-0.7821,-2.8671,3.112
12.012000,0.8984,-0.8008,-2.9970,3.230
12.012000,0.8773,-0.7946,-3.1681,3.382
12.012000,0.8496,-0.7467,-3.2012,3.395
12.013000,0.7961,-0.7502,-3.1945,3.377
12.013000,0.7433,-0.7861,-3.1074,3.290
12.013000,0.6910,-0.8160,-2.9926,3.178
12.014000,0.6346,-0.8353,-2.8668,3.053
12.014000,0.5191,-0.8920,-2.6963,2.887
12.014000,0.4187,-0.9338,-2.5599,2.757
12.014000,0.2686,-1.0208,-2.4549,2.672
12.015000,0.1045,-1.0668,-2.4410,2.666
12.018000,-0.0214,-1.1081,-2.4055,2.649
12.024000,-0.1503,-1.1376,-2.3507,2.616
12.029000,-0.2582,-1.2150,-2.3581,2.665
12.032000,-0.3192,-1.2302,-2.2818,2.612
12.038000,-0.3500,-1.2145,-2.2197,2.554
12.044000,-0.3556,-1.2062,-2.1431,2.485
12.050000,-0.2954,-1.1935,-2.0831,2.419
12.052000,-0.2078,-1.1452,-1.9967,2.311
12.105000,-0.1598,-1.1164,-1.9006,2.210
12.106000,-0.0919,-1.0355,-1.7635,2.047
12.106000,-0.0587,-0.9673,-1.6406,1.905
12.106000,0.0114,-0.9453,-1.4383,1.721
12.107000,0.1211,-0.9170,-1.2357,1.543
12.107000,0.2322,-0.8947,-1.0156,1.373
12.107000,0.3522,-0.8304,-0.8238,1.222
12.107000,0.4626,-0.8059,-0.6024,1.107
12.108000,0.5182,-0.7971,-0.4041,1.033
12.108000,0.5364,-0.7826,-0.2744,0.988
12.108000,0.5107,-0.7622,-0.1918,0.937
12.114000,0.4483,-0.7670,-0.1488,0.901
12.117000,0.3400,-0.7586,-0.1411,0.843
12.122000,0.2192,-0.7201,-0.1158,0.762
12.126000,0.0306,-0.6971,-0.1663,0.717
12.132000,-0.1253,-0.6629,-0.2352,0.714
12.137000,-0.3208,-0.6248,-0.3106,0.768
12.142000,-0.4941,-0.5778,-0.4548,0.886
12.147000,-0.6242,-0.5219,-0.6317,1.030
12.152000,-0.7068,-0.4186,-0.8177,1.159
12.157000,-0.8262,-0.3274,-1.0226,1.355
12.161000,-0.8301,-0.1646,-1.1339,1.415
12.166000,-0.7405,0.0224,-1.0851,1.314
12.171000,-0.6173,0.1688,-0.9792,1.170
12.225000,-0.4537,0.3081,-0.7899,0.962
12.226000,-0.2876,0.4404,-0.5580,0.767
12.227000,-0.1215,0.5318,-0.2163,0.587
12.227000,0.0138,0.5968,0.1347,0.612
12.227000,0.0419,0.6038,0.4713,0.767
12.228000,0.0828,0.6151,0.6406,0.892
12.228000,0.1775,0.6619,1.0588,1.261
12.228000,0.2834,0.7152,1.5846,1.761
12.228000,0.4380,0.7246,1.9789,2.152
12.229000,0.5362,0.7831,2.3473,2.532
12.229000,0.6481,0.8664,2.4941,2.719
12.231000,0.6525,0.9556,2.6920,2.930
12.236000,0.6475,1.0812,2.7259,3.003
12.241000,0.4920,1.1504,2.6198,2.903
12.245000,0.3528,1.2229,2.3046,2.633
12.250000,0.2246,1.2969,1.8828,2.297
12.255000,0.0230,1.3471,1.4615,1.988
12.260000,-0.0492,1.4360,1.1768,1.857
12.265000,-0.1050,1.5189,0.9847,1.813
12.270000,-0.1927,1.6195,0.9906,1.908
12.282000,-0.2744,1.6780,1.1199,2.036
12.284000,-0.3405,1.7014,1.3921,2.225
12.285000,-0.3385,1.7152,1.7118,2.447
12.340000,-0.3257,1.7311,2.0052,2.669
12.341000,-0.2349,1.7291,2.2228,2.826
12.342000,-0.1709,1.7234,2.2717,2.857
12.342000,-0.1022,1.6952,2.1398,2.732
12.343000,-0.0286,1.6946,1.9876,2.612
12.343000,0.0863,1.7056,1.7476,2.443
12.343000,0.1280,1.7093,1.3932,2.209
12.344000,0.0876,1.6875,1.0052,1.966
12.344000,0.0443,1.7008,0.6736,1.830
12.345000,-0.0882,1.7301,0.3888,1.775
12.345000,-0.2040,1.7666,0.1570,1.785
12.345000,-0.3008,1.7864,-0.0122,1.812
12.350000,-0.4171,1.7877,-0.1386,1.841
12.355000,-0.5622,1.7847,-0.2342,1.886
12.361000,-0.7651,1.7416,-0.2535,1.919
12.366000,-0.9521,1.6155,-0.3306,1.904
12.370000,-1.1070,1.5666,-0.4081,1.961
12.381000,-1.2185,1.5254,-0.3972,1.992
12.382000,-1.2513,1.4631,-0.3267,1.953
12.384000,-1.2512,1.4203,-0.1869,1.902
12.389000,-1.1731,1.3872,0.0318,1.817
12.436000,-1.0554,1.3131,0.2986,1.711
12.437000,-0.9075,1.2170,0.6352,1.646
12.437000,-0.7985,1.0845,1.0226,1.691
12.437000,-0.6082,0.9032,1.3605,1.743
12.437000,-0.3961,0.7351,1.6661,1.864
12.438000,-0.2644,0.5297,1.8680,1.960
12.438000,-0.1888,0.3779,2.0139,2.058
12.438000,-0.1565,0.2483,2.1593,2.179
12.438000,-0.1841,0.0739,2.3257,2.334
12.439000,-0.2568,-0.1433,2.4249,2.443
12.446000,-0.3435,-0.3652,2.4359,2.487
12.449000,-0.3986,-0.6372,2.3705,2.487
12.455000,-0.4585,-0.8784,2.1983,2.411
12.459000,-0.5949,-1.0504,1.9958,2.332
12.464000,-0.7246,-1.1584,1.7632,2.231
12.469000,-0.8340,-1.2531,1.5226,2.141
12.474000,-0.9469,-1.3725,1.2211,2.067
12.479000,-0.9807,-1.4786,0.8733,1.978
12.483000,-0.9674,-1.5334,0.4651,1.872
12.488000,-0.9142,-1.6155,0.0872,1.858
12.493000,-0.8598,-1.6795,-0.1863,1.896
12.499000,-0.7639,-1.6969,-0.5158,1.931
12.505000,-0.6532,-1.6889,-0.8271,1.991
12.515000,-0.6475,-1.6723,-1.0560,2.081
12.517000,-0.5650,-1.6639,-1.2574,2.161
12.519000,-0.4924,-1.6086,-1.4195,2.201
12.580000,-0.4055,-1.6405,-1.4826,2.248
12.581000,-0.3474,-1.6232,-1.5328,2.259
12.582000,-0.2937,-1.6788,-1.6372,2.363
12.583000,-0.2298,-1.7162,-1.6855,2.416
12.583000,-0.2130,-1.7310,-1.6778,2.420
12.584000,-0.1978,-1.6992,-1.7122,2.420
12.585000,-0.1412,-1.6713,-1.7716,2.440
12.585000,-0.1480,-1.6352,-1.9184,2.525
12.586000,-0.1153,-1.5954,-2.1767,2.701
12.586000,-0.0933,-1.5517,-2.3910,2.852
12.587000,-0.1320,-1.5132,-2.6357,3.042
12.587000,-0.1262,-1.4197,-2.8109,3.152
12.588000,-0.0541,-1.3835,-2.8785,3.194
12.592000,-0.0090,-1.2990,-2.8747,3.155
12.592000,0.0237,-1.2404,-2.8857,3.141
12.598000,0.0851,-1.1768,-2.8180,3.055
12.604000,0.1369,-1.1130,-2.7290,2.950
12.611000,0.1962,-1.0587,-2.7264,2.931
12.614000,0.2582,-1.0284,-2.7285,2.927
12.617000,0.2820,-0.9670,-2.7043,2.886
12.624000,0.2848,-0.9320,-2.7567,2.924
12.669000,0.2377,-0.8969,-2.8402,2.988
12.670000,0.1671,-0.9023,-2.8759,3.019
12.670000,0.0869,-0.8787,-2.9190,3.050
12.670000,-0.0242,-0.8882,-2.9026,3.036
12.670000,-0.1760,-0.8925,-2.8555,2.997
12.671000,-0.3136,-0.8892,-2.8063,2.960
12.671000,-0.4491,-0.9001,-2.6737,2.857
12.671000,-0.5374,-0.9083,-2.6395,2.843
12.671000,-0.6023,-0.8590,-2.5577,2.765
12.672000,-0.6775,-0.8431,-2.4164,2.647
12.680000,-0.7919,-0.7866,-2.3015,2.558
12.683000,-0.8569,-0.7541,-2.1245,2.412
12.687000,-0.9179,-0.7529,-1.9143,2.253
12.691000,-0.9534,-0.6971,-1.6849,2.058
12.697000,-0.9517,-0.6849,-1.5581,1.950
12.702000,-1.0225,-0.6350,-1.4957,1.920
12.710000,-1.0724,-0.5331,-1.4998,1.919
12.712000,-1.1543,-0.4413,-1.5275,1.965
12.716000,-1.2106,-0.3472,-1.5456,1.994
12.721000,-1.2513,-0.1981,-1.5185,1.978
12.762000,-1.2525,-0.0702,-1.4774,1.938
12.763000,-1.1496,0.0557,-1.3339,1.762
12.763000,-1.0221,0.1653,-1.1696,1.562
12.764000,-0.7953,0.2444,-0.9009,1.226
12.764000,-0.5556,0.3192,-0.5015,0.814
12.764000,-0.2876,0.3756,-0.0935,0.482
12.764000,-0.0793,0.4110,0.2489,0.487
12.764000,0.1273,0.3560,0.6240,0.730
12.768000,0.2183,0.3277,1.0557,1.127
12.773000,0.2084,0.3259,1.4318,1.483
12.778000,0.1242,0.3408,1.7501,1.787
12.781000,-0.0102,0.3170,2.0995,2.123
12.786000,-0.2019,0.3047,2.4488,2.476
12.791000,-0.4006,0.2962,2.7244,2.770
12.796000,-0.6635,0.2553,2.8548,2.942
12.801000,-0.9264,0.2295,2.8047,2.963
12.806000,-1.2502,0.2286,2.5645,2.862
12.812000,-1.4326,0.2909,2.2756,2.705
12.817000,-1.5203,0.4143,1.8778,2.451
12.821000,-1.5403,0.5919,1.4309,2.184
12.832000,-1.5028,0.8646,1.1785,2.096
12.834000,-1.4038,1.1227,1.0937,2.104
12.836000,-1.2675,1.3067,1.1117,2.133
12.889000,-1.1317,1.4051,1.1555,2.142
12.891000,-0.8244,1.5946,1.3137,2.224
12.892000,-0.4123,1.8296,1.4810,2.390
12.892000,-0.1597,1.9646,1.5209,2.490
12.892000,0.0104,1.9856,1.5147,2.497
12.893000,0.2011,1.9556,1.5383,2.496
12.893000,0.4178,1.9349,1.5625,2.522
12.893000,0.6038,1.9146,1.6466,2.596
12.894000,0.8508,1.8569,1.9193,2.803
12.895000,1.0131,1.8386,2.3418,3.145
12.897000,1.1064,1.7971,2.7970,3.504
12.897000,1.2484,1.7059,3.2684,3.892
12.900000,1.2911,1.5120,3.8591,4.341
12.905000,1.2995,1.3031,4.2900,4.668
12.911000,1.2639,1.1619,4.5716,4.883
12.916000,1.1933,0.9799,4.8005,5.043
12.921000,1.0611,0.8881,4.9294,5.120
12.928000,0.8453,0.7565,4.9088,5.038
12.931000,0.5736,0.6850,4.8709,4.952
12.935000,0.3579,0.5658,4.7153,4.763
12.967000,0.1757,0.4202,4.4904,4.513
12.968000,0.0334,0.2697,4.1483,4.157
12.968000,-0.0650,0.1312,3.7897,3.792
12.969000,-0.0867,0.0144,3.3354,3.337
12.969000,-0.0705,-0.1019,2.9358,2.938
12.969000,0.0314,-0.1766,2.6649,2.671
12.969000,0.2075,-0.2140,2.4168,2.435
12.977000,0.3959,-0.3073,2.1817,2.239
12.980000,0.5733,-0.3293,2.0048,2.111
12.986000,0.7645,-0.3951,1.8239,2.017
12.989000,0.9293,-0.4447,1.5720,1.880
12.995000,1.0611,-0.5089,1.3685,1.805
13.000000,1.1384,-0.5758,1.1034,1.687
13.005000,1.1858,-0.5974,0.8866,1.597
13.010000,1.2273,-0.6193,0.6750,1.531
13.016000,1.2320,-0.6820,0.2964,1.439
13.020000,1.2311,-0.7281,0.0689,1.432
13.027000,1.2197,-0.7839,-0.1891,1.462
13.030000,1.1140,-0.8807,-0.5184,1.512
13.034000,1.0264,-0.9466,-0.8877,1.654
13.039000,0.9277,-1.0318,-1.2491,1.867
13.094000,0.8222,-1.1029,-1.6648,2.160
13.095000,0.6762,-1.2289,-2.0513,2.485
13.095000,0.6089,-1.3210,-2.3968,2.804
13.095000,0.5931,-1.2955,-2.7803,3.124
13.096000,0.6501,-1.2574,-2.9726,3.292
13.096000,0.6608,-1.2281,-3.1318,3.428
13.096000,0.7304,-1.1764,-3.1670,3.456
13.097000,0.8112,-1.1624,-3.1716,3.474
13.097000,0.8727,-1.1886,-3.1384,3.468
13.097000,0.8483,-1.2812,-3.0721,3.435
13.098000,0.8556,-1.3568,-3.1256,3.513
13.100000,0.8255,-1.3606,-3.2173,3.589
13.105000,0.6408,-1.4576,-3.4358,3.787
13.109000,0.4831,-1.5851,-3.6351,3.995
13.114000,0.3229,-1.6115,-3.8968,4.229
13.118000,0.2247,-1.5798,-4.1515,4.448
13.124000,0.0969,-1.5233,-4.4832,4.736
13.129000,-0.0612,-1.4893,-4.8179,5.043
13.134000,-0.1928,-1.4700,-5.0415,5.255
13.139000,-0.2073,-1.3072,-5.1089,5.278
13.144000,-0.1790,-1.1394,-4.9774,5.109
13.149000,-0.0930,-0.9810,-4.6761,4.779
13.153000,0.0633,-0.8825,-4.2025,4.295
13.160000,0.2567,-0.7868,-3.6402,3.733
13.164000,0.3946,-0.7473,-3.0509,3.166
13.168000,0.4297,-0.7239,-2.5369,2.673
13.173000,0.4460,-0.6787,-2.1600,2.308
13.227000,0.4461,-0.6577,-1.8623,2.025
13.229000,0.4614,-0.5557,-1.7249,1.870
13.230000,0.4919,-0.4325,-1.6402,1.766
13.230000,0.5403,-0.2953,-1.4932,1.615
13.231000,0.6021,-0.1724,-1.3489,1.487
13.231000,0.6461,-0.1023,-1.1451,1.319
13.232000,0.7086,-0.0393,-0.9464,1.183
13.232000,0.7968,-0.0123,-0.7288,1.080
13.232000,0.8843,-0.0216,-0.4539,0.994
13.232000,0.8971,-0.0287,-0.2796,0.940
13.232000,0.8425,-0.0413,-0.2151,0.871
13.233000,0.7441,-0.0547,-0.1884,0.770
13.239000,0.6380,-0.0590,-0.1876,0.668
13.246000,0.5233,-0.0783,-0.1864,0.561
13.249000,0.4239,-0.0645,-0.1943,0.471
13.253000,0.3730,-0.0299,-0.0559,0.378
13.260000,0.3271,-0.0081,0.0949,0.341
13.263000,0.2338,-0.0330,0.3014,0.383
13.267000,0.1696,-0.0306,0.4921,0.521
13.272000,0.1223,-0.0086,0.6337,0.645
13.330000,0.0463,-0.0154,0.7411,0.743
13.331000,-0.0852,0.0109,0.7308,0.736
13.332000,-0.2552,0.0152,0.6390,0.688
13.333000,-0.3927,0.0456,0.3699,0.541
13.333000,-0.5170,0.1572,0.1149,0.552
13.334000,-0.6024,0.2357,-0.1741,0.670
13.334000,-0.6804,0.3416,-0.5264,0.926
13.334000,-0.7392,0.4703,-0.7961,1.184
13.334000,-0.7768,0.6108,-0.9721,1.386
13.335000,-0.7598,0.7060,-0.9543,1.409
13.335000,-0.6884,0.8087,-0.8266,1.346
13.336000,-0.4908,0.9311,-0.4843,1.159
13.338000,-0.2050,1.0775,0.0440,1.098
13.342000,0.1120,1.1543,0.6268,1.318
13.348000,0.3774,1.1873,1.1760,1.713
13.353000,0.5802,1.2311,1.5341,2.051
13.357000,0.6544,1.2285,1.9619,2.405
13.362000,0.7323,1.2628,2.1366,2.588
13.366000,0.7811,1.3367,2.2066,2.696
13.373000,0.7505,1.4238,2.2391,2.757
13.417000,0.7199,1.5076,2.2552,2.807
13.418000,0.6461,1.5809,2.1906,2.778
13.418000,0.5195,1.6559,2.0739,2.704
13.418000,0.3778,1.7043,1.9838,2.642
13.419000,0.2519,1.7406,1.8100,2.524
13.419000,0.0935,1.7342,1.6100,2.368
13.419000,-0.0426,1.7621,1.3570,2.224
13.419000,-0.2577,1.8049,1.1421,2.151
13.419000,-0.4829,1.8633,1.0414,2.188
13.422000,-0.6543,1.9563,0.9902,2.288
13.428000,-0.7487,2.0337,1.0027,2.388
13.432000,-0.7400,2.0645,1.2009,2.500
13.436000,-0.7407,2.0796,1.4938,2.665
13.441000,-0.5541,2.0764,1.8336,2.825
13.447000,-0.2873,2.0117,2.2180,3.008
13.451000,-0.0712,1.9354,2.5275,3.184
13.457000,0.1527,1.8831,2.8247,3.398
13.463000,0.3492,1.8332,3.0067,3.539
13.466000,0.3924,1.7927,2.9949,3.512
13.472000,0.4003,1.7547,2.8919,3.406
13.520000,0.2725,1.6139,2.7888,3.234
13.522000,0.0640,1.5191,2.4989,2.925
13.522000,-0.1752,1.4774,2.1467,2.612
13.522000,-0.4600,1.4316,1.8684,2.398
13.523000,-0.7000,1.4035,1.5514,2.206
13.523000,-0.9176,1.3524,1.3153,2.098
13.525000,-1.0966,1.3118,1.1458,2.058
13.526000,-1.2807,1.2720,1.0955,2.111
13.526000,-1.3917,1.1994,0.8798,2.037
13.527000,-1.5070,1.2019,0.7093,2.054
13.527000,-1.5963,1.2048,0.5938,2.086
13.532000,-1.6315,1.1463,0.5618,2.072
13.536000,-1.6584,1.1053,0.5916,2.079
13.541000,-1.5718,1.0124,0.7502,2.015
13.545000,-1.3001,0.8963,0.9920,1.865
13.552000,-0.9263,0.8262,1.4343,1.897
13.555000,-0.5715,0.7418,1.8642,2.086
13.560000,-0.1388,0.7217,2.2438,2.361
13.565000,0.2557,0.6889,2.5159,2.621
13.571000,0.5223,0.5716,2.5731,2.687
13.581000,0.6403,0.4968,2.4848,2.614
13.582000,0.6942,0.3907,2.3248,2.458
13.585000,0.7102,0.2297,2.1481,2.274
13.646000,0.6527,0.1169,2.0000,2.107
13.646000,0.6125,-0.0002,1.8611,1.959
13.647000,0.5485,-0.1673,1.7891,1.879
13.647000,0.4701,-0.3271,1.7243,1.817
13.647000,0.3939,-0.4895,1.6118,1.730
13.648000,0.2667,-0.6668,1.5240,1.685
13.648000,0.1697,-0.8665,1.3126,1.582
13.648000,0.0259,-1.0599,1.1670,1.577
13.648000,-0.0695,-1.1996,0.9247,1.516
13.649000,-0.1358,-1.3382,0.6649,1.500
13.649000,-0.1759,-1.4662,0.3564,1.519
13.649000,-0.2116,-1.5523,-0.0079,1.567
13.652000,-0.2240,-1.6470,-0.3490,1.698
13.656000,-0.1678,-1.6613,-0.7007,1.811
13.661000,-0.0888,-1.6431,-1.0988,1.979
13.666000,-0.0179,-1.6711,-1.3690,2.160
13.670000,0.0425,-1.7043,-1.6407,2.366
13.675000,0.0898,-1.6615,-1.9857,2.591
13.679000,0.1312,-1.6569,-2.1628,2.728
13.685000,0.1671,-1.6405,-2.3275,2.852
13.689000,0.2142,-1.6767,-2.3939,2.931
13.695000,0.2395,-1.7197,-2.4509,3.004
13.701000,0.2644,-1.7483,-2.5101,3.070
13.704000,0.2339,-1.7909,-2.5312,3.110
13.762000,0.2058,-1.8215,-2.5523,3.142
13.763000,0.1802,-1.7992,-2.6284,3.190
13.764000,0.1497,-1.8173,-2.7309,3.284
13.764000,0.1072,-1.8207,-2.8384,3.374
13.765000,0.1194,-1.8428,-2.8838,3.424
13.765000,0.0789,-1.8380,-2.9344,3.463
13.766000,0.0526,-1.8228,-3.0048,3.515
13.766000,0.1004,-1.7997,-2.9992,3.499
13.766000,0.0955,-1.7807,-2.9943,3.485
13.767000,0.0931,-1.7537,-2.9972,3.474
13.767000,0.0984,-1.7475,-2.9505,3.431
13.767000,0.0704,-1.7166,-2.9620,3.424
13.769000,0.0236,-1.6706,-2.9504,3.391
13.774000,-0.0135,-1.7555,-2.9776,3.457
13.779000,-0.0552,-1.7726,-2.9600,3.451
13.785000,-0.1037,-1.8031,-2.8930,3.410
13.789000,-0.1090,-1.8090,-2.8770,3.400
13.794000,-0.1354,-1.8332,-2.8879,3.423
13.799000,-0.1405,-1.8470,-2.8757,3.421
13.804000,-0.1600,-1.8288,-2.8284,3.372
13.851000,-0.1389,-1.8550,-2.7199,3.295
13.852000,-0.0987,-1.8541,-2.5048,3.118
13.852000,-0.0439,-1.8236,-2.2691,2.911
13.853000,-0.0169,-1.8119,-1.9982,2.697
13.853000,-0.0108,-1.8336,-1.7829,2.558
13.853000,-0.0417,-1.8339,-1.6849,2.491
13.853000,-0.0837,-1.7844,-1.6632,2.441
13.854000,-0.1587,-1.7354,-1.7010,2.435
13.854000,-0.2859,-1.6891,-1.8676,2.534
13.854000,-0.3987,-1.5591,-1.9169,2.503
13.862000,-0.4637,-1.4721,-2.0452,2.562
13.863000,-0.5744,-1.4350,-2.0924,2.601
13.869000,-0.6330,-1.3567,-2.0396,2.530
13.874000,-0.6875,-1.2711,-1.9679,2.442
13.879000,-0.7262,-1.1588,-1.8488,2.300
13.883000,-0.7299,-1.0537,-1.7443,2.165
13.887000,-0.6894,-0.9199,-1.6520,2.013
13.893000,-0.6813,-0.7980,-1.5956,1.910
13.898000,-0.6939,-0.6856,-1.6424,1.910
13.902000,-0.6603,-0.5131,-1.7013,1.896
