time,ax,ay,az,aT
127.414000,0.3819,-1.3884,-2.4862,2.873
127.415000,0.3750,-1.3871,-2.4817,2.868
127.415000,0.3696,-1.3848,-2.4784,2.863
127.415000,0.3657,-1.3815,-2.4760,2.859
127.416000,0.3632,-1.3775,-2.4745,2.855
127.416000,0.3618,-1.3728,-2.4738,2.852
127.416000,0.3615,-1.3674,-2.4739,2.850
127.417000,0.3625,-1.3614,-2.4746,2.848
127.417000,0.3645,-1.3550,-2.4759,2.846
127.417000,0.3675,-1.3484,-2.4775,2.844
127.417000,0.3712,-1.3419,-2.4791,2.843
127.418000,0.3754,-1.3355,-2.4806,2.842
127.418000,0.3796,-1.3297,-2.4817,2.841
127.418000,0.3836,-1.3245,-2.4823,2.840
127.418000,0.3869,-1.3198,-2.4823,2.838
127.418000,0.3898,-1.3155,-2.4820,2.836
127.419000,0.3923,-1.3118,-2.4811,2.834
127.419000,0.3949,-1.3088,-2.4796,2.831
127.419000,0.3974,-1.3066,-2.4774,2.829
127.422000,0.3996,-1.3051,-2.4746,2.826
127.422000,0.4005,-1.3042,-2.4711,2.823
127.423000,0.4000,-1.3038,-2.4670,2.819
127.423000,0.3977,-1.3037,-2.4624,2.814
127.423000,0.3937,-1.3033,-2.4577,2.810
127.423000,0.3883,-1.3024,-2.4532,2.805
127.424000,0.3822,-1.3009,-2.4492,2.799
127.424000,0.3759,-1.2989,-2.4456,2.795
127.424000,0.3698,-1.2963,-2.4424,2.790
127.424000,0.3641,-1.2932,-2.4398,2.785
127.425000,0.3591,-1.2895,-2.4378,2.781
127.425000,0.3553,0.9674,1.3439,1.694
127.425000,0.5494,1.0489,1.3656,1.807
127.425000,0.6973,1.1457,1.2976,1.866
127.426000,0.7921,1.2175,1.2880,1.941
127.426000,0.7907,1.3050,1.3319,2.025
127.426000,0.6908,1.3677,1.4243,2.092
127.426000,0.5862,1.4582,1.5460,2.205
127.426000,0.4524,1.5069,1.6662,2.292
127.427000,0.3014,1.5711,1.7109,2.342
127.427000,0.1440,1.5738,1.6402,2.278
127.427000,-0.0368,1.5129,1.5449,2.163
127.427000,-0.2062,1.4169,1.5139,2.084
127.427000,-0.2736,1.3245,1.6019,2.096
127.428000,-0.2679,1.2783,1.8114,2.233
127.428000,-0.2372,1.2374,1.8866,2.269
127.428000,-0.1862,1.2689,1.9998,2.376
127.428000,-0.0743,1.4010,2.1655,2.580
127.429000,0.0964,1.5024,2.2830,2.735
127.429000,0.2806,1.4916,2.2926,2.750
127.429000,0.5434,1.3956,2.3352,2.774
127.429000,0.8777,1.2577,2.4774,2.914
127.430000,1.1741,1.1647,2.7521,3.211
127.430000,1.4262,0.9871,3.1017,3.554
127.431000,1.7113,0.7607,3.5050,3.974
127.431000,1.9723,0.6282,4.0363,4.536
127.431000,2.1113,0.4434,4.5740,5.057
127.431000,2.1815,0.2173,5.0134,5.472
127.432000,2.0802,-0.0659,5.3964,5.784
127.432000,1.8391,-0.3969,5.6993,6.002
127.432000,1.5364,-0.6929,5.7438,5.986
127.433000,1.1524,-0.9257,5.6357,5.826
127.433000,0.7324,-1.1553,5.3802,5.551
127.433000,0.1800,-1.4247,4.9032,5.109
127.433000,-0.2691,-1.7097,4.3869,4.716
127.434000,-0.5395,-1.8312,3.9653,4.401
127.434000,-0.7474,-1.8897,3.3012,3.877
127.434000,-0.9388,-1.9542,2.5214,3.325
127.434000,-1.0243,-2.0052,1.8889,2.939
127.435000,-0.9861,-1.9038,1.4130,2.568
127.435000,-0.8227,-1.6955,0.9620,2.116
127.435000,-0.6250,-1.5263,0.6697,1.780
127.435000,-0.3279,-1.3956,0.4877,1.514
127.436000,-0.0524,-1.2696,0.3033,1.306
127.436000,0.2168,-1.2170,0.0801,1.239
127.436000,0.5122,-1.1896,-0.0938,1.299
127.436000,0.7866,-1.1268,-0.2883,1.404
127.437000,1.0483,-1.0212,-0.4606,1.534
127.437000,1.3130,-0.9104,-0.6664,1.731
127.437000,1.5284,-0.7632,-0.9058,1.934
127.437000,1.6667,-0.6962,-1.2034,2.170
127.438000,1.7327,-0.6376,-1.5039,2.381
127.438000,1.7311,-0.5821,-1.7887,2.556
127.438000,1.7503,-0.5125,-2.0176,2.720
127.438000,1.7472,-0.5080,-2.1329,2.804
127.439000,1.6715,-0.5012,-2.2500,2.847
127.439000,1.5683,-0.5235,-2.4213,2.932
127.439000,1.4565,-0.5625,-2.5201,2.965
127.439000,1.3095,-0.5947,-2.5655,2.941
127.440000,1.1771,-0.6151,-2.5457,2.871
127.440000,1.0500,-0.6572,-2.5372,2.823
127.440000,0.9731,-0.7236,-2.4610,2.744
127.440000,0.9035,-0.7734,-2.2576,2.552
127.441000,0.8127,-0.8450,-1.9413,2.268
127.441000,0.7347,-0.9268,-1.4715,1.888
127.441000,0.6939,-1.0336,-1.0656,1.639
127.441000,0.6524,-1.0847,-0.7254,1.459
127.442000,0.5335,-1.2096,-0.4721,1.404
127.442000,0.3179,-1.2722,-0.4009,1.371
127.442000,0.1585,-1.3276,-0.4638,1.415
127.442000,-0.0243,-1.3854,-0.5743,1.500
127.443000,-0.1208,-1.3668,-0.6511,1.519
127.443000,-0.2242,-1.3719,-0.7041,1.558
127.443000,-0.3038,-1.3623,-0.7907,1.604
127.443000,-0.3477,-1.3667,-0.8488,1.646
127.443000,-0.2964,-1.3492,-0.8019,1.597
127.444000,-0.3244,-1.3215,-0.7579,1.558
127.444000,-0.3960,-1.3079,-0.7022,1.536
127.444000,-0.3988,-1.3083,-0.7305,1.551
127.444000,-0.4667,-1.3081,-0.7401,1.574
127.445000,-0.4659,-1.3119,-0.7549,1.584
127.445000,-0.4324,-1.3055,-0.7033,1.545
127.445000,-0.3348,-1.2242,-0.5471,1.382
127.445000,-0.2539,-1.1375,-0.3893,1.229
127.446000,-0.1343,-1.0694,-0.2084,1.098
127.446000,-0.0523,-1.0439,-0.0640,1.047
127.446000,0.0255,-1.0731,-0.0062,1.073
127.446000,0.0463,-1.0922,0.0224,1.093
127.446000,0.0223,-1.1159,0.0508,1.117
127.447000,0.0201,-1.1679,-0.0264,1.168
127.447000,0.0036,-1.1884,0.0350,1.189
127.447000,0.0371,-1.1562,0.1704,1.169
127.447000,0.0610,-1.1332,0.3556,1.189
127.447000,0.0392,-1.1416,0.6150,1.297
127.447000,0.0535,-1.1384,0.7834,1.383
127.448000,0.0268,-1.1646,1.0288,1.554
127.448000,-0.0432,-1.1461,1.1741,1.641
127.448000,-0.1204,-1.1119,1.2244,1.658
127.448000,-0.1670,-1.1168,1.1438,1.607
127.448000,-0.1857,-1.1079,1.1954,1.640
127.449000,-0.2408,-1.0804,1.3860,1.774
127.449000,-0.3199,-1.0750,1.4645,1.845
127.449000,-0.3371,-1.0654,1.5433,1.905
127.449000,-0.3789,-1.0492,1.6632,2.003
127.449000,-0.5241,-1.0745,1.7621,2.129
127.449000,-0.5605,-1.0910,1.7923,2.172
127.450000,-0.5650,-1.1107,1.8209,2.206
127.450000,-0.5089,-1.0859,1.9506,2.290
127.450000,-0.4092,-1.0355,2.1264,2.400
127.450000,-0.2726,-1.0243,2.2499,2.487
127.450000,-0.1108,-1.0090,2.4195,2.624
127.451000,0.0669,-0.9349,2.6087,2.772
127.451000,0.1890,-0.8644,2.8297,2.965
127.451000,0.3590,-0.8074,2.9989,3.126
127.451000,0.4910,-0.7855,3.1166,3.251
127.452000,0.5663,-0.7225,3.1136,3.246
127.452000,0.5566,-0.7020,2.9206,3.055
127.452000,0.4761,-0.6737,2.5928,2.721
127.452000,0.3676,-0.6182,2.1328,2.251
127.452000,0.2283,-0.5854,1.6001,1.719
127.452000,0.1003,-0.5151,0.9993,1.129
127.453000,0.0117,-0.4592,0.5048,0.682
127.453000,-0.0263,-0.3693,0.0393,0.372
127.453000,-0.0234,-0.3049,-0.2253,0.380
127.453000,0.1399,-0.2318,-0.3256,0.423
127.453000,0.3208,-0.0733,-0.3338,0.469
127.453000,0.5890,0.0844,-0.2764,0.656
127.454000,0.8855,0.1983,-0.1440,0.919
127.454000,1.0793,0.3066,0.0108,1.122
127.454000,1.2812,0.3829,0.1687,1.348
127.454000,1.4106,0.4174,0.2965,1.501
127.454000,1.4583,0.3906,0.3012,1.539
127.454000,1.5204,0.3531,0.2450,1.580
127.454000,1.5227,0.3071,0.2139,1.568
127.454000,1.4820,0.2504,0.1340,1.509
127.455000,1.3266,0.1517,0.0697,1.337
127.455000,1.1233,0.0731,-0.0288,1.126
127.455000,0.9312,-0.0286,-0.1279,0.940
127.455000,0.7610,-0.1703,-0.1412,0.792
127.456000,0.5813,-0.2589,-0.0926,0.643
127.456000,0.4086,-0.3568,-0.0322,0.543
127.456000,0.2210,-0.4477,0.0452,0.501
127.456000,0.0501,-0.5960,0.1131,0.609
127.456000,-0.0948,-0.6944,0.1503,0.717
127.456000,-0.1687,-0.7693,0.1067,0.795
127.457000,-0.2338,-0.8540,0.0634,0.888
127.457000,-0.2443,-0.8552,0.1018,0.895
127.457000,-0.2648,-0.8686,0.1070,0.914
127.457000,-0.2301,-0.8535,0.1170,0.892
127.457000,-0.1781,-0.8887,0.1151,0.914
127.457000,-0.1756,-0.8381,0.0727,0.859
127.458000,-0.1630,-0.8475,-0.0268,0.863
127.458000,-0.2048,-0.8669,-0.1715,0.907
127.458000,-0.1963,-0.8527,-0.3614,0.947
127.458000,-0.2168,-0.8027,-0.4841,0.962
127.458000,-0.2375,-0.7265,-0.5061,0.917
127.459000,-0.2630,-0.7269,-0.5234,0.934
127.459000,-0.2910,-0.6770,-0.5311,0.908
127.459000,-0.3650,-0.6609,-0.4740,0.891
127.459000,-0.4635,-0.6642,-0.4549,0.929
127.459000,-0.6225,-0.6319,-0.4332,0.987
127.459000,-0.7393,-0.6214,-0.3275,1.020
127.460000,-0.7926,-0.6111,-0.2098,1.023
127.460000,-0.8684,-0.5749,-0.1181,1.048
127.460000,-0.9137,-0.5772,0.0168,1.081
127.460000,-0.9983,-0.5346,0.1759,1.146
127.460000,-1.0860,-0.4902,0.2828,1.225
127.461000,-1.1651,-0.4250,0.3471,1.288
127.461000,-1.2357,-0.3750,0.4766,1.376
127.461000,-1.2476,-0.2876,0.5087,1.378
127.461000,-1.2461,-0.1844,0.4865,1.350
127.461000,-1.2676,-0.1253,0.3266,1.315
127.461000,-1.2974,-0.0336,0.2586,1.323
127.462000,-1.3668,0.0670,0.0932,1.372
127.462000,-1.3852,0.1099,-0.1554,1.398
127.462000,-1.3647,0.2008,-0.3462,1.422
127.462000,-1.2507,0.3113,-0.4653,1.370
127.462000,-1.1003,0.4132,-0.5083,1.281
127.463000,-0.9493,0.5735,-0.4228,1.187
127.463000,-0.7061,0.6992,-0.2740,1.031
127.463000,-0.4345,0.7907,0.0072,0.902
127.463000,-0.1479,0.9339,0.3297,1.001
127.463000,0.1062,1.0018,0.6791,1.215
127.463000,0.3144,1.0302,1.0078,1.475
127.464000,0.5225,1.0859,1.3398,1.802
127.464000,0.6211,1.0584,1.6537,2.059
127.464000,0.6560,0.9979,1.8398,2.193
127.464000,0.6438,0.9019,1.9867,2.275
127.464000,0.5823,0.7581,2.0973,2.305
127.465000,0.4829,0.6502,2.1357,2.284
127.465000,0.2901,0.5109,2.1527,2.231
127.465000,0.1208,0.3426,2.1913,2.221
127.465000,-0.0038,0.2407,2.2040,2.217
127.465000,-0.0959,0.0998,2.2603,2.265
127.466000,-0.2106,-0.0564,2.2959,2.306
127.466000,-0.3337,-0.2067,2.2367,2.271
127.466000,-0.4702,-0.3057,2.0855,2.160
127.466000,-0.6011,-0.3992,1.8379,1.974
127.466000,-0.7199,-0.4893,1.5798,1.804
127.467000,-0.7736,-0.6163,1.3803,1.698
127.467000,-0.8151,-0.6724,1.0600,1.497
127.467000,-0.7630,-0.7271,0.7075,1.269
127.467000,-0.7185,-0.7082,0.3487,1.067
127.467000,-0.7081,-0.6944,0.0553,0.993
127.467000,-0.6815,-0.6568,-0.1179,0.954
127.467000,-0.6100,-0.6290,-0.1569,0.890
127.468000,-0.4907,-0.5964,-0.1384,0.785
127.468000,-0.4501,-0.5521,-0.1748,0.733
127.468000,-0.5000,-0.5317,-0.2088,0.759
127.468000,-0.5710,-0.5572,-0.2879,0.848
127.468000,-0.6993,-0.5876,-0.4432,1.015
127.468000,-0.8324,-0.5536,-0.6292,1.181
127.469000,-0.8896,-0.5721,-0.7815,1.315
127.469000,-0.9430,-0.5425,-0.8332,1.370
127.469000,-1.0331,-0.5150,-0.8109,1.411
127.469000,-1.0285,-0.4846,-0.7459,1.360
127.469000,-1.0102,-0.4159,-0.7049,1.300
127.469000,-1.0189,-0.3424,-0.6640,1.263
127.469000,-1.0520,-0.2259,-0.6541,1.259
127.469000,-1.0670,-0.0976,-0.7111,1.286
127.470000,-1.0184,-0.0125,-0.8110,1.302
127.470000,-0.9543,0.0608,-0.9538,1.351
127.470000,-0.8676,0.0870,-1.0755,1.385
127.470000,-0.7555,0.1095,-1.1357,1.368
127.471000,-0.6252,0.1381,-1.1851,1.347
127.471000,-0.4283,0.2259,-1.1546,1.252
127.471000,-0.2150,0.3442,-1.0492,1.125
127.471000,-0.0111,0.4596,-0.9170,1.026
127.471000,0.1958,0.5503,-0.7006,0.912
127.471000,0.4036,0.5926,-0.4910,0.869
127.471000,0.6290,0.5720,-0.2019,0.874
127.472000,0.8773,0.5030,0.2119,1.033
127.472000,1.0917,0.4593,0.6357,1.344
127.472000,1.2440,0.3619,1.0076,1.641
127.472000,1.2585,0.2436,1.4260,1.917
127.472000,1.1879,0.0827,1.6976,2.074
127.472000,1.0918,-0.0998,1.9354,2.224
127.472000,0.8721,-0.2660,2.1110,2.299
127.473000,0.6071,-0.4520,2.2129,2.339
127.473000,0.3389,-0.6414,2.2680,2.381
127.473000,0.0626,-0.8323,2.2047,2.357
127.473000,-0.1890,-0.9651,2.0309,2.256
127.473000,-0.4118,-1.0783,1.8282,2.162
127.473000,-0.6715,-1.2248,1.5368,2.077
127.474000,-0.8972,-1.3517,1.3220,2.093
127.474000,-1.0363,-1.3898,1.0497,2.027
127.474000,-1.0512,-1.4370,0.7509,1.932
127.474000,-1.0208,-1.3951,0.4231,1.780
127.474000,-0.9356,-1.3166,0.1642,1.624
127.474000,-0.8363,-1.2275,-0.0668,1.487
127.475000,-0.7080,-1.1275,-0.3134,1.368
127.475000,-0.6626,-0.9876,-0.6044,1.334
127.475000,-0.5969,-0.8816,-0.8542,1.365
127.475000,-0.5564,-0.8139,-1.0964,1.474
127.475000,-0.5841,-0.7817,-1.1735,1.526
127.475000,-0.5863,-0.7275,-1.3754,1.663
127.476000,-0.6134,-0.6320,-1.5703,1.800
127.476000,-0.6440,-0.5712,-1.6488,1.860
127.476000,-0.6446,-0.5498,-1.7618,1.955
127.476000,-0.6444,-0.5124,-1.8855,2.057
127.476000,-0.5887,-0.4755,-1.8384,1.988
127.476000,-0.3252,-0.3513,-1.5486,1.621
127.477000,-0.0122,-0.0757,-1.1998,1.202
127.477000,0.1909,0.1619,-0.9021,0.936
127.477000,0.3548,0.2061,-0.7032,0.814
127.477000,0.4773,0.0930,-0.3927,0.625
127.477000,0.8002,0.2170,-0.1210,0.838
127.477000,1.0080,0.3627,0.0521,1.073
127.477000,1.0876,0.3101,0.1577,1.142
127.477000,1.2327,0.3083,0.4109,1.335
127.478000,1.3077,0.4263,0.5128,1.468
127.478000,1.2698,0.4107,0.5064,1.427
127.478000,1.2128,0.3242,0.4730,1.342
127.478000,1.1821,0.2387,0.5462,1.324
127.478000,1.0983,0.1925,0.6734,1.303
127.478000,0.9926,0.1422,0.7710,1.265
127.478000,0.8721,0.0445,0.8371,1.210
127.479000,0.6885,-0.0243,0.9363,1.162
127.479000,0.5348,-0.0813,1.0189,1.154
127.479000,0.3912,-0.1820,1.0278,1.115
127.479000,0.2309,-0.2454,1.0496,1.102
127.479000,0.0918,-0.3626,1.0080,1.075
127.479000,-0.0460,-0.4381,0.9151,1.016
127.479000,-0.1899,-0.4671,0.7400,0.896
127.479000,-0.2492,-0.4739,0.5643,0.778
127.480000,-0.2841,-0.4701,0.3208,0.636
127.480000,-0.3281,-0.4579,0.0525,0.566
127.480000,-0.2662,-0.3676,-0.2673,0.527
127.480000,-0.1582,-0.3115,-0.5359,0.640
127.480000,-0.0588,-0.2721,-0.7874,0.835
127.480000,0.1041,-0.1941,-1.0077,1.031
127.480000,0.2591,-0.0869,-1.1732,1.205
127.481000,0.3778,-0.0172,-1.2699,1.325
127.481000,0.4920,0.0607,-1.2789,1.372
127.481000,0.5589,0.1204,-1.2506,1.375
127.481000,0.6387,0.1428,-1.1659,1.337
127.481000,0.7648,0.1398,-1.3166,1.529
127.481000,0.8625,0.1165,-1.3796,1.631
127.481000,0.9483,0.2092,-1.3337,1.650
127.481000,1.0369,0.3793,-1.2121,1.640
127.482000,1.1740,0.4974,-1.1107,1.691
127.482000,1.3091,0.5970,-0.9932,1.748
127.482000,1.3274,0.6371,-0.8524,1.701
127.482000,1.3558,0.6584,-0.7242,1.672
127.482000,1.3084,0.7039,-0.5534,1.585
127.482000,1.2166,0.6516,-0.3807,1.432
127.482000,1.1308,0.5636,-0.2444,1.287
127.483000,0.9480,0.4929,-0.1421,1.078
127.483000,0.8284,0.4488,-0.0426,0.943
127.483000,0.7026,0.3646,0.1113,0.799
127.483000,0.5612,0.3216,0.2717,0.702
127.483000,0.4354,0.2934,0.3790,0.648
127.483000,0.4109,0.2748,0.4645,0.678
127.483000,0.3654,0.2755,0.5235,0.695
127.483000,0.2315,0.2521,0.5968,0.688
127.484000,0.1958,0.2094,0.7062,0.762
127.484000,0.1862,0.1925,0.8303,0.872
127.484000,0.1880,0.1702,0.9405,0.974
127.484000,0.1513,0.1470,1.0393,1.061
127.484000,0.1526,0.1302,1.0528,1.072
127.484000,0.1200,0.1339,1.0360,1.051
127.484000,0.1351,0.1461,0.9627,0.983
127.485000,0.1833,0.1478,0.8832,0.914
127.485000,0.1787,0.1510,0.7447,0.781
127.485000,0.2123,0.1655,0.5902,0.649
127.485000,0.1887,0.1678,0.4697,0.533
127.485000,0.2036,0.1555,0.3039,0.397
127.485000,0.2424,0.1577,0.1670,0.334
127.485000,0.2981,0.2175,0.1257,0.390
127.486000,0.3614,0.2177,0.1439,0.446
127.486000,0.3896,0.2061,0.1429,0.463
127.486000,0.3778,0.1944,0.1586,0.454
127.486000,0.3213,0.1467,0.0787,0.362
127.486000,0.1791,0.0844,-0.0583,0.206
127.486000,0.0946,0.0531,-0.2714,0.292
127.486000,0.0286,0.0288,-0.4577,0.459
127.486000,-0.0477,0.0474,-0.5527,0.557
127.486000,-0.0459,0.0444,-0.6308,0.634
127.487000,-0.0354,0.0486,-0.7422,0.745
127.487000,-0.0402,0.0482,-0.8894,0.892
127.487000,-0.1271,0.0527,-0.9791,0.989
127.487000,-0.1623,0.0672,-1.0738,1.088
127.487000,-0.1696,0.0656,-1.1759,1.190
127.487000,-0.1827,0.0574,-1.2593,1.274
127.487000,-0.1297,0.1052,-1.2524,1.263
127.488000,-0.0652,0.1422,-1.1197,1.131
127.488000,0.0039,0.1373,-0.9189,0.929
127.488000,0.0973,0.1597,-0.6786,0.704
127.488000,0.2082,0.1949,-0.4202,0.508
127.488000,0.2382,0.2088,-0.2388,0.397
127.488000,0.2090,0.1822,-0.0938,0.293
127.488000,0.1205,0.1795,-0.0613,0.225
127.488000,0.0251,0.1812,0.0312,0.186
127.489000,-0.0466,0.1444,0.0833,0.173
127.489000,-0.1496,0.1025,0.1117,0.213
127.489000,-0.2432,0.0527,0.1789,0.307
127.489000,-0.3780,0.0144,0.1940,0.425
127.489000,-0.4846,-0.0052,0.1688,0.513
127.489000,-0.5870,-0.0781,0.0678,0.596
127.489000,-0.6257,-0.0700,0.0367,0.631
127.489000,-0.6608,-0.0264,0.0179,0.662
127.489000,-0.6657,0.0096,0.0713,0.670
127.490000,-0.6209,0.0334,0.1343,0.636
127.490000,-0.5452,0.0642,0.1760,0.576
127.490000,-0.4599,0.0900,0.2559,0.534
127.490000,-0.4820,0.0775,0.3310,0.590
127.490000,-0.5587,0.0888,0.3247,0.652
127.490000,-0.5632,0.1068,0.2399,0.621
127.490000,-0.6205,0.1342,0.1266,0.647
127.491000,-0.6492,0.1495,-0.0174,0.666
127.491000,-0.6902,0.1505,-0.0729,0.710
127.491000,-0.6835,0.1255,-0.1142,0.704
127.491000,-0.6819,0.1364,-0.1888,0.721
127.491000,-0.6523,0.1810,-0.2253,0.713
127.491000,-0.6207,0.2139,-0.2500,0.702
127.491000,-0.5896,0.2543,-0.1792,0.667
127.491000,-0.4753,0.2781,-0.0967,0.559
127.492000,-0.3537,0.3260,-0.0407,0.483
127.492000,-0.2348,0.3475,0.1085,0.433
127.492000,-0.1730,0.3689,0.1762,0.444
127.492000,-0.1110,0.3926,0.2749,0.492
127.492000,-0.0699,0.3872,0.3284,0.512
127.492000,-0.0258,0.4005,0.3772,0.551
127.492000,-0.0216,0.4135,0.3330,0.531
127.493000,-0.0549,0.3948,0.3585,0.536
127.493000,-0.1616,0.4212,0.2934,0.538
127.493000,-0.2579,0.3683,0.1497,0.474
127.493000,-0.3727,0.3247,0.0613,0.498
127.493000,-0.4441,0.2647,-0.0008,0.517
127.493000,-0.5152,0.2428,-0.0556,0.572
127.493000,-0.5790,0.2475,-0.0817,0.635
127.493000,-0.6210,0.2045,-0.1774,0.677
127.493000,-0.6346,0.1905,-0.3089,0.731
127.494000,-0.6151,0.1910,-0.4069,0.762
127.494000,-0.5890,0.2397,-0.4094,0.756
127.494000,-0.4729,0.2959,-0.2638,0.617
127.494000,-0.4122,0.3591,-0.1518,0.567
127.494000,-0.3730,0.3698,0.0030,0.525
127.494000,-0.3357,0.2991,0.0237,0.450
127.494000,-0.3338,0.2333,0.0371,0.409
127.494000,-0.3317,0.2177,0.0291,0.398
127.494000,-0.2840,0.2309,-0.0150,0.366
127.495000,-0.2243,0.2828,0.0530,0.365
127.495000,-0.1188,0.3514,0.1831,0.414
127.495000,-0.0485,0.4057,0.2459,0.477
127.495000,0.0348,0.4169,0.4352,0.604
127.495000,0.0451,0.3538,0.5884,0.688
127.495000,0.0233,0.3216,0.7344,0.802
127.495000,-0.0452,0.2960,0.8135,0.867
127.496000,-0.1942,0.2314,0.7808,0.837
127.496000,-0.3975,0.1590,0.7462,0.860
127.496000,-0.4976,0.1145,0.5975,0.786
127.496000,-0.5933,0.0456,0.4568,0.750
127.496000,-0.6346,-0.0141,0.3477,0.724
127.496000,-0.6289,-0.0072,0.2535,0.678
127.496000,-0.6195,0.0067,0.2458,0.666
127.496000,-0.5797,0.0228,0.2287,0.624
127.497000,-0.5144,0.0460,0.2524,0.575
127.497000,-0.4402,0.0833,0.3337,0.559
127.497000,-0.3543,0.0726,0.3648,0.514
127.497000,-0.3091,0.0903,0.3483,0.474
127.497000,-0.2398,0.0838,0.3248,0.412
127.497000,-0.1368,0.0461,0.2249,0.267
127.497000,-0.0551,0.0684,0.1753,0.196
127.498000,0.0270,0.0836,0.1350,0.161
127.498000,0.0882,0.1159,0.0850,0.169
127.498000,0.1312,0.1341,0.0824,0.205
127.498000,0.1487,0.1237,0.0629,0.203
127.498000,0.1717,0.1040,0.0959,0.222
127.499000,0.1546,0.1178,0.0737,0.208
127.499000,0.1499,0.1005,0.0563,0.189
127.499000,0.1049,0.0473,0.0485,0.125
127.499000,-0.0213,0.0131,-0.0261,0.036
127.499000,-0.1164,-0.0784,-0.0528,0.150
127.499000,-0.1999,-0.1244,-0.1176,0.263
127.499000,-0.2263,-0.1319,-0.2207,0.343
127.499000,-0.2103,-0.1416,-0.2114,0.330
127.500000,-0.1900,-0.1630,-0.1664,0.301
127.500000,-0.1772,-0.1723,-0.1741,0.302
127.500000,-0.1287,-0.1407,-0.1676,0.254
127.500000,-0.0543,-0.1833,-0.1779,0.261
127.500000,-0.0447,-0.2040,-0.1596,0.263
127.500000,0.0057,-0.1982,-0.0985,0.221
127.500000,0.0181,-0.1757,-0.0686,0.189
127.500000,0.0662,-0.1604,-0.1056,0.203
127.501000,0.1573,-0.1547,-0.1761,0.282
127.501000,0.2219,-0.0797,-0.2608,0.352
127.501000,0.2217,-0.0164,-0.2619,0.344
127.501000,0.2694,0.0015,-0.2225,0.349
127.501000,0.3102,-0.0187,-0.1786,0.358
127.501000,0.2507,-0.0195,-0.1635,0.300
127.501000,0.2203,-0.0394,-0.1343,0.261
127.501000,0.1733,-0.0282,-0.1768,0.249
127.502000,0.1359,-0.0552,-0.2098,0.256
127.502000,0.0673,-0.0725,-0.2977,0.314
127.502000,0.0104,-0.0825,-0.3904,0.399
127.502000,-0.0493,-0.1066,-0.4377,0.453
127.502000,-0.0541,-0.1733,-0.4494,0.485
127.502000,-0.1048,-0.1367,-0.5235,0.551
127.502000,-0.1248,-0.1333,-0.5404,0.570
127.502000,-0.0424,-0.1270,-0.5122,0.529
127.503000,-0.0490,-0.1348,-0.4604,0.482
127.503000,-0.0080,-0.1162,-0.4684,0.483
127.503000,0.0421,-0.0593,-0.4525,0.458
127.503000,0.0967,-0.0478,-0.4152,0.429
127.503000,0.1317,-0.0458,-0.3947,0.419
127.503000,0.1738,0.0065,-0.3862,0.424
127.503000,0.1849,-0.0035,-0.4495,0.486
127.503000,0.2054,0.0319,-0.4767,0.520
127.503000,0.1710,0.0290,-0.5326,0.560
127.504000,0.1365,0.0620,-0.6005,0.619
127.504000,0.1113,0.1022,-0.5941,0.613
127.504000,0.0810,0.0922,-0.5591,0.572
127.504000,0.1174,0.1134,-0.5816,0.604
127.504000,0.1512,0.1346,-0.6088,0.642
127.504000,0.1627,0.1823,-0.6529,0.697
127.504000,0.1667,0.2063,-0.6253,0.679
127.504000,0.1420,0.2210,-0.5980,0.653
127.505000,0.1268,0.2074,-0.5807,0.630
127.505000,0.1235,0.2277,-0.5685,0.625
127.505000,0.1654,0.2484,-0.4897,0.574
127.505000,0.1810,0.2530,-0.3493,0.468
127.505000,0.1753,0.2675,-0.1305,0.345
127.505000,0.1846,0.2727,0.0232,0.330
127.505000,0.2232,0.2923,0.1671,0.404
127.505000,0.2169,0.2759,0.2581,0.436
127.506000,0.1705,0.2737,0.3660,0.488
127.506000,0.1175,0.2470,0.3976,0.483
127.506000,0.0362,0.2341,0.3602,0.431
127.506000,-0.0236,0.2374,0.2804,0.368
127.506000,-0.1145,0.2018,0.1820,0.295
127.506000,-0.2323,0.1587,0.0912,0.296
127.506000,-0.2669,0.1562,0.0104,0.309
127.506000,-0.2782,0.1534,-0.0892,0.330
127.506000,-0.2542,0.1958,-0.1024,0.337
127.506000,-0.1807,0.2239,-0.0630,0.295
127.507000,-0.1391,0.2495,-0.0665,0.293
127.507000,-0.0738,0.3229,0.0447,0.334
127.507000,-0.0155,0.3412,0.1391,0.369
127.507000,0.0072,0.3210,0.1737,0.365
127.507000,0.0402,0.3127,0.1437,0.347
127.507000,0.0352,0.3188,0.1304,0.346
127.507000,0.0234,0.3463,0.1507,0.378
127.507000,0.0696,0.3833,0.2307,0.453
127.507000,0.0711,0.3676,0.2341,0.442
127.508000,0.0418,0.3230,0.2041,0.384
127.508000,-0.0423,0.3091,0.1721,0.356
127.508000,-0.0523,0.3140,0.1189,0.340
127.508000,-0.0264,0.3020,0.0540,0.308
127.508000,-0.0530,0.2636,-0.1041,0.288
127.508000,-0.0821,0.2255,-0.1641,0.291
127.508000,-0.0731,0.2715,-0.1812,0.335
127.508000,-0.0714,0.2890,-0.0958,0.313
127.508000,-0.0504,0.2806,0.0108,0.285
127.509000,-0.0601,0.2698,0.0861,0.290
127.509000,-0.0361,0.2591,0.1326,0.293
127.509000,-0.0503,0.2577,0.1552,0.305
127.509000,-0.0306,0.2346,0.1110,0.261
127.509000,-0.0275,0.2689,0.1339,0.302
127.509000,-0.0268,0.2792,0.0994,0.298
127.509000,-0.0259,0.2799,0.0529,0.286
127.509000,-0.0106,0.2951,0.0542,0.300
127.509000,-0.0311,0.2960,0.1008,0.314
127.509000,-0.0058,0.2682,0.1497,0.307
127.510000,-0.0018,0.2500,0.2177,0.332
127.510000,-0.0094,0.2318,0.3407,0.412
127.510000,-0.0574,0.2276,0.3991,0.463
127.510000,-0.0953,0.1823,0.4435,0.489
127.510000,-0.2002,0.1316,0.3640,0.436
127.510000,-0.2882,0.0829,0.2754,0.407
127.510000,-0.3357,0.0170,0.2192,0.401
127.510000,-0.3454,0.0083,0.1282,0.368
127.511000,-0.3790,-0.0076,0.0617,0.384
127.511000,-0.3914,-0.0140,0.0340,0.393
127.511000,-0.3731,0.0105,-0.0884,0.384
127.511000,-0.3385,0.0304,-0.1421,0.368
127.511000,-0.2877,0.0575,-0.1837,0.346
127.511000,-0.2420,0.0561,-0.2183,0.331
127.511000,-0.1462,0.0694,-0.1503,0.221
127.511000,-0.0791,0.1021,-0.1041,0.166
127.511000,-0.0238,0.1014,-0.0127,0.105
127.512000,0.0102,0.1247,0.0690,0.143
127.512000,-0.0154,0.1405,0.0456,0.149
127.512000,-0.0384,0.1108,-0.0089,0.118
127.512000,-0.0518,0.1215,-0.0894,0.159
127.512000,-0.0441,0.1227,-0.1387,0.190
127.512000,-0.0581,0.1094,-0.0611,0.138
127.512000,-0.0770,0.0889,-0.0911,0.149
127.512000,-0.0695,0.0779,-0.1234,0.162
127.512000,-0.0381,0.0884,-0.0815,0.126
127.513000,-0.0713,0.0895,-0.1379,0.179
127.513000,-0.0782,0.0907,-0.1034,0.158
127.513000,-0.0925,0.0898,-0.0954,0.160
127.513000,-0.0917,0.0788,-0.0538,0.132
127.513000,-0.0456,0.0969,0.0015,0.107
127.513000,-0.0280,0.1031,-0.0056,0.107
127.513000,-0.0318,0.0786,0.0631,0.106
127.513000,-0.0520,0.0807,0.0955,0.135
127.513000,-0.1145,0.0616,0.1582,0.205
127.514000,-0.1312,0.0403,0.2229,0.262
127.514000,-0.1430,0.0263,0.2513,0.290
127.514000,-0.1379,0.0052,0.3080,0.338
127.514000,-0.1755,0.0124,0.3361,0.379
127.514000,-0.1489,0.0525,0.3832,0.414
127.514000,-0.1253,0.0325,0.3566,0.379
127.514000,-0.0641,0.0549,0.3212,0.332
127.514000,-0.0487,0.1004,0.3648,0.381
127.514000,0.0044,0.1451,0.3182,0.350
127.515000,0.0309,0.1630,0.2650,0.313
127.515000,-0.0114,0.1735,0.2267,0.286
127.515000,-0.0698,0.1458,0.1697,0.234
127.515000,-0.0535,0.1304,0.1630,0.215
127.515000,-0.1079,0.1107,0.1084,0.189
127.515000,-0.1135,0.0535,0.1157,0.171
127.515000,-0.1397,0.0375,0.0895,0.170
127.515000,-0.2058,0.0408,0.0561,0.217
127.515000,-0.2239,0.0084,0.0088,0.224
127.515000,-0.2109,0.0167,-0.0239,0.213
127.516000,-0.2241,-0.0300,-0.0419,0.230
127.516000,-0.2351,-0.0645,-0.0809,0.257
127.516000,-0.2276,-0.0563,-0.1621,0.285
127.516000,-0.2231,-0.0581,-0.2066,0.310
127.516000,-0.2100,-0.0625,-0.2766,0.353
127.516000,-0.1743,-0.0268,-0.3195,0.365
127.516000,-0.1109,-0.0013,-0.3428,0.360
127.516000,-0.0985,-0.0118,-0.4061,0.418
127.516000,-0.0439,0.0063,-0.4403,0.443
127.517000,-0.0327,0.0151,-0.4538,0.455
127.517000,-0.0428,0.0121,-0.5202,0.522
127.517000,-0.0144,0.0479,-0.6131,0.615
127.517000,0.0118,0.0770,-0.7232,0.727
127.517000,0.0189,0.0616,-0.7311,0.734
127.517000,0.0742,0.0972,-0.6798,0.691
127.517000,0.1297,0.1429,-0.5598,0.592
127.517000,0.1760,0.1677,-0.4716,0.531
127.517000,0.1818,0.1569,-0.3765,0.447
127.518000,0.1831,0.1439,-0.3678,0.435
127.518000,0.1963,0.1189,-0.2730,0.357
127.518000,0.1592,0.1178,-0.1902,0.275
127.518000,0.1292,0.0924,-0.0976,0.186
127.518000,0.1038,0.0931,-0.0576,0.151
127.518000,0.0450,0.0958,-0.0222,0.108
127.518000,0.0387,0.0695,-0.0510,0.095
127.518000,0.0250,0.0357,-0.0962,0.106
127.518000,-0.0128,0.0375,-0.1531,0.158
127.518000,-0.0438,0.0390,-0.1737,0.183
127.519000,-0.0801,0.0163,-0.2563,0.269
127.519000,-0.1120,-0.0017,-0.3481,0.366
127.519000,-0.1010,0.0307,-0.4878,0.499
127.519000,-0.1407,0.0058,-0.5796,0.596
127.519000,-0.0970,0.0438,-0.5833,0.593
127.519000,-0.0079,0.0775,-0.6066,0.612
127.519000,0.0215,0.1046,-0.5897,0.599
127.519000,0.0367,0.1346,-0.5565,0.574
127.520000,0.1023,0.1437,-0.4690,0.501
127.520000,0.0985,0.1556,-0.3771,0.420
127.520000,0.1069,0.1895,-0.2857,0.359
127.520000,0.1061,0.1947,-0.2232,0.315
127.520000,0.0744,0.2001,-0.1705,0.273
127.520000,0.0740,0.1912,-0.1443,0.251
127.520000,0.0641,0.1799,-0.1132,0.222
127.520000,0.0589,0.1708,-0.0152,0.181
127.520000,0.0726,0.1617,0.0709,0.191
127.521000,0.0431,0.1690,0.0974,0.200
127.521000,0.0303,0.1735,0.1504,0.232
127.521000,0.0388,0.1777,0.1846,0.259
127.521000,0.0088,0.1481,0.1710,0.226
127.521000,-0.0377,0.1351,0.2510,0.288
127.521000,-0.1271,0.1126,0.2304,0.286
127.522000,-0.1850,0.0972,0.1644,0.266
127.522000,-0.2525,0.0414,-0.0045,0.256
127.522000,-0.4091,-0.0094,-0.1781,0.446
127.522000,-0.4684,-0.0359,-0.1077,0.482
127.522000,-0.3421,0.0288,0.0341,0.345
127.522000,-0.0729,0.1270,0.2260,0.269
127.522000,0.2341,0.1817,0.3390,0.450
127.522000,0.3383,0.2525,0.3996,0.581
127.522000,0.2782,0.2822,0.3983,0.562
127.523000,0.1426,0.2753,0.3902,0.498
127.523000,0.0534,0.1820,0.3393,0.389
127.523000,0.0271,0.1219,0.2720,0.299
127.523000,0.0850,0.0951,0.2671,0.296
127.523000,0.0762,0.0656,0.2098,0.233
127.523000,0.0124,0.0933,0.1361,0.165
127.523000,-0.0226,0.1136,-0.0402,0.123
127.523000,-0.0722,0.1386,-0.2067,0.259
127.523000,-0.0720,0.1159,-0.2845,0.316
127.524000,-0.0724,0.0839,-0.3122,0.331
127.524000,0.0104,0.0642,-0.2803,0.288
127.524000,0.1428,0.0903,-0.1434,0.222
127.524000,0.2559,0.1450,-0.0019,0.294
127.524000,0.3308,0.1949,0.0892,0.394
127.524000,0.3273,0.1943,0.1611,0.413
127.524000,0.3195,0.1553,0.1399,0.382
127.524000,0.2767,0.1948,0.1093,0.356
127.524000,0.1891,0.1647,0.0526,0.256
127.525000,0.1354,0.1082,-0.0805,0.191
127.525000,0.0914,0.0831,-0.2183,0.251
127.525000,0.0022,0.0438,-0.3465,0.349
127.525000,0.0062,-0.0000,-0.3983,0.398
127.525000,-0.0114,0.0188,-0.4263,0.427
127.525000,-0.0079,0.0117,-0.4068,0.407
127.525000,-0.0380,0.0121,-0.3564,0.359
127.525000,-0.0133,0.0199,-0.3040,0.305
127.526000,-0.0079,0.0328,-0.1872,0.190
127.526000,0.0233,0.0145,-0.1208,0.124
127.526000,0.0306,0.0251,-0.0258,0.047
127.526000,0.0332,0.0308,0.0619,0.077
127.526000,0.0765,0.0267,0.1592,0.179
127.526000,0.1009,0.0366,0.2065,0.233
127.526000,0.0872,0.0271,0.1416,0.168
127.526000,0.0474,0.0244,0.0913,0.106
127.526000,-0.0091,0.0167,0.0270,0.033
127.526000,-0.0631,-0.0318,-0.0539,0.089
127.527000,-0.1409,-0.0613,-0.1155,0.192
127.527000,-0.1827,-0.0763,-0.2535,0.322
127.527000,-0.2226,-0.1032,-0.3746,0.448
127.527000,-0.2058,-0.0772,-0.4431,0.495
127.527000,-0.1539,-0.0294,-0.4185,0.447
127.527000,-0.0259,0.0474,-0.2961,0.301
127.527000,0.0519,0.0621,-0.1669,0.185
127.527000,0.1253,0.0961,-0.1264,0.202
127.527000,0.1152,0.0774,-0.0621,0.152
127.528000,0.0793,0.1042,-0.0912,0.160
127.528000,0.0173,0.0495,-0.1178,0.129
127.528000,-0.0301,0.0904,-0.1873,0.210
127.528000,-0.0442,0.0860,-0.2233,0.243
127.528000,-0.0371,0.0817,-0.2068,0.225
127.528000,-0.0370,0.0561,-0.1450,0.160
127.528000,-0.0201,0.0594,-0.1193,0.135
127.528000,-0.0082,0.0579,-0.0673,0.089
127.528000,-0.0841,0.0371,-0.0106,0.092
127.529000,-0.1263,0.0354,-0.0113,0.132
127.529000,-0.1825,0.0312,-0.0213,0.186
127.529000,-0.1627,0.0528,-0.0548,0.180
127.529000,-0.1103,0.0554,-0.0666,0.140
127.529000,-0.0870,0.0389,-0.0902,0.131
127.529000,0.0025,0.0583,-0.0638,0.086
127.529000,0.0913,0.1107,-0.0019,0.144
127.529000,0.1491,0.1486,0.0616,0.219
127.529000,0.1998,0.1815,0.1102,0.292
127.530000,0.2078,0.1999,0.1513,0.326
127.530000,0.1736,0.1777,0.2134,0.327
127.530000,0.1165,0.2005,0.1802,0.294
127.530000,0.0416,0.1568,0.0522,0.170
127.530000,0.0198,0.1110,-0.0012,0.113
127.530000,-0.0565,0.0968,-0.0519,0.124
127.530000,-0.1014,0.0733,-0.0311,0.129
127.530000,-0.1226,0.0618,0.0133,0.138
127.530000,-0.0369,0.1000,0.0576,0.121
127.531000,0.0003,0.0830,0.0685,0.108
127.531000,-0.0321,0.1371,0.0867,0.165
127.531000,-0.0001,0.1480,0.0953,0.176
127.531000,0.0459,0.1182,0.1159,0.172
127.531000,-0.0083,0.0956,0.1364,0.167
127.531000,-0.0642,0.0873,0.1118,0.156
127.531000,-0.0932,0.0719,0.0707,0.137
127.531000,-0.1100,0.0398,-0.0387,0.123
127.531000,-0.1100,0.0603,-0.1520,0.197
127.531000,-0.1270,0.0760,-0.1766,0.230
127.532000,-0.1535,0.0585,-0.2035,0.262
127.532000,-0.1823,0.0390,-0.2469,0.309
127.532000,-0.1565,0.0270,-0.2427,0.290
127.532000,-0.0906,0.0414,-0.2458,0.265
127.532000,-0.0513,0.0416,-0.2252,0.235
127.532000,0.0231,0.0776,-0.1907,0.207
127.532000,0.1065,0.1278,-0.0973,0.193
127.532000,0.1512,0.1228,0.0619,0.204
127.533000,0.1649,0.1413,0.0585,0.225
127.533000,0.1645,0.1238,0.0624,0.215
127.533000,0.0503,0.0777,0.0190,0.095
127.533000,-0.0320,0.0532,-0.0690,0.093
127.533000,-0.1021,0.0335,-0.1774,0.207
127.533000,-0.1173,0.0210,-0.2469,0.274
127.533000,-0.1115,0.0728,-0.3064,0.334
127.533000,-0.1110,0.0460,-0.3608,0.380
127.533000,-0.0302,0.0577,-0.3911,0.396
127.533000,0.0119,0.0696,-0.3407,0.348
127.534000,0.0727,0.0842,-0.2697,0.292
127.534000,0.1143,0.1205,-0.1783,0.244
127.534000,0.1652,0.0926,-0.0594,0.199
127.534000,0.1925,0.0629,0.0725,0.215
127.534000,0.1726,0.0572,0.0940,0.205
127.534000,0.1320,0.0277,0.0964,0.166
127.534000,0.0612,0.0079,0.0870,0.107
127.534000,0.0359,-0.0096,0.0350,0.051
127.534000,-0.0036,-0.0176,0.0240,0.030
127.535000,-0.0290,0.0123,0.1082,0.113
127.535000,-0.0449,0.0322,0.1539,0.164
127.535000,-0.0204,0.0587,0.1924,0.202
127.535000,0.0274,0.0681,0.1287,0.148
127.535000,0.0226,0.0629,0.1300,0.146
127.535000,-0.0059,0.0456,0.1931,0.199
127.535000,-0.0197,0.0234,0.2038,0.206
127.535000,0.0000,0.0414,0.1433,0.149
127.535000,-0.0135,0.0187,0.0407,0.047
127.535000,-0.0384,0.0033,-0.1133,0.120
127.536000,-0.0988,0.0286,-0.2755,0.294
127.536000,-0.1164,0.0134,-0.3368,0.357
127.536000,-0.1363,0.0557,-0.3742,0.402
127.536000,-0.1183,0.0697,-0.3854,0.409
127.536000,-0.0794,0.0981,-0.3897,0.410
127.536000,-0.0718,0.0887,-0.3493,0.367
127.536000,-0.0407,0.0846,-0.2501,0.267
127.536000,-0.0242,0.0807,-0.1210,0.147
127.536000,0.0133,0.0984,-0.0407,0.107
127.537000,0.0221,0.0875,0.0367,0.097
127.537000,0.0263,0.0954,0.1254,0.160
127.537000,0.0450,0.0746,0.1683,0.190
127.537000,-0.0314,0.0632,0.1210,0.140
127.537000,-0.0455,0.0397,0.0315,0.068
127.537000,-0.0288,0.0257,0.0331,0.051
127.537000,-0.0527,0.0095,0.0894,0.104
127.537000,-0.0433,0.0481,0.1261,0.142
127.537000,0.0184,0.0530,0.1744,0.183
127.537000,0.0727,0.0601,0.2486,0.266
127.538000,0.0483,0.0574,0.2583,0.269
127.538000,0.0525,0.0900,0.2611,0.281
127.538000,0.0093,0.1337,0.2286,0.265
127.538000,0.0283,0.1152,0.1442,0.187
127.538000,0.0139,0.0918,0.0845,0.126
127.538000,0.0424,0.0946,0.0444,0.113
127.538000,0.0113,0.0927,-0.0263,0.097
127.538000,-0.0051,0.0884,-0.0870,0.124
127.538000,-0.0071,0.0677,-0.1567,0.171
127.539000,0.0051,0.0995,-0.1619,0.190
127.539000,0.0030,0.1003,-0.1813,0.207
127.539000,-0.0015,0.0917,-0.2410,0.258
127.539000,-0.0133,0.0810,-0.2742,0.286
127.539000,0.0009,0.0540,-0.3122,0.317
127.539000,0.0363,0.0587,-0.3004,0.308
127.539000,-0.0022,0.0922,-0.2533,0.270
127.539000,-0.0022,0.0354,-0.1523,0.156
127.539000,0.0216,0.0409,-0.0759,0.089
127.539000,-0.0116,0.0346,0.0069,0.037
127.540000,-0.0112,0.0068,0.0844,0.085
127.540000,-0.0201,0.0169,0.0878,0.092
127.540000,-0.0051,-0.0350,0.0297,0.046
127.540000,0.0118,-0.0513,0.0199,0.056
127.540000,-0.0073,-0.0082,-0.0728,0.074
127.540000,-0.0620,0.0012,-0.0981,0.116
127.540000,-0.0856,0.0010,-0.1066,0.137
127.540000,-0.0568,0.0104,-0.1650,0.175
127.540000,-0.0686,0.0009,-0.2183,0.229
127.541000,-0.0948,0.0203,-0.1456,0.175
127.541000,-0.0567,0.0303,-0.0379,0.075
127.541000,0.0122,0.0355,0.0211,0.043
127.541000,0.0332,0.0622,0.0416,0.082
127.541000,0.0141,0.0507,0.0738,0.091
127.541000,-0.0284,0.0226,0.0939,0.101
127.541000,-0.0678,-0.0054,0.0830,0.107
127.541000,-0.1115,-0.0236,0.0105,0.114
127.541000,-0.1291,-0.0276,0.0242,0.134
127.542000,-0.1825,-0.0530,-0.0097,0.190
127.542000,-0.1882,-0.0332,-0.0645,0.202
127.542000,-0.1847,-0.0492,-0.1093,0.220
127.542000,-0.1722,-0.0294,-0.1395,0.224
127.542000,-0.1435,-0.0121,-0.1078,0.180
127.542000,-0.0798,-0.0257,-0.0383,0.092
127.542000,-0.0331,-0.0203,-0.0122,0.041
127.542000,-0.0223,0.0326,0.0114,0.041
127.543000,-0.0093,0.0589,0.0015,0.060
127.543000,-0.0035,0.0375,-0.0320,0.049
127.544000,-0.0120,0.0495,0.0249,0.057
127.544000,0.0246,0.0758,0.0315,0.086
127.544000,0.0635,0.0710,0.0499,0.107
127.544000,0.1045,0.1113,0.1440,0.210
127.545000,0.1288,0.1109,0.1995,0.262
127.545000,0.1200,0.0915,0.2188,0.266
127.545000,0.1233,0.0744,0.1836,0.233
127.545000,0.1244,0.0880,0.1915,0.245
127.545000,0.0947,0.1085,0.1663,0.220
127.545000,0.0794,0.1050,0.1201,0.178
127.546000,0.0786,0.1084,0.1075,0.172
127.546000,0.0732,0.0882,0.1022,0.154
127.546000,0.0064,0.0705,0.0422,0.082
127.546000,-0.0762,0.0791,-0.0173,0.111
127.546000,-0.0869,0.0474,-0.0954,0.137
127.546000,-0.1145,0.0303,-0.0921,0.150
127.547000,-0.1018,0.0419,-0.0985,0.148
127.547000,-0.0468,0.0154,-0.0644,0.081
127.547000,-0.0090,0.0367,-0.0544,0.066
127.547000,0.0021,0.0340,0.0316,0.047
127.547000,0.0345,0.0289,0.0790,0.091
127.547000,0.0571,0.0309,0.0406,0.077
127.547000,0.0487,0.0540,0.0310,0.079
127.548000,0.0334,0.0674,0.0928,0.120
127.548000,0.0846,0.0641,0.0711,0.128
127.548000,0.1215,0.0489,0.0614,0.145
127.548000,0.0942,-0.0043,0.1183,0.151
127.548000,0.0342,0.0069,0.1083,0.114
127.548000,0.0246,0.0013,0.0772,0.081
127.549000,-0.0084,-0.0067,0.0369,0.038
127.549000,-0.0269,-0.0172,0.0065,0.033
127.549000,0.0140,-0.0183,-0.0377,0.044
127.549000,-0.0335,0.0044,-0.0673,0.075
127.549000,-0.0595,0.0126,-0.1037,0.120
127.549000,-0.0074,0.0113,-0.1422,0.143
127.549000,-0.0177,0.0242,-0.1779,0.180
127.550000,-0.0257,0.0419,-0.2205,0.226
127.550000,-0.0030,0.0380,-0.2295,0.233
127.550000,-0.0069,0.0344,-0.2006,0.204
127.550000,0.0153,0.0356,-0.1981,0.202
127.550000,0.0706,0.0443,-0.2054,0.222
127.550000,0.0878,0.0507,-0.1986,0.223
127.551000,0.0978,0.0975,-0.2228,0.262
127.551000,0.1055,0.0609,-0.1946,0.230
127.551000,0.1036,0.0606,-0.1242,0.173
127.551000,0.1423,0.0888,-0.1114,0.201
127.551000,0.1170,0.0883,-0.0584,0.158
127.551000,0.0564,0.0284,-0.1222,0.138
127.551000,-0.0061,0.0332,-0.1855,0.189
127.552000,-0.0754,-0.0047,-0.1652,0.182
127.552000,-0.0875,-0.0232,-0.0620,0.110
127.552000,-0.0734,-0.0224,0.0497,0.091
127.552000,-0.0593,-0.0145,0.0892,0.108
127.552000,-0.0119,-0.0447,0.1616,0.168
127.552000,-0.0002,-0.0605,0.2074,0.216
127.553000,-0.0454,-0.0218,0.1485,0.157
127.553000,-0.0997,-0.0239,0.1164,0.155
127.553000,-0.1086,-0.0382,0.1133,0.161
127.553000,-0.1224,-0.0383,0.0937,0.159
127.553000,-0.1314,-0.0102,0.0484,0.140
127.553000,-0.1335,0.0008,0.0227,0.135
127.553000,-0.1360,-0.0119,-0.0479,0.145
127.554000,-0.1624,-0.0387,-0.0871,0.188
127.554000,-0.1695,-0.0128,-0.0479,0.177
127.554000,-0.0958,0.0036,-0.0281,0.100
127.554000,-0.0319,0.0176,-0.0181,0.041
127.554000,0.0100,0.0292,-0.0178,0.036
127.554000,0.0329,0.0621,0.0133,0.072
127.554000,0.0035,0.0569,-0.0129,0.058
127.555000,0.0126,0.0493,0.0110,0.052
127.555000,-0.0044,0.0132,-0.0650,0.067
127.555000,0.0383,-0.0082,-0.1120,0.119
127.555000,0.1088,0.0086,-0.1467,0.183
127.555000,0.1144,0.0088,-0.0650,0.132
127.555000,0.1128,0.0188,0.0349,0.120
127.556000,0.0949,0.0619,0.1577,0.194
127.556000,0.0964,0.0522,0.2558,0.278
127.556000,0.0840,0.0351,0.2513,0.267
127.556000,0.0244,-0.0060,0.1688,0.171
127.556000,-0.0111,-0.0020,0.0659,0.067
127.556000,0.0032,0.0397,-0.0406,0.057
127.556000,-0.0113,0.0455,-0.0465,0.066
127.557000,0.0006,0.0205,-0.0241,0.032
127.557000,0.0316,0.0292,-0.0305,0.053
127.557000,-0.0251,0.0166,-0.0726,0.079
127.557000,-0.0626,-0.0267,-0.1524,0.167
127.557000,-0.0928,0.0159,-0.2078,0.228
127.557000,-0.0972,0.0582,-0.1678,0.202
127.557000,-0.0375,0.0813,-0.1022,0.136
127.558000,0.0312,0.0736,-0.1394,0.161
127.558000,0.0614,0.0540,-0.0955,0.126
127.558000,0.0940,0.0394,-0.0734,0.126
127.558000,0.0623,0.0298,-0.1370,0.153
127.558000,0.0452,0.0202,-0.1336,0.142
127.558000,0.0256,0.0272,-0.2132,0.216
127.559000,0.0129,0.0437,-0.2353,0.240
127.559000,0.0710,0.0435,-0.2334,0.248
127.559000,0.0950,0.0840,-0.1581,0.203
127.559000,0.1828,0.0909,-0.0099,0.204
127.559000,0.2108,0.0647,0.1584,0.271
127.559000,0.2366,0.0956,0.2659,0.368
127.560000,0.2244,0.0902,0.2968,0.383
127.560000,0.1580,0.0727,0.3016,0.348
127.560000,0.1421,0.0693,0.2497,0.295
127.560000,0.1217,0.0845,0.2007,0.249
127.560000,0.0709,0.0544,0.1975,0.217
127.560000,0.0493,0.0647,0.1991,0.215
127.560000,0.0140,0.0297,0.1651,0.168
127.561000,-0.0137,-0.0052,0.0935,0.095
127.561000,-0.0697,-0.0495,-0.0057,0.086
127.561000,-0.1326,-0.0317,-0.1326,0.190
127.561000,-0.1530,-0.0401,-0.2774,0.319
127.561000,-0.0431,0.0110,-0.3475,0.350
127.561000,0.0746,0.0406,-0.3221,0.333
127.561000,0.1532,0.1058,-0.1738,0.255
127.562000,0.2317,0.1139,-0.0293,0.260
127.562000,0.2485,0.1269,0.1041,0.298
127.562000,0.2494,0.0875,0.1747,0.317
127.562000,0.1963,0.0080,0.1617,0.254
127.562000,0.0778,0.0168,0.0610,0.100
127.563000,-0.0016,-0.0198,-0.0079,0.021
127.563000,-0.0825,-0.0513,-0.0999,0.139
127.563000,-0.1226,-0.0659,-0.1746,0.223
127.563000,-0.1270,-0.0732,-0.1466,0.207
127.563000,-0.1102,-0.1041,-0.2090,0.258
127.563000,-0.1034,-0.0896,-0.1784,0.225
127.563000,-0.0923,-0.1015,-0.1668,0.216
127.564000,-0.1031,-0.1086,-0.1838,0.237
127.564000,-0.1211,-0.0612,-0.2384,0.274
127.564000,-0.0990,-0.0878,-0.3139,0.341
127.564000,-0.0682,-0.0785,-0.3912,0.405
127.564000,-0.0450,-0.0618,-0.3684,0.376
127.564000,0.0042,-0.0328,-0.2727,0.275
127.564000,0.0177,-0.0322,-0.1709,0.175
127.565000,0.0173,-0.0741,-0.1224,0.144
127.565000,0.0010,-0.0845,-0.0343,0.091
127.565000,-0.0695,-0.0522,-0.0252,0.090
127.565000,-0.1058,-0.0652,-0.0850,0.151
127.565000,-0.1932,-0.0978,-0.1957,0.292
127.565000,-0.1780,-0.0729,-0.3301,0.382
127.566000,-0.1419,-0.0071,-0.3259,0.356
127.566000,-0.0801,-0.0007,-0.2287,0.242
127.566000,0.0199,0.0347,-0.0267,0.048
127.566000,0.0888,0.0941,0.1869,0.227
127.566000,0.1152,0.0840,0.3452,0.374
127.566000,0.0968,0.0833,0.4198,0.439
127.566000,0.0141,0.0965,0.4707,0.481
127.567000,-0.1209,0.0159,0.4311,0.448
127.567000,-0.2174,-0.0122,0.3606,0.421
127.567000,-0.2875,-0.0358,0.2952,0.414
127.567000,-0.3194,-0.0953,0.2897,0.442
127.567000,-0.3060,-0.0925,0.2078,0.381
127.567000,-0.2999,-0.0923,0.1524,0.349
127.568000,-0.2797,-0.0657,0.1592,0.329
127.568000,-0.3005,-0.0752,0.1853,0.361
127.568000,-0.2452,-0.0419,0.1709,0.302
127.568000,-0.1426,-0.0137,0.0923,0.170
127.568000,-0.0430,0.0070,0.0092,0.045
127.568000,0.0345,0.0610,0.0173,0.072
127.569000,0.1358,0.1125,0.0230,0.178
127.569000,0.1369,0.1449,0.0717,0.212
127.569000,0.1813,0.1532,0.0702,0.247
127.569000,0.1783,0.1544,0.0614,0.244
127.569000,0.1088,0.1436,0.0215,0.181
127.569000,0.0251,0.0945,-0.0446,0.107
127.569000,-0.0153,0.0744,-0.0582,0.096
127.569000,-0.0676,0.0426,-0.0984,0.127
127.570000,-0.0863,0.0305,-0.0551,0.107
127.570000,-0.0690,0.0402,0.0260,0.084
127.570000,-0.0301,0.0407,0.0638,0.081
127.570000,0.0306,0.0771,0.1063,0.135
127.570000,0.0792,0.0870,0.1535,0.193
127.570000,0.0749,0.1157,0.1436,0.199
127.570000,0.0823,0.1129,0.1484,0.204
127.571000,0.0990,0.1145,0.1846,0.239
127.571000,0.1322,0.0752,0.1278,0.199
127.571000,0.1512,0.0714,0.0760,0.184
127.571000,0.1799,0.0435,0.0150,0.186
127.571000,0.1750,0.0539,-0.0746,0.198
127.571000,0.1172,0.0666,-0.1258,0.184
127.572000,0.0762,0.0817,-0.1890,0.220
127.572000,0.0901,0.0518,-0.2213,0.244
127.572000,0.1089,0.0388,-0.2154,0.244
127.572000,0.0944,0.0309,-0.2098,0.232
127.572000,0.1327,0.0257,-0.1710,0.218
127.572000,0.1471,0.0136,-0.1372,0.202
127.573000,0.1687,0.0328,-0.0989,0.198
127.573000,0.1378,0.0426,-0.0679,0.159
127.573000,0.1570,0.0571,-0.0345,0.171
127.573000,0.1403,0.0570,-0.0321,0.155
127.573000,0.1284,0.0808,-0.0129,0.152
127.573000,0.1259,0.0256,0.0206,0.130
127.573000,0.0971,0.0085,0.0281,0.101
127.574000,0.0705,0.0390,0.0334,0.087
127.574000,0.0838,0.0117,0.0124,0.086
127.574000,0.0468,-0.0132,0.0274,0.056
127.574000,0.0552,-0.0071,-0.0406,0.069
127.574000,0.0302,0.0227,-0.0559,0.067
127.574000,-0.0277,-0.0071,-0.0521,0.059
127.574000,-0.0043,-0.0128,-0.1054,0.106
127.574000,0.0358,-0.0042,-0.1250,0.130
127.575000,0.0302,0.0070,-0.0996,0.104
127.575000,0.0296,0.0468,-0.0937,0.109
127.575000,0.0199,0.0391,-0.0381,0.058
127.575000,0.0416,0.0031,0.0168,0.045
127.575000,0.0182,0.0056,-0.0571,0.060
127.576000,-0.0261,-0.0273,-0.0617,0.072
127.576000,-0.1151,-0.0693,-0.0570,0.146
127.576000,-0.1845,-0.0657,-0.0832,0.213
127.576000,-0.1729,-0.0384,-0.0878,0.198
127.576000,-0.1544,-0.0281,-0.0353,0.161
127.576000,-0.1248,-0.0488,0.0050,0.134
127.576000,-0.1197,-0.0552,0.0808,0.155
127.576000,-0.1431,-0.0761,0.1703,0.235
127.577000,-0.1497,-0.0636,0.1618,0.229
127.577000,-0.1726,-0.0516,0.1608,0.242
127.577000,-0.2074,-0.0757,0.0985,0.242
127.577000,-0.3401,-0.0904,0.0322,0.353
127.577000,-0.2803,-0.0770,-0.0259,0.292
127.577000,-0.1761,-0.0803,-0.1121,0.224
127.577000,-0.1652,-0.0521,-0.1624,0.237
127.577000,-0.0947,-0.0379,-0.1225,0.159
127.578000,-0.0861,-0.0163,-0.0168,0.089
127.578000,-0.0867,-0.0254,-0.0310,0.095
127.578000,-0.0417,-0.0532,-0.0335,0.075
127.578000,-0.0420,-0.0520,0.0374,0.077
127.578000,-0.0089,-0.0269,0.1124,0.116
127.578000,0.0386,-0.0185,0.1510,0.157
127.578000,0.0221,-0.0055,0.1797,0.181
127.578000,0.0252,-0.0447,0.1891,0.196
127.579000,-0.0473,-0.0599,0.1818,0.197
127.579000,-0.1286,-0.0562,0.1178,0.183
127.579000,-0.1405,-0.0813,0.0925,0.187
127.579000,-0.1503,-0.0709,0.0867,0.187
127.579000,-0.1249,-0.0488,0.0432,0.141
127.579000,-0.1190,-0.0461,0.0642,0.143
127.579000,-0.1206,-0.0317,0.0164,0.126
127.579000,-0.1389,-0.0341,0.0213,0.145
127.580000,-0.1619,-0.0270,-0.0238,0.166
127.580000,-0.1753,-0.0318,-0.0542,0.186
127.580000,-0.2506,-0.0127,-0.0820,0.264
127.580000,-0.2374,-0.0339,-0.0884,0.256
127.580000,-0.2126,-0.0095,-0.1022,0.236
127.580000,-0.1715,0.0007,-0.1255,0.213
127.580000,-0.1451,0.0111,-0.1038,0.179
127.580000,-0.0620,0.0243,-0.0470,0.081
127.581000,0.0252,0.0400,0.0400,0.062
127.581000,0.1426,0.0843,0.1640,0.233
127.581000,0.2118,0.1139,0.2799,0.369
127.581000,0.2287,0.1099,0.3546,0.436
127.581000,0.2363,0.1103,0.4265,0.500
127.581000,0.2179,0.1008,0.4602,0.519
127.581000,0.1644,0.0670,0.4514,0.485
127.581000,0.1210,0.0305,0.4359,0.453
127.582000,0.0590,0.0318,0.3070,0.314
127.582000,0.0233,0.0066,0.1702,0.172
127.582000,-0.0292,-0.0189,0.0324,0.047
127.582000,-0.0603,0.0057,-0.0899,0.108
127.582000,-0.0421,0.0513,-0.1446,0.159
127.582000,-0.0124,0.0397,-0.1514,0.157
127.582000,0.0241,0.0448,-0.1439,0.153
127.582000,0.0721,0.0618,-0.1697,0.194
127.583000,0.1101,0.0623,-0.1931,0.231
127.583000,0.1477,0.0937,-0.1832,0.253
127.583000,0.1530,0.0899,-0.1937,0.263
127.583000,0.1992,0.1244,-0.2282,0.327
127.583000,0.2191,0.1304,-0.2078,0.329
127.583000,0.2177,0.1078,-0.2594,0.355
127.583000,0.2118,0.0687,-0.3349,0.402
127.583000,0.2561,0.0897,-0.3580,0.449
127.584000,0.2620,0.0870,-0.4123,0.496
127.584000,0.3008,0.1347,-0.4403,0.550
127.584000,0.3010,0.1540,-0.3180,0.464
127.584000,0.3275,0.1497,-0.1913,0.408
127.584000,0.3568,0.1576,-0.0123,0.390
127.584000,0.3960,0.1368,0.1090,0.433
127.584000,0.3736,0.1087,0.1657,0.423
127.585000,0.3039,0.0971,0.2033,0.378
127.585000,0.2684,0.0926,0.1955,0.345
127.585000,0.2354,0.0854,0.1711,0.303
127.585000,0.1407,0.0734,0.1158,0.196
127.585000,0.0751,0.0444,0.0559,0.104
127.585000,0.0214,0.0036,-0.0446,0.050
127.585000,-0.0419,-0.0253,-0.1664,0.173
127.586000,-0.0938,-0.0252,-0.2285,0.248
127.586000,-0.1055,-0.0131,-0.2403,0.263
127.586000,-0.0891,0.0231,-0.1876,0.209
127.586000,-0.0733,0.0283,-0.0681,0.104
127.586000,-0.0317,-0.0120,0.0155,0.037
127.586000,-0.0070,-0.0261,0.1446,0.147
127.586000,0.0273,-0.0213,0.1828,0.186
127.586000,0.0163,-0.0527,0.2332,0.240
127.587000,0.0223,-0.0438,0.1929,0.199
127.587000,0.0476,-0.0662,0.1242,0.149
127.587000,0.0682,-0.0768,0.0987,0.142
127.587000,0.0745,-0.0085,0.0637,0.098
127.587000,0.0717,-0.0120,-0.0072,0.073
127.587000,0.0764,-0.0106,-0.0877,0.117
127.587000,0.0214,-0.0041,-0.1013,0.104
127.587000,-0.0261,-0.0334,-0.1151,0.123
127.587000,-0.0759,-0.0387,-0.1719,0.192
127.588000,-0.1377,-0.0678,-0.1928,0.246
127.588000,-0.1735,-0.0441,-0.1947,0.264
127.588000,-0.1595,-0.0516,-0.1917,0.255
127.588000,-0.1268,-0.0325,-0.1315,0.186
127.588000,-0.1063,0.0130,-0.0141,0.108
127.588000,-0.0833,0.0081,0.0722,0.111
127.588000,-0.0218,-0.0137,0.1536,0.156
127.589000,-0.0366,-0.0330,0.0986,0.110
127.589000,-0.1108,-0.0046,0.0462,0.120
127.589000,-0.1467,0.0044,-0.0275,0.149
127.589000,-0.1731,-0.0032,-0.0845,0.193
127.590000,-0.1947,-0.0082,-0.1416,0.241
127.590000,-0.1829,-0.0178,-0.0935,0.206
127.590000,-0.1546,-0.0367,-0.0792,0.177
127.590000,-0.1407,-0.0362,-0.0866,0.169
127.590000,-0.0910,-0.0235,-0.0415,0.103
127.590000,-0.0199,-0.0178,0.1133,0.116
127.590000,0.0727,0.0284,0.2728,0.284
127.590000,0.1414,0.0552,0.3414,0.374
127.591000,0.1818,0.0720,0.4174,0.461
127.591000,0.2152,0.0643,0.4746,0.525
127.591000,0.1917,0.0824,0.4700,0.514
127.591000,0.1614,0.0760,0.3964,0.435
127.591000,0.0958,0.0499,0.3425,0.359
127.591000,0.0352,0.0450,0.2053,0.213
127.591000,-0.0060,0.0182,0.0869,0.089
127.591000,-0.0350,0.0151,-0.0635,0.074
127.591000,-0.0596,0.0453,-0.1414,0.160
127.591000,-0.0580,0.0446,-0.1285,0.148
127.592000,-0.0188,0.0558,-0.1158,0.130
127.592000,0.0367,0.0646,-0.1080,0.131
127.592000,0.0849,0.0663,-0.1478,0.183
127.592000,0.1447,0.0515,-0.2230,0.271
127.592000,0.0689,0.0630,-0.2693,0.285
127.592000,-0.0371,0.0865,-0.3888,0.400
127.592000,-0.1577,0.0393,-0.4588,0.487
127.592000,-0.1993,-0.0527,-0.4837,0.526
127.592000,-0.2050,-0.0770,-0.4948,0.541
127.593000,-0.1559,-0.0720,-0.3891,0.425
127.593000,-0.0708,-0.0521,-0.3152,0.327
127.593000,-0.1077,-0.0630,-0.2871,0.313
127.593000,-0.0898,-0.0163,-0.2878,0.302
127.593000,-0.0650,0.0113,-0.2431,0.252
127.593000,-0.0458,0.0269,-0.1840,0.192
127.593000,0.0012,0.0258,-0.2040,0.206
127.593000,0.0502,0.0248,-0.1116,0.125
127.593000,0.0918,0.0573,-0.0265,0.111
127.593000,0.1644,0.0757,0.1349,0.226
127.594000,0.1941,0.0701,0.2625,0.334
127.594000,0.1766,0.0835,0.3638,0.413
127.594000,0.1692,0.1206,0.4746,0.518
127.594000,0.1647,0.0808,0.4756,0.510
127.594000,0.1439,0.0551,0.4695,0.494
127.594000,0.1330,0.0529,0.4065,0.431
127.594000,0.0793,0.0430,0.3127,0.325
127.594000,-0.0269,0.0520,0.1955,0.204
127.594000,-0.1141,0.0370,0.1072,0.161
127.594000,-0.1345,-0.0259,0.0884,0.163
127.595000,-0.1575,-0.0721,0.0291,0.176
127.595000,-0.1235,-0.0608,-0.0348,0.142
127.595000,-0.0708,-0.0857,-0.0244,0.114
127.595000,-0.0544,-0.0604,-0.0951,0.125
127.595000,-0.0025,-0.0041,-0.1561,0.156
127.595000,-0.0060,0.0066,-0.1787,0.179
127.595000,-0.0575,0.0007,-0.2301,0.237
127.595000,-0.0420,0.0141,-0.2744,0.278
127.595000,0.0118,-0.0057,-0.3380,0.338
127.596000,-0.0012,0.0083,-0.3730,0.373
127.596000,-0.0335,-0.0227,-0.4012,0.403
127.596000,0.0946,0.0352,-0.3460,0.360
127.596000,0.1580,0.0671,-0.2936,0.340
127.596000,0.1856,0.1328,-0.2464,0.336
127.596000,0.2134,0.1461,-0.1085,0.280
127.596000,0.2033,0.1355,-0.0069,0.244
127.596000,0.2081,0.1419,0.1040,0.272
127.596000,0.2013,0.0956,0.2697,0.350
127.596000,0.1498,0.1162,0.3302,0.381
127.597000,0.0581,0.0648,0.3357,0.347
127.597000,0.0412,0.0203,0.3175,0.321
127.597000,0.0053,0.0018,0.2757,0.276
127.597000,-0.0831,-0.0409,0.2605,0.276
127.597000,-0.1191,-0.0453,0.1809,0.221
127.597000,-0.1482,-0.1003,0.1901,0.261
127.597000,-0.1725,-0.1316,0.1398,0.258
127.597000,-0.1708,-0.1560,0.0038,0.231
127.597000,-0.1601,-0.1615,-0.0888,0.244
127.597000,-0.2051,-0.1337,-0.1285,0.276
127.598000,-0.1741,-0.1371,-0.2205,0.313
127.598000,-0.1532,-0.0855,-0.2551,0.310
127.598000,-0.1233,-0.0792,-0.2945,0.329
127.598000,-0.0816,-0.0511,-0.2839,0.300
127.598000,-0.0374,-0.0465,-0.1948,0.204
127.598000,0.0022,-0.0560,-0.1490,0.159
127.598000,0.0686,-0.0199,-0.1513,0.167
127.598000,0.0826,-0.0125,-0.1417,0.165
127.598000,0.0704,-0.0168,-0.1228,0.143
127.599000,0.0730,0.0053,-0.0776,0.107
127.599000,0.1000,-0.0110,0.0033,0.101
127.599000,0.1033,0.0063,-0.0139,0.104
127.599000,0.0901,0.0257,-0.0262,0.097
127.599000,0.0415,-0.0172,-0.0504,0.068
127.599000,-0.0169,-0.0193,-0.0866,0.090
127.599000,-0.0373,-0.0455,-0.1273,0.140
127.600000,-0.0294,-0.0525,-0.0818,0.102
127.600000,0.0428,-0.0189,0.0234,0.052
127.600000,0.1505,0.0145,0.0713,0.167
127.600000,0.1959,-0.0003,0.1839,0.269
127.600000,0.2177,0.0301,0.1555,0.269
127.600000,0.2519,0.0242,0.1394,0.289
127.600000,0.3271,0.0227,0.0567,0.333
127.600000,0.4215,0.0449,-0.0401,0.426
127.600000,0.3820,0.0978,0.0284,0.395
127.600000,0.3098,0.1433,-0.1516,0.373
127.601000,0.2168,0.0642,-0.3147,0.387
127.601000,0.0980,-0.0024,-0.4277,0.439
127.601000,0.1065,-0.0111,-0.4262,0.439
127.601000,0.2114,0.0407,-0.2603,0.338
127.601000,0.2120,0.0333,-0.2914,0.362
127.601000,0.0821,-0.0190,-0.3851,0.394
127.601000,-0.0521,-0.0083,-0.4410,0.444
127.601000,-0.1694,0.0007,-0.4257,0.458
127.601000,-0.2605,-0.0066,-0.4323,0.505
127.601000,-0.2922,0.0033,-0.3819,0.481
127.602000,-0.2674,-0.0392,-0.2934,0.399
127.602000,-0.1983,-0.0626,-0.0661,0.218
127.602000,-0.1466,-0.0290,0.0609,0.161
127.602000,-0.1385,-0.0368,-0.0078,0.144
127.602000,-0.2105,-0.0907,-0.2145,0.314
127.602000,-0.2813,-0.1088,-0.2939,0.421
127.602000,-0.2527,-0.1175,-0.3133,0.419
127.602000,-0.1774,-0.0734,-0.3446,0.394
127.603000,-0.0434,0.0090,-0.3185,0.322
127.603000,0.0876,0.0511,-0.2546,0.274
127.603000,0.1922,0.0842,-0.1697,0.270
127.603000,0.3161,0.1321,-0.0567,0.347
127.603000,0.3857,0.1852,0.1275,0.446
127.603000,0.4274,0.2194,0.2873,0.560
127.603000,0.4436,0.1986,0.4180,0.641
127.603000,0.4298,0.1872,0.5080,0.691
127.603000,0.3953,0.1636,0.4809,0.644
127.603000,0.3420,0.1253,0.4182,0.555
127.604000,0.2839,0.1011,0.2651,0.401
127.604000,0.2588,0.0717,0.2010,0.335
127.604000,0.2401,0.0710,0.1681,0.302
127.604000,0.2660,0.0342,0.2217,0.348
127.604000,0.3268,0.0283,0.2539,0.415
127.604000,0.3746,-0.0161,0.2409,0.446
127.604000,0.4408,0.0110,0.2616,0.513
127.604000,0.5133,0.0117,0.3112,0.600
127.604000,0.6021,0.0578,0.3368,0.692
127.605000,0.6886,0.0582,0.4270,0.812
127.605000,0.7943,0.0302,0.4716,0.924
127.605000,0.8647,-0.0073,0.4753,0.987
127.605000,0.9497,-0.0162,0.4528,1.052
127.605000,1.0113,0.0106,0.4138,1.093
127.605000,1.0540,0.0156,0.3773,1.120
127.605000,1.1206,0.0131,0.3315,1.169
127.605000,1.1774,0.0198,0.1953,1.194
127.606000,1.2264,-0.0001,0.0811,1.229
127.606000,1.2605,-0.0154,0.0222,1.261
127.606000,1.2988,-0.0549,-0.0244,1.300
127.606000,1.3079,-0.0707,-0.0850,1.313
127.606000,1.3333,-0.0843,-0.1286,1.342
127.606000,1.3269,-0.1171,-0.1697,1.343
127.606000,1.3488,-0.1403,-0.2178,1.373
127.607000,1.4352,-0.1659,-0.2562,1.467
127.607000,1.5117,-0.1938,-0.2611,1.546
127.607000,1.6336,-0.2048,-0.3092,1.675
127.607000,1.6864,-0.2301,-0.3597,1.740
127.607000,1.7036,-0.2503,-0.3553,1.758
127.607000,1.7018,-0.3207,-0.4562,1.791
127.607000,1.6689,-0.3097,-0.4900,1.767
127.607000,1.6406,-0.3033,-0.5501,1.757
127.607000,1.6336,-0.3278,-0.5937,1.769
127.608000,1.6931,-0.3496,-0.6326,1.841
127.608000,1.7402,-0.3446,-0.5737,1.864
127.608000,1.7798,-0.3418,-0.4768,1.874
127.608000,1.8192,-0.3412,-0.3395,1.882
127.608000,1.8394,-0.3215,-0.1593,1.874
127.608000,1.8670,-0.3163,0.0400,1.894
127.608000,1.8399,-0.3690,0.2011,1.887
127.608000,1.8012,-0.3960,0.2453,1.860
127.609000,1.7654,-0.4091,0.2971,1.836
127.609000,1.7207,-0.4396,0.2512,1.794
127.609000,1.6118,-0.4680,0.1793,1.688
127.609000,1.5178,-0.4630,0.1626,1.595
127.609000,1.4241,-0.4773,0.0839,1.504
127.609000,1.3067,-0.4916,0.0650,1.398
127.609000,1.2897,-0.5059,0.0414,1.386
127.609000,1.2891,-0.5295,0.0583,1.395
127.609000,1.3144,-0.5172,0.1565,1.421
127.610000,1.3559,-0.4499,0.2117,1.444
127.610000,1.4137,-0.4425,0.2501,1.502
127.610000,1.4806,-0.4136,0.4344,1.597
127.610000,1.5308,-0.4063,0.7404,1.748
127.610000,1.5722,-0.3756,0.8336,1.819
127.610000,1.5808,-0.3433,0.8459,1.825
127.610000,1.5467,-0.3236,0.9399,1.839
127.610000,1.4749,-0.2733,0.8884,1.743
127.611000,1.4229,-0.2618,0.8013,1.654
127.611000,1.3357,-0.2243,0.7792,1.563
127.611000,1.2876,-0.2277,0.7236,1.494
127.611000,1.2356,-0.2312,0.6562,1.418
127.611000,1.1505,-0.2322,0.5338,1.289
127.611000,1.0534,-0.2116,0.4927,1.182
127.611000,0.9517,-0.1980,0.4707,1.080
127.611000,0.8643,-0.2224,0.4868,1.017
127.612000,0.8462,-0.1725,0.5888,1.045
127.612000,0.8158,-0.2230,0.6165,1.047
127.612000,0.7780,-0.2879,0.5894,1.018
127.612000,0.7347,-0.3241,0.6365,1.025
127.612000,0.6931,-0.3580,0.6886,1.041
127.612000,0.5864,-0.5593,0.7216,1.085
127.612000,0.5042,-0.7823,0.9824,1.353
127.612000,0.7565,-0.7005,1.4381,1.769
127.613000,0.8291,-0.5972,1.6039,1.902
127.613000,0.7404,-0.7520,1.6040,1.920
127.613000,0.6876,-1.0233,1.6561,2.065
127.613000,0.7301,-1.1601,1.7173,2.197
127.613000,0.7438,-1.1432,1.5386,2.056
127.613000,0.6859,-1.1899,1.3854,1.951
127.613000,0.5909,-1.1590,1.2765,1.823
127.614000,0.4185,-1.1409,1.0059,1.578
127.614000,0.1304,-1.1310,0.6288,1.301
127.614000,-0.1567,-1.0762,0.2481,1.116
127.614000,-0.4363,-1.0414,-0.2678,1.160
127.614000,-0.7404,-1.0640,-0.8186,1.533
127.614000,-0.9383,-1.0480,-1.2609,1.889
127.614000,-1.1050,-0.9981,-1.7289,2.282
127.615000,-1.2558,-0.8993,-2.0364,2.556
127.615000,-1.3455,-0.8283,-2.1741,2.688
127.615000,-1.3575,-0.7010,-2.3050,2.765
127.615000,-1.2996,-0.5489,-2.1585,2.579
127.615000,-1.2264,-0.4268,-1.9240,2.321
127.615000,-1.0372,-0.4068,-1.6827,2.018
127.616000,-0.7918,-0.4004,-1.3652,1.628
127.616000,-0.5296,-0.3237,-1.1224,1.283
127.616000,-0.2908,-0.2369,-0.9277,1.001
127.616000,-0.0887,-0.1323,-0.7578,0.774
127.616000,0.1413,-0.0770,-0.5864,0.608
127.616000,0.3666,-0.0322,-0.4117,0.552
127.616000,0.6025,0.0146,-0.2320,0.646
127.616000,0.9159,0.0850,0.0340,0.920
127.616000,1.2218,0.1095,0.4191,1.296
127.617000,1.4582,0.1767,0.8183,1.681
127.617000,1.6689,0.1902,1.3344,2.145
127.617000,1.7927,0.1521,1.7667,2.522
127.617000,1.8365,0.0524,2.0322,2.740
127.617000,1.7696,-0.0687,2.2415,2.857
127.617000,1.6589,-0.2355,2.2729,2.824
127.617000,1.5305,-0.4119,2.1484,2.670
127.617000,1.4554,-0.5598,2.0070,2.542
127.618000,1.3855,-0.6815,1.7577,2.340
127.618000,1.4567,-0.7481,1.4724,2.202
127.618000,1.4870,-0.7812,1.3398,2.149
127.618000,1.5006,-0.7737,1.1473,2.041
127.618000,1.5067,-0.8069,0.9688,1.965
127.618000,1.4693,-0.8641,0.9551,1.954
127.618000,1.3526,-0.9620,0.9890,1.932
127.619000,1.1369,-1.1748,0.8482,1.842
127.619000,0.9224,-1.3011,0.6593,1.726
127.619000,0.7114,-1.3885,0.5392,1.651
127.619000,0.5137,-1.4772,0.5857,1.670
127.619000,0.3866,-1.5364,0.7817,1.767
127.619000,0.4069,-1.5328,0.9789,1.864
127.619000,0.3829,-1.5457,1.0488,1.907
127.620000,0.3344,-1.5895,1.0128,1.914
127.620000,0.2778,-1.7098,0.8881,1.947
127.620000,0.1146,-1.7820,0.7609,1.941
127.620000,-0.0575,-1.7968,0.5931,1.893
127.620000,-0.1796,-1.8114,0.3850,1.861
127.620000,-0.2335,-1.8425,0.2658,1.876
127.620000,-0.2674,-1.7637,0.1974,1.795
127.620000,-0.2937,-1.7472,0.1009,1.775
127.621000,-0.2890,-1.7356,0.0674,1.761
127.621000,-0.2103,-1.6525,0.0969,1.669
127.621000,-0.1607,-1.5673,0.1081,1.579
127.621000,-0.1159,-1.5520,0.1966,1.569
127.621000,-0.1023,-1.5464,0.3167,1.582
127.621000,-0.0622,-1.5457,0.2866,1.573
127.621000,-0.0099,-1.5137,0.1875,1.525
127.621000,0.0695,-1.4336,0.1865,1.447
127.622000,0.1282,-1.3552,0.1516,1.370
127.622000,0.1284,-1.3214,0.2166,1.345
127.622000,0.2427,-1.2845,0.3358,1.350
127.622000,0.3274,-1.2538,0.4327,1.366
127.622000,0.4069,-1.2681,0.6054,1.463
127.622000,0.4787,-1.2724,0.7777,1.566
127.622000,0.5094,-1.3148,0.8900,1.667
127.622000,0.5180,-1.3595,0.9639,1.745
127.623000,0.5403,-1.4186,1.0071,1.822
127.623000,0.4920,-1.4493,1.0531,1.858
127.623000,0.4905,-1.4299,0.9752,1.799
127.623000,0.5258,-1.4152,0.9479,1.783
127.623000,0.5069,-1.4125,1.0477,1.830
127.623000,0.5127,-1.4026,1.1574,1.889
127.624000,0.5337,-1.4547,1.1930,1.956
127.624000,0.5608,-1.4513,1.1616,1.942
127.624000,0.5723,-1.5021,1.1537,1.979
127.624000,0.4104,-1.6021,1.2505,2.073
127.625000,0.3398,-1.7586,1.6818,2.457
127.625000,0.5585,-1.6688,2.3216,2.913
127.625000,0.7581,-1.5152,2.6367,3.134
127.625000,0.8061,-1.5850,2.8639,3.371
127.625000,0.9328,-1.8059,3.2925,3.869
127.625000,1.1723,-1.8100,3.7095,4.291
127.626000,1.2766,-1.8199,3.7561,4.365
127.626000,1.2566,-1.8974,3.7333,4.372
127.626000,1.2275,-1.9944,3.7031,4.381
127.626000,1.1204,-2.1009,3.5454,4.271
127.626000,1.0045,-2.1525,3.3299,4.090
127.626000,0.8457,-2.2259,3.1287,3.932
127.627000,0.6597,-2.2613,2.7557,3.625
127.627000,0.4218,-2.3165,2.4624,3.407
127.627000,0.1596,-2.3962,2.2086,3.263
127.627000,-0.1059,-2.5316,1.9516,3.198
127.627000,-0.2796,-2.6294,1.6292,3.106
127.628000,-0.4005,-2.7253,1.3922,3.086
127.628000,-0.5335,-2.7305,1.2236,3.039
127.628000,-0.5758,-2.7095,1.1376,2.995
127.628000,-0.5652,-2.6431,1.2102,2.961
127.628000,-0.5253,-2.5577,1.2381,2.890
127.628000,-0.4936,-2.5464,1.2734,2.890
127.629000,-0.5227,-2.5516,1.1774,2.858
127.629000,-0.5544,-2.5514,1.0930,2.831
127.629000,-0.5813,-2.5787,0.9911,2.823
127.629000,-0.6006,-2.5591,0.9190,2.785
127.629000,-0.5261,-2.5281,0.9314,2.745
127.629000,-0.4198,-2.4687,0.9990,2.696
127.630000,-0.2935,-2.4169,1.1193,2.680
127.630000,-0.0683,-2.3773,1.2994,2.710
127.630000,0.1844,-2.3480,1.5562,2.823
127.630000,0.4435,-2.3006,1.8563,2.989
127.630000,0.6779,-2.2833,2.1544,3.212
127.630000,0.8640,-2.2942,2.4223,3.446
127.630000,0.9852,-2.3123,2.7202,3.704
127.631000,1.0248,-2.3328,2.8641,3.833
127.631000,1.0473,-2.4205,3.0383,4.023
127.631000,1.0530,-2.4580,3.2260,4.190
127.631000,1.0370,-2.5362,3.3889,4.358
127.631000,1.0116,-2.6647,3.5556,4.557
127.631000,0.9745,-2.7335,3.7453,4.738
127.632000,0.9307,-2.8285,3.9099,4.915
127.632000,0.8590,-2.8807,4.0472,5.041
127.632000,0.7378,-2.8996,4.1716,5.134
127.632000,0.5791,-2.9526,4.2379,5.197
127.632000,0.3757,-2.9584,4.2965,5.230
127.633000,0.1803,-3.0081,4.2114,5.178
127.633000,-0.0311,-3.0941,4.0828,5.123
127.633000,-0.1636,-3.0899,3.9736,5.036
127.633000,-0.3484,-3.0957,3.7804,4.899
127.633000,-0.4809,-3.0824,3.3478,4.576
127.634000,-0.5350,-3.0207,3.0034,4.293
127.634000,-0.6094,-2.9061,2.8237,4.098
127.634000,-0.6067,-2.8007,2.7134,3.946
127.634000,-0.5987,-2.7452,2.6123,3.837
127.634000,-0.5243,-2.6490,2.6623,3.792
127.634000,-0.4766,-2.5459,2.8346,3.840
127.635000,-0.4039,-2.4963,3.0079,3.930
127.635000,-0.4161,-2.4600,3.1537,4.021
127.635000,-0.4012,-2.4204,3.3514,4.153
127.635000,-0.3398,-2.3465,3.5530,4.271
127.635000,-0.3823,-2.2936,3.6533,4.331
127.635000,-0.3996,-2.2974,3.7839,4.445
127.636000,-0.3605,-2.2672,3.9186,4.542
127.636000,-0.3578,-2.1672,3.9998,4.563
127.636000,-0.3343,-2.0714,4.0179,4.533
127.636000,-0.3204,-1.9916,3.9727,4.455
127.636000,-0.3302,-1.9535,3.9331,4.404
127.637000,-0.2886,-1.9212,3.9012,4.358
127.637000,-0.2701,-1.9251,3.8933,4.352
127.637000,-0.2596,-1.9389,3.8804,4.346
127.637000,-0.1398,-1.9552,3.9343,4.396
127.637000,-0.0379,-1.9024,3.9307,4.367
127.638000,0.0794,-1.8861,3.9823,4.407
127.638000,0.1159,-1.8967,3.9936,4.423
127.638000,0.1340,-1.9180,4.0009,4.439
127.638000,0.1140,-1.9739,3.9828,4.447
127.638000,0.1062,-1.9904,3.9994,4.469
127.639000,0.0984,-2.0611,3.9599,4.465
127.639000,0.0836,-2.1263,3.8933,4.437
127.639000,0.1142,-2.1670,3.7639,4.345
127.639000,0.1115,-2.1786,3.4760,4.104
127.639000,0.1016,-2.2037,3.0872,3.794
127.639000,0.0869,-2.1921,2.6357,3.429
127.640000,0.1032,-2.2533,2.2432,3.181
127.640000,0.0834,-2.3176,1.8856,2.989
127.640000,0.0063,-2.3372,1.4455,2.748
127.640000,-0.1119,-2.3809,1.0280,2.596
127.640000,-0.2596,-2.4294,0.6641,2.532
127.640000,-0.4056,-2.4921,0.2770,2.540
127.640000,-0.5814,-2.4970,-0.0161,2.564
127.641000,-0.6774,-2.5157,-0.3519,2.629
127.641000,-0.7152,-2.5196,-0.6010,2.687
127.641000,-0.7168,-2.4750,-0.9119,2.733
127.641000,-0.7588,-2.4277,-1.1195,2.779
127.641000,-0.7361,-2.3943,-1.4390,2.889
127.641000,-0.6873,-2.3340,-1.6910,2.963
127.641000,-0.6457,-2.1870,-1.9764,3.018
127.641000,-0.6542,-2.1396,-2.2831,3.197
127.642000,-0.5313,-2.0578,-2.4656,3.255
127.642000,-0.3774,-1.8717,-2.5626,3.196
127.642000,-0.2162,-1.7510,-2.7490,3.266
127.642000,0.0552,-1.5522,-2.7761,3.181
127.642000,0.3462,-1.2823,-2.7234,3.030
127.643000,0.5454,-1.0724,-2.6464,2.907
127.643000,0.7659,-0.9272,-2.4020,2.686
127.643000,0.9387,-0.7248,-2.0334,2.354
127.643000,1.0245,-0.6014,-1.7181,2.089
127.643000,1.0382,-0.5688,-1.2791,1.743
127.643000,1.0163,-0.5792,-0.8602,1.452
127.643000,0.9161,-0.6519,-0.3654,1.182
127.644000,0.7684,-0.7273,0.0117,1.058
127.644000,0.6112,-0.8154,0.3817,1.088
127.644000,0.4562,-0.8925,0.7260,1.238
127.644000,0.2835,-0.9186,1.0044,1.390
127.644000,0.1168,-0.9347,1.2533,1.568
127.644000,-0.0900,-1.0106,1.5475,1.850
127.644000,-0.3065,-1.0867,1.9157,2.224
127.644000,-0.5260,-1.1968,2.1911,2.551
127.644000,-0.7368,-1.3100,2.4647,2.887
127.645000,-0.9129,-1.3239,2.6891,3.133
127.645000,-1.1186,-1.3723,2.8068,3.319
127.645000,-1.2535,-1.4074,2.9279,3.482
127.645000,-1.3893,-1.4721,3.0857,3.690
127.645000,-1.3661,-1.4613,3.2804,3.842
127.646000,-1.3726,-1.3346,3.3948,3.897
127.646000,-1.4587,-1.3409,3.3740,3.913
127.646000,-1.4187,-1.3294,3.3712,3.892
127.646000,-1.2269,-1.1665,3.4082,3.806
127.646000,-1.0983,-1.0005,3.4251,3.733
127.647000,-0.9342,-0.9726,3.4266,3.682
127.653000,-0.7227,-0.9102,3.4747,3.664
127.654000,-0.5643,-0.8116,3.5268,3.663
127.654000,-0.4414,-0.7219,3.3746,3.479
127.654000,-0.4352,-0.7032,3.1185,3.226
127.654000,-0.3954,-0.6165,2.9476,3.037
127.654000,-0.3607,-0.5576,2.6874,2.768
127.654000,-0.3410,-0.5216,2.3833,2.463
127.655000,-0.2882,-0.4937,2.1903,2.264
127.655000,-0.2043,-0.4593,2.0820,2.142
127.655000,-0.1324,-0.4640,1.9147,1.975
127.655000,-0.0527,-0.5122,1.7289,1.804
127.655000,-0.0177,-0.6086,1.5197,1.637
127.655000,0.0256,-0.6454,1.2655,1.421
127.655000,0.0363,-0.6725,0.9111,1.133
127.656000,-0.0238,-0.6852,0.6335,0.934
127.656000,-0.0643,-0.7167,0.4254,0.836
127.656000,-0.0634,-0.7694,0.2005,0.798
127.656000,-0.0500,-0.8216,-0.0508,0.825
127.656000,-0.0772,-0.8614,-0.2614,0.903
127.656000,-0.0731,-0.9200,-0.4576,1.030
127.656000,-0.0431,-0.9491,-0.5632,1.104
127.656000,-0.0303,-0.9469,-0.5874,1.115
127.657000,-0.0154,-0.9133,-0.5807,1.082
127.657000,0.0303,-0.8794,-0.5886,1.059
127.657000,0.0927,-0.8409,-0.5676,1.019
127.657000,0.1337,-0.7857,-0.6445,1.025
127.657000,0.1056,-0.7737,-0.7430,1.078
127.657000,0.0012,-0.7493,-0.8583,1.139
127.657000,-0.0310,-0.7414,-0.9832,1.232
127.658000,-0.1896,-0.7304,-1.0824,1.320
127.658000,-0.4193,-0.7547,-1.1606,1.446
127.658000,-0.6486,-0.7611,-1.2133,1.572
127.658000,-0.8849,-0.8072,-1.1856,1.685
127.658000,-1.0709,-0.8043,-1.2042,1.801
127.658000,-1.2670,-0.7862,-1.2331,1.935
127.658000,-1.4017,-0.7888,-1.1575,1.982
127.659000,-1.5305,-0.7237,-1.0777,2.007
127.659000,-1.6535,-0.7130,-1.0223,2.071
127.659000,-1.7113,-0.6803,-0.9290,2.063
127.659000,-1.7782,-0.6496,-0.8478,2.074
127.659000,-1.7061,-0.5634,-0.7144,1.934
127.659000,-1.6290,-0.5011,-0.5691,1.797
127.659000,-1.4723,-0.4074,-0.4361,1.589
127.660000,-1.3172,-0.2920,-0.2746,1.377
127.660000,-1.1538,-0.2315,-0.1445,1.186
127.660000,-1.0051,-0.1133,-0.0317,1.012
127.660000,-0.8805,-0.0470,-0.0083,0.882
127.660000,-0.7964,0.0058,0.0859,0.801
127.660000,-0.6971,0.0240,0.2598,0.744
127.660000,-0.5966,0.0387,0.4463,0.746
127.660000,-0.5278,0.0451,0.6598,0.846
127.661000,-0.4401,0.0361,0.9120,1.013
127.661000,-0.3311,-0.0077,1.1483,1.195
127.661000,-0.3198,-0.0914,1.3616,1.402
127.661000,-0.3923,-0.1529,1.4878,1.546
127.661000,-0.4604,-0.2473,1.5796,1.664
127.661000,-0.5270,-0.3702,1.6424,1.764
127.661000,-0.6234,-0.4499,1.7192,1.883
127.662000,-0.6733,-0.5440,1.7817,1.981
127.662000,-0.7083,-0.6598,1.7918,2.037
127.662000,-0.7691,-0.7639,1.8789,2.169
127.662000,-0.8580,-0.8616,1.9426,2.292
127.662000,-0.9441,-0.9409,1.9593,2.370
127.662000,-1.0558,-1.0524,1.9006,2.415
127.663000,-1.1768,-1.1578,1.8121,2.451
127.663000,-1.2740,-1.2331,1.6268,2.406
127.663000,-1.3806,-1.3190,1.4213,2.380
127.663000,-1.4756,-1.3675,1.1716,2.328
127.663000,-1.5855,-1.4189,0.9827,2.344
127.664000,-1.6600,-1.4444,0.7611,2.328
127.664000,-1.7066,-1.4536,0.5786,2.315
127.664000,-1.6990,-1.4439,0.4851,2.282
127.664000,-1.6564,-1.3985,0.3825,2.201
127.664000,-1.6629,-1.3535,0.2589,2.160
127.664000,-1.6395,-1.3781,0.1620,2.148
127.664000,-1.6676,-1.3476,0.1515,2.149
127.664000,-1.6584,-1.3411,0.1458,2.138
127.665000,-1.6525,-1.3274,0.2599,2.135
127.665000,-1.6138,-1.3112,0.3403,2.107
127.665000,-1.5449,-1.2688,0.4494,2.049
127.665000,-1.5029,-1.2099,0.5036,1.994
127.665000,-1.5283,-1.2063,0.5795,2.031
127.666000,-1.5111,-1.2317,0.6246,2.047
127.666000,-1.5757,-1.2168,0.5577,2.067
127.666000,-1.5024,-1.1498,0.5775,1.978
127.666000,-1.3296,-1.0548,0.4855,1.765
127.666000,-1.4227,-1.0364,0.2670,1.780
127.666000,-1.4633,-1.0322,0.2064,1.803
127.667000,-1.3994,-0.9273,0.1600,1.686
127.667000,-1.3269,-0.7123,0.1423,1.513
127.667000,-1.2316,-0.5668,0.0743,1.358
127.667000,-1.2520,-0.5240,-0.0704,1.359
127.667000,-1.2400,-0.5450,-0.0983,1.358
127.667000,-1.1505,-0.5079,0.0287,1.258
127.667000,-1.0409,-0.4320,0.1574,1.138
127.668000,-0.7961,-0.3532,0.3310,0.932
127.668000,-0.5855,-0.2310,0.5182,0.815
127.668000,-0.3559,-0.1561,0.7095,0.809
127.668000,-0.1665,-0.0976,0.9142,0.934
127.668000,-0.0143,0.0091,1.1157,1.116
127.668000,0.1421,0.0589,1.2637,1.273
127.668000,0.2621,0.1209,1.2936,1.325
127.668000,0.2866,0.1047,1.2629,1.299
127.669000,0.2061,0.0582,1.0684,1.090
127.669000,0.1035,-0.0304,0.8254,0.832
127.669000,0.0283,-0.0221,0.7009,0.702
127.669000,0.0499,0.0881,0.8381,0.844
127.669000,0.2373,0.1347,1.1246,1.157
127.669000,0.4111,0.1627,1.3742,1.444
127.669000,0.6025,0.1882,1.6139,1.733
127.669000,0.8018,0.1774,1.6552,1.848
127.670000,0.8630,0.1923,1.5918,1.821
127.670000,0.8340,0.2162,1.5935,1.812
127.670000,0.8540,0.1968,1.5667,1.795
127.670000,0.9779,0.1531,1.6143,1.894
127.670000,1.1321,0.1166,1.6379,1.995
127.670000,1.1734,0.1250,1.7097,2.077
127.670000,1.1428,0.1449,1.7673,2.110
127.671000,1.0643,0.0612,1.7346,2.036
127.671000,0.9091,-0.0613,1.6068,1.847
127.671000,0.8039,-0.1871,1.4371,1.657
127.671000,0.6764,-0.2917,1.2203,1.425
127.671000,0.6172,-0.3371,0.9684,1.197
127.671000,0.4730,-0.4448,0.7029,0.957
127.671000,0.2839,-0.5047,0.4188,0.715
127.672000,0.1048,-0.5668,0.1804,0.604
127.672000,-0.0555,-0.6118,0.0403,0.616
127.672000,-0.2239,-0.6923,-0.0305,0.728
127.672000,-0.3024,-0.7652,-0.0104,0.823
127.672000,-0.3364,-0.8929,0.0456,0.955
127.672000,-0.3618,-0.9584,0.1519,1.036
127.672000,-0.3671,-0.9283,0.3110,1.046
127.672000,-0.3330,-0.9086,0.3392,1.025
127.673000,-0.2956,-0.8895,0.3729,1.009
127.673000,-0.2451,-0.8975,0.3739,1.003
127.673000,-0.1719,-0.8728,0.3446,0.954
127.673000,-0.1333,-0.8563,0.3067,0.919
127.673000,-0.0360,-0.9025,0.1978,0.925
127.673000,-0.0044,-0.8609,0.0204,0.861
127.673000,-0.0599,-0.8631,-0.1872,0.885
127.674000,-0.0807,-0.8607,-0.4636,0.981
127.674000,-0.0505,-0.8725,-0.6655,1.099
127.674000,-0.0148,-0.8745,-0.7552,1.155
127.674000,-0.0475,-0.8615,-0.8309,1.198
127.674000,-0.0649,-0.8692,-0.8307,1.204
127.674000,-0.0813,-0.8834,-0.7834,1.184
127.674000,-0.0489,-0.8656,-0.6844,1.105
127.674000,-0.0131,-0.8420,-0.5482,1.005
127.675000,0.0644,-0.8370,-0.3435,0.907
127.675000,0.1097,-0.8241,-0.0776,0.835
127.675000,0.2116,-0.8132,0.1877,0.861
127.675000,0.3056,-0.8238,0.3712,0.954
127.675000,0.4135,-0.8415,0.5067,1.066
127.675000,0.4632,-0.8642,0.6206,1.160
127.675000,0.5317,-0.8512,0.7324,1.242
127.675000,0.5302,-0.8865,0.8586,1.343
127.676000,0.5284,-0.9127,0.9088,1.392
127.676000,0.4854,-0.9730,0.9499,1.444
127.676000,0.4393,-1.0100,0.9367,1.446
127.676000,0.4020,-1.0593,0.9000,1.447
127.676000,0.3688,-1.1137,0.8995,1.478
127.676000,0.3828,-1.1132,0.8539,1.454
127.676000,0.4991,-1.1081,0.7559,1.431
127.676000,0.5645,-1.0242,0.8063,1.421
127.676000,0.5919,-0.8855,0.9023,1.396
127.677000,0.5718,-0.8359,0.9291,1.374
127.677000,0.5138,-0.9013,0.8725,1.356
127.677000,0.4152,-0.9859,0.8113,1.343
127.677000,0.3020,-1.0108,0.7480,1.293
127.677000,0.2101,-1.0453,0.6801,1.265
127.677000,0.1442,-1.0678,0.6219,1.244
127.677000,0.1640,-1.0615,0.5014,1.185
127.678000,0.2018,-1.0621,0.4407,1.168
127.678000,0.2601,-0.9335,0.4949,1.088
127.678000,0.2959,-0.8459,0.5467,1.050
127.678000,0.3831,-0.8327,0.6155,1.104
127.678000,0.4957,-0.8365,0.7514,1.229
127.678000,0.5959,-0.8357,0.7965,1.299
127.678000,0.6506,-0.8303,0.7653,1.303
127.678000,0.6481,-0.7989,0.7010,1.245
127.679000,0.6530,-0.8036,0.6752,1.236
127.679000,0.6775,-0.7676,0.5490,1.162
127.679000,0.7356,-0.7864,0.4993,1.187
127.679000,0.7606,-0.7810,0.3728,1.152
127.679000,0.8268,-0.7872,0.2939,1.179
127.679000,0.8506,-0.7856,0.2791,1.191
127.679000,0.8489,-0.7383,0.3000,1.164
127.680000,0.8502,-0.7242,0.1746,1.130
127.680000,0.8471,-0.6766,0.0326,1.085
127.680000,0.8412,-0.6457,-0.0999,1.065
127.680000,0.8207,-0.6478,-0.1130,1.052
127.680000,0.8241,-0.5991,-0.0789,1.022
127.680000,0.9520,-0.5810,-0.0883,1.119
127.680000,1.0014,-0.5624,-0.0123,1.149
127.680000,1.0276,-0.5719,0.0702,1.178
127.681000,1.0451,-0.5328,0.0776,1.176
127.681000,1.0086,-0.5171,0.1226,1.140
127.681000,0.9518,-0.5366,0.1860,1.108
127.681000,0.9464,-0.5195,0.1769,1.094
127.681000,0.9136,-0.5737,0.1719,1.092
127.681000,0.8843,-0.5891,0.1663,1.075
127.681000,0.7795,-0.6039,0.1722,1.001
127.681000,0.6732,-0.6518,0.1536,0.950
127.682000,0.6108,-0.6490,0.1132,0.898
127.682000,0.5823,-0.6986,0.1418,0.920
127.682000,0.5709,-0.7023,0.1605,0.919
127.682000,0.5455,-0.7178,0.2029,0.924
127.682000,0.4606,-0.7117,0.2499,0.884
127.682000,0.4429,-0.7341,0.1723,0.875
127.682000,0.4061,-0.7349,0.1068,0.846
127.682000,0.4144,-0.7235,0.0818,0.838
127.683000,0.4439,-0.7456,0.0305,0.868
127.683000,0.4446,-0.6932,0.0101,0.824
127.683000,0.4573,-0.6573,-0.0130,0.801
127.683000,0.4626,-0.6615,0.0495,0.809
127.683000,0.4585,-0.6129,0.0758,0.769
127.683000,0.4642,-0.6022,0.0778,0.764
127.683000,0.4555,-0.6175,0.0603,0.770
127.683000,0.4446,-0.6061,0.1478,0.766
127.684000,0.4889,-0.5705,0.2779,0.801
127.684000,0.4950,-0.5371,0.2976,0.789
127.684000,0.4870,-0.5132,0.3387,0.784
127.684000,0.4458,-0.5490,0.3104,0.772
127.684000,0.3737,-0.5920,0.1314,0.712
127.684000,0.3465,-0.5797,0.0722,0.679
127.684000,0.3190,-0.5194,0.1060,0.619
127.684000,0.3937,-0.5066,0.2137,0.676
127.684000,0.4584,-0.4795,0.3524,0.751
127.685000,0.5087,-0.4526,0.4815,0.834
127.685000,0.5155,-0.4643,0.6180,0.929
127.685000,0.5340,-0.5100,0.6497,0.984
127.685000,0.5613,-0.4843,0.6698,0.999
127.685000,0.7152,-0.3541,0.7957,1.127
127.685000,0.6168,-0.3412,0.6274,0.944
127.685000,0.4772,-0.5121,0.3056,0.764
127.685000,0.4459,-0.5289,0.1845,0.716
127.686000,0.3857,-0.4852,0.2039,0.652
127.686000,0.4639,-0.3499,0.3398,0.673
127.686000,0.5014,-0.2647,0.3700,0.677
127.686000,0.4815,-0.3131,0.5290,0.781
127.686000,0.6117,-0.2970,0.7335,1.000
127.686000,0.7338,-0.2241,0.8833,1.170
127.686000,0.7550,-0.2022,0.8973,1.190
127.686000,0.8355,-0.2290,0.9981,1.322
127.687000,1.0087,-0.1323,1.0040,1.429
127.687000,0.9637,-0.0388,0.9173,1.331
127.687000,0.8830,-0.1158,0.8576,1.236
127.687000,0.8907,-0.1214,0.9371,1.299
127.687000,0.8478,-0.0751,0.9980,1.312
127.687000,0.7236,-0.1347,0.9566,1.207
127.687000,0.6612,-0.1781,0.9039,1.134
127.687000,0.5767,-0.1694,0.9163,1.096
127.687000,0.5201,-0.1712,0.8722,1.030
127.688000,0.4766,-0.1356,0.7693,0.915
127.688000,0.4536,-0.1415,0.7175,0.861
127.688000,0.3964,-0.1645,0.6877,0.811
127.688000,0.4006,-0.1591,0.6582,0.787
127.688000,0.4956,-0.1299,0.7653,0.921
127.688000,0.5954,-0.0986,0.8532,1.045
127.688000,0.6191,-0.0937,0.8909,1.089
127.688000,0.6291,-0.0723,0.8545,1.064
127.689000,0.6086,-0.0582,0.7560,0.972
127.689000,0.5933,-0.0492,0.6556,0.886
127.689000,0.6117,-0.0521,0.5361,0.815
127.689000,0.6225,-0.0384,0.4790,0.786
127.689000,0.6094,-0.0030,0.4985,0.787
127.689000,0.5985,-0.0443,0.5155,0.791
127.689000,0.6164,-0.0543,0.5564,0.832
127.690000,0.6388,-0.0621,0.6381,0.905
127.690000,0.6136,-0.1060,0.7055,0.941
127.690000,0.5835,-0.1383,0.7277,0.943
127.690000,0.5918,-0.1686,0.7766,0.991
127.690000,0.5908,-0.2017,0.7541,0.979
127.690000,0.5875,-0.2040,0.7200,0.951
127.690000,0.6155,-0.2328,0.7148,0.972
127.691000,0.5791,-0.2472,0.6091,0.876
127.691000,0.5001,-0.2688,0.5371,0.782
127.691000,0.4503,-0.3119,0.4627,0.717
127.691000,0.3671,-0.3045,0.4480,0.654
127.691000,0.3513,-0.3449,0.5194,0.716
127.691000,0.3980,-0.3685,0.5164,0.749
127.691000,0.4331,-0.3943,0.5659,0.814
127.691000,0.4472,-0.4059,0.6274,0.871
127.692000,0.4350,-0.4058,0.6174,0.857
127.692000,0.4183,-0.4562,0.5956,0.859
127.692000,0.3635,-0.4542,0.5024,0.769
127.692000,0.2969,-0.4834,0.4453,0.721
127.692000,0.2830,-0.5081,0.4005,0.706
127.692000,0.2687,-0.5449,0.3367,0.695
127.692000,0.2516,-0.5816,0.2756,0.691
127.692000,0.2319,-0.5419,0.2050,0.624
127.693000,0.2312,-0.5594,0.1845,0.633
127.693000,0.2473,-0.5864,0.2142,0.671
127.693000,0.2828,-0.5892,0.1936,0.682
127.693000,0.3136,-0.5896,0.2206,0.703
127.693000,0.2970,-0.6065,0.1853,0.700
127.693000,0.2952,-0.6139,0.1834,0.705
127.693000,0.2842,-0.6115,0.1312,0.687
127.693000,0.2807,-0.6185,0.0310,0.680
127.694000,0.2271,-0.5871,-0.0549,0.632
127.694000,0.2287,-0.5937,-0.1170,0.647
127.694000,0.2159,-0.5881,-0.1506,0.644
127.694000,0.2172,-0.5798,-0.1580,0.639
127.694000,0.2017,-0.5616,-0.1538,0.616
127.694000,0.1573,-0.5671,-0.1451,0.606
127.694000,0.1270,-0.5747,-0.1581,0.609
127.694000,0.1084,-0.6154,-0.1618,0.646
127.695000,0.1135,-0.6055,-0.0845,0.622
127.695000,0.1353,-0.5903,-0.0412,0.607
127.695000,0.1592,-0.6059,0.0232,0.627
127.695000,0.2239,-0.6066,0.1803,0.671
127.695000,0.2935,-0.5422,0.3367,0.702
127.695000,0.3827,-0.5301,0.5022,0.824
127.695000,0.4677,-0.5107,0.6600,0.957
127.695000,0.5128,-0.5152,0.8988,1.156
127.695000,0.5038,-0.5127,0.9724,1.209
127.696000,0.4357,-0.5153,0.9409,1.158
127.696000,0.3609,-0.5731,0.9503,1.167
127.696000,0.2841,-0.5882,0.9432,1.147
127.696000,0.2506,-0.5939,0.9578,1.155
127.696000,0.1933,-0.6025,0.9490,1.141
127.696000,0.1385,-0.5971,0.9309,1.115
127.696000,0.0694,-0.6353,0.8799,1.088
127.696000,-0.0070,-0.6524,0.7959,1.029
127.697000,-0.0859,-0.6555,0.7339,0.988
127.697000,-0.1388,-0.6996,0.6460,0.962
127.697000,-0.1322,-0.6795,0.4917,0.849
127.697000,-0.1622,-0.6954,0.3187,0.782
127.697000,-0.1379,-0.6803,0.1938,0.721
127.697000,-0.0832,-0.6436,0.0738,0.653
127.697000,0.0043,-0.5780,0.0016,0.578
127.697000,0.1200,-0.5192,-0.0134,0.533
127.698000,0.1946,-0.4791,0.0046,0.517
127.698000,0.2525,-0.4292,0.0032,0.498
127.698000,0.3246,-0.3859,0.0275,0.505
127.698000,0.3920,-0.3638,0.1304,0.550
127.698000,0.4645,-0.3459,0.2803,0.643
127.698000,0.5066,-0.3109,0.3938,0.713
127.698000,0.5566,-0.3261,0.4878,0.809
127.698000,0.4757,-0.3459,0.5458,0.802
127.698000,0.4098,-0.3540,0.4961,0.734
127.699000,0.2892,-0.3670,0.4467,0.646
127.699000,0.2139,-0.3898,0.3617,0.573
127.699000,0.1454,-0.4367,0.3009,0.550
127.699000,0.1049,-0.4597,0.3050,0.562
127.699000,0.0924,-0.4181,0.3282,0.540
127.699000,0.0960,-0.4532,0.2823,0.542
127.699000,0.1252,-0.4666,0.3080,0.573
127.699000,0.1037,-0.4393,0.3481,0.570
127.699000,0.1371,-0.4120,0.3834,0.579
127.700000,0.1871,-0.3873,0.4139,0.597
127.700000,0.1914,-0.4343,0.4589,0.660
127.700000,0.2077,-0.4504,0.3149,0.588
127.700000,0.1832,-0.4354,0.2095,0.517
127.700000,0.2204,-0.4372,0.1904,0.525
127.700000,0.3172,-0.4102,0.1592,0.542
127.700000,0.3586,-0.3878,0.2332,0.577
127.700000,0.4553,-0.3581,0.2950,0.650
127.700000,0.5280,-0.3476,0.3111,0.705
127.701000,0.5074,-0.3204,0.3896,0.715
127.701000,0.4750,-0.3102,0.4322,0.713
127.701000,0.4763,-0.3144,0.4558,0.730
127.701000,0.4346,-0.3021,0.4459,0.692
127.701000,0.3881,-0.2948,0.4651,0.674
127.701000,0.3489,-0.3094,0.4366,0.639
127.701000,0.2907,-0.3480,0.3629,0.581
127.701000,0.2298,-0.3749,0.3158,0.541
127.702000,0.1784,-0.3706,0.2976,0.508
127.702000,0.1744,-0.3831,0.3367,0.539
127.702000,0.1292,-0.3910,0.2470,0.480
127.702000,0.1529,-0.3655,0.2053,0.446
127.702000,0.1711,-0.3376,0.1900,0.423
127.702000,0.2746,-0.3145,0.1628,0.448
127.702000,0.3777,-0.2722,0.2122,0.512
127.703000,0.4971,-0.2395,0.2782,0.618
127.703000,0.5829,-0.1948,0.3466,0.706
127.703000,0.6856,-0.1740,0.3669,0.797
127.703000,0.7529,-0.1462,0.4040,0.867
127.703000,0.8086,-0.1423,0.4338,0.929
127.703000,0.8389,-0.1694,0.4681,0.975
127.703000,0.7934,-0.1916,0.5309,0.974
127.703000,0.7587,-0.2328,0.5528,0.967
127.703000,0.7274,-0.2358,0.5507,0.942
127.704000,0.6778,-0.2508,0.5199,0.890
127.704000,0.5259,-0.2874,0.4605,0.756
127.704000,0.4535,-0.3338,0.3607,0.669
127.704000,0.3741,-0.3491,0.2515,0.570
127.704000,0.2827,-0.4076,0.2406,0.551
127.704000,0.2246,-0.4519,0.1654,0.531
127.704000,0.1803,-0.4269,-0.0052,0.463
127.704000,0.2094,-0.4115,-0.0391,0.463
127.704000,0.2592,-0.4319,0.0346,0.505
127.705000,0.3014,-0.4163,0.1416,0.533
127.705000,0.4030,-0.3935,0.2151,0.603
127.705000,0.4570,-0.3684,0.2765,0.649
127.705000,0.4920,-0.3507,0.2327,0.647
127.705000,0.4843,-0.3400,0.1697,0.616
127.705000,0.5151,-0.3099,0.1759,0.626
127.705000,0.5057,-0.2916,0.1769,0.610
127.706000,0.5185,-0.3063,0.1799,0.629
127.706000,0.5271,-0.3374,0.1752,0.650
127.706000,0.5172,-0.3489,0.1534,0.642
127.706000,0.5434,-0.3815,0.1886,0.690
127.706000,0.5266,-0.3827,0.2426,0.695
127.706000,0.5270,-0.3934,0.3419,0.741
127.706000,0.5468,-0.3968,0.4434,0.808
127.706000,0.5476,-0.4051,0.5017,0.846
127.706000,0.5390,-0.4158,0.5337,0.865
127.707000,0.5352,-0.4458,0.5658,0.897
127.707000,0.4908,-0.4664,0.5980,0.903
127.707000,0.4418,-0.4799,0.6709,0.936
127.707000,0.4409,-0.5198,0.6985,0.976
127.707000,0.4021,-0.4978,0.6927,0.943
127.707000,0.3397,-0.5143,0.6464,0.893
127.707000,0.2490,-0.5741,0.5979,0.865
127.707000,0.1728,-0.6123,0.5210,0.822
127.708000,0.1085,-0.6243,0.4394,0.771
127.708000,0.0821,-0.6579,0.3126,0.733
127.708000,0.0887,-0.6532,0.2124,0.693
127.708000,0.1068,-0.6150,0.0836,0.630
127.708000,0.1817,-0.6125,0.0602,0.642
127.708000,0.2824,-0.5886,0.0607,0.656
127.708000,0.3230,-0.5525,0.0491,0.642
127.708000,0.3489,-0.5259,0.0542,0.633
127.708000,0.3435,-0.5305,0.0235,0.632
127.709000,0.3355,-0.5160,0.0264,0.616
127.709000,0.3464,-0.5252,0.0028,0.629
127.709000,0.3404,-0.5414,-0.0544,0.642
127.709000,0.3846,-0.5503,-0.0758,0.676
127.709000,0.4214,-0.5348,-0.0497,0.683
127.709000,0.4201,-0.5285,0.0046,0.675
127.709000,0.4213,-0.5025,0.0657,0.659
127.709000,0.4491,-0.5073,0.1095,0.686
127.709000,0.4676,-0.5334,0.1075,0.717
127.710000,0.4836,-0.4970,0.1771,0.716
127.710000,0.5045,-0.4319,0.2608,0.713
127.710000,0.4993,-0.4025,0.3228,0.718
127.710000,0.5303,-0.4068,0.3895,0.774
127.710000,0.5399,-0.4208,0.4467,0.817
127.710000,0.4993,-0.4210,0.4421,0.789
127.710000,0.4128,-0.4240,0.4046,0.717
127.710000,0.3453,-0.4348,0.3533,0.658
127.710000,0.2940,-0.4296,0.2789,0.591
127.711000,0.2611,-0.4797,0.1834,0.576
127.711000,0.2491,-0.4918,0.0382,0.553
127.711000,0.2531,-0.4393,-0.0732,0.512
127.711000,0.2779,-0.4154,-0.1295,0.516
127.711000,0.3476,-0.3769,-0.1717,0.541
127.711000,0.3981,-0.3164,-0.1544,0.531
127.711000,0.4295,-0.3129,-0.0731,0.536
127.711000,0.4372,-0.3375,-0.0187,0.553
127.711000,0.5314,-0.2757,0.0352,0.600
127.711000,0.5997,-0.2399,0.0983,0.653
127.712000,0.6708,-0.2111,0.2615,0.750
127.712000,0.6871,-0.1586,0.3074,0.769
127.712000,0.7015,-0.1613,0.3079,0.783
127.712000,0.6467,-0.1547,0.2703,0.718
127.712000,0.5705,-0.1553,0.2926,0.660
127.712000,0.5281,-0.1607,0.2670,0.613
127.712000,0.4690,-0.1469,0.2941,0.573
127.712000,0.4533,-0.1833,0.3831,0.621
127.713000,0.3995,-0.2218,0.3499,0.576
127.713000,0.3629,-0.2100,0.3980,0.578
127.713000,0.2880,-0.2436,0.4077,0.555
127.713000,0.2111,-0.2342,0.4509,0.550
127.713000,0.2108,-0.2703,0.5227,0.625
127.713000,0.1915,-0.2754,0.5253,0.623
127.713000,0.1530,-0.3213,0.4539,0.577
127.714000,0.1524,-0.3171,0.4067,0.538
127.714000,0.1514,-0.3271,0.4384,0.568
127.714000,0.1502,-0.3396,0.5108,0.632
127.714000,0.2016,-0.2997,0.5953,0.696
127.714000,0.2387,-0.2914,0.6968,0.792
127.714000,0.2660,-0.3003,0.7580,0.858
127.714000,0.2696,-0.2835,0.7048,0.806
127.714000,0.2538,-0.2577,0.5853,0.688
127.715000,0.2022,-0.2681,0.5044,0.606
127.715000,0.2080,-0.2738,0.3711,0.506
127.715000,0.2020,-0.2316,0.3814,0.490
127.715000,0.2393,-0.2299,0.4154,0.532
127.715000,0.1980,-0.2567,0.4084,0.521
127.715000,0.1381,-0.2617,0.3940,0.493
127.715000,0.1479,-0.2522,0.4344,0.524
127.715000,0.1364,-0.2616,0.4818,0.565
127.715000,0.1277,-0.2781,0.5314,0.613
127.716000,0.1310,-0.2851,0.5594,0.641
127.716000,0.1895,-0.2707,0.5373,0.631
127.716000,0.1905,-0.2757,0.5417,0.637
127.716000,0.1628,-0.3024,0.5177,0.621
127.716000,0.1352,-0.2981,0.4531,0.559
127.716000,0.1337,-0.3179,0.4079,0.534
127.716000,0.1295,-0.3402,0.3151,0.481
127.716000,0.1632,-0.3294,0.3184,0.486
127.717000,0.2228,-0.3258,0.3099,0.502
127.717000,0.2511,-0.3079,0.3110,0.505
127.717000,0.2651,-0.2926,0.3385,0.520
127.717000,0.2673,-0.3252,0.3159,0.526
127.717000,0.2457,-0.3196,0.2933,0.498
127.717000,0.2629,-0.3546,0.2420,0.503
127.717000,0.2401,-0.3656,0.1491,0.462
127.717000,0.2198,-0.3786,0.0829,0.446
127.717000,0.2020,-0.3272,0.0456,0.387
127.718000,0.2200,-0.3329,0.0795,0.407
127.718000,0.2687,-0.3264,0.0489,0.426
127.718000,0.2649,-0.3221,0.1013,0.429
127.718000,0.2685,-0.3534,0.1626,0.473
127.718000,0.2744,-0.3462,0.2163,0.492
127.718000,0.2518,-0.3272,0.1982,0.458
127.718000,0.2412,-0.2822,0.1897,0.417
127.718000,0.2282,-0.3231,0.2265,0.456
127.718000,0.2082,-0.3352,0.2842,0.486
127.718000,0.2314,-0.3328,0.3130,0.512
127.719000,0.2499,-0.3424,0.3462,0.547
127.719000,0.2374,-0.3615,0.4030,0.591
127.719000,0.2062,-0.3688,0.3574,0.553
127.719000,0.1749,-0.3976,0.2721,0.513
127.719000,0.2030,-0.3669,0.2042,0.466
127.719000,0.2282,-0.3579,0.1868,0.464
127.719000,0.2575,-0.3704,0.1460,0.474
127.719000,0.2864,-0.3235,0.1625,0.462
127.719000,0.3028,-0.3270,0.1268,0.463
127.720000,0.3550,-0.2949,0.0796,0.468
127.720000,0.3427,-0.2702,0.0589,0.440
127.720000,0.3331,-0.3071,0.0499,0.456
127.720000,0.3095,-0.2937,0.0812,0.434
127.720000,0.2725,-0.3538,0.0051,0.447
127.720000,0.2242,-0.2919,-0.0636,0.374
127.720000,0.1885,-0.3083,-0.1394,0.387
127.720000,0.1553,-0.3432,-0.1319,0.399
127.720000,0.1319,-0.3084,-0.0631,0.341
127.721000,0.1582,-0.2949,0.0405,0.337
127.721000,0.2364,-0.2718,0.1145,0.378
127.721000,0.2735,-0.2370,0.2022,0.415
127.721000,0.3153,-0.2073,0.3057,0.486
127.721000,0.3164,-0.1851,0.4180,0.556
127.721000,0.2488,-0.2295,0.4130,0.534
127.721000,0.2270,-0.2335,0.4605,0.564
127.721000,0.2009,-0.2921,0.4578,0.579
127.721000,0.1346,-0.3102,0.4648,0.575
127.721000,0.1093,-0.3236,0.4720,0.583
127.722000,0.0509,-0.3585,0.4081,0.546
127.722000,-0.0003,-0.3625,0.3165,0.481
127.722000,-0.0230,-0.3904,0.2474,0.463
127.722000,-0.0297,-0.3826,0.2146,0.440
127.722000,0.0058,-0.3298,0.2107,0.391
127.722000,0.0264,-0.3250,0.2639,0.419
127.722000,0.0776,-0.2655,0.3261,0.428
127.722000,0.1473,-0.2495,0.3809,0.479
127.722000,0.1667,-0.1957,0.4091,0.483
127.723000,0.1959,-0.2066,0.3778,0.473
127.723000,0.1848,-0.1820,0.2971,0.394
127.723000,0.1693,-0.1885,0.2336,0.345
127.723000,0.1609,-0.1902,0.1802,0.307
127.723000,0.1761,-0.1514,0.0868,0.248
127.723000,0.2312,-0.1343,0.0583,0.274
127.723000,0.2548,-0.0865,0.0490,0.273
127.723000,0.2968,-0.0721,0.0754,0.315
127.723000,0.3218,-0.0767,0.0635,0.337
127.724000,0.3180,-0.0195,0.0635,0.325
127.724000,0.3617,-0.0338,0.0609,0.368
127.724000,0.3244,-0.0289,0.1033,0.342
127.724000,0.3114,-0.0189,0.1689,0.355
127.724000,0.3201,-0.0421,0.2028,0.381
127.724000,0.2889,-0.0412,0.2220,0.367
127.724000,0.3178,-0.0473,0.2693,0.419
127.724000,0.2851,-0.0698,0.3066,0.424
127.724000,0.2461,-0.0566,0.3745,0.452
127.724000,0.2339,-0.0983,0.4229,0.493
127.725000,0.1818,-0.1068,0.4261,0.475
127.725000,0.1518,-0.1298,0.3107,0.369
127.725000,0.1104,-0.1647,0.0991,0.222
127.725000,0.0191,-0.1876,0.0248,0.190
127.725000,0.0207,-0.2078,-0.0275,0.211
127.725000,0.0335,-0.2158,-0.0390,0.222
127.725000,0.0529,-0.2002,-0.0432,0.212
127.726000,0.0525,-0.1754,-0.0400,0.187
127.726000,0.0444,-0.1627,-0.0389,0.173
127.726000,0.0903,-0.1765,-0.0804,0.214
127.726000,0.1495,-0.1712,-0.0787,0.241
127.726000,0.1767,-0.1541,-0.0247,0.236
127.726000,0.2014,-0.1155,-0.0212,0.233
127.726000,0.2690,-0.1410,0.0413,0.307
127.726000,0.2963,-0.1041,0.1051,0.331
127.726000,0.3314,-0.1193,0.1062,0.368
127.726000,0.3647,-0.0746,0.1091,0.388
127.727000,0.3058,-0.0776,0.1451,0.347
127.727000,0.2620,-0.0877,0.1450,0.312
127.727000,0.2140,-0.1024,0.0951,0.256
127.727000,0.2305,-0.0863,0.1146,0.271
127.727000,0.2159,-0.1108,0.1150,0.269
127.727000,0.1965,-0.1116,0.1632,0.279
127.727000,0.1297,-0.1364,0.1684,0.253
127.727000,0.0870,-0.1709,0.1811,0.264
127.727000,0.0253,-0.1865,0.1917,0.269
127.728000,-0.0125,-0.1952,0.1408,0.241
127.728000,-0.0808,-0.2158,0.0288,0.232
127.728000,-0.1653,-0.2623,-0.0895,0.323
127.728000,-0.2187,-0.2796,-0.1928,0.404
127.728000,-0.2646,-0.2867,-0.2411,0.459
127.728000,-0.2490,-0.2386,-0.3036,0.459
127.728000,-0.1674,-0.2235,-0.2189,0.355
127.728000,-0.0682,-0.2103,-0.1115,0.248
127.728000,0.0558,-0.1256,0.0399,0.143
127.729000,0.2277,-0.0681,0.2270,0.329
127.729000,0.3541,-0.0679,0.3732,0.519
127.729000,0.4378,-0.0249,0.5671,0.717
127.729000,0.4168,-0.0274,0.7273,0.839
127.729000,0.4038,-0.0112,0.8756,0.964
127.729000,0.3701,-0.0170,0.9283,1.000
127.729000,0.2966,-0.0498,0.9551,1.001
127.729000,0.2000,-0.0495,0.9271,0.950
127.729000,0.1590,-0.1143,0.8661,0.888
127.729000,0.0539,-0.1603,0.7386,0.758
127.730000,-0.0245,-0.2067,0.5182,0.558
127.730000,-0.0789,-0.2342,0.4060,0.475
127.730000,-0.1361,-0.2330,0.3084,0.410
127.730000,-0.1796,-0.2751,0.2136,0.392
127.730000,-0.2001,-0.2814,0.1406,0.373
127.730000,-0.2021,-0.2661,0.0153,0.334
127.730000,-0.2049,-0.2532,-0.0501,0.330
127.730000,-0.1318,-0.2211,-0.0818,0.270
127.730000,-0.0592,-0.1890,-0.0969,0.220
127.731000,-0.0492,-0.1589,-0.1026,0.195
127.731000,0.0061,-0.1525,-0.1277,0.199
127.731000,0.0423,-0.1624,-0.1267,0.210
127.731000,0.1145,-0.1530,-0.1571,0.247
127.731000,0.1218,-0.1286,-0.1783,0.251
127.731000,0.1624,-0.1038,-0.1426,0.240
127.731000,0.2368,-0.1000,-0.0429,0.261
127.731000,0.2734,-0.0477,0.0347,0.280
127.731000,0.2962,-0.0262,0.1834,0.349
127.731000,0.2743,-0.0665,0.3674,0.463
127.732000,0.2199,-0.0516,0.4982,0.547
127.732000,0.2379,-0.0558,0.5882,0.637
127.732000,0.3185,-0.0602,0.6542,0.730
127.732000,0.3184,-0.0364,0.7276,0.795
127.732000,0.2926,0.0009,0.7251,0.782
127.732000,0.1808,-0.0081,0.6706,0.695
127.732000,0.0668,-0.0491,0.5476,0.554
127.733000,-0.0618,-0.1410,0.3969,0.426
127.733000,-0.1719,-0.1571,0.1993,0.307
127.733000,-0.2615,-0.1617,0.0264,0.309
127.733000,-0.2945,-0.2264,-0.0169,0.372
127.733000,-0.3141,-0.2144,-0.1125,0.397
127.733000,-0.2577,-0.2025,-0.2485,0.411
127.733000,-0.1613,-0.1902,-0.2747,0.371
127.733000,-0.0797,-0.1678,-0.2151,0.284
127.733000,-0.0245,-0.1043,-0.0987,0.146
127.733000,0.0765,-0.0619,-0.0403,0.106
127.734000,0.1920,-0.0766,0.0345,0.210
127.734000,0.2839,-0.0457,0.1639,0.331
127.734000,0.3236,-0.0505,0.2285,0.399
127.734000,0.3710,-0.0482,0.3168,0.490
127.734000,0.3807,-0.0341,0.3118,0.493
127.734000,0.3166,-0.0417,0.2519,0.407
127.734000,0.3195,-0.0232,0.2616,0.414
127.734000,0.3178,-0.0335,0.2785,0.424
127.734000,0.2734,-0.0298,0.2837,0.395
127.735000,0.3081,-0.0022,0.3750,0.485
127.735000,0.3476,0.0083,0.4162,0.542
127.735000,0.3254,-0.0294,0.4074,0.522
127.735000,0.2916,-0.0603,0.2674,0.400
127.735000,0.2052,-0.0268,0.1325,0.246
127.735000,0.1116,-0.0293,0.0409,0.122
127.735000,0.0608,-0.0770,0.0091,0.099
127.735000,0.0649,-0.1080,-0.0178,0.127
127.735000,0.0545,-0.1292,-0.0472,0.148
127.735000,0.0847,-0.1407,-0.0599,0.175
127.736000,0.1290,-0.1522,-0.0869,0.218
127.736000,0.1252,-0.1445,-0.1378,0.236
127.736000,0.1330,-0.1584,-0.1694,0.267
127.736000,0.1405,-0.1507,-0.2033,0.289
127.736000,0.1785,-0.1239,-0.2491,0.331
127.736000,0.2182,-0.0777,-0.2376,0.332
127.736000,0.2600,-0.0649,-0.2214,0.348
127.736000,0.2944,-0.0255,-0.1863,0.349
127.737000,0.3455,-0.0120,-0.1206,0.366
127.737000,0.3777,0.0137,0.0046,0.378
127.737000,0.4462,-0.0082,0.1747,0.479
127.737000,0.4843,-0.0157,0.3158,0.578
127.737000,0.5400,-0.0090,0.4591,0.709
127.737000,0.5584,-0.0098,0.4661,0.727
127.737000,0.4508,-0.0611,0.3919,0.600
127.737000,0.3008,-0.1318,0.3037,0.447
127.737000,0.1753,-0.1884,0.2325,0.347
127.737000,0.0736,-0.2236,0.0804,0.249
127.738000,-0.0359,-0.2974,-0.0663,0.307
127.738000,-0.1292,-0.3140,-0.2030,0.396
127.738000,-0.1539,-0.3355,-0.3632,0.518
127.738000,-0.1722,-0.3856,-0.4824,0.641
127.738000,-0.2033,-0.3924,-0.4892,0.659
127.738000,-0.1536,-0.3919,-0.5629,0.703
127.738000,-0.1402,-0.3910,-0.5866,0.719
127.738000,-0.1250,-0.3853,-0.6987,0.808
127.738000,-0.0671,-0.4103,-0.7871,0.890
127.739000,-0.0025,-0.3917,-0.8423,0.929
127.739000,0.0929,-0.4013,-0.8643,0.957
127.739000,0.1427,-0.4007,-0.8749,0.973
127.739000,0.2090,-0.3494,-0.8906,0.979
127.739000,0.3138,-0.3430,-0.8113,0.935
127.739000,0.3590,-0.3026,-0.7134,0.854
127.739000,0.3232,-0.2929,-0.6137,0.753
127.739000,0.3285,-0.3069,-0.5861,0.739
127.739000,0.2336,-0.2966,-0.6043,0.713
127.740000,0.1098,-0.2765,-0.5844,0.656
127.740000,0.0360,-0.3109,-0.6271,0.701
127.740000,0.0048,-0.3541,-0.5723,0.673
127.740000,-0.0147,-0.3129,-0.3579,0.476
127.740000,-0.0441,-0.3043,-0.1467,0.341
127.740000,-0.0232,-0.3071,0.0708,0.316
127.740000,-0.0307,-0.2929,0.2638,0.395
127.740000,-0.0192,-0.2666,0.4063,0.486
127.740000,0.0162,-0.2451,0.5390,0.592
127.741000,0.0541,-0.2333,0.6932,0.733
127.741000,0.1230,-0.1881,0.7875,0.819
127.741000,0.2351,-0.1671,0.8914,0.937
127.741000,0.2924,-0.1657,1.0241,1.078
127.741000,0.3287,-0.1336,1.1331,1.187
127.741000,0.3345,-0.1093,1.1540,1.206
127.741000,0.2664,-0.1026,1.1705,1.205
127.741000,0.2321,-0.0822,1.1638,1.190
127.741000,0.1502,-0.0936,1.0476,1.062
127.742000,0.0777,-0.1126,0.9822,0.992
127.742000,0.0436,-0.1081,0.9220,0.929
127.742000,0.0332,-0.1039,0.8908,0.897
127.742000,0.0539,-0.0354,0.8934,0.896
127.742000,0.0793,-0.0293,0.9320,0.936
127.742000,0.0978,0.0028,1.0041,1.009
127.742000,0.1001,0.0490,0.9976,1.004
127.742000,0.1317,0.0180,0.9793,0.988
127.743000,0.1186,0.0299,0.9182,0.926
127.743000,0.1130,0.0389,0.8359,0.844
127.743000,0.0600,0.0570,0.6775,0.683
127.743000,0.0287,0.0485,0.5219,0.525
127.743000,0.0139,0.0206,0.3741,0.375
127.743000,0.0155,0.0307,0.2625,0.265
127.743000,0.0214,0.0551,0.1130,0.128
127.743000,0.0171,0.0483,0.0092,0.052
127.743000,0.0362,0.0487,0.0204,0.064
127.744000,0.1052,0.0443,-0.0139,0.115
127.744000,0.1977,0.0855,-0.0815,0.230
127.744000,0.2779,0.1363,-0.0512,0.314
127.744000,0.3171,0.1179,-0.0449,0.341
127.744000,0.3708,0.1381,-0.0773,0.403
127.744000,0.4224,0.1586,0.0121,0.451
127.744000,0.4506,0.1604,0.1129,0.491
127.744000,0.4604,0.1195,0.1605,0.502
127.744000,0.4661,0.1124,0.2675,0.549
127.745000,0.4776,0.0980,0.2834,0.564
127.745000,0.4585,0.0668,0.2874,0.545
127.745000,0.4017,0.0593,0.3226,0.519
127.745000,0.3358,0.0445,0.2933,0.448
127.745000,0.2608,0.0149,0.2380,0.353
127.745000,0.1811,-0.0102,0.1258,0.221
127.745000,0.1082,-0.0500,-0.0003,0.119
127.745000,0.0633,-0.0543,-0.1617,0.182
127.746000,-0.0064,-0.0898,-0.2820,0.296
127.746000,-0.0151,-0.0993,-0.3371,0.352
127.746000,0.0088,-0.1015,-0.3371,0.352
127.746000,0.0393,-0.0845,-0.3132,0.327
127.746000,0.1341,-0.0937,-0.3371,0.375
127.746000,0.1905,-0.0643,-0.3590,0.411
127.746000,0.1919,-0.0823,-0.3668,0.422
127.746000,0.1698,-0.0832,-0.3320,0.382
127.746000,0.2198,-0.0933,-0.3143,0.395
127.747000,0.2775,-0.0670,-0.3641,0.463
127.747000,0.2850,-0.0786,-0.3903,0.490
127.747000,0.2832,-0.0681,-0.3476,0.453
127.747000,0.2575,-0.0860,-0.2550,0.373
127.748000,0.2725,-0.1129,-0.1606,0.336
127.750000,0.3328,-0.0871,-0.0879,0.355
127.751000,0.3594,-0.0898,-0.0034,0.370
127.751000,0.3453,-0.0735,0.1575,0.387
127.751000,0.3360,-0.0621,0.2633,0.431
127.751000,0.2956,-0.0748,0.3811,0.488
127.751000,0.2388,-0.1141,0.4655,0.535
127.751000,0.1560,-0.1490,0.5143,0.558
127.752000,0.0734,-0.1772,0.4654,0.503
127.752000,-0.0426,-0.2465,0.4050,0.476
127.752000,-0.1058,-0.2753,0.3281,0.441
127.752000,-0.1572,-0.2635,0.2587,0.401
127.752000,-0.2156,-0.2735,0.1990,0.401
127.752000,-0.2215,-0.3362,0.0774,0.410
127.753000,-0.2565,-0.3462,-0.0655,0.436
127.753000,-0.2993,-0.3418,-0.2345,0.511
127.753000,-0.2233,-0.3087,-0.3387,0.510
127.753000,-0.1051,-0.2539,-0.3327,0.431
127.753000,0.0385,-0.2303,-0.2477,0.340
127.753000,0.1362,-0.1349,-0.2035,0.280
127.753000,0.1860,-0.1280,-0.2839,0.363
127.754000,0.2024,-0.1374,-0.2855,0.376
127.754000,0.1852,-0.1608,-0.3162,0.400
127.754000,0.1061,-0.1165,-0.2303,0.279
127.754000,0.1014,-0.1170,-0.0494,0.163
127.754000,0.0973,-0.1098,0.0995,0.177
127.754000,0.1058,-0.1427,0.2287,0.290
127.754000,0.0933,-0.1611,0.3360,0.384
127.755000,0.0455,-0.1961,0.4621,0.504
127.755000,-0.0091,-0.1881,0.4828,0.518
127.755000,-0.0252,-0.1588,0.5037,0.529
127.755000,-0.0413,-0.1634,0.5369,0.563
127.755000,-0.0432,-0.1778,0.5439,0.574
127.755000,-0.0404,-0.1569,0.5299,0.554
127.755000,-0.0474,-0.1842,0.5234,0.557
127.756000,-0.0665,-0.1617,0.4791,0.510
127.756000,-0.0428,-0.1734,0.4020,0.440
127.756000,-0.0052,-0.1832,0.3828,0.424
127.756000,0.0081,-0.1312,0.2852,0.314
127.756000,0.0546,-0.0821,0.2574,0.276
127.756000,0.0770,-0.0597,0.1510,0.180
127.757000,0.0396,-0.0399,-0.0173,0.059
127.757000,-0.0049,-0.0604,-0.1856,0.195
127.757000,-0.0039,-0.0683,-0.2251,0.235
127.757000,-0.0074,-0.0493,-0.2029,0.209
127.757000,0.0060,-0.0201,-0.1001,0.102
127.757000,0.0341,-0.0024,-0.0314,0.046
127.757000,0.0984,-0.0032,0.0295,0.103
127.758000,0.1200,0.0107,0.1067,0.161
127.758000,0.1875,0.0367,0.1573,0.248
127.758000,0.2433,0.0198,0.2747,0.367
127.758000,0.2275,0.0219,0.3728,0.437
127.758000,0.2813,0.0334,0.4231,0.509
127.758000,0.2850,0.0302,0.4712,0.551
127.758000,0.2481,-0.0022,0.5435,0.597
127.759000,0.2067,-0.0136,0.5517,0.589
127.759000,0.1487,0.0030,0.5125,0.534
127.759000,0.0643,-0.0408,0.5027,0.508
127.759000,0.0349,-0.0995,0.3978,0.412
127.759000,-0.0092,-0.0702,0.2289,0.240
127.759000,-0.0562,-0.0629,0.1181,0.145
127.759000,-0.0917,-0.0343,-0.0306,0.103
127.760000,-0.1321,-0.0558,-0.1672,0.220
127.760000,-0.1248,-0.0697,-0.2322,0.273
127.760000,-0.0912,-0.0688,-0.2761,0.299
127.760000,-0.0841,-0.0699,-0.3154,0.334
127.760000,-0.0435,-0.0609,-0.3359,0.344
127.760000,0.0327,-0.0300,-0.3472,0.350
127.760000,0.1447,-0.0106,-0.3469,0.376
127.761000,0.2252,0.0019,-0.3803,0.442
127.761000,0.3271,0.0410,-0.2298,0.402
127.761000,0.4027,0.0804,-0.1228,0.429
127.761000,0.4714,0.0388,-0.0044,0.473
127.761000,0.4591,0.0594,0.1425,0.484
127.761000,0.4447,0.0272,0.3085,0.542
127.762000,0.4093,0.0236,0.3811,0.560
127.762000,0.3597,-0.0090,0.4204,0.553
127.762000,0.2629,-0.0755,0.4694,0.543
127.762000,0.1952,-0.0968,0.4493,0.499
127.762000,0.1611,-0.1305,0.4177,0.466
127.762000,0.0624,-0.1549,0.3673,0.403
127.762000,0.0137,-0.1917,0.2742,0.335
127.763000,-0.0425,-0.2025,0.2128,0.297
127.763000,-0.0537,-0.1921,0.1518,0.251
127.763000,-0.0630,-0.1749,0.0314,0.188
127.763000,-0.0367,-0.1912,-0.0170,0.195
127.763000,-0.0106,-0.2219,-0.0724,0.234
127.763000,0.0128,-0.2001,-0.1635,0.259
127.763000,0.0240,-0.2140,-0.3311,0.395
127.764000,0.0253,-0.1702,-0.5059,0.534
127.764000,0.0547,-0.1667,-0.5874,0.613
127.764000,0.1336,-0.1338,-0.5690,0.600
127.764000,0.2194,-0.0763,-0.4555,0.511
127.764000,0.3029,-0.0613,-0.2423,0.393
127.764000,0.3844,-0.0482,-0.0705,0.394
127.764000,0.4305,-0.0636,0.0339,0.436
127.765000,0.3790,-0.0428,0.2144,0.438
127.765000,0.3379,-0.0603,0.3611,0.498
127.765000,0.3431,-0.0610,0.4093,0.538
127.765000,0.2486,-0.1070,0.5076,0.575
127.765000,0.2029,-0.1602,0.5315,0.591
127.766000,0.1314,-0.2017,0.5293,0.581
127.766000,0.0005,-0.2337,0.5726,0.619
127.766000,-0.0994,-0.2711,0.4944,0.573
127.766000,-0.1254,-0.2586,0.3953,0.489
127.766000,-0.1785,-0.2587,0.3279,0.454
127.766000,-0.1558,-0.2472,0.3113,0.427
127.767000,-0.1315,-0.2479,0.2544,0.379
127.767000,-0.1317,-0.2227,0.1884,0.320
127.767000,-0.1297,-0.2050,0.1011,0.263
127.767000,-0.1689,-0.2257,-0.0384,0.284
127.767000,-0.1797,-0.2223,-0.1443,0.320
127.767000,-0.1693,-0.2163,-0.2359,0.362
127.767000,-0.1425,-0.1932,-0.2679,0.360
127.768000,-0.1203,-0.1983,-0.2692,0.355
127.768000,-0.0237,-0.2028,-0.3405,0.397
127.768000,0.0085,-0.1684,-0.3141,0.357
127.768000,0.0219,-0.1358,-0.1975,0.241
127.768000,0.0692,-0.1435,-0.1484,0.218
127.768000,0.1742,-0.1151,-0.0541,0.216
127.769000,0.2196,-0.0509,0.0830,0.240
127.769000,0.2245,-0.0203,0.0741,0.237
127.769000,0.2079,-0.0184,0.1202,0.241
127.769000,0.2081,-0.0716,0.1854,0.288
127.769000,0.1462,-0.0339,0.2435,0.286
127.769000,0.1300,-0.0490,0.2274,0.266
127.769000,0.0661,-0.0787,0.3072,0.324
127.770000,0.0096,-0.0797,0.3582,0.367
127.770000,-0.0590,-0.0976,0.3327,0.352
127.770000,-0.0894,-0.1084,0.3147,0.345
127.770000,-0.0960,-0.1146,0.3685,0.398
127.770000,-0.1437,-0.1306,0.3651,0.414
127.770000,-0.1171,-0.1371,0.3786,0.419
127.770000,-0.0837,-0.1200,0.3732,0.401
127.771000,-0.0504,-0.0841,0.3203,0.335
127.771000,-0.0197,-0.0866,0.2962,0.309
127.771000,0.0873,-0.0631,0.3299,0.347
127.771000,0.1060,-0.0518,0.3109,0.333
127.771000,0.1297,-0.0096,0.2420,0.275
127.771000,0.1512,-0.0060,0.1614,0.221
127.771000,0.1536,0.0142,0.0163,0.155
127.772000,0.1488,0.0083,-0.0569,0.160
127.772000,0.1775,0.0264,-0.1062,0.209
127.772000,0.2061,0.0376,-0.0840,0.226
127.772000,0.2180,0.0372,-0.0429,0.225
127.772000,0.1872,0.0226,-0.0404,0.193
127.772000,0.1661,-0.0061,-0.0500,0.174
127.773000,0.0970,-0.0131,-0.0382,0.105
127.773000,0.0734,-0.0318,0.0404,0.090
127.773000,0.0834,-0.0359,0.1545,0.179
127.773000,0.1007,-0.0399,0.2349,0.259
127.773000,0.1230,-0.0558,0.3079,0.336
127.773000,0.1050,-0.0694,0.3546,0.376
127.773000,0.0537,-0.0784,0.3272,0.341
127.774000,0.0288,-0.0781,0.3456,0.355
127.774000,0.0299,-0.0829,0.2758,0.290
127.774000,0.0162,-0.0690,0.2495,0.259
127.774000,0.0283,-0.0625,0.1948,0.206
127.774000,0.0399,-0.0417,0.1762,0.185
127.774000,0.1018,-0.0498,0.1528,0.190
127.774000,0.1253,-0.0626,0.1463,0.203
127.775000,0.1323,-0.0636,0.1470,0.208
127.775000,0.1276,-0.0693,0.1429,0.204
127.775000,0.1507,-0.0629,0.0833,0.183
127.775000,0.1403,-0.0446,-0.0398,0.153
127.775000,0.1038,-0.0217,-0.0765,0.131
127.775000,0.0868,-0.0724,-0.0941,0.147
127.775000,0.0701,-0.1293,-0.1309,0.197
127.776000,0.1179,-0.1239,-0.1415,0.222
127.776000,0.1014,-0.1088,-0.1617,0.220
127.776000,0.0967,-0.1055,-0.1201,0.187
127.776000,0.0821,-0.0856,-0.1168,0.166
127.776000,0.0838,-0.0801,-0.0779,0.140
127.776000,0.1563,-0.0865,-0.0345,0.182
127.776000,0.1830,-0.0808,0.0274,0.202
127.777000,0.1737,-0.0679,0.1101,0.217
127.777000,0.1763,-0.0527,0.1184,0.219
127.777000,0.2101,-0.0613,0.2334,0.320
127.777000,0.1989,-0.0223,0.3711,0.422
127.777000,0.1668,-0.0240,0.4079,0.441
127.777000,0.1592,-0.0450,0.4114,0.443
127.777000,0.0880,-0.0613,0.3532,0.369
127.778000,0.0339,-0.1062,0.3004,0.320
127.778000,-0.0268,-0.1081,0.2458,0.270
127.778000,-0.0515,-0.1386,0.1824,0.235
127.778000,-0.0928,-0.1737,0.1266,0.234
127.778000,-0.0841,-0.1967,0.0620,0.223
127.778000,-0.0593,-0.2006,-0.0139,0.210
127.778000,-0.0233,-0.1785,-0.0819,0.198
127.779000,-0.0072,-0.2017,-0.0827,0.218
127.779000,0.0561,-0.1892,-0.1023,0.222
127.779000,0.0948,-0.1390,-0.1644,0.235
127.779000,0.0831,-0.1581,-0.1974,0.266
127.779000,0.1001,-0.1557,-0.2396,0.303
127.779000,0.0859,-0.1557,-0.2838,0.335
127.779000,0.0578,-0.1317,-0.3730,0.400
127.780000,0.0368,-0.1622,-0.4877,0.515
127.780000,0.0205,-0.1288,-0.5488,0.564
127.780000,0.0997,-0.0803,-0.5387,0.554
127.780000,0.1429,-0.0862,-0.4144,0.447
127.781000,0.1982,-0.0674,-0.2406,0.319
127.781000,0.2585,0.0117,-0.1155,0.283
127.781000,0.2833,0.0385,0.0737,0.295
127.781000,0.3160,0.0367,0.2385,0.398
127.781000,0.3349,0.0469,0.4006,0.524
127.781000,0.3498,0.0426,0.5387,0.644
127.781000,0.2601,0.0021,0.5739,0.630
127.782000,0.2092,-0.0221,0.5495,0.588
127.782000,0.1443,-0.0871,0.5326,0.559
127.782000,0.0676,-0.0806,0.4562,0.468
127.782000,-0.0261,-0.0842,0.3539,0.365
127.782000,-0.0532,-0.1311,0.3359,0.364
127.782000,-0.0810,-0.1375,0.2846,0.326
127.783000,-0.0542,-0.1130,0.2791,0.306
127.783000,-0.0568,-0.1033,0.3170,0.338
127.783000,0.0169,-0.1200,0.3430,0.364
127.783000,0.0759,-0.1057,0.3501,0.374
127.783000,0.0894,-0.0991,0.2882,0.318
127.783000,0.0767,-0.0544,0.2264,0.245
127.783000,0.1069,-0.0433,0.1409,0.182
127.784000,0.1276,-0.0273,0.1129,0.173
127.784000,0.1364,-0.0282,0.0848,0.163
127.784000,0.1981,0.0095,0.0471,0.204
127.784000,0.2263,-0.0220,0.1119,0.253
127.784000,0.2189,-0.0103,0.1311,0.255
127.784000,0.2285,0.0255,0.1406,0.269
127.784000,0.1690,0.0183,0.1236,0.210
127.785000,0.1336,0.0467,0.1044,0.176
127.785000,0.0768,0.0342,0.0902,0.123
127.785000,0.0459,0.0122,0.0019,0.048
127.785000,0.0530,-0.0146,-0.0168,0.057
127.785000,0.0837,-0.0127,-0.0498,0.098
127.785000,0.1071,-0.0106,-0.0016,0.108
127.786000,0.1737,0.0035,0.0274,0.176
127.786000,0.1829,0.0057,-0.0179,0.184
127.786000,0.1636,0.0439,-0.0322,0.172
127.786000,0.1756,0.0292,-0.0631,0.189
127.786000,0.1756,0.0362,-0.0581,0.188
127.786000,0.1277,-0.0263,-0.1343,0.187
127.786000,0.1467,-0.0217,-0.1818,0.235
127.787000,0.1559,-0.0172,-0.2602,0.304
127.787000,0.1601,-0.0269,-0.2334,0.284
127.787000,0.1378,-0.0053,-0.1494,0.203
127.787000,0.1326,0.0020,-0.1205,0.179
127.787000,0.0869,-0.0266,-0.0655,0.112
127.787000,0.1012,0.0119,-0.1349,0.169
127.787000,0.0937,0.0099,-0.1255,0.157
127.788000,0.0598,0.0057,-0.1616,0.172
127.788000,0.0661,0.0447,-0.1548,0.174
127.788000,0.1321,0.0699,0.0071,0.150
127.788000,0.1958,0.0570,0.1708,0.266
127.788000,0.2386,0.0731,0.3078,0.396
127.788000,0.2389,0.0963,0.3609,0.443
127.788000,0.1586,0.0883,0.4664,0.500
127.789000,0.0812,0.0371,0.5360,0.543
127.789000,0.0165,-0.0143,0.6082,0.609
127.789000,-0.0307,-0.0349,0.5297,0.532
127.789000,-0.0443,-0.0892,0.4922,0.502
127.789000,-0.1055,-0.1101,0.4931,0.516
127.789000,-0.1429,-0.1506,0.4442,0.490
127.789000,-0.1781,-0.1603,0.3694,0.440
127.790000,-0.2569,-0.1801,0.3095,0.441
127.790000,-0.2479,-0.1525,0.2790,0.403
127.790000,-0.2542,-0.1447,0.2299,0.372
127.790000,-0.2231,-0.1851,0.1408,0.322
127.790000,-0.2211,-0.1660,0.0639,0.284
127.790000,-0.2004,-0.1733,-0.0414,0.268
127.790000,-0.1990,-0.1588,-0.1682,0.305
127.791000,-0.1594,-0.1774,-0.2282,0.330
127.791000,-0.1318,-0.1788,-0.2408,0.328
127.791000,-0.1086,-0.1199,-0.2442,0.293
127.791000,-0.0255,-0.1132,-0.2552,0.280
127.791000,0.0097,-0.1086,-0.2211,0.247
127.791000,0.0281,-0.0654,-0.1849,0.198
127.791000,0.0751,-0.0604,-0.2779,0.294
127.792000,0.1432,-0.0003,-0.2178,0.261
127.792000,0.1871,0.0073,-0.0934,0.209
127.792000,0.1639,0.0390,-0.0171,0.169
127.792000,0.1411,0.0517,0.0040,0.150
127.792000,0.1114,-0.0097,0.0943,0.146
127.792000,0.0774,-0.0230,0.1914,0.208
127.792000,0.0460,-0.0291,0.1975,0.205
127.793000,-0.0258,-0.0449,0.2299,0.236
127.793000,-0.0447,-0.0846,0.2409,0.259
127.793000,-0.0705,-0.0887,0.2065,0.236
127.793000,-0.1201,-0.1217,0.1294,0.214
127.793000,-0.1458,-0.1570,0.0595,0.222
127.793000,-0.1885,-0.1661,-0.0102,0.251
127.793000,-0.2100,-0.1919,-0.1324,0.314
127.794000,-0.1868,-0.1506,-0.1324,0.274
127.794000,-0.1523,-0.1379,-0.1086,0.232
127.795000,-0.0560,-0.1061,-0.0536,0.131
127.795000,0.0281,-0.1246,0.0396,0.134
127.795000,0.0519,-0.1001,0.0515,0.124
127.795000,0.0208,-0.0687,0.0779,0.106
127.795000,0.0162,-0.0780,0.0852,0.117
127.795000,-0.0050,-0.0682,0.0446,0.082
127.795000,-0.0404,-0.0416,-0.0653,0.087
127.796000,-0.0518,-0.0338,-0.0775,0.099
127.796000,-0.0412,-0.0470,-0.0182,0.065
127.796000,0.0246,-0.0074,0.0550,0.061
127.796000,0.0572,0.0157,0.0226,0.064
127.796000,0.0901,0.0606,0.0594,0.124
127.796000,0.1561,0.0695,0.1105,0.204
127.796000,0.1764,0.0999,0.2167,0.297
127.797000,0.1942,0.1373,0.3778,0.446
127.797000,0.2649,0.1767,0.5127,0.603
127.797000,0.3165,0.1677,0.5927,0.693
127.797000,0.2897,0.1463,0.6540,0.730
127.797000,0.2464,0.1171,0.6175,0.675
127.797000,0.1318,0.1089,0.5146,0.542
127.797000,0.0819,0.0714,0.3644,0.380
127.797000,0.0010,0.0361,0.3151,0.317
127.798000,-0.0391,0.0199,0.1846,0.190
127.798000,-0.0073,0.0180,0.0878,0.090
127.798000,-0.0567,0.0139,-0.0090,0.059
127.798000,-0.0678,0.0171,-0.1346,0.152
127.798000,-0.0743,0.0444,-0.2267,0.243
127.798000,-0.0522,0.0147,-0.3021,0.307
127.798000,-0.0305,0.0164,-0.3562,0.358
127.798000,0.0267,0.0279,-0.3506,0.353
127.799000,0.0835,0.0397,-0.2663,0.282
127.799000,0.1213,0.0470,-0.1919,0.232
127.799000,0.1186,0.0447,-0.0746,0.147
127.799000,0.1208,0.0256,-0.0650,0.140
127.799000,0.0491,-0.0174,-0.1535,0.162
127.799000,-0.0275,-0.0530,-0.2061,0.215
127.799000,-0.0420,-0.0764,-0.1966,0.215
127.799000,-0.0016,-0.0683,-0.1182,0.136
127.800000,0.0413,-0.0646,-0.0042,0.077
127.800000,0.0892,-0.0964,0.1021,0.166
127.800000,0.1183,-0.0970,0.2152,0.264
127.800000,0.1071,-0.1045,0.3352,0.367
127.800000,0.0963,-0.1075,0.4337,0.457
127.800000,0.1026,-0.1085,0.5251,0.546
127.800000,0.1162,-0.0910,0.5380,0.558
127.800000,0.1181,-0.1147,0.4844,0.512
127.801000,0.1081,-0.1316,0.3689,0.406
127.801000,0.0335,-0.1130,0.2947,0.317
127.801000,-0.0481,-0.1473,0.2135,0.264
127.801000,-0.0413,-0.1483,0.1158,0.193
127.801000,-0.1017,-0.2020,-0.0078,0.226
127.801000,-0.1507,-0.2007,-0.1432,0.289
127.801000,-0.2530,-0.1729,-0.2377,0.388
127.801000,-0.2649,-0.2023,-0.2462,0.414
127.802000,-0.2581,-0.2216,-0.2478,0.421
127.802000,-0.2037,-0.1903,-0.2377,0.366
127.802000,-0.1804,-0.1946,-0.2112,0.339
127.802000,-0.0976,-0.2368,-0.1539,0.299
127.802000,-0.0386,-0.1952,-0.1781,0.267
127.802000,-0.0037,-0.1510,-0.1809,0.236
127.802000,0.0646,-0.1569,-0.1479,0.225
127.802000,0.0872,-0.1577,-0.1271,0.221
127.803000,0.1695,-0.1128,-0.1186,0.236
127.803000,0.2113,-0.0485,-0.0674,0.227
127.803000,0.2555,-0.0343,0.0650,0.266
127.803000,0.3141,-0.0033,0.1325,0.341
127.803000,0.3057,0.0466,0.2216,0.380
127.803000,0.2665,0.0006,0.2892,0.393
127.803000,0.2371,0.0142,0.3808,0.449
127.803000,0.2294,-0.0060,0.4534,0.508
127.804000,0.1739,-0.0433,0.4449,0.480
127.804000,0.1427,-0.0927,0.4030,0.438
127.804000,0.0640,-0.1160,0.4092,0.430
127.804000,0.0332,-0.1037,0.3966,0.411
127.804000,0.0168,-0.0918,0.2909,0.306
127.804000,-0.0213,-0.1017,0.2144,0.238
127.804000,0.0050,-0.0783,0.1118,0.137
127.805000,0.0022,-0.0959,-0.0166,0.097
127.805000,0.0060,-0.0705,-0.1375,0.155
127.805000,0.0572,-0.0644,-0.1960,0.214
127.805000,0.0766,-0.0654,-0.2424,0.263
127.805000,0.2009,0.0103,-0.2841,0.348
127.805000,0.3082,0.0047,-0.2947,0.426
127.805000,0.3652,0.0351,-0.2527,0.445
127.805000,0.3745,0.0753,-0.2541,0.459
127.806000,0.3937,0.0844,-0.2819,0.492
127.806000,0.4298,0.0865,-0.3195,0.542
127.806000,0.4134,0.1128,-0.3500,0.553
127.806000,0.3924,0.1131,-0.3019,0.508
127.806000,0.4054,0.1140,-0.2568,0.493
127.806000,0.4165,0.1152,-0.2384,0.494
127.806000,0.4112,0.1218,-0.1321,0.449
127.806000,0.4018,0.1192,-0.0072,0.419
127.807000,0.3571,0.0859,0.1123,0.384
127.807000,0.2915,0.0720,0.2003,0.361
127.807000,0.2673,0.0532,0.3050,0.409
127.807000,0.1933,0.0056,0.3235,0.377
127.807000,0.1028,-0.0158,0.3589,0.374
127.807000,0.0291,0.0054,0.3730,0.374
127.807000,-0.0112,-0.0504,0.3924,0.396
127.807000,-0.0254,-0.0923,0.3668,0.379
127.808000,-0.0686,-0.0845,0.2795,0.300
127.808000,-0.0838,-0.0820,0.1761,0.212
127.808000,-0.0901,-0.0846,0.0971,0.157
127.808000,-0.1257,-0.0900,0.0856,0.177
127.808000,-0.1329,-0.0908,0.0217,0.162
127.808000,-0.1356,-0.0892,-0.0516,0.170
127.808000,-0.1407,-0.1258,-0.0891,0.209
127.809000,-0.1242,-0.1429,-0.1913,0.269
127.809000,-0.0744,-0.1023,-0.1813,0.221
127.809000,-0.0273,-0.0996,-0.2145,0.238
127.809000,0.0008,-0.0319,-0.1596,0.163
127.809000,0.0649,-0.0404,-0.0981,0.124
127.809000,0.0626,-0.0340,-0.0825,0.109
127.810000,0.0604,-0.0249,0.0021,0.065
127.810000,0.0609,-0.0369,0.0742,0.103
127.810000,0.0568,-0.0414,0.2130,0.224
127.810000,0.0624,-0.0339,0.3539,0.361
127.810000,0.0468,-0.0097,0.4922,0.495
127.810000,0.0456,-0.0314,0.6187,0.621
127.810000,0.0398,-0.0487,0.6450,0.648
127.811000,0.0221,-0.0308,0.6861,0.687
127.811000,-0.0411,-0.0493,0.6511,0.654
127.811000,-0.0230,-0.0662,0.6216,0.626
127.811000,-0.0793,-0.0884,0.5854,0.597
127.811000,-0.1211,-0.1040,0.4923,0.518
127.811000,-0.1297,-0.1367,0.3687,0.414
127.811000,-0.1458,-0.1340,0.2266,0.301
127.811000,-0.1740,-0.0981,0.0561,0.208
127.811000,-0.1213,-0.1079,-0.0397,0.167
127.812000,-0.1432,-0.1034,-0.1545,0.235
127.812000,-0.1413,-0.1106,-0.2740,0.328
127.812000,-0.1275,-0.1296,-0.3792,0.421
127.812000,-0.1017,-0.1458,-0.5014,0.532
127.812000,-0.1384,-0.1064,-0.6453,0.669
127.812000,-0.0991,-0.0927,-0.6724,0.686
127.812000,-0.0027,-0.0496,-0.6163,0.618
127.813000,0.1435,0.0110,-0.4914,0.512
127.813000,0.2874,0.0624,-0.3145,0.431
127.813000,0.4266,0.1091,-0.1310,0.459
127.813000,0.4612,0.1103,-0.0290,0.475
127.813000,0.4318,0.1188,0.0751,0.454
127.813000,0.3645,0.1295,0.0644,0.392
127.813000,0.3120,0.0969,0.1303,0.352
127.813000,0.2428,0.1051,0.2105,0.338
127.814000,0.2120,0.0749,0.2977,0.373
127.814000,0.2009,0.0351,0.4280,0.474
127.814000,0.1448,0.0214,0.4983,0.519
127.814000,0.1107,-0.0045,0.5114,0.523
127.814000,0.0505,-0.0379,0.4745,0.479
127.814000,-0.0309,-0.0333,0.4810,0.483
127.814000,-0.0692,-0.0220,0.4352,0.441
127.814000,-0.0691,-0.0421,0.3538,0.363
127.815000,-0.0665,-0.0862,0.2248,0.250
127.815000,-0.0710,-0.0753,0.1008,0.145
127.815000,-0.0877,-0.0645,-0.0326,0.114
127.815000,-0.1262,-0.0606,-0.1300,0.191
127.815000,-0.1052,-0.0256,-0.1748,0.206
127.815000,-0.0607,0.0001,-0.2245,0.233
127.815000,-0.0190,-0.0290,-0.2455,0.248
127.816000,0.0797,0.0186,-0.1494,0.170
127.816000,0.1161,0.0041,-0.0918,0.148
127.816000,0.1451,0.0257,-0.1014,0.179
127.816000,0.2030,0.0306,-0.0250,0.207
127.816000,0.1940,0.0283,-0.0204,0.197
127.818000,0.1760,-0.0024,0.0365,0.180
127.818000,0.1583,0.0052,0.1291,0.204
127.818000,0.1531,-0.0038,0.1809,0.237
127.818000,0.1387,-0.0153,0.1942,0.239
127.819000,0.0719,-0.0769,0.1669,0.197
127.819000,0.0077,-0.0883,0.1921,0.212
127.819000,-0.0227,-0.0876,0.2149,0.233
127.819000,-0.0461,-0.1062,0.1637,0.200
127.819000,-0.0293,-0.0843,0.1510,0.175
127.820000,0.0085,-0.1007,0.1528,0.183
127.820000,0.0196,-0.0432,0.2265,0.231
127.820000,0.0640,-0.0648,0.2907,0.305
127.820000,0.0750,-0.0581,0.3193,0.333
127.820000,0.0574,-0.0781,0.2835,0.300
127.820000,0.0113,-0.1127,0.1572,0.194
127.820000,-0.0373,-0.1068,0.0385,0.120
127.821000,-0.0886,-0.1202,-0.0896,0.174
127.821000,-0.0947,-0.1167,-0.1866,0.240
127.821000,-0.0364,-0.1056,-0.1664,0.200
127.821000,0.0315,-0.0798,-0.1754,0.195
127.821000,0.0830,-0.0274,-0.1297,0.156
127.821000,0.0700,-0.0418,-0.1033,0.132
127.821000,0.0688,-0.0416,-0.1274,0.151
127.821000,0.0531,-0.0509,-0.1419,0.160
127.821000,0.0371,-0.0554,-0.1420,0.157
127.822000,0.0160,-0.0741,-0.1303,0.151
127.822000,0.0353,-0.0709,-0.0877,0.118
127.822000,0.0805,-0.1249,-0.0022,0.149
127.822000,0.1260,-0.0831,0.0592,0.162
127.822000,0.1476,-0.0365,0.0677,0.166
127.822000,0.1326,-0.0160,0.1113,0.174
127.822000,0.1157,-0.0243,0.1188,0.168
127.822000,0.0872,-0.0514,0.1405,0.173
127.822000,0.1042,-0.0618,0.1383,0.184
127.823000,0.1097,-0.0938,0.1244,0.191
127.823000,0.0724,-0.0615,0.0253,0.098
127.823000,0.0685,-0.0107,-0.1131,0.133
127.823000,0.0263,-0.0173,-0.2029,0.205
127.823000,0.0244,-0.0215,-0.2491,0.251
127.823000,-0.0017,0.0124,-0.2237,0.224
127.823000,0.0220,0.0152,-0.2507,0.252
127.823000,0.0452,0.0133,-0.2847,0.289
127.823000,0.0679,0.0354,-0.3209,0.330
127.824000,0.0499,0.0624,-0.3120,0.322
127.824000,0.0326,0.0350,-0.2442,0.249
127.824000,0.0373,0.0202,-0.1679,0.173
127.824000,0.0210,-0.0060,-0.0926,0.095
127.824000,-0.0305,-0.0436,-0.0277,0.060
127.824000,-0.0268,-0.0356,-0.0157,0.047
127.824000,-0.0588,-0.0254,0.0152,0.066
127.824000,-0.0596,-0.0059,0.0959,0.113
127.824000,-0.0770,-0.0532,0.1712,0.195
127.825000,-0.1180,-0.0790,0.1607,0.214
127.825000,-0.1685,-0.0479,0.1910,0.259
127.825000,-0.2357,-0.0769,0.1122,0.272
127.825000,-0.2793,-0.0752,0.0179,0.290
127.825000,-0.2832,-0.0405,-0.1015,0.304
127.825000,-0.2670,0.0033,-0.0700,0.276
127.825000,-0.1927,0.0302,0.0207,0.196
127.826000,-0.0958,0.0805,0.1986,0.235
127.826000,0.0072,0.1423,0.3086,0.340
127.826000,0.1025,0.1678,0.3749,0.423
127.826000,0.1856,0.2240,0.4241,0.514
127.826000,0.2255,0.2433,0.5073,0.606
127.826000,0.2714,0.2601,0.5640,0.678
127.826000,0.2586,0.2600,0.5918,0.696
127.826000,0.2755,0.2334,0.5814,0.684
127.826000,0.2478,0.2378,0.4730,0.585
127.827000,0.2303,0.2059,0.3339,0.455
127.827000,0.2252,0.1953,0.1664,0.341
127.827000,0.1912,0.2110,0.0757,0.295
127.827000,0.1594,0.1933,-0.0245,0.252
127.827000,0.1392,0.1995,-0.0385,0.246
127.827000,0.1163,0.1937,-0.0236,0.227
127.827000,0.1480,0.1759,0.0033,0.230
127.827000,0.1511,0.1652,0.0158,0.224
127.827000,0.1450,0.1161,0.0476,0.192
127.827000,0.1487,0.0837,0.0029,0.171
127.828000,0.1360,0.0752,0.0036,0.155
127.828000,0.1165,0.0548,-0.0890,0.157
127.828000,0.0712,0.0609,-0.2295,0.248
127.828000,0.0355,0.0699,-0.3678,0.376
127.828000,0.0072,0.0362,-0.4274,0.429
127.828000,-0.0306,0.0175,-0.4731,0.474
127.828000,-0.0468,0.0113,-0.4258,0.429
127.828000,-0.0372,0.0415,-0.3886,0.393
127.828000,-0.0447,0.0241,-0.3252,0.329
127.829000,-0.0334,0.0214,-0.1785,0.183
127.829000,0.0039,0.0141,0.0133,0.020
127.829000,0.0152,-0.0360,0.2000,0.204
127.829000,0.0605,-0.0337,0.3674,0.374
127.829000,0.0251,-0.1034,0.4415,0.454
127.829000,-0.0385,-0.1233,0.5014,0.518
127.829000,-0.1732,-0.1389,0.4948,0.542
127.829000,-0.2932,-0.1958,0.3738,0.514
127.829000,-0.3676,-0.2171,0.2198,0.480
127.830000,-0.4015,-0.2579,0.0472,0.479
127.830000,-0.4406,-0.2653,-0.1298,0.530
127.830000,-0.4162,-0.2514,-0.1938,0.523
127.830000,-0.3379,-0.2327,-0.2482,0.480
127.830000,-0.3084,-0.1926,-0.2616,0.448
127.830000,-0.2799,-0.1621,-0.2486,0.408
127.830000,-0.2114,-0.1556,-0.2498,0.362
127.830000,-0.1911,-0.1707,-0.2533,0.360
127.830000,-0.1591,-0.1520,-0.2642,0.344
127.830000,-0.1414,-0.1355,-0.3207,0.376
127.831000,-0.0950,-0.1210,-0.3106,0.347
127.831000,-0.0269,-0.1176,-0.3011,0.324
127.831000,-0.0184,-0.0825,-0.2372,0.252
127.831000,0.0193,-0.0563,-0.1549,0.166
127.831000,0.1075,-0.0273,-0.0205,0.113
127.831000,0.1314,-0.0077,0.1231,0.180
127.831000,0.1724,0.0165,0.2714,0.322
127.831000,0.1994,0.0402,0.3409,0.397
127.831000,0.2240,0.0659,0.3843,0.450
127.832000,0.2077,0.0501,0.3423,0.403
127.832000,0.1674,0.0530,0.2720,0.324
127.832000,0.1366,0.0650,0.1639,0.223
127.832000,0.0578,0.0289,0.0968,0.116
127.832000,0.0245,-0.0051,0.0133,0.028
127.832000,-0.0210,-0.0390,-0.0533,0.069
127.832000,-0.0332,-0.0153,-0.1414,0.146
127.832000,-0.0718,-0.0130,-0.2009,0.214
127.832000,-0.0698,-0.0439,-0.2462,0.260
127.833000,-0.0608,-0.0146,-0.2869,0.294
127.833000,0.0174,0.0055,-0.2872,0.288
127.833000,0.0837,0.0165,-0.2760,0.289
127.833000,0.1073,0.0660,-0.2124,0.247
127.833000,0.1789,0.0797,-0.1825,0.268
127.833000,0.1930,0.0984,-0.1696,0.275
127.833000,0.1763,0.0740,-0.1447,0.240
127.833000,0.1694,0.0807,-0.1223,0.224
127.833000,0.1602,0.0993,-0.1070,0.217
127.833000,0.1869,0.0961,-0.1060,0.235
127.834000,0.1659,0.0882,-0.1098,0.218
127.834000,0.1019,0.0802,-0.1158,0.174
127.834000,0.0594,0.0627,-0.1004,0.132
127.834000,0.0123,0.0715,-0.1400,0.158
127.834000,-0.0300,0.0923,-0.1605,0.188
127.834000,-0.0868,0.1038,-0.1786,0.224
127.834000,-0.1103,0.1105,-0.1467,0.214
127.834000,-0.1435,0.1508,-0.1004,0.231
127.834000,-0.1361,0.2316,-0.0637,0.276
127.835000,-0.1958,0.2381,-0.1034,0.325
127.835000,-0.2721,0.3042,-0.1478,0.434
127.835000,-0.3271,0.3557,-0.2446,0.542
127.835000,-0.3848,0.3762,-0.3532,0.644
127.835000,-0.4091,0.4709,-0.3278,0.705
127.835000,-0.3861,0.5656,-0.3719,0.779
127.836000,-0.4231,0.6604,-0.3898,0.876
127.836000,-0.5033,0.7241,-0.3742,0.958
127.836000,-0.5476,0.7713,-0.3517,1.009
127.836000,-0.6253,0.7996,-0.3581,1.076
127.836000,-0.6530,0.8351,-0.2761,1.095
127.836000,-0.6307,0.8229,-0.1585,1.049
127.836000,-0.6707,0.8372,-0.1128,1.079
127.836000,-0.6652,0.8323,-0.0026,1.065
127.837000,-0.5781,0.8322,0.1505,1.024
127.837000,-0.4905,0.8535,0.3202,1.035
127.837000,-0.4428,0.8455,0.4827,1.070
127.837000,-0.3849,0.8584,0.5905,1.111
127.837000,-0.3716,0.8846,0.6678,1.169
127.837000,-0.4364,0.8477,0.5568,1.104
127.837000,-0.5413,0.7813,0.4273,1.042
127.838000,-0.6550,0.7236,0.2556,1.009
127.838000,-0.7734,0.6795,-0.0013,1.029
127.838000,-0.8537,0.6042,-0.2051,1.066
127.838000,-0.9059,0.5839,-0.3200,1.124
127.838000,-0.9800,0.5660,-0.3462,1.183
127.838000,-0.9799,0.5364,-0.3631,1.175
127.838000,-0.9391,0.5453,-0.3130,1.130
127.839000,-0.9267,0.5064,-0.2465,1.084
127.839000,-0.9094,0.4841,-0.2228,1.054
127.839000,-0.9016,0.5071,-0.2541,1.065
127.839000,-0.9130,0.4604,-0.2683,1.057
127.839000,-0.8789,0.4782,-0.2728,1.037
127.839000,-0.8784,0.4599,-0.2701,1.028
127.839000,-0.8849,0.4223,-0.3365,1.037
127.839000,-0.8768,0.3990,-0.3908,1.040
127.840000,-0.9689,0.3589,-0.4402,1.123
127.840000,-1.0536,0.3116,-0.4728,1.196
127.840000,-1.0689,0.2905,-0.5291,1.228
127.840000,-1.1037,0.2359,-0.5781,1.268
127.840000,-1.1148,0.1882,-0.7224,1.342
127.840000,-1.0807,0.1742,-0.8617,1.393
127.840000,-1.0735,0.1388,-1.0009,1.474
127.840000,-1.0404,0.1373,-1.1091,1.527
127.841000,-0.9553,0.0908,-1.1840,1.524
127.841000,-0.8496,0.0976,-1.1684,1.448
127.841000,-0.7206,0.1385,-1.1126,1.333
127.841000,-0.6255,0.1872,-0.9569,1.158
127.841000,-0.5234,0.1766,-0.8400,1.005
127.841000,-0.4400,0.1662,-0.6926,0.837
127.841000,-0.3730,0.1703,-0.6123,0.737
127.842000,-0.3367,0.1529,-0.5466,0.660
127.842000,-0.3577,0.1210,-0.4737,0.606
127.842000,-0.3523,0.0387,-0.4509,0.574
127.842000,-0.3708,-0.0318,-0.4543,0.587
127.842000,-0.3293,-0.1217,-0.4502,0.571
127.842000,-0.2973,-0.1831,-0.5056,0.614
127.842000,-0.3064,-0.2280,-0.5679,0.684
127.842000,-0.3064,-0.3065,-0.6346,0.768
127.843000,-0.2756,-0.3134,-0.7154,0.828
127.843000,-0.2001,-0.3684,-0.7169,0.830
127.843000,-0.1420,-0.4066,-0.7469,0.862
127.843000,-0.0723,-0.4091,-0.7863,0.889
127.843000,-0.0171,-0.4668,-0.7562,0.889
127.843000,0.0524,-0.4720,-0.7450,0.884
127.843000,0.0482,-0.5179,-0.8009,0.955
127.843000,0.0326,-0.5208,-0.9092,1.048
127.843000,0.0250,-0.4926,-1.0246,1.137
127.844000,-0.0393,-0.4525,-1.1999,1.283
127.844000,-0.0768,-0.4385,-1.4444,1.511
127.844000,-0.0878,-0.4124,-1.6912,1.743
127.844000,-0.1255,-0.3381,-1.9356,1.969
127.844000,-0.1567,-0.2537,-2.1920,2.212
127.844000,-0.1483,-0.1566,-2.4655,2.475
127.844000,-0.1244,-0.0490,-2.7130,2.716
127.845000,-0.0206,0.0601,-2.8346,2.835
127.845000,0.1367,0.2260,-2.9026,2.915
127.845000,0.2930,0.3580,-2.8358,2.873
127.845000,0.4702,0.4874,-2.6467,2.732
127.845000,0.6402,0.5737,-2.3929,2.543
127.845000,0.8730,0.6646,-2.1893,2.449
127.846000,1.0299,0.7245,-1.8206,2.214
127.846000,1.1999,0.7915,-1.4306,2.028
127.846000,1.3833,0.8176,-1.0239,1.905
127.846000,1.5780,0.8907,-0.5976,1.908
127.846000,1.7267,0.9413,-0.2019,1.977
127.846000,1.7697,0.9759,0.1399,2.026
127.846000,1.7908,0.9849,0.4901,2.102
