SensorId, TimeStamp (s), FrameNumber, AccX (g), AccY (g), AccZ (g), GyroX (deg/s), GyroY (deg/s), GyroZ (deg/s), MagX (uT), MagY (uT), MagZ (uT), EulerX (deg), EulerY (deg), EulerZ (deg), QuatW, QuatX, QuatY, QuatZ, LinAccX (g), LinAccY (g), LinAccZ (g), Pressure (kPa), Altitude (m), Temperature (degC), HeaveMotion (m)
2, -0.0000, 0, 0.05999964, -0.90507627, 0.15204734, 0.36381781, 6.76211786, 9.85750961, -62.37942123, 23.26804924, -87.54750061, 91.67801666, -0.38054174, 159.06478882, 0.12422888, -0.13260880, -0.70502180, -0.68551183, -0.06642213, -0.09447430, -0.12276435, 99.94600677, 115.42807770, 0.00000000, 0.00000000
2, 0.0050, 1, 0.05851439, -0.89796472, 0.14091194, -0.58923703, 5.79102755, 9.73411369, -62.37942123, 23.26804924, -87.54750061, 91.67488098, -0.43003801, 159.09231567, 0.12376297, -0.13273181, -0.70497912, -0.68561608, -0.06580516, -0.10158116, -0.11167163, 99.94600677, 115.42807770, 0.00000000, 0.00000000
1, 0.0000, 0, -0.24846593, -0.95043218, 0.01688502, 23.46236801, 6.76653957, -102.12718201, -61.41479111, 11.28325081, -79.85968781, 102.34368134, -4.53576088, 0.00191225, -0.62649548, 0.77841997, -0.02479792, 0.03083794, 0.16721928, -0.02334699, 0.19357197, 99.98600769, 112.06170654, 32.77000046, 0.00000000
4, -0.0000, 0, -0.34043688, -0.87323809, 0.19216904, -1.20479810, 10.75865650, 3.98980761, -17.39257431, -55.86085892, -100.64308929, 101.49290466, -12.81199074, 122.09423828, 0.22879875, -0.43429124, -0.63916653, -0.59203762, 0.11881879, -0.08232812, 0.00219852, 99.96100616, 114.16564178, 32.43999863, 0.00000000
5, 0.0000, 0, 0.47008002, -0.71435124, 0.15680113, -0.91413546, 3.26212692, 22.11776161, -39.69599533, -2.04618526, -65.82870483, 98.23313141, 31.12923241, 164.85591125, 0.28418168, 0.07812043, -0.74510896, -0.59828979, 0.04730928, -0.13257682, -0.03424084, 99.90400696, 118.96384430, 32.06999969, 0.00000000
3, 0.0000, 0, 0.17672753, -0.92357427, 0.30502456, 14.04406548, 10.62856293, -49.97696686, -15.20023346, -45.71762466, -104.53083801, 106.39702606, 10.94574165, -17.57608604, 0.57764596, -0.79643714, 0.06531253, 0.16657582, 0.01217970, -0.01859432, -0.02820098, 100.02400208, 108.86521149, 32.43000031, 0.00000000
1, 0.0050, 1, -0.23611785, -0.95633888, 0.02754015, 21.36936188, 4.31442308, -97.91767120, -61.41479111, 11.28325081, -79.85968781, 102.43986511, -4.06174326, 0.12768103, -0.62590837, 0.77909034, -0.02132790, 0.02832329, 0.16316792, -0.01771949, 0.18474790, 99.98600769, 112.06170654, 32.77000046, 0.00000000
1, 0.0100, 2, -0.22609715, -0.97217143, 0.03302522, 18.32517242, 1.30993772, -92.79787445, -61.23940277, 10.46477604, -80.00584412, 102.52323151, -3.60974264, 0.23391338, -0.62540376, 0.77966285, -0.01811747, 0.02584369, 0.16112074, -0.00210594, 0.18086830, 99.98600769, 112.06170654, 32.77000046, 0.00000000
1, 0.0150, 3, -0.22219457, -0.98085415, 0.03678892, 15.82174301, -2.56646800, -88.89749908, -61.23940277, 10.46477604, -80.00584412, 102.59626007, -3.17276955, 0.31752658, -0.62496650, 0.78015572, -0.01514828, 0.02333677, 0.16487440, 0.00639746, 0.17848197, 99.98600769, 112.06170654, 32.77000046, 0.00000000
2, 0.0100, 2, 0.05275813, -0.89519143, 0.12803361, -1.46986377, 4.43839121, 9.67491055, -62.20403290, 22.47880745, -87.16749573, 91.66736603, -0.47903848, 159.11309814, 0.12334552, -0.13288869, -0.70490307, -0.68573922, -0.06090695, -0.10435073, -0.09889853, 99.94600677, 115.42807770, 0.00000000, 0.00000000
2, 0.0150, 3, 0.04739328, -0.89452308, 0.11860495, -2.24323130, 2.70455027, 9.64530468, -62.20403290, 22.47880745, -87.16749573, 91.65604401, -0.52763629, 159.12521362, 0.12298672, -0.13309233, -0.70479453, -0.68587571, -0.05639043, -0.10501720, -0.08965097, 99.94600677, 115.42807770, 0.00000000, 0.00000000
4, 0.0050, 1, -0.33251458, -0.87387216, 0.18130995, -1.38627529, 11.23662472, 4.28162622, -17.39257431, -55.86085892, -100.64308929, 101.47440338, -12.84415627, 122.14633942, 0.22840098, -0.43410644, -0.63916165, -0.59233189, 0.11035201, -0.08163533, 0.01272419, 99.96100616, 114.16564178, 32.43999863, 0.00000000
4, 0.0100, 2, -0.33565253, -0.87657452, 0.18279645, -1.72786856, 9.54216385, 4.50231314, -15.08330917, -55.33469772, -100.73078156, 101.45610809, -12.87570000, 122.18970490, 0.22805122, -0.43396810, -0.63912678, -0.59260565, 0.11294968, -0.07887400, 0.01090859, 99.96100616, 114.16564178, 32.43999863, 0.00000000
4, 0.0150, 3, -0.32602593, -0.86824888, 0.18883213, -2.25582314, 9.02421284, 4.46929359, -15.08330917, -55.33469772, -100.73078156, 101.43571472, -12.90654945, 122.23052216, 0.22772668, -0.43383685, -0.63907355, -0.59288383, 0.10279547, -0.08714801, 0.00451951, 99.96100616, 114.16564178, 32.43999863, 0.00000000
3, 0.0050, 1, 0.22862995, -0.95229524, 0.31681347, 14.06744957, 7.41166830, -51.13368607, -14.11867905, -45.24992752, -105.20315552, 106.48844910, 11.18046570, -17.46612930, 0.57680500, -0.79698902, 0.06345081, 0.16756649, -0.03574682, 0.01131561, -0.03869061, 100.02400208, 108.86521149, 32.43000031, 0.00000000
3, 0.0100, 2, 0.21709953, -0.95059139, 0.27874529, 13.01435566, 3.20862222, -52.46520233, -14.11867905, -45.24992752, -105.20315552, 106.57151794, 11.42738438, -17.37433052, 0.57597613, -0.79748309, 0.06164052, 0.16873884, -0.02004470, 0.01082292, 0.00054571, 100.02400208, 108.86521149, 32.43000031, 0.00000000
3, 0.0150, 3, 0.19610046, -0.93254709, 0.26576567, 12.54038239, 0.95484972, -53.29061890, -14.11867905, -45.24992752, -105.20315552, 106.64996338, 11.68052769, -17.29209137, 0.57515466, -0.79794228, 0.05985876, 0.17000635, 0.00525980, -0.00599539, 0.01457445, 100.02400208, 108.86521149, 32.43000031, 0.00000000
2, 0.0200, 4, 0.04139939, -0.89918101, 0.10500643, -2.80306244, 0.90098095, 9.71999454, -62.08710861, 23.38497543, -87.13825989, 91.64200592, -0.57634717, 159.12831116, 0.12268438, -0.13334924, -0.70465899, -0.68601924, -0.05124566, -0.10035817, -0.07629365, 99.94600677, 115.42807770, 0.00000000, 0.00000000
4, 0.0200, 4, -0.30645490, -0.86122239, 0.17942685, -2.57493114, 9.02569008, 4.33657789, -13.18327999, -57.20549393, -100.78924561, 101.41368103, -12.93674088, 122.27152252, 0.22741151, -0.43369859, -0.63901448, -0.59316951, 0.08270773, -0.09413100, 0.01354265, 99.96100616, 114.16564178, 32.43999863, 0.00000000
4, 0.0250, 5, -0.30348575, -0.85004288, 0.18573795, -2.06485701, 7.33815336, 4.22500896, -13.18327999, -57.20549393, -100.78924561, 101.39604950, -12.96470451, 122.30413055, 0.22713661, -0.43360600, -0.63895386, -0.59340781, 0.07925145, -0.10526587, 0.00688608, 99.96100616, 114.16564178, 32.43999863, 0.00000000
1, 0.0200, 4, -0.21412182, -0.98762679, 0.04130563, 12.74086857, -8.45821857, -83.95120239, -60.91785812, 9.55860806, -79.42121887, 102.65633392, -2.75367975, 0.36743557, -0.62461537, 0.78055626, -0.01251139, 0.02076253, 0.16416353, 0.01301649, 0.17513140, 99.98600769, 112.06170654, 32.77000046, 0.00000000
1, 0.0250, 5, -0.20368806, -0.98763740, 0.03884117, 9.95262527, -12.20876503, -79.58853149, -60.91785812, 9.55860806, -79.42121887, 102.69766998, -2.35750842, 0.39491761, -0.62438625, 0.78083724, -0.01015767, 0.01821765, 0.16076872, 0.01289378, 0.17849985, 99.98600769, 112.06170654, 32.77000046, 0.00000000
1, 0.0300, 6, -0.18830249, -0.97820723, 0.04262195, 7.52147675, -16.06224060, -75.16275787, -60.91785812, 9.55860806, -79.42121887, 102.73417664, -1.97313881, 0.39869359, -0.62418556, 0.78107870, -0.00803219, 0.01562186, 0.15210387, 0.00333658, 0.17544536, 99.98600769, 112.06170654, 32.77000046, 0.00000000
3, 0.0200, 4, 0.17120840, -0.90636027, 0.26262861, 13.85630512, -1.28386855, -53.99532700, -13.44636059, -45.48377609, -105.67085266, 106.73417664, 11.94097233, -17.21915436, 0.57426667, -0.79841918, 0.05811366, 0.17136945, 0.03458047, -0.03090000, 0.01878327, 100.02400208, 108.86521149, 32.43000031, 0.00000000
3, 0.0250, 5, 0.16032192, -0.91333473, 0.27535355, 15.28262520, -2.17982745, -54.65045547, -13.44636059, -45.48377609, -105.67085266, 106.82522583, 12.20573807, -17.14915466, 0.57331830, -0.79892194, 0.05637849, 0.17277549, 0.04996670, -0.02256718, 0.00725034, 100.02400208, 108.86521149, 32.43000031, 0.00000000
3, 0.0300, 6, 0.14533141, -0.92481518, 0.28808409, 14.84734058, -2.91556144, -55.52830505, -12.59865570, -45.86378098, -105.34931183, 106.91403961, 12.47566414, -17.08095932, 0.57237315, -0.79940546, 0.05462748, 0.17422915, 0.06953753, -0.00968856, -0.00430125, 100.02400208, 108.86521149, 32.43000031, 0.00000000
2, 0.0500, 5, 0.00318177, -0.96454126, 0.08933892, -2.71933436, -3.03680086, 12.51267624, -62.64250183, 23.12189484, -87.13825989, 91.55233002, -0.89678603, 159.03822327, 0.12135570, -0.13572216, -0.70364952, -0.68682587, -0.01855460, -0.03497211, -0.06219903, 99.94600677, 115.42807770, 0.00000000, 0.00000000
2, 0.0550, 6, -0.00679874, -0.97937250, 0.09741727, -2.57009363, -1.72599673, 13.29787254, -62.64250183, 23.12189484, -87.13825989, 91.53964996, -0.96301943, 159.02780151, 0.12102537, -0.13616852, -0.70348442, -0.68696487, -0.00971519, -0.02012855, -0.07049584, 99.94600677, 115.42807770, 0.00000000, 0.00000000
2, 0.0600, 7, -0.00807416, -0.98644954, 0.10577490, -2.49324965, -0.96803182, 13.86585617, -62.67173386, 23.64805603, -87.48903656, 91.52729797, -1.03219414, 159.02110291, 0.12065425, -0.13660996, -0.70332205, -0.68710876, -0.00963428, -0.01303697, -0.07907103, 99.94600677, 115.42807770, 0.00000000, 0.00000000
2, 0.0650, 8, -0.00245902, -0.99454916, 0.11454291, -2.94878054, 0.30948943, 14.33471966, -62.67173386, 23.64805603, -87.48903656, 91.51255798, -1.10388267, 159.02076721, 0.12023253, -0.13702501, -0.70314974, -0.68727642, -0.01649171, -0.00492108, -0.08808391, 99.94600677, 115.42807770, 0.00000000, 0.00000000
5, 0.0050, 1, 0.47451624, -0.71627057, 0.15812875, -0.65797985, 2.53473306, 22.78103447, -40.07600021, -1.69541073, -65.56562042, 98.22756958, 31.01467705, 164.85151672, 0.28350216, 0.07745408, -0.74520051, -0.59858471, 0.04117240, -0.13168393, -0.03549891, 99.90400696, 118.96384430, 32.06999969, 0.00000000
5, 0.0100, 2, 0.48114175, -0.71066666, 0.15678418, -0.36673409, 1.77281845, 23.65035439, -40.07600021, -1.69541073, -65.56562042, 98.22085571, 30.89638138, 164.84202576, 0.28282541, 0.07673586, -0.74529237, -0.59888285, 0.03278798, -0.13834724, -0.03409906, 99.90400696, 118.96384430, 32.06999969, 0.00000000
5, 0.0150, 3, 0.48375478, -0.70983982, 0.15159403, 1.41458738, -0.74416900, 24.58230019, -40.07600021, -1.69541073, -65.56562042, 98.21524048, 30.77525902, 164.81727600, 0.28221184, 0.07589951, -0.74540204, -0.59914243, 0.02837215, -0.14025301, -0.02884270, 99.90400696, 118.96384430, 32.06999969, 0.00000000
4, 0.0700, 6, -0.27431288, -0.83462602, 0.10386160, -7.11989927, -8.75637531, 7.00609112, -4.09237051, -57.58549881, -100.14615631, 101.16971588, -13.18410397, 122.17122650, 0.22732885, -0.43487167, -0.63654643, -0.59499329, 0.04634532, -0.12058009, 0.08485022, 99.96100616, 114.16564178, 32.43999863, 0.00000000
4, 0.0750, 7, -0.30533269, -0.84833616, 0.16379857, -8.21183968, -9.83954620, 7.74264288, -4.09237051, -57.58549881, -100.14615631, 101.14173889, -13.21256638, 122.11396027, 0.22755690, -0.43526062, -0.63608861, -0.59511131, 0.07689106, -0.10684781, 0.02445105, 99.96100616, 114.16564178, 32.43999863, 0.00000000
2, 0.0700, 9, 0.00137333, -0.99749255, 0.12210063, -4.29035330, 1.86392534, 14.62960052, -62.78865814, 24.23267937, -87.69365692, 91.49096680, -1.17724717, 159.02816772, 0.11976225, -0.13739541, -0.70294327, -0.68749577, -0.02159695, -0.00196177, -0.09598597, 99.94600677, 115.42807770, 0.00000000, 0.00000000
2, 0.0750, 10, 0.00159454, -0.99654913, 0.12815017, -5.84465218, 3.10696363, 14.81450081, -62.78865814, 24.23267937, -87.69365692, 91.46146393, -1.25169635, 159.04179382, 0.11925755, -0.13772602, -0.70269519, -0.68777084, -0.02311324, -0.00289050, -0.10251170, 99.94600677, 115.42807770, 0.00000000, 0.00000000
2, 0.0800, 11, -0.00233519, -0.99409014, 0.13348094, -7.93413353, 4.35205078, 14.61439705, -62.78865814, 24.23267937, -87.69365692, 91.42134094, -1.32529306, 159.06170654, 0.11873318, -0.13800219, -0.70239174, -0.68811613, -0.02047290, -0.00533745, -0.10849430, 99.94600677, 115.42807770, 0.00000000, 0.00000000
1, 0.0350, 7, -0.18129255, -0.96151364, 0.05386372, 5.66268492, -20.12617111, -70.46886444, -60.04092407, 6.89856768, -79.30429840, 102.76226807, -1.60724092, 0.37770376, -0.62403625, 0.78126258, -0.00617868, 0.01301516, 0.15153044, -0.01346757, 0.16480470, 99.98600769, 112.06170654, 32.77000046, 0.00000000
3, 0.0350, 7, 0.12880616, -0.92440629, 0.26559669, 14.05555248, -3.27104640, -56.29297256, -12.59865570, -45.86378098, -105.34931183, 106.99918365, 12.74966145, -17.01287079, 0.57144529, -0.79986322, 0.05285232, 0.17571506, 0.09071542, -0.00868079, 0.01928447, 100.02400208, 108.86521149, 32.43000031, 0.00000000
3, 0.0400, 8, 0.12043290, -0.91834104, 0.23376934, 13.97948742, -2.55464387, -57.50713348, -12.59865570, -45.86378098, -105.34931183, 107.08557892, 13.02831554, -16.93894958, 0.57050866, -0.80032218, 0.05101599, 0.17720526, 0.10380933, -0.01329103, 0.05219511, 100.02400208, 108.86521149, 32.43000031, 0.00000000
5, 0.0200, 4, 0.48758116, -0.71743369, 0.14441089, 2.15154314, -2.71713948, 25.33456802, -40.13446426, -1.46156096, -65.06869507, 98.20726013, 30.65182304, 164.78059387, 0.28164482, 0.07497795, -0.74550825, -0.59939301, 0.02270506, -0.13375831, -0.02161009, 99.90400696, 118.96384430, 32.06999969, 0.00000000
5, 0.0250, 5, 0.48794293, -0.72511804, 0.13169280, 2.60436249, -4.79753494, 25.91206360, -40.13446426, -1.46156096, -65.06869507, 98.19532013, 30.52700806, 164.73153687, 0.28113151, 0.07397753, -0.74560165, -0.59964204, 0.02047040, -0.12719427, -0.00889496, 99.90400696, 118.96384430, 32.06999969, 0.00000000
1, 0.0400, 8, -0.18536045, -0.94847786, 0.06324721, 4.19089699, -23.83853722, -65.77150726, -60.04092407, 6.89856768, -79.30429840, 102.78350830, -1.26019144, 0.33359757, -0.62392700, 0.78139997, -0.00458728, 0.01040982, 0.16171287, -0.02658876, 0.15586159, 99.98600769, 112.06170654, 32.77000046, 0.00000000
3, 0.0700, 9, 0.23959672, -0.91719896, 0.30161655, 13.37751007, -3.42908931, -63.10376358, -9.47091484, -46.15609360, -105.96316528, 107.60835266, 14.78029060, -16.41942406, 0.56481761, -0.80294502, 0.03909943, 0.18636468, 0.01421397, -0.00484631, -0.00936541, 100.02400208, 108.86521149, 32.43000031, 0.00000000
3, 0.0750, 10, 0.24506849, -0.92359197, 0.30155712, 13.65144253, -6.85737848, -64.16082001, -9.47091484, -46.15609360, -105.96316528, 107.69384766, 15.09638596, -16.35255814, 0.56380355, -0.80333179, 0.03713138, 0.18816209, 0.01403125, 0.00332341, -0.00834885, 100.02400208, 108.86521149, 32.43000031, 0.00000000
5, 0.0450, 6, 0.46410328, -0.77960610, 0.08903515, 3.80778980, -10.03254509, 27.47509384, -40.30984879, -1.54925454, -64.80561066, 98.11318970, 30.01920319, 164.44483948, 0.27948031, 0.06941875, -0.74584156, -0.60065979, 0.03667449, -0.07729299, 0.03321518, 99.90400696, 118.96384430, 32.06999969, 0.00000000
5, 0.0500, 7, 0.45790115, -0.79294360, 0.08760454, 4.27508497, -10.40983582, 28.01123810, -40.30984879, -1.54925454, -64.80561066, 98.09348297, 29.88788414, 164.36259460, 0.27909762, 0.06818215, -0.74591082, -0.60089332, 0.04090504, -0.06512663, 0.03449192, 99.90400696, 118.96384430, 32.06999969, 0.00000000
1, 0.0750, 9, -0.28142583, -0.89400184, 0.07788542, -4.46119785, -34.59708405, -38.40184402, -58.49166870, 9.00321579, -79.68430328, 102.71437073, 0.67687041, -0.41093636, -0.62443221, 0.78104848, 0.00088766, -0.00685282, 0.29220319, -0.08151203, 0.14018379, 99.98600769, 112.06170654, 32.77000046, 0.00000000
1, 0.0800, 10, -0.28296405, -0.88523936, 0.08419938, -5.36258841, -32.90147781, -35.33546448, -58.49166870, 9.00321579, -79.68430328, 102.68545532, 0.88512081, -0.53294653, -0.62460732, 0.78088695, 0.00119317, -0.00893672, 0.29730678, -0.09035761, 0.13334940, 99.98600769, 112.06170654, 32.77000046, 0.00000000
1, 0.0850, 11, -0.27115750, -0.87419832, 0.09257982, -6.25320053, -32.14154434, -32.46678925, -58.49166870, 8.76936531, -80.18123627, 102.65170288, 1.07847035, -0.65449077, -0.62481087, 0.78069854, 0.00142211, -0.01091628, 0.28891659, -0.10148220, 0.12445086, 99.98600769, 112.06170654, 32.77000046, 0.00000000
4, 0.0800, 8, -0.33633792, -0.85194480, 0.18513338, -10.65886402, -9.91358566, 7.75894403, -4.09237051, -57.58549881, -100.14615631, 101.10163116, -13.24106884, 122.05631256, 0.22783293, -0.43562740, -0.63556588, -0.59529573, 0.10740933, -0.10324675, 0.00248508, 99.96100616, 114.16564178, 32.43999863, 0.00000000
4, 0.0850, 9, -0.35229909, -0.83215433, 0.16701819, -12.85978603, -9.67281914, 7.53141499, -3.24466538, -57.79011917, -99.41537476, 101.05020905, -13.26873589, 122.00012970, 0.22814991, -0.43595952, -0.63499236, -0.59554327, 0.12289835, -0.12308881, 0.01975859, 99.96100616, 114.16564178, 32.43999863, 0.00000000
4, 0.0900, 10, -0.33693823, -0.81058025, 0.15353066, -13.28682232, -9.50136948, 7.54371738, -3.24466538, -57.79011917, -99.41537476, 100.99562836, -13.31315899, 121.94705963, 0.22835980, -0.43634206, -0.63435757, -0.59585899, 0.10692312, -0.14469644, 0.03231691, 99.96100616, 114.16564178, 32.43999863, 0.00000000
2, 0.0850, 12, -0.00862002, -0.98648512, 0.13397217, -10.37535286, 5.59565067, 14.51687717, -63.87021255, 24.08652496, -87.89827728, 91.36883545, -1.39853668, 159.08792114, 0.11818825, -0.13822529, -0.70202154, -0.68854278, -0.01546703, -0.01293358, -0.10985050, 99.94600677, 115.42807770, 0.00000000, 0.00000000
2, 0.0900, 13, -0.01332106, -0.97349924, 0.12628788, -12.82030869, 6.52990532, 14.10180378, -63.87021255, 24.08652496, -87.89827728, 91.31554413, -1.46840429, 159.11944580, 0.11763323, -0.13839529, -0.70165658, -0.68897551, -0.01200884, -0.02591190, -0.10313970, 99.94600677, 115.42807770, 0.00000000, 0.00000000
3, 0.0800, 11, 0.22473603, -0.91701657, 0.33332443, 13.45944023, -10.31287289, -65.35298920, -9.47091484, -46.15609360, -105.96316528, 107.77488708, 15.42333031, -16.30029488, 0.56277615, -0.80368054, 0.03520465, 0.19010866, 0.03982655, -0.00141799, -0.03924558, 100.02400208, 108.86521149, 32.43000031, 0.00000000
3, 0.0850, 12, 0.18897417, -0.90656137, 0.36496699, 12.73287678, -13.39022923, -66.25529480, -8.41859055, -44.75299454, -106.95703125, 107.84902954, 15.75920868, -16.26126099, 0.56175703, -0.80398029, 0.03331550, 0.19218475, 0.08120121, -0.00999877, -0.07014411, 100.02400208, 108.86521149, 32.43000031, 0.00000000
3, 0.0900, 13, 0.14053735, -0.87664604, 0.34960657, 12.26168060, -14.50785351, -66.99744415, -8.41859055, -44.75299454, -106.95703125, 107.92000580, 16.10027885, -16.22607040, 0.56074136, -0.80425286, 0.03142351, 0.19431715, 0.13535106, -0.03800557, -0.05414807, 100.02400208, 108.86521149, 32.43000031, 0.00000000
5, 0.0550, 8, 0.45297480, -0.80739611, 0.08337518, 4.45174217, -10.72152138, 29.14014053, -40.92370605, -1.25694239, -64.98100281, 98.07356262, 29.75116730, 164.27778625, 0.27869552, 0.06689835, -0.74598289, -0.60113472, 0.04378343, -0.05187988, 0.03859094, 99.90400696, 118.96384430, 32.06999969, 0.00000000
5, 0.0600, 9, 0.45005530, -0.81442070, 0.07489505, 4.26625633, -10.68985462, 30.21520424, -40.92370605, -1.25694239, -64.98100281, 98.05265045, 29.60908127, 164.19248962, 0.27826312, 0.06558252, -0.74605227, -0.60139388, 0.04456856, -0.04610530, 0.04693227, 99.90400696, 118.96384430, 32.06999969, 0.00000000
5, 0.0650, 10, 0.44555753, -0.81126833, 0.06248932, 3.81868052, -9.86213017, 31.52907181, -41.27447891, -0.93539900, -64.65945435, 98.03158569, 29.45988655, 164.11102295, 0.27776745, 0.06425095, -0.74612218, -0.60167998, 0.04682982, -0.05055935, 0.05919625, 99.90400696, 118.96384430, 32.06999969, 0.00000000
2, 0.1550, 14, 0.06898034, -0.77832931, 0.05385574, -3.05621576, -6.43266392, 8.07949543, -64.71791840, 25.28500366, -88.54135895, 90.52832031, -2.05252409, 159.06546021, 0.11533771, -0.14142975, -0.69613564, -0.69432706, -0.10462031, -0.22099245, -0.04458587, 99.94600677, 115.42807770, 0.00000000, 0.00000000
2, 0.1600, 15, 0.06428596, -0.79011232, 0.06948452, -1.89233243, -6.32571459, 7.98239803, -64.71791840, 25.28500366, -88.54135895, 90.52001953, -2.09214616, 159.03344727, 0.11529967, -0.14185432, -0.69599712, -0.69438559, -0.10061991, -0.20918596, -0.06038598, 99.94600677, 115.42807770, 0.00000000, 0.00000000
2, 0.1650, 16, 0.05655228, -0.80499268, 0.08560574, -1.00935066, -6.08180857, 8.02506542, -64.71791840, 25.28500366, -88.54135895, 90.51610565, -2.13199401, 159.00265503, 0.11524747, -0.14227721, -0.69588625, -0.69441891, -0.09358092, -0.19428098, -0.07658917, 99.94600677, 115.42807770, 0.00000000, 0.00000000
4, 0.0950, 11, -0.28377762, -0.79623604, 0.14504600, -12.21674538, -10.25926018, 7.61159420, -3.24466538, -57.79011917, -99.41537476, 100.94819641, -13.34075832, 121.88787079, 0.22867839, -0.43669763, -0.63379264, -0.59607750, 0.05315151, -0.15905972, 0.03994536, 99.96100616, 114.16564178, 32.43999863, 0.00000000
4, 0.1000, 12, -0.22844660, -0.80808771, 0.15915431, -11.04385567, -10.53079796, 7.47674847, -1.31540489, -57.90704346, -99.29844666, 100.90692139, -13.36748314, 121.82744598, 0.22898553, -0.43706796, -0.63325763, -0.59625673, -0.00263563, -0.14723828, 0.02510995, 99.96100616, 114.16564178, 32.43999863, 0.00000000
4, 0.1050, 13, -0.19187286, -0.83619905, 0.18541406, -9.69512844, -10.74787331, 8.28139687, -1.31540489, -57.90704346, -99.29844666, 100.87284851, -13.39799404, 121.76515961, 0.22925191, -0.43747941, -0.63273990, -0.59640229, -0.03971138, -0.11912495, -0.00177041, 99.96100616, 114.16564178, 32.43999863, 0.00000000
1, 0.0900, 12, -0.25360993, -0.85709715, 0.09923896, -7.10448217, -31.72604752, -29.74703217, -58.49166870, 8.76936531, -80.18123627, 102.61331177, 1.25801098, -0.77709460, -0.62504214, 0.78048450, 0.00157019, -0.01280729, 0.27454430, -0.11867531, 0.11721718, 99.98600769, 112.06170654, 32.77000046, 0.00000000
1, 0.0950, 13, -0.23124711, -0.83328974, 0.09240787, -8.25104618, -30.40889168, -26.96697044, -57.76088715, 8.74013424, -79.88892365, 102.56893158, 1.42245603, -0.89641941, -0.62531137, 0.78023744, 0.00166026, -0.01457737, 0.25513637, -0.14257053, 0.12339503, 99.98600769, 112.06170654, 32.77000046, 0.00000000
1, 0.1000, 14, -0.21304040, -0.82853925, 0.09001205, -8.86124039, -29.36211395, -24.34039116, -57.76088715, 8.74013424, -79.88892365, 102.52124786, 1.57284021, -1.01359928, -0.62560099, 0.77997237, 0.00168999, -0.01623985, 0.23961787, -0.14742854, 0.12502882, 99.98600769, 112.06170654, 32.77000046, 0.00000000
2, 0.1700, 17, 0.05071471, -0.81891978, 0.10299308, -0.27092546, -5.90552759, 7.82264328, -65.03945923, 24.93422890, -89.18444824, 90.51587677, -2.17084074, 158.97276306, 0.11519141, -0.14269230, -0.69579971, -0.69442970, -0.08842529, -0.18032847, -0.09399921, 99.94600677, 115.42807770, 0.00000000, 0.00000000
2, 0.1750, 18, 0.04266750, -0.83510852, 0.11748221, -0.06255207, -5.38403416, 7.65758705, -65.03945923, 24.93422890, -89.18444824, 90.51660919, -2.20888352, 158.94546509, 0.11512323, -0.14308760, -0.69572306, -0.69443655, -0.08104590, -0.16411413, -0.10847697, 99.94600677, 115.42807770, 0.00000000, 0.00000000
2, 0.1800, 19, 0.03247009, -0.84656012, 0.13039908, -0.56107408, -4.86358261, 7.45433712, -65.53639221, 24.84653664, -88.92136383, 90.51474762, -2.24593759, 158.92079163, 0.11504849, -0.14345843, -0.69563496, -0.69446063, -0.07149737, -0.15263762, -0.12140876, 99.94600677, 115.42807770, 0.00000000, 0.00000000
4, 0.1100, 14, -0.20352548, -0.85482937, 0.18021671, -10.59549809, -13.70113182, 9.50317192, 1.81233561, -58.17012405, -99.06459808, 100.83805847, -13.43176079, 121.68679047, 0.22958501, -0.43799216, -0.63214546, -0.59652811, -0.02861780, -0.10047460, 0.00282427, 99.96100616, 114.16564178, 32.43999863, 0.00000000
5, 0.0700, 11, 0.44118246, -0.80596143, 0.05660206, 3.29476810, -8.65299702, 32.82293320, -41.27447891, -0.93539900, -64.65945435, 98.01104736, 29.30340958, 164.03556824, 0.27719638, 0.06291520, -0.74619502, -0.60199416, 0.04885412, -0.05722276, 0.06495774, 99.90400696, 118.96384430, 32.06999969, 0.00000000
5, 0.0750, 12, 0.44003010, -0.79478037, 0.05487534, 2.43748140, -6.61376667, 34.21900558, -41.27447891, -0.93539900, -64.65945435, 97.99159241, 29.13858414, 163.97076416, 0.27651927, 0.06159779, -0.74627209, -0.60234612, 0.04752760, -0.06982091, 0.06658000, 99.90400696, 118.96384430, 32.06999969, 0.00000000
5, 0.0800, 13, 0.43146485, -0.77681994, 0.05411907, 1.75763035, -4.43342733, 35.58431244, -41.97602844, -0.99386144, -64.60099030, 97.97446442, 28.96546936, 163.91738892, 0.27573279, 0.06030127, -0.74635953, -0.60272932, 0.05348524, -0.08925566, 0.06727222, 99.90400696, 118.96384430, 32.06999969, 0.00000000
3, 0.0950, 14, 0.13717242, -0.82846260, 0.34048760, 13.23009205, -11.36005497, -67.87961578, -7.07395506, -44.51914597, -107.04472351, 108.00093842, 16.44065285, -16.17333794, 0.55968332, -0.80456954, 0.02943148, 0.19635753, 0.14442521, -0.08421031, -0.04429737, 100.02400208, 108.86521149, 32.43000031, 0.00000000
3, 0.1000, 15, 0.16896552, -0.82831693, 0.32660842, 14.59195042, -9.25909996, -68.35890961, -7.07395506, -44.51914597, -107.04472351, 108.09235382, 16.77997398, -16.10878563, 0.55857080, -0.80493057, 0.02738274, 0.19833232, 0.11831699, -0.08229704, -0.02954160, 100.02400208, 108.86521149, 32.43000031, 0.00000000
3, 0.1050, 16, 0.24116614, -0.84546965, 0.28720778, 16.05776978, -8.25780392, -69.06200409, -7.07395506, -44.51914597, -107.04472351, 108.19345856, 17.12097549, -16.03739357, 0.55739659, -0.80532908, 0.02529725, 0.20028540, 0.05179666, -0.06298596, 0.01091770, 100.02400208, 108.86521149, 32.43000031, 0.00000000
1, 0.1050, 15, -0.19365244, -0.82879329, 0.09140100, -9.21464348, -28.94217491, -21.62686157, -57.76088715, 8.74013424, -79.88892365, 102.47152710, 1.70941830, -1.13178515, -0.62590247, 0.77969629, 0.00163914, -0.01781377, 0.22267336, -0.14729562, 0.12283609, 99.98600769, 112.06170654, 32.77000046, 0.00000000
1, 0.1100, 16, -0.17002787, -0.83137512, 0.09534197, -10.06550407, -28.56148529, -18.90793991, -58.08243179, 8.38935947, -79.94738007, 102.41727448, 1.83219481, -1.25115156, -0.62623316, 0.77939558, 0.00150695, -0.01930019, 0.20123798, -0.14485443, 0.11803335, 99.98600769, 112.06170654, 32.77000046, 0.00000000
5, 0.0850, 14, 0.43238324, -0.74717915, 0.05508859, 0.34928656, -1.60190058, 37.67100525, -41.97602844, -0.99386144, -64.60099030, 97.95745087, 28.78004074, 163.87852478, 0.27479479, 0.05902806, -0.74644762, -0.60317457, 0.04977926, -0.12045775, 0.06625786, 99.90400696, 118.96384430, 32.06999969, 0.00000000
5, 0.0900, 15, 0.42983466, -0.73163819, 0.05984377, 0.19610398, -1.22218871, 38.58562088, -42.38526535, -0.17538731, -65.39023590, 97.94052124, 28.58980942, 163.84121704, 0.27381915, 0.05773672, -0.74653637, -0.60363311, 0.04943217, -0.13760686, 0.06146492, 99.90400696, 118.96384430, 32.06999969, 0.00000000
4, 0.1150, 15, -0.24684429, -0.84299546, 0.16361828, -11.62949181, -17.61091423, 10.11706352, 1.81233561, -58.17012405, -99.06459808, 100.80286407, -13.46492004, 121.58810425, 0.23002954, -0.43861288, -0.63147265, -0.59661341, 0.01413323, -0.11228685, 0.01881336, 99.96100616, 114.16564178, 32.43999863, 0.00000000
3, 0.1100, 17, 0.30093628, -0.86903584, 0.26903510, 16.40768623, -10.10543823, -69.89153290, -5.72931862, -44.72376633, -107.33703613, 108.29460907, 17.46868324, -15.97307205, 0.55619538, -0.80571288, 0.02323036, 0.20232122, -0.00220707, -0.03719608, 0.03013388, 100.02400208, 108.86521149, 32.43000031, 0.00000000
3, 0.1150, 18, 0.32457495, -0.89678705, 0.26645297, 16.32701111, -12.18744946, -70.85897827, -5.72931862, -44.72376633, -107.33703613, 108.39205933, 17.82491302, -15.91718578, 0.55498737, -0.80606270, 0.02117589, 0.20445921, -0.01995763, -0.00715941, 0.03369090, 100.02400208, 108.86521149, 32.43000031, 0.00000000
4, 0.1600, 16, -0.28934839, -0.76927823, 0.14179702, -11.03405571, -12.27526855, 10.89969349, 8.12627888, -59.60245514, -95.67378235, 100.44380188, -13.80354977, 120.84917450, 0.23318586, -0.44344041, -0.62560230, -0.59800231, 0.05093402, -0.18576631, 0.03440814, 99.96100616, 114.16564178, 32.43999863, 0.00000000
4, 0.1650, 17, -0.31314510, -0.75876129, 0.14191349, -11.69576073, -13.79030418, 10.64194298, 8.12627888, -59.60245514, -95.67378235, 100.40438080, -13.84340096, 120.76942444, 0.23351084, -0.44397154, -0.62495071, -0.59816277, 0.07404329, -0.19623694, 0.03361095, 99.96100616, 114.16564178, 32.43999863, 0.00000000
4, 0.1700, 18, -0.33122447, -0.74804169, 0.13654791, -12.04946899, -13.85290718, 10.19470882, 8.12627888, -59.60245514, -95.67378235, 100.36321259, -13.88105774, 120.68978119, 0.23385584, -0.44448814, -0.62429732, -0.59832662, 0.09147532, -0.20692438, 0.03826699, 99.96100616, 114.16564178, 32.43999863, 0.00000000
1, 0.1750, 17, -0.21181653, -0.80687785, 0.09942741, -10.87680817, -43.76081467, 7.62513018, -56.85472107, 7.86319780, -79.27506256, 101.48723602, 2.46206832, -3.60564923, -0.63180929, 0.77418774, -0.01076643, -0.03653030, 0.25463280, -0.17228629, 0.09798253, 99.98600769, 112.06170654, 32.77000046, 0.00000000
1, 0.1800, 18, -0.22280236, -0.80784774, 0.10934605, -10.17349911, -42.90427780, 8.47784710, -56.85472107, 7.86319780, -79.27506256, 101.42705536, 2.46264935, -3.82454348, -0.63214469, 0.77383399, -0.01222225, -0.03774747, 0.26549238, -0.17155319, 0.08697040, 99.98600769, 112.06170654, 32.77000046, 0.00000000
3, 0.1850, 19, 0.18653306, -0.76075780, 0.36712915, 16.22169876, -26.93154716, -85.99235535, 2.95235300, -43.37912750, -108.59397888, 109.71394348, 23.47346687, -15.31507397, 0.53639460, -0.80908382, -0.00936141, 0.23995133, 0.21000725, -0.10358407, -0.05783182, 100.02400208, 108.86521149, 32.43000031, 0.00000000
3, 0.1900, 20, 0.28256994, -0.76050878, 0.38599694, 16.48221207, -19.67024612, -87.02816772, 2.95235300, -43.37912750, -108.59397888, 109.82032776, 23.91622734, -15.25544834, 0.53490525, -0.80922174, -0.01180063, 0.24268743, 0.12107325, -0.10036124, -0.07620477, 100.02400208, 108.86521149, 32.43000031, 0.00000000
2, 0.1850, 20, 0.02347989, -0.85248727, 0.13350737, -0.91757852, -4.68934631, 7.24660492, -65.53639221, 24.84653664, -88.92136383, 90.51110840, -2.28195882, 158.89701843, 0.11497697, -0.14381586, -0.69553822, -0.69449544, -0.06314148, -0.14668600, -0.12457475, 99.94600677, 115.42807770, 0.00000000, 0.00000000
2, 0.1900, 21, 0.01780016, -0.85470206, 0.13116071, -1.80455053, -4.20426893, 7.04095554, -65.53639221, 24.84653664, -88.92136383, 90.52709198, -2.30680251, 158.87551880, 0.11493529, -0.14411184, -0.69557709, -0.69440204, -0.05798810, -0.14444926, -0.12213960, 99.94600677, 115.42807770, 0.00000000, 0.00000000
2, 0.1950, 22, 0.01426440, -0.85029340, 0.12269372, -2.51389074, -4.20392990, 6.82892656, -65.47792816, 23.23881912, -89.30137634, 90.51538849, -2.34075379, 158.85415649, 0.11487177, -0.14443386, -0.69543684, -0.69448614, -0.05495892, -0.14883718, -0.11365107, 99.94600677, 115.42807770, 0.00000000, 0.00000000
5, 0.1650, 16, 0.35094044, -0.77609789, 0.06933147, 7.70532227, -3.57896972, 52.21155930, -44.28529739, 0.43846828, -64.16252136, 98.12075806, 25.45326805, 162.92172241, 0.25947636, 0.03334378, -0.75010818, -0.60736972, 0.07985221, -0.11730924, 0.05810478, 99.90400696, 118.96384430, 32.06999969, 0.00000000
5, 0.1700, 17, 0.35088474, -0.74669909, 0.05234649, 6.02305031, -1.72369504, 54.26447296, -44.28529739, 0.43846828, -64.16252136, 98.12868500, 25.18588638, 162.86985779, 0.25810274, 0.03145376, -0.75032508, -0.60778779, 0.07573769, -0.14864756, 0.07550648, 99.90400696, 118.96384430, 32.06999969, 0.00000000
4, 0.1750, 19, -0.33804679, -0.74140686, 0.14510806, -12.40627480, -13.49892616, 9.58065128, 9.44168377, -59.01782990, -94.65068817, 100.31973267, -13.91606140, 120.61253357, 0.23421393, -0.44497469, -0.62364960, -0.59850025, 0.09769051, -0.21354210, 0.02896502, 99.96100616, 114.16564178, 32.43999863, 0.00000000
4, 0.1800, 20, -0.32374743, -0.73364383, 0.16980684, -12.30355930, -12.89806843, 8.68204212, 9.44168377, -59.01782990, -94.65068817, 100.27587891, -13.94724274, 120.53916168, 0.23457699, -0.44542187, -0.62302774, -0.59867316, 0.08284935, -0.22130656, 0.00350738, 99.96100616, 114.16564178, 32.43999863, 0.00000000
4, 0.1850, 21, -0.28126514, -0.73369634, 0.17564066, -11.63437271, -12.23522282, 8.29588318, 10.64016342, -60.39169693, -92.95527649, 100.23451233, -13.97717285, 120.46952820, 0.23491894, -0.44584778, -0.62243712, -0.59883642, 0.03985589, -0.22125620, -0.00305069, 99.96100616, 114.16564178, 32.43999863, 0.00000000
1, 0.1850, 19, -0.22483908, -0.80555201, 0.10903376, -10.40228462, -38.50265503, 9.32176971, -56.56240845, 7.95089149, -79.04121399, 101.36666870, 2.45454860, -4.02266788, -0.63248897, 0.77347809, -0.01358448, -0.03879289, 0.26743400, -0.17406097, 0.08624966, 99.98600769, 112.06170654, 32.77000046, 0.00000000
1, 0.1900, 20, -0.23099473, -0.80598807, 0.10436796, -10.37459755, -34.81979370, 9.72466850, -56.56240845, 7.95089149, -79.04121399, 101.30722046, 2.44068217, -4.20309448, -0.63283342, 0.77312672, -0.01485839, -0.03970295, 0.27338362, -0.17383090, 0.08988211, 99.98600769, 112.06170654, 32.77000046, 0.00000000
1, 0.1950, 21, -0.22973666, -0.80358481, 0.09621067, -10.13834953, -30.75046730, 10.06402111, -56.27009583, 8.21397209, -79.27506256, 101.24982452, 2.42101955, -4.36385536, -0.63317156, 0.77278674, -0.01603153, -0.04046628, 0.27182871, -0.17643248, 0.09705594, 99.98600769, 112.06170654, 32.77000046, 0.00000000
3, 0.1950, 21, 0.41786772, -0.80676270, 0.37658799, 18.34418297, -17.08299446, -87.89162445, 4.18006420, -42.76527405, -108.88629150, 109.94303131, 24.35854530, -15.17970467, 0.53333145, -0.80941743, -0.01431092, 0.24534957, -0.00718881, -0.05050758, -0.06606167, 100.02400208, 108.86521149, 32.43000031, 0.00000000
3, 0.2000, 22, 0.41379315, -0.83539999, 0.37379175, 18.76049423, -21.83162498, -88.54629517, 4.18006420, -42.76527405, -108.88629150, 110.05916595, 24.81191444, -15.12597275, 0.53173029, -0.80955815, -0.01672923, 0.24819082, 0.00403659, -0.01816145, -0.06258897, 100.02400208, 108.86521149, 32.43000031, 0.00000000
3, 0.2050, 23, 0.33532259, -0.82365483, 0.36971879, 18.13610649, -26.27917862, -89.92026520, 4.18006420, -42.76527405, -108.88629150, 110.16442108, 25.27927399, -15.09151840, 0.53013057, -0.80962157, -0.01909933, 0.25121638, 0.08985320, -0.02611587, -0.05809281, 100.02400208, 108.86521149, 32.43000031, 0.00000000
5, 0.1750, 18, 0.33988830, -0.72082394, 0.02962146, 6.02890778, -0.19611309, 56.15415192, -44.28529739, 0.43846828, -64.16252136, 98.13980865, 24.90808105, 162.82493591, 0.25662744, 0.02954214, -0.75055748, -0.60822123, 0.08238298, -0.17651998, 0.09867229, 99.90400696, 118.96384430, 32.06999969, 0.00000000
5, 0.1800, 19, 0.32554820, -0.70119476, 0.01006629, 8.19779396, 0.48845658, 57.37372589, -45.42531204, 0.70154923, -64.74714661, 98.16314697, 24.62376595, 162.78280640, 0.25509858, 0.02758431, -0.75085217, -0.60859269, 0.09224398, -0.19815707, 0.11883087, 99.90400696, 118.96384430, 32.06999969, 0.00000000
5, 0.1850, 20, 0.31339490, -0.69159293, 0.00353621, 11.48569870, 0.66516703, 58.15100098, -45.42531204, 0.70154923, -64.74714661, 98.20323181, 24.33549881, 162.74096680, 0.25354552, 0.02556892, -0.75123197, -0.60886079, 0.09983112, -0.20974293, 0.12621883, 99.90400696, 118.96384430, 32.06999969, 0.00000000
2, 0.2000, 23, 0.01052195, -0.85109043, 0.11870842, -2.87190938, -4.23647594, 6.47902536, -65.47792816, 23.23881912, -89.30137634, 90.50190735, -2.37296104, 158.83267212, 0.11482209, -0.14474444, -0.69528770, -0.69457901, -0.05178566, -0.14801905, -0.10989782, 99.94600677, 115.42807770, 0.00000000, 0.00000000
2, 0.2050, 24, 0.00448403, -0.85187447, 0.11781359, -4.43612385, -4.30287313, 5.74034595, -65.85793304, 25.28500366, -89.24291229, 90.48063660, -2.40147710, 158.81089783, 0.11480667, -0.14502676, -0.69509536, -0.69471514, -0.04626340, -0.14721647, -0.10933554, 99.94600677, 115.42807770, 0.00000000, 0.00000000
4, 0.1900, 22, -0.23347554, -0.74695641, 0.18124436, -11.31300640, -12.51147747, 8.35373688, 10.64016342, -60.39169693, -92.95527649, 100.19936371, -14.01020145, 120.39615631, 0.23523748, -0.44631988, -0.62185335, -0.59896618, -0.00846644, -0.20797864, -0.00930508, 99.96100616, 114.16564178, 32.43999863, 0.00000000
4, 0.1950, 23, -0.21422942, -0.76342082, 0.18379030, -12.25034714, -15.17843819, 8.91845036, 10.64016342, -60.39169693, -92.95527649, 100.15874481, -14.04067802, 120.31105042, 0.23565465, -0.44683257, -0.62120342, -0.59909421, -0.02825113, -0.19149539, -0.01250689, 99.96100616, 114.16564178, 32.43999863, 0.00000000
2, 0.2100, 25, 0.00716079, -0.85252339, 0.11696158, -5.82400990, -3.78048086, 5.08084106, -65.85793304, 25.28500366, -89.24291229, 90.45232391, -2.42672563, 158.79177856, 0.11480417, -0.14526626, -0.69486773, -0.69489330, -0.04939694, -0.14655206, -0.10894272, 99.94600677, 115.42807770, 0.00000000, 0.00000000
1, 0.2000, 22, -0.21920812, -0.80222023, 0.09225447, -9.72104645, -27.02013588, 10.07751846, -56.27009583, 8.21397209, -79.27506256, 101.19535065, 2.39753962, -4.50628328, -0.63349694, 0.77246338, -0.01710248, -0.04110323, 0.26091194, -0.17799428, 0.10010061, 99.98600769, 112.06170654, 32.77000046, 0.00000000
1, 0.2050, 23, -0.19799910, -0.79957783, 0.10019462, -9.47674274, -23.70742798, 10.01316071, -55.45162201, 8.33089733, -78.80736542, 101.14285278, 2.37105870, -4.63236856, -0.63381547, 0.77215165, -0.01808003, -0.04163027, 0.23923525, -0.18084726, 0.09131458, 99.98600769, 112.06170654, 32.77000046, 0.00000000
1, 0.2100, 24, -0.16833252, -0.80009055, 0.11399750, -9.61640739, -21.05372810, 9.69261646, -55.45162201, 8.33089733, -78.80736542, 101.09026337, 2.34350324, -4.74507380, -0.63413936, 0.77184004, -0.01897287, -0.04207694, 0.20905806, -0.18055263, 0.07669292, 99.98600769, 112.06170654, 32.77000046, 0.00000000
3, 0.2100, 24, 0.27158639, -0.78562504, 0.34035385, 17.23653984, -27.39736557, -90.44807434, 6.10932446, -43.64220810, -108.74013519, 110.26383209, 25.75099945, -15.06080818, 0.52854836, -0.80963755, -0.02147169, 0.25428858, 0.16101688, -0.06029177, -0.02846478, 100.02400208, 108.86521149, 32.43000031, 0.00000000
3, 0.2150, 25, 0.26934037, -0.76285380, 0.31476688, 17.52332115, -25.62754631, -91.09447479, 6.10932446, -43.64220810, -108.74013519, 110.37091064, 26.21899796, -15.01810074, 0.52693969, -0.80967259, -0.02388704, 0.25728247, 0.17064442, -0.07913926, -0.00258610, 100.02400208, 108.86521149, 32.43000031, 0.00000000
3, 0.2200, 26, 0.32086304, -0.75006455, 0.32083833, 18.38360405, -22.68410873, -92.04779816, 7.39549828, -41.53756332, -109.09090424, 110.48987579, 26.68986893, -14.95737457, 0.52527589, -0.80973750, -0.02641077, 0.26021707, 0.12646180, -0.08788823, -0.00821841, 100.02400208, 108.86521149, 32.43000031, 0.00000000
5, 0.1900, 21, 0.30123943, -0.70415610, 0.02797747, 15.42203236, 0.71076632, 58.53797150, -46.21455765, 0.84770536, -64.48406982, 98.26310730, 24.04531860, 162.69888306, 0.25198340, 0.02349835, -0.75171232, -0.60899997, 0.10737671, -0.19911137, 0.10293882, 99.90400696, 118.96384430, 32.06999969, 0.00000000
5, 0.1950, 22, 0.30062720, -0.73411310, 0.05240889, 17.71515083, 0.63331151, 58.48314667, -46.21455765, 0.84770536, -64.48406982, 98.33126831, 23.75444221, 162.65478516, 0.25042588, 0.02139384, -0.75223166, -0.60907871, 0.10335559, -0.17103666, 0.07987978, 99.90400696, 118.96384430, 32.06999969, 0.00000000
5, 0.2000, 23, 0.28998467, -0.77312219, 0.07193574, 19.13194084, -1.50589728, 59.70850372, -46.21455765, 0.84770536, -64.48406982, 98.40470123, 23.46018028, 162.59924316, 0.24890542, 0.01918492, -0.75277656, -0.60910219, 0.10930783, -0.13389611, 0.06178569, 99.90400696, 118.96384430, 32.06999969, 0.00000000
2, 0.2400, 26, 0.05917024, -0.84881598, 0.06620963, -12.54472923, 0.00465563, 2.46249104, -66.35486603, 25.46039200, -90.70446777, 90.15142822, -2.50731993, 158.74755859, 0.11496272, -0.14571777, -0.69288260, -0.69675219, -0.10300729, -0.15021880, -0.06338635, 99.94600677, 115.42807770, 0.00000000, 0.00000000
2, 0.2450, 27, 0.06202295, -0.84396195, 0.06553477, -12.57997608, -0.03005813, 2.46180296, -66.35486603, 25.46039200, -90.70446777, 90.08854675, -2.51963019, 158.74737549, 0.11496875, -0.14573000, -0.69248426, -0.69714457, -0.10593100, -0.15507190, -0.06371818, 99.94600677, 115.42807770, 0.00000000, 0.00000000
2, 0.2500, 28, 0.07041395, -0.84227914, 0.06303581, -12.57880402, 0.10770456, 2.56817126, -66.35486603, 25.46039200, -90.70446777, 90.02563477, -2.53246927, 158.74790955, 0.11496734, -0.14574118, -0.69208580, -0.69753808, -0.11454125, -0.15674652, -0.06231606, 99.94600677, 115.42807770, 0.00000000, 0.00000000
5, 0.2050, 24, 0.27709332, -0.80382806, 0.06828760, 17.93076706, -3.18881655, 60.58991241, -46.30224991, 1.02309263, -64.16252136, 98.46841431, 23.16284943, 162.53366089, 0.24741395, 0.01691521, -0.75326639, -0.60917157, 0.11744943, -0.10506663, 0.06678633, 99.90400696, 118.96384430, 32.06999969, 0.00000000
5, 0.2100, 25, 0.25314769, -0.80328846, 0.06090672, 16.07384872, -3.97578025, 61.44001007, -46.30224991, 1.02309263, -64.16252136, 98.52116394, 22.86195755, 162.46299744, 0.24592248, 0.01461656, -0.75369322, -0.60930711, 0.13657460, -0.10750727, 0.07535016, 99.90400696, 118.96384430, 32.06999969, 0.00000000
4, 0.2400, 24, -0.30682364, -0.74828947, 0.20324083, -11.14385033, -24.73482895, 6.94032192, 15.31715870, -59.63168716, -88.86290741, 99.86723328, -14.27735901, 119.21644592, 0.24108149, -0.45316994, -0.61455119, -0.59903556, 0.06034395, -0.20651564, -0.03712299, 99.96100616, 114.16564178, 32.43999863, 0.00000000
4, 0.2450, 25, -0.29740471, -0.73387516, 0.17891733, -10.79583549, -23.67680550, 5.52130461, 15.31715870, -59.63168716, -88.86290741, 99.84414673, -14.28429317, 119.09121704, 0.24178536, -0.45382300, -0.61391038, -0.59891456, 0.05069125, -0.22092840, -0.01313847, 99.96100616, 114.16564178, 32.43999863, 0.00000000
1, 0.2150, 25, -0.14329837, -0.80108058, 0.11316640, -10.12967587, -19.80254173, 9.62381554, -55.45162201, 8.33089733, -78.80736542, 101.03540039, 2.31497955, -4.85154581, -0.63448077, 0.77151561, -0.01982784, -0.04248378, 0.18353148, -0.17976262, 0.07666092, 99.98600769, 112.06170654, 32.77000046, 0.00000000
1, 0.2200, 26, -0.12178782, -0.79428589, 0.09834721, -10.42600632, -18.82959747, 9.61572647, -55.89009094, 6.08009338, -79.09967804, 100.97931671, 2.28547001, -4.95319414, -0.63483226, 0.77118397, -0.02065496, -0.04285830, 0.16154967, -0.18674007, 0.09058909, 99.98600769, 112.06170654, 32.77000046, 0.00000000
3, 0.2250, 27, 0.41472796, -0.75346214, 0.34741819, 18.84911919, -20.11477661, -93.07118988, 7.39549828, -41.53756332, -109.09090424, 110.61928558, 27.16091156, -14.87974262, 0.52357155, -0.80982667, -0.02902380, 0.26308027, 0.03993098, -0.08032695, -0.03424641, 100.02400208, 108.86521149, 32.43000031, 0.00000000
3, 0.2300, 28, 0.50119489, -0.78095269, 0.34976077, 19.12910271, -20.71617889, -94.09499359, 7.39549828, -41.53756332, -109.09090424, 110.75083923, 27.63764763, -14.80170822, 0.52183700, -0.80989927, -0.03165558, 0.26598373, -0.03916963, -0.04855985, -0.03601420, 100.02400208, 108.86521149, 32.43000031, 0.00000000
3, 0.2700, 29, 0.57545167, -0.77827090, 0.34352440, 17.03736115, -34.17901230, -98.95001984, 13.21251106, -38.02981567, -110.40631104, 111.51658630, 31.74516296, -14.60573769, 0.50810158, -0.80826390, -0.05157034, 0.29305774, -0.05125722, -0.01411229, -0.03152479, 100.02400208, 108.86521149, 32.43000031, 0.00000000
3, 0.2750, 30, 0.62598866, -0.83169806, 0.35475111, 16.60200119, -36.23677826, -99.28416443, 13.21251106, -38.02981567, -110.40631104, 111.60829163, 32.27342987, -14.58929443, 0.50632268, -0.80793637, -0.05405568, 0.29657102, -0.09399579, 0.04434336, -0.04322166, 100.02400208, 108.86521149, 32.43000031, 0.00000000
1, 0.2700, 27, -0.29171923, -0.71596849, 0.42460009, 10.54613304, -47.01728439, 49.68794632, -55.18854141, 7.04472351, -79.09967804, 100.69979858, 1.61861467, -6.26121807, -0.63648802, 0.76922190, -0.03304537, -0.04570355, 0.31990308, -0.26697481, -0.24119735, 99.98600769, 112.06170654, 32.77000046, 0.00000000
1, 0.2750, 28, -0.18934537, -0.57624364, 1.07579875, 36.74030685, -94.62941742, 79.45114899, -55.18854141, 7.04472351, -79.09967804, 100.88019562, 1.31495500, -6.79971552, -0.63519746, 0.76998484, -0.03842252, -0.04659836, 0.21105088, -0.40743774, -0.88948286, 99.98600769, 112.06170654, 32.77000046, 0.00000000
5, 0.2800, 26, 1.11616969, -0.76304579, 0.25301385, 18.60651970, 27.82337189, 55.25421906, -50.89155197, 2.60157847, -64.16252136, 99.53285217, 18.20206642, 162.58248901, 0.21592882, -0.01314693, -0.76058519, -0.61213732, -0.80259556, -0.17349905, -0.09631961, 99.90400696, 118.96384430, 32.06999969, 0.00000000
5, 0.2850, 27, 1.18522310, -0.74856150, 0.36795324, 30.34000015, 21.84673882, 51.76283264, -50.89155197, 2.60157847, -64.16252136, 99.70558929, 17.92864799, 162.65029907, 0.21380295, -0.01456688, -0.76156890, -0.61162817, -0.87628126, -0.18903343, -0.20836455, 99.90400696, 118.96384430, 32.06999969, 0.00000000
2, 0.2550, 29, 0.06938475, -0.84338093, 0.06382528, -12.54000759, -0.37867957, 2.73494363, -67.20256805, 24.29114342, -90.41216278, 89.96301270, -2.54614615, 158.74601746, 0.11497524, -0.14577238, -0.69168472, -0.69792795, -0.11374779, -0.15563440, -0.06419821, 99.94600677, 115.42807770, 0.00000000, 0.00000000
2, 0.2600, 30, 0.06499247, -0.84465486, 0.07212450, -12.00310612, -1.41988647, 3.06968188, -67.20256805, 24.29114342, -90.41216278, 89.90332031, -2.56150460, 158.73892212, 0.11500095, -0.14584805, -0.69129246, -0.69829649, -0.10961738, -0.15434793, -0.07355312, 99.94600677, 115.42807770, 0.00000000, 0.00000000
2, 0.2650, 31, 0.06582102, -0.84480119, 0.08688656, -11.40163040, -1.90383458, 3.06535983, -67.78719330, 25.72347260, -91.11370850, 89.84673309, -2.57685399, 158.72943115, 0.11503750, -0.14594129, -0.69091588, -0.69864357, -0.11071201, -0.15418769, -0.08931747, 99.94600677, 115.42807770, 0.00000000, 0.00000000
3, 0.2800, 31, 0.66672939, -0.88504159, 0.35952789, 15.73232555, -40.91363907, -99.50467682, 13.21251106, -38.02981567, -110.40631104, 111.68271637, 32.81132889, -14.59715557, 0.50457132, -0.80751055, -0.05645545, 0.30024537, -0.12683858, 0.10276981, -0.04878183, 100.02400208, 108.86521149, 32.43000031, 0.00000000
3, 0.2850, 32, 0.66437250, -0.91859114, 0.37453508, 16.08117104, -45.43605042, -99.42189789, 14.61560917, -36.10055542, -110.05553436, 111.74540710, 33.35721207, -14.62954807, 0.50280845, -0.80701500, -0.05874690, 0.30407125, -0.11651669, 0.14147411, -0.06479753, 100.02400208, 108.86521149, 32.43000031, 0.00000000
3, 0.2900, 33, 0.60463917, -0.95971930, 0.39369941, 16.17785645, -51.06233597, -99.20960236, 14.61560917, -36.10055542, -110.05553436, 111.79092407, 33.91257477, -14.69338131, 0.50104743, -0.80642831, -0.06090475, 0.30808362, -0.04873399, 0.18781690, -0.08526751, 100.02400208, 108.86521149, 32.43000031, 0.00000000
5, 0.2900, 28, 1.18576276, -0.83204567, 0.49373341, 40.19295120, 8.93248749, 48.06550217, -51.53463745, 2.71850324, -64.36714172, 99.90758514, 17.68424225, 162.65356445, 0.21219701, -0.01630042, -0.76269162, -0.61074412, -0.88101125, -0.10632732, -0.33069777, 99.90400696, 118.96384430, 32.06999969, 0.00000000
5, 0.2950, 29, 1.07318068, -0.97594291, 0.54021549, 46.28514862, -12.22702026, 43.95547867, -51.53463745, 2.71850324, -64.36714172, 100.11156464, 17.48491096, 162.55192566, 0.21143122, -0.01847736, -0.76379651, -0.60956568, -0.77197129, 0.03704840, -0.37363660, 99.90400696, 118.96384430, 32.06999969, 0.00000000
5, 0.3000, 30, 0.86200792, -1.14875305, 0.49706125, 47.71737671, -38.72346497, 39.96156311, -51.53463745, 2.71850324, -64.25022125, 100.27937317, 17.32256508, 162.31517029, 0.21161948, -0.02127900, -0.76467252, -0.60830945, -0.56362844, 0.20950939, -0.32738549, 99.90400696, 118.96384430, 32.06999969, 0.00000000
1, 0.2800, 29, -0.26023635, -0.69038963, 1.64223504, 55.91641617, -127.25531769, 106.33092499, -55.51008606, 8.56474686, -77.72580719, 101.14691925, 0.91413617, -7.52520800, -0.63329518, 0.77108228, -0.04563253, -0.04782351, 0.27396563, -0.29351011, -1.45188546, 99.98600769, 112.06170654, 32.77000046, 0.00000000
1, 0.2850, 30, -0.49106339, -0.93961048, 1.28342474, 54.75005722, -106.61048889, 122.43607330, -55.51008606, 8.56474686, -77.72580719, 101.41457367, 0.41762456, -8.16684532, -0.63147008, 0.77211523, -0.05280751, -0.04790838, 0.49741662, -0.04289492, -1.08941364, 99.98600769, 112.06170654, 32.77000046, 0.00000000
1, 0.2900, 31, -0.41913059, -1.66759086, 0.69763583, 32.69707489, -61.51040649, 126.49080658, -55.51008606, 8.56474686, -77.72580719, 101.57845306, -0.14103846, -8.59347248, -0.63046944, 0.77258885, -0.05882724, -0.04641277, 0.41740215, 0.68672174, -0.50106913, 99.98600769, 112.06170654, 32.77000046, 0.00000000
2, 0.2700, 32, 0.06204572, -0.84609026, 0.09633417, -10.62165070, -1.90404081, 3.27773094, -67.78719330, 25.72347260, -91.11370850, 89.79405212, -2.59327269, 158.71995544, 0.11506259, -0.14604481, -0.69056153, -0.69896799, -0.10721982, -0.15288320, -0.09970208, 99.94600677, 115.42807770, 0.00000000, 0.00000000
2, 0.2750, 33, 0.05531999, -0.84076655, 0.11268071, -9.73896217, -1.52154279, 3.32246494, -67.78719330, 25.72347260, -91.11370850, 89.74570465, -2.60991430, 158.71240234, 0.11506917, -0.14614241, -0.69023567, -0.69926834, -0.10078090, -0.15819064, -0.11690461, 99.94600677, 115.42807770, 0.00000000, 0.00000000
2, 0.2800, 34, 0.05231778, -0.83936960, 0.12908310, -8.75279045, -0.20307964, 3.34689736, -68.10874176, 25.48962212, -91.37679291, 89.70198059, -2.62665462, 158.71147156, 0.11502895, -0.14620544, -0.68994617, -0.69954741, -0.09807320, -0.15957053, -0.13409570, 99.94600677, 115.42807770, 0.00000000, 0.00000000
5, 0.3050, 31, 0.47788700, -1.43616712, 0.24235664, 44.99310303, -64.64212799, 35.12088013, -51.41771317, 2.30926633, -64.25022125, 100.39575958, 17.20784569, 161.94921875, 0.21280098, -0.02458164, -0.76523209, -0.60706794, -0.18163152, 0.49666280, -0.07041574, 99.90400696, 118.96384430, 32.06999969, 0.00000000
5, 0.3100, 32, 0.36971989, -1.59136891, 0.08152698, 41.55750656, -76.77206421, 30.20387077, -51.41771317, 2.30926633, -64.25022125, 100.47851563, 17.12890244, 161.52549744, 0.21451816, -0.02800912, -0.76558173, -0.60587317, -0.07495490, 0.65168464, 0.09198617, 99.90400696, 118.96384430, 32.06999969, 0.00000000
5, 0.3150, 33, 0.43462962, -1.76865375, -0.11693529, 37.39564896, -69.58477020, 21.78105545, -51.38848114, 3.04004669, -63.75328827, 100.55408478, 17.08530998, 161.14678955, 0.21621959, -0.03092620, -0.76588744, -0.60473901, -0.14067161, 0.82894367, 0.29167271, 99.90400696, 118.96384430, 32.06999969, 0.00000000
5, 0.3200, 34, 0.79831874, -1.70239818, -0.11022031, 33.56410980, -37.82368088, 13.91230679, -51.38848114, 3.04004669, -63.75328827, 100.66091156, 17.05171967, 160.93894958, 0.21707043, -0.03270588, -0.76639545, -0.60369599, -0.50494921, 0.76281166, 0.28660399, 99.90400696, 118.96384430, 32.06999969, 0.00000000
5, 0.3250, 35, 1.25236917, -1.42839873, -0.05860744, 31.88097382, -6.52498102, 7.11737442, -51.59310150, 3.91698337, -63.87021255, 100.80844879, 17.02280998, 160.89848328, 0.21705528, -0.03341781, -0.76716238, -0.60268742, -0.95950019, 0.48908374, 0.23725428, 99.90400696, 118.96384430, 32.06999969, 0.00000000
1, 0.2950, 32, -0.20939396, -1.90723085, 0.42564446, -5.96315861, -38.31361389, 125.74817657, -55.97778320, 7.80473518, -77.57965088, 101.55238342, -0.71902758, -8.90657234, -0.63080740, 0.77201951, -0.06410574, -0.04425256, 0.19834813, 0.92696357, -0.22843617, 99.98600769, 112.06170654, 32.77000046, 0.00000000
1, 0.3000, 33, 0.14361145, -1.73410475, 0.08748714, -40.19755936, -34.94150925, 120.97147369, -55.97778320, 7.80473518, -77.57965088, 101.35800934, -1.27811646, -9.19715500, -0.63227737, 0.77050298, -0.06906429, -0.04219976, -0.16376528, 0.75390363, 0.10773358, 99.98600769, 112.06170654, 32.77000046, 0.00000000
1, 0.3050, 34, 0.42088279, -1.31096864, -0.02830199, -16.77449036, -24.68480301, 108.29898071, -55.86085892, 10.40631390, -77.66735077, 101.28144836, -1.78545153, -9.42365932, -0.63295096, 0.76966614, -0.07335232, -0.04008225, -0.44979733, 0.33077836, 0.22289011, 99.98600769, 112.06170654, 32.77000046, 0.00000000
4, 0.2500, 26, -0.27664372, -0.73229033, 0.17548047, -10.41886806, -21.79050064, 4.08189344, 15.34638977, -60.30400467, -87.75212097, 99.82027435, -14.28579426, 118.97685242, 0.24246854, -0.45439154, -0.61332709, -0.59880489, 0.02988744, -0.22257060, -0.01009643, 99.96100616, 114.16564178, 32.43999863, 0.00000000
4, 0.2550, 27, -0.25973904, -0.73738641, 0.15755588, -10.89340687, -19.87000656, 2.55669570, 15.34638977, -60.30400467, -87.75212097, 99.79128265, -14.28147030, 118.87358093, 0.24314934, -0.45486361, -0.61278129, -0.59872925, 0.01302929, -0.21756569, 0.00737080, 99.96100616, 114.16564178, 32.43999863, 0.00000000
4, 0.2600, 28, -0.24190772, -0.75099379, 0.13866600, -11.07587433, -19.09792709, 1.70223558, 15.34638977, -60.30400467, -87.75212097, 99.76022339, -14.27364540, 118.77499390, 0.24383517, -0.45529023, -0.61225522, -0.59866410, -0.00468247, -0.20407635, 0.02575506, 99.96100616, 114.16564178, 32.43999863, 0.00000000
3, 0.2950, 34, 0.50986660, -0.99605602, 0.43368328, 16.71099472, -53.31333923, -98.99718475, 15.81408882, -35.01900101, -110.37708282, 111.83129120, 34.47116852, -14.77024174, 0.49926409, -0.80580389, -0.06299721, 0.31216449, 0.05411265, 0.22943875, -0.12673131, 100.02400208, 108.86521149, 32.43000031, 0.00000000
3, 0.3000, 35, 0.41014275, -1.01133108, 0.47043687, 15.67369556, -52.71400070, -99.15372467, 15.81408882, -35.01900101, -110.37708282, 111.86795807, 35.02940750, -14.84340954, 0.49750125, -0.80514503, -0.06512083, 0.31621712, 0.16185620, 0.25005338, -0.16503967, 100.02400208, 108.86521149, 32.43000031, 0.00000000
3, 0.3050, 36, 0.33523956, -0.96487892, 0.51169914, 14.49633980, -49.30818939, -99.86991119, 15.81408882, -35.01900101, -110.37708282, 111.91029358, 35.58467102, -14.89561081, 0.49574810, -0.80448610, -0.06735817, 0.32015467, 0.24469902, 0.20900425, -0.20785891, 100.02400208, 108.86521149, 32.43000031, 0.00000000
2, 0.3300, 35, -0.17498048, -0.92178434, -0.12833761, 5.32926607, -0.86282009, 2.53573585, -69.21952820, 26.04501534, -93.30605316, 89.39608002, -2.73153162, 158.85179138, 0.11392449, -0.14569180, -0.68812031, -0.70163065, 0.12737687, -0.07702500, 0.11766387, 99.94600677, 115.42807770, 0.00000000, 0.00000000
2, 0.3350, 36, -0.19921581, -0.98504806, -0.15801194, 10.40770054, -2.06019831, 1.81220913, -69.21952820, 26.04501534, -93.30605316, 89.44860840, -2.74069643, 158.84156799, 0.11386468, -0.14586100, -0.68841714, -0.70131397, 0.15143463, -0.01376108, 0.14814699, 99.94600677, 115.42807770, 0.00000000, 0.00000000
4, 0.2650, 29, -0.23786023, -0.77156669, 0.17292492, -11.46516609, -19.08501053, 0.83835441, 16.13563347, -59.95322800, -86.14440155, 99.72698975, -14.26161957, 118.67723083, 0.24455078, -0.45568892, -0.61173582, -0.59859991, -0.00854350, -0.18364316, -0.00903703, 99.96100616, 114.16564178, 32.43999863, 0.00000000
4, 0.2700, 30, -0.23049244, -0.78389835, 0.20589252, -12.85264587, -18.45419312, 0.04209330, 16.13563347, -59.95322800, -86.14440155, 99.68584442, -14.24626827, 118.58336639, 0.24529769, -0.45603469, -0.61120212, -0.59857625, -0.01566727, -0.17148452, -0.04264753, 99.96100616, 114.16564178, 32.43999863, 0.00000000
4, 0.2750, 31, -0.23368350, -0.78775716, 0.23341091, -13.77240753, -18.61106110, -1.05778968, 16.66179466, -59.74861145, -85.06284332, 99.64002991, -14.22543049, 118.48964691, 0.24609557, -0.45634484, -0.61066395, -0.59856153, -0.01214512, -0.16783574, -0.07089734, 99.96100616, 114.16564178, 32.43999863, 0.00000000
5, 0.3500, 36, 0.30183831, -1.50428081, -0.09599455, 31.68536758, -50.43511581, -56.73317719, -51.06694031, 3.94621444, -63.02250671, 101.72355652, 17.73393440, 160.68544006, 0.22248155, -0.03264602, -0.77181685, -0.59475625, 0.00132573, 0.57114494, 0.28924650, 99.90400696, 118.96384430, 32.06999969, 0.00000000
5, 0.3550, 37, -0.07245379, -1.66901362, -0.16999744, 24.41695023, -43.07384872, -67.13263702, -51.06694031, 3.94621444, -63.02250671, 101.79963684, 18.10645103, 160.53576660, 0.22563793, -0.03173980, -0.77212322, -0.59321672, 0.38166291, 0.73805600, 0.36417454, 99.90400696, 118.96384430, 32.06999969, 0.00000000
1, 0.3100, 35, 0.66597593, -1.02145374, 0.14519364, 19.19224358, 33.04172516, 93.12812805, -55.86085892, 10.40631390, -77.66735077, 101.37583923, -2.27414536, -9.35214710, -0.63256288, 0.76995450, -0.07559232, -0.03633520, -0.70390427, 0.04143612, 0.05130379, 99.98600769, 112.06170654, 32.77000046, 0.00000000
1, 0.3150, 36, 1.22386742, -0.95122325, 0.85025096, 49.41778564, 64.90400696, 75.20556641, -55.86085892, 10.40631390, -77.66735077, 101.61325836, -2.70624280, -9.10791016, -0.63122231, 0.77117050, -0.07639320, -0.03191701, -1.27143812, -0.02892156, -0.64881927, 99.98600769, 112.06170654, 32.77000046, 0.00000000
2, 0.3400, 37, -0.20792457, -1.05392563, -0.19098097, 14.72975636, -2.10867858, 0.23296008, -69.48260498, 25.60654831, -93.10143280, 89.49392700, -2.76511335, 158.83316040, 0.11371023, -0.14610448, -0.68865240, -0.70105731, 0.15987910, 0.05512038, 0.18205969, 99.94600677, 115.42807770, 0.00000000, 0.00000000
2, 0.3450, 38, -0.21247518, -1.12744105, -0.25063848, 19.70863533, -0.72899437, -2.12149048, -69.48260498, 25.60654831, -93.10143280, 89.59265137, -2.75453711, 158.82943726, 0.11367133, -0.14616077, -0.68926495, -0.70044971, 0.16435696, 0.12862802, 0.24307707, 99.94600677, 115.42807770, 0.00000000, 0.00000000
2, 0.3500, 39, -0.25978777, -1.24152434, -0.32573026, 25.38871384, 1.03561997, -4.77973509, -69.57029724, 25.46039200, -93.74451447, 89.71935272, -2.73060942, 158.83448792, 0.11362424, -0.14611119, -0.69007605, -0.69966859, 0.21203008, 0.24268058, 0.32025269, 99.94600677, 115.42807770, 0.00000000, 0.00000000
5, 0.3600, 38, -0.12553582, -1.80495191, -0.12069689, 14.88716507, -22.77923203, -73.85704803, -51.06694031, 3.94621444, -63.02250671, 101.86229706, 18.49122810, 160.49813843, 0.22829491, -0.02998755, -0.77238232, -0.59195268, 0.44110703, 0.87626505, 0.31551060, 99.90400696, 118.96384430, 32.06999969, 0.00000000
5, 0.3650, 39, 0.06219496, -1.85316360, -0.01439152, 1.52227688, 3.93017077, -75.30027008, -50.24846649, 4.38468266, -63.63636398, 101.90267181, 18.85560799, 160.60028076, 0.23010390, -0.02736328, -0.77255547, -0.59115291, 0.25952208, 0.92665958, 0.20954597, 99.90400696, 118.96384430, 32.06999969, 0.00000000
5, 0.3700, 40, 0.28744411, -1.76719022, -0.01259755, -14.18830585, 24.03928947, -71.39805603, -50.24846649, 4.38468266, -63.63636398, 101.89767456, 19.18013191, 160.80258179, 0.23115058, -0.02419378, -0.77251184, -0.59093952, 0.03979777, 0.84256548, 0.20748217, 99.90400696, 118.96384430, 32.06999969, 0.00000000
4, 0.2800, 32, -0.24691814, -0.80728513, 0.23570332, -14.72350788, -19.28473854, -2.20133591, 16.66179466, -59.74861145, -85.06284332, 99.59002686, -14.19846725, 118.39347076, 0.24695995, -0.45663148, -0.61011589, -0.59854591, 0.00151412, -0.14855224, -0.07398751, 99.96100616, 114.16564178, 32.43999863, 0.00000000
4, 0.2850, 33, -0.26572257, -0.82859975, 0.25224113, -15.42078400, -20.60809517, -3.67628956, 16.66179466, -59.74861145, -85.06284332, 99.53781891, -14.16322136, 118.29182434, 0.24791166, -0.45690534, -0.60956395, -0.59850585, 0.02088119, -0.12752371, -0.09136668, 99.96100616, 114.16564178, 32.43999863, 0.00000000
4, 0.3450, 34, -0.31631273, -1.34058118, 0.61248732, -2.64789295, 6.55954981, -7.67728281, 18.24028015, -59.42706680, -76.46886444, 98.97732544, -13.60722542, 117.74799347, 0.25632674, -0.45611322, -0.60645878, -0.59871954, 0.08091195, 0.38059953, -0.46075809, 99.96100616, 114.16564178, 32.43999863, 0.00000000
1, 0.3550, 37, 0.79672247, -1.69180882, -1.26549232, -29.11831474, -95.93630219, 104.65466309, -57.70242691, 12.21864891, -76.08885956, 102.34184265, -5.63529444, -12.54115582, -0.62667745, 0.77005631, -0.11562191, -0.03033504, -0.88994795, 0.72160125, 1.47772622, 99.98600769, 112.06170654, 32.77000046, 0.00000000
1, 0.3600, 38, 0.66347045, -1.48150659, -1.14571357, 3.51628470, -51.54447937, 112.86862183, -57.70242691, 12.21864891, -76.08885956, 102.39891815, -6.13197470, -12.91483307, -0.62643266, 0.76950985, -0.12082419, -0.02895188, -0.76516247, 0.51196975, 1.35805941, 99.98600769, 112.06170654, 32.77000046, 0.00000000
1, 0.3650, 39, 0.51346833, -1.72755623, -0.42131945, 23.96208191, 9.31652260, 119.87766266, -57.70242691, 12.21864891, -76.08885956, 102.52942657, -6.72715521, -12.99820137, -0.62581152, 0.76954162, -0.12461568, -0.02522960, -0.62691832, 0.75836337, 0.63473880, 99.98600769, 112.06170654, 32.77000046, 0.00000000
1, 0.3700, 40, 0.49045098, -2.06809974, 0.03489876, 10.74608231, 14.28621960, 121.42622375, -58.40397644, 11.63402462, -76.11809540, 102.59233856, -7.33524084, -13.06003094, -0.62564319, 0.76918882, -0.12830643, -0.02136892, -0.61562991, 1.09972596, 0.17906801, 99.98600769, 112.06170654, 32.77000046, 0.00000000
1, 0.3750, 41, 0.48668358, -2.11864257, 0.13043600, -15.91182137, -49.49052048, 119.05364990, -58.40397644, 11.63402462, -76.11809540, 102.56327820, -7.86162376, -13.43363094, -0.62599438, 0.76803660, -0.13362706, -0.01986788, -0.62163943, 1.15130353, 0.08304505, 99.98600769, 112.06170654, 32.77000046, 0.00000000
2, 0.3550, 40, -0.32698748, -1.33873141, -0.38161352, 29.53358269, 3.63723135, -8.47595787, -69.57029724, 25.46039200, -93.74451447, 89.86616516, -2.68816566, 158.85253906, 0.11358510, -0.14589123, -0.69104916, -0.69875991, 0.27990246, 0.33984512, 0.37863994, 99.94600677, 115.42807770, 0.00000000, 0.00000000
2, 0.3600, 41, -0.41996166, -1.47032356, -0.42604443, 38.36278534, 12.72647572, -12.01799774, -69.57029724, 25.46039200, -93.74451447, 90.05503082, -2.62803745, 158.91619873, 0.11332335, -0.14533076, -0.69235718, -0.69762343, 0.37383130, 0.47138879, 0.42615744, 99.94600677, 115.42807770, 0.00000000, 0.00000000
2, 0.3650, 42, -0.49005356, -1.56196654, -0.44786060, 41.34544373, 19.71900177, -14.75030136, -69.27798462, 25.10961723, -93.59836578, 90.25727844, -2.55456018, 159.01509094, 0.11291416, -0.14448905, -0.69380522, -0.69642496, 0.44515094, 0.56298208, 0.45145252, 99.94600677, 115.42807770, 0.00000000, 0.00000000
5, 0.3750, 41, 0.33038914, -1.58818889, -0.03320412, -25.87277412, 30.98800850, -66.07230377, -50.30692673, 2.95235300, -62.93481445, 101.84532928, 19.47154236, 161.03530884, 0.23183559, -0.02090654, -0.77222276, -0.59117460, 0.00177634, 0.66510618, 0.22706798, 99.90400696, 118.96384430, 32.06999969, 0.00000000
5, 0.3800, 42, 0.01262879, -1.25327098, 0.12100622, -28.22976875, 25.32601166, -60.83070374, -50.30692673, 2.95235300, -62.93481445, 101.77047729, 19.74333382, 161.23294067, 0.23257589, -0.01791797, -0.77180225, -0.59153080, 0.32407430, 0.33152667, 0.07139128, 99.90400696, 118.96384430, 32.06999969, 0.00000000
5, 0.3850, 43, -0.36181396, -1.09068608, 0.25329047, -22.89540482, 9.43301105, -56.64595032, -50.30692673, 2.95235300, -62.93481445, 101.69348907, 20.01105499, 161.34327698, 0.23373738, -0.01553452, -0.77134842, -0.59173238, 0.70292187, 0.17023398, -0.06247142, 99.90400696, 118.96384430, 32.06999969, 0.00000000
3, 0.3100, 37, 0.33621714, -0.86413497, 0.55728579, 13.86837006, -41.36945343, -99.94437408, 16.31101990, -33.52820587, -111.13709259, 111.97594452, 36.12548065, -14.90193558, 0.49398097, -0.80390537, -0.06977698, 0.32380584, 0.25144559, 0.11372405, -0.25474584, 100.02400208, 108.86521149, 32.43000031, 0.00000000
3, 0.3150, 38, 0.44124672, -0.81386572, 0.60970235, 13.64129353, -32.52678680, -98.92889404, 16.31101990, -33.52820587, -111.13709259, 112.07775879, 36.64013672, -14.85379124, 0.49216840, -0.80346960, -0.07234103, 0.32706839, 0.15377036, 0.06893488, -0.30799454, 100.02400208, 108.86521149, 32.43000031, 0.00000000
4, 0.3500, 35, -0.40222204, -1.40649498, 0.57957476, 1.02155697, 4.48942852, -7.20060539, 18.24028015, -58.75474930, -74.39344788, 98.97570801, -13.57516479, 117.77658844, 0.25637570, -0.45581681, -0.60667896, -0.59870130, 0.16736799, 0.44636473, -0.42793965, 99.96100616, 114.16564178, 32.43999863, 0.00000000
5, 0.3900, 44, -0.74696636, -1.00552046, 0.42941600, -15.43137836, 0.23656939, -51.43567276, -50.36539078, 3.56620860, -63.54866791, 101.63581848, 20.26268196, 161.39988708, 0.23506731, -0.01363990, -0.77098513, -0.59172577, 1.09228933, 0.08636484, -0.23993295, 99.90400696, 118.96384430, 32.06999969, 0.00000000
3, 0.3650, 39, 0.74988669, -1.57821882, 0.30541849, -20.70431519, -33.68186188, -89.48396301, 21.13417053, -26.65887070, -111.89710236, 112.02613068, 41.51778412, -14.69215202, 0.48084632, -0.79430521, -0.09736881, 0.35830903, -0.08858359, 0.88297427, -0.02380067, 100.02400208, 108.86521149, 32.43000031, 0.00000000
3, 0.3700, 40, 0.73168439, -1.58851826, 0.30944836, -23.16650391, -29.82656097, -89.69163513, 21.66033363, -24.08652496, -112.16018677, 111.93671417, 41.98946762, -14.65251064, 0.48036924, -0.79296476, -0.10021284, 0.36112294, -0.06421400, 0.89790130, -0.03101135, 100.02400208, 108.86521149, 32.43000031, 0.00000000
2, 0.3700, 43, -0.52780104, -1.63840485, -0.45008850, 43.06011581, 27.57231140, -17.09341431, -69.27798462, 25.10961723, -93.59836578, 90.46650696, -2.46997571, 159.15362549, 0.11232702, -0.14334553, -0.69535536, -0.69520909, 0.48432595, 0.63937700, 0.45730627, 99.94600677, 115.42807770, 0.00000000, 0.00000000
2, 0.3750, 44, -0.54415697, -1.71351171, -0.42404351, 43.40707397, 34.72539520, -18.86250687, -70.24261475, 25.28500366, -93.74451447, 90.67616272, -2.37740874, 159.32835388, 0.11157366, -0.14193217, -0.69695795, -0.69401455, 0.50226575, 0.71444935, 0.43492499, 99.94600677, 115.42807770, 0.00000000, 0.00000000
1, 0.3800, 42, 0.13444452, -1.70803988, 0.01027839, -31.92438126, -125.19832611, 119.83650208, -59.48553085, 15.14177132, -76.11809540, 102.51052094, -8.31229115, -14.18155384, -0.62640995, 0.76634216, -0.14103575, -0.02095929, -0.27714112, 0.74179268, 0.20184034, 99.98600769, 112.06170654, 32.77000046, 0.00000000
1, 0.3850, 43, -0.50287509, -1.23712182, -0.06844196, -21.55099869, -143.77879333, 124.20394135, -59.48553085, 15.14177132, -76.11809540, 102.52970886, -8.76439476, -15.02661610, -0.62632930, 0.76483703, -0.14909831, -0.02248691, 0.35266036, 0.27211609, 0.27948371, 99.98600769, 112.06170654, 32.77000046, 0.00000000
1, 0.3900, 44, -1.06958663, -0.90884280, 0.00535120, -8.19075775, -100.98071289, 126.56122589, -59.48553085, 15.14177132, -76.11809540, 102.59004211, -9.27343178, -15.66407967, -0.62604666, 0.76367801, -0.15607053, -0.02243663, 0.91068000, -0.05478325, 0.20542805, 99.98600769, 112.06170654, 32.77000046, 0.00000000
4, 0.3550, 36, -0.49575120, -1.43628800, 0.49345067, 3.98473144, 1.84768248, -5.56752968, 18.24028015, -58.75474930, -74.39344788, 98.99238586, -13.54911518, 117.79045105, 0.25639296, -0.45566574, -0.60691440, -0.59857029, 0.26137167, 0.47607705, -0.34159166, 99.96100616, 114.16564178, 32.43999863, 0.00000000
4, 0.3600, 37, -0.58762878, -1.44899380, 0.38309205, 7.26241207, -0.36324966, -2.78167033, 18.24028015, -58.75474930, -74.39344788, 99.02860260, -13.53509903, 117.79083252, 0.25633082, -0.45568281, -0.60715526, -0.59833962, 0.35354567, 0.48879540, -0.23069879, 99.96100616, 114.16564178, 32.43999863, 0.00000000
4, 0.3650, 38, -0.67340124, -1.46015251, 0.29734266, 10.70058155, -0.62799710, 1.29264951, 18.41566849, -58.43320465, -71.96726227, 99.08309174, -13.54099083, 117.78661346, 0.25610089, -0.45585304, -0.60740179, -0.59805804, 0.43930995, 0.50008941, -0.14411098, 99.96100616, 114.16564178, 32.43999863, 0.00000000
5, 0.3950, 45, -1.05810142, -0.96953696, 0.66406608, -8.61317539, 4.09745646, -43.56134033, -50.36539078, 3.56620860, -63.54866791, 101.62152863, 20.45880318, 161.46903992, 0.23596957, -0.01205703, -0.77085930, -0.59156471, 1.40694237, 0.05156549, -0.47528601, 99.90400696, 118.96384430, 32.06999969, 0.00000000
3, 0.3750, 41, 0.69627380, -1.62603819, 0.34531307, -23.26336670, -25.97421455, -89.19078064, 21.66033363, -24.08652496, -112.16018677, 111.86199188, 42.45168686, -14.59062767, 0.47987807, -0.79167098, -0.10312006, 0.36378622, -0.02279248, 0.94008535, -0.06983706, 100.02400208, 108.86521149, 32.43000031, 0.00000000
3, 0.3800, 42, 0.71217257, -1.63919866, 0.33516580, -24.47862434, -23.88109016, -89.78221893, 21.66033363, -24.08652496, -112.16018677, 111.79130554, 42.91280746, -14.51436329, 0.47940171, -0.79036850, -0.10610904, 0.36637771, -0.03276715, 0.95795596, -0.06256302, 100.02400208, 108.86521149, 32.43000031, 0.00000000
3, 0.3850, 43, 0.74306369, -1.62216270, 0.29996842, -25.55677223, -24.19872475, -90.57829285, 22.88804436, -22.30341911, -113.06635284, 111.71552277, 43.37829208, -14.43833160, 0.47894281, -0.78902060, -0.10913417, 0.36898527, -0.05773470, 0.94570482, -0.03029374, 100.02400208, 108.86521149, 32.43000031, 0.00000000
5, 0.4200, 46, -0.63635272, -1.13121271, 0.78605735, 19.16983223, 97.74819946, 20.45376015, -49.28383636, 3.04004669, -64.27944946, 102.41217804, 20.35489464, 163.10911560, 0.22679335, -0.00316438, -0.77508080, -0.58974957, 0.98508257, 0.21565926, -0.58568919, 99.90400696, 118.96384430, 32.06999969, 0.00000000
5, 0.4250, 47, -0.19892576, -1.19296336, 0.64706963, 20.51661873, 100.57128906, 29.33477402, -51.30078888, 2.36772871, -65.01023102, 102.68389893, 20.10247421, 163.59825134, 0.22263201, -0.00177154, -0.77659154, -0.58935344, 0.54369617, 0.27694228, -0.44204241, 99.90400696, 118.96384430, 32.06999969, 0.00000000
5, 0.4300, 48, 0.24050483, -1.25848114, 0.49566954, 22.21742058, 96.79846191, 34.68416977, -51.30078888, 2.36772871, -65.01023102, 102.95246124, 19.82600594, 164.05941772, 0.21845607, -0.00067338, -0.77809238, -0.58893871, 0.09980880, 0.34184989, -0.28597686, 99.90400696, 118.96384430, 32.06999969, 0.00000000
2, 0.3800, 45, -0.52657199, -1.76289296, -0.36498865, 42.14036179, 40.34652710, -20.10593796, -70.24261475, 25.28500366, -93.74451447, 90.87861633, -2.27963328, 159.53160095, 0.11069412, -0.14030366, -0.69855249, -0.69288248, 0.48636451, 0.76380670, 0.37944192, 99.94600677, 115.42807770, 0.00000000, 0.00000000
1, 0.3950, 45, -1.34301627, -0.69444573, 0.23355848, 2.41369724, -46.42195892, 122.60904694, -59.57322311, 14.32329750, -75.76731873, 102.66400146, -9.82148647, -16.02871895, -0.62575209, 0.76285851, -0.16142106, -0.02060677, 1.17421794, -0.26777458, -0.02223331, 99.98600769, 112.06170654, 32.77000046, 0.00000000
1, 0.4000, 46, -1.49171507, -0.51098931, 0.55471611, 4.78158951, -29.60046387, 113.34049988, -59.57322311, 14.32329750, -75.76731873, 102.73699188, -10.34216499, -16.30102921, -0.62547004, 0.76216185, -0.16600044, -0.01845434, 1.31297362, -0.44991875, -0.34259397, 99.98600769, 112.06170654, 32.77000046, 0.00000000
4, 0.3700, 39, -0.74484962, -1.45900190, 0.24647804, 13.30129910, 1.82972360, 5.43467045, 18.41566849, -58.43320465, -71.96726227, 99.14846039, -13.56926918, 117.79145813, 0.25564599, -0.45609787, -0.60766113, -0.59780252, 0.51037151, 0.49920070, -0.09220054, 99.96100616, 114.16564178, 32.43999863, 0.00000000
4, 0.3750, 40, -0.79789895, -1.45223689, 0.20869763, 15.14845657, 5.46817923, 8.98625183, 18.41566849, -58.43320465, -71.96726227, 99.21940613, -13.61799145, 117.81186676, 0.25496504, -0.45636234, -0.60793823, -0.59760982, 0.56267726, 0.49280170, -0.05327949, 99.96100616, 114.16564178, 32.43999863, 0.00000000
4, 0.3800, 41, -0.82080495, -1.47085083, 0.16701175, 16.31033897, 10.63349056, 11.88245010, 18.70797920, -58.37474442, -69.68722534, 99.29052734, -13.68517590, 117.85603333, 0.25404820, -0.45658141, -0.60824490, -0.59752077, 0.58452439, 0.51186389, -0.01043841, 99.96100616, 114.16564178, 32.43999863, 0.00000000
5, 0.4350, 49, 0.64888471, -1.32454562, 0.39947051, 23.72416115, 86.83949280, 37.52445984, -51.30078888, 2.36772871, -65.01023102, 103.20722961, 19.54499817, 164.46351624, 0.21454093, 0.00005807, -0.77952170, -0.58848798, -0.31318435, 0.40725961, -0.18525250, 99.90400696, 118.96384430, 32.06999969, 0.00000000
5, 0.4400, 50, 0.97644645, -1.34283090, 0.31502557, 23.11739159, 71.81768799, 39.15693665, -52.29465103, 3.53697753, -64.83484650, 103.43005371, 19.27176476, 164.78617859, 0.21109137, 0.00035392, -0.78078240, -0.58806384, -0.64528382, 0.42485759, -0.09672774, 99.90400696, 118.96384430, 32.06999969, 0.00000000
5, 0.4450, 51, 1.19207621, -1.29152977, 0.21660779, 20.93414307, 54.34537125, 40.08863068, -52.29465103, 3.53697753, -64.83484650, 103.60952759, 19.01746368, 165.01623535, 0.20823768, 0.00021338, -0.78181201, -0.58771342, -0.86520529, 0.37283480, 0.00509679, 99.90400696, 118.96384430, 32.06999969, 0.00000000
2, 0.4200, 46, 0.20142592, -1.23139906, 0.05815261, 10.72671890, 68.74579620, -3.94421840, -69.77491760, 24.11575508, -95.41069794, 91.57376099, -1.78413272, 161.88142395, 0.09876617, -0.12356482, -0.70601475, -0.69030446, -0.23258843, 0.23225632, -0.03090286, 99.94600677, 115.42807770, 0.00000000, 0.00000000
2, 0.4250, 47, 0.27298084, -1.19609821, 0.14166307, 11.63908386, 62.89699936, -0.30684155, -69.21952820, 24.40806770, -95.90763092, 91.62215424, -1.79136753, 162.19599915, 0.09677468, -0.12171057, -0.70663530, -0.69028097, -0.30418837, 0.19698021, -0.11357580, 99.94600677, 115.42807770, 0.00000000, 0.00000000
2, 0.4300, 48, 0.33459285, -1.17290580, 0.21176994, 9.98737049, 53.29783630, 3.71419501, -69.21952820, 24.40806770, -95.90763092, 91.66372681, -1.81756949, 162.46195984, 0.09496620, -0.12026163, -0.70713949, -0.69026977, -0.36617577, 0.17382103, -0.18292367, 99.94600677, 115.42807770, 0.00000000, 0.00000000
3, 0.3900, 44, 0.72598976, -1.57380164, 0.25767678, -26.16560936, -25.16517448, -90.26853180, 22.88804436, -22.30341911, -113.06635284, 111.63209534, 43.84418869, -14.36960316, 0.47850582, -0.78763169, -0.11213628, 0.37161011, -0.03475484, 0.90216660, 0.00896197, 100.02400208, 108.86521149, 32.43000031, 0.00000000
3, 0.3950, 45, 0.72878385, -1.48985243, 0.24842598, -25.87379456, -24.18305588, -89.56100464, 24.40806770, -19.84799767, -114.29406738, 111.55342102, 44.30506897, -14.29672337, 0.47805691, -0.78625411, -0.11512780, 0.37418124, -0.03174470, 0.82304811, 0.01521092, 100.02400208, 108.86521149, 32.43000031, 0.00000000
3, 0.4000, 46, 0.70162570, -1.44676650, 0.21954980, -23.40434837, -24.48600769, -89.38145447, 24.40806770, -19.84799767, -114.29406738, 111.48561859, 44.76573181, -14.22653294, 0.47751945, -0.78491032, -0.11806451, 0.37676489, 0.00115167, 0.78486967, 0.04120398, 100.02400208, 108.86521149, 32.43000031, 0.00000000
4, 0.3850, 42, -0.80887151, -1.52965796, 0.12281559, 16.47012329, 16.85948944, 15.20343018, 18.70797920, -58.37474442, -69.68722534, 99.35556793, -13.77384663, 117.92899323, 0.25287607, -0.45672759, -0.60855788, -0.59758765, 0.57118249, 0.57119393, 0.03482427, 99.96100616, 114.16564178, 32.43999863, 0.00000000
4, 0.3900, 43, -0.78646338, -1.58184540, 0.03260005, 14.33051682, 22.21032524, 19.04639435, 17.59719276, -57.79011917, -67.75796509, 99.40243530, -13.88837337, 118.02716827, 0.25148857, -0.45681208, -0.60878438, -0.59787780, 0.54695320, 0.62396669, 0.12583804, 99.96100616, 114.16564178, 32.43999863, 0.00000000
1, 0.4400, 47, -0.43207651, -0.99600565, 0.37237841, 2.50376725, -23.63010025, 21.32455635, -61.32709503, 18.38643646, -75.50423431, 103.22119141, -12.31986713, -17.53280449, -0.62302315, 0.76002324, -0.18462530, -0.01097500, 0.21806107, 0.04421989, -0.15178338, 99.98600769, 112.06170654, 32.77000046, 0.00000000
1, 0.4450, 48, -0.27574474, -1.22238612, 0.21466409, -0.68108761, -28.78932953, 17.42144203, -61.32709503, 18.82490540, -75.15346527, 103.25301361, -12.37197208, -17.69658661, -0.62282026, 0.75985050, -0.18598604, -0.01145904, 0.06116149, 0.27119398, 0.00645866, 99.98600769, 112.06170654, 32.77000046, 0.00000000
5, 0.4500, 52, 1.26045454, -1.21309197, 0.10199463, 19.27908516, 34.86376572, 40.76953506, -52.38234329, 4.03390837, -64.80561066, 103.74742889, 18.77818489, 165.14431763, 0.20600247, -0.00045851, -0.78262126, -0.58742386, -0.93758404, 0.29363704, 0.12240642, 99.90400696, 118.96384430, 32.06999969, 0.00000000
5, 0.4550, 53, 1.17191935, -1.12676167, 0.03131625, 18.57221794, 19.98119736, 40.78184128, -52.38234329, 4.03390837, -64.80561066, 103.85662842, 18.55632782, 165.19537354, 0.20427400, -0.00150593, -0.78327423, -0.58715522, -0.85276514, 0.20653144, 0.19521347, 99.90400696, 118.96384430, 32.06999969, 0.00000000
1, 0.4500, 49, -0.16381121, -1.40479159, 0.14969370, 0.61080027, -21.15862656, 16.32499695, -61.32709503, 18.82490540, -75.15346527, 103.28301239, -12.42732620, -17.82109833, -0.62263495, 0.75972438, -0.18710284, -0.01170984, -0.05152111, 0.45401880, 0.07186419, 99.98600769, 112.06170654, 32.77000046, 0.00000000
1, 0.4550, 50, -0.06812825, -1.51999056, 0.17182064, 2.16692972, -14.37134838, 17.09790611, -61.29786682, 18.62028694, -75.18269348, 103.31382751, -12.49411011, -17.91273308, -0.62245309, 0.75963700, -0.18806088, -0.01170227, -0.14834994, 0.56953490, 0.05023567, 99.98600769, 112.06170654, 32.77000046, 0.00000000
1, 0.4600, 51, -0.03958440, -1.53311598, 0.19376045, 1.77548134, -16.67047691, 19.88731194, -61.29786682, 18.62028694, -75.18269348, 103.34604645, -12.57179832, -18.01916504, -0.62226588, 0.75951421, -0.18917347, -0.01169799, -0.17823575, 0.58302772, 0.02880931, 99.98600769, 112.06170654, 32.77000046, 0.00000000
4, 0.4150, 44, -0.52445245, -1.48359346, -0.17808247, -4.32389307, 42.33084106, 31.40094948, 17.97719955, -57.99473953, -62.35018921, 99.30438995, -14.71213150, 118.80272675, 0.24284962, -0.45609728, -0.60841131, -0.60235786, 0.27130115, 0.52894711, 0.33481038, 99.96100616, 114.16564178, 32.43999863, 0.00000000
4, 0.4200, 45, -0.46432924, -1.48884559, -0.19145492, -9.02818871, 44.84603882, 33.18816376, 17.97719955, -57.99473953, -62.35018921, 99.20779419, -14.91198158, 119.00402832, 0.24096577, -0.45570269, -0.60798693, -0.60383987, 0.20785017, 0.53482121, 0.34655184, 99.96100616, 114.16564178, 32.43999863, 0.00000000
2, 0.4350, 49, 0.38636735, -1.15622830, 0.25794080, 7.06906271, 40.68276596, 7.57980633, -69.33644867, 24.40806770, -96.14147949, 91.69258118, -1.86140752, 162.66429138, 0.09344540, -0.11929929, -0.70748007, -0.69029534, -0.41863966, 0.15718208, -0.22853009, 99.94600677, 115.42807770, 0.00000000, 0.00000000
2, 0.4400, 50, 0.42087123, -1.13942885, 0.26336497, 4.04833555, 25.02014923, 11.19083023, -69.33644867, 23.47266769, -96.14147949, 91.71990204, -1.89815271, 162.78475952, 0.09246329, -0.11879771, -0.70773250, -0.69025528, -0.45391953, 0.14042079, -0.23352090, 99.94600677, 115.42807770, 0.00000000, 0.00000000
2, 0.4450, 51, 0.43445739, -1.13489640, 0.22672763, 0.98240954, 9.63989353, 14.14523888, -69.33644867, 23.47266769, -96.14147949, 91.72325897, -1.97029638, 162.83085632, 0.09173446, -0.11894815, -0.70772749, -0.69033182, -0.46851271, 0.13592851, -0.19667366, 99.94600677, 115.42807770, 0.00000000, 0.00000000
3, 0.4050, 47, 0.61629885, -1.40626657, 0.15374239, -21.29272652, -27.11721230, -88.21179199, 24.40806770, -19.84799767, -114.29406738, 111.41423798, 45.22581482, -14.17691040, 0.47693422, -0.78355974, -0.12086960, 0.37941864, 0.09217435, 0.74933434, 0.10413658, 100.02400208, 108.86521149, 32.43000031, 0.00000000
3, 0.4100, 48, 0.56617844, -1.33748233, 0.14251114, -19.71016884, -27.68928909, -86.34801483, 24.70038033, -17.18795586, -114.90792084, 111.34459686, 45.67831802, -14.13633823, 0.47632077, -0.78222936, -0.12357084, 0.38205522, 0.14787568, 0.68548918, 0.11249402, 100.02400208, 108.86521149, 32.43000031, 0.00000000
4, 0.4250, 46, -0.38615811, -1.47289991, -0.27388880, -14.65925980, 43.30933762, 35.86357117, 17.97719955, -57.99473953, -62.35018921, 99.08479309, -15.12345123, 119.19586945, 0.23916255, -0.45535749, -0.60734093, -0.60546499, 0.12615818, 0.51949108, 0.42689395, 99.96100616, 114.16564178, 32.43999863, 0.00000000
4, 0.4300, 47, -0.36659765, -1.40651000, -0.18259311, -18.06615257, 38.60117722, 38.67759323, 17.42180634, -57.20549393, -59.80707169, 98.95080566, -15.34470463, 119.36202240, 0.23747596, -0.45517266, -0.60649610, -0.60711241, 0.10291618, 0.45373571, 0.33323225, 99.96100616, 114.16564178, 32.43999863, 0.00000000
4, 0.4350, 48, -0.35106915, -1.40722811, -0.16099398, -21.86974907, 39.16568756, 41.77090454, 17.42180634, -57.20549393, -59.80707169, 98.79684448, -15.58127499, 119.52933502, 0.23576652, -0.45501241, -0.60549080, -0.60889971, 0.08347382, 0.45513564, 0.30901796, 99.96100616, 114.16564178, 32.43999863, 0.00000000
5, 0.4850, 54, 0.20476611, -0.96483850, 0.40113336, 3.86112595, -63.00238037, 35.38927841, -53.40543747, 5.02776957, -64.80561066, 103.70257568, 17.79713249, 163.61222839, 0.20738249, -0.01615847, -0.78263116, -0.58670259, 0.10128593, 0.04001376, -0.17523299, 99.90400696, 118.96384430, 32.06999969, 0.00000000
5, 0.4900, 55, 0.13944221, -0.95216626, 0.46296847, 2.93855834, -64.40467834, 37.04000473, -52.87927628, 3.68313360, -64.33791351, 103.60314178, 17.69317818, 163.23776245, 0.20863047, -0.01909857, -0.78209341, -0.58688891, 0.16492502, 0.02643126, -0.23852491, 99.90400696, 118.96384430, 32.06999969, 0.00000000
2, 0.4500, 52, 0.43245912, -1.14371443, 0.15255687, -2.27984262, -2.89183497, 16.16768837, -69.83338165, 23.99883080, -96.78456116, 91.71245575, -2.05066657, 162.81394958, 0.09134857, -0.11952537, -0.70756316, -0.69045168, -0.46788543, 0.14479043, -0.12262854, 99.94600677, 115.42807770, 0.00000000, 0.00000000
2, 0.4550, 53, 0.40572912, -1.12462771, -0.01579308, -4.75302601, -11.80984020, 17.13527107, -69.83338165, 23.99883080, -96.78456116, 91.69094849, -2.13455200, 162.75234985, 0.09122168, -0.12039120, -0.70728326, -0.69060475, -0.44260854, 0.12574619, 0.04537737, 99.94600677, 115.42807770, 0.00000000, 0.00000000
2, 0.4600, 54, 0.36948255, -1.09712052, -0.10032815, -3.01426673, -17.90185928, 16.70504761, -70.09646606, 23.94036865, -97.45688629, 91.67938232, -2.21541309, 162.66035461, 0.09128649, -0.12143411, -0.70703310, -0.69066978, -0.40780103, 0.09828438, 0.12961708, 99.94600677, 115.42807770, 0.00000000, 0.00000000
1, 0.4650, 52, -0.09551150, -1.40369129, 0.12470581, -4.14594984, -32.12924576, 23.30975533, -61.29786682, 18.62028694, -75.18269348, 103.36658478, -12.64843273, -18.20681190, -0.62214732, 0.75919288, -0.19081703, -0.01216063, -0.12343751, 0.45409161, 0.09825982, 99.98600769, 112.06170654, 32.77000046, 0.00000000
1, 0.4700, 53, -0.16035357, -1.24715400, 0.07869358, -3.85199618, -32.23324966, 26.31802559, -61.41479111, 18.94182968, -74.97807312, 103.38979340, -12.73951244, -18.39859962, -0.62201780, 0.75885206, -0.19256242, -0.01254237, -0.05995811, 0.29804075, 0.14465854, 99.98600769, 112.06170654, 32.77000046, 0.00000000
1, 0.4750, 54, -0.23635395, -1.09083045, 0.11022604, -2.10840154, -25.77290535, 29.18388557, -61.41479111, 18.94182968, -74.97807312, 103.40822601, -12.85258579, -18.55990601, -0.62193435, 0.75849712, -0.19421841, -0.01261630, 0.01413621, 0.14215361, 0.11345389, 99.98600769, 112.06170654, 32.77000046, 0.00000000
3, 0.4250, 49, 0.52234942, -1.17283666, 0.11777578, -13.90806866, -22.32011032, -80.36997986, 25.46039200, -13.91405964, -115.66793060, 111.21340942, 46.95749664, -13.98037624, 0.47424322, -0.77862382, -0.13126715, 0.38936794, 0.20727195, 0.53534770, 0.12972647, 100.02400208, 108.86521149, 32.43000031, 0.00000000
3, 0.4300, 50, 0.51197898, -1.12639296, 0.08731325, -12.28352165, -22.08464622, -77.58830261, 25.46039200, -13.91405964, -115.66793060, 111.19227600, 47.35910416, -13.92544079, 0.47346583, -0.77754503, -0.13365397, 0.39165092, 0.22245158, 0.49363303, 0.15809159, 100.02400208, 108.86521149, 32.43000031, 0.00000000
4, 0.4400, 49, -0.30337992, -1.39049113, -0.14059898, -26.01126099, 37.62799072, 44.69350052, 17.65565681, -56.91318130, -56.59164047, 98.61865997, -15.82968235, 119.69059753, 0.23411033, -0.45489180, -0.60428500, -0.61082363, 0.03165381, 0.43910193, 0.28558823, 99.96100616, 114.16564178, 32.43999863, 0.00000000
4, 0.4450, 50, -0.28395459, -1.41313803, -0.11837019, -29.58545685, 35.85596085, 49.41437912, 17.65565681, -56.91318130, -56.59164047, 98.43050385, -16.10060501, 119.83692932, 0.23243402, -0.45493490, -0.60287935, -0.61281741, 0.00780696, 0.46252748, 0.26007354, 99.96100616, 114.16564178, 32.43999863, 0.00000000
4, 0.4500, 51, -0.27127063, -1.43858302, -0.10539561, -33.38162613, 35.18088913, 54.54394913, 17.65565681, -56.91318130, -56.59164047, 98.22439575, -16.39593697, 119.97706604, 0.23071145, -0.45508823, -0.60125780, -0.61494386, -0.00970364, 0.48887169, 0.24359474, 99.96100616, 114.16564178, 32.43999863, 0.00000000
5, 0.4950, 56, 0.11161026, -0.94567758, 0.47638893, 3.85584164, -64.22196198, 39.08096313, -52.87927628, 3.68313360, -64.33791351, 103.51876068, 17.57016754, 162.86485291, 0.20974652, -0.02215716, -0.78162515, -0.58700734, 0.19083704, 0.01898694, -0.25329813, 99.90400696, 118.96384430, 32.06999969, 0.00000000
5, 0.5000, 57, 0.10079710, -0.93412828, 0.49905574, 7.70871019, -61.81684494, 42.63432693, -52.87927628, 5.05700064, -64.45483398, 103.44683075, 17.43492699, 162.49757385, 0.21075411, -0.02526494, -0.78121132, -0.58707178, 0.19940802, 0.00646663, -0.27697423, 99.90400696, 118.96384430, 32.06999969, 0.00000000
5, 0.5050, 58, 0.12206975, -0.92797291, 0.50185031, 12.67323494, -59.46813583, 46.03880692, -52.87927628, 5.05700064, -64.45483398, 103.40308380, 17.28004837, 162.13856506, 0.21158667, -0.02847399, -0.78093398, -0.58699447, 0.17563766, -0.00064740, -0.28041369, 99.90400696, 118.96384430, 32.06999969, 0.00000000
2, 0.5000, 55, -0.31027868, -1.59936118, -0.15982193, 44.16719437, -15.62108612, -23.40003014, -69.19029236, 23.61882401, -97.60304260, 92.99108887, -2.05380416, 161.68460083, 0.09671160, -0.12759866, -0.71399713, -0.68159640, 0.27388817, 0.60133702, 0.21102935, 99.94600677, 115.42807770, 0.00000000, 0.00000000
2, 0.5050, 56, -0.33033371, -1.63479888, -0.03874227, 35.50799942, -7.73836708, -27.56594086, -69.19029236, 23.61882401, -97.60304260, 93.16970825, -1.91409993, 161.65336609, 0.09757449, -0.12711954, -0.71517253, -0.68032938, 0.29630351, 0.63686824, 0.09329202, 99.94600677, 115.42807770, 0.00000000, 0.00000000
2, 0.5100, 57, -0.33046097, -1.62741661, 0.06405351, 17.64719200, -2.58173847, -31.01722336, -68.89797974, 22.71265602, -97.60304260, 93.25807953, -1.75853670, 161.64916992, 0.09847780, -0.12630327, -0.71585655, -0.67963153, 0.29909509, 0.62950259, -0.00763322, 99.94600677, 115.42807770, 0.00000000, 0.00000000
1, 0.4800, 55, -0.27064908, -0.98595154, 0.20973140, 0.44317487, -18.87984276, 30.26210976, -62.14557266, 18.53259277, -74.94884491, 103.43987274, -12.97806168, -18.68994904, -0.62177360, 0.75824308, -0.19573212, -0.01241305, 0.04608410, 0.03768392, 0.01436324, 99.98600769, 112.06170654, 32.77000046, 0.00000000
1, 0.4850, 56, -0.24527372, -0.89042675, 0.28054702, 1.51465857, -19.37912941, 29.67573547, -62.14557266, 18.53259277, -74.94884491, 103.47759247, -13.09999943, -18.82191086, -0.62157124, 0.75802124, -0.19723988, -0.01223315, 0.01842489, -0.05734325, -0.05576031, 99.98600769, 112.06170654, 32.77000046, 0.00000000
2, 0.5150, 58, -0.31304863, -1.55168426, 0.15248457, -1.14591599, 11.14339447, -31.52884674, -68.89797974, 22.71265602, -97.60304260, 93.25045776, -1.60431254, 161.71379089, 0.09907082, -0.12498292, -0.71604353, -0.67959249, 0.28438658, 0.55370969, -0.09569407, 99.94600677, 115.42807770, 0.00000000, 0.00000000
2, 0.5200, 59, -0.29005682, -1.47448945, 0.17222822, -15.58437634, 18.13722420, -29.89472771, -68.89797974, 22.71265602, -97.60304260, 93.16989136, -1.46015906, 161.81274414, 0.09947534, -0.12344351, -0.71582186, -0.68004817, 0.26396155, 0.47638395, -0.11651795, 99.94600677, 115.42807770, 0.00000000, 0.00000000
2, 0.5250, 60, -0.25873366, -1.34768295, 0.15398127, -29.52429008, 21.99510765, -25.97549438, -68.98567963, 22.36188316, -97.92458344, 93.01941681, -1.33641553, 161.92962646, 0.09971784, -0.12185113, -0.71517980, -0.68097478, 0.23489787, 0.34939337, -0.10060586, 99.94600677, 115.42807770, 0.00000000, 0.00000000
4, 0.4550, 52, -0.25466755, -1.45577419, -0.07718050, -38.99419785, 35.35662842, 60.18175125, 17.24641991, -58.75474930, -54.01929092, 97.99002075, -16.71877670, 120.11537933, 0.22894196, -0.45532322, -0.59936881, -0.61727101, -0.03160327, 0.50707334, 0.21139076, 99.96100616, 114.16564178, 32.43999863, 0.00000000
4, 0.4600, 53, -0.22765419, -1.47280478, -0.05121063, -44.80791092, 38.60943222, 65.35658264, 17.24641991, -58.75474930, -54.01929092, 97.72146606, -17.06886864, 120.26855469, 0.22706053, -0.45554158, -0.59724480, -0.61985815, -0.06438954, 0.52522898, 0.18084994, 99.96100616, 114.16564178, 32.43999863, 0.00000000
5, 0.5100, 59, 0.18150645, -0.92166841, 0.47984731, 18.00495529, -57.81013489, 49.38053894, -52.87927628, 5.05700064, -64.45483398, 103.38838959, 17.10681725, 161.78436279, 0.21226811, -0.03180335, -0.78079551, -0.58676171, 0.11338822, -0.00788525, -0.25856328, 99.90400696, 118.96384430, 32.06999969, 0.00000000
5, 0.5150, 60, 0.25139570, -0.91497415, 0.44989604, 22.99140358, -57.05956650, 52.48398590, -53.34697342, 5.46623802, -63.98713684, 103.39982605, 16.91761208, 161.43055725, 0.21283500, -0.03526501, -0.78077787, -0.58638173, 0.04040474, -0.01548317, -0.22830877, 99.90400696, 118.96384430, 32.06999969, 0.00000000
5, 0.5200, 61, 0.29265910, -0.91870141, 0.43324333, 27.39009857, -57.56616974, 54.68079758, -53.34697342, 5.46623802, -63.98713684, 103.43296814, 16.71844673, 161.07180786, 0.21335347, -0.03885487, -0.78085470, -0.58586401, -0.00415090, -0.01261786, -0.21096744, 99.90400696, 118.96384430, 32.06999969, 0.00000000
1, 0.5150, 57, -0.46966437, -0.98585713, 0.39809522, -3.57729101, -44.77539063, 19.21545792, -61.88248825, 19.61414719, -74.51037598, 103.79003143, -13.50696564, -20.10929298, -0.61956632, 0.75675017, -0.20788179, -0.01587681, 0.23527734, 0.04080817, -0.16926095, 99.98600769, 112.06170654, 32.77000046, 0.00000000
1, 0.5200, 58, -0.48863843, -0.99324596, 0.31272385, -6.50105858, -38.85464859, 16.72983170, -61.12247849, 18.97106171, -74.39344788, 103.80789948, -13.54228210, -20.32381630, -0.61943805, 0.75639486, -0.20948161, -0.01676300, 0.25384426, 0.04857971, -0.08358459, 99.98600769, 112.06170654, 32.77000046, 0.00000000
4, 0.5400, 54, -0.12726521, -1.18190932, 0.04970658, -41.63674545, -6.93389559, 57.58168030, 12.04326248, -57.11780167, -42.12218475, 93.67311096, -22.37898636, 121.33504486, 0.20534869, -0.46625599, -0.55877072, -0.65437961, -0.25239912, 0.25873527, 0.01031751, 99.96100616, 114.16564178, 32.43999863, 0.00000000
4, 0.5450, 55, -0.13976477, -1.19001675, 0.07575732, -42.25382233, -5.17818546, 57.73169327, 13.27097321, -57.87781143, -40.74831772, 93.48002625, -22.66545677, 121.28757477, 0.20468521, -0.46743047, -0.55634063, -0.65581852, -0.24442905, 0.26851666, -0.01892219, 99.96100616, 114.16564178, 32.43999863, 0.00000000
5, 0.5250, 62, 0.26020834, -0.90742433, 0.43531132, 29.71571159, -57.74821472, 55.45219421, -53.66851807, 6.02163124, -64.25022125, 103.47848511, 16.51597786, 160.71141052, 0.21385160, -0.04249678, -0.78097731, -0.58526582, 0.02491901, -0.02471284, -0.21210274, 99.90400696, 118.96384430, 32.06999969, 0.00000000
5, 0.5300, 63, 0.14249130, -0.89988160, 0.44789839, 32.14824295, -56.95411682, 54.11363983, -53.66851807, 6.02163124, -64.25022125, 103.53902435, 16.31941795, 160.35687256, 0.21434940, -0.04609489, -0.78116113, -0.58456558, 0.13932310, -0.03298369, -0.22352767, 99.90400696, 118.96384430, 32.06999969, 0.00000000
3, 0.4350, 51, 0.44578034, -1.07196653, 0.06773239, -10.80278301, -22.88884735, -74.50274658, 26.19117165, -10.93247604, -116.34024811, 111.16873932, 47.74781036, -13.88413334, 0.47268990, -0.77649176, -0.13589257, 0.39390135, 0.29328343, 0.44381213, 0.17558676, 100.02400208, 108.86521149, 32.43000031, 0.00000000
3, 0.4400, 52, 0.44205305, -1.00679660, 0.06051685, -9.80496311, -20.00950623, -69.30621338, 26.19117165, -10.93247604, -116.34024811, 111.15493774, 48.10708618, -13.83667755, 0.47194710, -0.77553070, -0.13799584, 0.39594856, 0.30129230, 0.38298389, 0.18092245, 100.02400208, 108.86521149, 32.43000031, 0.00000000
3, 0.4450, 53, 0.45779881, -0.94519955, 0.06905888, -7.05411100, -14.88291645, -65.15075684, 26.19117165, -10.93247604, -116.34024811, 111.17372894, 48.43773270, -13.76424026, 0.47114781, -0.77473259, -0.14001526, 0.39774960, 0.28947756, 0.32552919, 0.17090908, 100.02400208, 108.86521149, 32.43000031, 0.00000000
2, 0.5300, 61, -0.22523555, -1.23955834, 0.10089166, -36.97066116, 22.35292053, -20.47781372, -68.98567963, 22.36188316, -97.92458344, 92.83193970, -1.23986709, 162.04649353, 0.09982502, -0.12038677, -0.71428585, -0.68215668, 0.20320866, 0.24106440, -0.05065479, 99.94600677, 115.42807770, 0.00000000, 0.00000000
2, 0.5350, 62, -0.21302336, -1.14635718, 0.06963831, -41.08103561, 18.45139313, -14.54085255, -68.16719818, 22.59573174, -98.65536499, 92.62452698, -1.17164564, 162.14215088, 0.09989825, -0.11920520, -0.71321833, -0.68346918, 0.19230646, 0.14766335, -0.02294180, 99.94600677, 115.42807770, 0.00000000, 0.00000000
2, 0.5400, 63, -0.19179456, -1.00965428, 0.04765318, -41.38113403, 11.99856663, -9.31897068, -68.16719818, 22.59573174, -98.65536499, 92.41627502, -1.14025784, 162.20610046, 0.09992812, -0.11843909, -0.71207267, -0.68479127, 0.17183843, 0.01078087, -0.00460599, 99.94600677, 115.42807770, 0.00000000, 0.00000000
5, 0.5550, 64, -0.08307676, -1.01565027, 0.35479695, 21.26755142, -21.86220741, 37.77153778, -54.22391129, 6.66471767, -63.13943100, 103.90773010, 15.45926380, 159.16534424, 0.21459806, -0.05957757, -0.78248429, -0.58147794, 0.35029021, 0.08019942, -0.12343591, 99.90400696, 118.96384430, 32.06999969, 0.00000000
5, 0.5600, 65, -0.06126380, -1.02443016, 0.32124716, 18.20568657, -14.18159199, 36.41621017, -54.45775986, 6.66471767, -62.61326981, 103.96775818, 15.29962540, 159.04847717, 0.21411063, -0.06135110, -0.78271741, -0.58115947, 0.32580581, 0.08851095, -0.08871260, 99.90400696, 118.96384430, 32.06999969, 0.00000000
4, 0.5500, 56, -0.14619608, -1.16131091, 0.07375060, -44.31294632, -0.49337494, 57.89636230, 13.27097321, -57.87781143, -40.74831772, 93.26663971, -22.95429039, 121.26643372, 0.20394327, -0.46845177, -0.55388445, -0.65739793, -0.24263619, 0.24155116, -0.02037350, 99.96100616, 114.16564178, 32.43999863, 0.00000000
4, 0.5550, 57, -0.13023721, -1.11676812, 0.08124543, -45.56549072, 5.28855419, 58.58723831, 10.75708866, -57.70242691, -39.92984390, 93.03442383, -23.24822044, 121.27763367, 0.20306531, -0.46930805, -0.55142415, -0.65912515, -0.26329330, 0.19879760, -0.03163346, 99.96100616, 114.16564178, 32.43999863, 0.00000000
4, 0.5600, 58, -0.11392713, -1.06393027, 0.08348186, -46.39461517, 11.34623909, 59.34384155, 10.75708866, -57.70242691, -39.92984390, 92.78444672, -23.54742622, 121.32296753, 0.20203458, -0.46999580, -0.54897213, -0.66099590, -0.28437766, 0.14781177, -0.03790485, 99.96100616, 114.16564178, 32.43999863, 0.00000000
3, 0.4500, 54, 0.45427170, -0.86580431, 0.06837021, -5.01731300, -10.20918179, -60.46861267, 27.09733963, -7.95089149, -115.98947906, 111.21862793, 48.73808670, -13.67092514, 0.47032869, -0.77408028, -0.14193605, 0.39930579, 0.29658151, 0.25006127, 0.17054048, 100.02400208, 108.86521149, 32.43000031, 0.00000000
3, 0.4550, 55, 0.47669023, -0.76803011, 0.06914521, -3.34235644, -6.28008986, -56.28071213, 27.09733963, -7.95089149, -115.98947906, 111.28523254, 49.01172256, -13.56033802, 0.46949837, -0.77355129, -0.14376582, 0.40065092, 0.27739096, 0.15597482, 0.16907421, 100.02400208, 108.86521149, 32.43000031, 0.00000000
3, 0.4600, 56, 0.47064388, -0.68304998, 0.12439507, -0.76270044, 0.76293921, -51.36676788, 28.61736298, -5.93393755, -115.93101501, 111.39355469, 49.24956894, -13.41207790, 0.46862006, -0.77322489, -0.14552811, 0.40167168, 0.28626776, 0.07443626, 0.11366616, 100.02400208, 108.86521149, 32.43000031, 0.00000000
2, 0.5450, 64, -0.15611848, -0.89736003, 0.02087653, -37.08881378, 2.88919687, -4.46227694, -68.34259033, 22.09880066, -98.42151642, 92.23052979, -1.11856091, 162.22145081, 0.10016314, -0.11805229, -0.71099919, -0.68593824, 0.13652465, -0.10165963, 0.01881303, 99.94600677, 115.42807770, 0.00000000, 0.00000000
1, 0.5250, 59, -0.45005220, -0.98557937, 0.27982399, -6.40629959, -29.37868500, 15.23693275, -61.12247849, 18.97106171, -74.39344788, 103.81756592, -13.59412670, -20.48976517, -0.61937970, 0.75605214, -0.21084349, -0.01728847, 0.21458799, 0.04118633, -0.05044315, 99.98600769, 112.06170654, 32.77000046, 0.00000000
1, 0.5300, 60, -0.38291180, -0.98027778, 0.29580531, -6.01730156, -20.67015648, 13.89725685, -62.08710861, 20.19877243, -73.83805847, 103.81595612, -13.63717461, -20.61004066, -0.61939740, 0.75574613, -0.21185684, -0.01764780, 0.14658217, 0.03606060, -0.06626426, 99.98600769, 112.06170654, 32.77000046, 0.00000000
1, 0.5350, 61, -0.31826562, -0.97090578, 0.32062292, -6.86760569, -18.31104660, 12.52717304, -62.08710861, 20.19877243, -73.83805847, 103.80700684, -13.67639828, -20.71688080, -0.61946303, 0.75543070, -0.21276045, -0.01797426, 0.08118264, 0.02678136, -0.09106693, 99.98600769, 112.06170654, 32.77000046, 0.00000000
5, 0.5650, 66, -0.03106222, -1.02683854, 0.29164684, 15.50334358, -6.67065907, 35.19031143, -54.45775986, 6.51856184, -62.61326981, 104.02488708, 15.13696098, 158.97082520, 0.21340430, -0.06286686, -0.78295279, -0.58094013, 0.29287469, 0.09043412, -0.05797995, 99.90400696, 118.96384430, 32.06999969, 0.00000000
5, 0.5700, 67, -0.01222140, -1.01916993, 0.28123397, 13.52501965, 0.08388681, 34.27711105, -54.45775986, 6.51856184, -62.61326981, 104.08139801, 14.97059441, 158.92814636, 0.21249518, -0.06416161, -0.78320116, -0.58079690, 0.27126122, 0.08226678, -0.04647815, 99.90400696, 118.96384430, 32.06999969, 0.00000000
5, 0.5750, 68, 0.03232991, -0.99574775, 0.26443535, 11.39453220, 10.55559158, 32.94803619, -54.86699677, 6.72318029, -62.08710861, 104.14128876, 14.79795837, 158.93955994, 0.21126734, -0.06512564, -0.78349453, -0.58074188, 0.22381286, 0.05833909, -0.02852168, 99.90400696, 118.96384430, 32.06999969, 0.00000000
4, 0.5650, 59, -0.09818513, -1.03464305, 0.07583034, -47.54032135, 17.17339325, 59.37015915, 10.75708866, -57.70242691, -39.92984390, 92.51509094, -23.84790421, 121.40165710, 0.20088494, -0.47050071, -0.54653168, -0.66300648, -0.30492514, 0.12042518, -0.03454003, 99.96100616, 114.16564178, 32.43999863, 0.00000000
4, 0.5700, 60, -0.06827565, -0.99874324, 0.06632711, -48.72251129, 23.25567245, 58.52944565, 10.34785175, -58.40397644, -38.20520401, 92.22513580, -24.14510727, 121.51557159, 0.19963628, -0.47079375, -0.54412109, -0.66515487, -0.33960134, 0.08644300, -0.02970000, 99.96100616, 114.16564178, 32.43999863, 0.00000000
4, 0.5750, 61, -0.02316049, -0.95648354, 0.05130977, -49.31514359, 26.73715401, 56.44200516, 10.34785175, -58.40397644, -38.20520401, 91.92287445, -24.43197060, 121.65093231, 0.19837524, -0.47092539, -0.54175991, -0.66736257, -0.38932294, 0.04607443, -0.01953441, 99.96100616, 114.16564178, 32.43999863, 0.00000000
3, 0.4650, 57, 0.43722406, -0.62107855, 0.13840039, 0.71631402, 11.36249256, -46.18932724, 28.61736298, -5.93393755, -115.93101501, 111.54782867, 49.43284988, -13.20831871, 0.46778122, -0.77314168, -0.14723857, 0.40218574, 0.32196343, 0.01552891, 0.10022760, 100.02400208, 108.86521149, 32.43000031, 0.00000000
3, 0.4700, 58, 0.50202072, -0.55377734, 0.08827886, 0.83344698, 21.21834373, -41.11083603, 28.61736298, -5.93393755, -115.93101501, 111.75631714, 49.58475494, -12.93965912, 0.46689439, -0.77326548, -0.14904357, 0.40231365, 0.25893962, -0.04903020, 0.15164149, 100.02400208, 108.86521149, 32.43000031, 0.00000000
2, 0.5500, 65, -0.13343352, -0.79994899, 0.03552355, -33.56969070, -8.95769596, 0.21075587, -68.34259033, 22.09880066, -98.42151642, 92.06356049, -1.11794960, 162.17663574, 0.10060742, -0.11818013, -0.70995337, -0.68693364, 0.11394265, -0.19918689, 0.00117932, 99.94600677, 115.42807770, 0.00000000, 0.00000000
2, 0.5550, 66, -0.06039221, -0.74172366, 0.01651601, -21.69059181, -18.39494896, 4.54283857, -68.34259033, 22.09880066, -98.42151642, 91.95692444, -1.13743484, 162.08390808, 0.10115276, -0.11877693, -0.70919847, -0.68753010, 0.04065028, -0.25748420, 0.01803335, 99.94600677, 115.42807770, 0.00000000, 0.00000000
1, 0.5400, 62, -0.28242135, -0.96336961, 0.32867247, -7.92159557, -22.57816505, 11.42236710, -61.15171051, 18.85413551, -74.18883514, 103.79756165, -13.70521355, -20.84371567, -0.61952239, 0.75509262, -0.21374218, -0.01848093, 0.04478421, 0.01931864, -0.09920797, 99.98600769, 112.06170654, 32.77000046, 0.00000000
1, 0.5450, 63, -0.28876579, -0.96498740, 0.32009614, -9.09176636, -28.87963867, 10.86643791, -61.15171051, 18.85413551, -74.18883514, 103.78962708, -13.72390938, -21.00139427, -0.61956000, 0.75472164, -0.21487515, -0.01922072, 0.05079389, 0.02100224, -0.09080323, 99.98600769, 112.06170654, 32.77000046, 0.00000000
1, 0.5500, 64, -0.30509421, -0.95804870, 0.29550293, -10.37995720, -31.25168228, 10.54588032, -61.15171051, 18.85413551, -74.18883514, 103.77799988, -13.73829269, -21.17056465, -0.61961639, 0.75431502, -0.21606047, -0.02005917, 0.06692565, 0.01412218, -0.06642867, 99.98600769, 112.06170654, 32.77000046, 0.00000000
4, 0.5800, 62, 0.01503673, -0.92374480, 0.02877949, -49.10828400, 27.84480286, 54.04975128, 9.41245270, -58.57936096, -36.48056030, 91.61751556, -24.70639420, 121.79476166, 0.19715111, -0.47096443, -0.53945714, -0.66955960, -0.43192920, 0.01518771, -0.00190991, 99.96100616, 114.16564178, 32.43999863, 0.00000000
4, 0.5850, 63, 0.05346739, -0.89087671, 0.00137109, -48.25284195, 27.67741013, 51.65518188, 9.41245270, -58.57936096, -36.48056030, 91.31529236, -24.96812248, 121.93991089, 0.19598106, -0.47095403, -0.53722107, -0.67170477, -0.47455812, -0.01587334, 0.02063787, 99.96100616, 114.16564178, 32.43999863, 0.00000000
3, 0.5450, 59, -0.06979573, -0.37738043, 0.03343006, -8.42173290, 5.05963612, 113.57966614, 31.39432907, 6.40163708, -113.73867035, 111.14656830, 46.92666626, -13.56293774, 0.47619653, -0.77793419, -0.13417983, 0.38736454, 0.80191272, -0.25766438, 0.21297765, 100.02400208, 108.86521149, 32.43000031, 0.00000000
3, 0.5500, 60, -0.04466425, -0.33232275, -0.03811245, -11.26505470, 9.88990974, 122.75555420, 31.36509705, 7.42472935, -112.45249939, 110.90593719, 46.33601379, -13.81642151, 0.47858897, -0.77857447, -0.13040705, 0.38440660, 0.76987922, -0.31061244, 0.28446662, 100.02400208, 108.86521149, 32.43000031, 0.00000000
5, 0.5800, 69, 0.09377762, -0.97196370, 0.25930190, 9.77423954, 17.55805397, 31.48768044, -54.86699677, 6.72318029, -62.08710861, 104.20238495, 14.62381363, 158.98770142, 0.20984115, -0.06584721, -0.78381360, -0.58074719, 0.15942839, 0.03405685, -0.02220098, 99.90400696, 118.96384430, 32.06999969, 0.00000000
5, 0.5850, 70, 0.16877739, -0.95041585, 0.25292748, 8.46455669, 22.79199982, 29.71783257, -55.15930939, 6.57702398, -63.31481934, 104.26387024, 14.45176506, 159.06407166, 0.20828401, -0.06636345, -0.78415024, -0.58079451, 0.08151174, 0.01202861, -0.01463329, 99.90400696, 118.96384430, 32.06999969, 0.00000000
5, 0.5900, 71, 0.24110308, -0.92707270, 0.24183671, 7.21891069, 25.80251122, 27.93503571, -55.15930939, 6.57702398, -63.31481934, 104.32313538, 14.28455734, 159.15753174, 0.20667200, -0.06673087, -0.78448546, -0.58087534, 0.00633670, -0.01177436, -0.00238071, 99.90400696, 118.96384430, 32.06999969, 0.00000000
1, 0.5550, 65, -0.32409668, -0.94522965, 0.26301649, -10.49062729, -31.00063133, 10.20275116, -61.53171539, 20.05261612, -74.45191193, 103.76548004, -13.75133514, -21.33806610, -0.61967701, 0.75390720, -0.21722712, -0.02089970, 0.08578299, 0.00135901, -0.03418996, 99.98600769, 112.06170654, 32.77000046, 0.00000000
1, 0.5600, 66, -0.35116309, -0.94278371, 0.24098183, -10.31491089, -30.91942024, 9.78182411, -61.53171539, 20.05261612, -74.45191193, 103.75364685, -13.76245213, -21.50465393, -0.61973083, 0.75350654, -0.21837732, -0.02174726, 0.11270772, -0.00105230, -0.01242677, 99.98600769, 112.06170654, 32.77000046, 0.00000000
3, 0.5550, 61, 0.02346944, -0.31775630, -0.08179313, -11.06831169, 15.53391266, 131.24411011, 31.36509705, 7.42472935, -112.45249939, 110.68442535, 45.69496918, -14.04733181, 0.48107001, -0.77933758, -0.12645645, 0.38106877, 0.69414592, -0.33355510, 0.32839638, 100.02400208, 108.86521149, 32.43000031, 0.00000000
3, 0.5600, 62, 0.10598665, -0.31270182, -0.06001111, -8.94595623, 21.18944359, 138.34881592, 31.86202812, 7.36626720, -111.07862854, 110.49383545, 45.01015091, -14.25233746, 0.48354870, -0.78025085, -0.12234323, 0.37738761, 0.60338390, -0.34732348, 0.30729768, 100.02400208, 108.86521149, 32.43000031, 0.00000000
3, 0.5650, 63, 0.18698265, -0.31894669, 0.00834757, -6.36307287, 25.95638275, 144.87876892, 31.86202812, 7.36626720, -111.07862854, 110.32912445, 44.28395081, -14.43895531, 0.48602355, -0.78129333, -0.11804540, 0.37339935, 0.51352990, -0.35006094, 0.24004844, 100.02400208, 108.86521149, 32.43000031, 0.00000000
5, 0.5950, 72, 0.30133340, -0.90770900, 0.22650975, 6.67098761, 27.25691414, 26.57414627, -55.15930939, 6.57702398, -63.31481934, 104.38091278, 14.12826157, 159.25988770, 0.20508648, -0.06697417, -0.78481930, -0.58095831, -0.05661037, -0.03156254, 0.01407129, 99.90400696, 118.96384430, 32.06999969, 0.00000000
5, 0.6000, 73, 0.36423674, -0.89466965, 0.21559247, 6.92264557, 27.57339287, 25.68435097, -55.48085403, 7.24934244, -62.64250183, 104.44094086, 13.96956825, 159.36459351, 0.20347068, -0.06721660, -0.78516555, -0.58103091, -0.12216240, -0.04499696, 0.02612229, 99.90400696, 118.96384430, 32.06999969, 0.00000000
4, 0.6100, 64, 0.13425191, -0.78478718, -0.03003514, -28.18439484, 13.12926483, 36.12640762, 7.45396090, -59.77784348, -34.37591171, 90.14275360, -26.03677559, 122.48698425, 0.19120976, -0.47131732, -0.52818471, -0.67994106, -0.57250768, -0.11405785, 0.03292485, 99.96100616, 114.16564178, 32.43999863, 0.00000000
4, 0.6150, 65, 0.14617895, -0.75834835, -0.01277854, -25.48842049, 9.03911591, 33.34148407, 7.45396090, -59.77784348, -34.37591171, 89.99324799, -26.20353889, 122.53709412, 0.19053605, -0.47160405, -0.52681732, -0.68099129, -0.58709598, -0.13919900, 0.01323717, 99.96100616, 114.16564178, 32.43999863, 0.00000000
1, 0.5950, 67, -0.18562442, -0.96435034, 0.22561206, -6.94469547, -4.54053593, 6.16141272, -61.64863968, 20.37415886, -73.75036621, 103.58985901, -13.89071083, -22.06417084, -0.62077737, 0.75130951, -0.22267249, -0.02421738, -0.05490474, 0.02040432, 0.00056503, 99.98600769, 112.06170654, 32.77000046, 0.00000000
1, 0.6000, 68, -0.15714823, -0.96372855, 0.22498374, -7.05116844, -4.41726446, 6.79664516, -61.64863968, 20.37415886, -73.75036621, 103.56196594, -13.91870308, -22.09448433, -0.62097239, 0.75104785, -0.22300807, -0.02424538, -0.08383678, 0.01978276, 0.00078035, 99.98600769, 112.06170654, 32.77000046, 0.00000000
2, 0.5950, 67, -0.04485136, -0.96075571, -0.12476043, 20.08197784, -32.11093140, 26.79163170, -69.07337189, 22.06957054, -99.29844666, 92.03446198, -1.88395333, 160.53318787, 0.10573070, -0.13288587, -0.70716459, -0.68635315, 0.01254044, -0.03810862, 0.15976937, 99.94600677, 115.42807770, 0.00000000, 0.00000000
2, 0.6000, 68, -0.08188623, -0.97928762, -0.08915468, 22.65467834, -27.36185455, 27.18783569, -69.07337189, 22.06957054, -99.29844666, 92.15254211, -2.01481175, 160.39141846, 0.10562916, -0.13464849, -0.70755780, -0.68561971, 0.04730026, -0.01942849, 0.12616168, 99.94600677, 115.42807770, 0.00000000, 0.00000000
2, 0.6050, 69, -0.11462897, -1.00230193, -0.07836208, 26.34945297, -24.50939178, 26.69191933, -69.07337189, 22.06957054, -99.29844666, 92.28891754, -2.14342713, 160.26370239, 0.10543229, -0.13632697, -0.70807487, -0.68478394, 0.07778404, 0.00375417, 0.11765702, 99.94600677, 115.42807770, 0.00000000, 0.00000000
3, 0.5700, 64, 0.25345546, -0.33043373, 0.08086199, -5.46405315, 29.52990150, 151.51771545, 31.86202812, 7.36626720, -111.07862854, 110.18268585, 43.52209091, -14.61072731, 0.48851532, -0.78242135, -0.11359276, 0.36914289, 0.43761042, -0.34781158, 0.16893801, 100.02400208, 108.86521149, 32.43000031, 0.00000000
3, 0.5750, 65, 0.29618442, -0.33858052, 0.12544401, -6.85997820, 30.77944374, 158.18896484, 32.73896408, 6.78164291, -110.02630615, 110.02908325, 42.72645569, -14.78524876, 0.49113271, -0.78353554, -0.10895601, 0.36467719, 0.38488173, -0.34917581, 0.12580845, 100.02400208, 108.86521149, 32.43000031, 0.00000000
3, 0.5800, 66, 0.31439042, -0.34114388, 0.13091460, -8.65309620, 29.47324944, 165.21885681, 32.73896408, 6.78164291, -110.02630615, 109.85544586, 41.89962387, -14.97893810, 0.49390405, -0.78458357, -0.10407383, 0.36007810, 0.35613981, -0.35643077, 0.12160310, 100.02400208, 108.86521149, 32.43000031, 0.00000000
1, 0.6050, 69, -0.13720679, -0.95925260, 0.21723111, -7.07970667, -4.75671625, 7.87553549, -61.67787170, 20.28646660, -73.42881775, 103.53468323, -13.95154572, -22.12777328, -0.62116581, 0.75077462, -0.22338797, -0.02425547, -0.10429279, 0.01533911, 0.00810595, 99.98600769, 112.06170654, 32.77000046, 0.00000000
1, 0.6100, 70, -0.12431302, -0.95842373, 0.21137339, -7.24494410, -5.48783970, 9.26229954, -61.67787170, 20.28646660, -73.42881775, 103.50788879, -13.99030685, -22.16637611, -0.62135887, 0.75048244, -0.22383291, -0.02425334, -0.11780457, 0.01456596, 0.01351666, 99.98600769, 112.06170654, 32.77000046, 0.00000000
1, 0.6150, 71, -0.11467066, -0.95617366, 0.20318541, -7.65891218, -6.22284746, 10.72224236, -62.20403290, 20.16954041, -73.89652252, 103.48039246, -14.03534222, -22.21039963, -0.62155938, 0.75016379, -0.22434506, -0.02423956, -0.12816155, 0.01239949, 0.02123911, 99.98600769, 112.06170654, 32.77000046, 0.00000000
5, 0.6150, 74, 0.48785213, -0.89062220, 0.20980592, 7.44962072, 22.22661400, 26.79864883, -55.39315796, 7.30780458, -63.37328339, 104.61425018, 13.49722767, 159.63137817, 0.19888425, -0.06822577, -0.78613973, -0.58118373, -0.25378466, -0.05019986, 0.03527687, 99.90400696, 118.96384430, 32.06999969, 0.00000000
5, 0.6200, 75, 0.51410663, -0.88963354, 0.20685159, 6.81358862, 18.43054390, 27.45977592, -55.39315796, 7.30780458, -63.37328339, 104.66131592, 13.34109879, 159.68736267, 0.19753525, -0.06875938, -0.78638995, -0.58124256, -0.28270173, -0.05159435, 0.03920000, 99.90400696, 118.96384430, 32.06999969, 0.00000000
4, 0.6200, 66, 0.16486765, -0.73223448, -0.00241299, -23.17849159, 4.12231588, 32.60880280, 7.74627304, -60.01169205, -33.52820587, 89.86707306, -26.36655998, 122.56031799, 0.18994899, -0.47203770, -0.52549106, -0.68187904, -0.60833955, -0.16405202, 0.00080880, 99.96100616, 114.16564178, 32.43999863, 0.00000000
4, 0.6250, 67, 0.17860663, -0.71021473, 0.00002495, -21.50803185, -0.92647344, 33.59749603, 7.74627304, -60.01169205, -33.52820587, 89.76157379, -26.53456497, 122.55575562, 0.18941328, -0.47265667, -0.52415073, -0.68263054, -0.62468123, -0.18477456, -0.00335920, 99.96100616, 114.16564178, 32.43999863, 0.00000000
4, 0.6300, 68, 0.18226039, -0.70678091, 0.00721064, -19.69198036, -6.42103720, 34.43533707, 6.57702398, -60.18708038, -32.06664658, 89.67877197, -26.70689392, 122.52079773, 0.18894023, -0.47347191, -0.52280015, -0.68323201, -0.63101465, -0.18686163, -0.01191964, 99.96100616, 114.16564178, 32.43999863, 0.00000000
2, 0.6100, 70, -0.17442349, -1.03891289, -0.04185008, 28.66012955, -23.83595848, 25.35712814, -68.81028748, 22.85881233, -99.06459808, 92.43700409, -2.26519608, 160.13931274, 0.10524034, -0.13795419, -0.70866936, -0.68387204, 0.13541502, 0.04055039, 0.08368534, 99.94600677, 115.42807770, 0.00000000, 0.00000000
2, 0.6150, 71, -0.19894932, -1.04205072, -0.02818422, 29.41299629, -23.71703339, 23.65886116, -68.81028748, 22.85881233, -99.06459808, 92.58908844, -2.37817764, 160.01556396, 0.10509044, -0.13952821, -0.70929432, -0.68292707, 0.15792376, 0.04388285, 0.07264675, 99.94600677, 115.42807770, 0.00000000, 0.00000000
2, 0.6200, 72, -0.22625984, -1.06147504, 0.00322757, 28.98589706, -23.48833084, 20.94824219, -69.30722046, 22.56650162, -98.36305237, 92.73919678, -2.47734714, 159.89326477, 0.10501651, -0.14100914, -0.70992160, -0.68198192, 0.18345691, 0.06350256, 0.04387099, 99.94600677, 115.42807770, 0.00000000, 0.00000000
3, 0.5850, 67, 0.31656766, -0.34845361, 0.11909053, -10.26758766, 27.22710609, 172.58531189, 33.26512527, 3.88775206, -108.24320221, 109.65954590, 41.04149246, -15.19725609, 0.49682891, -0.78555095, -0.09891059, 0.35536969, 0.34287685, -0.35924804, 0.13443860, 100.02400208, 108.86521149, 32.43000031, 0.00000000
5, 0.6250, 76, 0.53519666, -0.88130891, 0.20112713, 5.94028616, 13.72841835, 27.77805328, -55.97778320, 7.60011673, -63.43174362, 104.69837189, 13.18935204, 159.71942139, 0.19634171, -0.06941549, -0.78657484, -0.58131880, -0.30638933, -0.06034318, 0.04572948, 99.90400696, 118.96384430, 32.06999969, 0.00000000
5, 0.6300, 77, 0.55628848, -0.86616522, 0.19792439, 5.22338438, 8.12480354, 27.78526497, -55.97778320, 7.60011673, -63.43174362, 104.72543335, 13.04466152, 159.72355652, 0.19534211, -0.07020772, -0.78669214, -0.58140165, -0.32997039, -0.07592210, 0.04956571, 99.90400696, 118.96384430, 32.06999969, 0.00000000
5, 0.6350, 78, 0.56522596, -0.84801894, 0.19422178, 4.22732353, 1.99674046, 27.67154121, -56.29932785, 8.06781673, -62.96404648, 104.74069977, 12.90831375, 159.69735718, 0.19455847, -0.07114289, -0.78673106, -0.58149797, -0.34126404, -0.09451520, 0.05370989, 99.90400696, 118.96384430, 32.06999969, 0.00000000
4, 0.6350, 69, 0.18802220, -0.70723611, 0.01825109, -17.80045509, -12.34883213, 34.32136917, 6.57702398, -60.18708038, -32.06664658, 89.62042236, -26.87887573, 122.45280457, 0.18856610, -0.47447544, -0.52145785, -0.68366480, -0.63946033, -0.18504773, -0.02396119, 99.96100616, 114.16564178, 32.43999863, 0.00000000
4, 0.6400, 70, 0.20459458, -0.70951182, 0.03806164, -15.94216728, -18.43587494, 33.36762238, 6.57702398, -60.18708038, -32.06664658, 89.59055328, -27.01435089, 122.34423828, 0.18853365, -0.47554114, -0.52026653, -0.68384105, -0.65841246, -0.18156032, -0.04435439, 99.96100616, 114.16564178, 32.43999863, 0.00000000
4, 0.6450, 71, 0.23374712, -0.71150970, 0.06038857, -14.11340332, -25.16662407, 31.66987419, 6.60625553, -60.53785324, -31.13124847, 89.58377838, -27.17360687, 122.20418549, 0.18845241, -0.47689402, -0.51898038, -0.68389857, -0.68982625, -0.17840588, -0.06685397, 99.96100616, 114.16564178, 32.43999863, 0.00000000
1, 0.6200, 72, -0.11404943, -0.95436537, 0.19914918, -7.44028902, -6.35706902, 12.04824257, -62.20403290, 20.16954041, -73.89652252, 103.45456696, -14.08668709, -22.25665283, -0.62175268, 0.74983770, -0.22490430, -0.02419197, -0.12961653, 0.01069971, 0.02479892, 99.98600769, 112.06170654, 32.77000046, 0.00000000
1, 0.6250, 73, -0.11866762, -0.95170355, 0.20504874, -7.36590147, -6.25640154, 13.69714832, -62.20403290, 20.16954041, -73.89652252, 103.42672729, -14.12699127, -22.30380630, -0.62195152, 0.74951893, -0.22541250, -0.02422853, -0.12581316, 0.00811890, 0.01840708, 99.98600769, 112.06170654, 32.77000046, 0.00000000
1, 0.6300, 74, -0.12219436, -0.95312309, 0.21177509, -7.32341528, -6.49996948, 15.16299343, -62.23326492, 19.20491028, -73.37036133, 103.40269470, -14.19336700, -22.35445023, -0.62214196, 0.74916470, -0.22607723, -0.02409963, -0.12323716, 0.00965512, 0.01119051, 99.98600769, 112.06170654, 32.77000046, 0.00000000
3, 0.5900, 68, 0.30345491, -0.36367968, 0.10610832, -11.99239826, 23.91625214, 179.80059814, 33.26512527, 3.88775206, -108.24320221, 109.43836975, 40.15429306, -15.44503212, 0.49990886, -0.78641313, -0.09344900, 0.35058939, 0.34436661, -0.35442963, 0.14811713, 100.02400208, 108.86521149, 32.43000031, 0.00000000
5, 0.6400, 79, 0.54590809, -0.80621904, 0.18217190, 3.45010614, -7.11722851, 27.20431519, -56.29932785, 8.06781673, -62.96404648, 104.74221039, 12.78582859, 159.62654114, 0.19410171, -0.07228658, -0.78667319, -0.58158791, -0.32410568, -0.13676991, 0.06597225, 99.90400696, 118.96384430, 32.06999969, 0.00000000
5, 0.6450, 80, 0.51698261, -0.79413533, 0.18736006, 3.64534450, -16.60199738, 26.57770920, -56.29932785, 8.06781673, -62.96404648, 104.73297119, 12.71003151, 159.51069641, 0.19419120, -0.07347153, -0.78653860, -0.58159155, -0.29678997, -0.14923702, 0.06076019, 99.90400696, 118.96384430, 32.06999969, 0.00000000
5, 0.6500, 81, 0.48945251, -0.79856592, 0.20505336, 4.13058138, -23.54643059, 25.97300911, -56.44548416, 8.33089733, -62.96404648, 104.72061920, 12.61436081, 159.36013794, 0.19432674, -0.07499535, -0.78635979, -0.58159375, -0.27066797, -0.14516418, 0.04295223, 99.90400696, 118.96384430, 32.06999969, 0.00000000
4, 0.6500, 72, 0.27173468, -0.71027243, 0.09130639, -12.33975792, -33.85933304, 29.69319344, 6.60625553, -60.53785324, -31.13124847, 89.60874176, -27.32326126, 122.01495361, 0.18858941, -0.47847438, -0.51771486, -0.68371618, -0.73017341, -0.17843166, -0.09750454, 99.96100616, 114.16564178, 32.43999863, 0.00000000
4, 0.6550, 73, 0.30578256, -0.69169843, 0.12769505, -11.46616077, -45.42307281, 28.10219955, 6.60625553, -60.53785324, -31.13124847, 89.66866302, -27.46520996, 121.76014709, 0.18901587, -0.48036858, -0.51641083, -0.68325603, -0.76644987, -0.19585776, -0.13309771, 99.96100616, 114.16564178, 32.43999863, 0.00000000
3, 0.6250, 69, 0.56663066, -0.50109142, 0.27500111, -12.84384155, -27.38494873, 224.75175476, 33.79129028, 2.16311026, -104.44314575, 107.33895111, 33.28373337, -18.19226646, 0.52401471, -0.78898495, -0.04550935, 0.31755373, -0.01409161, -0.29408729, -0.02526256, 100.02400208, 108.86521149, 32.43000031, 0.00000000
3, 0.6300, 70, 0.60558981, -0.50853169, 0.28413844, -13.56250000, -42.22418594, 230.42218018, 33.79129028, 2.16311026, -104.44314575, 106.92296600, 32.24490738, -18.83574295, 0.52772999, -0.78850633, -0.03679690, 0.31369534, -0.06821889, -0.29782701, -0.03716676, 100.02400208, 108.86521149, 32.43000031, 0.00000000
3, 0.6350, 71, 0.65079683, -0.51645201, 0.27293336, -13.53046322, -57.65863419, 236.18234253, 33.93744659, -1.78310430, -104.29698944, 106.47496796, 31.19661903, -19.55926323, 0.53149039, -0.78774077, -0.02752649, 0.31020123, -0.12890773, -0.30104691, -0.02941035, 100.02400208, 108.86521149, 32.43000031, 0.00000000
2, 0.6250, 73, -0.23964976, -1.08846998, 0.03691597, 26.82645607, -22.25835037, 18.27898788, -69.30722046, 22.56650162, -98.36305237, 92.87841034, -2.56318069, 159.77752686, 0.10499683, -0.14236040, -0.71050435, -0.68109673, 0.19528697, 0.09068537, 0.01265636, 99.94600677, 115.42807770, 0.00000000, 0.00000000
2, 0.6300, 74, -0.23534876, -1.09394383, 0.07811631, 23.70732498, -20.71527863, 15.22731686, -69.30722046, 22.56650162, -98.36305237, 93.00182343, -2.63390446, 159.67007446, 0.10503912, -0.14355655, -0.71101856, -0.68030202, 0.18968582, 0.09633079, -0.02631884, 99.94600677, 115.42807770, 0.00000000, 0.00000000
1, 0.6350, 75, -0.12605400, -0.95536542, 0.22213101, -7.52389860, -7.17096663, 16.93721199, -62.23326492, 19.20491028, -73.37036133, 103.37908173, -14.26761436, -22.41056252, -0.62233365, 0.74878645, -0.22681776, -0.02394637, -0.12063415, 0.01209111, 0.00036087, 99.98600769, 112.06170654, 32.77000046, 0.00000000
5, 0.6550, 82, 0.47401488, -0.80946255, 0.22156021, 4.45463276, -29.17231750, 25.59094620, -56.44548416, 8.33089733, -62.96404648, 104.70417023, 12.52764320, 159.18231201, 0.19466338, -0.07665137, -0.78614044, -0.58156157, -0.25674367, -0.13466156, 0.02627620, 99.90400696, 118.96384430, 32.06999969, 0.00000000
5, 0.6600, 83, 0.46301299, -0.82224339, 0.23381723, 4.54582739, -33.44568253, 25.36410904, -56.62086868, 7.92166042, -63.69482422, 104.68395233, 12.44739056, 158.98367310, 0.19515151, -0.07840859, -0.78588563, -0.58150828, -0.24713333, -0.12226276, 0.01377943, 99.90400696, 118.96384430, 32.06999969, 0.00000000
4, 0.6850, 74, 0.27069774, -0.56733102, 0.19426677, -22.09716415, -104.38447571, 22.92632294, 6.78164291, -60.97632217, -31.45279121, 90.63989258, -28.18245888, 118.78820801, 0.19822279, -0.49846470, -0.50641364, -0.67511922, -0.74254501, -0.31430033, -0.18499032, 99.96100616, 114.16564178, 32.43999863, 0.00000000
