SensorId, TimeStamp (s), FrameNumber, AccX (g), AccY (g), AccZ (g), GyroX (deg/s), GyroY (deg/s), GyroZ (deg/s), MagX (uT), MagY (uT), MagZ (uT), EulerX (deg), EulerY (deg), EulerZ (deg), QuatW, QuatX, QuatY, QuatZ, LinAccX (g), LinAccY (g), LinAccZ (g), Pressure (kPa), Altitude (m), Temperature (degC), HeaveMotion (m)
1, 0.0000, 0, -0.17926802, -1.08016777, 0.07963287, 47.43243790, -21.46982765, -120.42167664, -21.57263947, 2.33849740, -108.65244293, 101.85296631, -0.53362244, -27.82997513, -0.61268252, 0.75284094, -0.18954217, -0.14806914, 0.16709426, 0.10122366, 0.12254191, 100.07100677, 104.91204071, 32.27999878, 0.00000000
1, 0.0050, 1, -0.18449284, -1.08362651, 0.08207220, 45.11515045, -23.39648628, -117.87928772, -20.54954720, 2.42619109, -108.56474304, 102.07702637, 0.06777599, -27.82309341, -0.61024362, 0.75485039, -0.18658485, -0.15162431, 0.18285388, 0.10542704, 0.12397643, 100.07100677, 104.91204071, 32.27999878, 0.00000000
1, 0.0250, 2, -0.15684949, -1.04210258, 0.05176203, 35.13301086, -30.11961937, -103.92664337, -19.84799767, 2.42619109, -108.18473816, 102.84449005, 2.33044481, -27.89602280, -0.60123307, 0.76161182, -0.17609116, -0.16570541, 0.19508725, 0.06760207, 0.16758746, 100.07100677, 104.91204071, 32.27999878, 0.00000000
1, 0.0300, 3, -0.14948390, -1.03224432, 0.03480253, 34.37498093, -30.85512924, -98.18596649, -19.02952385, 2.28003502, -106.92779541, 103.01325226, 2.84379387, -27.93733978, -0.59914374, 0.76302892, -0.17388564, -0.16904876, 0.19679871, 0.05880076, 0.18734097, 100.07100677, 104.91204071, 32.27999878, 0.00000000
1, 0.0350, 4, -0.12936112, -1.04910767, 0.05189714, 33.83135986, -31.75443459, -92.80245209, -19.02952385, 2.28003502, -106.92779541, 103.17854309, 3.33203840, -27.98761559, -0.59709215, 0.76436841, -0.17187501, -0.17228125, 0.18524736, 0.07672678, 0.17299876, 100.07100677, 104.91204071, 32.27999878, 0.00000000
1, 0.0400, 5, -0.10550305, -1.05540347, 0.05618901, 31.42187119, -34.04892731, -86.55213165, -18.09412384, 2.48465347, -107.13241577, 103.33038330, 3.79258084, -28.05489540, -0.59513885, 0.76556671, -0.17011134, -0.17544155, 0.16954726, 0.08411390, 0.17128322, 100.07100677, 104.91204071, 32.27999878, 0.00000000
1, 0.0450, 6, -0.09870310, -1.05252361, 0.04097632, 28.76646614, -36.87338257, -81.53813171, -18.09412384, 2.48465347, -107.13241577, 103.46717072, 4.23211098, -28.14061165, -0.59328091, 0.76662385, -0.16856533, -0.17858191, 0.17052346, 0.08234420, 0.18880287, 100.07100677, 104.91204071, 32.27999878, 0.00000000
1, 0.0500, 7, -0.09009488, -1.05514169, 0.01046226, 25.27285194, -40.61402130, -74.92291260, -18.09412384, 2.48465347, -107.13241577, 103.58403015, 4.64395905, -28.25136948, -0.59155393, 0.76750106, -0.16730800, -0.18169816, 0.16926469, 0.08603528, 0.22123495, 100.07100677, 104.91204071, 32.27999878, 0.00000000
1, 0.0550, 8, -0.08264216, -1.05943525, 0.00786206, 22.75625229, -43.00054932, -69.23425293, -17.42180634, 1.40309846, -107.19087982, 103.68611908, 5.03113222, -28.37972069, -0.58993018, 0.76824224, -0.16628052, -0.18476255, 0.16865921, 0.09131861, 0.22550806, 100.07100677, 104.91204071, 32.27999878, 0.00000000
1, 0.0600, 9, -0.07502834, -1.05333447, 0.01512582, 20.24382973, -45.76662827, -63.69490051, -17.42180634, 1.40309846, -107.19087982, 103.77310181, 5.39481544, -28.52757072, -0.58840716, 0.76884645, -0.16548784, -0.18779215, 0.16745219, 0.08613846, 0.21966845, 100.07100677, 104.91204071, 32.27999878, 0.00000000
1, 0.0650, 10, -0.05868069, -1.04481411, 0.03644106, 17.74544144, -49.65159607, -57.97208023, -17.50950050, 2.01695418, -107.33703613, 103.84427643, 5.73548937, -28.70077515, -0.58697951, 0.76930451, -0.16496459, -0.19082022, 0.15706658, 0.07845554, 0.19954225, 100.07100677, 104.91204071, 32.27999878, 0.00000000
1, 0.0700, 11, -0.04832303, -1.03376698, 0.04640580, 13.66233253, -54.77663803, -51.94318390, -17.50950050, 2.01695418, -107.33703613, 103.89084625, 6.05311108, -28.90598106, -0.58569521, 0.76956338, -0.16473962, -0.19389221, 0.15229777, 0.06816748, 0.19037950, 100.07100677, 104.91204071, 32.27999878, 0.00000000
1, 0.0900, 12, -0.08905196, -0.93155921, -0.04121878, -0.30200124, -79.67213440, -26.70061874, -16.77871895, 0.81847411, -107.74626923, 103.82801819, 7.09427357, -30.11174011, -0.58187872, 0.76852483, -0.16720842, -0.20694992, 0.21170849, -0.03202026, 0.27688447, 100.07100677, 104.91204071, 32.27999878, 0.00000000
1, 0.0950, 13, -0.14563085, -0.89469266, -0.03489574, -2.49567366, -85.00591278, -19.99970627, -16.77871895, 0.81847411, -107.74626923, 103.76615143, 7.29207897, -30.50407219, -0.58116025, 0.76783156, -0.16867746, -0.21032266, 0.27181566, -0.06870490, 0.26940373, 100.07100677, 104.91204071, 32.27999878, 0.00000000
1, 0.1000, 14, -0.19613878, -0.86941957, -0.02414485, -4.92407703, -88.56636047, -13.25353336, -16.77871895, 0.81847411, -107.74626923, 103.68761444, 7.46080923, -30.92228508, -0.58055001, 0.76698303, -0.17043814, -0.21365772, 0.32540643, -0.09390453, 0.25725633, 100.07100677, 104.91204071, 32.27999878, 0.00000000
1, 0.1050, 15, -0.25411800, -0.83770823, -0.00905035, -9.07869816, -92.83892059, -3.55797720, -17.33411217, 1.98772287, -107.86319733, 103.58311462, 7.58669424, -31.37330055, -0.58012736, 0.76590610, -0.17259046, -0.21691632, 0.38564926, -0.12575433, 0.24032104, 100.07100677, 104.91204071, 32.27999878, 0.00000000
1, 0.1100, 16, -0.29886290, -0.81292105, -0.00075793, -11.98606873, -95.16931915, 2.55761862, -17.33411217, 1.98772287, -107.86319733, 103.46075439, 7.68462133, -31.84330940, -0.57983202, 0.76467478, -0.17497608, -0.22011554, 0.43218845, -0.15079796, 0.22991577, 100.07100677, 104.91204071, 32.27999878, 0.00000000
1, 0.1150, 17, -0.33967891, -0.79071581, -0.00188451, -14.50937176, -97.03037262, 8.11867714, -17.80181122, 2.28003502, -108.27243042, 103.32301331, 7.75653458, -32.32923126, -0.57964933, 0.76330584, -0.17756720, -0.22325084, 0.47435957, -0.17336118, 0.22868150, 100.07100677, 104.91204071, 32.27999878, 0.00000000
1, 0.1200, 18, -0.37331674, -0.76633584, -0.00675795, -17.07326508, -98.53697968, 13.40828514, -17.80181122, 2.28003502, -108.27243042, 103.17015076, 7.80316925, -32.82889557, -0.57958066, 0.76180226, -0.18034431, -0.22631758, 0.50892508, -0.19820461, 0.23097080, 100.07100677, 104.91204071, 32.27999878, 0.00000000
1, 0.1250, 19, -0.40646499, -0.74160075, -0.02085941, -19.26021004, -98.91955566, 18.43946838, -17.97719955, 1.81233561, -109.12014008, 102.99954224, 7.80928755, -33.33694458, -0.57968986, 0.76013976, -0.18334648, -0.22919755, 0.54245478, -0.22351813, 0.24224162, 100.07100677, 104.91204071, 32.27999878, 0.00000000
1, 0.1300, 20, -0.44785643, -0.73919117, 0.00155790, -20.08250046, -97.47554016, 23.32155418, -17.97719955, 1.81233561, -109.12014008, 102.83066559, 7.80348969, -33.84280014, -0.57980430, 0.75846273, -0.18638940, -0.23199202, 0.58368146, -0.22664449, 0.21683645, 100.07100677, 104.91204071, 32.27999878, 0.00000000
1, 0.1350, 21, -0.45292482, -0.76899040, 0.09829991, -18.48497772, -93.15785217, 28.34649277, -17.97719955, 1.81233561, -109.12014008, 102.67221832, 7.76704979, -34.33288193, -0.57993996, 0.75681525, -0.18950143, -0.23449889, 0.58801103, -0.19768861, 0.11732614, 100.07100677, 104.91204071, 32.27999878, 0.00000000
1, 0.1400, 22, -0.45518303, -0.75746608, 0.20885065, -17.21897125, -93.56787109, 34.31452179, -18.03566170, 1.05232382, -109.06167603, 102.51947021, 7.70060968, -34.83133698, -0.58008003, 0.75513208, -0.19283007, -0.23685288, 0.58897817, -0.21010937, 0.00423042, 100.07100677, 104.91204071, 32.27999878, 0.00000000
2, -0.0000, 0, 0.09219082, -1.03015912, 0.09858520, -6.39182901, -27.03758430, 6.05168152, -20.72493362, 12.62788677, -79.30429840, 84.32588959, -0.26057440, -46.36356354, 0.68199098, -0.61638051, 0.26578254, 0.29038450, -0.09654832, 0.03505439, -0.19731411, 100.02000427, 109.20150757, 0.00000000, 0.00000000
2, 0.0050, 1, 0.09443686, -1.01361263, 0.10092840, -6.45774889, -27.42105293, 6.32379103, -20.95878410, 13.62174797, -79.59661102, 84.29427338, -0.30562520, -46.49685669, 0.68192613, -0.61576712, 0.26668653, 0.29100844, -0.09957339, 0.01856661, -0.20021130, 100.02000427, 109.20150757, 0.00000000, 0.00000000
1, 0.1800, 23, 0.60927361, -1.75126946, -0.28159901, -31.25724411, 51.18729019, 41.27349091, -21.45571518, 1.37386727, -109.00321198, 101.63232422, 5.78323793, -37.15055084, -0.58567870, 0.74396098, -0.21638861, -0.23807272, -0.50673676, 0.77748495, 0.48142660, 100.07100677, 104.91204071, 32.27999878, 0.00000000
1, 0.1850, 24, 1.10141861, -1.61320329, -0.37379393, -32.89383698, 65.02805328, 37.24269867, -21.45571518, 1.37386727, -109.00321198, 101.49622345, 5.53568983, -36.86762238, -0.58774090, 0.74344277, -0.21559115, -0.23531684, -1.00294244, 0.63866293, 0.57279021, 100.07100677, 104.91204071, 32.27999878, 0.00000000
1, 0.1900, 25, 1.21968281, -1.43368888, -0.17915708, -25.61460495, 46.98822021, 44.11606598, -20.98801422, 1.69541073, -110.05553436, 101.38642883, 5.27286816, -36.67989349, -0.58946085, 0.74285388, -0.21555218, -0.23289788, -1.12617826, 0.45800740, 0.37685120, 100.07100677, 104.91204071, 32.27999878, 0.00000000
2, 0.0100, 2, 0.09270913, -1.01718819, 0.09688054, -6.45651865, -28.45993233, 6.23875475, -20.95878410, 13.62174797, -79.59661102, 84.26278687, -0.35085204, -46.63533783, 0.68184704, -0.61514056, 0.26761878, 0.29166234, -0.09863557, 0.02220079, -0.19670561, 100.02000427, 109.20150757, 0.00000000, 0.00000000
4, 0.0000, 0, -0.15154448, -1.01550734, 0.29386559, -0.92610770, -39.74794388, -17.41062737, -35.92516708, -37.94212341, -12.71557999, 104.14968109, 10.25436306, -73.46548462, 0.44845489, -0.66250437, 0.42586777, 0.42262617, 0.32899171, 0.06127251, -0.05314176, 100.05400848, 106.34145355, 32.00999832, 0.00000000
3, 0.0000, 0, 0.03461574, -1.13942540, 0.20614386, -0.31349710, -19.73505211, -43.23211670, -23.56036186, -16.54487038, -46.50687027, 105.46601868, 20.68209457, -62.36001205, 0.43568304, -0.72607785, 0.31233209, 0.43062735, 0.31760609, 0.23741469, 0.04348690, 100.11500549, 101.21302795, 32.30999756, 0.00000000
3, 0.0050, 1, -0.03786439, -1.16036367, 0.22615543, -1.03025365, -15.89580154, -45.06673050, -23.56036186, -16.54487038, -46.50687027, 105.45459747, 20.92045975, -62.37770081, 0.43465126, -0.72637224, 0.31118649, 0.43200073, 0.39395535, 0.25971514, 0.02290308, 100.11500549, 101.21302795, 32.30999756, 0.00000000
1, 0.1950, 26, 1.06387579, -1.23929560, 0.09242868, -20.70230484, 5.28854656, 56.34437561, -20.98801422, 1.69541073, -110.05553436, 101.28108978, 4.99111176, -36.70903015, -0.59074843, 0.74184716, -0.21703203, -0.23146537, -0.97586036, 0.26238269, 0.10350750, 100.07100677, 104.91204071, 32.27999878, 0.00000000
1, 0.2000, 27, 0.73590469, -1.03531265, 0.12610029, -19.74427605, -35.69966507, 69.44618225, -21.66033363, 1.78310430, -109.67552948, 101.16278076, 4.68460417, -36.95209122, -0.59174353, 0.74032027, -0.22000179, -0.23100810, -0.65318125, 0.05751202, 0.06746330, 100.07100677, 104.91204071, 32.27999878, 0.00000000
1, 0.2050, 28, 0.31254977, -0.88010931, -0.00021682, -12.75365734, -55.25147247, 81.19449615, -21.66033363, 1.78310430, -109.67552948, 101.07249451, 4.33876753, -37.30195999, -0.59243411, 0.73865312, -0.22392298, -0.23080701, -0.23534404, -0.09828124, 0.19135900, 100.07100677, 104.91204071, 32.27999878, 0.00000000
1, 0.2100, 29, -0.11971214, -0.88338256, -0.01167369, -4.19597387, -54.59945679, 92.00232697, -21.66033363, 1.78310430, -109.67552948, 101.02691650, 3.93896198, -37.65835190, -0.59295118, 0.73709422, -0.22825655, -0.23021731, 0.19017136, -0.09566037, 0.20091452, 100.07100677, 104.91204071, 32.27999878, 0.00000000
1, 0.2150, 30, -0.30075482, -0.94243228, 0.18700145, 5.55132294, -45.06252289, 95.82109070, -22.82958221, 1.54925454, -109.82168579, 101.03554535, 3.51137924, -37.97112656, -0.59327453, 0.73583013, -0.23255779, -0.22912081, 0.36338949, -0.03743169, 0.00171489, 100.07100677, 104.91204071, 32.27999878, 0.00000000
4, 0.0500, 1, -0.21955873, -1.13043916, 0.23549646, -5.81280088, -10.25249672, -11.56709385, -34.96053696, -38.05904770, -12.42326832, 103.82261658, 11.26322937, -74.49705505, 0.44192943, -0.66012776, 0.42589754, 0.43306014, 0.41458791, 0.17808263, -0.00101740, 100.05400848, 106.34145355, 32.00999832, 0.00000000
4, 0.0550, 2, -0.22798061, -1.13456833, 0.24293728, -5.67994213, -9.15306187, -11.27067852, -34.96053696, -38.05904770, -12.42326832, 103.78802490, 11.32887840, -74.52865601, 0.44170985, -0.66005462, 0.42564195, 0.43364656, 0.42414272, 0.18228753, -0.00909606, 100.05400848, 106.34145355, 32.00999832, 0.00000000
3, 0.0100, 2, -0.05585556, -1.16884089, 0.20947681, -2.14514542, -14.08616829, -46.95592117, -23.56036186, -16.54487038, -46.50687027, 105.44182587, 21.16551781, -62.38343048, 0.43364188, -0.72670203, 0.30992433, 0.43336585, 0.41591644, 0.26960418, 0.03897516, 100.11500549, 101.21302795, 32.30999756, 0.00000000
3, 0.0150, 3, -0.01354787, -1.17233789, 0.16360934, -3.03870749, -9.66296482, -48.60696411, -23.23881912, -16.16486359, -46.91610718, 105.43370819, 21.41264534, -62.36397934, 0.43268731, -0.72711748, 0.30850780, 0.43463197, 0.37762603, 0.27456164, 0.08426932, 100.11500549, 101.21302795, 32.30999756, 0.00000000
1, 0.2600, 31, -0.01836191, -0.85016549, 0.05024653, -10.94580841, -30.44888306, 58.38284683, -25.63577843, 0.67231804, -110.58170319, 100.53385162, 0.60194898, -40.66369247, -0.59797478, 0.72227359, -0.26405260, -0.22588351, 0.02986662, -0.13295354, 0.13135737, 100.07100677, 104.91204071, 32.27999878, 0.00000000
1, 0.2650, 32, -0.05707148, -0.89276540, 0.03331135, -8.70053577, -30.81349373, 58.41568756, -26.27886581, 0.29231218, -110.75708771, 100.48938751, 0.34243026, -40.86804962, -0.59846443, 0.72107071, -0.26661187, -0.22542308, 0.06410106, -0.09052405, 0.14729115, 100.07100677, 104.91204071, 32.27999878, 0.00000000
2, 0.0400, 3, 0.13666254, -1.04421175, 0.13946855, -15.38857937, -31.88487053, 3.39782953, -20.43262100, 13.24174213, -79.97661591, 83.95592499, -0.56883454, -47.51989746, 0.68172204, -0.61066002, 0.27285528, 0.29647845, -0.14644445, 0.04978315, -0.24442729, 100.02000427, 109.20150757, 0.00000000, 0.00000000
2, 0.0450, 4, 0.12749331, -1.05694234, 0.12309901, -16.66014862, -33.47910690, 3.12452316, -20.69570351, 11.66325665, -80.32739258, 83.87429810, -0.60211980, -47.68470383, 0.68180692, -0.60969323, 0.27371851, 0.29747549, -0.13785841, 0.06266686, -0.22944221, 100.02000427, 109.20150757, 0.00000000, 0.00000000
2, 0.0500, 5, 0.11169741, -1.06399894, 0.11968719, -17.44019127, -34.82850647, 2.68339634, -20.69570351, 11.66325665, -80.32739258, 83.78894806, -0.63417059, -47.85641098, 0.68188876, -0.60868943, 0.27459931, 0.29853010, -0.12262581, 0.06988738, -0.22749612, 100.02000427, 109.20150757, 0.00000000, 0.00000000
4, 0.0600, 3, -0.23923437, -1.14260292, 0.25081205, -5.65441275, -7.91316462, -11.14388466, -34.96053696, -38.05904770, -12.42326832, 103.75469971, 11.39241600, -74.55432129, 0.44151479, -0.66000277, 0.42536640, 0.43419415, 0.43649358, 0.19039926, -0.01758012, 100.05400848, 106.34145355, 32.00999832, 0.00000000
4, 0.0650, 4, -0.24569476, -1.14533818, 0.25449100, -5.70062828, -6.60832691, -10.77007484, -34.40514374, -37.50365448, -12.83250523, 103.72229004, 11.45257568, -74.57402039, 0.44135222, -0.65996754, 0.42507550, 0.43469772, 0.44400024, 0.19320720, -0.02185168, 100.05400848, 106.34145355, 32.00999832, 0.00000000
4, 0.0700, 5, -0.24156734, -1.15346074, 0.25200880, -5.67861080, -4.99682617, -10.14783478, -34.40514374, -37.50365448, -12.83250523, 103.69140625, 11.50779057, -74.58651733, 0.44123051, -0.65995151, 0.42477170, 0.43514228, 0.44083816, 0.20139295, -0.01993546, 100.05400848, 106.34145355, 32.00999832, 0.00000000
3, 0.0750, 4, 0.01762560, -1.21226537, 0.16238578, -6.39291477, -6.88870287, -62.34537888, -21.22186470, -15.90178299, -46.71148682, 105.36085510, 24.82501411, -61.83756256, 0.42011797, -0.73326743, 0.28727752, 0.45087862, 0.40099457, 0.33655676, 0.07821687, 100.11500549, 101.21302795, 32.30999756, 0.00000000
3, 0.0800, 5, 0.04983538, -1.21053731, 0.17053914, -5.82080507, -6.92692947, -62.42190552, -21.22186470, -16.39871407, -46.71148682, 105.35469055, 25.13515282, -61.78321457, 0.41898778, -0.73380405, 0.28529170, 0.45231578, 0.37369275, 0.33699679, 0.06935485, 100.11500549, 101.21302795, 32.30999756, 0.00000000
2, 0.0550, 6, 0.09511445, -1.06757975, 0.12710512, -18.39960861, -35.10387802, 2.22266531, -20.37415886, 13.30020428, -80.53200531, 83.69891357, -0.66434830, -48.02968979, 0.68198478, -0.60765713, 0.27546272, 0.29961631, -0.10657880, 0.07364343, -0.23646194, 100.02000427, 109.20150757, 0.00000000, 0.00000000
2, 0.0600, 7, 0.08272980, -1.06776226, 0.13427010, -19.14612961, -34.68728256, 1.94713223, -20.37415886, 13.30020428, -80.53200531, 83.60520935, -0.69320804, -48.20099258, 0.68209994, -0.60660952, 0.27629584, 0.30070770, -0.09470555, 0.07400916, -0.24522725, 100.02000427, 109.20150757, 0.00000000, 0.00000000
2, 0.0650, 8, 0.06980955, -1.06548107, 0.12540007, -20.34963417, -35.06872177, 1.69225407, -20.49108505, 11.51710033, -80.97047424, 83.50559235, -0.72130078, -48.37429810, 0.68223703, -0.60552239, 0.27711698, 0.30183044, -0.08227449, 0.07192548, -0.23805711, 100.02000427, 109.20150757, 0.00000000, 0.00000000
4, 0.0750, 6, -0.23701683, -1.16208565, 0.24628733, -6.26130247, -3.18034983, -9.47396564, -34.20052719, -37.50365448, -12.68634892, 103.65922546, 11.55757236, -74.59085846, 0.44117191, -0.65994596, 0.42444116, 0.43553221, 0.43716389, 0.21006349, -0.01478110, 100.05400848, 106.34145355, 32.00999832, 0.00000000
4, 0.0800, 7, -0.23777583, -1.16738868, 0.23792069, -7.23522949, -1.26462781, -8.58048725, -34.20052719, -38.17597198, -12.68634892, 103.62386322, 11.60075569, -74.58680725, 0.44119379, -0.65994149, 0.42408088, 0.43586779, 0.43868810, 0.21537913, -0.00702677, 100.05400848, 106.34145355, 32.00999832, 0.00000000
4, 0.0850, 8, -0.23213603, -1.15914881, 0.22815244, -8.42310429, 0.82689905, -7.92349863, -34.20052719, -38.17597198, -12.68634892, 103.58449554, 11.63829041, -74.57318878, 0.44130087, -0.65994161, 0.42367658, 0.43615234, 0.43371400, 0.20711786, 0.00207202, 100.05400848, 106.34145355, 32.00999832, 0.00000000
1, 0.2700, 33, -0.10810394, -0.91088378, 0.02145757, -4.73863316, -28.65824699, 60.02901840, -26.27886581, 0.29231218, -110.75708771, 100.46572113, 0.07296184, -41.06307983, -0.59886515, 0.71996784, -0.26920176, -0.22480485, 0.11053143, -0.07250413, 0.15847282, 100.07100677, 104.91204071, 32.27999878, 0.00000000
1, 0.2750, 34, -0.15179548, -0.96351695, 0.06642274, 4.41533375, -22.80446243, 64.71396637, -26.62964058, 1.84156680, -110.28939056, 100.48543549, -0.23123336, -41.23348618, -0.59912390, 0.71907055, -0.27189943, -0.22373821, 0.14898053, -0.01991268, 0.11348332, 100.07100677, 104.91204071, 32.27999878, 0.00000000
1, 0.2800, 35, -0.23058268, -1.05653203, 0.22253770, 12.24978828, -22.06369400, 71.53716278, -26.62964058, 1.84156680, -110.28939056, 100.54877472, -0.56291246, -41.40665817, -0.59916884, 0.71832854, -0.27483755, -0.22240776, 0.22168350, 0.07304508, -0.04208088, 100.07100677, 104.91204071, 32.27999878, 0.00000000
4, 0.0900, 9, -0.22211291, -1.14596462, 0.22211340, -9.79076290, 3.22893906, -7.29187727, -34.40514374, -38.14673996, -13.15404797, 103.53530121, 11.62490273, -74.54891205, 0.44173765, -0.65980566, 0.42341235, 0.43617234, 0.42387164, 0.19378701, 0.00734472, 100.05400848, 106.34145355, 32.00999832, 0.00000000
2, 0.0700, 9, 0.04271439, -1.05215037, 0.09488927, -22.04366302, -35.24567795, 1.75098205, -20.49108505, 11.51710033, -80.97047424, 83.39759827, -0.75010455, -48.54839325, 0.68241519, -0.60437971, 0.27792168, 0.30297554, -0.05568008, 0.05881184, -0.20938784, 100.02000427, 109.20150757, 0.00000000, 0.00000000
2, 0.0750, 10, 0.01246162, -1.04945362, 0.05446948, -22.46711159, -35.66196060, 1.70795822, -20.49108505, 11.51710033, -80.97047424, 83.29867554, -0.77760357, -48.72482300, 0.68253380, -0.60328722, 0.27875221, 0.30412072, -0.02591985, 0.05633108, -0.17077249, 100.02000427, 109.20150757, 0.00000000, 0.00000000
2, 0.0800, 11, -0.04909088, -1.06044149, -0.03168065, -22.04472923, -36.35247040, 1.49107635, -20.69570351, 13.06635475, -81.23355865, 83.19092560, -0.80639392, -48.90446091, 0.68269056, -0.60212910, 0.27958110, 0.30530080, 0.03514010, 0.06753612, -0.08640427, 100.02000427, 109.20150757, 0.00000000, 0.00000000
1, 0.2850, 36, -0.35698816, -1.10016394, 0.31284529, 15.73045444, -26.15163040, 77.70481873, -26.62964058, 1.84156680, -110.28939056, 100.63098907, -0.92092359, -41.60598755, -0.59910774, 0.71755570, -0.27810630, -0.22099945, 0.34171477, 0.11684921, -0.13144082, 100.07100677, 104.91204071, 32.27999878, 0.00000000
1, 0.2900, 37, -0.44970089, -1.07445383, 0.27308169, 17.91739655, -26.99630737, 80.32081604, -27.47734642, 1.54925454, -109.88014984, 100.72554779, -1.29068244, -41.81243515, -0.59898472, 0.71679044, -0.28149602, -0.21951945, 0.42810935, 0.09161291, -0.09030831, 100.07100677, 104.91204071, 32.27999878, 0.00000000
1, 0.2950, 38, -0.50612700, -1.02852809, 0.18846436, 17.47035980, -19.94534492, 78.07595825, -27.47734642, 1.54925454, -109.88014984, 100.81822205, -1.65561426, -41.98278809, -0.59893292, 0.71609867, -0.28462288, -0.21788070, 0.47833848, 0.04628461, -0.00416793, 100.07100677, 104.91204071, 32.27999878, 0.00000000
2, 0.1250, 12, -0.06582536, -1.08667135, 0.05889025, -10.42260838, -5.34832001, -3.24026108, -20.78339577, 13.65097904, -82.37357330, 82.71944427, -0.80704105, -49.87869644, 0.68253368, -0.59692544, 0.28341156, 0.31225911, 0.05175247, 0.09483804, -0.18565157, 100.02000427, 109.20150757, 0.00000000, 0.00000000
2, 0.1300, 13, -0.04180208, -1.09052694, 0.06919113, -11.69066525, -2.61876559, -2.54503107, -20.40339088, 13.21251106, -82.43203735, 82.66119385, -0.79608262, -49.89330292, 0.68277103, -0.59657300, 0.28326392, 0.31254765, 0.02786117, 0.09878093, -0.19664836, 100.02000427, 109.20150757, 0.00000000, 0.00000000
2, 0.1350, 14, -0.00124400, -1.10191548, 0.06228016, -12.85673046, 1.28984129, -1.93601966, -20.40339088, 13.21251106, -82.43203735, 82.59683990, -0.78565711, -49.88815308, 0.68309510, -0.59623134, 0.28299972, 0.31273061, -0.01251412, 0.11030950, -0.19084176, 100.02000427, 109.20150757, 0.00000000, 0.00000000
4, 0.0950, 10, -0.20926194, -1.13832605, 0.21216093, -10.72781563, 4.97286844, -6.43722773, -34.40514374, -38.14673996, -13.15404797, 103.48818970, 11.65038967, -74.51654053, 0.44201577, -0.65981239, 0.42292693, 0.43635133, 0.41109893, 0.18596865, 0.01648100, 100.05400848, 106.34145355, 32.00999832, 0.00000000
1, 0.3000, 39, -0.51246232, -0.99550092, 0.12341190, 14.00038242, -8.07323551, 71.21741486, -27.76965714, -0.11692487, -110.34784698, 100.89247894, -1.99773347, -42.08895493, -0.59906501, 0.71550560, -0.28718871, -0.21609157, 0.47874826, 0.01380670, 0.06225180, 100.07100677, 104.91204071, 32.27999878, 0.00000000
1, 0.3050, 40, -0.44606486, -0.98485947, 0.11732905, 8.62769032, 1.94129777, 62.69135284, -27.76965714, -0.11692487, -110.34784698, 100.93824005, -2.30732799, -42.13829041, -0.59940505, 0.71496636, -0.28917339, -0.21427891, 0.40682185, 0.00354786, 0.06939241, 100.07100677, 104.91204071, 32.27999878, 0.00000000
2, 0.1400, 15, 0.02175522, -1.12085545, 0.05250585, -12.67891312, 2.32767177, -1.67629147, -20.49108505, 13.88482857, -82.87050629, 82.53330231, -0.77583951, -49.87769699, 0.68343073, -0.59590584, 0.28271368, 0.31287652, -0.03533845, 0.12939054, -0.18217011, 100.02000427, 109.20150757, 0.00000000, 0.00000000
2, 0.1450, 16, 0.02637486, -1.13621974, 0.06581914, -11.68910885, 1.70613396, -1.71556330, -20.49108505, 13.88482857, -82.87050629, 82.47476196, -0.76622158, -49.87035751, 0.68373221, -0.59560168, 0.28245860, 0.31302750, -0.03978722, 0.14488894, -0.19652161, 100.02000427, 109.20150757, 0.00000000, 0.00000000
2, 0.1500, 17, 0.03120184, -1.14671052, 0.10248407, -11.54774857, 0.97962248, -1.83003080, -20.49108505, 13.88482857, -83.13358307, 82.41696930, -0.75650668, -49.86669922, 0.68401927, -0.59529299, 0.28222400, 0.31319886, -0.04444873, 0.15551014, -0.23418820, 100.02000427, 109.20150757, 0.00000000, 0.00000000
1, 0.3450, 41, -0.21422249, -0.93818521, 0.19251038, 2.91384649, -31.66406631, 48.60821152, -30.07892418, 1.81233561, -109.88014984, 101.09257507, -4.32484245, -42.93388748, -0.60161376, 0.70928746, -0.30468759, -0.20527463, 0.13922241, -0.04074772, -0.00285881, 100.07100677, 104.91204071, 32.27999878, 0.00000000
1, 0.3500, 42, -0.27811894, -0.96380210, 0.14410280, 4.71486759, -30.91753960, 47.16593552, -30.22508049, 1.34463608, -109.93861389, 101.13196564, -4.52672768, -43.13126755, -0.60147524, 0.70850837, -0.30700043, -0.20492503, 0.19970718, -0.01466214, 0.04592869, 100.07100677, 104.91204071, 32.27999878, 0.00000000
3, 0.0850, 6, 0.06850779, -1.21673679, 0.19923398, -6.25431824, -8.12283516, -62.74591827, -21.22186470, -16.39871407, -46.71148682, 105.34415436, 25.44844246, -61.73468781, 0.41784698, -0.73430765, 0.28330666, 0.45379907, 0.35994965, 0.34539673, 0.03990802, 100.11500549, 101.21302795, 32.30999756, 0.00000000
3, 0.0900, 7, 0.10260750, -1.21606326, 0.20766704, -6.76150894, -10.14396381, -63.14878082, -20.63723946, -15.52177715, -47.09149170, 105.32691956, 25.76635361, -61.69631958, 0.41668621, -0.73476118, 0.28133327, 0.45535719, 0.33084083, 0.34695768, 0.03061085, 100.11500549, 101.21302795, 32.30999756, 0.00000000
3, 0.0950, 8, 0.13602422, -1.20640099, 0.18228893, -7.23810577, -14.50891972, -63.61454010, -20.63723946, -15.52177715, -47.09149170, 105.29252625, 26.07917213, -61.68302917, 0.41555649, -0.73507833, 0.27947602, 0.45701844, 0.30240279, 0.33950123, 0.05491313, 100.11500549, 101.21302795, 32.30999756, 0.00000000
2, 0.1550, 18, 0.03589833, -1.15676093, 0.13793880, -11.97276020, 0.14894098, -2.05309057, -20.81262779, 13.44636059, -83.13358307, 82.35710907, -0.74623477, -49.86731720, 0.68430400, -0.59496289, 0.28200257, 0.31340367, -0.04896815, 0.16569380, -0.27065894, 100.02000427, 109.20150757, 0.00000000, 0.00000000
2, 0.1600, 19, 0.03628331, -1.15893185, 0.15893540, -13.28186226, 0.28619704, -2.19643021, -20.81262779, 13.44636059, -83.13358307, 82.29071045, -0.73516041, -49.86736298, 0.68462217, -0.59459716, 0.28175533, 0.31362519, -0.04916339, 0.16801235, -0.29277235, 100.02000427, 109.20150757, 0.00000000, 0.00000000
2, 0.1650, 20, 0.03809486, -1.15592837, 0.14779633, -15.69037151, 1.15066969, -2.54283118, -20.43262100, 14.32329750, -82.81204224, 82.21220398, -0.72178411, -49.86337662, 0.68500841, -0.59417534, 0.28144020, 0.31386411, -0.05075312, 0.16518348, -0.28294194, 100.02000427, 109.20150757, 0.00000000, 0.00000000
4, 0.1150, 11, -0.18379368, -1.13564765, 0.14829139, -13.92566395, 4.72982025, -0.19584693, -34.46360779, -37.94212341, -12.62788677, 103.26300049, 11.68666553, -74.39395142, 0.44361386, -0.65949172, 0.42119247, 0.43689173, 0.38637218, 0.18256482, 0.07664203, 100.05400848, 106.34145355, 32.00999832, 0.00000000
4, 0.1200, 12, -0.19081028, -1.12275159, 0.13155770, -14.33978939, 2.85637498, 2.60566282, -34.46360779, -37.94212341, -12.62788677, 103.19356537, 11.67071247, -74.38279724, 0.44412854, -0.65922058, 0.42093870, 0.43702251, 0.39317727, 0.16936015, 0.09225461, 100.05400848, 106.34145355, 32.00999832, 0.00000000
4, 0.1250, 13, -0.20059253, -1.11730695, 0.11624824, -14.79497910, 1.70924950, 5.28172207, -34.46360779, -37.94212341, -12.62788677, 103.12005615, 11.64305210, -74.38043976, 0.44468614, -0.65886933, 0.42077532, 0.43714267, 0.40253717, 0.16354825, 0.10637861, 100.05400848, 106.34145355, 32.00999832, 0.00000000
1, 0.3550, 43, -0.30668974, -0.98879075, 0.15670186, 6.46243048, -28.61244202, 46.07696915, -30.22508049, 1.34463608, -109.93861389, 101.17978668, -4.72531366, -43.31646347, -0.60130024, 0.70780617, -0.30923274, -0.20450842, 0.22477768, 0.01073304, 0.03394995, 100.07100677, 104.91204071, 32.27999878, 0.00000000
1, 0.3600, 44, -0.32180771, -1.00219309, 0.19074716, 7.22533178, -27.19143677, 45.18976974, -30.22508049, 1.34463608, -109.93861389, 101.23140717, -4.92072964, -43.49401474, -0.60110962, 0.70714474, -0.31140518, -0.20406002, 0.23639616, 0.02453065, 0.00065587, 100.07100677, 104.91204071, 32.27999878, 0.00000000
1, 0.3650, 45, -0.32216761, -0.99923062, 0.23053503, 7.67078209, -26.07738495, 43.91371918, -30.86816597, 1.19848001, -110.37708282, 101.28525543, -5.11080599, -43.66509247, -0.60090590, 0.70651835, -0.31351146, -0.20360379, 0.23332751, 0.02196743, -0.03827652, 100.07100677, 104.91204071, 32.27999878, 0.00000000
3, 0.1000, 9, 0.11437424, -1.21139860, 0.18920338, -6.10658932, -19.71452904, -64.17743683, -20.63723946, -15.52177715, -47.09149170, 105.25679016, 26.41469193, -61.69479752, 0.41423035, -0.73535389, 0.27765206, 0.45888689, 0.32916915, 0.34677237, 0.04678029, 100.11500549, 101.21302795, 32.30999756, 0.00000000
3, 0.1050, 10, 0.07770407, -1.20938039, 0.17748708, -6.83184433, -23.14563179, -64.66445923, -20.49108505, -16.07716942, -46.59456253, 105.20927429, 26.75706100, -61.72465897, 0.41287249, -0.73554707, 0.27585751, 0.46087897, 0.37116510, 0.34713620, 0.05713824, 100.11500549, 101.21302795, 32.30999756, 0.00000000
3, 0.1100, 11, 0.04821746, -1.19511306, 0.15362690, -7.05106020, -24.93332291, -64.82299042, -20.49108505, -16.07716942, -46.59456253, 105.15601349, 27.10251808, -61.76439667, 0.41149327, -0.73569548, 0.27408317, 0.46292973, 0.40602124, 0.33527553, 0.07949172, 100.11500549, 101.21302795, 32.30999756, 0.00000000
1, 0.3700, 46, -0.31782991, -0.99117100, 0.27514651, 7.86352205, -24.68374252, 42.50734711, -30.86816597, 1.19848001, -110.37708282, 101.33988953, -5.29516983, -43.82815552, -0.60069990, 0.70592523, -0.31553790, -0.20313805, 0.22564867, 0.01430753, -0.08198461, 100.07100677, 104.91204071, 32.27999878, 0.00000000
1, 0.3750, 47, -0.32254341, -0.96691453, 0.31470218, 7.09323883, -23.11876869, 40.87195206, -31.89126015, 0.81847411, -110.14323425, 101.39704132, -5.48519087, -43.98259735, -0.60050786, 0.70534986, -0.31754097, -0.20258263, 0.22703856, -0.00953025, -0.12063694, 100.07100677, 104.91204071, 32.27999878, 0.00000000
1, 0.3800, 48, -0.33482486, -0.94951892, 0.32122254, 6.29231262, -21.97098541, 39.19194794, -31.89126015, 0.81847411, -110.14323425, 101.44324493, -5.65568352, -44.12947464, -0.60035312, 0.70477897, -0.31937763, -0.20214044, 0.23618865, -0.02646546, -0.12634709, 100.07100677, 104.91204071, 32.27999878, 0.00000000
4, 0.1300, 14, -0.22354975, -1.10593808, 0.10777566, -15.89051151, 0.72590369, 8.42821217, -34.40514374, -38.00058365, -13.09558582, 103.03938293, 11.60118484, -74.38656616, 0.44531688, -0.65841991, 0.42070025, 0.43724981, 0.42484146, 0.15174352, 0.11357003, 100.05400848, 106.34145355, 32.00999832, 0.00000000
4, 0.1350, 15, -0.25315893, -1.08506548, 0.10302116, -17.34433746, 0.15114811, 11.86904907, -34.40514374, -38.00058365, -13.09558582, 102.95008087, 11.54318619, -74.39942169, 0.44604424, -0.65786767, 0.42070726, 0.43733305, 0.45353258, 0.13035169, 0.11691485, 100.05400848, 106.34145355, 32.00999832, 0.00000000
4, 0.1400, 16, -0.27184600, -1.05392897, 0.10512211, -18.98381233, 0.57053590, 15.68102169, -33.96667480, -38.23443222, -13.12481689, 102.83782959, 11.41434002, -74.41687012, 0.44720653, -0.65701455, 0.42098749, 0.43715879, 0.47054213, 0.09848888, 0.11317407, 100.05400848, 106.34145355, 32.00999832, 0.00000000
3, 0.1150, 12, 0.07196203, -1.19067895, 0.15112203, -7.09593058, -28.37291527, -65.21259308, -19.46799088, -16.07716942, -46.79918289, 105.09375000, 27.45429039, -61.82276154, 0.41006270, -0.73577118, 0.27235448, 0.46509403, 0.38769341, 0.33329296, 0.08040238, 100.11500549, 101.21302795, 32.30999756, 0.00000000
3, 0.1200, 13, 0.12917659, -1.18953502, 0.13043390, -7.57454777, -32.55498886, -66.16555023, -19.46799088, -16.07716942, -46.79918289, 105.01857758, 27.81604385, -61.90318680, 0.40857413, -0.73575741, 0.27065763, 0.46741059, 0.33604389, 0.33465755, 0.09924300, 100.11500549, 101.21302795, 32.30999756, 0.00000000
4, 0.1450, 17, -0.27050242, -1.02338183, 0.10680689, -20.30609131, 1.22984469, 19.63015938, -33.96667480, -38.23443222, -13.12481689, 102.73313141, 11.31726456, -74.43290710, 0.44818538, -0.65628070, 0.42113861, 0.43711323, 0.46718022, 0.06712613, 0.10973971, 100.05400848, 106.34145355, 32.00999832, 0.00000000
4, 0.1500, 18, -0.26098636, -1.00180626, 0.09727896, -21.62527084, 1.47256732, 23.74611473, -33.96667480, -38.23443222, -13.12481689, 102.62124634, 11.19981003, -74.45216370, 0.44928414, -0.65544879, 0.42137697, 0.43700364, 0.45574129, 0.04476319, 0.11751947, 100.05400848, 106.34145355, 32.00999832, 0.00000000
1, 0.3850, 49, -0.33786058, -0.94235206, 0.32750982, 5.31709242, -18.39763451, 36.52041245, -31.89126015, 0.81847411, -110.14323425, 101.48294830, -5.81652117, -44.25627899, -0.60025269, 0.70424849, -0.32102886, -0.20167151, 0.23639174, -0.03322694, -0.13199359, 100.07100677, 104.91204071, 32.27999878, 0.00000000
1, 0.3900, 50, -0.32273549, -0.96084261, 0.32715452, 4.35057259, -15.30265522, 34.92397690, -32.15433884, 1.05232382, -109.85092163, 101.51644135, -5.97249937, -44.36637497, -0.60020936, 0.70374018, -0.32254025, -0.20116252, 0.21853611, -0.01433836, -0.13108173, 100.07100677, 104.91204071, 32.27999878, 0.00000000
3, 0.1400, 14, 0.13034739, -1.16663420, 0.16777231, -6.54168129, -42.44310760, -70.24311066, -17.77258110, -15.81408882, -46.71148682, 104.62005615, 29.38571739, -62.44999695, 0.40167683, -0.73495734, 0.26420391, 0.47821528, 0.35883933, 0.32278985, 0.05272712, 100.11500549, 101.21302795, 32.30999756, 0.00000000
3, 0.1450, 15, 0.16577913, -1.21882153, 0.22254756, -5.63261175, -48.69144058, -71.93447113, -17.77258110, -15.81408882, -46.71148682, 104.50716400, 29.78489685, -62.61817169, 0.39984894, -0.73464394, 0.26268339, 0.48105782, 0.32946169, 0.37788481, -0.00446824, 100.11500549, 101.21302795, 32.30999756, 0.00000000
2, 0.1700, 21, 0.03146398, -1.15441811, 0.11283579, -17.63798141, 2.11883831, -2.74638677, -20.43262100, 14.32329750, -82.81204224, 82.12390900, -0.70673102, -49.85474777, 0.68545383, -0.59371072, 0.28106397, 0.31410778, -0.04386593, 0.16387331, -0.24946377, 100.02000427, 109.20150757, 0.00000000, 0.00000000
1, 0.4450, 51, -0.20280050, -0.97745144, 0.19746600, 6.35397005, -4.20567703, 23.10502243, -32.70973206, 1.40309846, -109.20783234, 101.83708191, -7.37695503, -45.01539230, -0.60031426, 0.70011121, -0.33400580, -0.19469778, 0.07437300, 0.00640144, 0.00371628, 100.07100677, 104.91204071, 32.27999878, 0.00000000
1, 0.4500, 52, -0.18342373, -0.98899961, 0.18119720, 5.09952688, -3.63563156, 22.11806870, -33.55743790, 2.01695418, -109.17860413, 101.86811066, -7.48145390, -45.05604172, -0.60029191, 0.69989312, -0.33481908, -0.19415334, 0.05321101, 0.01832519, 0.02052365, 100.07100677, 104.91204071, 32.27999878, 0.00000000
3, 0.1500, 16, 0.12871186, -1.28006756, 0.17152648, -5.31764126, -61.06864548, -75.40445709, -17.77258110, -15.81408882, -46.71148682, 104.36407471, 30.22613144, -62.85110092, 0.39773321, -0.73412693, 0.26121768, 0.48438752, 0.37300831, 0.44222304, 0.04362333, 100.11500549, 101.21302795, 32.30999756, 0.00000000
3, 0.1550, 17, 0.08054078, -1.31129837, 0.10100623, -6.88350010, -66.67674255, -78.52968597, -17.21718788, -15.52177715, -47.20841980, 104.19661713, 30.68888474, -63.11354446, 0.39552999, -0.73348582, 0.25971118, 0.48795971, 0.42808598, 0.47676492, 0.11076795, 100.11500549, 101.21302795, 32.30999756, 0.00000000
3, 0.1600, 18, 0.04923370, -1.29616547, 0.14198191, -6.31667471, -64.91700745, -80.43760681, -17.21718788, -15.52177715, -47.20841980, 104.03523254, 31.15809441, -63.36615372, 0.39327982, -0.73289871, 0.25812009, 0.49149218, 0.46641082, 0.46508676, 0.06637937, 100.11500549, 101.21302795, 32.30999756, 0.00000000
2, 0.1750, 22, 0.01290717, -1.13615370, 0.03807375, -19.05716324, 3.50404620, -2.97593927, -20.40339088, 14.14791012, -82.95819855, 82.04698944, -0.68751955, -49.83989716, 0.68584728, -0.59334081, 0.28066179, 0.31430760, -0.02500081, 0.14580864, -0.17616904, 100.02000427, 109.20150757, 0.00000000, 0.00000000
2, 0.1800, 23, -0.00267675, -1.12815678, 0.00536532, -19.76499367, 4.40329409, -2.93116283, -20.40339088, 14.14791012, -82.95819855, 81.94792175, -0.66994435, -49.82013321, 0.68637246, -0.59284526, 0.28018290, 0.31452322, -0.00909258, 0.13802223, -0.14498958, 100.02000427, 109.20150757, 0.00000000, 0.00000000
4, 0.2600, 19, 0.02898159, -1.28682017, 0.28246707, -29.54635620, 34.84252930, 80.81786346, -37.15287781, -40.30984879, -14.52791595, 98.99494171, 4.34300756, -75.24871826, 0.49645117, -0.61683285, 0.44437164, 0.41903153, 0.04861095, 0.30219328, -0.12598938, 100.05400848, 106.34145355, 32.00999832, 0.00000000
4, 0.2650, 20, 0.06606154, -1.30210841, 0.29321915, -30.84989548, 37.95235443, 82.50799561, -37.15287781, -40.30984879, -14.52791595, 98.84959412, 3.90602994, -75.12491608, 0.49952155, -0.61525333, 0.44520223, 0.41681731, 0.00397290, 0.31654000, -0.13912195, 100.05400848, 106.34145355, 32.00999832, 0.00000000
1, 0.4550, 53, -0.17354277, -0.98117244, 0.16388544, 4.71230793, -4.11142540, 21.48071480, -33.55743790, 2.01695418, -109.17860413, 101.89749908, -7.58233309, -45.09846878, -0.60026848, 0.69966930, -0.33562192, -0.19364564, 0.04161261, 0.01085668, 0.03831539, 100.07100677, 104.91204071, 32.27999878, 0.00000000
1, 0.4600, 54, -0.18783395, -0.97822154, 0.17850935, 6.25615835, -5.41053486, 21.00947189, -33.79129028, 1.25694239, -108.85705566, 101.93547058, -7.67953539, -45.14688110, -0.60017431, 0.69948119, -0.33645710, -0.19316718, 0.05417026, 0.00823089, 0.02421839, 100.07100677, 104.91204071, 32.27999878, 0.00000000
1, 0.4650, 55, -0.20875122, -0.98179185, 0.19837163, 7.32858467, -5.98027229, 20.45645714, -33.79129028, 1.25694239, -108.85705566, 101.97917938, -7.77339554, -45.19760895, -0.60003394, 0.69932377, -0.33729887, -0.19270478, 0.07340010, 0.01213781, 0.00497278, 100.07100677, 104.91204071, 32.27999878, 0.00000000
4, 0.2700, 21, 0.10147615, -1.29091787, 0.30901560, -32.36668015, 41.09396362, 84.34290314, -37.88365936, -40.22215652, -14.20637226, 98.69667816, 3.45791006, -74.98588562, 0.50271803, -0.61365104, 0.44597796, 0.41450074, -0.03919724, 0.30443850, -0.15743837, 100.05400848, 106.34145355, 32.00999832, 0.00000000
4, 0.2750, 22, 0.12749986, -1.26431537, 0.31963840, -34.09984589, 44.72229385, 85.91213226, -37.88365936, -40.22215652, -14.20637226, 98.53500366, 2.99969435, -74.82890320, 0.50605011, -0.61203378, 0.44667602, 0.41207817, -0.07316361, 0.27695945, -0.17073825, 100.05400848, 106.34145355, 32.00999832, 0.00000000
4, 0.2800, 23, 0.14161699, -1.23450625, 0.32681540, -35.23369217, 48.91372299, 86.85060120, -38.55597687, -40.16369629, -14.23560333, 98.36743164, 2.53421235, -74.65060425, 0.50950068, -0.61043602, 0.44727704, 0.40953663, -0.09536495, 0.24631929, -0.18072397, 100.05400848, 106.34145355, 32.00999832, 0.00000000
3, 0.1650, 19, 0.04674985, -1.29012096, 0.23024434, -5.85815525, -64.89201355, -81.80549622, -16.54487038, -14.90792179, -47.85150528, 103.87395477, 31.63329506, -63.61947632, 0.39097792, -0.73232025, 0.25648919, 0.49503195, 0.47595233, 0.46262902, -0.02522025, 100.11500549, 101.21302795, 32.30999756, 0.00000000
3, 0.1700, 20, 0.00455813, -1.29229963, 0.25340712, -6.73703146, -71.12918854, -83.23277283, -16.54487038, -14.90792179, -47.85150528, 103.68709564, 32.12219620, -63.90949249, 0.38859496, -0.73159200, 0.25489455, 0.49879441, 0.52534372, 0.46849635, -0.05204430, 100.11500549, 101.21302795, 32.30999756, 0.00000000
3, 0.1750, 21, -0.07272553, -1.31027281, 0.17398565, -8.40323448, -76.52349091, -85.02613068, -16.54487038, -14.90792179, -47.85150528, 103.47257996, 32.62528992, -64.23165894, 0.38615674, -0.73072064, 0.25329173, 0.50276601, 0.61000741, 0.49027228, 0.02330058, 100.11500549, 101.21302795, 32.30999756, 0.00000000
2, 0.2850, 24, -0.05935340, -0.99673474, -0.35493293, -40.04388046, 29.64541817, 3.32801127, -20.49108505, 14.35252857, -85.20899963, 79.29227448, -0.66986758, -47.66722870, 0.70583153, -0.58180463, 0.26193494, 0.30772594, 0.04761424, 0.01405055, 0.17001978, 100.02000427, 109.20150757, 0.00000000, 0.00000000
2, 0.2900, 25, -0.06647849, -0.97726887, -0.35910764, -41.10596466, 30.57920647, 3.30205703, -20.49108505, 14.35252857, -85.20899963, 79.08496094, -0.65740842, -47.51393890, 0.70726717, -0.58091003, 0.26052445, 0.30731702, 0.05495067, -0.00474596, 0.17065798, 100.02000427, 109.20150757, 0.00000000, 0.00000000
2, 0.2950, 26, -0.07124897, -0.95637441, -0.35705593, -41.59333801, 30.67808533, 3.82271528, -20.49108505, 14.35252857, -85.20899963, 78.87523651, -0.64685166, -47.35971451, 0.70871961, -0.57999283, 0.25911620, 0.30689347, 0.05992102, -0.02494911, 0.16502729, 100.02000427, 109.20150757, 0.00000000, 0.00000000
2, 0.3000, 27, -0.07577558, -0.97004503, -0.35340646, -41.90025330, 31.25959969, 4.69913530, -20.19877243, 14.96638393, -85.44285583, 78.66397095, -0.63945067, -47.20182419, 0.71019441, -0.57906115, 0.25770670, 0.30643001, 0.06458525, -0.01056343, 0.15775120, 100.02000427, 109.20150757, 0.00000000, 0.00000000
2, 0.3050, 28, -0.07396003, -0.95572215, -0.35214990, -42.77859116, 31.35913086, 5.04407358, -20.19877243, 14.96638393, -85.44285583, 78.44831848, -0.63306576, -47.04314041, 0.71169341, -0.57809651, 0.25628978, 0.30596158, 0.06288438, -0.02415174, 0.15284252, 100.02000427, 109.20150757, 0.00000000, 0.00000000
2, 0.3100, 29, -0.06734803, -0.93714130, -0.34340328, -43.92968369, 30.51822662, 5.92996311, -20.31569672, 15.05407715, -85.38439178, 78.22695160, -0.63126075, -46.88769531, 0.71322000, -0.57707185, 0.25490451, 0.30549803, 0.05633013, -0.04196054, 0.14033365, 100.02000427, 109.20150757, 0.00000000, 0.00000000
1, 0.4700, 56, -0.23178409, -0.98318172, 0.19307439, 6.69190216, -6.42264032, 19.78802681, -33.79129028, 1.25694239, -108.85705566, 102.02001953, -7.86349010, -45.24990463, -0.59990013, 0.69915521, -0.33812624, -0.19228253, 0.09487173, 0.01389845, 0.01087774, 100.07100677, 104.91204071, 32.27999878, 0.00000000
1, 0.4750, 57, -0.26914355, -0.97848415, 0.17142197, 6.67546368, -5.15867949, 19.36268616, -33.96667480, 0.96463019, -108.97398376, 102.05522156, -7.97082329, -45.29483414, -0.59985214, 0.69893408, -0.33898252, -0.19172768, 0.13058701, 0.00960058, 0.03302472, 100.07100677, 104.91204071, 32.27999878, 0.00000000
1, 0.4800, 58, -0.28251168, -0.98800802, 0.20177205, 8.20149136, -1.97213697, 19.20890045, -33.96667480, 0.96463019, -108.97398376, 102.10063171, -8.06262302, -45.32468796, -0.59973210, 0.69884962, -0.33968741, -0.19116244, 0.14215061, 0.01946274, 0.00328054, 100.07100677, 104.91204071, 32.27999878, 0.00000000
4, 0.2850, 24, 0.14843512, -1.21039486, 0.32305244, -35.22780609, 52.52095795, 87.78883362, -38.55597687, -40.16369629, -14.23560333, 98.19917297, 2.06201696, -74.45382690, 0.51302701, -0.60887128, 0.44781324, 0.40686908, -0.11038919, 0.22144023, -0.17981702, 100.05400848, 106.34145355, 32.00999832, 0.00000000
4, 0.2900, 25, 0.14257611, -1.18844080, 0.30314511, -34.49969482, 54.54681015, 88.47327423, -38.55597687, -40.16369629, -14.23560333, 98.03587341, 1.58768320, -74.24607086, 0.51655227, -0.60735083, 0.44832394, 0.40410930, -0.11280531, 0.19879922, -0.16272378, 100.05400848, 106.34145355, 32.00999832, 0.00000000
4, 0.2950, 26, 0.14329201, -1.17427111, 0.27411327, -33.68666458, 54.81461334, 89.08889008, -38.96521378, -40.66062546, -14.23560333, 97.87238312, 1.10859728, -74.03621674, 0.52008218, -0.60580844, 0.44885027, 0.40130302, -0.12185455, 0.18402341, -0.13647261, 100.05400848, 106.34145355, 32.00999832, 0.00000000
3, 0.1800, 22, -0.14446716, -1.29418731, 0.09422605, -10.09063148, -75.02186584, -86.77295685, -14.93715286, -16.63256264, -47.58842468, 103.25104523, 33.13410568, -64.54682922, 0.38374072, -0.72985470, 0.25156465, 0.50672519, 0.68920839, 0.47809687, 0.09877101, 100.11500549, 101.21302795, 32.30999756, 0.00000000
3, 0.1850, 23, -0.15524760, -1.26749825, 0.09340911, -10.00323486, -65.45291138, -87.60493469, -14.93715286, -16.63256264, -47.58842468, 103.05673218, 33.63511276, -64.80911255, 0.38139933, -0.72919339, 0.24964677, 0.51038045, 0.70733500, 0.45542562, 0.09562044, 100.11500549, 101.21302795, 32.30999756, 0.00000000
2, 0.3150, 30, -0.07536215, -0.95977378, -0.34385470, -44.55769348, 30.54726982, 6.48366976, -20.31569672, 15.05407715, -85.38439178, 78.00245667, -0.63152546, -46.73154831, 0.71476609, -0.57601869, 0.25352249, 0.30502185, 0.06434143, -0.01852575, 0.13695467, 100.02000427, 109.20150757, 0.00000000, 0.00000000
2, 0.3200, 31, -0.08018789, -0.96911478, -0.33839256, -46.45552826, 30.22690582, 7.09557629, -20.31569672, 15.05407715, -85.38439178, 77.76845551, -0.63449508, -46.57632446, 0.71636033, -0.57489192, 0.25213906, 0.30455381, 0.06912810, -0.00834376, 0.12755753, 100.02000427, 109.20150757, 0.00000000, 0.00000000
1, 0.4850, 59, -0.27172378, -1.00035357, 0.24352838, 8.52571583, 0.61021990, 19.12611389, -34.25898743, 0.55539316, -109.06167603, 102.14590454, -8.15668964, -45.34178543, -0.59963936, 0.69879586, -0.34032455, -0.19051582, 0.12964064, 0.03213111, -0.03774203, 100.07100677, 104.91204071, 32.27999878, 0.00000000
1, 0.4900, 60, -0.25873575, -0.99370265, 0.23578097, 7.65398693, 1.94370437, 18.39785004, -34.25898743, 0.55539316, -109.06167603, 102.18579865, -8.24857998, -45.35159683, -0.59958649, 0.69874060, -0.34089702, -0.18986048, 0.11507361, 0.02586616, -0.02930978, 100.07100677, 104.91204071, 32.27999878, 0.00000000
4, 0.3000, 27, 0.13233519, -1.17087328, 0.25706774, -32.79739761, 54.46738434, 89.34264374, -38.96521378, -40.66062546, -14.23560333, 97.71156311, 0.62909037, -73.82693481, 0.52357429, -0.60426122, 0.44939643, 0.39847362, -0.11926518, 0.18009831, -0.12219993, 100.05400848, 106.34145355, 32.00999832, 0.00000000
4, 0.3050, 28, 0.12838244, -1.17306149, 0.23050001, -31.55943489, 54.95690155, 89.08070374, -40.30984879, -41.56679153, -14.73253441, 97.55521393, 0.15113011, -73.61373901, 0.52702689, -0.60274214, 0.44993576, 0.39560384, -0.12366129, 0.18184513, -0.09835108, 100.05400848, 106.34145355, 32.00999832, 0.00000000
3, 0.2800, 24, 0.41713908, -0.71190047, 0.38880229, 24.45944214, 90.36869812, -73.31179810, -10.11400127, -13.09558582, -47.99766159, 104.32304382, 41.70983505, -62.69024277, 0.34333032, -0.74389338, 0.19739093, 0.53831565, 0.24742126, -0.01258203, -0.20582759, 100.11500549, 101.21302795, 32.30999756, 0.00000000
3, 0.2850, 25, 0.48471940, -0.62616694, 0.39710402, 22.49773788, 93.35154724, -73.25551605, -10.11400127, -13.09558582, -47.99766159, 104.92250824, 41.94641876, -61.96004105, 0.34167868, -0.74704373, 0.19414042, 0.53618181, 0.18295193, -0.09368020, -0.20728758, 100.11500549, 101.21302795, 32.30999756, 0.00000000
2, 0.3250, 32, -0.09119730, -0.97847515, -0.32801688, -49.70282364, 30.11579323, 7.21733475, -20.22800255, 14.67407131, -85.53054810, 77.51312256, -0.64106953, -46.42134094, 0.71806550, -0.57361609, 0.25072530, 0.30411091, 0.08005497, 0.00194162, 0.11294238, 100.02000427, 109.20150757, 0.00000000, 0.00000000
2, 0.4100, 33, -0.09451570, -0.91923767, -0.22634143, 1.49157071, 38.52112198, 30.05031967, -20.16954041, 14.52791595, -85.79362488, 75.96977997, -1.65270686, -43.43223190, 0.73544353, -0.56750846, 0.23825936, 0.28335387, 0.06610945, -0.05053595, -0.01600513, 100.02000427, 109.20150757, 0.00000000, 0.00000000
2, 0.4150, 34, -0.07746085, -0.91362274, -0.24495554, 3.00997114, 39.38932419, 30.17490578, -20.16954041, 14.52791595, -85.79362488, 75.97805786, -1.75135255, -43.20449066, 0.73614991, -0.56777704, 0.23777921, 0.28137824, 0.04733075, -0.05612857, 0.00272744, 100.02000427, 109.20150757, 0.00000000, 0.00000000
2, 0.4200, 35, -0.05910374, -0.89569092, -0.25740954, 5.48635244, 39.59933853, 30.50290298, -20.22800255, 14.44022179, -85.38439178, 75.99829102, -1.85139108, -42.97533798, 0.73679757, -0.56812155, 0.23732971, 0.27935982, 0.02723378, -0.07408044, 0.01548462, 100.02000427, 109.20150757, 0.00000000, 0.00000000
1, 0.5300, 61, -0.18723311, -0.97564960, 0.26888788, 4.11500502, 22.64339256, 12.34647369, -35.07746124, 1.19848001, -108.85705566, 102.37792206, -8.94454193, -44.89146805, -0.60070747, 0.69933218, -0.34177521, -0.18241367, 0.03144350, 0.01027043, -0.05920814, 100.07100677, 104.91204071, 32.27999878, 0.00000000
1, 0.5350, 62, -0.14000610, -0.97131574, 0.27367765, 4.04262209, 22.71571732, 12.20890999, -34.98976898, -1.57848585, -108.62320709, 102.38277435, -9.02830410, -44.79224396, -0.60101873, 0.69943810, -0.34158248, -0.18134029, -0.01724149, 0.00616946, -0.06384113, 100.07100677, 104.91204071, 32.27999878, 0.00000000
3, 0.2900, 26, 0.74572659, -0.57379729, 0.39240485, 24.91672134, 104.49185944, -66.36902618, -10.28938866, -11.92633724, -47.06226349, 105.58028412, 42.12916183, -61.16384506, 0.34019339, -0.75041074, 0.19099942, 0.53354615, -0.07547003, -0.14164402, -0.19518778, 100.11500549, 101.21302795, 32.30999756, 0.00000000
3, 0.2950, 27, 0.99016535, -0.64518464, 0.50388730, 29.04298592, 110.16347504, -59.28574371, -10.28938866, -11.92633724, -47.06226349, 106.28541565, 42.26619339, -60.33511734, 0.33873874, -0.75391370, 0.18808024, 0.53056198, -0.31801072, -0.06615677, -0.29847109, 100.11500549, 101.21302795, 32.30999756, 0.00000000
3, 0.3000, 28, 1.04923129, -0.76001507, 0.59149092, 30.32055092, 105.72637177, -52.32582855, -10.28938866, -11.92633724, -47.06226349, 106.96636200, 42.36563492, -59.54886627, 0.33739275, -0.75722820, 0.18549560, 0.52760112, -0.37566733, 0.05242957, -0.37787998, 100.11500549, 101.21302795, 32.30999756, 0.00000000
2, 0.4250, 36, -0.04840668, -0.88865703, -0.27873462, 7.43569469, 39.42613983, 30.96171188, -20.22800255, 14.44022179, -85.38439178, 76.02419281, -1.95495105, -42.74631882, 0.73741764, -0.56849337, 0.23691624, 0.27731082, 0.01475199, -0.08116378, 0.03725017, 100.02000427, 109.20150757, 0.00000000, 0.00000000
2, 0.4300, 37, -0.02667329, -0.89609092, -0.30237079, 10.30776978, 38.56004333, 31.62324142, -20.22800255, 14.44022179, -85.38439178, 76.06783295, -2.06190944, -42.52093887, 0.73794132, -0.56896329, 0.23658408, 0.27522954, -0.00883336, -0.07383094, 0.06155825, 100.02000427, 109.20150757, 0.00000000, 0.00000000
2, 0.4350, 38, -0.00229801, -0.90334433, -0.30416951, 12.76001167, 37.41403198, 32.52195358, -20.78339577, 14.55714703, -85.17977142, 76.12348175, -2.17480254, -42.30012512, 0.73839951, -0.56948638, 0.23633946, 0.27312115, -0.03515788, -0.06673093, 0.06427215, 100.02000427, 109.20150757, 0.00000000, 0.00000000
1, 0.5400, 63, -0.09607799, -0.97994721, 0.28763723, 3.85405278, 20.62778473, 12.05638599, -34.98976898, -1.57848585, -108.62320709, 102.38817596, -9.10910892, -44.70317841, -0.60130256, 0.69952399, -0.34143820, -0.18033715, -0.06261070, 0.01501666, -0.07766353, 100.07100677, 104.91204071, 32.27999878, 0.00000000
1, 0.5450, 64, -0.04440729, -0.98576176, 0.29178619, 3.29261565, 17.10004044, 12.25986481, -34.98976898, -1.57848585, -108.62320709, 102.39342499, -9.18717384, -44.63178253, -0.60155225, 0.69956338, -0.34138811, -0.17944434, -0.11564764, 0.02105683, -0.08165056, 100.07100677, 104.91204071, 32.27999878, 0.00000000
1, 0.5500, 65, -0.04280624, -0.98303664, 0.28059679, 2.70618892, 12.70091915, 12.47794533, -34.84361267, 0.70154923, -108.91551971, 102.39919281, -9.26162148, -44.58236694, -0.60175544, 0.69954926, -0.34145549, -0.17868838, -0.11853150, 0.01857724, -0.07040872, 100.07100677, 104.91204071, 32.27999878, 0.00000000
3, 0.3050, 29, 0.95871007, -0.90650594, 0.62610292, 27.15260696, 94.89450073, -44.30972672, -10.64016342, -11.54633141, -47.23764801, 107.57594299, 42.43632126, -58.84622574, 0.33623984, -0.76016271, 0.18325768, 0.52489239, -0.28414834, 0.20218806, -0.40497160, 100.11500549, 101.21302795, 32.30999756, 0.00000000
3, 0.3100, 30, 0.85814601, -1.01245093, 0.57565099, 14.98504734, 73.81999969, -35.51335144, -10.64016342, -11.54633141, -47.23764801, 108.02217102, 42.49253082, -58.29623795, 0.33551770, -0.76235223, 0.18133882, 0.52284145, -0.18282744, 0.31071869, -0.34868211, 100.11500549, 101.21302795, 32.30999756, 0.00000000
3, 0.3150, 31, 0.75246376, -0.99994314, 0.45915788, -0.86772758, 48.70606995, -24.87222862, -11.31248188, -11.83864307, -46.27301788, 108.26549530, 42.53485870, -57.92974472, 0.33536369, -0.76364529, 0.17977823, 0.52159071, -0.07654229, 0.29990414, -0.22877769, 100.11500549, 101.21302795, 32.30999756, 0.00000000
4, 0.3350, 29, 0.18955864, -1.32503879, 0.18865991, -18.70856285, 58.84669113, 84.65294647, -42.09295654, -40.92370605, -14.55714703, 96.81193542, -2.65622401, -72.37810516, 0.54586536, -0.59433633, 0.45387852, 0.37787515, -0.23392698, 0.33313197, -0.06971382, 100.05400848, 106.34145355, 32.00999832, 0.00000000
4, 0.3400, 30, 0.25388533, -1.29159391, 0.16482118, -18.60106850, 63.50174332, 82.60680389, -42.09295654, -40.92370605, -14.55714703, 96.70557404, -3.09807587, -72.11116028, 0.54893982, -0.59331816, 0.45417139, 0.37465587, -0.30603877, 0.29984286, -0.04774829, 100.05400848, 106.34145355, 32.00999832, 0.00000000
4, 0.3450, 31, 0.25548792, -1.26516116, 0.14723685, -18.19321251, 65.78207397, 82.43029785, -42.94065857, -41.12832642, -15.40485191, 96.59840393, -3.54555082, -71.83173370, 0.55205601, -0.59231776, 0.45442730, 0.37133500, -0.31537139, 0.27362296, -0.03207730, 100.05400848, 106.34145355, 32.00999832, 0.00000000
1, 0.5550, 66, -0.06885985, -0.97018981, 0.23659243, 1.60390234, 6.74066067, 12.24475574, -34.84361267, 0.70154923, -108.91551971, 102.40411377, -9.32860565, -44.56223297, -0.60190147, 0.69946247, -0.34166399, -0.17813654, -0.09354670, 0.00601070, -0.02639766, 100.07100677, 104.91204071, 32.27999878, 0.00000000
1, 0.5600, 67, -0.12206154, -0.95713341, 0.20440570, 1.12977934, 4.62706757, 11.60452557, -33.76205826, 1.02309263, -109.03244781, 102.40822601, -9.39020348, -44.55185699, -0.60202539, 0.69935620, -0.34190473, -0.17767297, -0.04134836, -0.00680318, 0.00571153, 100.07100677, 104.91204071, 32.27999878, 0.00000000
1, 0.5650, 68, -0.17359017, -0.95320058, 0.17810741, 1.31041217, 4.22846031, 10.85662842, -33.76205826, 1.02309263, -109.03244781, 102.41339874, -9.44772911, -44.54263687, -0.60213196, 0.69926232, -0.34213439, -0.17723848, 0.00923870, -0.01051163, 0.03193564, 100.07100677, 104.91204071, 32.27999878, 0.00000000
2, 0.4400, 39, 0.00038765, -0.92058676, -0.31662679, 14.29495239, 33.25498962, 32.98881912, -20.78339577, 14.55714703, -85.17977142, 76.18711090, -2.29516554, -42.09906769, 0.73877865, -0.57000172, 0.23625757, 0.27108395, -0.03990412, -0.04966670, 0.07778311, 100.02000427, 109.20150757, 0.00000000, 0.00000000
2, 0.4450, 40, 0.03275379, -0.91510856, -0.32371494, 15.36744213, 30.41197777, 33.43832016, -20.54954720, 13.68021011, -84.68283844, 76.25621033, -2.42133188, -41.91140366, 0.73910397, -0.57051080, 0.23629011, 0.26909071, -0.07444748, -0.05534138, 0.08604236, 100.02000427, 109.20150757, 0.00000000, 0.00000000
2, 0.4500, 41, 0.03734583, -0.88800883, -0.31442589, 17.31696320, 25.32459068, 33.09365082, -20.54954720, 13.68021011, -84.68283844, 76.33574677, -2.55208755, -41.74903870, 0.73932111, -0.57102424, 0.23650005, 0.26721403, -0.08129984, -0.08266415, 0.07807536, 100.02000427, 109.20150757, 0.00000000, 0.00000000
4, 0.3500, 32, 0.24807672, -1.21576464, 0.12878773, -17.95817947, 67.39681244, 82.87351990, -42.94065857, -41.12832642, -15.40485191, 96.48965454, -3.99562454, -71.54354095, 0.55519313, -0.59132737, 0.45464966, 0.36794886, -0.31579489, 0.22450989, -0.01554521, 100.05400848, 106.34145355, 32.00999832, 0.00000000
4, 0.3550, 33, 0.23245727, -1.16382778, 0.10682643, -18.24232101, 67.39064026, 83.22849274, -43.90528870, -41.44986725, -15.08330917, 96.37717438, -4.44690609, -71.25456238, 0.55833066, -0.59030968, 0.45486659, 0.36455163, -0.30802625, 0.17291380, 0.00441467, 100.05400848, 106.34145355, 32.00999832, 0.00000000
4, 0.3600, 34, 0.21727902, -1.15258217, 0.10317850, -18.02762032, 66.95576477, 84.57701111, -43.90528870, -41.44986725, -15.08330917, 96.26363373, -4.90407276, -70.96741486, 0.56146282, -0.58925021, 0.45512193, 0.36112025, -0.30076748, 0.16207829, 0.00603428, 100.05400848, 106.34145355, 32.00999832, 0.00000000
1, 0.5700, 69, -0.20500705, -0.95516503, 0.16049497, 1.28664207, 6.02289486, 10.09350300, -33.76205826, 1.02309263, -109.03244781, 102.41683960, -9.50345325, -44.52373886, -0.60225999, 0.69919282, -0.34229347, -0.17676979, 0.03973529, -0.00834693, 0.04949747, 100.07100677, 104.91204071, 32.27999878, 0.00000000
1, 0.5750, 70, -0.21413451, -0.96061158, 0.15561827, 1.06862319, 9.17412376, 9.33013630, -34.75592041, -0.61385560, -108.53551483, 102.40492249, -9.56905079, -44.48641205, -0.60253096, 0.69907200, -0.34236413, -0.17618637, 0.04783299, -0.00274078, 0.05421882, 100.07100677, 104.91204071, 32.27999878, 0.00000000
2, 0.5000, 42, 0.02461914, -0.83500928, -0.21768847, 32.77301788, 2.70529199, 18.33199692, -20.98801422, 12.74481106, -84.62437439, 77.60858917, -3.64068246, -40.86943054, 0.73683244, -0.57828748, 0.24187908, 0.25329062, -0.08774459, -0.13959196, 0.00282337, 100.02000427, 109.20150757, 0.00000000, 0.00000000
2, 0.5050, 43, 0.02064370, -0.80930465, -0.20487168, 34.11435318, 0.11280291, 17.84777832, -21.77725792, 13.24174213, -84.56591797, 77.77790070, -3.72774744, -40.84981918, 0.73616904, -0.57919633, 0.24270247, 0.25235358, -0.08527652, -0.16582941, -0.00710869, 100.02000427, 109.20150757, 0.00000000, 0.00000000
3, 0.3200, 32, 0.63131613, -0.90457785, 0.36996514, -12.54647255, 29.33292389, -12.00628090, -11.31248188, -11.83864307, -46.27301788, 108.34783936, 42.54576492, -57.71516800, 0.33573827, -0.76422262, 0.17866328, 0.52088678, 0.04485783, 0.20524040, -0.13819849, 100.11500549, 101.21302795, 32.30999756, 0.00000000
3, 0.3250, 33, 0.51101959, -0.78280646, 0.31270981, -19.67561722, 12.01800156, 0.97469878, -11.31248188, -11.83864307, -46.27301788, 108.30038452, 42.52223206, -57.63984299, 0.33651012, -0.76419950, 0.17807256, 0.52062482, 0.16495590, 0.08323389, -0.08107352, 100.11500549, 101.21302795, 32.30999756, 0.00000000
4, 0.3650, 35, 0.20393582, -1.12365317, 0.09793527, -18.31571007, 67.31457520, 85.84612274, -43.90528870, -41.44986725, -15.08330917, 96.14616394, -5.36716223, -70.67803955, 0.56461656, -0.58815062, 0.45538607, 0.35764593, -0.29545999, 0.13363144, 0.00919107, 100.05400848, 106.34145355, 32.00999832, 0.00000000
4, 0.3700, 36, 0.13551909, -1.10879648, 0.07732733, -18.34684563, 66.76216888, 85.87160492, -45.04530716, -41.36217499, -15.52177715, 96.02634430, -5.82949352, -70.39025879, 0.56774747, -0.58702737, 0.45565343, 0.35417750, -0.23508161, 0.11932121, 0.02765604, 100.05400848, 106.34145355, 32.00999832, 0.00000000
4, 0.3750, 37, 0.12568074, -1.11857951, 0.08402131, -19.03513908, 68.62945557, 85.50169373, -45.04530716, -41.36217499, -15.52177715, 95.89964294, -6.29034328, -70.09172058, 0.57091421, -0.58590955, 0.45584384, 0.35067588, -0.23324963, 0.12970796, 0.01872871, 100.05400848, 106.34145355, 32.00999832, 0.00000000
1, 0.5850, 71, -0.15284994, -0.96272063, 0.17135066, 1.36247742, 14.01260567, 8.10974026, -34.28821945, 0.32154340, -108.59397888, 102.39866638, -9.67885208, -44.37417984, -0.60297579, 0.69909018, -0.34220007, -0.17490676, -0.01547301, -0.00037166, 0.03837278, 100.07100677, 104.91204071, 32.27999878, 0.00000000
1, 0.5900, 72, -0.12068787, -0.96521997, 0.17070915, 0.93341595, 14.09009933, 7.62631798, -34.28821945, 0.32154340, -108.59397888, 102.39305115, -9.73110580, -44.31258774, -0.60321516, 0.69910920, -0.34206808, -0.17426236, -0.04854394, 0.00226178, 0.03897095, 100.07100677, 104.91204071, 32.27999878, 0.00000000
2, 0.5100, 44, 0.02697715, -0.81485212, -0.18824112, 34.54375839, -0.89312524, 18.07821846, -21.77725792, 13.24174213, -84.56591797, 77.94964600, -3.81705761, -40.83514023, 0.73548466, -0.58010381, 0.24356800, 0.25142923, -0.09315357, -0.16081156, -0.02080547, 100.02000427, 109.20150757, 0.00000000, 0.00000000
2, 0.5150, 45, -0.00938226, -0.83969688, -0.18107027, 33.59920883, -1.73059559, 18.58269501, -21.77725792, 13.24174213, -84.56591797, 78.11692047, -3.90974212, -40.82431793, 0.73481858, -0.58096480, 0.24446215, 0.25051928, -0.05839906, -0.13647313, -0.02507832, 100.02000427, 109.20150757, 0.00000000, 0.00000000
2, 0.5200, 46, -0.01695258, -0.83094573, -0.17192483, 33.62998581, -2.35087609, 18.15636063, -21.48494530, 13.44636059, -84.21514130, 78.28459167, -4.00100946, -40.81724167, 0.73413843, -0.58182287, 0.24536502, 0.24963763, -0.05242041, -0.14571565, -0.03134660, 100.02000427, 109.20150757, 0.00000000, 0.00000000
3, 0.3900, 34, 0.26481152, -0.49932674, -0.03125544, -20.14702415, -37.23018646, 122.14805603, -11.19555664, -14.06021595, -47.82227325, 102.50652313, 38.93449020, -63.30879211, 0.36590400, -0.73540187, 0.20834480, 0.53093392, 0.36553830, -0.25830489, 0.20050681, 100.11500549, 101.21302795, 32.30999756, 0.00000000
3, 0.3950, 35, 0.30072832, -0.54940665, 0.02142877, -16.30425072, -32.19448471, 130.06582642, -11.19555664, -14.06021595, -47.82227325, 102.18479156, 38.33034897, -63.69018936, 0.36916941, -0.73318315, 0.21266685, 0.53002769, 0.32157838, -0.21549800, 0.14484483, 100.11500549, 101.21302795, 32.30999756, 0.00000000
2, 0.5250, 47, -0.02469565, -0.83747411, -0.16464362, 32.71951294, -1.45727122, 18.86068344, -21.48494530, 13.44636059, -84.21514130, 78.44820404, -4.09270477, -40.80543137, 0.73348838, -0.58266318, 0.24623559, 0.24872985, -0.04627631, -0.13965780, -0.03579497, 100.02000427, 109.20150757, 0.00000000, 0.00000000
2, 0.5300, 48, -0.04207515, -0.86778224, -0.14528483, 29.47224998, -1.11851692, 19.05869293, -22.06957054, 12.16018677, -83.77667236, 78.59458923, -4.18720675, -40.79190826, 0.73293304, -0.58338881, 0.24707547, 0.24783134, -0.03052711, -0.10975774, -0.05256332, 100.02000427, 109.20150757, 0.00000000, 0.00000000
2, 0.5350, 49, -0.08181074, -0.87530166, -0.11016569, 29.85835266, -1.35866916, 18.84835815, -22.06957054, 12.16018677, -83.77667236, 78.74300385, -4.28094864, -40.78002167, 0.73236138, -0.58412510, 0.24792130, 0.24694096, 0.00757013, -0.10262679, -0.08513834, 100.02000427, 109.20150757, 0.00000000, 0.00000000
1, 0.5950, 73, -0.10796672, -0.96881950, 0.16689040, 1.00432885, 14.02945614, 7.27344799, -34.28821945, 0.32154340, -108.59397888, 102.38771057, -9.78155804, -44.25089645, -0.60344851, 0.69913459, -0.34192723, -0.17362799, -0.06212765, 0.00599299, 0.04268825, 100.07100677, 104.91204071, 32.27999878, 0.00000000
1, 0.6000, 74, -0.10614432, -0.98499227, 0.18260111, 1.71160877, 14.41368294, 7.48391581, -34.78514862, -0.38000584, -108.30166626, 102.38555908, -9.83344936, -44.18752289, -0.60366726, 0.69917792, -0.34178790, -0.17296575, -0.06487300, 0.02227820, 0.02687405, 100.07100677, 104.91204071, 32.27999878, 0.00000000
1, 0.6050, 75, -0.10818087, -0.99275601, 0.19089781, 1.84402204, 15.28016567, 7.71319628, -34.78514862, -0.38000584, -108.30166626, 102.38333893, -9.88735962, -44.12008286, -0.60389620, 0.69922769, -0.34163341, -0.17226902, -0.06377176, 0.03017642, 0.01849315, 100.07100677, 104.91204071, 32.27999878, 0.00000000
4, 0.3800, 38, 0.13277489, -1.12182462, 0.08563216, -21.21113777, 70.21689606, 85.19352722, -45.04530716, -41.36217499, -15.52177715, 95.75859833, -6.74976730, -69.78372192, 0.57414979, -0.58475393, 0.45594263, 0.34717628, -0.24832100, 0.13360097, 0.01465998, 100.05400848, 106.34145355, 32.00999832, 0.00000000
2, 0.5400, 50, -0.09500548, -0.85651106, -0.10150020, 26.67563438, -0.91252548, 18.63105583, -22.06957054, 12.16018677, -83.77667236, 78.87535095, -4.37322092, -40.76638031, 0.73187160, -0.58476555, 0.24871252, 0.24608007, 0.01914889, -0.12177333, -0.09138583, 100.02000427, 109.20150757, 0.00000000, 0.00000000
2, 0.5450, 51, -0.10143318, -0.86953694, -0.11805658, 21.02483749, 0.70316094, 18.90607262, -22.06957054, 13.09558582, -83.71820831, 78.97880554, -4.46531868, -40.74470901, 0.73154527, -0.58523881, 0.24939801, 0.24523000, 0.02398045, -0.10898700, -0.07297151, 100.02000427, 109.20150757, 0.00000000, 0.00000000
3, 0.4000, 36, 0.29409453, -0.60380310, 0.04964760, -15.25679684, -29.44594574, 138.12661743, -11.19555664, -14.06021595, -47.82227325, 101.88342285, 37.68560028, -64.05569458, 0.37257162, -0.73096055, 0.21720295, 0.52887619, 0.31949180, -0.16868308, 0.11396174, 100.11500549, 101.21302795, 32.30999756, 0.00000000
3, 0.4050, 37, 0.27333888, -0.64495897, 0.05144730, -17.32841873, -28.97410965, 145.98442078, -11.02016926, -14.23560333, -48.08535385, 101.57531738, 37.00037384, -64.42076874, 0.37621051, -0.72861099, 0.22192542, 0.52758014, 0.33089709, -0.13541654, 0.10949607, 100.11500549, 101.21302795, 32.30999756, 0.00000000
3, 0.4100, 38, 0.24243644, -0.66111368, 0.03312039, -20.33888626, -31.65786362, 153.46563721, -11.02016926, -14.23560333, -48.08535385, 101.24533081, 36.27952957, -64.80332184, 0.38007426, -0.72604507, 0.22685058, 0.52625185, 0.35184801, -0.12746331, 0.12486963, 100.11500549, 101.21302795, 32.30999756, 0.00000000
1, 0.6100, 76, -0.10950904, -1.00106037, 0.19432177, 1.01048934, 16.75047684, 8.56505203, -34.31745148, 1.95849168, -108.59397888, 102.37577820, -9.94701099, -44.04625320, -0.60417861, 0.69925344, -0.34145969, -0.17151722, -0.06345278, 0.03862364, 0.01491392, 100.07100677, 104.91204071, 32.27999878, 0.00000000
1, 0.6150, 77, -0.10389360, -0.98896813, 0.18458034, 0.47590619, 17.06962776, 9.59597874, -34.31745148, 1.95849168, -108.59397888, 102.36540222, -10.01204109, -43.97192764, -0.60448933, 0.69925171, -0.34130478, -0.17073616, -0.07014053, 0.02669756, 0.02447532, 100.07100677, 104.91204071, 32.27999878, 0.00000000
1, 0.6200, 78, -0.09439717, -0.96815038, 0.17269053, 1.13091564, 16.17007446, 11.03839111, -34.31745148, 1.95849168, -108.59397888, 102.35926819, -10.08313847, -43.90359879, -0.60477686, 0.69923866, -0.34122223, -0.16993459, -0.08080034, 0.00607864, 0.03625508, 100.07100677, 104.91204071, 32.27999878, 0.00000000
3, 0.4150, 39, 0.20306367, -0.66441387, -0.00383112, -22.02733421, -35.42396927, 160.98977661, -11.02016926, -14.23560333, -48.08535385, 100.89746094, 35.52356720, -65.20873260, 0.38410798, -0.72325379, 0.23202634, 0.52490836, 0.38068572, -0.13263643, 0.15854001, 100.11500549, 101.21302795, 32.30999756, 0.00000000
3, 0.4200, 40, 0.15947309, -0.67607909, -0.04908278, -21.77772141, -37.38891983, 168.89872742, -11.19555664, -15.84332085, -47.93919754, 100.54882813, 34.72859573, -65.62540436, 0.38827392, -0.72030169, 0.23747741, 0.52346277, 0.41309613, -0.12968551, 0.20039004, 100.11500549, 101.21302795, 32.30999756, 0.00000000
3, 0.4250, 41, 0.09825562, -0.69311970, -0.08822904, -20.91286850, -36.11888885, 176.83918762, -11.19555664, -15.84332085, -47.93919754, 100.21427917, 33.89142227, -66.03334808, 0.39258394, -0.71726739, 0.24316189, 0.52180237, 0.46242982, -0.12156555, 0.23623154, 100.11500549, 101.21302795, 32.30999756, 0.00000000
4, 0.3850, 39, 0.13875538, -1.12857044, 0.08493882, -24.27691841, 72.25943756, 84.35438538, -46.15609360, -41.47909927, -15.66793346, 95.59832764, -7.20522547, -69.46357727, 0.57747751, -0.58355492, 0.45591137, 0.34369811, -0.26221085, 0.14102639, 0.01258667, 100.05400848, 106.34145355, 32.00999832, 0.00000000
2, 0.5500, 52, -0.11142215, -0.90252376, -0.15238023, 19.46370125, 0.56581086, 18.37495804, -22.06957054, 13.09558582, -83.71820831, 79.07452393, -4.55497217, -40.72437668, 0.73125052, -0.58566582, 0.25005725, 0.24441706, 0.03239269, -0.07619987, -0.03697143, 100.02000427, 109.20150757, 0.00000000, 0.00000000
4, 0.4200, 40, 0.20604940, -0.97828406, 0.08862872, -39.38046265, 86.87683868, 69.97396088, -49.04998398, -41.27447891, -17.07103157, 93.90336609, -10.08694649, -66.78024292, 0.60309368, -0.57477009, 0.45072162, 0.32057372, -0.37956822, -0.00418073, -0.02043569, 100.05400848, 106.34145355, 32.00999832, 0.00000000
4, 0.4250, 41, 0.21689738, -0.97390580, 0.08961149, -38.60211945, 87.31124115, 68.77862549, -49.04998398, -41.27447891, -17.07103157, 93.63549805, -10.45879173, -66.36051178, 0.60673290, -0.57361531, 0.44960302, 0.31732908, -0.39683792, -0.00771678, -0.02609269, 100.05400848, 106.34145355, 32.00999832, 0.00000000
4, 0.4300, 42, 0.23713496, -0.96507704, 0.09938471, -37.88579941, 86.60579681, 67.66848755, -49.04998398, -41.27447891, -17.07103157, 93.36875153, -10.82295513, -65.94176483, 0.61030924, -0.57247669, 0.44847357, 0.31410918, -0.42335781, -0.01566291, -0.04050805, 100.05400848, 106.34145355, 32.00999832, 0.00000000
1, 0.6250, 79, -0.09639527, -0.94449925, 0.18628664, 2.14511347, 15.02502441, 12.68069172, -34.84361267, 1.49079216, -108.03858185, 102.35778809, -10.15028763, -43.84249878, -0.60501611, 0.69923872, -0.34117156, -0.16918249, -0.08005433, -0.01739099, 0.02260897, 100.07100677, 104.91204071, 32.27999878, 0.00000000
3, 0.4300, 42, 0.02682317, -0.69735831, -0.10276362, -21.07648277, -30.04290581, 184.63760376, -12.39403629, -15.87255192, -47.82227325, 99.90460205, 33.00867462, -66.40386963, 0.39711556, -0.71423906, 0.24896662, 0.51978594, 0.52120709, -0.12643328, 0.24772498, 100.11500549, 101.21302795, 32.30999756, 0.00000000
3, 0.4350, 43, -0.03922486, -0.69375336, -0.10719156, -21.30805969, -21.72018433, 192.21855164, -12.39403629, -15.87255192, -47.82227325, 99.62569427, 32.07993317, -66.72418976, 0.40188906, -0.71126330, 0.25484073, 0.51734501, 0.57379293, -0.13929649, 0.24948527, 100.11500549, 101.21302795, 32.30999756, 0.00000000
2, 0.5650, 53, -0.08586932, -0.90730381, -0.13209815, 11.95066166, -1.94563866, 18.64893723, -21.71879578, 13.09558582, -84.36129761, 79.29884338, -4.83168650, -40.69720078, 0.73062444, -0.58645046, 0.25211585, 0.24228399, 0.00204447, -0.07180137, -0.05317533, 100.02000427, 109.20150757, 0.00000000, 0.00000000
2, 0.5700, 54, -0.08962590, -0.94516885, -0.13720612, 11.46239662, -3.26511168, 18.87027359, -22.27418900, 11.80941200, -83.71820831, 79.35603333, -4.92742777, -40.69576263, 0.73049432, -0.58657348, 0.25282383, 0.24163973, 0.00414822, -0.03398237, -0.04706631, 100.02000427, 109.20150757, 0.00000000, 0.00000000
2, 0.5750, 55, -0.08011944, -0.89765012, -0.10815614, 8.13491440, -4.85903358, 18.06552505, -22.27418900, 11.80941200, -83.71820831, 79.40592194, -5.01957607, -40.70388031, 0.73037511, -0.58663762, 0.25354233, 0.24109086, -0.00698531, -0.08152548, -0.07522300, 100.02000427, 109.20150757, 0.00000000, 0.00000000
2, 0.5800, 56, -0.08064807, -0.91252875, -0.10844680, 6.01559591, -4.58608341, 18.09415054, -22.56650162, 12.10172462, -83.77667236, 79.43653107, -5.11271572, -40.70983505, 0.73036045, -0.58658075, 0.25421482, 0.24056499, -0.00806538, -0.06662432, -0.07427953, 100.02000427, 109.20150757, 0.00000000, 0.00000000
2, 0.5850, 57, -0.08267532, -0.92246753, -0.09457945, 6.25691795, -4.09779072, 17.75490952, -22.56650162, 12.10172462, -83.77667236, 79.46816254, -5.20374203, -40.71373367, 0.73034096, -0.58653998, 0.25486541, 0.24003454, -0.00762680, -0.05664215, -0.08760098, 100.02000427, 109.20150757, 0.00000000, 0.00000000
2, 0.5900, 58, -0.09010281, -0.91194212, -0.09112319, 3.17190576, -4.82339907, 16.75567627, -22.09880066, 12.62788677, -84.18591309, 79.48479462, -5.29051161, -40.72218704, 0.73038143, -0.58640409, 0.25548106, 0.23958869, -0.00172585, -0.06709681, -0.09067368, 100.02000427, 109.20150757, 0.00000000, 0.00000000
2, 0.5950, 59, -0.08156848, -0.92575312, -0.08453519, 3.75352001, -3.77345419, 15.59200954, -22.09880066, 12.62788677, -84.18591309, 79.50396729, -5.37060833, -40.72653580, 0.73040611, -0.58631027, 0.25603944, 0.23914641, -0.01168684, -0.05321477, -0.09691779, 100.02000427, 109.20150757, 0.00000000, 0.00000000
4, 0.4350, 43, 0.23955818, -0.95388329, 0.10898952, -37.29656219, 84.03893280, 66.45727539, -49.78076553, -40.74831772, -16.98333740, 93.10437012, -11.17843533, -65.53350830, 0.61378872, -0.57132787, 0.44737911, 0.31096625, -0.43190998, -0.02593884, -0.05471564, 100.05400848, 106.34145355, 32.00999832, 0.00000000
4, 0.4400, 44, 0.22313040, -0.95165855, 0.09716950, -36.49249268, 81.15500641, 65.68936920, -49.78076553, -40.74831772, -16.98333740, 92.84523010, -11.51558685, -65.13802338, 0.61712497, -0.57021254, 0.44629243, 0.30795705, -0.42137873, -0.02722839, -0.04742148, 100.05400848, 106.34145355, 32.00999832, 0.00000000
4, 0.4450, 45, 0.22323367, -0.94965249, 0.06700080, -35.67846298, 76.91564941, 65.55957031, -50.86231995, -40.83601379, -17.48026848, 92.59059906, -11.86125469, -64.76161194, 0.62038463, -0.56900257, 0.44536820, 0.30496943, -0.42730257, -0.02825232, -0.02167371, 100.05400848, 106.34145355, 32.00999832, 0.00000000
3, 0.4700, 44, -0.05105107, -0.92041397, -0.08934083, -22.46203232, 43.88648987, 235.29971313, -15.69716454, -18.97106171, -48.23151016, 98.52570343, 24.40618134, -67.43722534, 0.44163355, -0.69257784, 0.29637524, 0.48729619, 0.46901467, 0.02205784, 0.22437832, 100.11500549, 101.21302795, 32.30999756, 0.00000000
3, 0.4750, 45, -0.01320625, -0.92989767, -0.06943876, -23.36637497, 49.76607513, 238.10523987, -15.69716454, -18.97106171, -48.23151016, 98.43992615, 23.19198418, -67.36019897, 0.44802082, -0.69006711, 0.30209768, 0.48147881, 0.41189563, 0.02280781, 0.20436957, 100.11500549, 101.21302795, 32.30999756, 0.00000000
1, 0.6300, 80, -0.09990589, -0.93439472, 0.20138113, 2.68620992, 14.68563461, 13.96264553, -34.84361267, 1.49079216, -108.03858185, 102.36116028, -10.23407269, -43.78465271, -0.60525471, 0.69921142, -0.34122822, -0.16832536, -0.07790000, -0.02728139, 0.00750632, 100.07100677, 104.91204071, 32.27999878, 0.00000000
2, 0.6000, 60, -0.07987402, -0.91771382, -0.07528692, 1.93857253, -4.49585915, 14.49464321, -22.09880066, 12.62788677, -84.18591309, 79.51450348, -5.44596291, -40.73548508, 0.73045743, -0.58616304, 0.25657371, 0.23877779, -0.01471093, -0.06117309, -0.10591505, 100.02000427, 109.20150757, 0.00000000, 0.00000000
2, 0.6050, 61, -0.08552304, -0.92752284, -0.08392084, 1.14522290, -4.86876965, 13.26834297, -22.50803757, 12.65711784, -83.92282867, 79.52136230, -5.51562500, -40.74740219, 0.73051172, -0.58600020, 0.25708008, 0.23846652, -0.01029748, -0.05126855, -0.09714784, 100.02000427, 109.20150757, 0.00000000, 0.00000000
4, 0.4500, 46, 0.21946751, -0.93776220, 0.04397380, -35.24067307, 70.87828827, 65.64930725, -50.86231995, -40.83601379, -17.48026848, 92.34193420, -12.20445251, -64.41403961, 0.62350416, -0.56771028, 0.44460610, 0.30211434, -0.42940700, -0.03909022, -0.00296646, 100.05400848, 106.34145355, 32.00999832, 0.00000000
4, 0.4550, 47, 0.24060927, -0.90921408, 0.05022568, -35.11900330, 64.50143433, 65.35575104, -50.86231995, -40.83601379, -17.48026848, 92.09842682, -12.54348946, -64.09707642, 0.62648118, -0.56633204, 0.44400331, 0.29941699, -0.45634589, -0.06654272, -0.01343971, 100.05400848, 106.34145355, 32.00999832, 0.00000000
3, 0.4800, 46, 0.03808133, -0.95223355, -0.05027211, -23.30375290, 55.70272827, 241.04086304, -17.74334908, -19.55568504, -48.23151016, 98.36470032, 21.95903969, -67.25252533, 0.45449430, -0.68756390, 0.30775875, 0.47536871, 0.34086061, 0.03671553, 0.18518183, 100.11500549, 101.21302795, 32.30999756, 0.00000000
3, 0.4850, 47, 0.10214512, -0.99558783, -0.02529627, -22.70977211, 59.36141968, 243.83901978, -17.74334908, -19.55568504, -48.23151016, 98.29685974, 20.70972443, -67.12686920, 0.46100277, -0.68502897, 0.31340691, 0.46902859, 0.25659314, 0.07197414, 0.16025831, 100.11500549, 101.21302795, 32.30999756, 0.00000000
3, 0.4900, 48, 0.16678020, -1.06273687, 0.02040621, -22.69269371, 61.06107712, 246.58535767, -17.74334908, -19.55568504, -48.23151016, 98.22904968, 19.44572830, -66.99384308, 0.46753386, -0.68240774, 0.31906512, 0.46252495, 0.17133710, 0.13137905, 0.11457071, 100.11500549, 101.21302795, 32.30999756, 0.00000000
2, 0.6300, 62, -0.12033689, -0.91190565, -0.04586361, -0.72006840, -7.63911200, 8.24605751, -22.82958221, 12.39403629, -83.30897522, 79.55615997, -5.80586147, -40.88759232, 0.73051691, -0.58515286, 0.25966319, 0.23773159, 0.01938334, -0.06650279, -0.13448438, 100.02000427, 109.20150757, 0.00000000, 0.00000000
2, 0.6350, 63, -0.13104579, -0.91292441, -0.04354196, -1.22665489, -7.46016836, 7.41183281, -22.82958221, 12.39403629, -83.30897522, 79.55307770, -5.84906673, -40.91770554, 0.73054051, -0.58495235, 0.26007745, 0.23769967, 0.02931942, -0.06539960, -0.13682979, 100.02000427, 109.20150757, 0.00000000, 0.00000000
2, 0.6400, 64, -0.13944599, -0.91343194, -0.05145099, -0.92920691, -7.72488165, 5.91425562, -22.68342590, 13.06635475, -83.60128784, 79.55178833, -5.88515139, -40.95049286, 0.73053783, -0.58477545, 0.26046491, 0.23771879, 0.03706789, -0.06482086, -0.12893790, 100.02000427, 109.20150757, 0.00000000, 0.00000000
3, 0.4950, 49, 0.22176470, -1.14234948, 0.08571612, -23.96890259, 62.23822403, 248.53550720, -19.58491707, -20.43262100, -47.93919754, 98.15302277, 18.16972160, -66.85576630, 0.47411102, -0.67966402, 0.32469901, 0.45590138, 0.09536080, 0.20361455, 0.04910504, 100.11500549, 101.21302795, 32.30999756, 0.00000000
3, 0.5000, 50, 0.26966786, -1.22939539, 0.15578693, -26.43454933, 60.85416031, 249.83911133, -19.58491707, -20.43262100, -47.93919754, 98.06037903, 16.89011765, -66.72462463, 0.48069647, -0.67674500, 0.33030286, 0.44927400, 0.02620767, 0.28367981, -0.02144354, 100.11500549, 101.21302795, 32.30999756, 0.00000000
3, 0.5050, 51, 0.30787486, -1.30751467, 0.22148556, -30.33835411, 55.96384048, 251.25672913, -21.89418221, -20.40339088, -47.85150528, 97.93851471, 15.60711765, -66.61814117, 0.48729318, -0.67354143, 0.33593267, 0.44276032, -0.03344985, 0.35521346, -0.08813748, 100.11500549, 101.21302795, 32.30999756, 0.00000000
4, 0.5000, 48, 0.25238848, -0.70145881, 0.09585759, -18.52377129, -1.76426566, 62.98659134, -53.61005402, -40.63139343, -18.53259277, 90.59774017, -15.49881935, -63.04650497, 0.64424044, -0.55076921, 0.44908738, 0.28271559, -0.51829052, -0.26248413, -0.08545129, 100.05400848, 106.34145355, 32.00999832, 0.00000000
4, 0.5050, 49, 0.23307663, -0.68242270, 0.09230846, -14.37337780, -6.00503540, 61.17975616, -53.61005402, -40.63139343, -18.53259277, 90.53513336, -15.80440617, -63.08081436, 0.64522046, -0.54909021, 0.45054743, 0.28142062, -0.50416023, -0.28008792, -0.08308861, 100.05400848, 106.34145355, 32.00999832, 0.00000000
1, 0.6600, 81, -0.00912566, -0.95917344, 0.23460898, 1.43406284, 13.66388893, 19.84299660, -35.10669327, 1.05232382, -108.91551971, 102.34735107, -10.86016941, -43.41451263, -0.60715473, 0.69861192, -0.34197235, -0.16235591, -0.17939237, -0.00067827, -0.02618596, 100.07100677, 104.91204071, 32.27999878, 0.00000000
1, 0.6650, 82, -0.08477537, -0.95279574, 0.23425575, 2.72281170, 13.19858551, 20.83201599, -35.10669327, 1.05232382, -108.91551971, 102.35305023, -10.97593689, -43.37133789, -0.60741466, 0.69846839, -0.34227538, -0.16135986, -0.10570678, -0.00666921, -0.02601427, 100.07100677, 104.91204071, 32.27999878, 0.00000000
1, 0.6700, 83, -0.13896926, -0.96476567, 0.22557147, 3.13739634, 17.20238495, 21.06237984, -35.10669327, 1.05232382, -108.91551971, 102.35697174, -11.09706211, -43.30847549, -0.60772246, 0.69835979, -0.34248146, -0.16022956, -0.05354334, 0.00572285, -0.01748728, 100.07100677, 104.91204071, 32.27999878, 0.00000000
1, 0.6750, 84, -0.14534217, -0.97686291, 0.23027338, 3.17949486, 22.50178337, 20.87268448, -35.42823792, 1.84156680, -109.38321686, 102.35765839, -11.21775341, -43.21938705, -0.60808372, 0.69831336, -0.34252098, -0.15897204, -0.04927293, 0.01821809, -0.02229377, 100.07100677, 104.91204071, 32.27999878, 0.00000000
1, 0.6800, 85, -0.12699246, -0.97902048, 0.23691298, 2.88711381, 26.11884880, 20.99767685, -35.42823792, 1.84156680, -109.38321686, 102.35134888, -11.34805584, -43.11198044, -0.60852969, 0.69825894, -0.34248540, -0.15757518, -0.06980774, 0.02077092, -0.02905446, 100.07100677, 104.91204071, 32.27999878, 0.00000000
1, 0.6850, 86, -0.11903895, -0.97662699, 0.24185459, 3.39962530, 27.98992920, 21.59658623, -35.42823792, 1.22771120, -108.79859924, 102.34562683, -11.48324013, -42.99582672, -0.60899067, 0.69822061, -0.34242091, -0.15609753, -0.08006349, 0.01879657, -0.03417642, 100.07100677, 104.91204071, 32.27999878, 0.00000000
1, 0.6900, 87, -0.13652961, -0.97840703, 0.25961488, 4.39975595, 30.67105103, 21.99827957, -35.42823792, 1.22771120, -108.79859924, 102.34204102, -11.62321186, -42.86666870, -0.60946226, 0.69821942, -0.34230310, -0.15451229, -0.06499204, 0.02100558, -0.05215354, 100.07100677, 104.91204071, 32.27999878, 0.00000000
1, 0.6950, 88, -0.15913975, -0.97677767, 0.28231928, 5.02907562, 34.50854492, 21.97658157, -35.42823792, 1.22771120, -108.79859924, 102.33735657, -11.76713467, -42.71826553, -0.60997015, 0.69825906, -0.34208560, -0.15280113, -0.04488372, 0.01981706, -0.07508729, 100.07100677, 104.91204071, 32.27999878, 0.00000000
4, 0.5100, 50, 0.17396139, -0.68825549, 0.08845566, -10.16203594, -8.96802807, 59.29024887, -53.72697830, -40.95293808, -18.97106171, 90.49789429, -16.10045052, -63.13022232, 0.64601344, -0.54752648, 0.45209402, 0.28016502, -0.45005015, -0.27283850, -0.07997356, 100.05400848, 106.34145355, 32.00999832, 0.00000000
4, 0.5150, 51, 0.11428357, -0.69750863, 0.08095824, -7.34956837, -10.00522804, 57.60555267, -53.72697830, -40.95293808, -18.97106171, 90.47643280, -16.38804626, -63.18487930, 0.64669377, -0.54605883, 0.45366096, 0.27892435, -0.39522946, -0.26218039, -0.07289980, 100.05400848, 106.34145355, 32.00999832, 0.00000000
4, 0.5200, 52, 0.05299676, -0.70745754, 0.07088813, -4.86471462, -9.97245884, 55.84273148, -53.72697830, -40.95293808, -18.97106171, 90.46757507, -16.66684532, -63.23928833, 0.64728993, -0.54469299, 0.45521224, 0.27768165, -0.33864522, -0.25084403, -0.06304151, 100.05400848, 106.34145355, 32.00999832, 0.00000000
2, 0.6450, 65, -0.14882742, -0.90295225, -0.05785335, 0.07886919, -6.98708057, 4.88706255, -22.68342590, 13.06635475, -83.60128784, 79.55527496, -5.91551542, -40.98057938, 0.73050702, -0.58464992, 0.26081315, 0.23774038, 0.04589081, -0.07525048, -0.12248930, 100.02000427, 109.20150757, 0.00000000, 0.00000000
2, 0.6500, 66, -0.14511690, -0.90588629, -0.05955291, 1.57705081, -5.79600096, 3.62561584, -22.68342590, 13.06635475, -83.60128784, 79.56577301, -5.93859720, -41.00592804, 0.73043847, -0.58459878, 0.26110676, 0.23775475, 0.04174873, -0.07229901, -0.12063757, 100.02000427, 109.20150757, 0.00000000, 0.00000000
2, 0.6550, 67, -0.15292642, -0.90750831, -0.06129063, 1.77672350, -5.54644251, 2.79585075, -22.42034531, 12.04326248, -83.48435974, 79.57723236, -5.95737171, -41.03081131, 0.73035896, -0.58456588, 0.26137325, 0.23778684, 0.04921499, -0.07067879, -0.11869223, 100.02000427, 109.20150757, 0.00000000, 0.00000000
3, 0.5100, 52, 0.34186450, -1.35512745, 0.27785331, -34.71529007, 47.04130554, 252.77175903, -21.89418221, -20.40339088, -47.85150528, 97.78107452, 14.32296944, -66.55589294, 0.49385434, -0.66996413, 0.34166923, 0.43648386, -0.08905322, 0.39663130, -0.14617258, 100.11500549, 101.21302795, 32.30999756, 0.00000000
3, 0.5150, 53, 0.35686228, -1.37664974, 0.32699829, -38.48438644, 35.95779037, 255.09368896, -21.89418221, -20.40339088, -47.85150528, 97.59057617, 13.03491783, -66.54809570, 0.50034112, -0.66597378, 0.34759670, 0.43048131, -0.12584487, 0.41235355, -0.19764970, 100.11500549, 101.21302795, 32.30999756, 0.00000000
1, 0.7350, 89, -0.19468352, -0.99555981, 0.24743925, 2.34898043, 55.70833206, 20.09740448, -35.16515732, 1.52002335, -109.61707306, 102.08270264, -12.94140816, -40.97907639, -0.61590409, 0.69896269, -0.33682951, -0.13659878, -0.02922678, 0.04203600, -0.04532616, 100.07100677, 104.91204071, 32.27999878, 0.00000000
1, 0.7400, 90, -0.16508207, -0.99768114, 0.23533262, 1.78178656, 52.66707230, 20.34760475, -35.16515732, 1.52002335, -109.61707306, 102.03719330, -13.09549999, -40.73630905, -0.61674154, 0.69902635, -0.33604091, -0.13441983, -0.06142991, 0.04460847, -0.03403357, 100.07100677, 104.91204071, 32.27999878, 0.00000000
2, 0.6600, 68, -0.16208391, -0.91177070, -0.06471790, 3.10185671, -5.56891823, 1.58499551, -22.42034531, 12.04326248, -83.48435974, 79.59544373, -5.97019625, -41.05690002, 0.73023272, -0.58458889, 0.26162329, 0.23784296, 0.05812220, -0.06644145, -0.11498486, 100.02000427, 109.20150757, 0.00000000, 0.00000000
2, 0.6650, 69, -0.17447831, -0.91018343, -0.05864334, 4.74491549, -4.69106293, 0.52818567, -22.59573174, 12.01403046, -84.27360535, 79.62153625, -5.97702312, -41.07962036, 0.73006362, -0.58468539, 0.26183552, 0.23789164, 0.07037044, -0.06808822, -0.12065043, 100.02000427, 109.20150757, 0.00000000, 0.00000000
2, 0.6700, 70, -0.18534219, -0.90848786, -0.05148282, 6.10715151, -4.40302277, -0.50401211, -22.59573174, 12.01403046, -84.27360535, 79.65439606, -5.97850609, -41.10184860, 0.72985220, -0.58483994, 0.26202628, 0.23795022, 0.08118740, -0.06987650, -0.12727654, 100.02000427, 109.20150757, 0.00000000, 0.00000000
3, 0.5600, 54, 0.19683649, -1.35143816, 0.31082660, -20.37043953, 7.10154343, 246.83332825, -29.69891739, -22.24495697, -48.84536743, 95.76955414, 1.46464288, -67.39937592, 0.55262452, -0.62184912, 0.40441415, 0.37994620, -0.16593918, 0.35703617, -0.20992453, 100.11500549, 101.21302795, 32.30999756, 0.00000000
3, 0.5650, 55, 0.19336805, -1.34705007, 0.34795403, -15.72008896, 1.75862491, 241.47697449, -29.69891739, -22.24495697, -48.84536743, 95.68930054, 0.26242024, -67.51114655, 0.55705434, -0.61720389, 0.41064048, 0.37433189, -0.18357356, 0.35206982, -0.24850070, 100.11500549, 101.21302795, 32.30999756, 0.00000000
2, 0.6750, 71, -0.19046424, -0.89853960, -0.04972500, 7.35929537, -4.00902891, -1.81331015, -22.59573174, 12.01403046, -84.06898499, 79.72809601, -6.00304842, -41.12694931, 0.72946393, -0.58518744, 0.26245868, 0.23781006, 0.08611547, -0.07997714, -0.12808451, 100.02000427, 109.20150757, 0.00000000, 0.00000000
2, 0.6800, 72, -0.20162952, -0.89287144, -0.04117510, 8.05005074, -3.30674577, -2.80779457, -23.00496864, 13.00789261, -84.06898499, 79.77031708, -5.99217463, -41.14581299, 0.72919130, -0.58544147, 0.26257569, 0.23789160, 0.09718045, -0.08581553, -0.13563615, 100.02000427, 109.20150757, 0.00000000, 0.00000000
3, 0.5700, 56, 0.20175771, -1.35372901, 0.35830808, -12.28356934, -2.19341159, 236.11515808, -31.68664169, -22.68342590, -48.96229172, 95.62860870, -0.91131383, -67.63844299, 0.56117266, -0.61260629, 0.41682979, 0.36885208, -0.21257153, 0.35864598, -0.25998825, 100.11500549, 101.21302795, 32.30999756, 0.00000000
3, 0.5750, 57, 0.23186173, -1.35116148, 0.34689826, -10.12940788, -3.89730334, 231.00337219, -31.68664169, -22.68342590, -48.96229172, 95.58140564, -2.05889368, -67.77068329, 0.56506157, -0.60806310, 0.42291552, 0.36346546, -0.26281077, 0.35641044, -0.24949233, 100.11500549, 101.21302795, 32.30999756, 0.00000000
3, 0.5800, 58, 0.28615427, -1.34458220, 0.33673447, -8.97474957, -4.14108133, 225.77973938, -33.08974075, -22.68342590, -49.25460434, 95.54248810, -3.18046236, -67.90083313, 0.56877637, -0.60358042, 0.42884493, 0.35815665, -0.33677843, 0.35056078, -0.24011840, 100.11500549, 101.21302795, 32.30999756, 0.00000000
1, 0.7450, 91, -0.13100743, -1.00214195, 0.24600549, 1.96235359, 49.56201553, 20.62181473, -35.19438553, 1.52002335, -109.38321686, 101.99550629, -13.24755096, -40.50917053, -0.61752599, 0.69906837, -0.33534351, -0.13232465, -0.09812278, 0.04949088, -0.04547011, 100.07100677, 104.91204071, 32.27999878, 0.00000000
1, 0.7500, 92, -0.12098163, -1.01565981, 0.26848453, 1.06466615, 44.68083954, 21.95403671, -35.19438553, 1.84156680, -109.38321686, 101.95468903, -13.40096474, -40.30773163, -0.61827099, 0.69903493, -0.33481175, -0.13035443, -0.11080001, 0.06342871, -0.06874573, 100.07100677, 104.91204071, 32.27999878, 0.00000000
1, 0.7550, 93, -0.15913835, -1.01636374, 0.27564299, -0.24510886, 38.82933426, 24.39005089, -35.19438553, 1.84156680, -109.38321686, 101.91421509, -13.56016064, -40.13806915, -0.61898160, 0.69889432, -0.33450353, -0.12851505, -0.07533514, 0.06460184, -0.07681413, 100.07100677, 104.91204071, 32.27999878, 0.00000000
4, 0.5250, 53, -0.01280539, -0.72212291, 0.05385862, -3.09788966, -8.87392902, 54.21948242, -54.31160355, -41.04063034, -18.73721123, 90.46614838, -16.93757629, -63.28794098, 0.64784247, -0.54341948, 0.45671269, 0.27642196, -0.27740306, -0.23480812, -0.04606910, 100.05400848, 106.34145355, 32.00999832, 0.00000000
4, 0.5300, 54, -0.06795364, -0.72629011, 0.03563534, -1.90190327, -7.36287975, 52.61603165, -54.31160355, -41.04063034, -18.73721123, 90.46858215, -17.20035934, -63.32869720, 0.64837378, -0.54222679, 0.45814425, 0.27514637, -0.22667266, -0.22929007, -0.02783828, 100.05400848, 106.34145355, 32.00999832, 0.00000000
4, 0.5350, 55, -0.15530100, -0.74815565, 0.02727501, -1.34671080, -5.73358440, 52.18016815, -54.34083557, -40.36831284, -18.73721123, 90.47145844, -17.46101189, -63.36096954, 0.64891577, -0.54107529, 0.45952356, 0.27383205, -0.14367273, -0.20607278, -0.01942568, 100.05400848, 106.34145355, 32.00999832, 0.00000000
3, 0.5850, 59, 0.35330176, -1.33318162, 0.33114558, -7.78551340, -3.57952571, 219.97099304, -33.08974075, -22.68342590, -49.25460434, 95.51161194, -4.27347326, -68.02484131, 0.57232571, -0.59918743, 0.43458533, 0.35292104, -0.42309433, 0.34025556, -0.23520744, 100.11500549, 101.21302795, 32.30999756, 0.00000000
3, 0.5900, 60, 0.44108146, -1.31393254, 0.32081264, -6.45695162, -3.10694814, 213.42564392, -33.08974075, -22.68342590, -49.25460434, 95.48924255, -5.33419323, -68.14299011, 0.57569730, -0.59490550, 0.44012442, 0.34777969, -0.52947551, 0.32243347, -0.22544548, 100.11500549, 101.21302795, 32.30999756, 0.00000000
3, 0.5950, 61, 0.53484917, -1.29689419, 0.32600540, -3.96252131, -7.38164186, 205.83303833, -34.52206802, -22.21572685, -48.81613541, 95.48553467, -6.34752989, -68.27901459, 0.57872081, -0.59075511, 0.44554728, 0.34289691, -0.64109224, 0.30711547, -0.23096973, 100.11500549, 101.21302795, 32.30999756, 0.00000000
2, 0.6850, 73, -0.18997154, -0.87473851, -0.03437458, 9.51627159, -3.46727276, -4.05479813, -23.00496864, 13.00789261, -84.06898499, 79.82006073, -5.97529173, -41.16658020, 0.72886628, -0.58575463, 0.26268116, 0.23800011, 0.08579627, -0.10412446, -0.14162216, 100.02000427, 109.20150757, 0.00000000, 0.00000000
4, 0.5400, 56, -0.18773496, -0.73322910, 0.02518456, -1.78771627, -3.80393529, 52.25978088, -54.34083557, -40.36831284, -18.73721123, 90.47072601, -17.71968651, -63.38364410, 0.64949036, -0.53994644, 0.46083683, 0.27248800, -0.11555777, -0.21963552, -0.01736132, 100.05400848, 106.34145355, 32.00999832, 0.00000000
4, 0.5450, 57, -0.22558182, -0.72516471, 0.02580467, -0.45188752, -2.28514242, 52.36352158, -54.34083557, -40.36831284, -18.73721123, 90.47284698, -17.98139381, -63.39791107, 0.65007585, -0.53885216, 0.46212867, 0.27106628, -0.08203693, -0.22631219, -0.01797101, 100.05400848, 106.34145355, 32.00999832, 0.00000000
1, 0.7600, 94, -0.17563808, -1.02418494, 0.25057584, -1.17751491, 34.03558350, 26.42583847, -35.63285446, 2.16311026, -109.03244781, 101.87479401, -13.72431278, -39.99446869, -0.61965954, 0.69866920, -0.33438057, -0.12677953, -0.06154009, 0.07298214, -0.05258979, 100.07100677, 104.91204071, 32.27999878, 0.00000000
1, 0.7650, 95, -0.16469583, -1.00125182, 0.22013485, -2.94514871, 30.41077232, 27.34340286, -35.63285446, 2.16311026, -109.03244781, 101.83067322, -13.88918591, -39.86988068, -0.62034172, 0.69836044, -0.33437300, -0.12515473, -0.07520234, 0.05062004, -0.02293444, 100.07100677, 104.91204071, 32.27999878, 0.00000000
1, 0.7700, 96, -0.15828247, -0.97504687, 0.21273562, -3.95888329, 28.93961525, 27.32124138, -35.63285446, 2.16311026, -109.03244781, 101.78287506, -14.05235958, -39.75245285, -0.62103111, 0.69801438, -0.33439794, -0.12358959, -0.08436851, 0.02493618, -0.01640059, 100.07100677, 104.91204071, 32.27999878, 0.00000000
3, 0.6000, 62, 0.59304553, -1.28871441, 0.33955920, -1.16274357, -16.56209564, 196.92095947, -34.52206802, -22.21572685, -48.81613541, 95.50096130, -7.31968594, -68.45693970, 0.58135331, -0.58662820, 0.45100752, 0.33836088, -0.71629679, 0.30090901, -0.24452174, 100.11500549, 101.21302795, 32.30999756, 0.00000000
2, 0.7000, 74, -0.19333835, -0.86943614, -0.06329383, 13.37532425, -3.54904914, -5.91492796, -22.94650650, 12.54019260, -84.15667725, 80.00427246, -5.90023804, -41.23108292, 0.72766620, -0.58697420, 0.26293248, 0.23838995, 0.09043093, -0.11010304, -0.10965958, 100.02000427, 109.20150757, 0.00000000, 0.00000000
2, 0.7050, 75, -0.19397068, -0.83808917, -0.05980593, 14.82130718, -3.68355608, -6.08380699, -22.94650650, 12.54019260, -84.15667725, 80.08079529, -5.87346077, -41.25460434, 0.72718090, -0.58747613, 0.26304770, 0.23850736, 0.09151864, -0.14172050, -0.11188110, 100.02000427, 109.20150757, 0.00000000, 0.00000000
2, 0.7100, 76, -0.18123963, -0.82586396, -0.06722237, 14.75428295, -3.54730582, -5.80394554, -22.94650650, 12.54019260, -84.15667725, 80.15686798, -5.84791803, -41.27717209, 0.72670144, -0.58797383, 0.26316497, 0.23861304, 0.07924261, -0.15421952, -0.10316835, 100.02000427, 109.20150757, 0.00000000, 0.00000000
1, 0.7750, 97, -0.20607863, -0.96174788, 0.23447847, -3.54029131, 29.70086861, 27.68457985, -35.07746124, 1.19848001, -108.65244293, 101.73949432, -14.21568775, -39.63222885, -0.62169260, 0.69769901, -0.33441254, -0.12199450, -0.03939771, 0.01212409, -0.03914314, 100.07100677, 104.91204071, 32.27999878, 0.00000000
1, 0.7800, 98, -0.25951332, -0.98200083, 0.27592549, -2.56054950, 31.03330231, 27.66881561, -35.07746124, 1.19848001, -108.65244293, 101.69540405, -14.38248634, -39.50415802, -0.62236798, 0.69739264, -0.33439666, -0.12033521, 0.01113348, 0.03286017, -0.08160228, 100.07100677, 104.91204071, 32.27999878, 0.00000000
3, 0.6050, 63, 0.60442215, -1.26999974, 0.34453821, 2.09565473, -26.79675484, 187.11759949, -35.74977875, -22.59573174, -49.28383636, 95.54200745, -8.23803806, -68.68238068, 0.58351481, -0.58258384, 0.45649239, 0.33424729, -0.74379814, 0.28437689, -0.24911258, 100.11500549, 101.21302795, 32.30999756, 0.00000000
4, 0.6100, 58, -0.51181275, -0.82504171, -0.03988882, -6.31577635, 7.50748968, 56.26289368, -56.59164047, -39.57907104, -19.38029861, 90.19583130, -21.46275139, -62.90955353, 0.66046047, -0.52507216, 0.47527829, 0.24940276, 0.14706874, -0.10605928, 0.04324818, 100.05400848, 106.34145355, 32.00999832, 0.00000000
4, 0.6150, 59, -0.51946163, -0.82066202, -0.01818305, -6.00499725, 3.90012217, 57.55141068, -56.59164047, -39.57907104, -19.38029861, 90.15845490, -21.75056648, -62.88953400, 0.66130310, -0.52374649, 0.47641760, 0.24777861, 0.15006736, -0.10860595, 0.02089617, 100.05400848, 106.34145355, 32.00999832, 0.00000000
2, 0.7150, 77, -0.19673586, -0.91221219, -0.08903174, 16.57406235, -4.86939669, -4.70229816, -22.68342590, 12.54019260, -83.71820831, 80.24259186, -5.82889605, -41.30531311, 0.72617114, -0.58850241, 0.26337117, 0.23869663, 0.09510415, -0.06815244, -0.07995331, 100.02000427, 109.20150757, 0.00000000, 0.00000000
2, 0.7200, 78, -0.22004263, -0.98136270, -0.05293291, 18.81690598, -6.74395657, -3.74593163, -22.68342590, 12.54019260, -83.71820831, 80.34037781, -5.81612539, -41.34189606, 0.72557122, -0.58907115, 0.26368457, 0.23877217, 0.11865844, 0.00069234, -0.11441883, 100.02000427, 109.20150757, 0.00000000, 0.00000000
2, 0.7250, 79, -0.23161647, -0.91746616, 0.01765538, 17.58769226, -7.51155376, -3.38085794, -22.15726280, 12.65711784, -83.63051605, 80.46263885, -5.83127785, -41.38505173, 0.72487783, -0.58970582, 0.26425406, 0.23868211, 0.13019060, -0.06351868, -0.18312831, 100.02000427, 109.20150757, 0.00000000, 0.00000000
3, 0.6500, 64, 0.31547177, -1.01744115, 0.16947313, 6.95304346, -17.71479797, 94.26163483, -38.93598175, -21.10494041, -49.07921600, 96.23101044, -14.21446800, -70.92741394, 0.59303945, -0.55379152, 0.49590513, 0.30934975, -0.55913502, 0.05328208, -0.06449013, 100.11500549, 101.21302795, 32.30999756, 0.00000000
3, 0.6550, 65, 0.31222546, -0.99606818, 0.16521053, 6.77211094, -9.61325455, 83.17342377, -39.05290985, -21.25109673, -48.81613541, 96.28880310, -14.62261391, -71.02355957, 0.59378660, -0.55203354, 0.49825168, 0.30728129, -0.56300694, 0.03382629, -0.05939879, 100.11500549, 101.21302795, 32.30999756, 0.00000000
3, 0.6600, 66, 0.32264131, -0.97437191, 0.15878016, 6.23180151, -2.23238397, 72.08059692, -39.05290985, -21.25109673, -48.81613541, 96.33335114, -14.97959995, -71.07601929, 0.59455144, -0.55059516, 0.50012672, 0.30533057, -0.57966411, 0.01384658, -0.05234683, 100.11500549, 101.21302795, 32.30999756, 0.00000000
4, 0.6200, 60, -0.54011714, -0.82047260, 0.00205241, -5.77598429, 1.75091910, 58.24012375, -56.59164047, -39.57907104, -19.38029861, 90.12634277, -22.04178429, -62.88088226, 0.66209894, -0.52238637, 0.47763404, 0.24617733, 0.16601361, -0.10691091, 0.00011921, 100.05400848, 106.34145355, 32.00999832, 0.00000000
4, 0.6250, 61, -0.59790903, -0.82512045, 0.00931853, -5.48641109, 0.98957890, 58.42939758, -57.17626190, -38.81905746, -19.32183456, 90.09712982, -22.33394432, -62.87615585, 0.66287005, -0.52101910, 0.47887680, 0.24458030, 0.21908398, -0.10034543, -0.00763181, 100.05400848, 106.34145355, 32.00999832, 0.00000000
4, 0.6300, 62, -0.62110466, -0.82741469, 0.02415087, -5.57512951, 3.19205880, 58.75071335, -57.17626190, -38.81905746, -19.32183456, 90.06282043, -22.62772179, -62.85932541, 0.66368830, -0.51966256, 0.48005903, 0.24292417, 0.23754618, -0.09610020, -0.02299429, 100.05400848, 106.34145355, 32.00999832, 0.00000000
1, 0.8250, 99, -0.23087882, -1.04886961, 0.27383870, -6.67112684, 27.32275581, 29.87603760, -35.69131851, 2.54311609, -108.91551971, 101.20745850, -15.87625217, -38.39833450, -0.62873310, 0.69397640, -0.33447057, -0.10592932, -0.04265923, 0.10475621, -0.08891285, 100.07100677, 104.91204071, 32.27999878, 0.00000000
1, 0.8300, 100, -0.25187680, -1.03777707, 0.27096879, -6.98661089, 29.95902061, 30.22331238, -35.69131851, 2.54311609, -108.91551971, 101.13914490, -16.05343056, -38.27565765, -0.62951881, 0.69348353, -0.33452907, -0.10429310, -0.02458652, 0.09427880, -0.08730051, 100.07100677, 104.91204071, 32.27999878, 0.00000000
3, 0.6650, 67, 0.34323385, -0.95657706, 0.15170547, 5.97975540, 5.27625370, 61.33571243, -39.05290985, -21.25109673, -48.81613541, 96.36531067, -15.28732300, -71.08399200, 0.59533805, -0.54948002, 0.50154126, 0.30348113, -0.60564935, -0.00244185, -0.04484490, 100.11500549, 101.21302795, 32.30999756, 0.00000000
3, 0.6700, 68, 0.37248579, -0.94356543, 0.14634299, 5.72604132, 12.16585445, 50.51363373, -39.81291962, -21.42648315, -48.84536743, 96.38498688, -15.54508591, -71.05036926, 0.59613442, -0.54868287, 0.50251073, 0.30175120, -0.63945222, -0.01417035, -0.03924510, 100.11500549, 101.21302795, 32.30999756, 0.00000000
3, 0.6750, 69, 0.38990694, -0.92718118, 0.14071324, 5.61663961, 18.31817627, 40.24059677, -39.81291962, -21.42648315, -48.84536743, 96.39383698, -15.75523376, -70.97909546, 0.59693033, -0.54818678, 0.50307065, 0.30014223, -0.66060340, -0.02949792, -0.03353226, 100.11500549, 101.21302795, 32.30999756, 0.00000000
4, 0.6350, 63, -0.63456702, -0.82414991, 0.03821149, -5.23342800, 4.88817930, 58.42535782, -57.41011429, -38.67290115, -19.49722290, 90.02648926, -22.91987228, -62.83306122, 0.66452646, -0.51833725, 0.48118514, 0.24123017, 0.24629633, -0.09739438, -0.03764049, 100.05400848, 106.34145355, 32.00999832, 0.00000000
4, 0.6400, 64, -0.63718557, -0.81660640, 0.05166756, -5.10713243, 6.96977854, 57.69287491, -57.41011429, -38.67290115, -19.49722290, 89.99055481, -23.22820663, -62.79654312, 0.66541213, -0.51698613, 0.48233745, 0.23937982, 0.24410355, -0.10289586, -0.05168641, 100.05400848, 106.34145355, 32.00999832, 0.00000000
4, 0.6450, 65, -0.63482940, -0.80726683, 0.05886887, -4.98622799, 9.74218941, 56.90332794, -57.41011429, -38.67290115, -19.49722290, 89.94449615, -23.51269341, -62.74330139, 0.66632193, -0.51574385, 0.48328456, 0.23761214, 0.23701276, -0.11019704, -0.05957159, 100.05400848, 106.34145355, 32.00999832, 0.00000000
2, 0.7300, 80, -0.22104159, -0.92677486, -0.00734849, 13.80214214, -5.02341461, -3.43151665, -22.15726280, 12.65711784, -83.63051605, 80.53446198, -5.81850290, -41.41279602, 0.72442883, -0.59012944, 0.26446831, 0.23876067, 0.11961315, -0.05447368, -0.15655246, 100.02000427, 109.20150757, 0.00000000, 0.00000000
2, 0.7350, 81, -0.23910986, -1.01368427, -0.04972453, 14.59322071, -4.96067858, -2.41846871, -22.15726280, 12.65711784, -83.63051605, 80.61011505, -5.81064081, -41.43938065, 0.72397047, -0.59056681, 0.26471484, 0.23879638, 0.13784224, 0.03220988, -0.11291870, 100.02000427, 109.20150757, 0.00000000, 0.00000000
2, 0.7400, 82, -0.27546966, -0.99804103, 0.00346248, 16.11866760, -4.65015507, -1.88494623, -22.42034531, 12.42326832, -83.39666748, 80.69319916, -5.80512238, -41.46397781, 0.72348160, -0.59104908, 0.26498103, 0.23878947, 0.17429425, 0.01632720, -0.16471174, 100.02000427, 109.20150757, 0.00000000, 0.00000000
1, 0.8350, 101, -0.24017182, -1.02932703, 0.26611632, -5.39915800, 31.11445427, 30.54611015, -36.27594376, 2.57234716, -109.76322937, 101.07678986, -16.23312759, -38.14707184, -0.63027239, 0.69303262, -0.33457130, -0.10258961, -0.03928487, 0.08647627, -0.08364926, 100.07100677, 104.91204071, 32.27999878, 0.00000000
1, 0.8400, 102, -0.24481364, -1.05681956, 0.27226931, -5.32216692, 30.72218323, 30.95640564, -36.27594376, 2.57234716, -109.76322937, 101.01501465, -16.41433716, -38.02058029, -0.63101745, 0.69257349, -0.33463588, -0.10088516, -0.03769030, 0.11463352, -0.09102228, 100.07100677, 104.91204071, 32.27999878, 0.00000000
1, 0.8450, 103, -0.25940007, -1.04871476, 0.28972983, -6.34963989, 33.38941956, 31.20832253, -36.01286316, 2.33849740, -110.26015472, 100.94379425, -16.59917641, -37.88035583, -0.63183123, 0.69209141, -0.33462888, -0.09910788, -0.02621887, 0.10717035, -0.10981324, 100.07100677, 104.91204071, 32.27999878, 0.00000000
2, 0.7650, 83, -0.30829304, -1.09597623, -0.06102117, 10.72019958, 15.56668186, -0.67049795, -22.42034531, 12.59865570, -83.04589081, 80.99298096, -5.74460030, -41.28885651, 0.72219408, -0.59350252, 0.26432908, 0.23731959, 0.20813203, 0.11330523, -0.09494477, 100.02000427, 109.20150757, 0.00000000, 0.00000000
2, 0.7700, 84, -0.32781804, -1.10388756, -0.03858848, 10.54241085, 17.50497055, -0.43381453, -22.42034531, 12.59865570, -83.04589081, 81.03703308, -5.72879267, -41.20231247, 0.72211826, -0.59402072, 0.26387531, 0.23675825, 0.22792885, 0.12106963, -0.11662388, 100.02000427, 109.20150757, 0.00000000, 0.00000000
3, 0.6800, 70, 0.39763480, -0.90354711, 0.13244347, 4.86380196, 24.29953957, 30.18222237, -39.57907104, -20.92955208, -48.55305481, 96.38866425, -15.91873455, -70.87105560, 0.59774178, -0.54796833, 0.50322270, 0.29866770, -0.67126989, -0.05230898, -0.02538061, 100.11500549, 101.21302795, 32.30999756, 0.00000000
3, 0.6850, 71, 0.40465724, -0.87578779, 0.12696913, 4.22061586, 30.79177475, 20.37336159, -39.57907104, -20.92955208, -48.55305481, 96.36919403, -16.03707886, -70.72367859, 0.59858179, -0.54803157, 0.50296110, 0.29730710, -0.68046653, -0.07948066, -0.02023904, 100.11500549, 101.21302795, 32.30999756, 0.00000000
2, 0.7750, 85, -0.35201094, -1.09414864, 0.01004023, 9.90404415, 22.17709351, 0.15436791, -22.09880066, 12.74481106, -83.36743927, 81.09289551, -5.73617744, -41.09370041, 0.72206491, -0.59460354, 0.26347229, 0.23590526, 0.25219327, 0.11118938, -0.16440114, 100.02000427, 109.20150757, 0.00000000, 0.00000000
2, 0.7800, 86, -0.35050464, -1.12087560, -0.00779288, 8.48141003, 24.49862099, -0.16553368, -22.09880066, 12.74481106, -83.36743927, 81.12319183, -5.71642780, -40.97219086, 0.72212428, -0.59512448, 0.26278326, 0.23517716, 0.25081554, 0.13779418, -0.14587304, 100.02000427, 109.20150757, 0.00000000, 0.00000000
2, 0.7850, 87, -0.33608204, -1.10628343, 0.00160641, 7.70435238, 25.88142586, 0.05996972, -22.74188805, 12.74481106, -83.48435974, 81.14893341, -5.69678307, -40.84364700, 0.72222114, -0.59563172, 0.26204818, 0.23441468, 0.23673302, 0.12309757, -0.15482396, 100.02000427, 109.20150757, 0.00000000, 0.00000000
4, 0.6500, 66, -0.63336551, -0.79073006, 0.05652611, -4.36504698, 12.06908798, 55.99020386, -57.87781143, -38.93598175, -19.43876076, 89.89607239, -23.79255676, -62.67699432, 0.66725308, -0.51455981, 0.48414683, 0.23580402, 0.23105441, -0.12477089, -0.05799390, 100.05400848, 106.34145355, 32.00999832, 0.00000000
4, 0.6550, 67, -0.63344663, -0.78498161, 0.05044074, -3.06924891, 14.29131508, 55.23517609, -57.87781143, -38.93598175, -19.43876076, 89.84873199, -24.06857109, -62.59813309, 0.66819012, -0.51344901, 0.48493770, 0.23393911, 0.22671163, -0.12856109, -0.05266937, 100.05400848, 106.34145355, 32.00999832, 0.00000000
3, 0.7100, 72, 0.56751972, -0.77500778, 0.20269600, 5.38348150, 59.60498810, -24.49658966, -40.36831284, -20.54954720, -49.25460434, 96.13282013, -15.91977787, -69.42792511, 0.60269475, -0.55291367, 0.49563521, 0.29221779, -0.84222984, -0.18098803, -0.09970976, 100.11500549, 101.21302795, 32.30999756, 0.00000000
3, 0.7150, 73, 0.58036214, -0.76427478, 0.21330510, 6.06694841, 63.88093567, -32.84278870, -40.36831284, -20.54954720, -49.25460434, 96.06796265, -15.79043484, -69.07961273, 0.60350835, -0.55459511, 0.49323773, 0.29140779, -0.85314775, -0.19237983, -0.11132754, 100.11500549, 101.21302795, 32.30999756, 0.00000000
3, 0.7200, 74, 0.56247866, -0.79982138, 0.24998440, 7.74660683, 69.73880768, -43.03371811, -40.89447403, -20.34492874, -49.45922089, 96.00283051, -15.61311436, -68.69591522, 0.60427082, -0.55660832, 0.49045521, 0.29068494, -0.83244133, -0.15774119, -0.14902323, 100.11500549, 101.21302795, 32.30999756, 0.00000000
1, 0.8500, 104, -0.24224301, -1.04072738, 0.31327945, -5.41898251, 39.01564026, 32.24193573, -36.01286316, 2.33849740, -110.26015472, 100.86870575, -16.79417992, -37.71189499, -0.63270050, 0.69164145, -0.33450001, -0.09711838, -0.04664893, 0.09985167, -0.13471553, 100.07100677, 104.91204071, 32.27999878, 0.00000000
1, 0.8550, 105, -0.21018757, -1.06683755, 0.34564188, -4.73943329, 41.91838455, 33.45919418, -36.01286316, 2.33849740, -110.26015472, 100.79234314, -16.99764061, -37.52926636, -0.63359344, 0.69120139, -0.33432859, -0.09499730, -0.08215339, 0.12667242, -0.16847517, 100.07100677, 104.91204071, 32.27999878, 0.00000000
1, 0.8600, 106, -0.19940385, -1.09921992, 0.33986238, -7.35714817, 40.93426132, 34.34536362, -36.45132828, 1.90002918, -109.55860901, 100.70388794, -17.20433807, -37.35205841, -0.63455105, 0.69066805, -0.33419871, -0.09291873, -0.09636547, 0.15983707, -0.16430759, 100.07100677, 104.91204071, 32.27999878, 0.00000000
2, 0.7900, 88, -0.33503696, -1.14027309, 0.01397236, 7.14209318, 28.43961334, 0.68650788, -22.74188805, 12.74481106, -83.48435974, 81.17060089, -5.67832232, -40.70191193, 0.72236711, -0.59613937, 0.26124266, 0.23357204, 0.23601565, 0.15699351, -0.16679941, 100.02000427, 109.20150757, 0.00000000, 0.00000000
2, 0.7950, 89, -0.35488045, -1.17565501, 0.02819674, 5.91281652, 29.54078674, 1.35762250, -22.74188805, 12.74481106, -83.48435974, 81.18556976, -5.66237593, -40.55419159, 0.72256327, -0.59661084, 0.26040691, 0.23269325, 0.25614497, 0.19230378, -0.18074752, 100.02000427, 109.20150757, 0.00000000, 0.00000000
2, 0.8000, 90, -0.35230586, -1.18771291, 0.05560983, 3.92969012, 33.58895493, 1.65185750, -22.15726280, 12.36480522, -82.98742676, 81.18865967, -5.64481115, -40.38614655, 0.72285861, -0.59705633, 0.25943056, 0.23172185, 0.25386819, 0.20431396, -0.20804432, 100.02000427, 109.20150757, 0.00000000, 0.00000000
1, 0.8650, 107, -0.18984322, -1.11559951, 0.30585310, -9.42017365, 38.11752701, 34.86532593, -36.45132828, 1.90002918, -109.55860901, 100.60879517, -17.41076469, -37.18930817, -0.63552856, 0.69005477, -0.33415258, -0.09093989, -0.10928216, 0.17702967, -0.13205406, 100.07100677, 104.91204071, 32.27999878, 0.00000000
1, 0.8700, 108, -0.16200434, -1.15598965, 0.25764018, -8.71370029, 35.70671844, 35.42980576, -36.53902435, 2.63080978, -109.44168091, 100.52042389, -17.61750984, -37.03898621, -0.63644862, 0.68943977, -0.33419135, -0.08900715, -0.14044312, 0.21828848, -0.08550675, 100.07100677, 104.91204071, 32.27999878, 0.00000000
4, 0.6950, 68, -0.62209022, -0.71127641, 0.14078821, 7.99678993, 52.91011047, 38.04379654, -58.75474930, -37.91289139, -19.17568016, 89.40917206, -25.97465897, -61.14913559, 0.67668825, -0.50890881, 0.48618573, 0.21616735, 0.18481392, -0.18800651, -0.14967275, 100.05400848, 106.34145355, 32.00999832, 0.00000000
4, 0.7000, 69, -0.57605076, -0.69975781, 0.14238577, 7.15070534, 61.99461365, 32.81849670, -60.36246490, -37.56211472, -20.16954041, 89.29247284, -26.13522339, -60.80205154, 0.67815095, -0.50900602, 0.48514917, 0.21366906, 0.13616751, -0.19823414, -0.15299346, 100.05400848, 106.34145355, 32.00999832, 0.00000000
2, 0.8050, 91, -0.34639254, -1.22203147, 0.05755902, 1.30897903, 35.73361588, 1.49738312, -22.15726280, 12.36480522, -82.98742676, 81.17767334, -5.62482691, -40.20757675, 0.72324330, -0.59744126, 0.25835544, 0.23072860, 0.24829024, 0.23862112, -0.21013615, 100.02000427, 109.20150757, 0.00000000, 0.00000000
2, 0.8100, 92, -0.34059569, -1.22794771, 0.05737008, -0.99327648, 36.45970154, 1.14942920, -22.33265114, 12.68634892, -82.75357819, 81.15490723, -5.60251474, -40.02568817, 0.72369087, -0.59776318, 0.25722453, 0.22975278, 0.24286878, 0.24455297, -0.21028930, 100.02000427, 109.20150757, 0.00000000, 0.00000000
1, 0.8900, 109, -0.06265160, -1.31272662, 0.02683581, -15.40092564, 40.31744385, 42.70537186, -36.86056519, 0.49693072, -110.14323425, 100.10077667, -18.51361465, -36.42880249, -0.64054233, 0.68642825, -0.33461607, -0.08095647, -0.25392404, 0.37888980, 0.13776536, 100.07100677, 104.91204071, 32.27999878, 0.00000000
1, 0.8950, 110, -0.04911612, -1.26825750, 0.04340503, -15.66829872, 45.18355942, 44.50726700, -37.15287781, 3.42005253, -110.69862366, 99.96086884, -18.77198219, -36.23451996, -0.64182359, 0.68550116, -0.33462685, -0.07858494, -0.27171630, 0.33539027, 0.11880934, 100.07100677, 104.91204071, 32.27999878, 0.00000000
3, 0.7250, 75, 0.53451920, -0.89763516, 0.34048051, 9.78606033, 76.35030365, -53.14972687, -40.89447403, -20.34492874, -49.45922089, 95.93878937, -15.38851547, -68.27321625, 0.60498792, -0.55896753, 0.48727137, 0.29002020, -0.80086577, -0.06104048, -0.24048290, 100.11500549, 101.21302795, 32.30999756, 0.00000000
3, 0.7300, 76, 0.56537765, -0.91909295, 0.40054202, 11.43755054, 79.80873108, -60.78194427, -40.83601379, -20.34492874, -48.75767136, 95.87915039, -15.12729836, -67.82936096, 0.60563082, -0.56156611, 0.48382211, 0.28943229, -0.82748294, -0.04084483, -0.30145049, 100.11500549, 101.21302795, 32.30999756, 0.00000000
3, 0.7350, 77, 0.55330026, -0.89610749, 0.43702143, 10.82565403, 85.97238922, -71.36402130, -40.83601379, -20.25723457, -48.75767136, 95.80919647, -14.81610966, -67.34910583, 0.60627204, -0.56443769, 0.47993258, 0.28897953, -0.81039512, -0.06528301, -0.33889696, 100.11500549, 101.21302795, 32.30999756, 0.00000000
2, 0.8150, 93, -0.34781086, -1.23440194, 0.03373124, -1.78048003, 38.02126312, 0.68217450, -22.33265114, 12.68634892, -82.75357819, 81.12756348, -5.57661247, -39.83642197, 0.72416991, -0.59807956, 0.25602350, 0.22875921, 0.25051576, 0.25103551, -0.18710704, 100.02000427, 109.20150757, 0.00000000, 0.00000000
3, 0.7400, 78, 0.64150470, -0.87570614, 0.52656579, 14.25317764, 100.92073822, -86.53515625, -40.83601379, -20.25723457, -48.75767136, 95.73807526, -14.43636417, -66.78526306, 0.60693288, -0.56788975, 0.47530314, 0.28847998, -0.89249194, -0.08740462, -0.42950964, 100.11500549, 101.21302795, 32.30999756, 0.00000000
3, 0.7450, 79, 0.82416642, -0.92190415, 0.55542260, 23.38279724, 107.49703979, -102.95001221, -40.22215652, -21.39725113, -49.54691696, 95.71211243, -13.96510220, -66.18192291, 0.60720628, -0.57205737, 0.47015348, 0.28810877, -1.06763220, -0.04318351, -0.45885438, 100.11500549, 101.21302795, 32.30999756, 0.00000000
3, 0.7500, 80, 0.90497053, -1.05587530, 0.59492964, 31.85816383, 109.00853729, -119.27767944, -40.22215652, -21.39725113, -49.54691696, 95.72471619, -13.42596817, -65.56256866, 0.60713238, -0.57670367, 0.46467638, 0.28788739, -1.13952780, 0.08861543, -0.49805152, 100.11500549, 101.21302795, 32.30999756, 0.00000000
2, 0.8400, 94, -0.28701529, -1.21853018, -0.00343329, -6.98936176, 40.70575333, -2.60591984, -21.80648994, 13.27097321, -82.51972961, 80.91924286, -5.39739132, -38.84129333, 0.72693592, -0.59940028, 0.24931042, 0.22389250, 0.19275182, 0.23542199, -0.15345095, 100.02000427, 109.20150757, 0.00000000, 0.00000000
2, 0.8450, 95, -0.28908381, -1.23719716, -0.04413655, -8.16941547, 42.23443604, -3.38847923, -21.80648994, 13.27097321, -82.51972961, 80.85902405, -5.34722853, -38.63456345, 0.72757471, -0.59958953, 0.24780197, 0.22298390, 0.19567439, 0.25417203, -0.11377548, 100.02000427, 109.20150757, 0.00000000, 0.00000000
2, 0.8500, 96, -0.24829365, -1.25683606, -0.15662619, -10.72694492, 44.90253830, -3.98683167, -21.68956375, 13.30020428, -82.49050140, 80.78504944, -5.29173708, -38.41515732, 0.72830051, -0.59972769, 0.24616726, 0.22205122, 0.15582547, 0.27391994, -0.00251303, 100.02000427, 109.20150757, 0.00000000, 0.00000000
1, 0.9000, 111, -0.04175840, -1.23909712, 0.05944850, -14.41724968, 51.09336853, 46.91059875, -37.15287781, 3.42005253, -110.69862366, 99.81680298, -19.04675484, -36.01062393, -0.64315611, 0.68458861, -0.33454487, -0.07595044, -0.28358364, 0.30729744, 0.10023186, 100.07100677, 104.91204071, 32.27999878, 0.00000000
1, 0.9050, 112, -0.02556204, -1.26314700, 0.14912693, -13.46811962, 52.70100784, 49.95132065, -37.15287781, 3.42005253, -110.69862366, 99.67426300, -19.33733749, -35.77994156, -0.64448714, 0.68365711, -0.33450833, -0.07316782, -0.30473435, 0.33241749, 0.00795921, 100.07100677, 104.91204071, 32.27999878, 0.00000000
1, 0.9100, 113, 0.03766992, -1.28822541, 0.19738324, -16.54978561, 49.17619324, 52.04471588, -37.70827103, 3.65390229, -110.61093140, 99.52158356, -19.63479424, -35.56832504, -0.64585859, 0.68259013, -0.33462033, -0.07047517, -0.37296128, 0.35869819, -0.04289597, 100.07100677, 104.91204071, 32.27999878, 0.00000000
3, 0.7550, 81, 0.78217095, -1.28285408, 0.66066211, 32.89038467, 98.20145416, -130.35708618, -40.22215652, -21.39725113, -49.54691696, 95.75994110, -12.82656956, -64.99394989, 0.60664278, -0.58143586, 0.45919526, 0.28819549, -1.00676060, 0.31330740, -0.56303191, 100.11500549, 101.21302795, 32.30999756, 0.00000000
3, 0.7600, 82, 0.43225515, -1.57555163, 0.52873391, 25.74907112, 64.55059814, -127.46075439, -40.63139343, -20.72493362, -49.19614029, 95.80294037, -12.22501183, -64.59921265, 0.60566872, -0.58547062, 0.45456699, 0.28941047, -0.64653647, 0.60377061, -0.43015301, 100.11500549, 101.21302795, 32.30999756, 0.00000000
2, 0.8550, 97, -0.18738675, -1.27139831, -0.25778490, -9.83910179, 45.38594055, -3.55810928, -21.68956375, 13.30020428, -82.49050140, 80.71547699, -5.23770094, -38.19310379, 0.72900951, -0.59989172, 0.24453604, 0.22108188, 0.09586591, 0.28859359, 0.09741470, 100.02000427, 109.20150757, 0.00000000, 0.00000000
2, 0.8600, 98, -0.09353667, -1.27761650, -0.33324042, -7.14079332, 44.79475784, -2.64993119, -21.42648315, 13.03712368, -82.92897034, 80.65979767, -5.18838072, -37.97332001, 0.72964740, -0.60012376, 0.24297242, 0.22006945, 0.00289895, 0.29490086, 0.17182593, 100.02000427, 109.20150757, 0.00000000, 0.00000000
2, 0.8650, 99, -0.03065898, -1.27770317, -0.35387924, -3.13580251, 43.82544708, -1.81063247, -21.42648315, 13.03712368, -82.92897034, 80.62470245, -5.14381027, -37.75770187, 0.73017538, -0.60046285, 0.24149914, 0.21901238, -0.05918731, 0.29503062, 0.19176044, 100.02000427, 109.20150757, 0.00000000, 0.00000000
1, 0.9150, 114, 0.04297387, -1.29610717, 0.20377026, -20.31126595, 40.29561234, 55.00057220, -37.70827103, 3.65390229, -110.61093140, 99.36528015, -19.93912697, -35.40456772, -0.64721501, 0.68133974, -0.33505622, -0.06801697, -0.38324827, 0.36790150, -0.05210991, 100.07100677, 104.91204071, 32.27999878, 0.00000000
1, 0.9200, 115, -0.03941980, -1.31816590, 0.22225420, -22.25184250, 33.92355347, 58.58892441, -38.05904770, 3.53697753, -110.84477997, 99.21063232, -20.25568199, -35.27616119, -0.64854026, 0.67995661, -0.33577004, -0.06567388, -0.30603802, 0.39136505, -0.07364666, 100.07100677, 104.91204071, 32.27999878, 0.00000000
1, 0.9250, 116, -0.10127259, -1.35550010, 0.22821870, -23.76947212, 30.63881302, 61.40423584, -38.05904770, 3.53697753, -110.84477997, 99.05430603, -20.57663727, -35.16633224, -0.64985669, 0.67849219, -0.33662069, -0.06341309, -0.24946585, 0.43021089, -0.08264591, 100.07100677, 104.91204071, 32.27999878, 0.00000000
3, 0.7850, 83, -1.07310772, -1.31712699, -1.08161390, -16.29397774, 60.05629349, -110.07234955, -38.64366913, -21.92341423, -49.42998886, 95.20436096, -9.72122860, -64.51335144, 0.60155624, -0.59176964, 0.44103441, 0.30565906, 0.90198481, 0.33599174, 1.17153049, 100.11500549, 101.21302795, 32.30999756, 0.00000000
3, 0.7900, 84, -0.62449998, -0.79390574, -0.43593472, 11.14043236, 114.10305023, -121.02171326, -38.64366913, -21.92341423, -49.42998886, 95.15657043, -9.17000675, -63.88205719, 0.60183322, -0.59589767, 0.43505189, 0.30566743, 0.46273267, -0.18891987, 0.52469862, 100.11500549, 101.21302795, 32.30999756, 0.00000000
2, 0.8700, 100, 0.04276166, -1.29087639, -0.30325297, -0.01241605, 41.50404739, -1.10007060, -21.42648315, 13.03712368, -82.92897034, 80.60636139, -5.10454512, -37.55303955, 0.73060137, -0.60086972, 0.24014749, 0.21795979, -0.13189770, 0.30820152, 0.14075750, 100.02000427, 109.20150757, 0.00000000, 0.00000000
2, 0.8750, 101, 0.07330890, -1.29939854, -0.21006772, 0.60983062, 38.82817078, 0.01036649, -21.63110161, 13.03712368, -82.84127045, 80.59319305, -5.06565237, -37.36094284, 0.73097545, -0.60127956, 0.23887312, 0.21697365, -0.16179711, 0.31670782, 0.04731447, 100.02000427, 109.20150757, 0.00000000, 0.00000000
2, 0.8800, 102, 0.04301493, -1.31628907, -0.13133550, 0.73378116, 35.87668228, 0.80136770, -21.63110161, 13.03712368, -82.84127045, 80.58116150, -5.04026365, -37.18262482, 0.73133677, -0.60163349, 0.23775648, 0.21599890, -0.13097638, 0.33358675, -0.03163348, 100.02000427, 109.20150757, 0.00000000, 0.00000000
1, 0.9300, 117, -0.09327696, -1.37021041, 0.18993467, -26.06439209, 29.60438347, 63.05624008, -38.05904770, 3.53697753, -110.84477997, 98.88782501, -20.91128731, -35.06201553, -0.65123111, 0.67690992, -0.33757201, -0.06112541, -0.26275200, 0.44657147, -0.04732390, 100.07100677, 104.91204071, 32.27999878, 0.00000000
1, 0.9350, 118, -0.12853295, -1.33655035, 0.19989017, -27.37101746, 32.10066223, 64.53446960, -38.43905258, 3.56620860, -111.13709259, 98.70946503, -21.25486374, -34.94438171, -0.65267754, 0.67526805, -0.33848891, -0.05874047, -0.23307875, 0.41456330, -0.06046739, 100.07100677, 104.91204071, 32.27999878, 0.00000000
4, 0.7050, 70, -0.53496516, -0.69146210, 0.13472518, 5.67841434, 69.37129211, 28.62243652, -60.36246490, -37.56211472, -20.16954041, 89.14919281, -26.27361488, -60.41333771, 0.67975658, -0.50921202, 0.48378253, 0.21116009, 0.09282619, -0.20539370, -0.14745694, 100.05400848, 106.34145355, 32.00999832, 0.00000000
4, 0.7100, 71, -0.48648262, -0.68650413, 0.12660049, 4.14257145, 75.85562134, 24.13224983, -60.36246490, -37.56211472, -20.16954041, 88.98124695, -26.38807869, -59.98801422, 0.68148404, -0.50952119, 0.48210409, 0.20867027, 0.04245663, -0.20937958, -0.14185560, 100.05400848, 106.34145355, 32.00999832, 0.00000000
4, 0.7150, 72, -0.43868244, -0.68109900, 0.11695606, 3.57231760, 81.37930298, 19.42929268, -60.01169205, -38.70213318, -20.25723457, 88.79592133, -26.47731209, -59.53160095, 0.68328893, -0.50995618, 0.48014554, 0.20620686, -0.00683872, -0.21398973, -0.13502692, 100.05400848, 106.34145355, 32.00999832, 0.00000000
1, 0.9750, 119, 0.07681254, -1.36731088, 0.24155143, -37.89611435, 17.95710373, 81.26153564, -40.04676819, 4.56007004, -111.57556152, 97.10368347, -24.33279610, -33.97650528, -0.66499454, 0.65998709, -0.34750068, -0.03798273, -0.48787108, 0.46213308, -0.13003221, 100.07100677, 104.91204071, 32.27999878, 0.00000000
1, 0.9800, 120, 0.04935279, -1.36633849, 0.20029309, -35.94372940, 21.68581390, 83.35858154, -40.04676819, 4.56007004, -111.57556152, 96.89875793, -24.76003647, -33.91332626, -0.66648728, 0.65771616, -0.34920734, -0.03547561, -0.46696675, 0.46383339, -0.09243250, 100.07100677, 104.91204071, 32.27999878, 0.00000000
