SensorId, TimeStamp (s), FrameNumber, AccX (g), AccY (g), AccZ (g), GyroX (deg/s), GyroY (deg/s), GyroZ (deg/s), MagX (uT), MagY (uT), MagZ (uT), EulerX (deg), EulerY (deg), EulerZ (deg), QuatW, QuatX, QuatY, QuatZ, LinAccX (g), LinAccY (g), LinAccZ (g), Pressure (kPa), Altitude (m), Temperature (degC), HeaveMotion (m)
1, 0.0002, 0, 0.34533691, -0.86376953, 0.15893555, 12.73016167, 6.87804890, 13.99016190, -19.70184135, 6.78164291, -52.99620056, 100.58186340, 33.22192001, -146.50337219, -0.03416668, -0.38732886, 0.65329063, 0.64963090, 0.20283118, 0.04157513, -0.00561251, 100.29300690, 86.26172638, 29.31999969, 0.00000000
1, -0.0001, 0, -0.24909927, -0.93728399, 0.19270396, -13.63287258, -13.43079853, -131.64155579, -27.15580177, 5.55393171, -60.01169205, 100.12307739, -3.88627315, -7.90303946, -0.64186192, 0.76297164, -0.07452282, -0.01827753, 0.17797607, -0.04494707, -0.01922614, 100.41700745, 75.85894775, 30.21999931, 0.00000000
3, -0.0002, 0, 0.15559338, -0.93016565, 0.24285237, 1.69565809, -1.60370553, -18.76491356, -17.48026848, -31.56971550, -92.13680267, 106.86885834, 11.52546597, -10.88413239, 0.58241177, -0.80118752, 0.01623917, 0.13649686, 0.04381471, -0.00760102, 0.04145373, 100.40600586, 76.78147888, 32.75000000, 0.00000000
3, 0.0048, 1, 0.14671524, -0.92396909, 0.25807935, 1.55100405, -0.86492741, -19.38384056, -17.59719276, -31.59894753, -92.16603088, 106.88153076, 11.61946678, -10.85964012, 0.58224136, -0.80123526, 0.01559276, 0.13701856, 0.05429148, -0.01342446, 0.02633132, 100.40600586, 76.78147888, 32.75000000, 0.00000000
2, 0.0002, 0, 0.13209221, -0.98634523, -0.11644707, -4.71784544, -0.82416981, -3.28919625, -67.67027283, 12.13095570, -82.34434509, 77.52713776, 5.71474504, -19.16578102, 0.76270407, -0.62307447, 0.06577392, 0.16042054, -0.03258243, 0.01476986, -0.09835281, 100.34700775, 81.73015594, 0.00000000, 0.00000000
2, 0.0052, 1, 0.13218255, -0.98085010, -0.12002114, -5.10678387, -0.85926676, -3.32636452, -67.67027283, 12.13095570, -82.34434509, 77.50081635, 5.73005438, -19.17361069, 0.76281708, -0.62290794, 0.06567632, 0.16056924, -0.03240545, 0.00939751, -0.09521024, 100.34700775, 81.73015594, 0.00000000, 0.00000000
2, 0.0102, 2, 0.14163490, -0.97367150, -0.11744367, -5.91675425, -1.06977510, -3.19433689, -67.20256805, 11.57556248, -82.22741699, 77.47035980, 5.74448729, -19.18233681, 0.76295251, -0.62271267, 0.06558365, 0.16072160, -0.04160397, 0.00235346, -0.09827611, 100.34700775, 81.73015594, 0.00000000, 0.00000000
1, 0.0052, 1, 0.34710693, -0.87805176, 0.14904785, 11.75016117, 6.24804926, 15.56516266, -19.70184135, 6.78164291, -52.99620056, 100.65132141, 33.13966751, -146.48381042, -0.03374595, -0.38704461, 0.65389585, 0.64921337, 0.19988155, 0.05528958, 0.00543760, 100.29300690, 86.26172638, 29.31999969, 0.00000000
1, 0.0102, 2, 0.34716797, -0.88861084, 0.14581299, 10.77015972, 5.79304934, 16.93016243, -19.40952873, 6.66471767, -52.32388306, 100.71348572, 33.05111694, -146.46858215, -0.03328297, -0.38670960, 0.65449512, 0.64883292, 0.19854674, 0.06520621, 0.00975024, 100.29300690, 86.26172638, 29.31999969, 0.00000000
1, 0.0152, 3, 0.34783936, -0.89739990, 0.15069580, 9.26515961, 5.44304895, 18.08516121, -19.40952873, 6.66471767, -52.32388306, 100.76623535, 32.95719910, -146.45678711, -0.03277185, -0.38633358, 0.65507025, 0.64850247, 0.19652036, 0.07327975, 0.00582343, 100.29300690, 86.26172638, 29.31999969, 0.00000000
2, 0.0152, 3, 0.14208214, -0.96876979, -0.11321267, -7.15105677, -1.28079844, -3.09913158, -67.20256805, 11.57556248, -82.22741699, 77.43363190, 5.75822258, -19.19200516, 0.76312137, -0.62247443, 0.06549193, 0.16088003, -0.04180922, -0.00239432, -0.10308748, 100.34700775, 81.73015594, 0.00000000, 0.00000000
2, 0.0202, 4, 0.14226468, -0.96098936, -0.11152450, -8.31269073, -1.52744222, -2.86503196, -67.75796509, 12.68634892, -82.54895782, 77.39099884, 5.77053833, -19.20263481, 0.76332259, -0.62219507, 0.06540661, 0.16104065, -0.04177167, -0.00999349, -0.10548590, 100.34700775, 81.73015594, 0.00000000, 0.00000000
1, 0.0949, 1, -0.09417687, -0.93534327, 0.08495376, -6.21609259, -17.76997185, -104.74407196, -19.23414230, 8.76936531, -60.91785812, 98.98328400, 7.58469629, -7.47742987, -0.64347839, 0.75983304, -0.00659791, -0.09244320, 0.22366726, -0.04416224, 0.06824812, 100.41700745, 75.85894775, 30.21999931, 0.00000000
1, 0.0999, 2, -0.08084061, -0.91599762, 0.08262005, -5.48879671, -18.55217552, -102.35336304, -19.23414230, 8.76936531, -60.91785812, 98.95281982, 8.10457897, -7.49025965, -0.64324409, 0.75961798, -0.00370830, -0.09593704, 0.21937825, -0.06237930, 0.06991838, 100.41700745, 75.85894775, 30.21999931, 0.00000000
3, 0.0098, 2, 0.13651396, -0.92907304, 0.27240735, 1.80070841, -0.58542931, -19.66287613, -17.59719276, -31.59894753, -92.16603088, 106.89584351, 11.71439266, -10.83333588, 0.58206028, -0.80129057, 0.01493096, 0.13753730, 0.06611101, -0.00793019, 0.01214124, 100.40600586, 76.78147888, 32.75000000, 0.00000000
3, 0.0148, 3, 0.14166252, -0.92960268, 0.26461911, 1.65722609, 0.21779533, -20.07132721, -17.59719276, -31.59894753, -92.16603088, 106.90473175, 11.79769897, -10.80309010, 0.58193552, -0.80132055, 0.01429575, 0.13795671, 0.06249055, -0.00704149, 0.02001949, 100.40600586, 76.78147888, 32.75000000, 0.00000000
3, 0.0198, 4, 0.15357476, -0.92945725, 0.25408781, 1.83656847, 0.97983897, -20.30896568, -17.53873062, -31.94972229, -92.01987457, 106.92108917, 11.89342785, -10.76811695, 0.58174944, -0.80138546, 0.01357184, 0.13843694, 0.05210895, -0.00681472, 0.03067355, 100.40600586, 76.78147888, 32.75000000, 0.00000000
2, 0.0252, 5, 0.14153935, -0.96504384, -0.11152009, -8.70091915, -1.66675901, -2.86898327, -67.75796509, 12.68634892, -82.54895782, 77.38172913, 5.79777765, -19.21365166, 0.76332343, -0.62215048, 0.06526944, 0.16126409, -0.04070353, -0.00580496, -0.10593034, 100.34700775, 81.73015594, 0.00000000, 0.00000000
1, 0.0202, 4, 0.35186768, -0.90020752, 0.15032959, 7.51515913, 5.51304865, 18.99516296, -20.49108505, 7.07395506, -52.64542389, 100.80983734, 32.85874176, -146.44570923, -0.03220346, -0.38593575, 0.65561068, 0.64822161, 0.19106641, 0.07530518, 0.00701874, 100.29300690, 86.26172638, 29.31999969, 0.00000000
1, 0.0252, 5, 0.35607910, -0.90209961, 0.15179443, 6.15015841, 5.89804888, 19.87016487, -20.49108505, 7.07395506, -52.64542389, 100.84722137, 32.75562286, -146.43345642, -0.03157629, -0.38552529, 0.65612727, 0.64797401, 0.18536049, 0.07635708, 0.00629483, 100.29300690, 86.26172638, 29.31999969, 0.00000000
3, 0.0248, 5, 0.17272581, -0.93007857, 0.25170302, 2.19529104, 1.87738740, -20.51198769, -17.53873062, -31.94972229, -92.01987457, 106.94028473, 11.98880768, -10.72840881, 0.58154964, -0.80146432, 0.01282019, 0.13889059, 0.03458915, -0.00577131, 0.03326237, 100.40600586, 76.78147888, 32.75000000, 0.00000000
3, 0.0298, 6, 0.19066076, -0.93138212, 0.26337874, 2.23237872, 2.56729412, -20.53921509, -16.89564514, -31.62817764, -91.81525421, 106.96043396, 12.08330059, -10.68524265, 0.58134842, -0.80154771, 0.01205031, 0.13932070, 0.01826861, -0.00404057, 0.02181010, 100.40600586, 76.78147888, 32.75000000, 0.00000000
3, 0.0348, 7, 0.20834877, -0.93082237, 0.27320486, 2.15796709, 1.64089835, -20.72410393, -16.89564514, -31.62817764, -91.81525421, 106.97940826, 12.18001461, -10.64628315, 0.58114761, -0.80162287, 0.01129699, 0.13978781, 0.00221699, -0.00416821, 0.01219749, 100.40600586, 76.78147888, 32.75000000, 0.00000000
1, 0.1049, 3, -0.07436231, -0.89929366, 0.08584528, -3.91741419, -18.49636841, -99.74313354, -18.24028015, 7.89242887, -60.68400955, 98.92758179, 8.60232067, -7.50615406, -0.64297748, 0.75942010, -0.00096726, -0.09929893, 0.22162630, -0.07791167, 0.06609194, 100.41700745, 75.85894775, 30.21999931, 0.00000000
1, 0.1099, 4, -0.07343664, -0.89449728, 0.08891378, -2.45438933, -18.20786095, -96.70534515, -18.24028015, 7.89242887, -60.68400955, 98.91165161, 9.09405231, -7.52212477, -0.64264119, 0.75926203, 0.00173230, -0.10261875, 0.22916573, -0.08147819, 0.06251521, 100.41700745, 75.85894775, 30.21999931, 0.00000000
1, 0.1149, 5, -0.07702830, -0.89677918, 0.07150703, -1.12596786, -18.42212486, -93.08192444, -18.24028015, 7.89242887, -60.68400955, 98.90163422, 9.56807041, -7.54210854, -0.64226538, 0.75912732, 0.00430018, -0.10584226, 0.24104622, -0.07787762, 0.07950567, 100.41700745, 75.85894775, 30.21999931, 0.00000000
3, 0.0398, 8, 0.22024988, -0.93032604, 0.28541613, 2.44007373, -0.22258699, -20.78405571, -16.89564514, -31.62817764, -91.81525421, 106.99796295, 12.27972507, -10.61630344, 0.58093518, -0.80169338, 0.01059053, 0.14032137, -0.00799336, -0.00422141, 0.00018512, 100.40600586, 76.78147888, 32.75000000, 0.00000000
3, 0.0448, 9, 0.21770078, -0.93121952, 0.28898889, 2.86587882, -1.74189281, -20.87645721, -17.07103157, -31.80356598, -91.84449005, 107.01713562, 12.38208961, -10.59357643, 0.58070606, -0.80176461, 0.00992196, 0.14091010, -0.00370635, -0.00287050, -0.00318830, 100.40600586, 76.78147888, 32.75000000, 0.00000000
1, 0.1199, 6, -0.07944278, -0.90506589, 0.07621058, 0.30705351, -18.33550072, -88.89184570, -16.92487526, 8.15550995, -60.80093384, 98.89815521, 10.02132034, -7.56500149, -0.64185059, 0.75902164, 0.00672516, -0.10894383, 0.25134015, -0.06828292, 0.07448518, 100.41700745, 75.85894775, 30.21999931, 0.00000000
1, 0.1249, 7, -0.06943708, -0.91545570, 0.10245719, 1.58300912, -19.48567200, -82.55600739, -16.92487526, 8.15550995, -60.80093384, 98.89907074, 10.44416332, -7.59862375, -0.64141411, 0.75893760, 0.00890228, -0.11190453, 0.24864060, -0.05663509, 0.04804857, 100.41700745, 75.85894775, 30.21999931, 0.00000000
1, 0.1299, 8, -0.05550514, -0.92520154, 0.15840848, 4.02244473, -25.58139420, -75.82706451, -17.12949371, 8.62320995, -60.85939789, 98.90538025, 10.83845997, -7.66816235, -0.64092320, 0.75888520, 0.01067397, -0.11487786, 0.24148574, -0.04569697, -0.00799993, 100.41700745, 75.85894775, 30.21999931, 0.00000000
2, 0.1652, 6, 0.14831713, -0.95138294, -0.15280929, -14.72783566, -13.62987614, 1.06090558, -67.81642914, 11.51710033, -83.54282379, 75.26327515, 5.57409716, -20.36912537, 0.77330267, -0.60705978, 0.06993403, 0.16908820, -0.05108418, -0.01122767, -0.10002710, 100.34700775, 81.73015594, 0.00000000, 0.00000000
2, 0.1702, 7, 0.15040579, -0.95491296, -0.15105626, -14.61580753, -14.18680477, 1.40082276, -67.17333984, 11.92633724, -83.74744415, 75.18369293, 5.54923391, -20.43624306, 0.77365655, -0.60645747, 0.07034197, 0.16946125, -0.05358903, -0.00738382, -0.10313185, 100.34700775, 81.73015594, 0.00000000, 0.00000000
2, 0.1752, 8, 0.15417777, -0.95356619, -0.15173042, -14.25086594, -14.88490105, 2.12231016, -67.17333984, 11.92633724, -83.74744415, 75.12096405, 5.52915716, -20.50603867, 0.77391058, -0.60597128, 0.07075572, 0.16986734, -0.05777439, -0.00845501, -0.10365498, 100.34700775, 81.73015594, 0.00000000, 0.00000000
1, 0.0452, 6, 0.40161133, -0.87677002, 0.13360596, 3.66515756, 8.38304901, 22.88016510, -20.34492874, 6.89856768, -52.87927628, 100.97499847, 32.29812241, -146.35231018, -0.02851153, -0.38387048, 0.65810764, 0.64708966, 0.13315974, 0.04720641, 0.02715459, 100.29300690, 86.26172638, 29.31999969, 0.00000000
1, 0.0502, 7, 0.41400146, -0.86737061, 0.13226318, 4.26015806, 8.17304897, 23.23016357, -20.34492874, 6.89856768, -52.87927628, 101.00762939, 32.17630386, -146.33105469, -0.02769228, -0.38342860, 0.65862679, 0.64685887, 0.11897618, 0.03678539, 0.02917653, 100.29300690, 86.26172638, 29.31999969, 0.00000000
1, 0.0552, 8, 0.42779541, -0.87347412, 0.13488770, 4.40015793, 7.40304899, 23.51016426, -20.34492874, 6.89856768, -52.87927628, 101.03833008, 32.05384445, -146.31469727, -0.02688957, -0.38295636, 0.65915287, 0.64663655, 0.10337527, 0.04186324, 0.02722589, 100.29300690, 86.26172638, 29.31999969, 0.00000000
3, 0.1048, 10, 0.24381515, -0.93536001, 0.27748919, 1.66355538, -7.34356356, -22.85203743, -16.07716942, -32.06664658, -91.87371826, 107.18083191, 13.72404957, -10.48974609, 0.57804489, -0.80216676, 0.00242110, 0.14962284, -0.00708079, 0.00712934, 0.00946813, 100.40600586, 76.78147888, 32.75000000, 0.00000000
3, 0.1098, 11, 0.23660597, -0.92411548, 0.26835406, 1.69468379, -8.47178555, -23.32008171, -15.98947620, -31.94972229, -91.69833374, 107.18782043, 13.84796047, -10.49594688, 0.57783210, -0.80215609, 0.00182961, 0.15050727, 0.00221155, -0.00359139, 0.01857075, 100.40600586, 76.78147888, 32.75000000, 0.00000000
2, 0.1802, 9, 0.15522110, -0.95424348, -0.15076393, -13.71061611, -15.89339447, 2.70093417, -67.64103699, 10.96170712, -83.65974426, 75.04532623, 5.49564934, -20.57968903, 0.77424371, -0.60538185, 0.07126217, 0.17023860, -0.05930040, -0.00751600, -0.10578595, 100.34700775, 81.73015594, 0.00000000, 0.00000000
1, 0.1349, 9, -0.04751826, -0.94011223, 0.18226385, 4.51663780, -26.99532318, -70.39892578, -17.12949371, 8.62320995, -60.85939789, 98.91163635, 11.20703506, -7.74908638, -0.64043576, 0.75883389, 0.01222397, -0.11774474, 0.23986495, -0.02958291, -0.03194397, 100.41700745, 75.85894775, 30.21999931, 0.00000000
1, 0.1399, 10, -0.04212777, -0.95515013, 0.19786379, 4.26544476, -25.68881416, -65.38716888, -17.12949371, 8.62320995, -60.85939789, 98.91669464, 11.54985332, -7.82741308, -0.63997489, 0.75877756, 0.01364593, -0.12042682, 0.24041450, -0.01337712, -0.04764831, 100.41700745, 75.85894775, 30.21999931, 0.00000000
3, 0.1148, 12, 0.22207627, -0.91586858, 0.26198834, 1.83281469, -9.84306622, -23.75718880, -15.98947620, -31.94972229, -91.69833374, 107.19084930, 13.97297382, -10.50874996, 0.57763624, -0.80212414, 0.00127349, 0.15143253, 0.01886888, -0.01131219, 0.02485804, 100.40600586, 76.78147888, 32.75000000, 0.00000000
3, 0.1198, 13, 0.19877554, -0.91546899, 0.27729970, 2.33275390, -9.59958935, -24.07430649, -15.28792763, -31.33586693, -91.96141052, 107.19992828, 14.10215282, -10.51933479, 0.57739466, -0.80212021, 0.00068827, 0.15237504, 0.04432720, -0.01116300, 0.00949954, 100.40600586, 76.78147888, 32.75000000, 0.00000000
3, 0.1248, 14, 0.18132922, -0.91613764, 0.29233009, 2.11765957, -8.65631008, -24.55024338, -15.28792763, -31.33586693, -91.96141052, 107.20923615, 14.23221397, -10.52453327, 0.57715678, -0.80211622, 0.00006119, 0.15329637, 0.06397180, -0.00991914, -0.00554448, 100.40600586, 76.78147888, 32.75000000, 0.00000000
1, 0.1849, 11, 0.03362164, -0.93274772, 0.10122820, -0.17404856, -4.99814081, -23.16044044, -14.82022762, 9.32475853, -60.88862991, 98.85174561, 13.55367756, -8.19758129, -0.63782871, 0.75781482, 0.02264462, -0.13556698, 0.20000571, -0.02810379, 0.04694054, 100.41700745, 75.85894775, 30.21999931, 0.00000000
1, 0.1899, 12, 0.04801038, -0.92931569, 0.08660889, 0.91756463, -2.88733768, -17.79609299, -14.82022762, 9.32475853, -60.88862991, 98.85593414, 13.64383030, -8.19831848, -0.63769728, 0.75780410, 0.02314664, -0.13615946, 0.18730521, -0.03111162, 0.06157962, 100.41700745, 75.85894775, 30.21999931, 0.00000000
3, 0.1298, 15, 0.17277151, -0.92031527, 0.29247862, 1.93566859, -8.88473511, -25.07529640, -15.28792763, -31.33586693, -91.96141052, 107.21755981, 14.36511898, -10.53003311, 0.57692087, -0.80210501, -0.00057973, 0.15423867, 0.07476281, -0.00515685, -0.00572471, 100.40600586, 76.78147888, 32.75000000, 0.00000000
3, 0.1348, 16, 0.17088996, -0.92775053, 0.29970604, 1.79210806, -8.35955334, -25.38216019, -15.75562668, -31.45279121, -91.43524933, 107.22590637, 14.49871540, -10.53245735, 0.57668716, -0.80209267, -0.00124557, 0.15517011, 0.07890262, 0.00287437, -0.01298766, 100.40600586, 76.78147888, 32.75000000, 0.00000000
3, 0.1398, 17, 0.17599620, -0.93735635, 0.30196255, 1.00488126, -7.30834818, -25.81570244, -15.75562668, -31.45279121, -91.43524933, 107.23180389, 14.63282776, -10.52901649, 0.57647723, -0.80206656, -0.00195836, 0.15607545, 0.07606069, 0.01307351, -0.01531261, 100.40600586, 76.78147888, 32.75000000, 0.00000000
1, 0.0602, 9, 0.44464111, -0.86370850, 0.13690186, 4.15515757, 6.80804920, 23.75516319, -20.57877731, 6.60625553, -52.73311996, 101.06575012, 31.93074608, -146.30215454, -0.02609293, -0.38246009, 0.65967470, 0.64643085, 0.08471081, 0.03106118, 0.02583933, 100.29300690, 86.26172638, 29.31999969, 0.00000000
1, 0.0652, 10, 0.46252441, -0.86303711, 0.13983154, 3.77015805, 6.00304937, 24.00016403, -20.57877731, 6.60625553, -52.73311996, 101.08859253, 31.80721474, -146.29461670, -0.02530611, -0.38193411, 0.66018802, 0.64624906, 0.06499816, 0.02934087, 0.02347866, 100.29300690, 86.26172638, 29.31999969, 0.00000000
1, 0.0702, 11, 0.46960449, -0.85675049, 0.14788818, 3.45515776, 4.63804817, 24.59516525, -20.43262100, 6.95702982, -52.87927628, 101.10529327, 31.68206596, -146.29570007, -0.02453653, -0.38135225, 0.66070002, 0.64609897, 0.05606911, 0.02198207, 0.01590662, 100.29300690, 86.26172638, 29.31999969, 0.00000000
1, 0.0752, 12, 0.47094727, -0.84912109, 0.15344238, 2.89515758, 3.44804788, 24.87516403, -20.43262100, 6.95702982, -52.87927628, 101.11542511, 31.55669975, -146.30397034, -0.02378402, -0.38072899, 0.66119885, 0.64598435, 0.05286068, 0.01325718, 0.01074245, 100.29300690, 86.26172638, 29.31999969, 0.00000000
3, 0.1448, 18, 0.19161841, -0.93724549, 0.31403273, 0.61123317, -6.67819691, -26.08367538, -15.46331501, -31.13124847, -92.13680267, 107.23662567, 14.76728249, -10.52203941, 0.57627839, -0.80203366, -0.00269906, 0.15696520, 0.06270957, 0.01355615, -0.02747548, 100.40600586, 76.78147888, 32.75000000, 0.00000000
3, 0.1498, 19, 0.21194801, -0.93823838, 0.31582135, 0.21682496, -7.61064243, -25.84572792, -15.46331501, -31.13124847, -92.13680267, 107.23822021, 14.90198040, -10.52002239, 0.57609433, -0.80198336, -0.00341069, 0.15788132, 0.04464830, 0.01513395, -0.02940175, 100.40600586, 76.78147888, 32.75000000, 0.00000000
2, 0.1852, 10, 0.15515539, -0.95803267, -0.15233421, -13.27295113, -17.11162567, 3.48454690, -67.64103699, 10.96170712, -83.65974426, 74.97148132, 5.45668888, -20.65819168, 0.77456665, -0.60479534, 0.07183368, 0.17061409, -0.05988766, -0.00345471, -0.10547601, 100.34700775, 81.73015594, 0.00000000, 0.00000000
2, 0.1902, 11, 0.15861176, -0.96505547, -0.14725354, -13.01428509, -18.12119675, 4.13133526, -67.64103699, 10.96170712, -83.65974426, 74.89861298, 5.41319132, -20.74068260, 0.77488363, -0.60420740, 0.07245823, 0.17099336, -0.06408022, 0.00383180, -0.11180764, 100.34700775, 81.73015594, 0.00000000, 0.00000000
2, 0.1952, 12, 0.15048218, -0.96001154, -0.14984256, -12.29564953, -18.81891251, 4.88930273, -67.11487579, 9.99707699, -83.16281891, 74.82917023, 5.36502314, -20.82550240, 0.77518439, -0.60363555, 0.07313164, 0.17136295, -0.05676806, -0.00096795, -0.11041887, 100.34700775, 81.73015594, 0.00000000, 0.00000000
3, 0.1748, 20, 0.24390996, -0.96660578, 0.29306895, 0.12429084, -15.31270409, -26.84431648, -15.40485191, -31.24817276, -91.61064148, 107.21976471, 15.61686611, -10.62510300, 0.57512832, -0.80156910, -0.00641518, 0.16331975, 0.02465600, 0.04653342, -0.00786957, 100.40600586, 76.78147888, 32.75000000, 0.00000000
3, 0.1798, 21, 0.21770583, -0.97041196, 0.30402058, -0.77351260, -16.09065056, -27.15840340, -15.40485191, -31.24817276, -91.61064148, 107.20558929, 15.77038097, -10.66318989, 0.57496583, -0.80142665, -0.00696677, 0.16456367, 0.05342805, 0.05096371, -0.01923879, 100.40600586, 76.78147888, 32.75000000, 0.00000000
1, 0.0802, 13, 0.47161865, -0.83648682, 0.17138672, 2.47515726, 0.75304705, 25.92516518, -20.43262100, 6.95702982, -52.87927628, 101.11476135, 31.42877769, -146.32896423, -0.02307267, -0.37999946, 0.66169971, 0.64592695, 0.05029730, -0.00050864, -0.00694179, 100.29300690, 86.26172638, 29.31999969, 0.00000000
1, 0.1302, 14, 0.50061035, -0.84033203, 0.21899414, 5.34515858, -15.41695786, 29.25016594, -20.98801422, 6.31394339, -52.85004425, 100.79103851, 30.13606834, -147.10856628, -0.01782841, -0.36956817, 0.66661811, 0.64708716, 0.00193280, -0.00890842, -0.05700445, 100.29300690, 86.26172638, 29.31999969, 0.00000000
1, 0.1352, 15, 0.49993896, -0.85772705, 0.22827148, 6.43015862, -16.67695999, 29.46016693, -20.52031517, 4.79392004, -52.61619186, 100.75982666, 30.00695419, -147.23504639, -0.01758537, -0.36823502, 0.66726106, 0.64719123, 0.00065330, 0.00728578, -0.06654115, 100.29300690, 86.26172638, 29.31999969, 0.00000000
1, 0.1949, 13, 0.06416835, -0.92896330, 0.07684319, 2.72388959, -1.01803315, -12.27133942, -14.73253441, 9.38322163, -60.80093384, 98.87046814, 13.70527744, -8.19386101, -0.63753623, 0.75786048, 0.02350768, -0.13653807, 0.17233527, -0.03113783, 0.07154000, 100.41700745, 75.85894775, 30.21999931, 0.00000000
1, 0.1999, 14, 0.07259611, -0.93609595, 0.07886102, 4.47196817, -0.13318408, -6.38373518, -14.73253441, 9.38322163, -60.80093384, 98.89378357, 13.73698235, -8.18951035, -0.63735080, 0.75797689, 0.02368861, -0.13672529, 0.16456646, -0.02379276, 0.06986411, 100.41700745, 75.85894775, 30.21999931, 0.00000000
1, 0.2049, 15, 0.07807396, -0.93639398, 0.09080405, 5.66863394, -0.62095541, -0.10120115, -14.73253441, 9.61707115, -60.33323669, 98.89189911, 13.65746784, -8.20270538, -0.63743860, 0.75799984, 0.02315229, -0.13628002, 0.15852398, -0.02361080, 0.05815834, 100.41700745, 75.85894775, 30.21999931, 0.00000000
3, 0.1848, 22, 0.20991023, -0.96770430, 0.29299611, -1.74282193, -16.27662468, -27.70942688, -14.67407131, -31.33586693, -91.46448517, 107.18642426, 15.92679405, -10.70142841, 0.57483220, -0.80125672, -0.00753990, 0.16582729, 0.06384221, 0.04887398, -0.00872545, 100.40600586, 76.78147888, 32.75000000, 0.00000000
3, 0.1898, 23, 0.21541929, -0.96439266, 0.26877451, -1.56648636, -17.24129677, -27.82756042, -14.67407131, -31.33586693, -91.46448517, 107.16674042, 16.08518219, -10.74436378, 0.57469076, -0.80108273, -0.00809168, 0.16712734, 0.06098239, 0.04619000, 0.01496056, 100.40600586, 76.78147888, 32.75000000, 0.00000000
3, 0.1948, 24, 0.20615804, -0.96822387, 0.26201898, -1.60082626, -15.68137455, -28.19331360, -14.38175964, -31.27740479, -92.16603088, 107.14907837, 16.24300575, -10.77906799, 0.57454616, -0.80091751, -0.00869559, 0.16838169, 0.07289339, 0.05066262, 0.02119680, 100.40600586, 76.78147888, 32.75000000, 0.00000000
1, 0.2099, 16, 0.08277085, -0.93066180, 0.09697669, 6.16001129, -1.54027307, 6.49549437, -14.73253441, 9.61707115, -60.33323669, 98.91970825, 13.62662125, -8.21565342, -0.63727450, 0.75816894, 0.02285853, -0.13615653, 0.15274136, -0.02957607, 0.05226790, 100.41700745, 75.85894775, 30.21999931, 0.00000000
1, 0.2149, 17, 0.08813094, -0.92080259, 0.10122424, 6.50934458, -2.55694318, 12.74115562, -14.73253441, 9.61707115, -60.33323669, 98.94700623, 13.56571960, -8.23870945, -0.63713616, 0.75834841, 0.02232806, -0.13589302, 0.14646354, -0.03958734, 0.04854024, 100.41700745, 75.85894775, 30.21999931, 0.00000000
1, 0.2199, 18, 0.09257893, -0.91493356, 0.10667146, 6.79037714, -3.84854698, 18.80587387, -15.25869656, 9.41245270, -60.80093384, 98.97312927, 13.47586155, -8.27316570, -0.63702476, 0.75853378, 0.02155939, -0.13550346, 0.14059880, -0.04572884, 0.04361317, 100.41700745, 75.85894775, 30.21999931, 0.00000000
2, 0.2002, 13, 0.15171616, -0.97089708, -0.14995816, -11.58056545, -18.99552536, 5.48118496, -67.11487579, 9.99707699, -83.16281891, 74.76338196, 5.31367111, -20.91033554, 0.77546930, -0.60308409, 0.07383189, 0.17171475, -0.05888151, 0.01014051, -0.11143906, 100.34700775, 81.73015594, 0.00000000, 0.00000000
2, 0.2052, 14, 0.15457340, -0.97564143, -0.15207824, -11.54005909, -19.13681221, 5.82696009, -67.37796021, 11.86787510, -83.65974426, 74.69785309, 5.26036453, -20.99532890, 0.77575451, -0.60253114, 0.07454623, 0.17205822, -0.06265812, 0.01510271, -0.11044188, 100.34700775, 81.73015594, 0.00000000, 0.00000000
2, 0.2152, 15, 0.16115028, -0.99901903, -0.15800419, -11.29178715, -19.62141991, 5.82092476, -67.52411652, 11.89710617, -83.60128784, 74.56910706, 5.15183687, -21.16791916, 0.77630973, -0.60143393, 0.07600372, 0.17275399, -0.07111961, 0.03890768, -0.10672314, 100.34700775, 81.73015594, 0.00000000, 0.00000000
1, 0.2249, 19, 0.09959783, -0.91009688, 0.11318320, 6.69162798, -6.11577940, 24.74701309, -15.25869656, 9.41245270, -60.80093384, 98.99510956, 13.35842323, -8.32387352, -0.63695294, 0.75870824, 0.02053176, -0.13502315, 0.13168767, -0.05095719, 0.03758931, 100.41700745, 75.85894775, 30.21999931, 0.00000000
1, 0.2299, 20, 0.10438234, -0.90640795, 0.10862377, 6.20053530, -8.31437492, 30.58962440, -15.11254025, 9.76322746, -60.71324158, 99.01121521, 13.21383572, -8.39040279, -0.63693213, 0.75886071, 0.01925245, -0.13445215, 0.12457296, -0.05514021, 0.04254371, 100.41700745, 75.85894775, 30.21999931, 0.00000000
1, 0.1402, 16, 0.50360107, -0.87707520, 0.23596191, 6.88515854, -17.37696075, 29.63516617, -20.52031517, 4.79392004, -52.61619186, 100.72917175, 29.87757301, -147.36543274, -0.01736504, -0.36687580, 0.66791755, 0.64729196, -0.00496383, 0.02543977, -0.07447642, 100.29300690, 86.26172638, 29.31999969, 0.00000000
1, 0.1452, 17, 0.50659180, -0.89819336, 0.24438477, 6.88515854, -17.51695824, 29.88016891, -21.30955887, 5.67085648, -52.87927628, 100.69837189, 29.74706268, -147.49662781, -0.01714182, -0.36550456, 0.66857624, 0.64739352, -0.00992511, 0.04536045, -0.08314585, 100.29300690, 86.26172638, 29.31999969, 0.00000000
1, 0.1502, 18, 0.50268555, -0.91894531, 0.24755859, 6.39515877, -17.34195900, 30.26516533, -21.30955887, 5.67085648, -52.87927628, 100.66580200, 29.61443329, -147.62698364, -0.01689477, -0.36412659, 0.66922581, 0.64750540, -0.00802186, 0.06489855, -0.08658795, 100.29300690, 86.26172638, 29.31999969, 0.00000000
2, 0.2202, 16, 0.15472984, -0.99970734, -0.16143960, -11.25780869, -20.13969040, 5.63951063, -67.52411652, 11.89710617, -83.60128784, 74.50479126, 5.09781265, -21.25782013, 0.77658045, -0.60088181, 0.07674903, 0.17312875, -0.06563959, 0.03981168, -0.10438564, 100.34700775, 81.73015594, 0.00000000, 0.00000000
2, 0.2252, 17, 0.14704411, -1.00235856, -0.16311631, -11.40370560, -20.72565269, 5.21283531, -67.52411652, 11.89710617, -83.60128784, 74.45358276, 5.05217838, -21.35116005, 0.77676588, -0.60042375, 0.07747406, 0.17356183, -0.05881453, 0.04265824, -0.10369992, 100.34700775, 81.73015594, 0.00000000, 0.00000000
2, 0.2302, 18, 0.14314193, -0.99693334, -0.16220477, -11.93692684, -21.41683769, 4.85226059, -68.22566223, 10.40631390, -83.68898010, 74.38540649, 5.00004482, -21.44816208, 0.77704257, -0.59984028, 0.07823661, 0.17399868, -0.05575978, 0.03744242, -0.10564108, 100.34700775, 81.73015594, 0.00000000, 0.00000000
2, 0.2352, 19, 0.14053027, -0.99152899, -0.15966213, -12.40217400, -22.00256348, 4.31974220, -68.22566223, 10.40631390, -83.68898010, 74.31468964, 4.94957066, -21.54864883, 0.77732432, -0.59923768, 0.07900147, 0.17447034, -0.05403303, 0.03229430, -0.10938588, 100.34700775, 81.73015594, 0.00000000, 0.00000000
3, 0.1998, 25, 0.21249858, -0.96446466, 0.27066380, -2.31527948, -13.90536308, -28.68901253, -14.38175964, -31.27740479, -92.16603088, 107.13041687, 16.40056610, -10.80424595, 0.57442099, -0.80074555, -0.00936658, 0.16958578, 0.06919138, 0.04754886, 0.01202963, 100.40600586, 76.78147888, 32.75000000, 0.00000000
3, 0.2048, 26, 0.21701100, -0.97021937, 0.28638226, -2.20884490, -13.20635891, -29.17129517, -14.38175964, -31.27740479, -92.16603088, 107.11339569, 16.55940056, -10.82527924, 0.57428724, -0.80057979, -0.01007113, 0.17077731, 0.06733159, 0.05396475, -0.00420109, 100.40600586, 76.78147888, 32.75000000, 0.00000000
3, 0.2098, 27, 0.21422386, -0.97662860, 0.29496300, -2.92784524, -13.39388180, -29.75998688, -14.08944702, -32.70973206, -92.25372314, 107.09271240, 16.72131348, -10.84640980, 0.57417309, -0.80039269, -0.01079689, 0.17198943, 0.07281339, 0.06104613, -0.01332869, 100.40600586, 76.78147888, 32.75000000, 0.00000000
2, 0.2402, 20, 0.14064378, -0.98825443, -0.16020930, -12.44428825, -22.48328018, 3.75606346, -67.87489319, 12.45249939, -83.42589569, 74.24359131, 4.90103531, -21.65215683, 0.77760023, -0.59863114, 0.07976746, 0.17497359, -0.05500008, 0.02928189, -0.11004393, 100.34700775, 81.73015594, 0.00000000, 0.00000000
2, 0.2452, 21, 0.14200407, -0.98502767, -0.16578102, -12.52161884, -23.24096870, 3.15331244, -67.87489319, 12.45249939, -83.42589569, 74.17180634, 4.85424089, -21.76007271, 0.77787000, -0.59801763, 0.08054273, 0.17551714, -0.05718137, 0.02632497, -0.10568531, 100.34700775, 81.73015594, 0.00000000, 0.00000000
2, 0.2502, 22, 0.14308242, -0.98185021, -0.16790324, -13.05855942, -23.79162979, 2.55143452, -67.87489319, 12.45249939, -83.42589569, 74.09715271, 4.80945063, -21.87140656, 0.77814603, -0.59738290, 0.08131676, 0.17609712, -0.05904769, 0.02343447, -0.10481890, 100.34700775, 81.73015594, 0.00000000, 0.00000000
3, 0.2148, 28, 0.20843060, -0.98526597, 0.28921098, -3.28891182, -13.13277054, -30.52203369, -14.08944702, -32.70973206, -92.25372314, 107.06925201, 16.87583542, -10.86536503, 0.57409030, -0.80019420, -0.01150400, 0.17313914, 0.08126504, 0.07033954, -0.00816687, 100.40600586, 76.78147888, 32.75000000, 0.00000000
3, 0.2198, 29, 0.20996487, -0.98715740, 0.27959597, -3.86378551, -12.21242905, -31.37886620, -14.32329750, -31.30663490, -92.10756683, 107.04616547, 17.04373932, -10.87827969, 0.57399374, -0.79998863, -0.01232286, 0.17434943, 0.08243231, 0.07290028, 0.00082725, 100.40600586, 76.78147888, 32.75000000, 0.00000000
1, 0.2549, 21, -0.04158563, -0.91632354, 0.12737559, 7.34822178, -20.15226364, 60.01710510, -14.38175964, 8.44782257, -60.27477264, 99.06237793, 12.05059528, -8.96831703, -0.63722974, 0.75956714, 0.00876880, -0.13007398, 0.25139058, -0.04935903, 0.02499453, 100.41700745, 75.85894775, 30.21999931, 0.00000000
1, 0.2599, 22, -0.07697129, -0.92742324, 0.13826753, 7.87577009, -21.57983017, 64.56819916, -14.38175964, 8.44782257, -60.27477264, 99.06948853, 11.74862862, -9.12867260, -0.63733536, 0.75968999, 0.00598565, -0.12899245, 0.28155383, -0.03934886, 0.01427575, 100.41700745, 75.85894775, 30.21999931, 0.00000000
1, 0.1552, 19, 0.50628662, -0.93957520, 0.24658203, 5.13515806, -16.88695908, 30.19516754, -21.30955887, 5.67085648, -52.87927628, 100.62862396, 29.48165703, -147.75444031, -0.01661636, -0.36276361, 0.66983742, 0.64764529, -0.01363908, 0.08430339, -0.08593304, 100.29300690, 86.26172638, 29.31999969, 0.00000000
1, 0.1602, 20, 0.51037598, -0.95147705, 0.23980713, 4.05015802, -16.01195908, 29.77516747, -21.36802101, 5.81701231, -52.58696365, 100.58905029, 29.35007095, -147.87623596, -0.01630702, -0.36143753, 0.67041075, 0.64780122, -0.01973354, 0.09498304, -0.07953299, 100.29300690, 86.26172638, 29.31999969, 0.00000000
1, 0.1652, 21, 0.51367188, -0.95989990, 0.23065186, 3.10515738, -15.52195835, 29.04016495, -21.36802101, 5.81701231, -52.58696365, 100.54684448, 29.22156715, -147.99424744, -0.01598919, -0.36014673, 0.67094475, 0.64797515, -0.02499712, 0.10220332, -0.07079773, 100.29300690, 86.26172638, 29.31999969, 0.00000000
3, 0.2348, 30, 0.22700907, -0.99464202, 0.31324857, -5.20039082, -12.63189602, -33.74634933, -13.97252274, -29.90353584, -92.57527161, 106.96945953, 17.56945610, -10.90774822, 0.57372892, -0.79931170, -0.01497323, 0.17807852, 0.07409984, 0.08260766, -0.03481316, 100.40600586, 76.78147888, 32.75000000, 0.00000000
3, 0.2398, 31, 0.21974842, -0.99825448, 0.31619012, -4.38079500, -13.66842270, -34.01208115, -13.97252274, -29.90353584, -92.57527161, 106.94255066, 17.75205231, -10.92430019, 0.57362556, -0.79907262, -0.01585129, 0.17940356, 0.08438885, 0.08700503, -0.03847760, 100.40600586, 76.78147888, 32.75000000, 0.00000000
1, 0.2649, 23, -0.09446341, -0.94205165, 0.14714746, 8.13668251, -21.70417213, 68.41764832, -14.38175964, 8.44782257, -60.27477264, 99.07810211, 11.42777443, -9.29258633, -0.63744760, 0.75981361, 0.00307001, -0.12780669, 0.29361698, -0.02581549, 0.00564113, 100.41700745, 75.85894775, 30.21999931, 0.00000000
1, 0.2699, 24, -0.06120966, -0.99122488, 0.17619415, 9.20045185, -20.85136223, 71.01830292, -15.72639561, 9.17860222, -60.94709015, 99.09343719, 11.09345341, -9.45415020, -0.63753223, 0.75996429, 0.00008614, -0.12651908, 0.25461656, 0.02222268, -0.02299580, 100.41700745, 75.85894775, 30.21999931, 0.00000000
1, 0.2749, 25, -0.01714264, -1.04136932, 0.22456399, 10.28365993, -22.29382515, 70.54950714, -15.72639561, 9.17860222, -60.94709015, 99.11382294, 10.76264668, -9.62251663, -0.63757151, 0.76012903, -0.00292826, -0.12529108, 0.20472082, 0.07124321, -0.07083428, 100.41700745, 75.85894775, 30.21999931, 0.00000000
2, 0.2552, 23, 0.14743152, -0.98080498, -0.16428238, -13.80676270, -23.96238708, 2.05851388, -68.34259033, 12.45249939, -83.10435486, 74.01870728, 4.76664734, -21.98418045, 0.77843606, -0.59672225, 0.08207786, 0.17670068, -0.06415085, 0.02269802, -0.10975279, 100.34700775, 81.73015594, 0.00000000, 0.00000000
2, 0.2752, 24, 0.16524872, -0.96230870, -0.15676850, -13.23670387, -23.90949440, -0.09361617, -68.51797485, 12.39403629, -83.68898010, 73.72381592, 4.63281870, -22.44170952, 0.77943039, -0.59423298, 0.08491810, 0.17934494, -0.08443764, 0.00547314, -0.12240028, 100.34700775, 81.73015594, 0.00000000, 0.00000000
2, 0.2802, 25, 0.16727427, -0.96324086, -0.15477520, -13.23728752, -24.32444000, -0.20411828, -68.60566711, 12.45249939, -83.54282379, 73.64818573, 4.59963512, -22.55910301, 0.77968132, -0.59359276, 0.08563641, 0.18003149, -0.08693627, 0.00669915, -0.12553482, 100.34700775, 81.73015594, 0.00000000, 0.00000000
2, 0.2852, 26, 0.16715415, -0.96390826, -0.15465346, -12.84766006, -24.84343338, -0.20998502, -68.60566711, 12.45249939, -83.54282379, 73.57438660, 4.56559706, -22.67895508, 0.77991891, -0.59296095, 0.08637516, 0.18072999, -0.08740485, 0.00768516, -0.12690879, 100.34700775, 81.73015594, 0.00000000, 0.00000000
1, 0.2002, 22, 0.52502441, -0.88177490, 0.17779541, 2.19515729, -18.88195801, 24.94516373, -20.43262100, 6.02163124, -52.44080734, 100.21719360, 28.42551231, -148.79962158, -0.01425001, -0.35168055, 0.67403102, 0.64946121, -0.04860313, 0.01653525, -0.02164488, 100.29300690, 86.26172638, 29.31999969, 0.00000000
1, 0.2052, 23, 0.50390625, -0.87219238, 0.17425537, 2.65015745, -19.96695900, 24.98016548, -20.43262100, 6.02163124, -52.44080734, 100.16544342, 28.32024765, -148.93641663, -0.01417000, -0.35037810, 0.67447639, 0.64970458, -0.02910267, 0.00595129, -0.01873110, 100.29300690, 86.26172638, 29.31999969, 0.00000000
1, 0.2102, 24, 0.47760010, -0.85272217, 0.15325928, 3.35015726, -20.87696075, 24.94516373, -21.16340256, 6.69394922, -52.49926758, 100.11513519, 28.21584892, -149.07801819, -0.01412843, -0.34904975, 0.67493910, 0.64993989, -0.00440334, -0.01450861, 0.00164501, 100.29300690, 86.26172638, 29.31999969, 0.00000000
3, 0.2448, 32, 0.21935624, -1.00608408, 0.31613010, -4.41825342, -13.24314785, -34.53099060, -13.65097904, -30.54662323, -92.57527161, 106.91622925, 17.93650436, -10.93803406, 0.57351774, -0.79883331, -0.01675836, 0.18072627, 0.08783954, 0.09564602, -0.03912381, 100.40600586, 76.78147888, 32.75000000, 0.00000000
3, 0.2498, 33, 0.22793126, -1.00962377, 0.31216264, -4.56287956, -12.33049870, -35.21778107, -13.65097904, -30.54662323, -92.57527161, 106.89086914, 18.12291336, -10.94622707, 0.57340729, -0.79859495, -0.01771329, 0.18203379, 0.08234864, 0.10001962, -0.03585475, 100.40600586, 76.78147888, 32.75000000, 0.00000000
3, 0.2548, 34, 0.23999473, -1.01129115, 0.32155043, -3.85223317, -12.90662098, -36.00123978, -13.65097904, -30.54662323, -92.57527161, 106.86849976, 18.31390572, -10.95621300, 0.57326478, -0.79836726, -0.01867541, 0.18338105, 0.07343373, 0.10256453, -0.04590984, 100.40600586, 76.78147888, 32.75000000, 0.00000000
2, 0.2902, 27, 0.16948740, -0.96689671, -0.15265930, -12.59757900, -25.25984764, -0.07591838, -68.83952332, 12.74481106, -83.39666748, 73.50176239, 4.53017139, -22.80056572, 0.78014839, -0.59233290, 0.08713338, 0.18143342, -0.09034837, 0.01098624, -0.13013421, 100.34700775, 81.73015594, 0.00000000, 0.00000000
2, 0.2952, 28, 0.17160605, -0.96970671, -0.14618731, -12.30988026, -25.60828400, 0.23318838, -68.83952332, 12.74481106, -83.39666748, 73.43055725, 4.49261618, -22.92336273, 0.78037041, -0.59170979, 0.08791361, 0.18213400, -0.09310926, 0.01410237, -0.13781701, 100.34700775, 81.73015594, 0.00000000, 0.00000000
2, 0.3002, 29, 0.17607109, -0.97112119, -0.14401707, -12.02406406, -25.99026299, 0.40271014, -68.63490295, 12.74481106, -82.98742676, 73.36074066, 4.45355177, -23.04769897, 0.78058374, -0.59109187, 0.08871337, 0.18283732, -0.09825005, 0.01581377, -0.14116995, 100.34700775, 81.73015594, 0.00000000, 0.00000000
2, 0.3052, 30, 0.17691943, -0.97514999, -0.14564954, -11.70530319, -25.71331406, 0.51268703, -68.63490295, 12.42326832, -82.98742676, 73.29271698, 4.41420555, -23.17049217, 0.78078961, -0.59048557, 0.08950892, 0.18352818, -0.09978253, 0.02013341, -0.14069486, 100.34700775, 81.73015594, 0.00000000, 0.00000000
2, 0.3102, 31, 0.17604986, -0.98024237, -0.14927450, -11.67067146, -25.15916061, 0.55589324, -68.63490295, 12.42326832, -82.98742676, 73.22517395, 4.37530947, -23.29050827, 0.78099591, -0.58988392, 0.09028684, 0.18420289, -0.09959104, 0.02551398, -0.13821046, 100.34700775, 81.73015594, 0.00000000, 0.00000000
2, 0.3152, 32, 0.17784058, -0.99372804, -0.15798128, -11.91661930, -24.84889793, 0.69841301, -68.63490295, 12.65711784, -82.95819855, 73.15660095, 4.33603716, -23.40877151, 0.78120983, -0.58927494, 0.09105574, 0.18486546, -0.10206340, 0.03929303, -0.13065608, 100.34700775, 81.73015594, 0.00000000, 0.00000000
1, 0.2799, 26, 0.05108349, -1.06298101, 0.24049477, 10.48221874, -22.36315346, 64.76170349, -15.98947620, 8.79859638, -60.77170181, 99.13682556, 10.46053028, -9.78656387, -0.63756692, 0.76029170, -0.00575393, -0.12422542, 0.13112511, 0.09189590, -0.08609492, 100.41700745, 75.85894775, 30.21999931, 0.00000000
1, 0.2849, 27, 0.15663323, -1.05994010, 0.21202070, 9.81785297, -16.79391479, 54.45736313, -15.98947620, 8.79859638, -60.77170181, 99.16365814, 10.20497227, -9.91439533, -0.63752574, 0.76046187, -0.00807921, -0.12326160, 0.02104733, 0.08813901, -0.05677828, 100.41700745, 75.85894775, 30.21999931, 0.00000000
1, 0.2899, 28, 0.32448435, -1.02451742, 0.12736699, 7.37996292, -6.58733749, 40.39533615, -15.98947620, 8.79859638, -60.77170181, 99.18956757, 10.01081657, -9.97980118, -0.63749146, 0.76061934, -0.00964093, -0.12235165, -0.15023887, 0.05228205, 0.02890261, 100.41700745, 75.85894775, 30.21999931, 0.00000000
1, 0.2152, 25, 0.45996094, -0.84942627, 0.14056396, 4.96015787, -21.43696022, 25.43516541, -21.16340256, 6.69394922, -52.49926758, 100.07151031, 28.10942841, -149.22299194, -0.01411395, -0.34768936, 0.67545319, 0.65013528, 0.01161021, -0.01878452, 0.01380696, 100.29300690, 86.26172638, 29.31999969, 0.00000000
1, 0.2202, 26, 0.43927002, -0.84869385, 0.14587402, 6.95515871, -21.82196045, 26.24016571, -21.57263947, 6.19701815, -52.67465591, 100.03682709, 27.99928665, -149.37068176, -0.01411821, -0.34629229, 0.67603439, 0.65027678, 0.03061803, -0.02050146, 0.00808879, 100.29300690, 86.26172638, 29.31999969, 0.00000000
1, 0.2252, 27, 0.42388916, -0.85321045, 0.15130615, 8.77515984, -20.91196060, 27.92016602, -21.57263947, 6.19701815, -52.67465591, 100.01321411, 27.88001823, -149.51472473, -0.01407542, -0.34486955, 0.67669147, 0.65035027, 0.04419866, -0.01699620, 0.00242684, 100.29300690, 86.26172638, 29.31999969, 0.00000000
1, 0.2302, 28, 0.39971924, -0.85699463, 0.15246582, 9.23016071, -20.42195892, 29.28516769, -21.57263947, 6.19701815, -52.67465591, 99.99288177, 27.75355530, -149.65718079, -0.01398626, -0.34341922, 0.67738068, 0.65040219, 0.06644296, -0.01426992, 0.00112631, 100.29300690, 86.26172638, 29.31999969, 0.00000000
1, 0.2949, 29, 0.39985234, -1.00701761, 0.09113877, 4.93753672, 1.98724496, 30.50072289, -16.51563835, 9.29552746, -59.80707169, 99.21210480, 9.85871792, -9.99433231, -0.63748831, 0.76075608, -0.01062275, -0.12143381, -0.22828668, 0.03442622, 0.06583021, 100.41700745, 75.85894775, 30.21999931, 0.00000000
1, 0.2999, 30, 0.50746769, -1.00284827, 0.08673573, 4.66831064, 6.61556911, 17.43485069, -16.51563835, 9.29552746, -59.80707169, 99.23892212, 9.76745892, -9.97521496, -0.63742697, 0.76091391, -0.01104084, -0.12072667, -0.33771360, 0.03001897, 0.07097038, 100.41700745, 75.85894775, 30.21999931, 0.00000000
2, 0.3402, 33, 0.16266826, -1.03800344, -0.18605405, -13.85832596, -23.13731766, -1.47584355, -68.07950592, 11.78018093, -83.65974426, 72.80491638, 4.17805004, -23.98614120, 0.78228205, -0.58621055, 0.09453478, 0.18829569, -0.08969818, 0.08514560, -0.10845771, 100.34700775, 81.73015594, 0.00000000, 0.00000000
2, 0.3452, 34, 0.14740735, -1.03439689, -0.20768723, -13.90452766, -22.61214066, -2.16360521, -68.07950592, 11.78018093, -83.65974426, 72.72730255, 4.15488720, -24.09762383, 0.78252608, -0.58555877, 0.09513697, 0.18900514, -0.07485679, 0.08191202, -0.08813170, 100.34700775, 81.73015594, 0.00000000, 0.00000000
3, 0.2598, 35, 0.25095305, -1.03215337, 0.32997596, -2.85866404, -16.01099014, -36.39808273, -13.15404797, -30.16661835, -92.66296387, 106.84626770, 18.51128769, -10.98134041, 0.57308525, -0.79813671, -0.01956570, 0.18484662, 0.06571189, 0.12434822, -0.05499897, 100.40600586, 76.78147888, 32.75000000, 0.00000000
3, 0.2648, 36, 0.24636450, -1.03872418, 0.28156680, -3.22692132, -19.51132393, -37.02959442, -13.15404797, -30.16661835, -92.66296387, 106.81379700, 18.70761871, -11.02394772, 0.57294786, -0.79785699, -0.02034597, 0.18638958, 0.07359434, 0.13184001, -0.00736469, 100.40600586, 76.78147888, 32.75000000, 0.00000000
3, 0.2698, 37, 0.22843659, -1.04078233, 0.26098639, -3.44660068, -19.90503502, -37.87078857, -13.15404797, -30.45892906, -92.31218719, 106.78275299, 18.91765404, -11.06679153, 0.57277650, -0.79757392, -0.02119475, 0.18802591, 0.09490506, 0.13484287, 0.01236893, 100.40600586, 76.78147888, 32.75000000, 0.00000000
1, 0.3349, 31, 0.35688591, -1.09545588, 0.15871906, 10.91263580, -3.19084787, -5.83756018, -16.48640823, 8.88629055, -60.85939789, 99.58830261, 10.19225693, -9.83261967, -0.63480467, 0.76282644, -0.00806329, -0.12269429, -0.18043476, 0.12466742, 0.00408716, 100.41700745, 75.85894775, 30.21999931, 0.00000000
1, 0.3399, 32, 0.28428584, -1.08757126, 0.20686111, 11.66024971, -1.83671689, 0.45954049, -16.48640823, 8.88629055, -60.85939789, 99.64491272, 10.19165134, -9.84218407, -0.63441807, 0.76313931, -0.00819100, -0.12273926, -0.10782357, 0.11688588, -0.04328880, 100.41700745, 75.85894775, 30.21999931, 0.00000000
1, 0.2352, 29, 0.37622070, -0.87017822, 0.16107178, 9.72015953, -20.59695816, 30.82516670, -21.07570839, 5.96316862, -53.02542877, 99.97424316, 27.61961365, -149.80189514, -0.01386587, -0.34191722, 0.67810494, 0.65044147, 0.08790391, -0.00219092, -0.00757919, 100.29300690, 86.26172638, 29.31999969, 0.00000000
3, 0.2748, 38, 0.20019348, -1.04172301, 0.26483572, -4.05454493, -17.39554977, -38.84836578, -13.15404797, -30.45892906, -92.31218719, 106.75309753, 19.12873077, -11.09560680, 0.57261389, -0.79729259, -0.02214517, 0.18959810, 0.12662286, 0.13678432, 0.00770076, 100.40600586, 76.78147888, 32.75000000, 0.00000000
3, 0.2798, 39, 0.15833682, -1.05209506, 0.27446973, -4.27256489, -16.36981392, -39.95249176, -13.15404797, -30.45892906, -92.31218719, 106.72446442, 19.34360123, -11.11768341, 0.57244676, -0.79701036, -0.02316136, 0.19116130, 0.17200468, 0.14819361, -0.00274308, 100.40600586, 76.78147888, 32.75000000, 0.00000000
1, 0.3449, 33, 0.27781200, -1.08336389, 0.30671102, 13.54920197, 2.33403444, 7.37008190, -16.57410049, 8.97398376, -60.15784836, 99.71372223, 10.15354061, -9.83669853, -0.63400632, 0.76352471, -0.00844288, -0.12245330, -0.10208344, 0.11261730, -0.14202617, 100.41700745, 75.85894775, 30.21999931, 0.00000000
1, 0.3499, 34, 0.31585565, -1.09279525, 0.33081874, 15.43543053, 6.71530724, 14.21557236, -16.57410049, 8.97398376, -60.15784836, 99.79485321, 10.07801723, -9.81516457, -0.63356882, 0.76398313, -0.00881115, -0.12183115, -0.14125173, 0.12204477, -0.16472089, 100.41700745, 75.85894775, 30.21999931, 0.00000000
1, 0.3549, 35, 0.37123239, -1.11477959, 0.29733709, 16.58770943, 13.50579071, 23.47632599, -16.72025681, 9.32475853, -60.12861633, 99.89057159, 9.96028614, -9.76692390, -0.63310587, 0.76452816, -0.00925314, -0.12078166, -0.19850957, 0.14401391, -0.12950353, 100.41700745, 75.85894775, 30.21999931, 0.00000000
2, 0.3502, 35, 0.13298102, -1.02822602, -0.22230515, -13.42290688, -21.84261513, -2.94948149, -68.22566223, 12.89096737, -82.89973450, 72.65231323, 4.13647032, -24.20656204, 0.78275353, -0.58493215, 0.09569665, 0.18971951, -0.06077518, 0.07610825, -0.07477723, 100.34700775, 81.73015594, 0.00000000, 0.00000000
2, 0.3552, 36, 0.12093679, -1.04450631, -0.23182905, -13.54427719, -20.79592323, -3.87320495, -68.22566223, 12.89096737, -82.89973450, 72.57701111, 4.12388325, -24.31185341, 0.78297979, -0.58431321, 0.09619588, 0.19043900, -0.04897345, 0.09276199, -0.06650591, 100.34700775, 81.73015594, 0.00000000, 0.00000000
2, 0.3602, 37, 0.11478591, -1.05489826, -0.23350322, -14.16159916, -19.74932289, -4.90362740, -68.22566223, 12.89096737, -82.89973450, 72.49889374, 4.11764145, -24.41367340, 0.78321671, -0.58368558, 0.09662785, 0.19116940, -0.04296201, 0.10354768, -0.06611855, 100.34700775, 81.73015594, 0.00000000, 0.00000000
3, 0.2998, 40, 0.12918504, -1.10608196, 0.26518667, -5.02742481, -6.04749727, -44.99607468, -12.68634892, -30.19584846, -92.80912018, 106.64578247, 20.22324181, -11.04987431, 0.57173902, -0.79598552, -0.02836177, 0.19676723, 0.21556899, 0.20674109, 0.00375482, 100.40600586, 76.78147888, 32.75000000, 0.00000000
3, 0.3048, 41, 0.12553011, -1.10843098, 0.26825583, -5.67472267, -4.07876635, -46.46897125, -12.68634892, -30.19584846, -92.80912018, 106.63484955, 20.45169830, -10.99975395, 0.57154083, -0.79574978, -0.02992261, 0.19806071, 0.22295122, 0.21035528, 0.00010929, 100.40600586, 76.78147888, 32.75000000, 0.00000000
3, 0.3098, 42, 0.13007139, -1.11532593, 0.27807510, -5.10440922, -2.29957271, -47.67757797, -11.66325665, -29.96199989, -92.63372803, 106.63080597, 20.68340302, -10.93864155, 0.57130778, -0.79553872, -0.03156472, 0.19932249, 0.22218257, 0.21857375, -0.01021028, 100.40600586, 76.78147888, 32.75000000, 0.00000000
3, 0.3148, 43, 0.12791114, -1.12129784, 0.27714109, -5.03758287, -1.37463617, -49.03065109, -11.66325665, -29.96199989, -92.63372803, 106.62517548, 20.90009689, -10.87176132, 0.57111877, -0.79532492, -0.03317093, 0.20045291, 0.22802106, 0.22586250, -0.00973261, 100.40600586, 76.78147888, 32.75000000, 0.00000000
3, 0.3198, 44, 0.13129523, -1.11503756, 0.26588804, -5.07857943, -1.07300282, -50.21512604, -11.34171295, -29.28968048, -92.37065125, 106.62541199, 21.14220810, -10.80031395, 0.57085603, -0.79511440, -0.03493111, 0.20173368, 0.22839352, 0.22096911, 0.00106597, 100.40600586, 76.78147888, 32.75000000, 0.00000000
2, 0.3652, 38, 0.11666477, -1.05710447, -0.23556265, -14.10776043, -18.73612022, -5.93131208, -67.99181366, 12.04326248, -82.75357819, 72.42127991, 4.11768913, -24.51218796, 0.78344715, -0.58307189, 0.09699935, 0.19190864, -0.04486619, 0.10616039, -0.06535318, 100.34700775, 81.73015594, 0.00000000, 0.00000000
2, 0.3702, 39, 0.11338177, -1.05205119, -0.24251798, -13.20471859, -17.51455307, -6.81271601, -67.99181366, 12.04326248, -82.75357819, 72.34851074, 4.12365341, -24.60620689, 0.78365147, -0.58250242, 0.09731413, 0.19264291, -0.04150731, 0.10150580, -0.05963679, 100.34700775, 81.73015594, 0.00000000, 0.00000000
1, 0.2602, 30, 0.19915771, -1.01501465, 0.15759277, 6.78015852, -14.26195908, 41.01016998, -21.13417053, 5.67085648, -53.14235687, 99.86270142, 26.79836464, -150.50320435, -0.01208624, -0.33377030, 0.68194044, 0.65069854, 0.25245956, 0.13600129, -0.00469810, 100.29300690, 86.26172638, 29.31999969, 0.00000000
1, 0.2652, 31, 0.15985107, -1.05004883, 0.15673828, 5.20515823, -9.88695621, 43.88016891, -21.13417053, 5.67085648, -53.14235687, 99.84535217, 26.59066200, -150.59974670, -0.01121036, -0.33218059, 0.68272072, 0.65070957, 0.28858566, 0.16940911, -0.00384188, 100.29300690, 86.26172638, 29.31999969, 0.00000000
1, 0.2702, 32, 0.12969971, -1.08685303, 0.16931152, 4.01515818, -4.88195467, 46.12017059, -21.51417732, 6.05086231, -53.34697342, 99.83381653, 26.36762047, -150.67065430, -0.01010448, -0.33066538, 0.68349940, 0.65068197, 0.31531563, 0.20449468, -0.01632708, 100.29300690, 86.26172638, 29.31999969, 0.00000000
1, 0.2752, 33, 0.10900879, -1.12054443, 0.19335938, 2.40515709, 1.20804727, 48.11517334, -21.51417732, 6.05086231, -53.34697342, 99.82851410, 26.12954521, -150.70980835, -0.00873707, -0.32926294, 0.68426085, 0.65061259, 0.33234158, 0.23638293, -0.04016954, 100.29300690, 86.26172638, 29.31999969, 0.00000000
1, 0.3599, 36, 0.36934745, -1.14217615, 0.19025199, 15.80095482, 17.94065857, 28.56946182, -16.72025681, 9.32475853, -60.12861633, 99.98108673, 9.80440140, -9.70196247, -0.63273305, 0.76504886, -0.00979066, -0.11938776, -0.19883940, 0.17143473, -0.02081449, 100.41700745, 75.85894775, 30.21999931, 0.00000000
1, 0.3649, 37, 0.33932671, -1.17059207, 0.10000541, 14.61999893, 19.62599945, 33.42681122, -16.72025681, 9.32475853, -60.12861633, 100.06623077, 9.62302494, -9.63310432, -0.63242328, 0.76554185, -0.01043746, -0.11780331, -0.17161050, 0.19974652, 0.07086714, 100.41700745, 75.85894775, 30.21999931, 0.00000000
1, 0.3699, 38, 0.29383552, -1.19962931, 0.06507657, 14.29605770, 15.09002686, 38.01980972, -16.86641312, 9.20783424, -59.10552216, 100.14511108, 9.42288399, -9.59124660, -0.63214344, 0.76599813, -0.01136124, -0.11624298, -0.12940508, 0.22852397, 0.10710070, 100.41700745, 75.85894775, 30.21999931, 0.00000000
1, 0.3749, 39, 0.25677449, -1.20638525, 0.06919573, 14.04473019, 7.30069160, 41.76319122, -16.86641312, 9.20783424, -59.10552216, 100.21576691, 9.21108246, -9.59185982, -0.63188457, 0.76640379, -0.01262400, -0.11483890, -0.09595302, 0.23490945, 0.10421365, 100.41700745, 75.85894775, 30.21999931, 0.00000000
1, 0.3799, 40, 0.24021375, -1.20254147, 0.07133108, 14.09503746, 0.91990453, 44.97547150, -17.12949371, 6.31394339, -59.83630371, 100.28117371, 8.98909378, -9.62739754, -0.63163382, 0.76677400, -0.01417053, -0.11355861, -0.08318251, 0.23066624, 0.10328360, 100.41700745, 75.85894775, 30.21999931, 0.00000000
2, 0.3752, 40, 0.11446196, -1.05115950, -0.25413808, -11.87532043, -15.63609600, -7.40411043, -67.72873688, 11.57556248, -83.27973938, 72.29139709, 4.13981676, -24.69230270, 0.78377491, -0.58205998, 0.09754360, 0.19336067, -0.04237759, 0.10096273, -0.04906125, 100.34700775, 81.73015594, 0.00000000, 0.00000000
2, 0.3802, 41, 0.11220124, -1.04044724, -0.28046173, -10.65517044, -12.44094181, -8.01114941, -67.72873688, 11.57556248, -83.27973938, 72.23294067, 4.15901852, -24.76394272, 0.78392476, -0.58162463, 0.09767569, 0.19399591, -0.03976514, 0.09056814, -0.02364762, 100.34700775, 81.73015594, 0.00000000, 0.00000000
2, 0.3852, 42, 0.10674379, -1.04043508, -0.29485127, -10.55917072, -10.73941135, -8.43728828, -67.72873688, 11.57556248, -83.27973938, 72.17548370, 4.18277454, -24.82813263, 0.78407532, -0.58120835, 0.09773950, 0.19460200, -0.03391175, 0.09088793, -0.01019889, 100.34700775, 81.73015594, 0.00000000, 0.00000000
1, 0.2802, 34, 0.09265137, -1.14825439, 0.21716309, 0.02515645, 8.13804913, 49.69017792, -21.63110161, 6.05086231, -53.61005402, 99.82750702, 25.87779427, -150.71238708, -0.00708380, -0.32800958, 0.68497688, 0.65051228, 0.34480184, 0.26220879, -0.06368130, 100.29300690, 86.26172638, 29.31999969, 0.00000000
1, 0.2852, 35, 0.08843994, -1.16015625, 0.23181152, -2.28484416, 16.29305267, 50.25017166, -21.63110161, 6.05086231, -53.61005402, 99.83409882, 25.61632347, -150.67089844, -0.00513780, -0.32696995, 0.68563437, 0.65036124, 0.34493840, 0.27218050, -0.07792500, 100.29300690, 86.26172638, 29.31999969, 0.00000000
1, 0.2902, 36, 0.11383057, -1.14764404, 0.24353027, -3.19484472, 25.11305618, 49.83017349, -21.63110161, 6.05086231, -53.61005402, 99.85676575, 25.34936714, -150.58105469, -0.00292684, -0.32619157, 0.68625814, 0.65010786, 0.31535694, 0.25774369, -0.08901823, 100.29300690, 86.26172638, 29.31999969, 0.00000000
3, 0.3248, 45, 0.12887572, -1.11478436, 0.25759435, -4.01364374, -1.77604878, -51.66804886, -11.34171295, -29.28968048, -92.37065125, 106.63080597, 21.39228821, -10.73011494, 0.57054168, -0.79491794, -0.03671465, 0.20307560, 0.23485342, 0.22223967, 0.00898353, 100.40600586, 76.78147888, 32.75000000, 0.00000000
3, 0.3298, 46, 0.11773346, -1.10399437, 0.24319170, -2.41288948, -2.27117229, -53.40393448, -11.34171295, -29.28968048, -92.37065125, 106.64459991, 21.65138245, -10.65963268, 0.57015425, -0.79475003, -0.03853169, 0.20447946, 0.25016364, 0.21307242, 0.02309467, 100.40600586, 76.78147888, 32.75000000, 0.00000000
3, 0.3348, 47, 0.11918040, -1.09177744, 0.23118986, -0.24478212, -4.14076424, -55.61655426, -11.42940617, -29.58199310, -92.63372803, 106.66730499, 21.92373276, -10.59516048, 0.56967181, -0.79461116, -0.04035937, 0.20600566, 0.25307703, 0.20261452, 0.03491601, 100.40600586, 76.78147888, 32.75000000, 0.00000000
1, 0.4099, 41, -0.03672845, -0.99496663, 0.11438195, 25.86791801, 12.34427834, 56.55997849, -17.91873741, 8.94475269, -58.60859299, 100.87112427, 7.40642500, -9.80075169, -0.62903929, 0.77000123, -0.02472731, -0.10390612, 0.16659895, 0.02097140, 0.07033072, 100.41700745, 75.85894775, 30.21999931, 0.00000000
1, 0.4149, 42, -0.04118839, -0.98848999, 0.13566458, 25.39447784, 16.17445374, 56.44697952, -18.29874229, 8.94475269, -58.87167358, 101.00214386, 7.11431932, -9.77414131, -0.62845200, 0.77071184, -0.02629000, -0.10178475, 0.16596481, 0.01425257, 0.05140180, 100.41700745, 75.85894775, 30.21999931, 0.00000000
3, 0.3398, 48, 0.08884859, -1.09286058, 0.20703273, 1.49350345, -6.77010202, -57.58880234, -11.42940617, -29.58199310, -92.63372803, 106.69512177, 22.20928001, -10.54096413, 0.56911248, -0.79448342, -0.04217422, 0.20767383, 0.28797445, 0.20558849, 0.05895812, 100.40600586, 76.78147888, 32.75000000, 0.00000000
3, 0.3448, 49, 0.06532398, -1.08728087, 0.18507640, 2.26950431, -6.86719990, -59.83543777, -10.52323914, -29.17275620, -92.83834839, 106.72834015, 22.50569344, -10.48350048, 0.56850231, -0.79436481, -0.04405722, 0.20940122, 0.31624591, 0.20201847, 0.08084308, 100.40600586, 76.78147888, 32.75000000, 0.00000000
1, 0.4199, 43, -0.03988784, -0.97352147, 0.14294253, 24.26792526, 21.07800484, 56.36788559, -18.29874229, 9.55860806, -58.87167358, 101.13027191, 6.81786680, -9.72389126, -0.62790293, 0.77140754, -0.02771014, -0.09950131, 0.15953004, -0.00091934, 0.04646971, 100.41700745, 75.85894775, 30.21999931, 0.00000000
1, 0.4249, 44, -0.01824576, -0.94576991, 0.13607043, 23.37306976, 24.42122459, 56.07339478, -18.29874229, 9.55860806, -58.87167358, 101.25553894, 6.51952267, -9.65753269, -0.62738174, 0.77208734, -0.02902456, -0.09711382, 0.13273835, -0.02883813, 0.05569257, 100.41700745, 75.85894775, 30.21999931, 0.00000000
1, 0.4299, 45, -0.01282184, -0.92515397, 0.12321811, 23.61917305, 24.47743225, 55.26539993, -18.76644325, 9.52937698, -58.81321335, 101.38172150, 6.22494841, -9.59080601, -0.62684381, 0.77276874, -0.03031103, -0.09474553, 0.12221485, -0.04957399, 0.07084811, 100.41700745, 75.85894775, 30.21999931, 0.00000000
1, 0.2952, 37, 0.17181396, -1.11248779, 0.26190186, -3.40484476, 34.03805923, 46.78517151, -22.56650162, 5.81701231, -52.55773163, 99.89979553, 25.08971405, -150.44007874, -0.00053199, -0.32575557, 0.68682957, 0.64972937, 0.25322306, 0.22075728, -0.10646977, 100.29300690, 86.26172638, 29.31999969, 0.00000000
1, 0.3402, 38, 0.86920166, -1.19848633, 0.22747803, 19.90516281, 31.34305573, 3.14015770, -23.88190651, 5.23238802, -53.02542877, 101.00141144, 23.67612267, -148.12178040, 0.01874810, -0.33286610, 0.69035161, 0.64207745, -0.46748090, 0.29942954, -0.05336127, 100.29300690, 86.26172638, 29.31999969, 0.00000000
2, 0.3902, 43, 0.09910457, -1.04112554, -0.29828420, -10.42583847, -10.21556473, -8.91558933, -68.31335449, 13.35866737, -83.63051605, 72.11878204, 4.20954800, -24.89058304, 0.78422022, -0.58080280, 0.09777433, 0.19521049, -0.02581949, 0.09191555, -0.00770530, 100.34700775, 81.73015594, 0.00000000, 0.00000000
1, 0.3452, 39, 0.81909180, -1.23175049, 0.21112061, 20.67516136, 22.34805489, 0.09515676, -24.70038033, 5.67085648, -52.38234329, 101.15280914, 23.65419197, -148.00215149, 0.01912362, -0.33350599, 0.69091332, 0.64112943, -0.41781056, 0.33298030, -0.03452786, 100.29300690, 86.26172638, 29.31999969, 0.00000000
2, 0.4202, 44, 0.05582025, -1.04102600, -0.37485877, -4.82148075, 0.37637550, -10.46893024, -67.96258545, 13.12481689, -83.22128296, 71.89929962, 4.44171476, -25.12145805, 0.78461701, -0.57941490, 0.09695771, 0.19812593, 0.02139943, 0.09331962, 0.06519811, 100.34700775, 81.73015594, 0.00000000, 0.00000000
2, 0.4252, 45, 0.05883168, -1.03932607, -0.37063062, -3.63255978, 2.56557155, -10.95205784, -68.25489807, 12.92019844, -83.74744415, 71.87587738, 4.49326134, -25.12600708, 0.78465629, -0.57931966, 0.09658271, 0.19843127, 0.01928685, 0.09181509, 0.06059790, 100.34700775, 81.73015594, 0.00000000, 0.00000000
2, 0.4302, 46, 0.07309391, -1.03678322, -0.36049619, -1.87680531, 5.10092068, -11.25344276, -68.25489807, 12.92019844, -83.74744415, 71.86702728, 4.55467224, -25.11925507, 0.78462768, -0.57934695, 0.09610735, 0.19869551, 0.00604889, 0.08941630, 0.05028272, 100.34700775, 81.73015594, 0.00000000, 0.00000000
1, 0.3502, 40, 0.75305176, -1.22271729, 0.18200684, 19.48516273, 14.61305141, -2.87984419, -24.70038033, 5.67085648, -52.38234329, 101.28285980, 23.65410042, -147.92085266, 0.01920003, -0.33401766, 0.69140393, 0.64033133, -0.35185671, 0.32433075, -0.00327832, 100.29300690, 86.26172638, 29.31999969, 0.00000000
1, 0.3552, 41, 0.67456055, -1.19555664, 0.15954590, 17.17516136, 8.69804955, -5.60984516, -24.55422401, 4.29698896, -52.14849472, 101.38983917, 23.67305374, -147.86827087, 0.01905538, -0.33444420, 0.69179451, 0.63969094, -0.27313918, 0.29762110, 0.02093239, 100.29300690, 86.26172638, 29.31999969, 0.00000000
1, 0.3602, 42, 0.60980225, -1.16027832, 0.13946533, 13.36016178, 4.14804840, -7.63984585, -24.55422401, 4.29698896, -52.14849472, 101.46887970, 23.70638847, -147.83781433, 0.01877239, -0.33480164, 0.69205230, 0.63923329, -0.20789801, 0.26282343, 0.04232398, 100.29300690, 86.26172638, 29.31999969, 0.00000000
1, 0.3652, 43, 0.55346680, -1.09490967, 0.10766602, 10.10516071, -0.75195348, -8.89984608, -24.55422401, 4.29698896, -52.14849472, 101.52168274, 23.75074387, -147.83215332, 0.01835382, -0.33505765, 0.69220459, 0.63894624, -0.15089533, 0.19792941, 0.07498787, 100.29300690, 86.26172638, 29.31999969, 0.00000000
2, 0.4352, 47, 0.09217605, -1.02321780, -0.33779410, -1.30730617, 5.34174776, -10.89941311, -67.58258057, 12.13095570, -83.71820831, 71.86116028, 4.61477518, -25.11080933, 0.78458852, -0.57939410, 0.09563760, 0.19893910, -0.01197563, 0.07596821, 0.02749391, 100.34700775, 81.73015594, 0.00000000, 0.00000000
2, 0.4402, 48, 0.11206286, -1.00376737, -0.31189102, -0.05475579, 4.08900261, -9.93854141, -67.58258057, 12.13095570, -83.71820831, 71.86119843, 4.66836357, -25.10684013, 0.78452069, -0.57946908, 0.09524588, 0.19917619, -0.03089856, 0.05660007, 0.00159061, 100.34700775, 81.73015594, 0.00000000, 0.00000000
2, 0.4452, 49, 0.13644588, -0.98331589, -0.28781301, 1.48994637, 2.00081825, -8.43242836, -67.58258057, 12.13095570, -83.71820831, 71.86833954, 4.71154451, -25.11046982, 0.78441805, -0.57957244, 0.09497713, 0.19940807, -0.05448186, 0.03618193, -0.02237899, 100.34700775, 81.73015594, 0.00000000, 0.00000000
3, 0.3598, 50, 0.01551780, -1.06785345, 0.14603221, 5.16455555, -6.58290243, -67.93792725, -9.93861389, -29.52353096, -92.48757935, 106.86827850, 23.47020721, -10.28013420, 0.56631398, -0.79407805, -0.05022715, 0.21495590, 0.38141420, 0.18943366, 0.12009091, 100.40600586, 76.78147888, 32.75000000, 0.00000000
3, 0.3648, 51, 0.00617928, -1.06316245, 0.15541674, 6.65263939, -4.65254736, -71.77627563, -9.93861389, -29.52353096, -92.48757935, 106.92704010, 23.79470634, -10.19391346, 0.56552655, -0.79401290, -0.05239958, 0.21674332, 0.39607349, 0.18723944, 0.11094723, 100.40600586, 76.78147888, 32.75000000, 0.00000000
2, 0.4502, 50, 0.16785499, -0.96723276, -0.26199132, 3.78222108, -0.53916448, -6.58176374, -67.75796509, 13.09558582, -83.60128784, 71.88618469, 4.74198008, -25.12331581, 0.78426290, -0.57972443, 0.09486205, 0.19963130, -0.08530409, 0.02006483, -0.04794149, 100.34700775, 81.73015594, 0.00000000, 0.00000000
2, 0.4552, 51, 0.19330311, -0.95165640, -0.24384159, 6.18600798, -3.39354110, -4.38756561, -67.75796509, 13.09558582, -83.60128784, 71.91521454, 4.75756073, -25.14633751, 0.78405410, -0.57992464, 0.09492107, 0.19984168, -0.11041743, 0.00437179, -0.06564463, 100.34700775, 81.73015594, 0.00000000, 0.00000000
2, 0.4602, 52, 0.20934062, -0.94345874, -0.23123404, 8.62401295, -5.72813463, -2.18544507, -67.55334473, 12.56942368, -83.16281891, 71.95579529, 4.75907278, -25.17706299, 0.78379297, -0.58017880, 0.09513693, 0.20002566, -0.12636681, -0.00402096, -0.07763085, 100.34700775, 81.73015594, 0.00000000, 0.00000000
3, 0.3698, 52, 0.01127733, -1.05395639, 0.15584458, 7.42631006, -4.14782858, -74.74984741, -9.50014591, -29.31891251, -92.83834839, 107.00386047, 24.15824318, -10.09627056, 0.56456870, -0.79398167, -0.05481643, 0.21874735, 0.39651874, 0.18070740, 0.11086856, 100.40600586, 76.78147888, 32.75000000, 0.00000000
3, 0.3748, 53, 0.02239697, -1.05343390, 0.15787296, 8.95118904, -4.24056864, -77.52883911, -9.50014591, -29.31891251, -92.83834839, 107.09085846, 24.53507233, -9.99378490, 0.56352550, -0.79397172, -0.05731212, 0.22082426, 0.39134216, 0.18313986, 0.10934491, 100.40600586, 76.78147888, 32.75000000, 0.00000000
3, 0.3798, 54, 0.03658177, -1.05494976, 0.15143031, 10.18887424, -4.60497427, -80.37783051, -9.50014591, -29.31891251, -92.83834839, 107.18623352, 24.92590523, -9.88762283, 0.56240600, -0.79397196, -0.05988491, 0.22298427, 0.38330242, 0.18778315, 0.11636905, 100.40600586, 76.78147888, 32.75000000, 0.00000000
1, 0.3702, 44, 0.47222900, -0.99963379, 0.07623291, 8.04015923, -6.14195490, -9.14484596, -24.05729294, 6.34317446, -51.79771805, 101.55266571, 23.80168533, -147.85502625, 0.01779581, -0.33516899, 0.69229990, 0.63880038, -0.06886123, 0.10311277, 0.10691866, 100.29300690, 86.26172638, 29.31999969, 0.00000000
1, 0.3752, 45, 0.39074707, -0.96270752, 0.07232666, 7.48015928, -11.32195663, -8.33984566, -24.05729294, 6.34317446, -51.79771805, 101.56925964, 23.85388756, -147.90652466, 0.01711195, -0.33511111, 0.69239503, 0.63874638, 0.01344602, 0.06661136, 0.11108417, 100.29300690, 86.26172638, 29.31999969, 0.00000000
1, 0.4349, 46, -0.01378813, -0.91673672, 0.11178546, 24.06088066, 22.91422462, 53.78537750, -18.76644325, 9.52937698, -58.81321335, 101.50902557, 5.93902588, -9.53100967, -0.62627798, 0.77345157, -0.03159204, -0.09246913, 0.11820483, -0.05806467, 0.08456324, 100.41700745, 75.85894775, 30.21999931, 0.00000000
1, 0.4399, 47, -0.02211567, -0.91173947, 0.12242096, 23.98086548, 20.21425247, 51.58385849, -19.46799088, 9.50014591, -58.34551239, 101.63441467, 5.66644287, -9.48297787, -0.62569797, 0.77411866, -0.03287224, -0.09034346, 0.12171392, -0.06312488, 0.07615604, 100.41700745, 75.85894775, 30.21999931, 0.00000000
1, 0.4449, 48, -0.03485360, -0.90182781, 0.14871937, 24.08672333, 16.91661453, 49.68119812, -19.46799088, 9.50014591, -58.34551239, 101.75867462, 5.40639400, -9.44986534, -0.62509805, 0.77477300, -0.03417863, -0.08838032, 0.12981579, -0.07308149, 0.05205001, 100.41700745, 75.85894775, 30.21999931, 0.00000000
2, 0.4702, 53, 0.20884712, -0.93591827, -0.22119445, 11.97104645, -9.73687935, 1.59544027, -67.55334473, 12.56942368, -83.16281891, 72.06212616, 4.72471666, -25.25812340, 0.78316098, -0.58079243, 0.09597138, 0.20032158, -0.12637007, -0.01215523, -0.08597671, 100.34700775, 81.73015594, 0.00000000, 0.00000000
2, 0.4752, 54, 0.19749720, -0.93090993, -0.21306723, 11.96284771, -11.24033260, 3.27663660, -67.64103699, 12.86173630, -83.07512665, 72.13433838, 4.71528959, -25.30883217, 0.78271937, -0.58123064, 0.09642009, 0.20056082, -0.11535378, -0.01753354, -0.09304933, 100.34700775, 81.73015594, 0.00000000, 0.00000000
2, 0.4802, 55, 0.18104450, -0.91714025, -0.20051908, 11.28626537, -14.47687626, 4.85920668, -67.64103699, 12.86173630, -83.07512665, 72.18572998, 4.66998911, -25.37050629, 0.78241450, -0.58146882, 0.09713648, 0.20071448, -0.09942078, -0.03166908, -0.10460104, 100.34700775, 81.73015594, 0.00000000, 0.00000000
1, 0.4499, 49, -0.04408384, -0.91011393, 0.17258047, 24.12543678, 13.33486366, 47.98292923, -19.46799088, 9.50014591, -58.34551239, 101.88143158, 5.15823364, -9.43320370, -0.62448138, 0.77541238, -0.03552545, -0.08658396, 0.13462330, -0.06479657, 0.03033308, 100.41700745, 75.85894775, 30.21999931, 0.00000000
1, 0.4549, 50, -0.05044201, -0.89901364, 0.18059675, 23.57724953, 11.21251869, 46.22175980, -19.81876564, 9.50014591, -58.14089203, 102.00001526, 4.91131544, -9.42683220, -0.62388015, 0.77602214, -0.03692808, -0.08485007, 0.13670781, -0.07585137, 0.02443552, 100.41700745, 75.85894775, 30.21999931, 0.00000000
1, 0.4302, 46, -0.17156982, -0.93072510, 0.20800781, -0.46484369, 11.14805031, 20.15016556, -23.99883080, 3.82928967, -52.73311996, 101.48143768, 23.66044617, -148.69659424, 0.01425178, -0.32938546, 0.69474036, 0.63924807, 0.57334411, 0.03329858, -0.02579135, 100.29300690, 86.26172638, 29.31999969, 0.00000000
1, 0.4352, 47, -0.11828613, -0.95208740, 0.19250488, -0.21984364, 17.62305450, 22.56516457, -23.99883080, 3.82928967, -52.73311996, 101.50823975, 23.53232002, -148.62689209, 0.01541856, -0.32919258, 0.69504702, 0.63898689, 0.51808047, 0.05388558, -0.00975473, 100.29300690, 86.26172638, 29.31999969, 0.00000000
1, 0.4402, 48, -0.05743408, -0.97412109, 0.20404053, 0.30515659, 23.15305519, 24.28016281, -23.99883080, 3.82928967, -52.73311996, 101.54845428, 23.39023781, -148.52969360, 0.01679329, -0.32910159, 0.69538790, 0.63862807, 0.45500410, 0.07509068, -0.02051359, 100.29300690, 86.26172638, 29.31999969, 0.00000000
3, 0.3848, 55, 0.05570112, -1.05603302, 0.14279334, 11.57116127, -4.52478027, -83.11827850, -8.68167210, -28.73428726, -92.66296387, 107.29172516, 25.32953453, -9.77545357, 0.56120437, -0.79398936, -0.06254037, 0.22520947, 0.37051654, 0.19217128, 0.12567991, 100.40600586, 76.78147888, 32.75000000, 0.00000000
3, 0.3898, 56, 0.08105607, -1.05810332, 0.14957899, 12.66843700, -4.09946823, -85.74673462, -8.68167210, -28.73428726, -92.66296387, 107.40679932, 25.74487114, -9.65545177, 0.55993009, -0.79401958, -0.06528568, 0.22748415, 0.35166329, 0.19772381, 0.11967473, 100.40600586, 76.78147888, 32.75000000, 0.00000000
3, 0.3948, 57, 0.11414252, -1.05934978, 0.16435222, 13.62217617, -4.50622702, -88.10379791, -8.65244102, -28.14966393, -91.63986969, 107.52881622, 26.17184258, -9.53228855, 0.55859220, -0.79405063, -0.06809227, 0.22982986, 0.32523745, 0.20261675, 0.10574026, 100.40600586, 76.78147888, 32.75000000, 0.00000000
2, 0.4852, 56, 0.16250385, -0.90605378, -0.19099009, 10.35247898, -16.01255035, 6.01392555, -67.75796509, 12.89096737, -82.95819855, 72.23204803, 4.61689568, -25.43776894, 0.78213632, -0.58165634, 0.09792635, 0.20087150, -0.08177462, -0.04307834, -0.11336331, 100.34700775, 81.73015594, 0.00000000, 0.00000000
2, 0.4902, 57, 0.14433427, -0.89291817, -0.18945026, 10.08373642, -17.23210335, 6.79411173, -67.75796509, 12.89096737, -82.95819855, 72.27671814, 4.55828190, -25.50970459, 0.78186589, -0.58182013, 0.09877519, 0.20103379, -0.06460109, -0.05652751, -0.11418687, 100.34700775, 81.73015594, 0.00000000, 0.00000000
2, 0.4952, 58, 0.12378929, -0.88606107, -0.18911117, 10.26855373, -17.65168762, 7.31027365, -67.75796509, 12.89096737, -82.95819855, 72.32228088, 4.49662638, -25.58290291, 0.78159297, -0.58198386, 0.09965300, 0.20118818, -0.04511774, -0.06370464, -0.11380079, 100.34700775, 81.73015594, 0.00000000, 0.00000000
1, 0.4799, 51, -0.10058253, -0.93296003, 0.31014743, 22.92247581, 1.94282448, 38.85851288, -20.72493362, 9.03244686, -57.81935120, 102.59384155, 3.86229491, -9.45221806, -0.62063819, 0.77903765, -0.04326290, -0.07769838, 0.16799253, -0.04132434, -0.09487097, 100.41700745, 75.85894775, 30.21999931, 0.00000000
1, 0.4849, 52, -0.11091515, -0.94029748, 0.30256444, 22.63785553, 1.72081745, 37.84032440, -20.72493362, 9.03244686, -57.81935120, 102.70536804, 3.67602777, -9.48495007, -0.61999571, 0.77958661, -0.04457578, -0.07657158, 0.17508167, -0.03376245, -0.08538274, 100.41700745, 75.85894775, 30.21999931, 0.00000000
2, 0.5002, 59, 0.10059176, -0.87901938, -0.19360739, 10.79884815, -17.65097427, 7.34761095, -68.07950592, 12.71557999, -83.01666260, 72.37059021, 4.43485546, -25.65608025, 0.78130603, -0.58216500, 0.10053629, 0.20133875, -0.02299900, -0.07107718, -0.10854448, 100.34700775, 81.73015594, 0.00000000, 0.00000000
3, 0.3998, 58, 0.14199173, -1.06220853, 0.18263642, 15.11085320, -6.16273355, -90.30657959, -8.65244102, -28.14966393, -91.63986969, 107.65751648, 26.61157227, -9.41272259, 0.55717689, -0.79408240, -0.07091883, 0.23228748, 0.30422062, 0.20929340, 0.08833628, 100.40600586, 76.78147888, 32.75000000, 0.00000000
1, 0.4899, 53, -0.10982013, -0.95855224, 0.31368038, 22.90371895, 3.06777239, 36.95768738, -21.22186470, 10.02630806, -57.55627060, 102.81875610, 3.49264550, -9.51050186, -0.61934167, 0.78014600, -0.04582301, -0.07542217, 0.17075409, -0.01529035, -0.09456119, 100.41700745, 75.85894775, 30.21999931, 0.00000000
1, 0.4949, 54, -0.09363107, -0.97664392, 0.31976855, 22.71741867, 3.66878223, 36.51871109, -21.22186470, 10.02630806, -57.55627060, 102.93144226, 3.31079650, -9.53297806, -0.61869168, 0.78070033, -0.04703814, -0.07426432, 0.15137458, 0.00304266, -0.09867615, 100.41700745, 75.85894775, 30.21999931, 0.00000000
1, 0.4999, 55, -0.08163770, -0.98510253, 0.31549153, 22.55415535, 2.44972396, 36.45667648, -21.22186470, 10.02630806, -57.55627060, 103.04307556, 3.13065958, -9.56169605, -0.61804211, 0.78124374, -0.04828348, -0.07314974, 0.13624671, 0.01177042, -0.09244336, 100.41700745, 75.85894775, 30.21999931, 0.00000000
1, 0.4452, 49, 0.04974365, -1.00921631, 0.22540283, 0.44515663, 28.92805672, 25.89016533, -24.08652496, 4.58930111, -52.52849960, 101.60055542, 23.23439217, -148.40368652, 0.01838605, -0.32912198, 0.69574994, 0.63817924, 0.34539634, 0.10931432, -0.04090237, 100.29300690, 86.26172638, 29.31999969, 0.00000000
1, 0.4502, 50, 0.11566162, -1.01910400, 0.23785400, 0.58515662, 32.39305878, 27.92016602, -24.08652496, 4.58930111, -52.52849960, 101.65927124, 23.06500626, -148.26174927, 0.02013846, -0.32917631, 0.69613999, 0.63767284, 0.27680427, 0.11826739, -0.05221105, 100.29300690, 86.26172638, 29.31999969, 0.00000000
1, 0.4552, 51, 0.19219971, -1.01947021, 0.24432373, 0.79515672, 33.16305923, 29.46016693, -24.96346092, 6.10932446, -52.52849960, 101.71943665, 22.88716507, -148.11781311, 0.02195401, -0.32920426, 0.69655478, 0.63714528, 0.19743924, 0.11765176, -0.05749699, 100.29300690, 86.26172638, 29.31999969, 0.00000000
1, 0.4602, 52, 0.25537109, -1.02386475, 0.25512695, 1.63515699, 32.25305939, 30.54516602, -24.96346092, 6.10932446, -52.52849960, 101.78089905, 22.70480919, -147.98028564, 0.02375992, -0.32917354, 0.69700670, 0.63660181, 0.13134736, 0.12104198, -0.06708634, 100.29300690, 86.26172638, 29.31999969, 0.00000000
2, 0.5052, 60, 0.08037831, -0.87631035, -0.19937715, 11.53387165, -17.02289200, 6.97807169, -68.07950592, 12.71557999, -83.01666260, 72.42282104, 4.37585783, -25.72686577, 0.78099930, -0.58237779, 0.10139515, 0.20148258, -0.00382774, -0.07413361, -0.10194713, 100.34700775, 81.73015594, 0.00000000, 0.00000000
2, 0.5102, 61, 0.05962192, -0.87843853, -0.20538431, 12.36764431, -16.21750641, 6.12489080, -68.07950592, 12.59865570, -82.89973450, 72.47948456, 4.32220936, -25.79514122, 0.78066677, -0.58262932, 0.10221212, 0.20163114, 0.01597083, -0.07236681, -0.09504026, 100.34700775, 81.73015594, 0.00000000, 0.00000000
3, 0.4048, 59, 0.15851207, -1.07669461, 0.20102380, 15.99381638, -7.40747261, -92.14843750, -8.65244102, -28.14966393, -91.63986969, 107.79059601, 27.06171608, -9.29506969, 0.55570710, -0.79410434, -0.07376882, 0.23483194, 0.29467580, 0.22775018, 0.07083984, 100.40600586, 76.78147888, 32.75000000, 0.00000000
1, 0.4652, 53, 0.31256104, -1.02313232, 0.27276611, 3.24515772, 30.04805756, 31.45516968, -24.96346092, 6.10932446, -52.52849960, 101.84496307, 22.52010536, -147.85585022, 0.02550082, -0.32905433, 0.69751626, 0.63603777, 0.07119145, 0.11930664, -0.08347161, 100.29300690, 86.26172638, 29.31999969, 0.00000000
3, 0.4248, 60, 0.11840050, -1.08737755, 0.19306323, 21.81797600, -21.16864395, -102.65015411, -7.10318613, -27.15580177, -92.60449982, 108.33713531, 29.03219414, -8.95538807, 0.54912031, -0.79392153, -0.08500957, 0.24683790, 0.36489588, 0.25620976, 0.08185335, 100.40600586, 76.78147888, 32.75000000, 0.00000000
3, 0.4298, 61, 0.07676034, -1.04897630, 0.17647602, 23.84020615, -23.75562859, -105.11434174, -7.10318613, -27.15580177, -92.60449982, 108.48624420, 29.56837463, -8.89427853, 0.54724407, -0.79383773, -0.08782387, 0.25026494, 0.41465282, 0.22280702, 0.09911739, 100.40600586, 76.78147888, 32.75000000, 0.00000000
3, 0.4348, 62, 0.06815214, -1.08724272, 0.16402718, 27.33773041, -24.86097336, -106.56327057, -5.90470600, -26.83425903, -92.25372314, 108.65266418, 30.11303711, -8.83452511, 0.54522222, -0.79380101, -0.09062168, 0.25377238, 0.43149200, 0.26630765, 0.11240598, 100.40600586, 76.78147888, 32.75000000, 0.00000000
3, 0.4398, 63, 0.07123576, -1.11924541, 0.16709384, 29.26682663, -25.07354164, -107.14585114, -5.90470600, -26.83425903, -92.25372314, 108.83031464, 30.66063499, -8.77260876, 0.54311460, -0.79378617, -0.09341110, 0.25730234, 0.43665814, 0.30371729, 0.11030743, 100.40600586, 76.78147888, 32.75000000, 0.00000000
1, 0.5049, 56, -0.07999905, -0.99410176, 0.29422897, 22.91386795, 2.13710904, 36.54980087, -21.25109673, 9.70476437, -57.52703857, 103.16153717, 2.93891120, -9.59491158, -0.61734998, 0.78181589, -0.04962443, -0.07197504, 0.13142055, 0.02108841, -0.06919821, 100.41700745, 75.85894775, 30.21999931, 0.00000000
1, 0.5099, 57, -0.07859938, -1.00739229, 0.27434015, 23.16591263, 4.69570112, 35.97664261, -21.25109673, 9.70476437, -57.52703857, 103.27693176, 2.75867867, -9.61285019, -0.61667866, 0.78237820, -0.05079433, -0.07079503, 0.12682806, 0.03471958, -0.04729326, 100.41700745, 75.85894775, 30.21999931, 0.00000000
1, 0.5149, 58, -0.05829755, -1.02598166, 0.26546139, 22.91864395, 4.39688635, 35.27162552, -22.01110840, 10.28938866, -57.20549393, 103.39109039, 2.58225155, -9.63179970, -0.61601073, 0.78293163, -0.05194736, -0.06964451, 0.10344516, 0.05364113, -0.03641215, 100.41700745, 75.85894775, 30.21999931, 0.00000000
2, 0.5252, 62, 0.00192054, -0.89867014, -0.23617190, 13.35148239, -11.12022018, 1.58145165, -67.93334961, 12.86173630, -82.87050629, 72.67294312, 4.19876528, -25.96905708, 0.77955019, -0.58361840, 0.10428885, 0.20202710, 0.07150251, -0.05326927, -0.06118340, 100.34700775, 81.73015594, 0.00000000, 0.00000000
2, 0.5302, 63, -0.00697600, -0.90428585, -0.24655697, 13.38925076, -8.74829483, -0.36479121, -67.93334961, 12.86173630, -82.87050629, 72.73678589, 4.18750048, -26.01147270, 0.77916604, -0.58399826, 0.10469513, 0.20220128, 0.08001597, -0.04803158, -0.04968044, 100.34700775, 81.73015594, 0.00000000, 0.00000000
2, 0.5352, 64, -0.02055322, -0.90944237, -0.26431474, 13.23718262, -5.43485785, -3.09758162, -68.05027771, 12.56942368, -82.72434998, 72.80072784, 4.19424200, -26.04209709, 0.77877647, -0.58441436, 0.10491775, 0.20238458, 0.09364453, -0.04320178, -0.03085764, 100.34700775, 81.73015594, 0.00000000, 0.00000000
1, 0.5199, 59, -0.05082518, -1.01167464, 0.24561305, 21.86535835, 3.11447167, 34.62352753, -22.01110840, 10.28938866, -57.20549393, 103.49977112, 2.41048503, -9.65658665, -0.61537206, 0.78345168, -0.05310951, -0.06855732, 0.09300818, 0.03968460, -0.01461287, 100.41700745, 75.85894775, 30.21999931, 0.00000000
1, 0.5249, 60, -0.03255910, -0.99060941, 0.19555065, 20.76479149, 2.77491570, 33.85828781, -22.01110840, 10.28938866, -57.20549393, 103.60298920, 2.24286652, -9.68244267, -0.61476594, 0.78394055, -0.05425124, -0.06750450, 0.07193094, 0.01900617, 0.03731479, 100.41700745, 75.85894775, 30.21999931, 0.00000000
3, 0.4448, 64, 0.07800175, -1.12500727, 0.15655015, 30.89897537, -25.44531250, -109.82441711, -5.90470600, -26.83425903, -92.25372314, 109.01942444, 31.22133446, -8.70528603, 0.54090810, -0.79377478, -0.09626377, 0.26090881, 0.43824857, 0.31509653, 0.12188061, 100.40600586, 76.78147888, 32.75000000, 0.00000000
3, 0.4498, 65, 0.09835699, -1.15635645, 0.17162864, 34.25855637, -23.96227074, -111.31126404, -5.32008171, -26.42502213, -91.28909302, 109.23310089, 31.78642082, -8.62417507, 0.53854775, -0.79383242, -0.09916211, 0.26450625, 0.42629707, 0.35229269, 0.10803726, 100.40600586, 76.78147888, 32.75000000, 0.00000000
3, 0.4548, 66, 0.12870827, -1.09087384, 0.19400118, 34.69175339, -21.79058456, -111.46512604, -5.32008171, -26.42502213, -91.28909302, 109.45782471, 32.34836960, -8.52763081, 0.53614664, -0.79390311, -0.10210913, 0.26802680, 0.40428662, 0.29280320, 0.08705567, 100.40600586, 76.78147888, 32.75000000, 0.00000000
1, 0.4752, 54, 0.38305664, -0.99371338, 0.26934814, 5.27515841, 19.89805603, 32.47016907, -25.34346581, 5.84624386, -52.44080734, 101.95751953, 22.15709877, -147.68487549, 0.02855227, -0.32837379, 0.69865125, 0.63501328, -0.00518475, 0.08790258, -0.07772623, 100.29300690, 86.26172638, 29.31999969, 0.00000000
1, 0.4802, 55, 0.38232422, -0.98895264, 0.25555420, 7.34015942, 13.45805073, 33.17016983, -25.28500366, 4.26775789, -52.06079865, 102.00695801, 21.98089027, -147.65098572, 0.02977637, -0.32774428, 0.69931233, 0.63455451, -0.00731950, 0.08217081, -0.06289489, 100.29300690, 86.26172638, 29.31999969, 0.00000000
1, 0.4852, 56, 0.35089111, -0.98132324, 0.24517822, 8.53015995, 3.62304831, 34.46516800, -25.28500366, 4.26775789, -52.06079865, 102.04231262, 21.80857468, -147.67057800, 0.03071913, -0.32680365, 0.70003587, 0.63419682, 0.02131118, 0.07356889, -0.05166628, 100.29300690, 86.26172638, 29.31999969, 0.00000000
1, 0.5449, 61, 0.01645656, -0.98695123, 0.08593608, 20.27233696, 1.87735188, 31.88024902, -22.53726959, 9.23706532, -56.59164047, 104.01890564, 1.59691358, -9.78512001, -0.61229277, 0.78589588, -0.05866326, -0.06343459, 0.01187256, 0.01688204, 0.15420191, 100.41700745, 75.85894775, 30.21999931, 0.00000000
1, 0.5499, 62, 0.03717114, -0.97933400, 0.07192549, 20.25166893, -2.27053690, 31.99195480, -22.53726959, 9.23706532, -56.59164047, 104.11924744, 1.44467318, -9.83472061, -0.61167747, 0.78635007, -0.05987415, -0.06260505, -0.01148236, 0.00964304, 0.16999756, 100.41700745, 75.85894775, 30.21999931, 0.00000000
1, 0.4902, 57, 0.32189941, -0.97052002, 0.21838379, 9.19515991, -1.55695367, 34.99016953, -26.30809593, 5.99239969, -52.26541901, 102.07070160, 21.63910675, -147.71810913, 0.03150865, -0.32570371, 0.70079046, 0.63389039, 0.04754247, 0.06178910, -0.02416662, 100.29300690, 86.26172638, 29.31999969, 0.00000000
2, 0.5402, 65, -0.03345364, -0.90490222, -0.27893460, 13.48268890, -2.47186780, -5.24261475, -68.05027771, 12.56942368, -82.72434998, 72.86670685, 4.21563911, -26.06169319, 0.77837485, -0.58487457, 0.10498708, 0.20256396, 0.10685603, -0.04805625, -0.01514381, 100.34700775, 81.73015594, 0.00000000, 0.00000000
2, 0.5452, 66, -0.04133162, -0.90758413, -0.29132056, 13.37546062, 0.04031739, -7.43084526, -67.84565735, 12.51096153, -82.46126556, 72.93279266, 4.25121069, -26.07245255, 0.77796781, -0.58536309, 0.10491426, 0.20275396, 0.11529191, -0.04567472, -0.00164236, 100.34700775, 81.73015594, 0.00000000, 0.00000000
2, 0.5502, 67, -0.04285679, -0.90558338, -0.30039498, 12.71012783, 1.54389930, -9.28913307, -67.84565735, 12.51096153, -82.46126556, 72.99588776, 4.29788160, -26.07869530, 0.77756780, -0.58585066, 0.10473701, 0.20297159, 0.11758357, -0.04794810, 0.00851567, 100.34700775, 81.73015594, 0.00000000, 0.00000000
2, 0.5552, 68, -0.04182849, -0.89899182, -0.30009928, 12.54130840, 3.01265192, -11.00646877, -67.84565735, 12.51096153, -82.46126556, 73.05847931, 4.35491562, -26.08035278, 0.77716327, -0.58635306, 0.10446448, 0.20321062, 0.11750472, -0.05478743, 0.00927611, 100.34700775, 81.73015594, 0.00000000, 0.00000000
1, 0.4952, 58, 0.28979492, -0.96752930, 0.19140625, 10.24516106, -5.05695534, 34.99016953, -26.30809593, 5.99239969, -52.26541901, 102.09769440, 21.47332764, -147.78407288, 0.03217616, -0.32450762, 0.70157719, 0.63360000, 0.07694214, 0.05784220, 0.00345986, 100.29300690, 86.26172638, 29.31999969, 0.00000000
1, 0.5002, 59, 0.25207520, -0.96960449, 0.18267822, 10.45516014, -7.57695580, 34.46516800, -26.30809593, 5.99239969, -52.26541901, 102.12130737, 21.31278419, -147.86267090, 0.03274895, -0.32325736, 0.70236403, 0.63333797, 0.11202979, 0.05899221, 0.01280223, 100.29300690, 86.26172638, 29.31999969, 0.00000000
1, 0.5052, 60, 0.17895508, -0.97003174, 0.16595459, 9.61515999, -8.83695602, 33.59016800, -26.22040367, 6.08009338, -52.79158020, 102.13888550, 21.15786552, -147.94689941, 0.03327071, -0.32199705, 0.70311528, 0.63311917, 0.18261158, 0.05851802, 0.03003477, 100.29300690, 86.26172638, 29.31999969, 0.00000000
3, 0.4598, 67, 0.12216590, -1.10290897, 0.21239111, 38.12546539, -21.36343765, -111.98648071, -4.70622635, -26.65887070, -92.07833862, 109.70416260, 32.91172028, -8.42432594, 0.53360415, -0.79403532, -0.10504127, 0.27155289, 0.41910663, 0.31098676, 0.07023329, 100.40600586, 76.78147888, 32.75000000, 0.00000000
3, 0.4898, 68, 0.32066065, -1.04739594, 0.31650430, 46.07514572, -17.87798500, -112.38063812, -3.12774038, -25.48962212, -90.76293182, 111.47455597, 36.25123596, -7.62510729, 0.51677114, -0.79536045, -0.12253217, 0.29212207, 0.26870912, 0.29520556, -0.02180797, 100.40600586, 76.78147888, 32.75000000, 0.00000000
3, 0.4948, 69, 0.35883573, -0.97654909, 0.35026962, 45.50772858, -17.09482956, -111.66619873, -3.12774038, -25.48962212, -90.76293182, 111.79573059, 36.80173492, -7.46780634, 0.51385260, -0.79556042, -0.12544018, 0.29547232, 0.23829030, 0.23133150, -0.05347978, 100.40600586, 76.78147888, 32.75000000, 0.00000000
2, 0.5602, 69, -0.03945890, -0.90283221, -0.30203751, 12.23719788, 4.65078974, -12.26993370, -67.96258545, 12.80327415, -81.90587616, 73.12001038, 4.42037678, -26.07593727, 0.77676243, -0.58686507, 0.10410132, 0.20345187, 0.11623921, -0.05118115, 0.01227331, 100.34700775, 81.73015594, 0.00000000, 0.00000000
2, 0.5652, 70, -0.03030933, -0.90668464, -0.31088719, 11.65674210, 4.96985006, -13.31103706, -67.96258545, 12.80327415, -81.90587616, 73.17864990, 4.49127913, -26.07143211, 0.77636796, -0.58736455, 0.10369546, 0.20372272, 0.10830303, -0.04754008, 0.02214511, 100.34700775, 81.73015594, 0.00000000, 0.00000000
2, 0.5902, 71, -0.00360635, -0.78881603, -0.34793586, 20.50240707, 6.00112963, -14.50466919, -67.34872437, 12.71557999, -82.25665283, 73.53092194, 4.86309242, -26.02764511, 0.77409601, -0.59029591, 0.10154764, 0.20497373, 0.08804052, -0.16659564, 0.06498879, 100.34700775, 81.73015594, 0.00000000, 0.00000000
1, 0.5549, 63, 0.05916401, -0.95927978, 0.04467133, 21.11292076, -2.85969114, 32.17726517, -22.77112007, 9.85092068, -57.46857452, 104.20374298, 1.29701948, -9.88227844, -0.61116844, 0.78671992, -0.06103637, -0.06180238, -0.03601401, -0.01003309, 0.19892463, 100.41700745, 75.85894775, 30.21999931, 0.00000000
1, 0.5599, 64, 0.09278046, -0.96671569, 0.07466483, 23.68702507, -0.96190017, 32.40004349, -22.77112007, 9.85092068, -57.46857452, 104.32164001, 1.14140725, -9.92653751, -0.61043644, 0.78726393, -0.06223487, -0.06090769, -0.07236803, -0.00225496, 0.17078224, 100.41700745, 75.85894775, 30.21999931, 0.00000000
1, 0.5649, 65, 0.09739657, -0.99154150, 0.13423598, 25.04438591, -1.28066099, 33.11125946, -22.74188805, 9.90938282, -57.79011917, 104.44641113, 0.98285455, -9.97353935, -0.60965681, 0.78783900, -0.06346958, -0.06000117, -0.07988501, 0.02295743, 0.11328745, 100.41700745, 75.85894775, 30.21999931, 0.00000000
1, 0.5102, 61, 0.15216064, -0.96337891, 0.16680908, 8.84515953, -8.55695629, 33.03016663, -26.22040367, 6.08009338, -52.79158020, 102.15359497, 21.00540924, -148.02896118, 0.03379634, -0.32075974, 0.70383531, 0.63291931, 0.20691453, 0.05097664, 0.02962576, 100.29300690, 86.26172638, 29.31999969, 0.00000000
1, 0.5452, 62, 0.21832275, -0.97082520, 0.18756104, 6.60515881, -4.67195511, 25.57516479, -26.36655998, 5.23238802, -51.85618210, 102.22721100, 20.07689667, -148.49107361, 0.03725868, -0.31342694, 0.70797092, 0.63178521, 0.12544933, 0.05306062, 0.01125714, 100.29300690, 86.26172638, 29.31999969, 0.00000000
1, 0.5502, 63, 0.22918701, -0.97045898, 0.20294189, 6.60515881, -5.54695463, 25.05016518, -26.36655998, 5.23238802, -51.85618210, 102.24068451, 19.96036720, -148.54817200, 0.03768753, -0.31251073, 0.70850414, 0.63161594, 0.11265728, 0.05205563, -0.00374992, 100.29300690, 86.26172638, 29.31999969, 0.00000000
1, 0.5552, 64, 0.22735596, -0.96710205, 0.24493408, 6.57015896, -7.05195570, 24.17516327, -26.45425224, 5.72931862, -52.06079865, 102.25177765, 19.84971809, -148.61209106, 0.03804616, -0.31157961, 0.70902604, 0.63146877, 0.11263996, 0.04808433, -0.04541204, 100.29300690, 86.26172638, 29.31999969, 0.00000000
2, 0.5952, 72, 0.01275716, -0.80653489, -0.33785146, 25.83066559, 6.11779213, -14.82492256, -67.14411163, 12.77404213, -82.28588104, 73.66079712, 4.94284010, -26.01920509, 0.77332455, -0.59128827, 0.10119009, 0.20520227, 0.07305436, -0.14937468, 0.05700802, 100.34700775, 81.73015594, 0.00000000, 0.00000000
2, 0.6002, 73, 0.02321211, -0.82817966, -0.33749384, 26.03349304, 6.26175022, -15.44763565, -67.14411163, 12.77404213, -82.28588104, 73.79170227, 5.02575636, -26.01076508, 0.77254158, -0.59229052, 0.10081327, 0.20544685, 0.06402810, -0.12825556, 0.05888939, 100.34700775, 81.73015594, 0.00000000, 0.00000000
2, 0.6052, 74, 0.02949761, -0.83271039, -0.33720070, 24.86254311, 6.26261187, -15.83572388, -67.14411163, 12.77404213, -82.28588104, 73.91672516, 5.11052084, -26.00267029, 0.77178389, -0.59325379, 0.10041568, 0.20570923, 0.05920940, -0.12421088, 0.06073644, 100.34700775, 81.73015594, 0.00000000, 0.00000000
2, 0.6102, 75, 0.03123604, -0.83669591, -0.33320791, 25.46206474, 5.77976894, -15.97911644, -67.29026794, 12.45249939, -81.67202759, 74.04456329, 5.19529152, -25.99691772, 0.77100599, -0.59423268, 0.10003586, 0.20598599, 0.05894680, -0.12070748, 0.05889910, 100.34700775, 81.73015594, 0.00000000, 0.00000000
2, 0.6152, 76, 0.03433473, -0.84296215, -0.31747788, 27.04744720, 5.61198330, -16.28689384, -67.29026794, 12.45249939, -81.67202759, 74.18022156, 5.28129673, -25.99220276, 0.77018213, -0.59526354, 0.09966777, 0.20627016, 0.05733446, -0.11494622, 0.04543431, 100.34700775, 81.73015594, 0.00000000, 0.00000000
2, 0.6202, 77, 0.04553530, -0.86169106, -0.30502251, 28.87654877, 5.72349834, -16.79794312, -67.14411163, 11.16632557, -81.29202271, 74.32505035, 5.36990070, -25.98743629, 0.76930487, -0.59635782, 0.09929892, 0.20656018, 0.04766173, -0.09675611, 0.03540658, 100.34700775, 81.73015594, 0.00000000, 0.00000000
2, 0.6252, 78, 0.06247846, -0.89605981, -0.29389858, 29.61348534, 5.45073795, -17.18091774, -67.14411163, 11.16632557, -81.29202271, 74.46938324, 5.45767927, -25.98431969, 0.76842660, -0.59744459, 0.09894423, 0.20685869, 0.03225922, -0.06293114, 0.02676433, 100.34700775, 81.73015594, 0.00000000, 0.00000000
3, 0.4998, 70, 0.37733969, -0.87946099, 0.37505871, 44.93676758, -16.92245483, -111.41333008, -2.22157264, -26.45425224, -91.43524933, 112.11850739, 37.35003662, -7.30509138, 0.51094180, -0.79572892, -0.12834714, 0.29879957, 0.22743645, 0.14125507, -0.07624310, 100.40600586, 76.78147888, 32.75000000, 0.00000000
3, 0.5048, 71, 0.43014747, -0.83245450, 0.37123048, 46.36854935, -18.08599663, -110.84822083, -2.22157264, -26.45425224, -91.43524933, 112.44783020, 37.89718246, -7.14540625, 0.50798082, -0.79589486, -0.13118625, 0.30215427, 0.18221523, 0.10134943, -0.07041409, 100.40600586, 76.78147888, 32.75000000, 0.00000000
3, 0.5098, 72, 0.48241740, -0.79641539, 0.37723744, 46.98281479, -19.09212303, -109.22381592, -1.52002335, -24.20344925, -91.23063660, 112.77853394, 38.43801880, -6.99041176, 0.50501150, -0.79604822, -0.13393486, 0.30550298, 0.13740574, 0.07244138, -0.07446004, 100.40600586, 76.78147888, 32.75000000, 0.00000000
2, 0.6302, 79, 0.07221001, -0.92502952, -0.28470019, 28.87381935, 4.47921515, -17.19898415, -67.14411163, 11.16632557, -81.29202271, 74.61361694, 5.54653215, -25.98566055, 0.76753724, -0.59852672, 0.09860621, 0.20719373, 0.02405819, -0.03448410, 0.02000113, 100.34700775, 81.73015594, 0.00000000, 0.00000000
2, 0.6502, 80, 0.10288976, -1.00410366, -0.23339507, 23.63842964, 3.55418563, -15.43005562, -66.88102722, 9.32475853, -81.20432281, 75.10847473, 5.88119555, -25.99901581, 0.76440889, -0.60225785, 0.09729708, 0.20856147, -0.00076243, 0.04287444, -0.02274535, 100.34700775, 81.73015594, 0.00000000, 0.00000000
2, 0.6552, 81, 0.09895391, -1.02817607, -0.22562477, 23.05370712, 2.81745172, -14.43557453, -66.85179901, 11.83864307, -80.73662567, 75.22324371, 5.95457602, -26.00390625, 0.76368314, -0.60311329, 0.09703349, 0.20887090, 0.00447465, 0.06656091, -0.02853694, 100.34700775, 81.73015594, 0.00000000, 0.00000000
1, 0.5602, 65, 0.23333740, -0.96331787, 0.26361084, 6.04515839, -9.57195663, 23.16016579, -26.45425224, 5.72931862, -52.06079865, 102.25631714, 19.74671555, -148.68791199, 0.03830592, -0.31060919, 0.70952290, 0.63137299, 0.10492910, 0.04371781, -0.06383275, 100.29300690, 86.26172638, 29.31999969, 0.00000000
1, 0.5652, 66, 0.21759033, -0.94677734, 0.30017090, 5.13515806, -14.22695827, 22.25016594, -26.30809593, 6.37240553, -51.76848984, 102.24866486, 19.65309143, -148.78683472, 0.03840881, -0.30953678, 0.70998931, 0.63136917, 0.11911067, 0.02660865, -0.10036651, 100.29300690, 86.26172638, 29.31999969, 0.00000000
1, 0.5702, 67, 0.20611572, -0.93316650, 0.31555176, 4.92515802, -18.14695740, 22.04016495, -26.30809593, 6.37240553, -51.76848984, 102.23338318, 19.56463623, -148.90577698, 0.03838725, -0.30836210, 0.71045250, 0.63142419, 0.12911244, 0.01243785, -0.11585020, 100.29300690, 86.26172638, 29.31999969, 0.00000000
1, 0.5752, 68, 0.19342041, -0.91601563, 0.32910156, 4.85515785, -22.31196213, 21.97016335, -26.30809593, 6.37240553, -51.76848984, 102.21076202, 19.48088646, -149.04611206, 0.03823553, -0.30707413, 0.71091861, 0.63153642, 0.14041221, -0.00526983, -0.12963039, 100.29300690, 86.26172638, 29.31999969, 0.00000000
1, 0.5802, 69, 0.16870117, -0.90679932, 0.34509277, 5.48515797, -25.74196053, 21.97016335, -26.68810272, 3.68313360, -51.24232483, 102.18560791, 19.40071297, -149.20414734, 0.03796890, -0.30569214, 0.71140635, 0.63167375, 0.16379783, -0.01503393, -0.14592506, 100.29300690, 86.26172638, 29.31999969, 0.00000000
3, 0.5148, 73, 0.54927361, -0.74691409, 0.39922518, 47.34683609, -20.30579758, -107.45934296, -1.52002335, -24.20344925, -91.23063660, 113.11159515, 38.96971512, -6.83980894, 0.50203341, -0.79620045, -0.13657926, 0.30882591, 0.07784289, 0.03005978, -0.09453143, 100.40600586, 76.78147888, 32.75000000, 0.00000000
3, 0.5198, 74, 0.63984394, -0.71086818, 0.42455298, 48.78387451, -21.91004181, -105.64110565, -1.52002335, -24.20344925, -91.23063660, 113.44379425, 39.49821854, -6.70024872, 0.49903899, -0.79633361, -0.13911013, 0.31218782, -0.00556833, 0.00113562, -0.11801167, 100.40600586, 76.78147888, 32.75000000, 0.00000000
3, 0.5248, 75, 0.79128450, -0.73434591, 0.49438232, 50.18990707, -22.00383949, -103.49014282, -0.40923706, -23.56036186, -90.99678040, 113.78330994, 40.01641464, -6.56176138, 0.49601245, -0.79648829, -0.14154144, 0.31550646, -0.15000042, 0.03174946, -0.18598859, 100.40600586, 76.78147888, 32.75000000, 0.00000000
2, 0.6602, 82, 0.08939674, -1.04432654, -0.21833292, 22.64829636, 2.87546110, -13.11544609, -66.85179901, 11.83864307, -80.73662567, 75.33618927, 6.02165413, -26.00668144, 0.76297927, -0.60394925, 0.09679888, 0.20913625, 0.01522431, 0.08233220, -0.03389976, 100.34700775, 81.73015594, 0.00000000, 0.00000000
2, 0.6652, 83, 0.08532423, -1.05744219, -0.21964630, 23.37919617, 3.07058191, -11.33579922, -66.85179901, 11.83864307, -80.73662567, 75.45316315, 6.08037472, -26.00611496, 0.76227212, -0.60480314, 0.09661122, 0.20933384, 0.02035200, 0.09504917, -0.03061710, 100.34700775, 81.73015594, 0.00000000, 0.00000000
2, 0.6702, 84, 0.08036349, -1.07519829, -0.21805021, 25.20937347, 3.74977803, -9.16116810, -66.35486603, 11.75094986, -80.79508972, 75.57991791, 6.12941360, -25.99938202, 0.76153845, -0.60571408, 0.09647495, 0.20943318, 0.02621093, 0.11235841, -0.03010419, 100.34700775, 81.73015594, 0.00000000, 0.00000000
2, 0.6752, 85, 0.06911343, -1.11521125, -0.20474744, 27.60948944, 4.46191645, -6.63560915, -66.35486603, 11.75094986, -80.79508972, 75.72720337, 6.16225815, -25.98446274, 0.76073527, -0.60674661, 0.09644277, 0.20937842, 0.03812246, 0.15183721, -0.04103827, 100.34700775, 81.73015594, 0.00000000, 0.00000000
2, 0.6802, 86, 0.05250783, -1.15710831, -0.20002443, 28.72023201, 5.68083668, -2.78748846, -66.70564270, 11.72171879, -80.79508972, 75.87341309, 6.18273783, -25.96020317, 0.75997275, -0.60776305, 0.09644271, 0.20919953, 0.05510320, 0.19313616, -0.04323883, 100.34700775, 81.73015594, 0.00000000, 0.00000000
2, 0.6852, 87, 0.01687150, -1.15243471, -0.19680944, 26.50998878, 6.61720419, 0.93609434, -66.70564270, 11.72171879, -80.79508972, 76.00957489, 6.18623686, -25.92678070, 0.75930554, -0.60869819, 0.09649004, 0.20888132, 0.09089047, 0.18789248, -0.04411684, 100.34700775, 81.73015594, 0.00000000, 0.00000000
2, 0.6902, 88, -0.00552789, -1.18674314, -0.18179405, 25.31535530, 7.04129076, 3.96155286, -66.70564270, 11.72171879, -80.79508972, 76.14037323, 6.17548466, -25.88761520, 0.75869834, -0.60958403, 0.09659264, 0.20845632, 0.11316302, 0.22163147, -0.05689753, 100.34700775, 81.73015594, 0.00000000, 0.00000000
3, 0.5298, 76, 0.88082403, -0.75751555, 0.53607035, 49.76470184, -25.35895157, -101.21806335, -0.40923706, -23.56036186, -90.99678040, 114.10796356, 40.53042221, -6.44441557, 0.49304006, -0.79658079, -0.14382359, 0.31888172, -0.23267956, 0.06200491, -0.22596145, 100.40600586, 76.78147888, 32.75000000, 0.00000000
3, 0.5348, 77, 0.98160392, -0.85587013, 0.56769162, 47.48516846, -32.79649734, -95.89805603, 0.49693072, -23.18035698, -90.14907837, 114.38625336, 41.03496552, -6.38181591, 0.49025527, -0.79653448, -0.14578889, 0.32237884, -0.32673320, 0.16719429, -0.25646126, 100.40600586, 76.78147888, 32.75000000, 0.00000000
1, 0.5902, 70, 0.14257813, -0.90728760, 0.38604736, 7.65515900, -28.08696365, 22.49516487, -26.24963379, 6.19701815, -51.50540543, 102.14546967, 19.24111176, -149.54202271, 0.03728170, -0.30279586, 0.71248537, 0.63189352, 0.18729910, -0.01559103, -0.18736164, 100.29300690, 86.26172638, 29.31999969, 0.00000000
1, 0.5952, 71, 0.11791992, -0.91113281, 0.39758301, 8.84515953, -27.35196304, 22.77516365, -26.24963379, 6.19701815, -51.50540543, 102.13480377, 19.15854454, -149.70895386, 0.03694243, -0.30134767, 0.71307379, 0.63194203, 0.21060358, -0.01224983, -0.19899607, 100.29300690, 86.26172638, 29.31999969, 0.00000000
1, 0.6002, 72, 0.10882568, -0.93096924, 0.42773438, 10.56016064, -24.23696136, 22.98516464, -26.24963379, 6.19701815, -51.50540543, 102.13817596, 19.07166290, -149.85992432, 0.03668323, -0.29998088, 0.71370542, 0.63189429, 0.21828631, 0.00710565, -0.22905457, 100.29300690, 86.26172638, 29.31999969, 0.00000000
1, 0.5699, 66, 0.06753002, -1.00431883, 0.19318748, 24.77235031, -2.04337263, 34.32337189, -22.74188805, 9.90938282, -57.79011917, 104.56987762, 0.81948382, -10.02608395, -0.60888541, 0.78839880, -0.06476528, -0.05908905, -0.05298936, 0.03613318, 0.05634420, 100.41700745, 75.85894775, 30.21999931, 0.00000000
1, 0.5749, 67, 0.05746066, -0.99685466, 0.22374159, 24.60197830, -2.48184586, 35.12129211, -22.74188805, 9.90938282, -57.79011917, 104.69261932, 0.65290999, -10.08211040, -0.60811847, 0.78894800, -0.06609951, -0.05817103, -0.04589441, 0.02912288, 0.02786846, 100.41700745, 75.85894775, 30.21999931, 0.00000000
1, 0.5799, 68, 0.04833366, -0.97537088, 0.26046258, 23.91320610, -1.28206491, 35.68442917, -23.29728127, 10.17246437, -57.79011917, 104.81211090, 0.48220438, -10.13338852, -0.60737813, 0.78947765, -0.06741920, -0.05719849, -0.03982143, 0.00808152, -0.00680325, 100.41700745, 75.85894775, 30.21999931, 0.00000000
3, 0.5648, 78, 0.29188105, -0.60491663, 0.04703127, 18.29909515, -69.35008240, -55.67599487, 1.14001751, -22.68342590, -90.44139099, 114.61231995, 43.69449234, -7.16480875, 0.48080808, -0.79216003, -0.15180713, 0.34389043, 0.39775375, -0.05329201, 0.25490001, 100.40600586, 76.78147888, 32.75000000, 0.00000000
3, 0.5698, 79, 0.26996753, -0.56094670, 0.11782844, 17.31568527, -57.26048660, -49.75534439, 1.14001751, -22.68342590, -90.44139099, 114.54811096, 44.03981400, -7.38241005, 0.47983947, -0.79133004, -0.15206487, 0.34702620, 0.42415655, -0.09377534, 0.18138516, 100.40600586, 76.78147888, 32.75000000, 0.00000000
2, 0.6952, 89, -0.01912852, -1.20918691, -0.17914850, 21.53980064, 7.04672194, 6.72493553, -66.82256317, 10.64016342, -81.05816650, 76.25263977, 6.15123844, -25.84513283, 0.75821584, -0.61033261, 0.09673412, 0.20795539, 0.12640081, 0.24354896, -0.05757046, 100.34700775, 81.73015594, 0.00000000, 0.00000000
2, 0.7002, 90, -0.03473477, -1.17794371, -0.19154349, 16.45292664, 6.39472055, 9.05495739, -66.82256317, 10.64016342, -81.05816650, 76.33939362, 6.11482620, -25.80310249, 0.75788665, -0.61089653, 0.09691298, 0.20741601, 0.14142399, 0.21186118, -0.04361995, 100.34700775, 81.73015594, 0.00000000, 0.00000000
2, 0.7052, 91, -0.04513934, -1.13623500, -0.20758703, 14.85214806, 6.37815523, 10.75066376, -66.41333008, 11.66325665, -80.06430817, 76.41831970, 6.07009602, -25.75920486, 0.75761467, -0.61139971, 0.09712301, 0.20682763, 0.15108515, 0.16974990, -0.02625458, 100.34700775, 81.73015594, 0.00000000, 0.00000000
3, 0.5748, 80, 0.23426396, -0.56419182, 0.18351415, 13.41571712, -37.14819336, -43.60386276, 1.19848001, -21.86495209, -91.14293671, 114.53902435, 44.31528854, -7.49171925, 0.47896081, -0.79075658, -0.15258898, 0.34930965, 0.46353596, -0.08740775, 0.11396217, 100.40600586, 76.78147888, 32.75000000, 0.00000000
3, 0.5798, 81, 0.20647641, -0.56837028, 0.19543596, 9.30131817, -19.88858223, -36.19034576, 1.19848001, -21.86495209, -91.14293671, 114.57060242, 44.52119827, -7.51306915, 0.47821981, -0.79040563, -0.15327996, 0.35081351, 0.49410674, -0.08063631, 0.10116696, 100.40600586, 76.78147888, 32.75000000, 0.00000000
3, 0.5848, 82, 0.18670943, -0.56001419, 0.16611187, 6.14465761, -8.41228580, -28.05133057, 0.99386144, -21.92341423, -90.85062408, 114.62117004, 44.66624069, -7.48480320, 0.47763431, -0.79021674, -0.15397765, 0.35172978, 0.51586074, -0.08697242, 0.13020411, 100.40600586, 76.78147888, 32.75000000, 0.00000000
1, 0.5849, 69, 0.04812578, -0.96436989, 0.29232985, 24.72749138, -0.80497295, 36.42153931, -23.29728127, 10.17246437, -57.79011917, 104.93585205, 0.30744153, -10.18365860, -0.60661066, 0.79002512, -0.06875335, -0.05618737, -0.04272141, -0.00244659, -0.03658111, 100.41700745, 75.85894775, 30.21999931, 0.00000000
2, 0.7102, 92, -0.05613229, -1.13181055, -0.20091230, 13.63566875, 6.05324507, 12.09593296, -66.41333008, 11.66325665, -80.06430817, 76.49111938, 6.01838732, -25.71537209, 0.75738543, -0.61185366, 0.09736863, 0.20620842, 0.16121134, 0.16493185, -0.03168954, 100.34700775, 81.73015594, 0.00000000, 0.00000000
2, 0.7152, 93, -0.06639293, -1.12570822, -0.18443817, 11.31968212, 6.04033232, 13.16240692, -66.41333008, 11.66325665, -80.06430817, 76.55242157, 5.96142912, -25.67041588, 0.75722694, -0.61222601, 0.09762222, 0.20556401, 0.17050365, 0.15846920, -0.04709907, 100.34700775, 81.73015594, 0.00000000, 0.00000000
2, 0.7202, 94, -0.06419493, -1.10738015, -0.17973641, 8.68079948, 6.54875183, 13.95695305, -66.00408936, 11.13709450, -79.94738007, 76.60081482, 5.90115070, -25.62210846, 0.75714803, -0.61251199, 0.09785654, 0.20489091, 0.16727236, 0.13982941, -0.05095899, 100.34700775, 81.73015594, 0.00000000, 0.00000000
1, 0.6052, 73, 0.09979248, -0.94628906, 0.44854736, 11.26015949, -21.50695801, 23.37016487, -26.74656487, 6.31394339, -51.85618210, 102.14975739, 18.98004532, -149.99711609, 0.03651042, -0.29867786, 0.71435547, 0.63178706, 0.22582987, 0.02195555, -0.24960671, 100.29300690, 86.26172638, 29.31999969, 0.00000000
1, 0.6102, 74, 0.07177734, -0.96545410, 0.44976807, 11.50516033, -17.41195869, 23.72016525, -26.74656487, 6.31394339, -51.85618210, 102.16952515, 18.88244629, -150.11349487, 0.03647164, -0.29747659, 0.71500880, 0.63161695, 0.25226197, 0.04065046, -0.25042772, 100.29300690, 86.26172638, 29.31999969, 0.00000000
1, 0.6152, 75, 0.06695557, -0.97894287, 0.43151855, 12.06516075, -12.19695854, 24.14016533, -26.30809593, 5.72931862, -51.50540543, 102.20082855, 18.77733612, -150.20338440, 0.03659980, -0.29640630, 0.71567345, 0.63135993, 0.25537801, 0.05366839, -0.23159903, 100.29300690, 86.26172638, 29.31999969, 0.00000000
1, 0.6202, 76, 0.05242920, -0.99078369, 0.42132568, 12.83516121, -6.91195583, 24.70016479, -26.30809593, 5.72931862, -51.50540543, 102.24469757, 18.66394615, -150.26666260, 0.03689840, -0.29546478, 0.71635699, 0.63100857, 0.26806438, 0.06504121, -0.22061580, 100.29300690, 86.26172638, 29.31999969, 0.00000000
1, 0.6252, 77, 0.03491211, -1.00885010, 0.40252686, 13.15016079, -1.38195372, 25.12016296, -26.30809593, 5.72931862, -51.50540543, 102.29919434, 18.54268074, -150.30195618, 0.03737729, -0.29466251, 0.71704453, 0.63057441, 0.28361031, 0.08264059, -0.20083618, 100.29300690, 86.26172638, 29.31999969, 0.00000000
2, 0.7252, 95, -0.05294582, -1.08662260, -0.17892712, 6.99001884, 6.68141603, 14.29846859, -66.00408936, 11.13709450, -79.94738007, 76.65198517, 5.81508827, -25.56845284, 0.75710243, -0.61278880, 0.09824015, 0.20404580, 0.15474465, 0.11875200, -0.05099332, 100.34700775, 81.73015594, 0.00000000, 0.00000000
1, 0.5899, 70, 0.01961311, -0.96200943, 0.31488597, 24.19423294, 2.17914867, 36.70977020, -23.61882401, 10.49400711, -57.11780167, 105.05713654, 0.12755647, -10.22025871, -0.60586900, 0.79056197, -0.07001673, -0.05506729, -0.01737943, -0.00430713, -0.05714038, 100.41700745, 75.85894775, 30.21999931, 0.00000000
3, 0.5898, 83, 0.16029534, -0.55139530, 0.12511460, 3.27218342, 2.89651084, -20.26690102, 0.99386144, -21.92341423, -90.85062408, 114.69242859, 44.75228882, -7.40680122, 0.47719073, -0.79019290, -0.15468650, 0.35207415, 0.54352742, -0.09412763, 0.17142108, 100.40600586, 76.78147888, 32.75000000, 0.00000000
3, 0.5948, 84, 0.15986085, -0.53672779, 0.11364302, 0.57926643, 17.40230942, -13.70512009, 0.99386144, -21.92341423, -90.85062408, 114.80214691, 44.77811050, -7.25510216, 0.47684252, -0.79037952, -0.15551239, 0.35176331, 0.54446852, -0.10782640, 0.18379641, 100.40600586, 76.78147888, 32.75000000, 0.00000000
3, 0.5998, 85, 0.17848787, -0.51819676, 0.12877843, -1.14867437, 33.85305786, -8.21443272, 2.07541656, -21.80648994, -91.43524933, 114.96582794, 44.74414444, -7.01450777, 0.47652572, -0.79081857, -0.15651746, 0.35075852, 0.52560675, -0.12578940, 0.17044102, 100.40600586, 76.78147888, 32.75000000, 0.00000000
1, 0.6149, 71, -0.10452059, -0.96722686, 0.38158756, 21.52677917, 16.85715103, 36.63790131, -23.18035698, 9.82168961, -57.00087738, 105.64710236, -0.85665691, -10.18408966, -0.60239899, 0.79321051, -0.07521636, -0.04769830, 0.08948457, 0.00362884, -0.11419726, 100.41700745, 75.85894775, 30.21999931, 0.00000000
1, 0.6199, 72, -0.10114291, -0.95594716, 0.40372920, 21.04048729, 18.77502441, 36.37433243, -23.18035698, 9.82168961, -57.00087738, 105.75206757, -1.05682313, -10.14252472, -0.60180378, 0.79368448, -0.07602116, -0.04602311, 0.08256727, -0.00713516, -0.13454828, 100.41700745, 75.85894775, 30.21999931, 0.00000000
1, 0.6249, 73, -0.09783009, -0.95403433, 0.38188750, 20.06556702, 17.21538353, 37.15576935, -23.18035698, 9.82168961, -57.00087738, 105.85219574, -1.25871849, -10.10988712, -0.60123616, 0.79412395, -0.07689183, -0.04438431, 0.07579638, -0.00846622, -0.11101288, 100.41700745, 75.85894775, 30.21999931, 0.00000000
1, 0.6352, 78, -0.00177002, -1.03564453, 0.36865234, 12.17016125, 12.05805111, 26.20516586, -26.45425224, 6.86933661, -52.03157043, 102.43486023, 18.27079964, -150.26924133, 0.03903379, -0.29356948, 0.71836871, 0.62947577, 0.31587180, 0.10846278, -0.16451111, 100.29300690, 86.26172638, 29.31999969, 0.00000000
1, 0.6402, 79, -0.00750732, -1.04180908, 0.33837891, 11.08516026, 16.08305168, 27.18516541, -25.37269783, 6.63548660, -51.65156174, 102.50643921, 18.12071609, -150.21748352, 0.04014255, -0.29317769, 0.71899319, 0.62887537, 0.31915778, 0.11409461, -0.13290562, 100.29300690, 86.26172638, 29.31999969, 0.00000000
2, 0.7302, 96, -0.03874822, -1.05292451, -0.19023454, 4.48640776, 6.57058048, 14.56289196, -66.32563782, 11.98479939, -79.65506744, 76.67936707, 5.75181246, -25.51944542, 0.75714016, -0.61293298, 0.09845242, 0.20336977, 0.13924189, 0.08477677, -0.03909240, 100.34700775, 81.73015594, 0.00000000, 0.00000000
2, 0.7352, 97, -0.02934018, -1.03859544, -0.19280526, 2.75671101, 7.01666737, 14.70028400, -66.32563782, 11.98479939, -79.65506744, 76.69826508, 5.68836308, -25.46812630, 0.75722682, -0.61302304, 0.09863820, 0.20268457, 0.12873459, 0.07025862, -0.03620217, 100.34700775, 81.73015594, 0.00000000, 0.00000000
2, 0.7402, 98, -0.01637356, -1.01646197, -0.19926128, 1.69619215, 7.67272043, 14.73972988, -66.03332520, 11.78018093, -80.00584412, 76.71213531, 5.62546349, -25.41357231, 0.75734448, -0.61308336, 0.09879391, 0.20198494, 0.11467063, 0.04796112, -0.02952545, 100.34700775, 81.73015594, 0.00000000, 0.00000000
2, 0.7452, 99, -0.00045396, -0.99052364, -0.20064345, 1.47861910, 8.26382256, 14.43458462, -66.03332520, 11.78018093, -80.00584412, 76.72509766, 5.56471777, -25.35650444, 0.75746751, -0.61314273, 0.09891997, 0.20128046, 0.09768274, 0.02186958, -0.02795177, 100.34700775, 81.73015594, 0.00000000, 0.00000000
3, 0.6048, 86, 0.19880976, -0.50580764, 0.15781772, -2.73388100, 49.95624924, -2.65946746, 2.07541656, -21.80648994, -91.43524933, 115.18160248, 44.65032959, -6.68829966, 0.47623700, -0.79150629, -0.15768936, 0.34907052, 0.50430560, -0.13799025, 0.14409691, 100.40600586, 76.78147888, 32.75000000, 0.00000000
3, 0.6098, 87, 0.22678931, -0.49558839, 0.18158041, -5.67318010, 64.44633484, 4.74370527, 1.60771704, -21.07570839, -91.72756195, 115.43025208, 44.49114227, -6.29360819, 0.47605973, -0.79239959, -0.15895043, 0.34670582, 0.47456920, -0.14848912, 0.12380327, 100.40600586, 76.78147888, 32.75000000, 0.00000000
1, 0.6299, 74, -0.11059190, -0.96457875, 0.37759003, 19.37515068, 15.62680721, 37.79268646, -23.91113663, 10.55247021, -56.65010071, 105.94899750, -1.46158481, -10.08610630, -0.60068601, 0.79453713, -0.07782477, -0.04278579, 0.08502546, 0.00263042, -0.10514353, 100.41700745, 75.85894775, 30.21999931, 0.00000000
1, 0.6349, 75, -0.11112037, -0.98073125, 0.36445451, 18.23169518, 16.00624084, 37.53587341, -23.91113663, 10.55247021, -56.65010071, 106.03990936, -1.66378677, -10.06048298, -0.60017413, 0.79491860, -0.07873648, -0.04118455, 0.08205545, 0.01933648, -0.09051546, 100.41700745, 75.85894775, 30.21999931, 0.00000000
1, 0.6399, 76, -0.10609277, -0.98489559, 0.36295825, 17.06816864, 15.03448963, 36.96668625, -24.26191139, 11.45863724, -56.21163177, 106.12506866, -1.86197686, -10.03906727, -0.59969592, 0.79526693, -0.07965180, -0.03963564, 0.07355164, 0.02402116, -0.08759072, 100.41700745, 75.85894775, 30.21999931, 0.00000000
3, 0.6548, 88, 0.39090109, -0.56270033, 0.23819184, -40.22699356, 110.91816711, 60.71802902, 1.72464192, -21.83572006, -89.65214539, 117.26789856, 40.96893311, -1.87366843, 0.48264042, -0.80273849, -0.16904989, 0.30674306, 0.26648739, -0.10726044, 0.10675409, 100.40600586, 76.78147888, 32.75000000, 0.00000000
3, 0.6598, 89, 0.42447612, -0.58132136, 0.23953508, -44.32284546, 109.93208313, 65.08498383, 1.98772287, -22.24495697, -89.15522003, 117.33800507, 40.42761993, -1.42633426, 0.48424456, -0.80374265, -0.16967541, 0.30118966, 0.22581597, -0.09360276, 0.10916553, 100.40600586, 76.78147888, 32.75000000, 0.00000000
3, 0.6648, 90, 0.45740572, -0.59717363, 0.24437995, -47.77947235, 106.17764282, 69.62216949, 1.98772287, -22.24495697, -89.15522003, 117.35976410, 39.87276459, -1.01999032, 0.48605549, -0.80462682, -0.17009097, 0.29562616, 0.18554531, -0.08306531, 0.10759042, 100.40600586, 76.78147888, 32.75000000, 0.00000000
3, 0.6698, 91, 0.48002678, -0.61353916, 0.26350361, -51.06211090, 100.52923584, 73.96038818, 1.98772287, -22.24495697, -89.15522003, 117.33322144, 39.31338120, -0.66106308, 0.48804763, -0.80537575, -0.17028192, 0.29014412, 0.15542360, -0.07232948, 0.09115272, 100.40600586, 76.78147888, 32.75000000, 0.00000000
3, 0.6748, 92, 0.49431860, -0.62636673, 0.29956901, -53.98896408, 93.59899139, 78.41947937, 1.40309846, -23.03420067, -88.68751526, 117.25470734, 38.75031281, -0.35714218, 0.49023375, -0.80598009, -0.17019977, 0.28477889, 0.13352399, -0.06541733, 0.05714142, 100.40600586, 76.78147888, 32.75000000, 0.00000000
2, 0.7502, 100, 0.01457023, -0.97022545, -0.20970404, 2.70277500, 8.65360832, 13.64661884, -66.03332520, 11.78018093, -80.00584412, 76.74421692, 5.50823355, -25.29846764, 0.75755227, -0.61324906, 0.09902278, 0.20058623, 0.08165678, 0.00140590, -0.01861385, 100.34700775, 81.73015594, 0.00000000, 0.00000000
2, 0.7552, 101, 0.02634881, -0.96125615, -0.20513585, 3.04267788, 8.93863010, 12.74852371, -67.05641174, 12.21864891, -79.77199554, 76.76502228, 5.45642996, -25.24008751, 0.75762075, -0.61337268, 0.09909502, 0.19991243, 0.06896113, -0.00773072, -0.02285613, 100.34700775, 81.73015594, 0.00000000, 0.00000000
2, 0.7602, 102, 0.03451551, -0.94707155, -0.20189533, 2.71298194, 9.67143917, 12.02772331, -67.05641174, 12.21864891, -79.77199554, 76.78437042, 5.40895081, -25.17897987, 0.75769472, -0.61349463, 0.09912087, 0.19924423, 0.05994853, -0.02207292, -0.02577854, 100.34700775, 81.73015594, 0.00000000, 0.00000000
2, 0.7652, 103, 0.03991595, -0.93718266, -0.20324457, 2.84046865, 10.64847088, 11.20846748, -67.29026794, 11.95556831, -79.56737518, 76.80467224, 5.36655331, -25.11405563, 0.75776196, -0.61363250, 0.09909353, 0.19857629, 0.05379000, -0.03211028, -0.02411046, 100.34700775, 81.73015594, 0.00000000, 0.00000000
1, 0.6449, 77, -0.12240914, -0.98120701, 0.35427693, 16.14502144, 11.80373096, 36.27048874, -24.26191139, 11.45863724, -56.21163177, 106.20600891, -2.05238199, -10.03249359, -0.59923548, 0.79558504, -0.08062577, -0.03821998, 0.08653352, 0.02085277, -0.07759891, 100.41700745, 75.85894775, 30.21999931, 0.00000000
1, 0.6499, 78, -0.13649884, -0.96773386, 0.32203025, 15.19748688, 10.62419128, 35.72865295, -24.26191139, 11.45863724, -56.21163177, 106.28238678, -2.23856950, -10.03110790, -0.59880096, 0.79587591, -0.08161019, -0.03686257, 0.09744275, 0.00792266, -0.04410810, 100.41700745, 75.85894775, 30.21999931, 0.00000000
1, 0.6899, 79, -0.26130819, -0.94475842, 0.32496214, 13.69209862, 7.39904213, 30.20280457, -25.43115997, 11.28325081, -55.86085892, 106.86608887, -3.61583424, -10.14059544, -0.59537476, 0.79795891, -0.08966842, -0.02738632, 0.19809702, -0.01098278, -0.03787534, 100.41700745, 75.85894775, 30.21999931, 0.00000000
1, 0.6949, 80, -0.28146902, -0.94310427, 0.30841693, 12.65228462, 7.80361700, 28.92875290, -25.43115997, 11.28325081, -55.86085892, 106.93000031, -3.76542664, -10.14502048, -0.59499639, 0.79818505, -0.09048522, -0.02631281, 0.21567269, -0.01211935, -0.02033909, 100.41700745, 75.85894775, 30.21999931, 0.00000000
1, 0.6452, 80, -0.01263428, -1.03442383, 0.32348633, 10.28016090, 19.05805397, 28.02516747, -25.37269783, 6.63548660, -51.65156174, 102.57823944, 17.96323967, -150.15165710, 0.04137789, -0.29283908, 0.71959960, 0.62825918, 0.32170129, 0.10614441, -0.11666673, 100.29300690, 86.26172638, 29.31999969, 0.00000000
1, 0.6502, 81, -0.02502441, -1.03039551, 0.30206299, 9.61515999, 20.98305511, 29.04016495, -25.37269783, 6.63548660, -51.65156174, 102.64912415, 17.79862976, -150.07739258, 0.04270989, -0.29251945, 0.72019547, 0.62763590, 0.33138803, 0.10152058, -0.09389919, 100.29300690, 86.26172638, 29.31999969, 0.00000000
1, 0.6552, 82, -0.04687500, -1.03186035, 0.28857422, 8.84515953, 22.90805626, 29.98516846, -27.36042023, 6.48933077, -51.41771317, 102.71852112, 17.62721062, -149.99465942, 0.04413798, -0.29222056, 0.72077674, 0.62700880, 0.35041565, 0.10235715, -0.07908388, 100.29300690, 86.26172638, 29.31999969, 0.00000000
2, 0.7702, 104, 0.03844810, -0.94665170, -0.19688153, 2.85549092, 11.69818974, 9.93775940, -67.29026794, 11.95556831, -79.56737518, 76.82534790, 5.33151722, -25.04547691, 0.75782204, -0.61378521, 0.09899756, 0.19792213, 0.05461368, -0.02278233, -0.03013660, 100.34700775, 81.73015594, 0.00000000, 0.00000000
2, 0.8252, 105, -0.02131383, -0.98383605, -0.19261923, 5.54576254, 27.83721161, 2.99444366, -67.55334473, 12.27711201, -80.12277222, 77.20166779, 5.24421883, -23.93571091, 0.75780571, -0.61710483, 0.09426051, 0.18980844, 0.11279613, 0.01281560, -0.02817560, 100.34700775, 81.73015594, 0.00000000, 0.00000000
2, 0.8302, 106, -0.02431241, -0.97368294, -0.19225752, 5.29447794, 29.05025291, 2.90702939, -66.73487091, 10.61093235, -80.18123627, 77.24147034, 5.26217127, -23.79023361, 0.75780606, -0.61750805, 0.09342198, 0.18890816, 0.11594460, 0.00251558, -0.02782769, 100.34700775, 81.73015594, 0.00000000, 0.00000000
3, 0.6798, 93, 0.51187629, -0.64035898, 0.33020794, -56.88343048, 85.08261871, 82.85953522, 1.40309846, -23.03420067, -88.68751526, 117.12057495, 38.18740463, -0.11561469, 0.49262369, -0.80642277, -0.16980955, 0.27958724, 0.10828421, -0.05762731, 0.02785637, 100.40600586, 76.78147888, 32.75000000, 0.00000000
3, 0.6848, 94, 0.50802678, -0.65632784, 0.34015930, -60.27906799, 75.91056824, 87.54195404, 0.96463019, -22.71265602, -88.95059967, 116.92760468, 37.62501144, 0.06082961, 0.49524206, -0.80668879, -0.16909330, 0.27458334, 0.10440435, -0.04816023, 0.01847454, 100.40600586, 76.78147888, 32.75000000, 0.00000000
3, 0.6898, 95, 0.50015730, -0.67545003, 0.35395682, -63.38626099, 67.66594696, 92.26714325, 0.96463019, -22.71265602, -88.95059967, 116.68237305, 37.06065750, 0.17897438, 0.49807110, -0.80679762, -0.16806431, 0.26973566, 0.10446718, -0.03583369, 0.00450897, 100.40600586, 76.78147888, 32.75000000, 0.00000000
3, 0.6948, 96, 0.49691379, -0.68986434, 0.36192936, -66.63505554, 59.10261536, 97.44452667, 0.96463019, -22.71265602, -88.95059967, 116.38415527, 36.49273300, 0.23731026, 0.50112182, -0.80674642, -0.16669963, 0.26504424, 0.09979777, -0.02851427, -0.00435375, 100.40600586, 76.78147888, 32.75000000, 0.00000000
3, 0.6998, 97, 0.48812750, -0.68957645, 0.36226964, -69.59817505, 50.57413483, 102.47941589, 1.69541073, -23.94036865, -89.35983276, 116.03665161, 35.92127991, 0.23798127, 0.50437993, -0.80654168, -0.16499954, 0.26051232, 0.10057145, -0.03614063, -0.00623572, 100.40600586, 76.78147888, 32.75000000, 0.00000000
2, 0.8352, 107, -0.02009573, -0.98117894, -0.19213960, 5.71691847, 30.40148163, 3.03353906, -66.73487091, 10.61093235, -80.18123627, 77.28404236, 5.28089190, -23.63797569, 0.75780022, -0.61793476, 0.09254552, 0.18796523, 0.11205301, 0.00987962, -0.02722665, 100.34700775, 81.73015594, 0.00000000, 0.00000000
2, 0.8402, 108, -0.01740247, -0.98548150, -0.19129482, 5.25878382, 33.13393784, 3.55887341, -67.17333984, 11.66325665, -80.35662079, 77.32566071, 5.29994059, -23.47173882, 0.75782061, -0.61836535, 0.09158894, 0.18693277, 0.10969062, 0.01405174, -0.02735359, 100.34700775, 81.73015594, 0.00000000, 0.00000000
2, 0.8452, 109, -0.00405209, -1.01383150, -0.17841327, 4.98010254, 34.06558228, 3.98866034, -67.17333984, 11.66325665, -80.35662079, 77.36640930, 5.31779385, -23.30044937, 0.75785398, -0.61879116, 0.09061065, 0.18586163, 0.09665739, 0.04227361, -0.03953024, 100.34700775, 81.73015594, 0.00000000, 0.00000000
2, 0.8502, 110, -0.00388396, -0.99594915, -0.17667192, 2.62031198, 34.36885452, 4.50333929, -67.64103699, 12.48173046, -80.12277222, 77.39559937, 5.33336210, -23.12709045, 0.75795478, -0.61913800, 0.08961690, 0.18477419, 0.09676752, 0.02429301, -0.04071432, 100.34700775, 81.73015594, 0.00000000, 0.00000000
2, 0.8552, 111, -0.00714119, -0.98509163, -0.18768543, 2.98077059, 35.09214401, 5.14171171, -67.64103699, 12.48173046, -80.12277222, 77.42703247, 5.34651279, -22.94947433, 0.75805211, -0.61949867, 0.08861917, 0.18364428, 0.10026765, 0.01334557, -0.02919459, 100.34700775, 81.73015594, 0.00000000, 0.00000000
2, 0.8602, 112, 0.00400824, -1.00317824, -0.17359677, 1.85968375, 35.60395432, 5.87408972, -67.64103699, 12.48173046, -80.12277222, 77.45320892, 5.35655785, -22.76853752, 0.75818557, -0.61982203, 0.08761511, 0.18248016, 0.08930320, 0.03133995, -0.04279021, 100.34700775, 81.73015594, 0.00000000, 0.00000000
2, 0.8652, 113, 0.01099446, -0.99093741, -0.17422485, -0.22042486, 35.42489243, 6.10476875, -67.17333984, 12.51096153, -80.59046936, 77.46896362, 5.36521673, -22.58822250, 0.75837457, -0.62007272, 0.08660643, 0.18132076, 0.08247435, 0.01904580, -0.04185425, 100.34700775, 81.73015594, 0.00000000, 0.00000000
3, 0.7648, 98, 0.38824269, -0.84846914, 0.26090717, -91.18379211, 53.38214493, 157.93925476, -3.50774622, -25.86962891, -90.35369873, 110.08435822, 26.59372330, -0.59500736, 0.55662668, -0.79827595, -0.12763859, 0.19139186, 0.06268872, 0.01082567, 0.04730951, 100.40600586, 76.78147888, 32.75000000, 0.00000000
3, 0.7698, 99, 0.38971391, -0.86592019, 0.27408981, -92.84535217, 57.13646698, 160.48321533, -3.50774622, -25.86962891, -90.35369873, 109.61825562, 25.74199677, -0.59921920, 0.56086266, -0.79736304, -0.12420733, 0.18498018, 0.04796732, 0.01960746, 0.02950943, 100.40600586, 76.78147888, 32.75000000, 0.00000000
3, 0.7748, 100, 0.38981608, -0.90392691, 0.28313708, -94.14714813, 59.93944931, 163.81605530, -5.05700064, -26.60040855, -91.05524445, 109.15264893, 24.86988258, -0.58721715, 0.56511444, -0.79640096, -0.12073017, 0.17836876, 0.03421084, 0.04901965, 0.01572180, 100.40600586, 76.78147888, 32.75000000, 0.00000000
3, 0.7798, 101, 0.38302913, -0.93085873, 0.28625882, -95.13520813, 60.30530930, 166.48760986, -5.05700064, -26.60040855, -91.05524445, 108.68394470, 23.98465347, -0.57036847, 0.56937659, -0.79537106, -0.11716756, 0.17166010, 0.02699011, 0.06745978, 0.00769337, 100.40600586, 76.78147888, 32.75000000, 0.00000000
3, 0.7848, 102, 0.36570975, -0.95101428, 0.29025292, -97.31291962, 59.53764725, 167.86529541, -5.05700064, -26.60040855, -91.05524445, 108.20471954, 23.09426498, -0.55199194, 0.57368422, -0.79422629, -0.11354534, 0.16491935, 0.03010276, 0.07925821, -0.00154024, 100.40600586, 76.78147888, 32.75000000, 0.00000000
1, 0.6999, 81, -0.30900478, -0.93923712, 0.29260805, 12.17006969, 9.21687412, 27.91701317, -25.43115997, 11.28325081, -55.86085892, 106.99094391, -3.91223717, -10.14136505, -0.59463817, 0.79840267, -0.09122942, -0.02521825, 0.24068081, -0.01548493, -0.00361625, 100.41700745, 75.85894775, 30.21999931, 0.00000000
1, 0.7049, 82, -0.31516317, -0.94203830, 0.29263365, 12.36103535, 10.87647629, 27.04278183, -26.42502213, 11.31248188, -55.97778320, 107.05307770, -4.08376741, -10.13209629, -0.59428257, 0.79861194, -0.09206058, -0.02391973, 0.24407375, -0.01218723, -0.00269213, 100.41700745, 75.85894775, 30.21999931, 0.00000000
1, 0.7099, 83, -0.30876702, -0.94632173, 0.29653695, 11.77610683, 11.87941933, 25.67204666, -26.42502213, 11.31248188, -55.97778320, 107.11086273, -4.22373772, -10.11269665, -0.59394407, 0.79882771, -0.09265655, -0.02279231, 0.23497809, -0.00742116, -0.00565174, 100.41700745, 75.85894775, 30.21999931, 0.00000000
2, 0.8802, 114, 0.02039999, -0.96002841, -0.16422221, -4.86974192, 37.58905792, 7.36632538, -66.99795532, 10.17246437, -80.47354126, 77.48026276, 5.37338591, -22.02380753, 0.75918615, -0.62057525, 0.08351385, 0.17761822, 0.07322679, -0.01191283, -0.05156548, 100.34700775, 81.73015594, 0.00000000, 0.00000000
2, 0.8852, 115, 0.03017539, -0.94854641, -0.15789711, -5.67988586, 37.69009781, 7.53777170, -66.99795532, 10.17246437, -80.47354126, 77.46995544, 5.37746429, -21.83082008, 0.75953454, -0.62065089, 0.08242530, 0.17636842, 0.06352355, -0.02335092, -0.05805665, 100.34700775, 81.73015594, 0.00000000, 0.00000000
