SensorId, TimeStamp (s), FrameNumber, AccX (g), AccY (g), AccZ (g), GyroX (deg/s), GyroY (deg/s), GyroZ (deg/s), MagX (uT), MagY (uT), MagZ (uT), EulerX (deg), EulerY (deg), EulerZ (deg), QuatW, QuatX, QuatY, QuatZ, LinAccX (g), LinAccY (g), LinAccZ (g), Pressure (kPa), Altitude (m), Temperature (degC), HeaveMotion (m)
1, -0.0000, 0, -0.08815493, -1.06264770, -0.06119104, 10.63688564, -10.89774418, 44.83256912, -35.66208649, 5.99239969, -70.91493988, 93.28259277, -19.39029121, 4.03822708, -0.67202401, 0.72031409, -0.09029868, 0.14621085, -0.24279404, 0.12068086, 0.11295091, 99.96300507, 113.99741364, 32.32999802, 0.00000000
1, 0.0050, 1, -0.06288546, -1.08462107, -0.05891518, 9.44959259, -9.94917202, 44.06409073, -35.66208649, 5.99239969, -70.91493988, 93.35236359, -19.60734367, 3.97240019, -0.67140228, 0.72048235, -0.09191180, 0.14722960, -0.27165607, 0.14398213, 0.11180423, 99.96300507, 113.99741364, 32.32999802, 0.00000000
1, 0.0100, 2, -0.03343685, -1.09259391, -0.05813748, 8.27381706, -9.91063499, 43.48408890, -35.98363113, 5.84624386, -71.06109619, 93.41645813, -19.82145500, 3.90659976, -0.67081863, 0.72061527, -0.09351286, 0.14822735, -0.30463737, 0.15327612, 0.11208552, 99.96300507, 113.99741364, 32.32999802, 0.00000000
1, 0.0150, 3, -0.00846552, -1.09859538, -0.06034330, 7.60010910, -10.18428040, 43.03046036, -35.98363113, 5.84624386, -71.06109619, 93.47798920, -20.03316689, 3.83915067, -0.67025554, 0.72072935, -0.09511177, 0.14919995, -0.33308756, 0.16059926, 0.11528206, 99.96300507, 113.99741364, 32.32999802, 0.00000000
1, 0.0200, 4, 0.01586115, -1.11115611, -0.06304134, 7.03675079, -10.80089188, 42.39199829, -35.98363113, 5.84624386, -71.06109619, 93.53810120, -20.24144745, 3.76829648, -0.66970909, 0.72083086, -0.09671205, 0.15013164, -0.36083698, 0.17447653, 0.11893427, 99.96300507, 113.99741364, 32.32999802, 0.00000000
1, 0.0250, 5, 0.03435458, -1.11573946, -0.06884249, 6.19224167, -11.66703606, 41.89137268, -35.57439423, 5.90470600, -71.09032440, 93.59587097, -20.44690323, 3.69266534, -0.66918647, 0.72091269, -0.09832722, 0.15101732, -0.38268977, 0.18037364, 0.12564880, 99.96300507, 113.99741364, 32.32999802, 0.00000000
1, 0.0300, 6, 0.04037173, -1.11130691, -0.06853157, 5.71466637, -13.43838024, 41.50470734, -35.57439423, 5.90470600, -71.09032440, 93.65489960, -20.64981461, 3.60739946, -0.66867131, 0.72099131, -0.09998487, 0.15183355, -0.39203575, 0.17724264, 0.12623826, 99.96300507, 113.99741364, 32.32999802, 0.00000000
1, 0.0350, 7, 0.02879202, -1.10417593, -0.06938485, 5.51688623, -14.76051331, 41.37055588, -35.57439423, 5.90470600, -71.09032440, 93.71582031, -20.85157013, 3.51477814, -0.66815495, 0.72107077, -0.10167794, 0.15260290, -0.38374954, 0.17141901, 0.12798095, 99.96300507, 113.99741364, 32.32999802, 0.00000000
1, 0.0400, 8, 0.01613732, -1.10602057, -0.06658533, 5.57190847, -16.61484909, 40.27408600, -36.53902435, 5.93393755, -70.56416321, 93.77135468, -21.02081299, 3.41487026, -0.66772336, 0.72113943, -0.10323086, 0.15312409, -0.37410483, 0.17446542, 0.12603295, 99.96300507, 113.99741364, 32.32999802, 0.00000000
1, 0.0700, 9, 0.02658264, -1.08371973, -0.07905635, 7.96840525, -17.11305809, 29.89131546, -37.18210983, 6.72318029, -70.97339630, 94.19067383, -22.02583694, 2.78978872, -0.66463929, 0.72195071, -0.11250857, 0.15615290, -0.40084943, 0.15906003, 0.14478281, 99.96300507, 113.99741364, 32.32999802, 0.00000000
1, 0.0750, 10, 0.04841409, -1.09040439, -0.07956444, 8.39356422, -17.53736115, 27.38708496, -37.26980209, 6.48933077, -70.38877106, 94.27247620, -22.15599632, 2.68474889, -0.66409951, 0.72217995, -0.11382109, 0.15643775, -0.42483729, 0.16671398, 0.14657941, 99.96300507, 113.99741364, 32.32999802, 0.00000000
1, 0.0800, 11, 0.06003455, -1.08557534, -0.07568013, 8.32492161, -18.37629890, 24.56378937, -37.26980209, 6.48933077, -70.38877106, 94.35552216, -22.27161026, 2.57601857, -0.66357577, 0.72242540, -0.11506931, 0.15661350, -0.43839759, 0.16276349, 0.14400673, 99.96300507, 113.99741364, 32.32999802, 0.00000000
1, 0.0850, 12, 0.06052705, -1.07513630, -0.08221786, 8.36369991, -19.31453896, 21.56149673, -37.18210983, 6.19701815, -71.06109619, 94.44046783, -22.37176514, 2.46317625, -0.66306567, 0.72269195, -0.11624993, 0.15667251, -0.44055298, 0.15312564, 0.15186861, 99.96300507, 113.99741364, 32.32999802, 0.00000000
1, 0.0900, 13, 0.06297743, -1.05105674, -0.08648730, 8.57494450, -20.01982880, 17.61615181, -37.18210983, 6.19701815, -71.06109619, 94.50902557, -22.40496635, 2.35357189, -0.66274035, 0.72293979, -0.11704148, 0.15631610, -0.44400465, 0.12956508, 0.15739223, 99.96300507, 113.99741364, 32.32999802, 0.00000000
1, 0.0950, 14, 0.06396136, -1.04452562, -0.07980063, 9.18764019, -21.46429443, 14.13881016, -37.18210983, 6.19701815, -71.06109619, 94.60158539, -22.46698380, 2.23187184, -0.66224289, 0.72327995, -0.11804491, 0.15609595, -0.44570819, 0.12341621, 0.15200210, 99.96300507, 113.99741364, 32.32999802, 0.00000000
1, 0.1000, 15, 0.06640966, -1.03946364, -0.06470415, 9.83965778, -23.50497437, 9.38487625, -37.26980209, 6.25548077, -70.88570404, 94.70094299, -22.50430870, 2.10105944, -0.66174608, 0.72367603, -0.11895299, 0.15567696, -0.44887525, 0.11873841, 0.13848105, 99.96300507, 113.99741364, 32.32999802, 0.00000000
1, 0.1050, 16, 0.07658786, -1.03479075, -0.04775774, 9.62948513, -24.66574097, 5.39898777, -37.26980209, 6.25548077, -70.88570404, 94.80101013, -22.52107048, 1.96563351, -0.66127646, 0.72409338, -0.11977035, 0.15510465, -0.45945060, 0.11431745, 0.12316439, 99.96300507, 113.99741364, 32.32999802, 0.00000000
1, 0.1100, 17, 0.08370868, -1.02820611, -0.04060427, 9.20363331, -25.65269470, 1.34988272, -37.53288651, 6.43086815, -70.53492737, 94.90027618, -22.51705742, 1.82666540, -0.66084164, 0.72452497, -0.12049136, 0.15438181, -0.46660596, 0.10786302, 0.11763707, 99.96300507, 113.99741364, 32.32999802, 0.00000000
1, 0.1150, 18, 0.08984695, -1.01886654, -0.03958911, 8.81585884, -26.81671715, -2.56371856, -37.53288651, 6.43086815, -70.53492737, 94.99922180, -22.49281502, 1.68324351, -0.66043884, 0.72497249, -0.12112483, 0.15350680, -0.47243840, 0.09853148, 0.11825453, 99.96300507, 113.99741364, 32.32999802, 0.00000000
1, 0.1350, 19, 0.09815928, -0.98663759, -0.01941803, 8.00904846, -31.60349274, -19.77301025, -36.36363602, 5.90470600, -70.94416809, 95.39891052, -22.17751503, 1.06860375, -0.65909958, 0.72699153, -0.12266745, 0.14840417, -0.47607177, 0.06491443, 0.10475367, 99.96300507, 113.99741364, 32.32999802, 0.00000000
1, 0.1400, 20, 0.09884613, -0.97772336, -0.00600111, 7.08426619, -32.61800766, -24.30714989, -36.36363602, 5.90470600, -70.94416809, 95.48711395, -22.00480270, 0.90764827, -0.65895057, 0.72753167, -0.12257850, 0.14648011, -0.47438890, 0.05514845, 0.09295012, 99.96300507, 113.99741364, 32.32999802, 0.00000000
1, 0.1450, 21, 0.10571092, -0.96497643, 0.00255091, 5.65604162, -33.52981186, -30.40978050, -36.36363602, 5.90470600, -70.94416809, 95.57637024, -21.83748245, 0.74329978, -0.65878659, 0.72806770, -0.12254396, 0.14457062, -0.47842270, 0.04137729, 0.08594930, 99.96300507, 113.99741364, 32.32999802, 0.00000000
1, 0.1500, 22, 0.10915907, -0.95467246, 0.00274358, 4.76577282, -34.50420380, -35.15372086, -36.42210007, 6.63548660, -70.35954285, 95.66149902, -21.64585304, 0.57665604, -0.65867305, 0.72860628, -0.12239225, 0.14248812, -0.47886366, 0.03001267, 0.08728869, 99.96300507, 113.99741364, 32.32999802, 0.00000000
1, 0.1550, 23, 0.10943577, -0.94687569, -0.00518217, 3.66179967, -35.76124191, -41.26871109, -36.42210007, 6.63548660, -70.35954285, 95.74158478, -21.42297554, 0.40703458, -0.65862286, 0.72914946, -0.12208903, 0.14018303, -0.47560751, 0.02097591, 0.09667438, 99.96300507, 113.99741364, 32.32999802, 0.00000000
1, 0.1600, 24, 0.10385042, -0.94249904, -0.00513783, 2.77027225, -36.69415665, -46.29205704, -36.18824768, 6.46009922, -69.89184570, 95.81708527, -21.17444611, 0.23570187, -0.65862322, 0.72969460, -0.12165797, 0.13769811, -0.46608639, 0.01519322, 0.09802003, 99.96300507, 113.99741364, 32.32999802, 0.00000000
1, 0.1650, 25, 0.09912623, -0.94704759, -0.00266099, 1.95458114, -38.01016235, -51.29045486, -36.18824768, 6.46009922, -69.89184570, 95.88906860, -20.90019798, 0.06068244, -0.65866792, 0.73024523, -0.12111005, 0.13502213, -0.45700753, 0.01818376, 0.09687142, 99.96300507, 113.99741364, 32.32999802, 0.00000000
1, 0.1700, 26, 0.09270485, -0.94984663, 0.00453355, 1.06996441, -39.47021103, -56.11614227, -36.18824768, 6.46009922, -69.89184570, 95.95729065, -20.60100555, -0.11879100, -0.65875661, 0.73079789, -0.12045497, 0.13215485, -0.44582438, 0.01927931, 0.09097068, 99.96300507, 113.99741364, 32.32999802, 0.00000000
1, 0.1750, 27, 0.08519791, -0.95446992, 0.00884048, -0.03043760, -40.75560379, -61.04008102, -35.25284958, 6.60625553, -70.15492249, 96.02025604, -20.27649307, -0.30165753, -0.65889579, 0.73134500, -0.11968547, 0.12909789, -0.43312860, 0.02206949, 0.08788293, 99.96300507, 113.99741364, 32.32999802, 0.00000000
1, 0.1800, 28, 0.08138753, -0.96174121, 0.01612009, -1.31388938, -41.65468979, -66.16279602, -35.25284958, 6.60625553, -70.15492249, 96.07610321, -19.92587471, -0.48569459, -0.65909344, 0.73187864, -0.11878473, 0.12585667, -0.42369920, 0.02736740, 0.08174315, 99.96300507, 113.99741364, 32.32999802, 0.00000000
1, 0.2150, 29, 0.09189714, -1.01124597, 0.06108997, -10.01216793, -47.54742813, -99.73745728, -32.85588837, 6.75241137, -70.09646606, 96.26320648, -16.77669716, -1.79988587, -0.66190696, 0.73509294, -0.10892378, 0.09825119, -0.38289249, 0.06008498, 0.04184921, 99.96300507, 113.99741364, 32.32999802, 0.00000000
1, 0.2200, 30, 0.09132648, -1.01456356, 0.05981123, -11.26224422, -48.05100632, -103.90475464, -32.85588837, 6.75241137, -70.09646606, 96.25984955, -16.23450661, -1.99081635, -0.66248387, 0.73545104, -0.10703522, 0.09365076, -0.37334046, 0.06073480, 0.04339062, 99.96300507, 113.99741364, 32.32999802, 0.00000000
1, 0.2250, 31, 0.08200464, -1.02055693, 0.06221388, -12.01088333, -48.79882050, -107.87394714, -31.92049026, 5.84624386, -69.51184082, 96.25125885, -15.67220879, -2.18291497, -0.66308057, 0.73578960, -0.10504143, 0.08890551, -0.35467732, 0.06403047, 0.04112539, 99.96300507, 113.99741364, 32.32999802, 0.00000000
1, 0.2300, 32, 0.06922391, -1.02753878, 0.07359880, -12.82541084, -49.93516541, -111.64125061, -31.92049026, 5.84624386, -69.51184082, 96.23758698, -15.09062862, -2.37836146, -0.66369462, 0.73610556, -0.10296024, 0.08400849, -0.33222467, 0.06829205, 0.02978055, 99.96300507, 113.99741364, 32.32999802, 0.00000000
1, 0.2350, 33, 0.05006393, -1.03603590, 0.09189980, -13.73814392, -51.70652390, -115.10695648, -30.54662323, 4.09237051, -70.12569427, 96.21910858, -14.49093437, -2.58063173, -0.66432321, 0.73639488, -0.10081968, 0.07894748, -0.30307347, 0.07406589, 0.01142288, 99.96300507, 113.99741364, 32.32999802, 0.00000000
1, 0.2400, 34, 0.02552680, -1.04116023, 0.10178086, -14.80579376, -52.40258789, -118.43991089, -30.54662323, 4.09237051, -70.12569427, 96.19329834, -13.86720657, -2.78443313, -0.66497922, 0.73665226, -0.09855245, 0.07371301, -0.26814568, 0.07648524, 0.00135990, 99.96300507, 113.99741364, 32.32999802, 0.00000000
1, 0.2450, 35, 0.00077760, -1.05261993, 0.10230375, -15.81435490, -52.08939362, -121.71451569, -30.54662323, 4.09237051, -70.12569427, 96.15959930, -13.23465919, -2.98451948, -0.66565222, 0.73686326, -0.09621161, 0.06843387, -0.23267716, 0.08528587, 0.00050436, 99.96300507, 113.99741364, 32.32999802, 0.00000000
1, 0.2500, 36, -0.01803106, -1.05791616, 0.10438702, -16.72009850, -51.39818192, -124.73605347, -29.43583679, 2.45542240, -70.56416321, 96.11799622, -12.58759594, -3.17934775, -0.66634339, 0.73703289, -0.09375313, 0.06308291, -0.20293377, 0.08798084, -0.00203414, 99.96300507, 113.99741364, 32.32999802, 0.00000000
1, 0.2550, 37, -0.02923279, -1.06445837, 0.10605605, -17.30703545, -50.56822205, -127.61814117, -29.43583679, 2.45542240, -70.56416321, 96.07001495, -11.92678928, -3.36843300, -0.66704124, 0.73716837, -0.09117626, 0.05767000, -0.18052953, 0.09198213, -0.00426584, 99.96300507, 113.99741364, 32.32999802, 0.00000000
1, 0.2600, 38, -0.03483423, -1.06649172, 0.10967902, -17.50068855, -50.00325012, -130.93217468, -28.50043869, 5.34931278, -70.56416321, 96.01797485, -11.24995232, -3.55302763, -0.66773123, 0.73728228, -0.08847360, 0.05217558, -0.16342695, 0.09153512, -0.00852554, 99.96300507, 113.99741364, 32.32999802, 0.00000000
1, 0.2750, 39, -0.05486204, -1.08958483, 0.15496890, -18.98147583, -46.84553146, -138.26911926, -27.00964546, 5.70008755, -71.03186035, 95.83214569, -9.14344978, -4.07204580, -0.66976619, 0.73743743, -0.07967095, 0.03538264, -0.10750308, 0.10767853, -0.05631293, 99.96300507, 113.99741364, 32.32999802, 0.00000000
1, 0.2800, 40, -0.05964905, -1.08308971, 0.15080033, -19.77977943, -45.81301880, -139.49623108, -27.00964546, 5.70008755, -71.03186035, 95.75605011, -8.42691422, -4.23261738, -0.67045480, 0.73738950, -0.07656143, 0.02975750, -0.09037468, 0.09912481, -0.05322967, 99.96300507, 113.99741364, 32.32999802, 0.00000000
1, 0.2850, 41, -0.06471587, -1.07951140, 0.14402358, -19.40189171, -44.88531876, -140.28511047, -25.66501045, 6.10932446, -70.94416809, 95.67920685, -7.70711231, -4.38879681, -0.67110753, 0.73732305, -0.07339560, 0.02413901, -0.07287016, 0.09363338, -0.04760260, 99.96300507, 113.99741364, 32.32999802, 0.00000000
1, 0.2900, 42, -0.06259643, -1.08379292, 0.14356732, -17.98702812, -44.40262604, -141.02772522, -25.66501045, 6.10932446, -70.94416809, 95.60817719, -6.98235178, -4.54300308, -0.67168272, 0.73727530, -0.07017797, 0.01850660, -0.06247804, 0.09614655, -0.04824351, 99.96300507, 113.99741364, 32.32999802, 0.00000000
1, 0.2950, 43, -0.05398710, -1.09410167, 0.14874120, -16.78606415, -43.82324219, -141.51992798, -25.66501045, 6.10932446, -70.94416809, 95.53996277, -6.25727606, -4.69457674, -0.67219913, 0.73722607, -0.06693259, 0.01289226, -0.05852675, 0.10483861, -0.05444655, 99.96300507, 113.99741364, 32.32999802, 0.00000000
1, 0.3000, 44, -0.04112174, -1.10260320, 0.15885729, -16.29907799, -43.03966141, -142.06829834, -23.96959877, 6.10932446, -71.32417297, 95.47191620, -5.53001308, -4.84262180, -0.67267388, 0.73716098, -0.06364340, 0.00728784, -0.05880653, 0.11187428, -0.06558861, 99.96300507, 113.99741364, 32.32999802, 0.00000000
1, 0.3050, 45, -0.02355024, -1.10822606, 0.17010827, -15.80560112, -42.81135941, -142.70007324, -23.96959877, 6.10932446, -71.32417297, 95.40436554, -4.79988098, -4.98991442, -0.67310518, 0.73708057, -0.06032433, 0.00167318, -0.06372981, 0.11618593, -0.07786191, 99.96300507, 113.99741364, 32.32999802, 0.00000000
1, 0.3100, 46, -0.01458117, -1.10755372, 0.17871796, -15.52309322, -42.73003387, -143.08729553, -22.53726959, 4.12160206, -71.47032928, 95.33637238, -4.06802702, -5.13731909, -0.67349875, 0.73697782, -0.05698771, -0.00394957, -0.05999342, 0.11436540, -0.08752710, 99.96300507, 113.99741364, 32.32999802, 0.00000000
1, 0.3150, 47, -0.01279705, -1.10352886, 0.18140388, -15.34663963, -42.65466309, -143.26303101, -22.53726959, 4.12160206, -71.47032928, 95.26740265, -3.33550620, -5.28502131, -0.67385781, 0.73684913, -0.05364087, -0.00957453, -0.04903112, 0.10936293, -0.09131269, 99.96300507, 113.99741364, 32.32999802, 0.00000000
1, 0.3200, 48, -0.02889829, -1.09916925, 0.18008538, -14.76248932, -41.07037735, -143.75846863, -22.12803268, 6.57702398, -71.64571381, 95.19907379, -2.60139585, -5.42536736, -0.67417276, 0.73670775, -0.05022934, -0.01516150, -0.02014029, 0.10419518, -0.09115309, 99.96300507, 113.99741364, 32.32999802, 0.00000000
1, 0.3450, 49, -0.08221913, -1.08384860, 0.19635862, -8.50573826, -28.75171089, -142.45785522, -18.79567337, 5.90470600, -71.99649048, 94.91550446, 1.03442967, -5.98267269, -0.67483801, 0.73606342, -0.03235206, -0.04192438, 0.09663402, 0.08733523, -0.11247312, 99.96300507, 113.99741364, 32.32999802, 0.00000000
1, 0.3500, 50, -0.07759105, -1.08114970, 0.20471902, -7.11923456, -25.71400833, -142.26289368, -18.79567337, 5.90470600, -71.99649048, 94.87648773, 1.75392056, -6.05127668, -0.67476773, 0.73598212, -0.02853474, -0.04695463, 0.10454948, 0.08482756, -0.12154157, 99.96300507, 113.99741364, 32.32999802, 0.00000000
1, 0.3550, 51, -0.07332832, -1.07394850, 0.21274458, -6.43446207, -23.48240852, -142.11328125, -18.79567337, 5.90470600, -71.99649048, 94.84042358, 2.47170305, -6.10930967, -0.67465168, 0.73589605, -0.02465658, -0.05190622, 0.11279306, 0.07798012, -0.13021883, 99.96300507, 113.99741364, 32.32999802, 0.00000000
1, 0.3600, 52, -0.07638089, -1.06046641, 0.20943759, -6.20373344, -21.88732910, -141.72767639, -18.29874229, 7.04472351, -72.25957489, 94.80513763, 3.18686724, -6.16003084, -0.67450434, 0.73579091, -0.02074335, -0.05679304, 0.12833531, 0.06502696, -0.12756188, 99.96300507, 113.99741364, 32.32999802, 0.00000000
1, 0.3650, 53, -0.08705425, -1.04838157, 0.19792734, -5.61894464, -20.11920547, -141.16717529, -18.29874229, 7.04472351, -72.25957489, 94.77267456, 3.89849281, -6.20260191, -0.67431462, 0.73567837, -0.01679651, -0.06160388, 0.15145385, 0.05363997, -0.11669955, 99.96300507, 113.99741364, 32.32999802, 0.00000000
1, 0.3700, 54, -0.10786352, -1.04208648, 0.21707343, -3.67700815, -18.69964600, -140.10650635, -17.15872574, 7.39549828, -71.82110596, 94.74986267, 4.60426378, -6.23890448, -0.67404062, 0.73559779, -0.01284630, -0.06633444, 0.18453301, 0.04814982, -0.13641350, 99.96300507, 113.99741364, 32.32999802, 0.00000000
1, 0.3750, 55, -0.12502593, -1.03106952, 0.22627790, -2.26316953, -17.61063194, -138.52119446, -17.15872574, 7.39549828, -71.82110596, 94.73408508, 5.30169010, -6.27067137, -0.67370093, 0.73553348, -0.00891833, -0.07098012, 0.21385327, 0.03810829, -0.14601928, 99.96300507, 113.99741364, 32.32999802, 0.00000000
1, 0.3800, 56, -0.15723273, -1.00982320, 0.23075332, -1.04147160, -15.02413464, -135.53071594, -17.15872574, 7.39549828, -71.82110596, 94.72521973, 5.98318243, -6.29088593, -0.67330760, 0.73548549, -0.00501338, -0.07545194, 0.25794858, 0.01797511, -0.15081660, 99.96300507, 113.99741364, 32.32999802, 0.00000000
1, 0.4150, 57, -0.14426742, -0.95698214, 0.19858953, 14.51552391, 2.64597893, -117.18559265, -15.14177132, 8.15550995, -72.34726715, 94.99414825, 10.33090115, -6.05603027, -0.66843861, 0.73643667, 0.02195713, -0.10182736, 0.32061031, -0.02387647, -0.11520341, 99.96300507, 113.99741364, 32.32999802, 0.00000000
1, 0.4200, 58, -0.11314559, -0.95997775, 0.19545102, 16.88369560, 4.23087025, -115.60060883, -14.26483440, 7.48319197, -72.20111084, 95.09042358, 10.90512562, -5.98385525, -0.66737896, 0.73681825, 0.02571702, -0.10508512, 0.29938483, -0.01891512, -0.11056252, 99.96300507, 113.99741364, 32.32999802, 0.00000000
1, 0.4250, 59, -0.09103295, -0.95865417, 0.18829702, 18.15748024, 5.17521381, -113.84171295, -14.26483440, 7.48319197, -72.20111084, 95.19481659, 11.47007465, -5.90649796, -0.66626793, 0.73722452, 0.02944168, -0.10826006, 0.28701735, -0.01817861, -0.10176586, 99.96300507, 113.99741364, 32.32999802, 0.00000000
1, 0.4300, 60, -0.09698699, -0.94841969, 0.17989336, 19.04803467, 5.48618031, -111.95282745, -14.26483440, 7.48319197, -72.20111084, 95.30480957, 12.02534580, -5.82719707, -0.66512007, 0.73764229, 0.03310981, -0.11136854, 0.30253261, -0.02627975, -0.09170322, 99.96300507, 113.99741364, 32.32999802, 0.00000000
1, 0.4350, 61, -0.11083622, -0.93215859, 0.17509761, 20.82296181, 6.50351906, -108.69130707, -13.56328583, 9.26629639, -71.73341370, 95.42552185, 12.56376839, -5.74293756, -0.66391319, 0.73810381, 0.03669336, -0.11434951, 0.32564551, -0.04036022, -0.08508652, 99.96300507, 113.99741364, 32.32999802, 0.00000000
1, 0.4400, 62, -0.11931213, -0.92191803, 0.18255717, 22.52980042, 7.27572823, -105.39972687, -13.56328583, 9.26629639, -71.73341370, 95.56052399, 13.07122898, -5.65362453, -0.66263956, 0.73863697, 0.04010613, -0.11711457, 0.34293804, -0.04842227, -0.09053239, 99.96300507, 113.99741364, 32.32999802, 0.00000000
1, 0.4450, 63, -0.14374113, -0.91288483, 0.18038674, 23.29149246, 9.83975601, -101.63278198, -12.68634892, 9.79245853, -72.31803131, 95.69894409, 13.57255936, -5.55289650, -0.66135335, 0.73916692, 0.04354551, -0.11978254, 0.37586144, -0.05524015, -0.08625179, 99.96300507, 113.99741364, 32.32999802, 0.00000000
1, 0.4500, 64, -0.19318078, -0.91351414, 0.17968686, 22.70983124, 14.68861198, -97.75921631, -12.68634892, 9.79245853, -72.31803131, 95.84115601, 14.05196667, -5.42782688, -0.66008323, 0.73969811, 0.04700235, -0.12217878, 0.43352324, -0.05237820, -0.08349395, 99.96300507, 113.99741364, 32.32999802, 0.00000000
1, 0.4550, 65, -0.18452178, -0.93743551, 0.17250253, 22.96275711, 18.15323639, -93.96432495, -12.68634892, 9.79245853, -72.31803131, 95.98994446, 14.51044178, -5.28544712, -0.65880519, 0.74024910, 0.05043466, -0.12435216, 0.43273082, -0.02621915, -0.07404979, 99.96300507, 113.99741364, 32.32999802, 0.00000000
1, 0.4600, 66, -0.14497527, -0.95469975, 0.19693618, 20.59925079, 17.47582245, -89.77917480, -12.59865570, 10.66939449, -72.02572632, 96.12693024, 14.94808102, -5.14732504, -0.65761590, 0.74072480, 0.05372421, -0.12641926, 0.40059888, -0.00680511, -0.09623817, 99.96300507, 113.99741364, 32.32999802, 0.00000000
1, 0.5050, 67, -0.20268181, -0.84224784, 0.09578105, 9.51335335, 0.87179315, -28.48218346, -11.78018093, 8.76936531, -71.55802155, 96.72247314, 17.48764420, -4.67222452, -0.65153342, 0.74216604, 0.07081185, -0.14028361, 0.50239217, -0.10533251, 0.01377583, 99.96300507, 113.99741364, 32.32999802, 0.00000000
1, 0.5100, 68, -0.21051037, -0.79949713, 0.07928003, 11.83592892, -1.11484003, -20.28678894, -10.66939449, 10.96170712, -71.41186523, 96.78337097, 17.58918762, -4.66568375, -0.65103072, 0.74243093, 0.07136486, -0.14093469, 0.51211989, -0.14735889, 0.03123494, 99.96300507, 113.99741364, 32.32999802, 0.00000000
1, 0.5150, 69, -0.21190153, -0.76922667, 0.07617854, 14.94278336, -3.04657388, -11.18870831, -10.66939449, 10.96170712, -71.41186523, 96.85522461, 17.64671516, -4.67467165, -0.65048784, 0.74280047, 0.07154948, -0.14139917, 0.51466537, -0.17712769, 0.03547446, 99.96300507, 113.99741364, 32.32999802, 0.00000000
1, 0.5200, 70, -0.20199110, -0.76020229, 0.09892214, 18.90094948, -4.63846731, -1.42737472, -11.86787510, 11.45863724, -71.20724487, 96.94267273, 17.65679169, -4.69792128, -0.64988047, 0.74330342, 0.07134870, -0.14165021, 0.50506365, -0.18590778, 0.01413505, 99.96300507, 113.99741364, 32.32999802, 0.00000000
1, 0.5250, 71, -0.18294694, -0.77047169, 0.13401027, 21.94809532, -7.32267141, 8.52983379, -11.86787510, 11.45863724, -71.20724487, 97.03935242, 17.61912346, -4.74140644, -0.64924270, 0.74390727, 0.07073036, -0.14171496, 0.48550397, -0.17563900, -0.01933524, 99.96300507, 113.99741364, 32.32999802, 0.00000000
1, 0.5300, 72, -0.16489919, -0.78687620, 0.16114393, 23.12622261, -11.31408978, 18.58483315, -11.86787510, 11.45863724, -71.20724487, 97.13385010, 17.53406906, -4.81214523, -0.64863950, 0.74455041, 0.06966536, -0.14162731, 0.46617168, -0.15946682, -0.04482765, 99.96300507, 113.99741364, 32.32999802, 0.00000000
1, 0.5350, 73, -0.16498348, -0.80195308, 0.15385982, 23.40648651, -14.61391258, 28.52753639, -11.60479355, 12.13095570, -71.55802155, 97.22290039, 17.40182114, -4.90656328, -0.64809614, 0.74521041, 0.06818224, -0.14136527, 0.46426928, -0.14481777, -0.03599715, 99.96300507, 113.99741364, 32.32999802, 0.00000000
1, 0.5400, 74, -0.17713763, -0.81178260, 0.14058410, 23.67107010, -16.05763626, 40.96832657, -11.60479355, 12.13095570, -71.55802155, 97.31179047, 17.17983246, -5.01523781, -0.64763856, 0.74594021, 0.06609183, -0.14060409, 0.47320211, -0.13578899, -0.02118512, 99.96300507, 113.99741364, 32.32999802, 0.00000000
1, 0.5450, 75, -0.15639487, -0.86693001, 0.14531602, 25.42952538, -20.51173592, 53.10804367, -11.66325665, 11.80941200, -71.49955750, 97.39809418, 16.92970085, -5.15672016, -0.64718878, 0.74668747, 0.06363001, -0.13984218, 0.44831556, -0.08172502, -0.02434347, 99.96300507, 113.99741364, 32.32999802, 0.00000000
1, 0.5500, 76, -0.01051104, -1.00845957, 0.11086950, 26.45825005, -24.66801262, 59.79600906, -11.66325665, 11.80941200, -71.49955750, 97.48269653, 16.64927864, -5.32438850, -0.64675176, 0.74745136, 0.06082618, -0.13902810, 0.29793227, 0.05866740, 0.01182676, 99.96300507, 113.99741364, 32.32999802, 0.00000000
1, 0.5800, 77, 0.68649292, -1.18648672, -0.25335678, 6.86643744, -48.41214752, 87.31089783, -12.33557415, 11.40017509, -71.58725739, 97.37060547, 14.40167427, -6.91372967, -0.64811897, 0.74880457, 0.03767171, -0.13347049, -0.43548673, 0.22677806, 0.37750536, 99.96300507, 113.99741364, 32.32999802, 0.00000000
1, 0.5850, 78, 0.98399103, -1.23915994, -0.29371172, 2.97632241, -52.20917130, 78.61202240, -12.62788677, 11.22478771, -71.29494476, 97.30827332, 14.04472065, -7.23202372, -0.64855361, 0.74871409, 0.03360907, -0.13295098, -0.73913085, 0.27781409, 0.41777167, 99.96300507, 113.99741364, 32.32999802, 0.00000000
1, 0.5900, 79, 1.22394323, -1.28218794, -0.26218763, -1.93561089, -57.31871796, 67.61648560, -12.62788677, 11.22478771, -71.29494476, 97.21616364, 13.75064754, -7.56917048, -0.64909226, 0.74840975, 0.02981840, -0.13293988, -0.98443604, 0.31930754, 0.38552946, 99.96300507, 113.99741364, 32.32999802, 0.00000000
1, 0.5950, 80, 1.37709296, -1.30230069, -0.26303017, -5.45438862, -62.24480438, 59.65710831, -12.54019260, 11.07863140, -71.55802155, 97.10590363, 13.49285126, -7.92473555, -0.64968848, 0.74797148, 0.02613696, -0.13326859, -1.14202237, 0.33811921, 0.38503522, 99.96300507, 113.99741364, 32.32999802, 0.00000000
1, 0.6000, 81, 1.25685346, -1.27509677, -0.33322877, -8.85508347, -88.82242584, 51.14511490, -12.54019260, 11.07863140, -71.55802155, 96.94996643, 13.29248810, -8.40967083, -0.65036619, 0.74725914, 0.02199716, -0.13469869, -1.02526665, 0.30986288, 0.45267105, 99.96300507, 113.99741364, 32.32999802, 0.00000000
1, 0.6050, 82, 0.98712015, -1.26084554, -0.31747803, -5.09833002, -113.52142334, 54.08390427, -12.54019260, 11.07863140, -71.55802155, 96.78556824, 13.09082699, -9.02135563, -0.65094608, 0.74649262, 0.01703712, -0.13684988, -0.75896657, 0.29445982, 0.43361819, 99.96300507, 113.99741364, 32.32999802, 0.00000000
1, 0.6100, 83, 0.62897885, -1.27081978, -0.26704714, -0.94359767, -131.94387817, 61.26833725, -12.97866154, 11.16632557, -71.99649048, 96.62247467, 12.86244106, -9.73004627, -0.65142387, 0.74571353, 0.01129407, -0.13939440, -0.40469423, 0.30316371, 0.37961259, 99.96300507, 113.99741364, 32.32999802, 0.00000000
1, 0.6150, 84, 0.26102254, -1.27703142, -0.20338823, 4.63044739, -140.66464233, 71.11960602, -12.97866154, 11.16632557, -71.99649048, 96.47963715, 12.58821869, -10.48748302, -0.65175539, 0.74501270, 0.00494845, -0.14193861, -0.04135745, 0.30797386, 0.31262067, 99.96300507, 113.99741364, 32.32999802, 0.00000000
1, 0.6200, 85, -0.09685045, -1.30525136, -0.13764705, 11.16566277, -140.28768921, 82.50746918, -12.97866154, 10.81555080, -72.84420013, 96.37286377, 12.25567150, -11.24791527, -0.65191209, 0.74446678, -0.00179638, -0.14414108, 0.31094712, 0.33467299, 0.24410915, 99.96300507, 113.99741364, 32.32999802, 0.00000000
1, 0.6250, 86, -0.36162451, -1.35231113, -0.04433898, 16.54384422, -129.31907654, 94.82849121, -12.97866154, 10.81555080, -72.84420013, 96.30838776, 11.85487270, -11.95788860, -0.65193892, 0.74410540, -0.00866176, -0.14562941, 0.56894565, 0.38003749, 0.14894362, 99.96300507, 113.99741364, 32.32999802, 0.00000000
1, 0.6700, 87, 0.09827158, -0.78415620, 0.38770294, 26.35423470, -0.98608536, 100.84708405, -14.84945869, 8.88629055, -73.19496918, 96.91563416, 7.19624519, -13.98403549, -0.65122408, 0.74650323, -0.04962246, -0.12719226, 0.02819683, -0.20117554, -0.26986936, 99.96300507, 113.99741364, 32.32999802, 0.00000000
1, 0.6750, 88, 0.13534857, -0.74248874, 0.44653991, 30.10284424, -7.74141121, 102.11053467, -14.84945869, 8.88629055, -73.19496918, 97.05530548, 6.69440413, -14.08440304, -0.65077800, 0.74709481, -0.05332945, -0.12447213, -0.01771202, -0.24372363, -0.32607657, 99.96300507, 113.99741364, 32.32999802, 0.00000000
1, 0.6800, 89, 0.14503078, -0.72207224, 0.48779446, 33.45180893, -16.82522202, 103.00811005, -15.93101406, 8.65244102, -73.16574097, 97.20729828, 6.19397211, -14.23186684, -0.65019214, 0.74771351, -0.05734082, -0.12201187, -0.03618432, -0.26488155, -0.36458564, 99.96300507, 113.99741364, 32.32999802, 0.00000000
1, 0.6850, 90, 0.09999055, -0.71529114, 0.47689998, 35.97506714, -25.53986931, 102.73321533, -15.93101406, 8.65244102, -73.16574097, 97.36859894, 5.70079613, -14.42385197, -0.64948529, 0.74834067, -0.06160282, -0.11983433, 0.00028392, -0.27220321, -0.35093409, 99.96300507, 113.99741364, 32.32999802, 0.00000000
1, 0.6900, 91, 0.01469748, -0.72774541, 0.43514124, 37.14585495, -31.61386871, 100.78588104, -15.93101406, 8.65244102, -73.16574097, 97.54682922, 5.21876001, -14.64482403, -0.64862227, 0.74902594, -0.06599978, -0.11787075, 0.07726420, -0.26011214, -0.30635148, 99.96300507, 113.99741364, 32.32999802, 0.00000000
1, 0.6950, 92, -0.08339075, -0.75867510, 0.40745565, 36.00093079, -34.77980042, 97.28987122, -16.72025681, 8.12627888, -72.40573120, 97.70743561, 4.75975561, -14.88183117, -0.64783078, 0.74958497, -0.07034376, -0.11614398, 0.16732305, -0.22946751, -0.27595782, 99.96300507, 113.99741364, 32.32999802, 0.00000000
1, 0.7000, 93, -0.18451351, -0.79221165, 0.36344850, 33.37949753, -36.71038437, 92.58024597, -16.72025681, 8.12627888, -72.40573120, 97.85612488, 4.32598734, -15.12637615, -0.64708149, 0.75005782, -0.07457400, -0.11461909, 0.26089543, -0.19612089, -0.22955450, 99.96300507, 113.99741364, 32.32999802, 0.00000000
1, 0.7050, 94, -0.32005936, -0.83241224, 0.32835254, 30.15941620, -36.42721939, 86.84436798, -16.98333740, 6.40163708, -72.43495941, 97.99075317, 3.92100072, -15.36653614, -0.64639741, 0.75044459, -0.07859136, -0.11325517, 0.38933587, -0.15605912, -0.19240475, 99.96300507, 113.99741364, 32.32999802, 0.00000000
1, 0.7100, 95, -0.41979027, -0.85624278, 0.32748055, 26.71321487, -34.72235107, 82.75765991, -16.98333740, 6.40163708, -72.43495941, 98.11039734, 3.53556490, -15.59620476, -0.64580101, 0.75074285, -0.08240876, -0.11196071, 0.48228082, -0.13237175, -0.18959263, 99.96300507, 113.99741364, 32.32999802, 0.00000000
1, 0.7150, 96, -0.55678052, -0.88741410, 0.30514264, 22.76281357, -29.72955132, 77.91449738, -16.98333740, 6.40163708, -72.43495941, 98.21335602, 3.17098927, -15.79836273, -0.64531863, 0.75095963, -0.08590646, -0.11065178, 0.61290503, -0.10128981, -0.16579375, 99.96300507, 113.99741364, 32.32999802, 0.00000000
1, 0.7750, 97, -0.01317128, -1.03453004, 0.06285848, 10.73868370, -6.26195288, 50.58516312, -18.97106171, 8.94475269, -71.70417786, 99.25289917, -0.46022069, -16.10096741, -0.64180809, 0.75395894, -0.10926694, -0.08768683, 0.00604247, 0.04742243, 0.09595905, 99.96300507, 113.99741364, 32.32999802, 0.00000000
1, 0.7800, 98, 0.02804640, -0.99094343, 0.08521134, 12.48174286, -11.97907257, 51.40816879, -19.46799088, 8.41859055, -72.02572632, 99.31697845, -0.70423937, -16.20112610, -0.64153141, 0.75401950, -0.11133879, -0.08657845, -0.03948902, 0.00400990, 0.07483056, 99.96300507, 113.99741364, 32.32999802, 0.00000000
1, 0.7850, 99, 0.04975118, -0.97265279, 0.16350007, 14.08788681, -18.27502632, 51.62322998, -19.46799088, 8.41859055, -72.02572632, 99.38995361, -0.94411516, -16.33282852, -0.64116830, 0.75409567, -0.11359958, -0.08566269, -0.06560077, -0.01415140, -0.00215348, 99.96300507, 113.99741364, 32.32999802, 0.00000000
1, 0.7900, 100, 0.04856847, -0.95722818, 0.23725156, 12.99459457, -25.15677071, 50.59681320, -19.46799088, 8.41859055, -72.02572632, 99.46483612, -1.16865420, -16.49815941, -0.64075422, 0.75415438, -0.11599541, -0.08503143, -0.06861070, -0.02941809, -0.07462666, 99.96300507, 113.99741364, 32.32999802, 0.00000000
1, 0.7950, 101, 0.03097200, -0.94188964, 0.26567808, 10.37364101, -29.29441833, 49.33977890, -19.14644814, 8.44782257, -71.35340118, 99.52144623, -1.38799202, -16.68298340, -0.64044201, 0.75408721, -0.11847506, -0.08455929, -0.05491241, -0.04454157, -0.10200092, 99.96300507, 113.99741364, 32.32999802, 0.00000000
1, 0.8000, 102, 0.00062306, -0.92941070, 0.26663271, 8.44384193, -31.84931755, 47.69104767, -19.14644814, 8.44782257, -71.35340118, 99.56937408, -1.59695911, -16.87927437, -0.64017010, 0.75396025, -0.12096436, -0.08422656, -0.02825755, -0.05678789, -0.10217558, 99.96300507, 113.99741364, 32.32999802, 0.00000000
1, 0.8050, 103, -0.06439627, -0.92400646, 0.31755573, 7.44283104, -31.84795570, 45.81100845, -20.11107826, 8.27243519, -71.41186523, 99.61292267, -1.79650986, -17.07420158, -0.63992035, 0.75381023, -0.12338747, -0.08395113, 0.03311377, -0.06204570, -0.15249710, 99.96300507, 113.99741364, 32.32999802, 0.00000000
1, 0.8100, 104, -0.12860230, -0.92740548, 0.34139115, 6.67093945, -27.40582275, 43.29779434, -20.11107826, 8.27243519, -71.41186523, 99.65246582, -1.98721409, -17.24529266, -0.63970721, 0.75366414, -0.12560026, -0.08360377, 0.09389599, -0.05846202, -0.17582533, 99.96300507, 113.99741364, 32.32999802, 0.00000000
1, 0.8150, 105, -0.19985746, -0.94593430, 0.30797026, 7.01542044, -24.04045105, 41.06018829, -20.11107826, 8.27243519, -71.41186523, 99.69359589, -2.16956329, -17.39805794, -0.63949031, 0.75354862, -0.12764600, -0.08320618, 0.16201690, -0.03964687, -0.14193234, 99.96300507, 113.99741364, 32.32999802, 0.00000000
1, 0.8200, 106, -0.26097012, -0.96893549, 0.28524020, 7.23712158, -22.27921867, 38.85600281, -20.16954041, 9.09090900, -71.52879333, 99.73586273, -2.34240389, -17.54045868, -0.63926536, 0.75345457, -0.12957048, -0.08281095, 0.22013855, -0.01636874, -0.11868823, 99.96300507, 113.99741364, 32.32999802, 0.00000000
1, 0.8700, 107, -0.19405909, -0.99966311, 0.21947344, 7.13024044, 12.94353199, 25.36057091, -21.01724625, 7.62934828, -71.26570892, 100.16213989, -3.88623118, -17.71657753, -0.63768923, 0.75401866, -0.13953488, -0.07306467, 0.12632053, 0.01718934, -0.04569502, 99.96600342, 113.74507904, 32.38000107, 0.00000000
1, 0.8750, 108, -0.17146683, -1.00250340, 0.20148331, 6.04659414, 14.01165867, 23.99773788, -21.01724625, 7.62934828, -71.26570892, 100.18935394, -4.01655579, -17.66847610, -0.63764977, 0.75408679, -0.13995151, -0.07189849, 0.10147524, 0.02030277, -0.02718633, 99.96600342, 113.74507904, 32.38000107, 0.00000000
1, 0.8800, 109, -0.16018669, -1.00289106, 0.19742920, 5.43803978, 14.13238811, 23.09700584, -21.95264435, 8.65244102, -70.79801178, 100.21331787, -4.14258289, -17.61903381, -0.63762736, 0.75414288, -0.14033313, -0.07075700, 0.08799100, 0.02092726, -0.02271090, 99.96600342, 113.74507904, 32.38000107, 0.00000000
1, 0.8850, 110, -0.14552845, -1.00312817, 0.17890932, 5.01201057, 13.87096977, 22.21989250, -21.95264435, 8.65244102, -70.79801178, 100.23506165, -4.26409197, -17.57015800, -0.63761389, 0.75419039, -0.14069176, -0.06965104, 0.07125223, 0.02141529, -0.00380537, 99.96600342, 113.74507904, 32.38000107, 0.00000000
1, 0.8900, 111, -0.13621666, -1.00849104, 0.15890841, 4.98094559, 13.42564392, 21.89420319, -21.95264435, 8.65244102, -70.79801178, 100.25308990, -4.39156723, -17.52276802, -0.63762736, 0.75420845, -0.14109020, -0.06851798, 0.05983269, 0.02703182, 0.01652028, 99.96600342, 113.74507904, 32.38000107, 0.00000000
1, 0.8950, 112, -0.12537256, -1.01288104, 0.15429050, 5.37789202, 12.91116619, 21.70162773, -21.89418221, 8.88629055, -71.35340118, 100.27678680, -4.50970602, -17.47823906, -0.63759267, 0.75426430, -0.14145917, -0.06745560, 0.04686878, 0.03165726, 0.02149265, 99.96600342, 113.74507904, 32.38000107, 0.00000000
1, 0.9000, 113, -0.10761585, -1.01720977, 0.14770712, 5.37924910, 12.71148777, 21.31127548, -21.89418221, 8.88629055, -71.35340118, 100.30047607, -4.62576151, -17.43438911, -0.63755471, 0.75432128, -0.14182068, -0.06641057, 0.02709742, 0.03622948, 0.02849249, 99.96600342, 113.74507904, 32.38000107, 0.00000000
1, 0.9050, 114, -0.08786001, -1.01331651, 0.14869101, 5.34682369, 12.37142467, 20.95306206, -22.06957054, 7.01549244, -71.35340118, 100.32399750, -4.73977280, -17.39193916, -0.63751400, 0.75437748, -0.14217962, -0.06538683, 0.00535209, 0.03256717, 0.02793784, 99.96600342, 113.74507904, 32.38000107, 0.00000000
1, 0.9100, 115, -0.07763317, -1.01299763, 0.14264974, 5.59670210, 12.24024296, 20.70139122, -22.06957054, 7.01549244, -71.35340118, 100.34870911, -4.85244513, -17.34994888, -0.63746303, 0.75444090, -0.14253445, -0.06437282, -0.00682781, 0.03249562, 0.03439265, 99.96600342, 113.74507904, 32.38000107, 0.00000000
1, 0.9150, 116, -0.06998770, -1.01890433, 0.14882517, 5.77451372, 12.17888069, 20.41724586, -22.06957054, 7.01549244, -71.35340118, 100.37424469, -4.96368456, -17.30805969, -0.63740408, 0.75450999, -0.14288203, -0.06336755, -0.01642687, 0.03863430, 0.02863130, 99.96600342, 113.74507904, 32.38000107, 0.00000000
1, 0.9400, 117, -0.04990123, -1.01934004, 0.21927662, 4.35397482, 15.23532391, 21.73500633, -22.01110840, 7.24934244, -70.53492737, 100.48128510, -5.53482962, -17.06682396, -0.63725442, 0.75475830, -0.14447428, -0.05808677, -0.04663081, 0.04018380, -0.04011041, 99.96600342, 113.74507904, 32.38000107, 0.00000000
1, 0.9450, 118, -0.05597225, -1.02012396, 0.22869676, 4.20388126, 16.05195236, 22.49247742, -22.01110840, 7.24934244, -70.53492737, 100.49681854, -5.65987587, -17.00787735, -0.63727206, 0.75477529, -0.14477712, -0.05690565, -0.04267513, 0.04121098, -0.04926980, 99.96600342, 113.74507904, 32.38000107, 0.00000000
1, 0.9500, 119, -0.06314702, -1.01838505, 0.23148844, 4.01759338, 16.87327385, 23.04021072, -22.01110840, 7.24934244, -70.53492737, 100.51097870, -5.78838348, -16.94540024, -0.63730115, 0.75478470, -0.14507450, -0.05568326, -0.03772597, 0.03973073, -0.05186980, 99.96600342, 113.74507904, 32.38000107, 0.00000000
1, 0.9550, 120, -0.06321263, -1.01114249, 0.22616492, 3.61499500, 17.87340546, 23.31453896, -22.44957542, 9.09090900, -70.44723511, 100.52248383, -5.91915655, -16.87824059, -0.63734972, 0.75478244, -0.14535183, -0.05442283, -0.03990844, 0.03276280, -0.04636513, 99.96600342, 113.74507904, 32.38000107, 0.00000000
1, 0.9600, 121, -0.06478696, -1.00010574, 0.23143061, 3.28153253, 19.01591110, 23.48622513, -22.44957542, 9.09090900, -70.44723511, 100.53160858, -6.05182028, -16.80558777, -0.63741571, 0.75477123, -0.14560187, -0.05312202, -0.04064328, 0.02198301, -0.05149803, 99.96600342, 113.74507904, 32.38000107, 0.00000000
1, 0.9650, 122, -0.06843378, -0.99011433, 0.24366821, 2.98593616, 19.98302269, 23.72335052, -23.70651817, 8.85705948, -71.14878845, 100.53859711, -6.18654585, -16.72837257, -0.63749701, 0.75475109, -0.14583187, -0.05178453, -0.03935334, 0.01223954, -0.06364389, 99.96600342, 113.74507904, 32.38000107, 0.00000000
1, 0.9700, 123, -0.08114450, -0.98061883, 0.25240263, 2.47476768, 21.18605423, 24.21421051, -23.70651817, 8.85705948, -71.14878845, 100.54225922, -6.32478619, -16.64565659, -0.63760251, 0.75471497, -0.14604314, -0.05039695, -0.02904671, 0.00299952, -0.07236356, 99.96600342, 113.74507904, 32.38000107, 0.00000000
1, 0.9750, 124, -0.08942066, -0.96667278, 0.25021550, 2.17058730, 22.85100555, 24.39797783, -23.70651817, 8.85705948, -71.14878845, 100.54327393, -6.46544933, -16.55484962, -0.63772792, 0.75467122, -0.14621305, -0.04895131, -0.02319689, -0.01067175, -0.07019901, 99.96600342, 113.74507904, 32.38000107, 0.00000000
1, 1.0100, 125, -0.03355489, -0.93246889, 0.16675740, 2.84643292, 20.33773804, 26.32744408, -23.91113663, 9.38322163, -70.88570404, 100.54848480, -7.46844578, -15.88455486, -0.63856083, 0.75436592, -0.14727184, -0.03851178, -0.09620333, -0.04265222, 0.01313932, 99.96600342, 113.74507904, 32.38000107, 0.00000000
1, 1.0150, 126, -0.02930693, -0.93972766, 0.15979607, 2.80567169, 17.98656464, 27.04306793, -24.34960556, 8.12627888, -70.56416321, 100.55438995, -7.61769629, -15.82008743, -0.63862693, 0.75430202, -0.14766301, -0.03714734, -0.10300906, -0.03503081, 0.02013223, 99.96600342, 113.74507904, 32.38000107, 0.00000000
1, 1.0200, 127, -0.04161669, -0.95273399, 0.15447643, 2.97922683, 15.50389004, 27.50746727, -24.34960556, 8.12627888, -70.56416321, 100.56270599, -7.76698828, -15.76836967, -0.63867068, 0.75423443, -0.14813881, -0.03585035, -0.09327253, -0.02164952, 0.02546713, 99.96600342, 113.74507904, 32.38000107, 0.00000000
1, 1.0250, 128, -0.05619633, -0.96492386, 0.14711507, 2.65887856, 12.63889408, 27.75872421, -24.34960556, 8.12627888, -70.56416321, 100.57125092, -7.91492224, -15.73109913, -0.63870579, 0.75415033, -0.14870206, -0.03464246, -0.08123842, -0.00907525, 0.03285325, 99.96600342, 113.74507904, 32.38000107, 0.00000000
1, 1.0300, 129, -0.06928271, -0.97348940, 0.14376904, 2.37807059, 9.42779064, 27.93112755, -24.67114830, 8.44782257, -70.91493988, 100.58056641, -8.06078625, -15.70993900, -0.63872820, 0.75405127, -0.14935994, -0.03353699, -0.07067375, -0.00012778, 0.03624319, 99.96600342, 113.74507904, 32.38000107, 0.00000000
1, 1.0350, 130, -0.09262463, -0.97924781, 0.13802184, 2.23030066, 6.95227814, 27.97916222, -24.67114830, 8.44782257, -70.91493988, 100.59081268, -8.20464993, -15.70113373, -0.63873869, 0.75394273, -0.15008815, -0.03251240, -0.04981236, 0.00602084, 0.04202854, 99.96600342, 113.74507904, 32.38000107, 0.00000000
1, 1.0400, 131, -0.13487558, -0.98897088, 0.11980551, 2.21117377, 5.62505674, 28.12302971, -24.72961044, 8.79859638, -70.24261475, 100.59054565, -8.34873390, -15.69743156, -0.63881576, 0.75376749, -0.15084782, -0.03152839, -0.01000112, 0.01614356, 0.06014439, 99.96600342, 113.74507904, 32.38000107, 0.00000000
1, 1.0450, 132, -0.16794524, -0.99329579, 0.11581966, 2.39830327, 4.82853889, 27.99650574, -24.72961044, 8.79859638, -70.24261475, 100.60313416, -8.49073792, -15.69922447, -0.63880473, 0.75365818, -0.15163553, -0.03057187, 0.02061607, 0.02085288, 0.06408669, 99.96600342, 113.74507904, 32.38000107, 0.00000000
1, 1.0500, 133, -0.19364004, -0.99673045, 0.11832697, 2.68929386, 4.24432707, 27.76856422, -24.72961044, 8.79859638, -70.24261475, 100.61761475, -8.63109493, -15.70374203, -0.63877887, 0.75355655, -0.15243225, -0.02963885, 0.04387532, 0.02468564, 0.06167908, 99.96600342, 113.74507904, 32.38000107, 0.00000000
1, 1.0550, 134, -0.21272627, -0.99435961, 0.13222624, 2.82484245, 4.73958921, 27.49822426, -25.31423569, 8.82782841, -69.95030975, 100.63233948, -8.77056885, -15.70558643, -0.63875067, 0.75345999, -0.15320617, -0.02869625, 0.06051400, 0.02270007, 0.04791766, 99.96600342, 113.74507904, 32.38000107, 0.00000000
1, 1.0800, 135, -0.22809987, -1.00288868, 0.20749407, 3.62564874, 11.65072250, 25.72489166, -25.69424057, 8.97398376, -70.44723511, 100.70302582, -9.45910454, -15.61687565, -0.63863260, 0.75308883, -0.15637664, -0.02349717, 0.06382705, 0.03319789, -0.02654654, 99.96600342, 113.74507904, 32.38000107, 0.00000000
1, 1.0850, 136, -0.22135906, -1.00440657, 0.22505815, 3.35137200, 13.64428425, 25.28516769, -25.69424057, 8.97398376, -70.44723511, 100.71275330, -9.59589577, -15.57248688, -0.63863915, 0.75302505, -0.15682854, -0.02232039, 0.05468553, 0.03510838, -0.04398893, 99.96600342, 113.74507904, 32.38000107, 0.00000000
1, 1.0900, 137, -0.21674065, -1.00120819, 0.23288180, 3.11014581, 15.84701920, 24.85001373, -26.07424736, 8.88629055, -70.15492249, 100.72541046, -9.73772144, -15.51763535, -0.63862890, 0.75298482, -0.15723918, -0.02104737, 0.04765121, 0.03233004, -0.05169563, 99.96600342, 113.74507904, 32.38000107, 0.00000000
1, 1.0950, 138, -0.22076796, -1.00125074, 0.24024451, 2.93805528, 18.19212341, 24.31221199, -26.07424736, 8.88629055, -70.15492249, 100.72882843, -9.87394428, -15.44966316, -0.63867712, 0.75291795, -0.15753129, -0.01975130, 0.04927071, 0.03278820, -0.05902162, 99.96600342, 113.74507904, 32.38000107, 0.00000000
1, 1.1000, 139, -0.21074675, -1.00526547, 0.25203821, 2.98614597, 19.98135185, 23.79341125, -26.07424736, 8.88629055, -70.15492249, 100.73067474, -10.00926971, -15.37226486, -0.63873470, 0.75285596, -0.15775622, -0.01841074, 0.03688965, 0.03718991, -0.07083888, 99.96600342, 113.74507904, 32.38000107, 0.00000000
1, 1.1050, 140, -0.19666354, -1.01648796, 0.26701683, 3.13430548, 25.34965134, 23.67411804, -25.75270271, 8.56474686, -70.53492737, 100.72837830, -10.14896679, -15.26792812, -0.63882279, 0.75280190, -0.15782714, -0.01689631, 0.02038876, 0.04879956, -0.08589274, 99.96600342, 113.74507904, 32.38000107, 0.00000000
1, 1.1100, 141, -0.19375351, -1.00903702, 0.22997813, 2.36623240, 26.99152565, 23.19724655, -25.75270271, 8.56474686, -70.53492737, 100.72042847, -10.28783607, -15.15488529, -0.63894576, 0.75272900, -0.15783569, -0.01534654, 0.01517833, 0.04180973, -0.04902944, 99.96600342, 113.74507904, 32.38000107, 0.00000000
1, 1.1150, 142, -0.19248606, -1.00960267, 0.21653785, 2.17554498, 28.09965515, 23.40134621, -26.22040367, 8.50628471, -70.12569427, 100.71030426, -10.42869949, -15.03642559, -0.63908088, 0.75264835, -0.15781936, -0.01375605, 0.01153741, 0.04279730, -0.03583279, 99.96600342, 113.74507904, 32.38000107, 0.00000000
1, 1.1200, 143, -0.15194362, -1.01243198, 0.22546005, 2.55585456, 29.13405800, 23.98199844, -26.22040367, 8.50628471, -70.12569427, 100.70094299, -10.57335281, -14.91326427, -0.63920927, 0.75257295, -0.15779305, -0.01211273, -0.03148970, 0.04602817, -0.04490606, 99.96600342, 113.74507904, 32.38000107, 0.00000000
1, 1.1250, 144, -0.12197447, -1.00952661, 0.23635307, 2.57927990, 30.26972389, 24.56960297, -26.22040367, 8.50628471, -70.12569427, 100.69041443, -10.72191906, -14.78488159, -0.63934344, 0.75249279, -0.15775380, -0.01041554, -0.06401958, 0.04353898, -0.05597846, 99.96600342, 113.74507904, 32.38000107, 0.00000000
1, 1.1600, 145, -0.10096152, -0.99025035, 0.17379320, 3.67125797, 38.29532242, 30.21513748, -27.44811440, 8.74013424, -69.86260986, 100.57884216, -11.88046169, -13.74859905, -0.64044011, 0.75173593, -0.15722807, 0.00297983, -0.10454804, 0.02786404, 0.00407688, 99.96600342, 113.74507904, 32.38000107, 0.00000000
1, 1.1650, 146, -0.07769306, -0.99338734, 0.17790657, 4.55479288, 39.07131195, 31.58941841, -28.00350761, 8.30166626, -70.27185059, 100.56736755, -12.07125378, -13.58158779, -0.64055085, 0.75164241, -0.15716755, 0.00517553, -0.13106120, 0.03162774, -0.00031369, 99.96600342, 113.74507904, 32.38000107, 0.00000000
1, 1.1700, 147, -0.06251936, -0.99849308, 0.17459665, 4.48629761, 39.14424133, 32.88896179, -28.00350761, 8.30166626, -70.27185059, 100.55512238, -12.26846981, -13.41524792, -0.64066088, 0.75153416, -0.15714675, 0.00740954, -0.14956282, 0.03740577, 0.00269304, 99.96600342, 113.74507904, 32.38000107, 0.00000000
1, 1.1750, 148, -0.04549587, -1.00829041, 0.16517381, 4.46100807, 38.62157440, 34.34901428, -28.00350761, 8.30166626, -70.27185059, 100.54304504, -12.47235107, -13.25272655, -0.64076430, 0.75141191, -0.15718760, 0.00966716, -0.17001006, 0.04792079, 0.01180098, 99.96600342, 113.74507904, 32.38000107, 0.00000000
1, 1.1800, 149, -0.03006067, -1.01774216, 0.16566470, 4.65234232, 37.88610840, 36.04660034, -28.35428238, 8.41859055, -69.86260986, 100.53247070, -12.68388367, -13.09532547, -0.64085221, 0.75127977, -0.15730378, 0.01194946, -0.18901855, 0.05811789, 0.01100373, 99.96600342, 113.74507904, 32.38000107, 0.00000000
1, 1.1850, 150, -0.02654698, -1.03678930, 0.17299069, 4.77673769, 36.77045059, 37.59577942, -28.35428238, 8.41859055, -69.86260986, 100.52349091, -12.90198612, -12.94480228, -0.64092410, 0.75113714, -0.15750088, 0.01423949, -0.19623645, 0.07794328, 0.00334812, 99.96600342, 113.74507904, 32.38000107, 0.00000000
1, 1.1900, 151, -0.03234350, -1.04972982, 0.17026296, 4.15284872, 35.78571320, 39.22770309, -28.67582512, 8.33089733, -69.86260986, 100.51035309, -13.11184216, -12.80051422, -0.64101601, 0.75097322, -0.15769503, 0.01643366, -0.19410251, 0.09168275, 0.00569595, 99.96600342, 113.74507904, 32.38000107, 0.00000000
1, 1.1950, 152, -0.03829929, -1.05588806, 0.16602992, 3.38639569, 34.83368301, 40.89727402, -28.67582512, 8.33089733, -69.86260986, 100.49620056, -13.34439373, -12.66249371, -0.64111084, 0.75076270, -0.15805393, 0.01874325, -0.19192615, 0.09867529, 0.00949935, 99.96600342, 113.74507904, 32.38000107, 0.00000000
1, 1.2000, 153, -0.03816716, -1.05669785, 0.17670476, 3.43872380, 33.81931686, 42.55493546, -28.67582512, 8.33089733, -69.86260986, 100.48328400, -13.58414268, -12.53094578, -0.64119190, 0.75053889, -0.15849449, 0.02106637, -0.19612597, 0.10037258, -0.00157909, 99.96600342, 113.74507904, 32.38000107, 0.00000000
1, 1.2050, 154, -0.04644894, -1.06016290, 0.17563078, 2.58910775, 33.87527084, 44.28464508, -29.34814262, 9.06167793, -69.83338165, 100.46588898, -13.83243084, -12.40052223, -0.64129567, 0.75027519, -0.15899003, 0.02343394, -0.19201350, 0.10478819, -0.00097110, 99.96600342, 113.74507904, 32.38000107, 0.00000000
1, 1.2200, 155, -0.05410959, -1.03172338, 0.18733577, 1.88178563, 34.90814590, 50.38228607, -29.81584358, 8.71090317, -70.53492737, 100.40242004, -14.63653851, -12.01419544, -0.64163512, 0.74932104, -0.16083649, 0.03088773, -0.19785771, 0.07948263, -0.01431045, 99.96600342, 113.74507904, 32.38000107, 0.00000000
1, 1.2250, 156, -0.06186399, -1.02485549, 0.19630554, 1.95094264, 35.52260208, 52.39403534, -29.81584358, 8.71090317, -70.09646606, 100.37907410, -14.92601109, -11.88188362, -0.64174396, 0.74896121, -0.16154709, 0.03353154, -0.19496664, 0.07377997, -0.02389962, 99.96600342, 113.74507904, 32.38000107, 0.00000000
1, 1.2300, 157, -0.06024495, -1.01898646, 0.19562672, 1.87261355, 36.55516434, 54.34750748, -30.45892906, 8.38935947, -70.09646606, 100.35370636, -15.22596741, -11.74580479, -0.64185470, 0.74857807, -0.16229133, 0.03626308, -0.20159566, 0.06915836, -0.02385801, 99.96600342, 113.74507904, 32.38000107, 0.00000000
1, 1.2350, 158, -0.05654372, -1.01690125, 0.18909521, 2.03317595, 38.45683289, 56.45886993, -30.45892906, 8.38935947, -70.09646606, 100.32633209, -15.53793430, -11.60163689, -0.64196461, 0.74817532, -0.16304946, 0.03911668, -0.21048351, 0.06840241, -0.01802027, 99.96600342, 113.74507904, 32.38000107, 0.00000000
1, 1.2400, 159, -0.05593282, -1.01805854, 0.18700492, 2.12512422, 40.11754608, 58.42515182, -30.95586014, 8.76936531, -70.06723022, 100.29689026, -15.84688950, -11.45074081, -0.64207470, 0.74777246, -0.16374916, 0.04198412, -0.21635392, 0.07092483, -0.01666689, 99.96600342, 113.74507904, 32.38000107, 0.00000000
1, 1.2450, 160, -0.04196544, -1.02215695, 0.17685457, 1.79775226, 41.18020630, 60.48767853, -30.95586014, 8.76936531, -70.06723022, 100.26380920, -16.18094826, -11.29555035, -0.64219213, 0.74731594, -0.16455953, 0.04503721, -0.23573893, 0.07647215, -0.00730022, 99.96600342, 113.74507904, 32.38000107, 0.00000000
1, 1.2500, 161, -0.01951701, -1.02642107, 0.16229926, 1.72329926, 41.96159744, 62.75059128, -31.62817764, 9.12014008, -69.65799713, 100.22883606, -16.52675438, -11.13795280, -0.64230627, 0.74683189, -0.16542004, 0.04817839, -0.26389340, 0.08230551, 0.00643423, 99.96600342, 113.74507904, 32.38000107, 0.00000000
1, 1.2550, 162, 0.01579821, -1.02591574, 0.15702941, 1.51675379, 41.99990082, 65.45315552, -31.62817764, 9.12014008, -69.65799713, 100.19243622, -16.88580132, -10.98212624, -0.64241433, 0.74631423, -0.16636604, 0.05139469, -0.30514288, 0.08344922, 0.01088710, 99.96600342, 113.74507904, 32.38000107, 0.00000000
1, 1.2600, 163, 0.05883649, -1.02192140, 0.16146179, 1.42161047, 41.71836853, 68.46213531, -31.62817764, 9.12014008, -69.65799713, 100.15572357, -17.25932312, -10.82994938, -0.64250880, 0.74576402, -0.16741593, 0.05468518, -0.35436732, 0.08119477, 0.00562802, 99.96600342, 113.74507904, 32.38000107, 0.00000000
1, 1.2650, 164, 0.10637284, -1.02481055, 0.16106559, 1.80364847, 40.22097015, 71.50617218, -32.79742813, 8.94475269, -69.45337677, 100.12298584, -17.64642334, -10.68774319, -0.64256442, 0.74519676, -0.16860378, 0.05801455, -0.40829617, 0.08595183, 0.00522688, 99.96600342, 113.74507904, 32.38000107, 0.00000000
1, 1.3150, 165, 0.09039306, -1.29289758, 0.14353873, 6.45114231, 13.97576904, 107.48603821, -35.51593018, 9.03244686, -69.57029724, 100.23353577, -22.38102722, -10.31406116, -0.63987356, 0.73853046, -0.19160271, 0.09177765, -0.46931714, 0.38177899, 0.01882236, 99.96600342, 113.74507904, 32.38000107, 0.00000000
1, 1.3200, 166, 0.07544918, -1.31669927, 0.10909880, 8.19856453, 14.26764202, 110.48523712, -35.51593018, 9.03244686, -69.57029724, 100.28730011, -22.93727303, -10.34360981, -0.63927138, 0.73777711, -0.19472195, 0.09539652, -0.46319711, 0.40941876, 0.05333813, 99.96600342, 113.74507904, 32.38000107, 0.00000000
1, 1.3250, 167, 0.06900424, -1.34281158, 0.10046297, 10.34922028, 13.71174335, 114.12508392, -36.80210495, 9.61707115, -69.68722534, 100.35498047, -23.51088142, -10.38042068, -0.63856423, 0.73703730, -0.19795987, 0.09911504, -0.46588498, 0.43957025, 0.06224275, 99.96600342, 113.74507904, 32.38000107, 0.00000000
1, 1.3300, 168, 0.07560986, -1.38245213, 0.06934385, 11.45034122, 14.61363411, 117.60273743, -36.80210495, 9.61707115, -69.68722534, 100.42832947, -24.10233879, -10.41670132, -0.63779759, 0.73627508, -0.20127414, 0.10296650, -0.48178357, 0.48350739, 0.09370458, 99.96600342, 113.74507904, 32.38000107, 0.00000000
1, 1.3350, 169, 0.07376876, -1.40969038, 0.03448894, 12.39391422, 16.48579216, 119.77352905, -36.80210495, 9.61707115, -69.68722534, 100.50389099, -24.70611191, -10.44602394, -0.63698959, 0.73549151, -0.20459600, 0.10694405, -0.48941642, 0.51525497, 0.12889937, 99.96600342, 113.74507904, 32.38000107, 0.00000000
1, 1.3400, 170, 0.06732348, -1.43315518, -0.00009383, 13.51205063, 18.51128197, 121.41997528, -37.53288651, 7.74627304, -70.03800201, 100.57669830, -25.30828094, -10.46510983, -0.63617605, 0.73469156, -0.20783494, 0.11096442, -0.49247634, 0.54336083, 0.16378057, 99.96600342, 113.74507904, 32.38000107, 0.00000000
1, 1.3450, 171, 0.06453368, -1.45438707, -0.02753713, 14.52412796, 20.49934006, 123.13697815, -37.53288651, 7.74627304, -70.03800201, 100.65642548, -25.93215752, -10.47801590, -0.63528299, 0.73387587, -0.21113059, 0.11517696, -0.49931419, 0.56940079, 0.19152582, 99.96600342, 113.74507904, 32.38000107, 0.00000000
1, 1.3500, 172, 0.07188925, -1.46582937, -0.05324063, 15.41905022, 23.45108795, 125.29908752, -38.20520401, 8.94475269, -69.68722534, 100.73505402, -26.56933594, -10.47798347, -0.63435799, 0.73302788, -0.21440220, 0.11954860, -0.51653945, 0.58589447, 0.21754026, 99.96600342, 113.74507904, 32.38000107, 0.00000000
1, 1.3550, 173, 0.08514220, -1.47031903, -0.07244754, 17.26213455, 27.45148277, 127.64936829, -38.20520401, 8.94475269, -69.68722534, 100.81449890, -27.22174835, -10.45933247, -0.63337874, 0.73216468, -0.21762124, 0.12412652, -0.53985345, 0.59564888, 0.23703897, 99.96600342, 113.74507904, 32.38000107, 0.00000000
1, 1.3600, 174, 0.10594013, -1.46990216, -0.07791428, 19.30278587, 32.68125534, 129.64085388, -38.20520401, 8.94475269, -69.68722534, 100.89194489, -27.88882828, -10.41468716, -0.63235176, 0.73128599, -0.22074041, 0.12894154, -0.57091880, 0.60070062, 0.24274510, 99.96600342, 113.74507904, 32.38000107, 0.00000000
1, 1.4050, 175, 0.12163026, -1.52375579, 0.15241052, 13.26227093, 127.61522675, 122.41129303, -43.17451096, 11.60479355, -69.62876129, 100.50008392, -34.20796967, -7.73102283, -0.62501150, 0.72048831, -0.23717427, 0.18440618, -0.68160558, 0.70881116, -0.00254201, 99.96600342, 113.74507904, 32.38000107, 0.00000000
1, 1.4100, 176, 0.18892986, -1.47168946, 0.17733589, 15.59119034, 140.87559509, 122.24205017, -43.17451096, 11.60479355, -69.62876129, 100.17675018, -34.93453217, -7.02122402, -0.62496972, 0.71850026, -0.23702578, 0.19232567, -0.75940824, 0.66292167, -0.03292356, 99.96600342, 113.74507904, 32.38000107, 0.00000000
1, 1.4150, 177, 0.21456921, -1.41784310, 0.27210975, 13.23752213, 152.61595154, 119.85281372, -45.39608383, 12.51096153, -69.71645355, 99.78500366, -35.65578461, -6.22623110, -0.62510031, 0.71632409, -0.23648542, 0.20050982, -0.79561585, 0.61514384, -0.13405220, 99.96600342, 113.74507904, 32.38000107, 0.00000000
1, 1.4200, 178, 0.15214707, -1.34479892, 0.30735469, 6.40765858, 160.43855286, 115.07871246, -45.39608383, 12.51096153, -69.71645355, 99.31210327, -36.35509109, -5.36493778, -0.62552100, 0.71389008, -0.23562548, 0.20872289, -0.74326611, 0.54807317, -0.17686063, 99.96600342, 113.74507904, 32.38000107, 0.00000000
1, 1.4250, 179, -0.01018738, -1.26251376, 0.24804430, -0.42739820, 162.44769287, 108.69388580, -46.91610718, 9.61707115, -70.33031464, 98.77651215, -37.01834488, -4.46986628, -0.62618780, 0.71126372, -0.23455749, 0.21673852, -0.59022683, 0.47161996, -0.12616152, 99.96600342, 113.74507904, 32.38000107, 0.00000000
1, 1.4300, 180, -0.18527628, -1.16376328, 0.10982828, -3.97610378, 160.24649048, 101.85141754, -46.91610718, 9.61707115, -70.33031464, 98.21012878, -37.63924408, -3.56661487, -0.62696296, 0.70858061, -0.23335497, 0.22444716, -0.42357653, 0.37850869, 0.00307167, 99.96600342, 113.74507904, 32.38000107, 0.00000000
1, 1.4350, 181, -0.38332096, -1.03603518, 0.05080658, -2.20044374, 150.46096802, 96.54806519, -46.91610718, 9.61707115, -70.33031464, 97.67089844, -38.22018433, -2.70529723, -0.62759483, 0.70604998, -0.23222387, 0.23171169, -0.23353383, 0.25605923, 0.05337444, 99.96600342, 113.74507904, 32.38000107, 0.00000000
1, 1.4400, 182, -0.46802628, -0.99995935, 0.08685085, 1.15143967, 140.88171387, 96.31212616, -48.49459076, 13.06635475, -70.88570404, 97.17082214, -38.78232574, -1.89102113, -0.62800241, 0.70368063, -0.23127259, 0.23866206, -0.15666361, 0.22508523, 0.00945999, 99.96600342, 113.74507904, 32.38000107, 0.00000000
1, 1.4450, 183, -0.58504301, -0.97418582, 0.14217569, 3.50991368, 132.12498474, 100.66522217, -48.49459076, 13.06635475, -70.88570404, 96.70581818, -39.36075974, -1.12341821, -0.62815934, 0.70137417, -0.23068626, 0.24550776, -0.04754659, 0.20466182, -0.05319777, 99.96600342, 113.74507904, 32.38000107, 0.00000000
1, 1.4500, 184, -0.64903772, -0.98892772, 0.15533745, 3.93422914, 130.41719055, 105.24598694, -50.01461411, 13.76790428, -71.20724487, 96.23802185, -39.95613098, -0.35756335, -0.62820357, 0.69901448, -0.23026985, 0.25241837, 0.00845282, 0.22518557, -0.07352604, 99.96600342, 113.74507904, 32.38000107, 0.00000000
1, 1.4950, 185, -0.51596683, -0.83775854, 0.03536712, -23.18010521, 75.21300507, 77.70578003, -53.20081711, 14.96638393, -72.66880798, 91.59585571, -44.78409576, 5.88041449, -0.62976587, 0.67558181, -0.23124066, 0.30579722, -0.18736851, 0.12706785, -0.01685169, 99.96600342, 113.74507904, 32.38000107, 0.00000000
1, 1.5000, 186, -0.48756766, -0.72905040, 0.16669407, -22.21972275, 67.66517639, 70.29290009, -54.37006760, 13.24174213, -72.81496429, 91.15567780, -45.14333344, 6.34732151, -0.63015634, 0.67335659, -0.23174067, 0.30949998, -0.22063988, 0.02252737, -0.15349375, 99.96600342, 113.74507904, 32.38000107, 0.00000000
1, 1.5050, 187, -0.48097715, -0.67961180, 0.24473827, -24.80805016, 59.99415207, 65.30580902, -54.37006760, 13.24174213, -72.81496429, 90.73418427, -45.47459793, 6.76687574, -0.63060158, 0.67120188, -0.23233688, 0.31280860, -0.23158175, -0.02294654, -0.23677811, 99.96600342, 113.74507904, 32.38000107, 0.00000000
1, 1.5100, 188, -0.49928722, -0.57960606, 0.27047002, -29.23629951, 48.61244202, 60.42894363, -54.37006760, 13.24174213, -72.81496429, 90.34274292, -45.77899170, 7.11106253, -0.63111830, 0.66911989, -0.23316166, 0.31560084, -0.21713594, -0.11917508, -0.26731607, 99.96600342, 113.74507904, 32.38000107, 0.00000000
1, 1.5150, 189, -0.54794794, -0.47277901, 0.24085420, -29.96160507, 37.22863388, 56.97708893, -55.42238998, 15.40485191, -73.48728180, 90.00185394, -46.06451797, 7.37807798, -0.63158029, 0.66720164, -0.23420720, 0.31795493, -0.17191795, -0.22235110, -0.24197690, 99.96600342, 113.74507904, 32.38000107, 0.00000000
1, 1.5200, 190, -0.60985094, -0.35001138, 0.22702724, -26.26667213, 28.28767776, 54.92927933, -55.42238998, 15.40485191, -73.48728180, 89.72254944, -46.33892059, 7.58404064, -0.63186592, 0.66552353, -0.23538630, 0.32002696, -0.11333503, -0.34160233, -0.23166214, 99.96600342, 113.74507904, 32.38000107, 0.00000000
1, 1.5250, 191, -0.64750779, -0.24330631, 0.20952195, -23.53498268, 19.36235046, 51.87759399, -54.75007248, 14.41099072, -74.10114288, 89.50130463, -46.59777451, 7.72777414, -0.63201845, 0.66407126, -0.23668343, 0.32178128, -0.07880589, -0.44493181, -0.21690577, 99.96600342, 113.74507904, 32.38000107, 0.00000000
1, 1.5300, 192, -0.63526505, -0.22462302, 0.21629064, -17.53690529, 13.37334538, 46.64603043, -54.75007248, 14.41099072, -74.10114288, 89.34031677, -46.83042145, 7.82929039, -0.63200521, 0.66291845, -0.23790866, 0.32327721, -0.09393089, -0.46057099, -0.22567111, 99.96600342, 113.74507904, 32.38000107, 0.00000000
1, 1.5350, 193, -0.59706271, -0.25537509, 0.23991491, -15.00747490, 8.76432705, 40.72035980, -54.75007248, 14.41099072, -73.54574585, 89.21582031, -47.03356552, 7.89770937, -0.63195211, 0.66195869, -0.23905340, 0.32450089, -0.13470918, -0.42715117, -0.25080970, 99.96600342, 113.74507904, 32.38000107, 0.00000000
1, 1.5400, 194, -0.54669428, -0.35157982, 0.26347861, -14.10138321, 2.84469557, 33.66244888, -55.77316666, 15.52177715, -73.54574585, 89.16850281, -47.21061325, 7.89276695, -0.63173211, 0.66132432, -0.24025197, 0.32533637, -0.18729664, -0.32865018, -0.27528113, 99.96600342, 113.74507904, 32.38000107, 0.00000000
1, 1.5650, 195, -0.15469460, -0.31879386, 0.15312763, -34.43502045, -30.07787514, -17.26847458, -55.97778320, 15.46331501, -73.83805847, 88.82857513, -47.28999329, 7.41040182, -0.63482535, 0.65826160, -0.24445473, 0.32238233, -0.58075750, -0.35930660, -0.16792284, 99.96600342, 113.74507904, 32.38000107, 0.00000000
1, 1.5700, 196, -0.05590441, -0.25095475, 0.10190352, -33.50869751, -43.99644852, -26.30496216, -55.97778320, 15.46331501, -73.83805847, 88.90146637, -47.16364670, 7.08238983, -0.63568550, 0.65822756, -0.24539512, 0.32003385, -0.67805827, -0.42854670, -0.11576016, 99.96600342, 113.74507904, 32.38000107, 0.00000000
1, 1.5750, 197, 0.00339278, -0.21448664, 0.06106200, -31.88511086, -59.84328079, -36.02722931, -55.91932297, 15.11254025, -73.75036621, 89.06703949, -46.98974609, 6.63797569, -0.63645935, 0.65855747, -0.24647218, 0.31697491, -0.73533010, -0.46704951, -0.07306737, 99.96600342, 113.74507904, 32.38000107, 0.00000000
1, 1.5800, 198, 0.03545419, -0.19496073, 0.02999791, -29.78811646, -76.62415314, -45.84788513, -55.91932297, 15.11254025, -73.75036621, 89.33040619, -46.76689911, 6.07232141, -0.63711965, 0.65927321, -0.24770205, 0.31317911, -0.76480454, -0.48925060, -0.03908646, 99.96600342, 113.74507904, 32.38000107, 0.00000000
1, 1.5850, 199, 0.05280112, -0.17441243, 0.02008151, -27.50210762, -94.24804688, -55.30547714, -55.07161713, 14.32329750, -73.89652252, 89.69403076, -46.49552536, 5.38200331, -0.63764006, 0.66038132, -0.24911501, 0.30863160, -0.77902317, -0.51311547, -0.02507040, 99.96600342, 113.74507904, 32.38000107, 0.00000000
1, 1.5900, 200, 0.05640927, -0.16173716, 0.03259135, -24.77147293, -110.49943542, -65.19168091, -55.07161713, 14.32329750, -73.89652252, 90.15287781, -46.16130829, 4.57752132, -0.63803411, 0.66190875, -0.25060061, 0.30329633, -0.77886337, -0.52981746, -0.03232836, 99.96600342, 113.74507904, 32.38000107, 0.00000000
1, 1.5950, 201, 0.04562879, -0.15780102, 0.05803600, -22.53309822, -124.40773010, -75.64671326, -55.07161713, 14.32329750, -73.89652252, 90.68058777, -45.77985764, 3.68559408, -0.63831288, 0.66373503, -0.25218579, 0.29734638, -0.76364362, -0.53843582, -0.05155327, 99.96600342, 113.74507904, 32.38000107, 0.00000000
1, 1.6000, 202, 0.02221654, -0.16227996, 0.09635535, -21.23185349, -134.47912598, -86.66435242, -54.25314331, 13.27097321, -73.07804871, 91.25222778, -45.33660507, 2.73480272, -0.63855749, 0.66581863, -0.25370520, 0.29079828, -0.73510969, -0.53925896, -0.08300458, 99.96600342, 113.74507904, 32.38000107, 0.00000000
1, 1.6550, 203, -0.43208045, -0.53574753, 0.15296559, -26.07182503, -79.47695160, -170.32835388, -48.90382767, 10.49400711, -70.47647095, 95.59739685, -37.26343155, -4.97279501, -0.64620107, 0.69199461, -0.24486005, 0.20883310, -0.17687148, -0.25424504, -0.07785729, 99.96600342, 113.74507904, 32.38000107, 0.00000000
1, 1.6600, 204, -0.41754228, -0.53997695, 0.13606796, -27.16847229, -72.92313385, -178.25521851, -46.82841110, 7.27857351, -71.03186035, 95.66651917, -36.34146500, -5.31864262, -0.64785188, 0.69376069, -0.24179065, 0.20129931, -0.17862657, -0.25944805, -0.05892725, 99.96600342, 113.74507904, 32.38000107, 0.00000000
1, 1.6650, 205, -0.40012568, -0.53967381, 0.10181642, -27.93014145, -61.76355362, -186.39205933, -46.82841110, 7.27857351, -71.03186035, 95.68132019, -35.38425064, -5.58614302, -0.64966756, 0.69544220, -0.23814860, 0.19384940, -0.18261023, -0.26933843, -0.02325599, 99.96600342, 113.74507904, 32.38000107, 0.00000000
1, 1.6700, 206, -0.39289266, -0.54961896, 0.07942327, -26.39618111, -54.95765686, -193.71548462, -46.82841110, 7.27857351, -71.03186035, 95.67201233, -34.39386368, -5.80472994, -0.65152007, 0.69713211, -0.23406009, 0.18639858, -0.17577255, -0.26917496, 0.00006399, 99.96600342, 113.74507904, 32.38000107, 0.00000000
1, 1.6750, 207, -0.37983668, -0.56566048, 0.06272183, -25.15698242, -47.38014984, -201.36727905, -45.95147705, 9.23706532, -71.49955750, 95.63661194, -33.36911774, -5.97127151, -0.65342259, 0.69881731, -0.22949441, 0.17895727, -0.17410758, -0.26304978, 0.01734087, 99.96600342, 113.74507904, 32.38000107, 0.00000000
1, 1.6800, 208, -0.35457385, -0.58363831, 0.04108210, -23.70399284, -39.89849854, -209.30451965, -45.95147705, 9.23706532, -71.49955750, 95.57883453, -32.30856323, -6.08797598, -0.65536267, 0.70050526, -0.22444271, 0.17151611, -0.18394378, -0.25508496, 0.03922670, 99.96600342, 113.74507904, 32.38000107, 0.00000000
1, 1.6850, 209, -0.31910464, -0.61734629, 0.02577930, -21.16799736, -33.70027924, -217.07577515, -43.67144012, 8.27243519, -71.49955750, 95.51037598, -31.21235657, -6.16405153, -0.65728563, 0.70223188, -0.21893710, 0.16405044, -0.20328529, -0.23146570, 0.05455944, 99.96600342, 113.74507904, 32.38000107, 0.00000000
1, 1.6900, 210, -0.28409043, -0.66166747, 0.03389809, -18.96679497, -29.11894226, -224.35556030, -43.67144012, 8.27243519, -71.49955750, 95.43552399, -30.07906342, -6.20999002, -0.65918338, 0.70399278, -0.21302254, 0.15650205, -0.22150058, -0.19729231, 0.04632726, 99.96600342, 113.74507904, 32.38000107, 0.00000000
1, 1.6950, 211, -0.26132315, -0.71327722, 0.06110872, -17.11734200, -24.79194069, -231.32145691, -43.67144012, 8.27243519, -71.49955750, 95.35647583, -28.91617966, -6.22904587, -0.66103750, 0.70576876, -0.20675349, 0.14890558, -0.22682497, -0.15581661, 0.01885849, 99.96600342, 113.74507904, 32.38000107, 0.00000000
1, 1.7000, 212, -0.23933585, -0.75206006, 0.08790774, -16.16471481, -20.00198936, -239.03605652, -42.29757309, 7.33703566, -71.38263702, 95.26782227, -27.71706963, -6.21872807, -0.66288561, 0.70753503, -0.20008054, 0.14122599, -0.23064736, -0.12710224, -0.00833653, 99.96600342, 113.74507904, 32.38000107, 0.00000000
1, 1.7250, 213, -0.21066914, -0.90172327, 0.03710298, 3.45850611, -6.01408339, -272.25204468, -37.97135162, 5.58316278, -70.79801178, 94.94298553, -21.20950317, -5.87104034, -0.67048550, 0.71703291, -0.16133073, 0.10141745, -0.15674195, -0.02495292, 0.04108790, 99.96600342, 113.74507904, 32.38000107, 0.00000000
1, 1.7300, 214, -0.19569057, -0.93997669, 0.00756312, 8.83043480, -7.02070475, -276.30529785, -37.97135162, 5.58316278, -70.79801178, 94.95303345, -19.82987404, -5.78359604, -0.67135209, 0.71919698, -0.15285724, 0.09314995, -0.14923373, 0.00484205, 0.07137507, 99.96600342, 113.74507904, 32.38000107, 0.00000000
1, 1.7350, 215, -0.18389323, -0.97870612, -0.01638702, 13.78984928, -9.18315315, -280.24066162, -35.45746994, 5.64162540, -71.82110596, 94.99303436, -18.42967606, -5.70589924, -0.67196560, 0.72143483, -0.14428069, 0.08471800, -0.13801438, 0.03556866, 0.09653279, 99.96600342, 113.74507904, 32.38000107, 0.00000000
1, 1.7400, 216, -0.18451527, -1.00957298, -0.02689784, 17.97076035, -11.50931740, -283.43392944, -35.45746994, 5.64162540, -71.82110596, 95.05617523, -17.01000023, -5.63752222, -0.67236012, 0.72370315, -0.13561693, 0.07611664, -0.11390295, 0.05890953, 0.10862020, 99.96600342, 113.74507904, 32.38000107, 0.00000000
1, 1.7450, 217, -0.18756315, -1.02873731, -0.02009925, 21.89382172, -13.48355484, -288.33303833, -35.45746994, 5.64162540, -71.82110596, 95.14490509, -15.56770706, -5.57641888, -0.67251295, 0.72601920, -0.12683994, 0.06733558, -0.08685438, 0.07103100, 0.10378466, 99.96600342, 113.74507904, 32.38000107, 0.00000000
1, 1.7500, 218, -0.18206486, -1.12224638, -0.01911403, 26.24143600, -15.21616364, -292.98651123, -33.44051361, 5.20315695, -71.09032440, 95.25797272, -14.10151196, -5.51989079, -0.67242336, 0.72837555, -0.11793293, 0.05837566, -0.06774647, 0.15804261, 0.10505693, 99.96600342, 113.74507904, 32.38000107, 0.00000000
1, 1.7550, 219, -0.17389040, -1.18436265, -0.00834330, 29.28507423, -17.52683067, -295.77932739, -33.44051361, 5.20315695, -71.09032440, 95.38942719, -12.62045288, -5.47102308, -0.67212021, 0.73071969, -0.10897763, 0.04926610, -0.05089714, 0.21424593, 0.09691723, 99.96600342, 113.74507904, 32.38000107, 0.00000000
1, 1.7600, 220, -0.17768583, -1.24426496, -0.00374612, 30.93025970, -18.78245163, -298.03851318, -30.95586014, 5.08623219, -71.11955261, 95.53071594, -11.12765312, -5.42413139, -0.67164922, 0.73300099, -0.09996501, 0.04004952, -0.02169730, 0.26887351, 0.09509843, 99.96600342, 113.74507904, 32.38000107, 0.00000000
1, 1.7650, 221, -0.18139260, -1.26956522, -0.00964132, 32.20411682, -18.65722656, -299.90945435, -30.95586014, 5.08623219, -71.11955261, 95.67866516, -9.62569714, -5.37210083, -0.67102522, 0.73520112, -0.09086929, 0.03078051, 0.00773153, 0.28956872, 0.10391423, 99.96600342, 113.74507904, 32.38000107, 0.00000000
1, 1.7700, 222, -0.20329854, -1.32752192, -0.01284290, 33.87547302, -17.03659630, -305.92108154, -30.95586014, 5.08623219, -71.11955261, 95.83396912, -8.09476566, -5.30510712, -0.67024338, 0.73734093, -0.08151506, 0.02138826, 0.05584105, 0.34355411, 0.11002181, 99.96600342, 113.74507904, 32.38000107, 0.00000000
1, 1.8000, 223, -0.12230907, -1.60441136, 0.14590760, 28.81465912, 9.82293320, -321.06008911, -23.61882401, 6.19701815, -70.62262726, 96.73442841, 1.33504093, -4.22130537, -0.66353780, 0.74714524, -0.01979057, -0.03316781, 0.13829656, 0.61115324, -0.03221493, 99.96600342, 113.74507904, 32.38000107, 0.00000000
1, 1.8050, 224, -0.09582086, -1.58135247, 0.20058395, 25.86532784, 9.02212334, -323.60043335, -23.61882401, 6.19701815, -70.62262726, 96.86843872, 2.93698311, -3.98728275, -0.66219330, 0.74808735, -0.00902723, -0.04223645, 0.13954996, 0.58912778, -0.08449985, 99.96600342, 113.74507904, 32.38000107, 0.00000000
1, 1.8100, 225, -0.08024853, -1.57006311, 0.22019494, 19.18015480, 5.46348095, -325.77340698, -20.78339577, 6.40163708, -70.15492249, 96.97473145, 4.55125523, -3.76596189, -0.66092813, 0.74867964, 0.00171764, -0.05147754, 0.15201767, 0.57967210, -0.10228619, 99.96600342, 113.74507904, 32.38000107, 0.00000000
1, 1.8150, 226, -0.10750060, -1.59670687, 0.20444916, 13.56066418, 3.08883047, -323.16455078, -20.78339577, 6.40163708, -70.15492249, 97.05820465, 6.15356922, -3.55491281, -0.65971959, 0.74895442, 0.01232044, -0.06070970, 0.20725125, 0.60893095, -0.08541778, 99.96600342, 113.74507904, 32.38000107, 0.00000000
1, 1.8200, 227, -0.22931491, -1.59910822, 0.23693803, 8.78080368, 2.94137383, -315.78134155, -20.78339577, 6.40163708, -70.15492249, 97.12338257, 7.71901035, -3.34641290, -0.65855765, 0.74895018, 0.02268797, -0.06971910, 0.35630625, 0.61453617, -0.11740090, 99.96600342, 113.74507904, 32.38000107, 0.00000000
1, 1.8250, 228, -0.39020416, -1.61134970, 0.26468343, 4.62904072, 3.96560192, -307.64205933, -18.53259277, 5.61239386, -70.33031464, 97.17383575, 9.24316406, -3.13548112, -0.65743256, 0.74869984, 0.03282735, -0.07844348, 0.54363263, 0.63058871, -0.14511040, 99.96600342, 113.74507904, 32.38000107, 0.00000000
1, 1.8300, 229, -0.41425893, -1.64597595, 0.25848839, 0.18964048, 13.76279640, -300.86740112, -18.53259277, 5.61239386, -70.33031464, 97.21613312, 10.72741413, -2.87722015, -0.65634322, 0.74823546, 0.04303652, -0.08663265, 0.59350526, 0.66965771, -0.13880055, 99.96600342, 113.74507904, 32.38000107, 0.00000000
1, 1.8350, 230, -0.34014589, -1.68699038, 0.26028690, -9.74161625, 31.72189903, -289.23638916, -16.86641312, 5.11546326, -69.92107391, 97.23207092, 12.14257145, -2.53346539, -0.65547907, 0.74745101, 0.05341120, -0.09386910, 0.54384345, 0.71546578, -0.14070579, 99.96600342, 113.74507904, 32.38000107, 0.00000000
1, 1.8400, 231, -0.26698548, -1.68605316, 0.19239296, -17.84288406, 38.99115753, -280.02175903, -16.86641312, 5.11546326, -69.92107391, 97.22274017, 13.50301266, -2.15670848, -0.65480208, 0.74637032, 0.06369344, -0.10054206, 0.49429080, 0.71977723, -0.07333936, 99.96600342, 113.74507904, 32.38000107, 0.00000000
1, 1.8450, 232, -0.21751222, -1.64855456, 0.07129776, -20.77169800, 42.40303040, -269.31732178, -14.38175964, 8.36012840, -70.06723022, 97.21073914, 14.81265163, -1.76759052, -0.65415543, 0.74514037, 0.07375275, -0.10680380, 0.46751267, 0.68791544, 0.04701898, 99.96600342, 113.74507904, 32.38000107, 0.00000000
1, 1.8750, 233, -0.51418638, -1.10579312, 0.31076160, 11.38051701, 33.72608948, -190.32994080, -11.86787510, 10.23092651, -70.30107880, 97.77421570, 21.38649368, 0.09857803, -0.64624661, 0.74022675, 0.12264480, -0.13924088, 0.87439549, 0.18119371, -0.18842307, 99.96600342, 113.74507904, 32.38000107, 0.00000000
1, 1.8800, 234, -0.64890230, -1.03974795, 0.29568702, 17.03171158, 37.76950073, -173.79591370, -11.86787510, 10.23092651, -70.30107880, 97.97916412, 22.22210884, 0.42684349, -0.64443362, 0.73996955, 0.12921363, -0.14301851, 1.02307260, 0.12106497, -0.17116520, 99.96600342, 113.74507904, 32.38000107, 0.00000000
1, 1.8850, 235, -0.76812994, -1.04681933, 0.23798826, 19.35507584, 39.30278778, -149.60293579, -10.90324497, 11.31248188, -69.68722534, 98.19829559, 22.93575287, 0.75031132, -0.64265126, 0.73988587, 0.13502423, -0.14607090, 1.15436029, 0.13357937, -0.11099453, 99.96600342, 113.74507904, 32.38000107, 0.00000000
1, 1.8900, 236, -0.78924668, -1.00647855, 0.17561997, 14.20535946, 57.17689896, -119.52731323, -10.90324497, 11.31248188, -69.68722534, 98.42630768, 23.45824051, 1.15199637, -0.64112198, 0.73996305, 0.14024112, -0.14747846, 1.18504262, 0.09782338, -0.04558604, 99.96600342, 113.74507904, 32.38000107, 0.00000000
1, 1.8950, 237, -0.71942848, -0.93381798, 0.07185920, 10.94303513, 65.35228729, -92.51103973, -10.55247021, 11.54633141, -69.77491760, 98.65135193, 23.86792946, 1.57906151, -0.63977259, 0.74010658, 0.14498542, -0.14802885, 1.12238038, 0.02883754, 0.06158276, 99.96600342, 113.74507904, 32.38000107, 0.00000000
1, 1.9000, 238, -0.59355181, -0.82732546, -0.06093911, 13.65382862, 70.88527679, -65.00286865, -10.55247021, 11.54633141, -69.77491760, 98.89672089, 24.13591576, 2.01628208, -0.63846225, 0.74052185, 0.14897661, -0.14764631, 1.00167120, -0.07473995, 0.19830513, 99.96600342, 113.74507904, 32.38000107, 0.00000000
1, 1.9050, 239, -0.42849955, -0.71449494, -0.12600909, 22.25392723, 74.50559235, -38.42144775, -10.55247021, 11.54633141, -69.77491760, 99.18640900, 24.26805115, 2.45251846, -0.63700879, 0.74136275, 0.15215373, -0.14645962, 0.83941853, -0.18560609, 0.26815367, 99.96600342, 113.74507904, 32.38000107, 0.00000000
1, 1.9100, 240, -0.26707137, -0.66260505, -0.07321139, 33.02341843, 72.00679016, -12.99494934, -10.31861973, 11.72171879, -69.42414093, 99.51636505, 24.27468681, 2.85383725, -0.63537520, 0.74264777, 0.15436958, -0.14471625, 0.67845488, -0.23649397, 0.22084443, 99.96600342, 113.74507904, 32.38000107, 0.00000000
1, 1.9150, 241, -0.19062965, -0.69930303, 0.02780269, 39.46314240, 65.52667999, 11.30514717, -10.31861973, 11.72171879, -69.42414093, 99.85498810, 24.16486168, 3.19780898, -0.63372016, 0.74422723, 0.15557669, -0.14255008, 0.60046935, -0.19963634, 0.12537299, 99.96600342, 113.74507904, 32.38000107, 0.00000000
1, 1.9200, 242, -0.17654076, -0.77546215, 0.09525574, 40.06145477, 59.35044861, 33.89918137, -11.07863140, 12.27711201, -68.48874664, 100.17322540, 23.94727325, 3.48601365, -0.63221896, 0.74593127, 0.15587412, -0.13996100, 0.58316469, -0.12403864, 0.06315934, 99.96600342, 113.74507904, 32.38000107, 0.00000000
1, 1.9800, 243, 1.50656140, -1.47469509, -0.36151350, -3.87799740, -48.87968063, 123.50521851, -13.41712952, 10.99093819, -68.25489807, 101.28390503, 16.72240829, 1.96744370, -0.62926215, 0.76328379, 0.10533570, -0.10164470, -1.21570075, 0.53686464, 0.55067158, 99.96600342, 113.74507904, 32.38000107, 0.00000000
1, 1.9850, 244, 1.79409492, -1.42078996, -0.52765656, -12.68473911, -40.18480682, 101.88189697, -13.94329166, 10.64016342, -68.31335449, 101.13425446, 16.26115036, 1.65934861, -0.63030523, 0.76322454, 0.10089443, -0.10011941, -1.51093483, 0.48037881, 0.71568882, 99.96600342, 113.74507904, 32.38000107, 0.00000000
1, 1.9900, 245, 1.95885527, -1.35258377, -0.67349046, -21.06979942, -33.39721298, 82.97689056, -13.94329166, 10.64016342, -68.31335449, 100.95789337, 15.88874149, 1.40596771, -0.63151520, 0.76285076, 0.09731936, -0.09887443, -1.68194556, 0.40998924, 0.85965884, 99.96600342, 113.74507904, 32.38000107, 0.00000000
1, 1.9950, 246, 1.75173974, -1.17523992, -0.57744735, -23.18742180, -60.52098465, 72.99839783, -14.96638393, 10.05553913, -68.48874664, 100.73999786, 15.58631611, 1.02628148, -0.63284665, 0.76226074, 0.09331810, -0.09877042, -1.48042059, 0.23033839, 0.76024729, 99.96600342, 113.74507904, 32.38000107, 0.00000000
1, 2.0000, 247, 1.45970559, -1.10906088, -0.44189671, -20.01819038, -111.04644012, 71.99913788, -14.96638393, 10.05553913, -68.48874664, 100.47191620, 15.33330345, 0.39167863, -0.63425684, 0.76151758, 0.08793570, -0.10038242, -1.19324422, 0.16193280, 0.62022352, 99.96600342, 113.74507904, 32.38000107, 0.00000000
1, 2.0050, 248, 0.91031760, -1.05991936, -0.25881732, -13.38773060, -178.75706482, 77.17103577, -14.96638393, 10.05553913, -68.48874664, 100.14798737, 15.11187553, -0.59086418, -0.63569695, 0.76064003, 0.08047165, -0.10411852, -0.64802670, 0.11052211, 0.43074349, 99.96600342, 113.74507904, 32.38000107, 0.00000000
1, 2.0100, 249, 0.43094063, -1.07763243, -0.16136535, -4.04425144, -208.09144592, 86.62319183, -13.38789845, 8.36012840, -69.10260010, 99.83450317, 14.86391449, -1.72898102, -0.63691849, 0.75985783, 0.07183050, -0.10858858, -0.17292874, 0.12606953, 0.32697991, 99.96600342, 113.74507904, 32.38000107, 0.00000000
1, 2.0150, 250, -0.07045332, -1.12026286, -0.04155440, 7.83377075, -228.41401672, 100.32393646, -13.38789845, 8.36012840, -69.10260010, 99.55724335, 14.55984116, -2.97968125, -0.63780534, 0.75927126, 0.06210674, -0.11337641, 0.32329857, 0.16641557, 0.20129609, 99.96600342, 113.74507904, 32.38000107, 0.00000000
1, 2.0200, 251, -0.51958877, -1.20548666, 0.13203382, 18.84804726, -235.44226074, 117.12167358, -13.59251690, 9.61707115, -69.95030975, 99.33091736, 14.17341709, -4.27689600, -0.63834858, 0.75890750, 0.05156981, -0.11794484, 0.76584637, 0.24911948, 0.02270938, 99.96600342, 113.74507904, 32.38000107, 0.00000000
1, 2.0250, 252, -0.87199265, -1.32793665, 0.36300370, 27.59253693, -225.00750732, 135.52125549, -13.59251690, 9.61707115, -69.95030975, 99.16820526, 13.68372440, -5.53225613, -0.63858730, 0.75878298, 0.04066439, -0.12165965, 1.10983586, 0.36876684, -0.21201241, 99.96600342, 113.74507904, 32.38000107, 0.00000000
1, 2.0500, 253, -0.74830735, -1.24254572, 0.09457376, 27.04521751, -15.48516560, 133.61698914, -13.91405964, 8.56474686, -70.15492249, 99.21910858, 10.35154915, -8.85389805, -0.63812220, 0.76078975, -0.00026819, -0.11831756, 0.93042046, 0.27178416, 0.05857999, 99.96600342, 113.74507904, 32.38000107, 0.00000000
1, 2.0550, 254, -0.56817639, -1.12410378, 0.19485556, 26.52944565, 4.26245785, 123.29820251, -13.91405964, 8.56474686, -70.15492249, 99.33945465, 9.73985767, -8.93241501, -0.63785887, 0.76154625, -0.00437294, -0.11473607, 0.73944664, 0.15161736, -0.03878281, 99.96600342, 113.74507904, 32.38000107, 0.00000000
1, 2.0600, 255, -0.33735797, -0.97231829, 0.48497635, 26.26820946, 4.13751984, 118.21597290, -14.46945286, 8.21397209, -69.74568939, 99.45983124, 9.15355015, -9.00855923, -0.63755918, 0.76227438, -0.00831103, -0.11129744, 0.49773851, -0.00199494, -0.32570815, 99.96600342, 113.74507904, 32.38000107, 0.00000000
1, 2.0650, 256, -0.25781676, -0.87640929, 0.70353794, 25.25966263, -12.07458973, 119.94551849, -14.46945286, 8.21397209, -69.74568939, 99.56307220, 8.57210732, -9.16810703, -0.63727760, 0.76287341, -0.01275344, -0.10834622, 0.40762419, -0.09952424, -0.54181874, 99.96600342, 113.74507904, 32.38000107, 0.00000000
1, 2.0700, 257, -0.21690537, -0.78666723, 0.76908517, 24.89733505, -19.92509460, 121.83110046, -15.69716454, 7.48319197, -70.12569427, 99.66012573, 7.98811388, -9.36911774, -0.63699400, 0.76340163, -0.01747516, -0.10560024, 0.35648918, -0.19056450, -0.60521924, 99.96600342, 113.74507904, 32.38000107, 0.00000000
1, 2.0750, 258, -0.23590249, -0.72840226, 0.68331307, 29.09767342, -14.06423187, 122.96887970, -15.69716454, 7.48319197, -70.12569427, 99.78385162, 7.39403248, -9.54276752, -0.63656092, 0.76404917, -0.02208999, -0.10262135, 0.36547220, -0.24974203, -0.51720250, 99.96600342, 113.74507904, 32.38000107, 0.00000000
1, 2.0800, 259, -0.30026200, -0.71971309, 0.48384237, 35.97149277, -0.51777536, 121.20628357, -15.69716454, 7.48319197, -70.12569427, 99.95206451, 6.79766512, -9.64891148, -0.63588428, 0.76492667, -0.02629859, -0.09923121, 0.41999620, -0.25893325, -0.31497154, 99.96600342, 113.74507904, 32.38000107, 0.00000000
1, 2.0850, 260, -0.42462465, -0.77571297, 0.27405518, 39.92431641, 12.63193607, 116.03630829, -16.22332573, 6.48933077, -69.39491272, 100.14875031, 6.21577644, -9.68716717, -0.63504982, 0.76595354, -0.02998535, -0.09553938, 0.53470957, -0.20318231, -0.10211629, 99.96600342, 113.74507904, 32.38000107, 0.00000000
1, 2.0900, 261, -0.58106267, -0.84641814, 0.16826221, 38.09046173, 21.40051651, 108.45201874, -16.22332573, 6.48933077, -69.39491272, 100.34179688, 5.63405704, -9.67663670, -0.63426322, 0.76695204, -0.03332834, -0.09156526, 0.68143094, -0.13274552, 0.00671082, 99.96600342, 113.74507904, 32.38000107, 0.00000000
1, 2.0950, 262, -0.72495949, -0.86846519, 0.19180889, 31.00107765, 26.40904236, 100.35428619, -17.10026360, 7.42472935, -69.59953308, 100.50179291, 5.11711121, -9.63645744, -0.63364959, 0.76776856, -0.03607181, -0.08785558, 0.81587577, -0.11109976, -0.01416999, 99.96600342, 113.74507904, 32.38000107, 0.00000000
1, 2.1350, 263, -0.34547499, -1.18581486, 0.06514991, 22.48671722, 77.15850830, 46.18469238, -19.40952873, 7.60011673, -68.69336700, 101.47186279, 1.95735812, -7.99839926, -0.63034028, 0.77299315, -0.04320562, -0.05732533, 0.38074470, 0.20619440, 0.13028508, 99.96600342, 113.74507904, 32.38000107, 0.00000000
1, 2.1400, 264, -0.19287105, -1.25087440, -0.00844364, 21.32767677, 71.93291473, 41.41294861, -19.40952873, 7.60011673, -68.69336700, 101.57942963, 1.67675209, -7.68684959, -0.62991941, 0.77362543, -0.04270240, -0.05368154, 0.22337285, 0.27161127, 0.20613551, 99.96600342, 113.74507904, 32.38000107, 0.00000000
1, 2.1450, 265, -0.03598406, -1.29498506, -0.05970711, 19.62857819, 61.87641525, 38.91648865, -20.54954720, 7.51242304, -68.31335449, 101.68520355, 1.42445636, -7.42249966, -0.62945640, 0.77423626, -0.04235454, -0.05048818, 0.06206416, 0.31604633, 0.25952524, 99.96600342, 113.74507904, 32.38000107, 0.00000000
1, 2.1500, 266, 0.11490602, -1.30550814, -0.08307138, 16.02231407, 48.01478577, 37.54537964, -20.54954720, 7.51242304, -68.31335449, 101.77029419, 1.19237530, -7.22512245, -0.62908083, 0.77471268, -0.04233379, -0.04780619, -0.09290454, 0.32683191, 0.28481820, 99.96600342, 113.74507904, 32.38000107, 0.00000000
1, 2.1550, 267, 0.25457707, -1.27353871, -0.05744622, 12.46107197, 30.61578751, 37.00073624, -20.75416565, 7.80473518, -67.75796509, 101.83522034, 0.98031390, -7.11272287, -0.62878853, 0.77505136, -0.04276583, -0.04573257, -0.23642644, 0.29499397, 0.26079342, 99.96600342, 113.74507904, 32.38000107, 0.00000000
1, 2.1600, 268, 0.37477973, -1.18806338, 0.07700569, 11.18276787, 12.89874649, 37.47102356, -20.75416565, 7.80473518, -67.75796509, 101.89199066, 0.78388262, -7.08776951, -0.62850499, 0.77531564, -0.04369820, -0.04424648, -0.36045063, 0.20945074, 0.12778410, 99.96600342, 113.74507904, 32.38000107, 0.00000000
1, 2.1650, 269, 0.43097186, -1.10369444, 0.15746117, 9.95285702, 0.30517152, 39.28963470, -20.75416565, 7.80473518, -67.75796509, 101.94180298, 0.59141397, -7.12650156, -0.62824035, 0.77551597, -0.04503568, -0.04313798, -0.42020479, 0.12509274, 0.04849331, 99.96600342, 113.74507904, 32.38000107, 0.00000000
1, 2.1700, 270, 0.41791975, -0.99637032, 0.27043054, 8.44246101, -27.36891365, 40.92763519, -21.04647827, 7.92166042, -67.43642426, 101.98297882, 0.41940781, -7.30249262, -0.62797308, 0.77561653, -0.04718572, -0.04292244, -0.41053391, 0.01771318, -0.06357606, 99.96600342, 113.74507904, 32.38000107, 0.00000000
1, 2.2200, 271, -0.32252243, -0.98873401, 0.39573067, 8.10309410, -1.47042167, 31.27896690, -21.19263268, 7.45396090, -67.52411652, 102.51418304, -1.16613805, -9.51600170, -0.62429661, 0.77670544, -0.07103906, -0.04399825, 0.30184126, 0.01199174, -0.18169004, 99.96600342, 113.74507904, 32.38000107, 0.00000000
1, 2.2250, 272, -0.25874802, -0.99269164, 0.39635319, 8.74543476, 15.42074203, 28.69396210, -21.19263268, 7.45396090, -67.52411652, 102.55729675, -1.32275045, -9.47158718, -0.62410015, 0.77688575, -0.07160547, -0.04266630, 0.23535465, 0.01616586, -0.18144442, 99.96600342, 113.74507904, 32.38000107, 0.00000000
1, 2.2300, 273, -0.20948496, -0.99262154, 0.37535620, 8.39870167, 22.99561882, 26.42527390, -21.66033363, 7.39549828, -67.61180878, 102.59757233, -1.47650433, -9.38783932, -0.62393355, 0.77707571, -0.07188752, -0.04114082, 0.18344814, 0.01634911, -0.15963712, 99.96600342, 113.74507904, 32.38000107, 0.00000000
1, 2.2350, 274, -0.16898228, -0.98831129, 0.35119176, 8.35772514, 28.92450333, 24.63924408, -21.66033363, 7.39549828, -67.61180878, 102.63656616, -1.62802577, -9.27330208, -0.62378216, 0.77727878, -0.07194707, -0.03946333, 0.14035252, 0.01229572, -0.13471520, 99.96600342, 113.74507904, 32.38000107, 0.00000000
1, 2.2400, 275, -0.14104684, -0.98635733, 0.33333969, 8.44856358, 32.86022186, 23.22464943, -21.66033363, 7.39549828, -67.61180878, 102.68708801, -1.78846502, -9.13827515, -0.62355947, 0.77755207, -0.07191859, -0.03760616, 0.10974929, 0.01061891, -0.11604680, 99.96600342, 113.74507904, 32.38000107, 0.00000000
1, 2.2450, 276, -0.11423405, -0.98364151, 0.30141333, 8.17082691, 35.03866959, 22.33370209, -21.89418221, 7.30780458, -67.23180389, 102.72345734, -1.93559027, -8.99159718, -0.62342590, 0.77776229, -0.07173276, -0.03578480, 0.08034506, 0.00820290, -0.08333736, 99.96600342, 113.74507904, 32.38000107, 0.00000000
1, 2.2500, 277, -0.08884623, -0.98231924, 0.26132405, 8.12678242, 35.67242432, 22.03390121, -21.89418221, 7.30780458, -67.23180389, 102.75910950, -2.08203292, -8.84156895, -0.62329316, 0.77797061, -0.07151909, -0.03395012, 0.05249996, 0.00716977, -0.04259369, 99.96600342, 113.74507904, 32.38000107, 0.00000000
1, 2.2550, 278, -0.06117467, -0.98336434, 0.22209159, 8.20481682, 35.11444092, 22.08970833, -21.28032684, 6.57702398, -67.37796021, 102.79489136, -2.22823954, -8.69441319, -0.62315398, 0.77817732, -0.07132253, -0.03213248, 0.02237499, 0.00850918, -0.00270610, 99.96600342, 113.74507904, 32.38000107, 0.00000000
1, 2.2600, 279, -0.04061930, -0.98890734, 0.19208765, 8.40754795, 33.09210968, 22.24923706, -21.28032684, 6.57702398, -67.37796021, 102.83171082, -2.37307811, -8.55736923, -0.62299973, 0.77838367, -0.07118636, -0.03037833, -0.00063922, 0.01433981, 0.02793666, 99.96600342, 113.74507904, 32.38000107, 0.00000000
1, 2.2650, 280, -0.02066983, -0.99482775, 0.17216213, 8.25726795, 30.88839912, 22.58420181, -21.28032684, 6.57702398, -67.37796021, 102.86791229, -2.51721573, -8.43153667, -0.62284237, 0.77857959, -0.07112128, -0.02869014, -0.02305354, 0.02053774, 0.04850027, 99.96600342, 113.74507904, 32.38000107, 0.00000000
1, 2.2900, 281, -0.00606994, -0.98226142, 0.18396534, 6.81275368, 15.43828392, 24.33746147, -22.50803757, 7.30780458, -67.34872437, 103.02303314, -3.20645618, -8.02482605, -0.62212145, 0.77929056, -0.07211801, -0.02168532, -0.04980743, 0.00915680, 0.03932265, 99.96600342, 113.74507904, 32.38000107, 0.00000000
1, 2.2950, 282, -0.01760579, -0.97856855, 0.20418349, 6.88432837, 12.50798512, 24.54712296, -21.80648994, 4.99853849, -67.46565247, 103.05585480, -3.34000301, -7.99129868, -0.62194741, 0.77941322, -0.07261733, -0.02057144, -0.04058711, 0.00567201, 0.01955436, 99.96600342, 113.74507904, 32.38000107, 0.00000000
1, 2.3000, 283, -0.03003983, -0.97677696, 0.22224085, 6.69492483, 10.55261898, 24.67818642, -21.80648994, 4.99853849, -67.46565247, 103.08823395, -3.47200823, -7.96753216, -0.62177289, 0.77952754, -0.07317397, -0.01952098, -0.03050202, 0.00411098, 0.00199005, 99.96600342, 113.74507904, 32.38000107, 0.00000000
1, 2.3050, 284, -0.04485271, -0.97611761, 0.23590989, 6.51742744, 10.58000565, 24.92646408, -23.23881912, 7.36626720, -66.76410675, 103.11966705, -3.60527134, -7.94398403, -0.62160385, 0.77963495, -0.07373805, -0.01846337, -0.01803715, 0.00369261, -0.01120773, 99.96600342, 113.74507904, 32.38000107, 0.00000000
1, 2.3100, 285, -0.05937160, -0.97466838, 0.24971510, 6.22120285, 11.58359241, 25.09436226, -23.23881912, 7.36626720, -66.76410675, 103.14927673, -3.74050283, -7.91579485, -0.62144715, 0.77973354, -0.07428026, -0.01736799, -0.00590118, 0.00248560, -0.02456904, 99.96600342, 113.74507904, 32.38000107, 0.00000000
1, 2.3150, 286, -0.07541159, -0.96900892, 0.26221153, 5.81922817, 12.45283127, 25.01504326, -23.23881912, 7.36626720, -66.76410675, 103.17652130, -3.87635612, -7.88334799, -0.62130606, 0.77982080, -0.07479588, -0.01624650, 0.00774290, -0.00293265, -0.03666142, 99.96600342, 113.74507904, 32.38000107, 0.00000000
1, 2.3200, 287, -0.08448312, -0.96776974, 0.27210689, 5.66263580, 13.60442734, 24.86922264, -23.32651329, 7.36626720, -66.85179901, 103.20252228, -4.01280403, -7.84515619, -0.62117290, 0.77990407, -0.07527484, -0.01509032, 0.01441884, -0.00392608, -0.04616959, 99.96600342, 113.74507904, 32.38000107, 0.00000000
1, 2.3250, 288, -0.09129196, -0.96708775, 0.28338087, 5.60153055, 15.72745037, 24.92060471, -23.32651329, 7.36626720, -66.85179901, 103.22738647, -4.15193796, -7.79671764, -0.62104785, 0.77998561, -0.07569781, -0.01386073, 0.01878997, -0.00435974, -0.05706900, 99.96600342, 113.74507904, 32.38000107, 0.00000000
1, 2.3300, 289, -0.08461078, -0.97684789, 0.29258123, 5.00112009, 18.27010155, 24.70843697, -23.41420555, 7.39549828, -66.61795044, 103.24818420, -4.29297018, -7.73567963, -0.62095052, 0.78005153, -0.07604420, -0.01255238, 0.00963730, 0.00564710, -0.06593858, 99.96600342, 113.74507904, 32.38000107, 0.00000000
1, 2.3350, 290, -0.08233468, -0.98351383, 0.29274544, 4.79305410, 20.77558708, 24.73575211, -23.41420555, 7.39549828, -66.61795044, 103.26688385, -4.43699598, -7.66246843, -0.62086725, 0.78011167, -0.07632311, -0.01115881, 0.00487890, 0.01257233, -0.06582560, 99.96600342, 113.74507904, 32.38000107, 0.00000000
1, 2.3700, 291, -0.02520926, -0.94946480, 0.23819529, 3.31060743, 31.59577179, 24.73210907, -24.26191139, 7.04472351, -67.05641174, 103.34143066, -5.51064825, -6.83885813, -0.62060970, 0.78037935, -0.07649444, 0.00069475, -0.07073215, -0.01951192, -0.01013584, 99.96600342, 113.74507904, 32.38000107, 0.00000000
1, 2.3750, 292, -0.01549008, -0.95714653, 0.23102534, 3.87972832, 31.85178375, 25.88768768, -24.26191139, 7.04472351, -67.05641174, 103.34889221, -5.67309809, -6.71289921, -0.62057996, 0.78039771, -0.07650990, 0.00249326, -0.08322896, -0.01152607, -0.00289874, 99.96600342, 113.74507904, 32.38000107, 0.00000000
1, 2.3800, 293, -0.00521319, -0.96881604, 0.23786765, 3.42537618, 31.37512970, 26.72336197, -24.58345413, 7.51242304, -66.53025055, 103.35404968, -5.83908319, -6.59021378, -0.62056202, 0.78039861, -0.07656650, 0.00429675, -0.09639437, 0.00043585, -0.00970005, 99.96600342, 113.74507904, 32.38000107, 0.00000000
1, 2.3850, 294, -0.00800328, -0.97192633, 0.24200673, 2.74511385, 28.98178291, 27.51622772, -24.58345413, 7.51242304, -66.53025055, 103.35675812, -6.00620413, -6.48014402, -0.62055707, 0.78037643, -0.07671508, 0.00603808, -0.09651235, 0.00384256, -0.01386590, 99.96600342, 113.74507904, 32.38000107, 0.00000000
1, 2.3900, 295, -0.02408912, -0.97130764, 0.23466101, 2.20773292, 26.58469200, 28.51749992, -24.58345413, 7.51242304, -66.53025055, 103.35782623, -6.16493988, -6.38315296, -0.62055939, 0.78034151, -0.07690766, 0.00765014, -0.08323777, 0.00353398, -0.00660032, 99.96600342, 113.74507904, 32.38000107, 0.00000000
1, 2.3950, 296, -0.04820411, -0.97549272, 0.21412544, 1.56785333, 23.90150833, 29.79367256, -25.19731140, 7.45396090, -66.76410675, 103.35705566, -6.33733225, -6.30051041, -0.62057292, 0.78027707, -0.07727142, 0.00927669, -0.06196567, 0.00805679, 0.01378549, 99.96600342, 113.74507904, 32.38000107, 0.00000000
1, 2.4000, 297, -0.06481147, -0.97911990, 0.20129092, 1.33734274, 22.49359322, 30.32388496, -25.19731140, 7.45396090, -66.76410675, 103.35570526, -6.51069403, -6.22535563, -0.62058777, 0.78020310, -0.07769142, 0.01086894, -0.04832927, 0.01202675, 0.02647408, 99.96600342, 113.74507904, 32.38000107, 0.00000000
1, 2.4050, 298, -0.07279953, -0.97936034, 0.19529863, 1.35001469, 21.57438469, 30.89769745, -24.49576187, 6.69394922, -66.15024567, 103.35480499, -6.68579340, -6.15533543, -0.62059695, 0.78012592, -0.07815564, 0.01244554, -0.04335185, 0.01261180, 0.03235123, 99.96600342, 113.74507904, 32.38000107, 0.00000000
1, 2.4100, 299, -0.07781784, -0.97847223, 0.20146815, 1.31717730, 21.42649269, 31.24511147, -24.49576187, 6.69394922, -66.15024567, 103.35365295, -6.86241198, -6.08640814, -0.62060493, 0.78004456, -0.07863544, 0.01402640, -0.04140801, 0.01206039, 0.02606845, 99.96600342, 113.74507904, 32.38000107, 0.00000000
1, 2.4150, 300, -0.08280601, -0.98213243, 0.20232330, 1.36205661, 20.66017914, 31.26133347, -24.49576187, 6.69394922, -66.15024567, 103.35297394, -7.03822756, -6.02122688, -0.62060696, 0.77996272, -0.07913633, 0.01558177, -0.03947227, 0.01607424, 0.02509102, 99.96600342, 113.74507904, 32.38000107, 0.00000000
1, 2.4550, 301, -0.20430592, -1.00237048, 0.21641630, 2.06861234, 17.71350861, 29.46454239, -26.16194153, 4.47237635, -66.03332520, 103.36070251, -8.37340641, -5.64897871, -0.62046504, 0.77928877, -0.08377022, 0.02673645, 0.05884831, 0.03934704, 0.01006125, 99.96600342, 113.74507904, 32.38000107, 0.00000000
1, 2.4600, 302, -0.20131895, -1.01052678, 0.22061865, 2.68068600, 19.98845863, 29.23056030, -26.16194153, 4.47237635, -66.03332520, 103.36498260, -8.53856373, -5.58454180, -0.62040997, 0.77923226, -0.08421704, 0.02821806, 0.05300432, 0.04792163, 0.00582125, 99.96600342, 113.74507904, 32.38000107, 0.00000000
1, 2.4650, 303, -0.18875059, -1.01882911, 0.23237979, 2.82824326, 22.40269089, 28.83054733, -27.41888237, 7.62934828, -66.12101746, 103.36795807, -8.70454502, -5.50774193, -0.62035769, 0.77917629, -0.08458440, 0.02977121, 0.03754531, 0.05663924, -0.00596101, 99.96600342, 113.74507904, 32.38000107, 0.00000000
1, 2.4700, 304, -0.16673617, -1.01940370, 0.23557612, 2.80594087, 24.12250328, 28.27593613, -27.41888237, 7.62934828, -66.12101746, 103.36920929, -8.86980629, -5.42180157, -0.62031150, 0.77911747, -0.08488609, 0.03136757, 0.01266810, 0.05764137, -0.00918220, 99.96600342, 113.74507904, 32.38000107, 0.00000000
1, 2.4750, 305, -0.15512291, -1.01856756, 0.22887230, 3.25119185, 25.49000359, 28.05749512, -27.41888237, 7.62934828, -66.12101746, 103.37136078, -9.03557968, -5.32883930, -0.62025398, 0.77906770, -0.08514248, 0.03300600, -0.00178291, 0.05726017, -0.00251518, 99.96600342, 113.74507904, 32.38000107, 0.00000000
1, 2.4800, 306, -0.15103099, -1.01288867, 0.22465828, 3.18882728, 27.62303543, 27.68850899, -27.68196487, 6.95702982, -65.77024078, 103.37117004, -9.20200253, -5.22488928, -0.62020534, 0.77901220, -0.08532827, 0.03470649, -0.00873027, 0.05203544, 0.00161907, 99.96600342, 113.74507904, 32.38000107, 0.00000000
1, 2.4850, 307, -0.14674826, -1.00471497, 0.22778261, 3.26996970, 29.65290070, 27.31523132, -27.68196487, 6.95702982, -65.77024078, 103.36940765, -9.36893654, -5.11044645, -0.62016004, 0.77895486, -0.08544596, 0.03646595, -0.01589392, 0.04430490, -0.00161684, 99.96600342, 113.74507904, 32.38000107, 0.00000000
1, 2.4900, 308, -0.15015107, -0.99614191, 0.22620195, 3.71312976, 31.25739670, 27.38288498, -28.23735809, 7.36626720, -65.88716888, 103.36685181, -9.53569317, -4.98791933, -0.62011337, 0.77889895, -0.08550808, 0.03826720, -0.01536748, 0.03619099, -0.00017414, 99.96600342, 113.74507904, 32.38000107, 0.00000000
1, 2.4950, 309, -0.15188843, -0.99139154, 0.22016639, 4.19237900, 32.85802841, 27.62525177, -28.23735809, 7.36626720, -65.88716888, 103.36642456, -9.70780468, -4.85789299, -0.62004423, 0.77885509, -0.08554730, 0.04014702, -0.01654177, 0.03192640, 0.00573085, 99.96600342, 113.74507904, 32.38000107, 0.00000000
1, 2.5000, 310, -0.13925087, -0.99737203, 0.23883760, 4.52801943, 34.65707016, 28.25974464, -28.23735809, 7.36626720, -65.88716888, 103.36589813, -9.88505268, -4.71964931, -0.61996680, 0.77881193, -0.08555824, 0.04210614, -0.03225730, 0.03838120, -0.01304777, 99.96600342, 113.74507904, 32.38000107, 0.00000000
1, 2.5500, 311, 0.05567000, -0.98435485, 0.19435088, 1.67258799, 44.00083923, 40.01592255, -30.02046204, 7.62934828, -65.65332031, 103.21600342, -11.96361446, -3.07026124, -0.61962360, 0.77749878, -0.08557988, 0.06510352, -0.26239565, 0.03147541, 0.02799400, 99.96600342, 113.74507904, 32.38000107, 0.00000000
1, 2.5550, 312, 0.12828282, -1.02222168, 0.19603440, 1.29191959, 40.76604843, 42.60762405, -30.60508537, 7.27857351, -66.09178162, 103.19080353, -12.21731949, -2.91664624, -0.61960578, 0.77725911, -0.08591463, 0.06764396, -0.33929360, 0.07012661, 0.02579001, 99.96600342, 113.74507904, 32.38000107, 0.00000000
1, 2.5600, 313, 0.17651242, -1.05718565, 0.23205595, 1.11981225, 37.91772079, 45.13579178, -30.60508537, 7.27857351, -66.09178162, 103.16774750, -12.48004818, -2.77991176, -0.61957121, 0.77700889, -0.08641215, 0.07015533, -0.39205271, 0.10588071, -0.01078187, 99.96600342, 113.74507904, 32.38000107, 0.00000000
1, 2.5650, 314, 0.18330202, -1.09664536, 0.25512537, -1.23613584, 33.56026459, 48.81250000, -31.24817276, 7.60011673, -66.29640198, 103.13794708, -12.75572872, -2.66891837, -0.61958438, 0.77668941, -0.08715898, 0.07260960, -0.40355140, 0.14620537, -0.03458616, 99.96600342, 113.74507904, 32.38000107, 0.00000000
1, 2.5700, 315, 0.10513302, -1.10118651, 0.21349984, -2.16947746, 28.99433136, 51.51972580, -31.24817276, 7.60011673, -66.29640198, 103.10870361, -13.03941059, -2.58361483, -0.61959898, 0.77634370, -0.08812363, 0.07497872, -0.33007669, 0.15176134, 0.00608672, 99.96600342, 113.74507904, 32.38000107, 0.00000000
1, 2.5750, 316, 0.02317824, -1.10519052, 0.21241513, -1.90520227, 25.31772804, 53.88238525, -31.24817276, 7.60011673, -66.29640198, 103.08515930, -13.33042049, -2.51920056, -0.61957836, 0.77600306, -0.08926628, 0.07728798, -0.25302985, 0.15678538, 0.00629013, 99.96600342, 113.74507904, 32.38000107, 0.00000000
1, 2.5800, 317, -0.01493288, -1.10553062, 0.27121487, -1.90967894, 26.23482323, 56.32289886, -30.83893585, 6.37240553, -66.29640198, 103.06082916, -13.63431931, -2.45280361, -0.61954880, 0.77564442, -0.09046593, 0.07969379, -0.22016315, 0.15812311, -0.05326577, 99.96600342, 113.74507904, 32.38000107, 0.00000000
1, 2.5850, 318, -0.02493997, -1.09388065, 0.34388801, -3.08234310, 32.54413986, 58.62639618, -30.83893585, 6.37240553, -66.29640198, 103.02331543, -13.95649910, -2.35715652, -0.61957073, 0.77521682, -0.09157605, 0.08237011, -0.21572013, 0.14750475, -0.12679978, 99.96600342, 113.74507904, 32.38000107, 0.00000000
1, 2.5900, 319, -0.01102145, -1.08421755, 0.35727614, -3.91027474, 39.57282257, 60.10140228, -32.03741455, 8.15550995, -66.32563782, 102.97943115, -14.27647018, -2.22945642, -0.61960405, 0.77477902, -0.09246379, 0.08519787, -0.23517804, 0.13899237, -0.14117631, 99.96600342, 113.74507904, 32.38000107, 0.00000000
1, 2.5950, 320, 0.01099539, -1.06853104, 0.30266041, -4.20714188, 43.88667679, 61.68019104, -32.03741455, 8.15550995, -66.32563782, 102.92171478, -14.62600613, -2.07941008, -0.61968613, 0.77425313, -0.09337217, 0.08833394, -0.26277146, 0.12462070, -0.08768235, 99.96600342, 113.74507904, 32.38000107, 0.00000000
1, 2.6000, 321, -0.00056393, -1.04988706, 0.24675600, -3.70707679, 47.02149963, 63.32589340, -32.03741455, 8.15550995, -66.32563782, 102.86190033, -14.98689175, -1.91482627, -0.61975062, 0.77371323, -0.09424813, 0.09162138, -0.25711715, 0.10739210, -0.03310736, 99.96600342, 113.74507904, 32.38000107, 0.00000000
1, 2.6550, 322, -0.05922762, -1.08571720, -0.00567454, -1.86898756, 36.42599106, 90.56591797, -36.07132339, 7.68781042, -66.91026306, 102.09862518, -19.67864990, -0.17301711, -0.61960459, 0.76608497, -0.10858439, 0.13196027, -0.27551627, 0.16438231, 0.20139211, 99.96600342, 113.74507904, 32.38000107, 0.00000000
1, 2.6600, 323, -0.08023118, -1.13112581, 0.06165274, -0.44373423, 36.66875458, 92.58658600, -36.07132339, 7.68781042, -66.91026306, 102.06741333, -20.16956329, -0.08454368, -0.61924756, 0.76542163, -0.11068197, 0.13569021, -0.26270917, 0.21239603, 0.13281357, 99.96600342, 113.74507904, 32.38000107, 0.00000000
1, 2.6650, 324, -0.05901462, -1.16774988, 0.06474528, -1.12594748, 31.70985222, 94.33483887, -37.26980209, 8.50628471, -66.29640198, 102.04161835, -20.66387177, -0.02334935, -0.61886704, 0.76474643, -0.11297418, 0.13929640, -0.29201359, 0.25184184, 0.12864360, 99.96600342, 113.74507904, 32.38000107, 0.00000000
1, 2.6700, 325, -0.05465301, -1.20093405, 0.04931244, -0.82076865, 27.64483070, 96.93307495, -37.26980209, 8.50628471, -66.29640198, 102.02539063, -21.16665459, 0.01408653, -0.61842835, 0.76407683, -0.11545879, 0.14283630, -0.30447742, 0.28800744, 0.14307651, 99.96600342, 113.74507904, 32.38000107, 0.00000000
1, 2.6750, 326, -0.04353907, -1.24254453, 0.08010056, -0.27441651, 27.35815620, 100.38945007, -37.26980209, 8.50628471, -66.29640198, 102.01343536, -21.68604469, 0.04644190, -0.61793613, 0.76339120, -0.11806050, 0.14646003, -0.32406777, 0.33273193, 0.11138619, 99.96600342, 113.74507904, 32.38000107, 0.00000000
1, 2.6800, 327, -0.01141936, -1.25960994, 0.14489812, -0.45375544, 24.91357613, 102.05103302, -38.26366425, 8.47705364, -66.50102234, 102.00579834, -22.21101952, 0.06426006, -0.61741352, 0.76269215, -0.12078217, 0.15004332, -0.36483973, 0.35298529, 0.04578868, 99.96600342, 113.74507904, 32.38000107, 0.00000000
1, 2.6850, 328, 0.01035107, -1.26963019, 0.16862264, -1.41942346, 19.88085365, 103.87123108, -38.26366425, 8.47705364, -66.50102234, 102.00411224, -22.73972321, 0.05350723, -0.61687136, 0.76197433, -0.12370402, 0.15350029, -0.39518690, 0.36638081, 0.02132555, 99.96600342, 113.74507904, 32.38000107, 0.00000000
1, 2.6900, 329, 0.02631735, -1.27223194, 0.18236859, -2.27643967, 17.69788551, 106.00335693, -38.55597687, 8.41859055, -66.61795044, 102.00052643, -23.25672150, 0.02961439, -0.61636019, 0.76123095, -0.12665011, 0.15680347, -0.41962171, 0.37243199, 0.00684071, 99.96600342, 113.74507904, 32.38000107, 0.00000000
1, 2.7800, 330, 0.59269643, -1.61169767, 0.28050968, 11.32098579, 103.81118011, 139.81533813, -46.15609360, 11.48786926, -68.19643402, 101.30445862, -35.11415863, 1.44346786, -0.60150486, 0.73963910, -0.18195528, 0.24086969, -1.16579080, 0.80731314, -0.12023515, 99.96600342, 113.74507904, 32.38000107, 0.00000000
1, 2.7850, 331, 0.72024912, -1.54099894, 0.24151812, 6.21952486, 110.62908173, 138.36027527, -46.15609360, 11.48786926, -68.19643402, 101.04484558, -35.89930725, 1.94698799, -0.60070300, 0.73752743, -0.18343024, 0.24811839, -1.30444360, 0.74377650, -0.08578753, 99.96600342, 113.74507904, 32.38000107, 0.00000000
1, 2.7900, 332, 0.69478953, -1.45126927, 0.22503361, 6.26593065, 103.93296051, 138.72587585, -47.06226349, 11.80941200, -68.72259521, 100.79785156, -36.66138840, 2.41883302, -0.59984380, 0.73547208, -0.18499288, 0.25504085, -1.28982747, 0.66119093, -0.07418961, 99.96600342, 113.74507904, 32.38000107, 0.00000000
1, 2.7950, 333, 0.54307377, -1.34569919, 0.07916076, 3.74677634, 97.31701660, 137.72395325, -47.06226349, 11.80941200, -68.72259521, 100.55273438, -37.42760849, 2.85965800, -0.59895283, 0.73336357, -0.18680367, 0.26179734, -1.14838576, 0.56305432, 0.06661993, 99.96600342, 113.74507904, 32.38000107, 0.00000000
1, 2.8000, 334, 0.36599845, -1.25366783, -0.09295666, 7.86836386, 88.53805542, 136.34054565, -48.84536743, 13.00789261, -67.72873688, 100.35102081, -38.17767334, 3.25575829, -0.59784299, 0.73143589, -0.18874244, 0.26825684, -0.98130888, 0.47865599, 0.23402935, 99.96600342, 113.74507904, 32.38000107, 0.00000000
1, 2.8050, 335, 0.23393944, -1.20387685, -0.07391880, 19.92765045, 82.29061127, 135.37213135, -48.84536743, 13.00789261, -67.72873688, 100.22505188, -38.91640854, 3.62048006, -0.59627903, 0.72986758, -0.19066238, 0.27457711, -0.85942876, 0.43637109, 0.21137796, 99.96600342, 113.74507904, 32.38000107, 0.00000000
1, 2.8100, 336, 0.07486396, -1.21513546, 0.04016041, 28.25116348, 79.58029938, 136.63873291, -48.84536743, 13.00789261, -67.72873688, 100.14539337, -39.65839005, 3.97207022, -0.59438318, 0.72850245, -0.19258358, 0.28089944, -0.71068060, 0.45526117, 0.09424513, 99.96600342, 113.74507904, 32.38000107, 0.00000000
1, 2.8150, 337, -0.03905199, -1.24924695, 0.24481820, 28.61620140, 78.59569550, 135.69924927, -50.19000244, 13.27097321, -68.31335449, 100.06414032, -40.39452744, 4.32347345, -0.59245002, 0.72713107, -0.19448723, 0.28715533, -0.60715985, 0.49697572, -0.11321867, 99.96600342, 113.74507904, 32.38000107, 0.00000000
1, 2.8200, 338, -0.13963147, -1.25684142, 0.37839809, 20.17789841, 76.23878479, 135.08448792, -50.19000244, 13.27097321, -68.31335449, 99.94325256, -41.12524414, 4.66575909, -0.59074366, 0.72554177, -0.19652970, 0.29323587, -0.51661915, 0.51228327, -0.24994391, 99.96600342, 113.74507904, 32.38000107, 0.00000000
1, 2.8250, 339, -0.24052837, -1.22126424, 0.38587439, 9.55092621, 72.41112518, 134.00686646, -51.12540054, 13.65097904, -68.34259033, 99.77770233, -41.84687042, 4.99030972, -0.58932751, 0.72370344, -0.19876479, 0.29906374, -0.42523229, 0.48456109, -0.26104194, 99.96600342, 113.74507904, 32.38000107, 0.00000000
1, 2.9350, 340, -0.57848758, -0.60454106, 0.17073518, -19.27346802, -44.70379257, 12.89562130, -57.03010941, 17.24641991, -71.35340118, 93.66606903, -51.44895172, 10.92338276, -0.58339453, 0.68235695, -0.23305230, 0.37380016, -0.20387813, -0.01785527, -0.13384199, 99.96600342, 113.74507904, 32.38000107, 0.00000000
1, 2.9400, 341, -0.55080444, -0.60866857, 0.21186955, -26.39364815, -54.40173721, 6.55086803, -57.03010941, 17.27565002, -70.85647583, 93.90575409, -51.45016479, 10.46212196, -0.58346409, 0.68263245, -0.23502636, 0.37194782, -0.23185489, -0.01339879, -0.17252782, 99.96600342, 113.74507904, 32.38000107, 0.00000000
1, 2.9450, 342, -0.49687886, -0.53134549, 0.22974591, -33.04275131, -62.18220139, -1.15626538, -57.03010941, 17.27565002, -70.85647583, 94.12914276, -51.42353058, 9.96512222, -0.58382368, 0.68280715, -0.23711568, 0.36973023, -0.28557330, -0.09088884, -0.18756793, 99.96600342, 113.74507904, 32.38000107, 0.00000000
1, 2.9500, 343, -0.47373039, -0.44304642, 0.22315665, -38.00058746, -65.79322815, -9.27627850, -56.35778809, 16.54487038, -71.55802155, 94.34579468, -51.35394669, 9.44462299, -0.58441854, 0.68299061, -0.23913367, 0.36714289, -0.30812228, -0.17973024, -0.17833301, 99.96600342, 113.74507904, 32.38000107, 0.00000000
1, 2.9550, 344, -0.45557222, -0.34048456, 0.20544599, -42.79948807, -68.74894714, -21.44874763, -56.35778809, 16.54487038, -71.55802155, 94.54910278, -51.22145844, 8.90949917, -0.58531392, 0.68321687, -0.24093997, 0.36410213, -0.32490396, -0.28375012, -0.15805236, 99.96600342, 113.74507904, 32.38000107, 0.00000000
1, 2.9600, 345, -0.44010311, -0.28286698, 0.19748478, -42.89421844, -71.55245972, -29.54131508, -56.35778809, 16.54487038, -71.55802155, 94.76226044, -51.04628754, 8.35982513, -0.58630341, 0.68356019, -0.24257538, 0.36076450, -0.33855435, -0.34339845, -0.14749530, 99.96600342, 113.74507904, 32.38000107, 0.00000000
1, 2.9650, 346, -0.41772929, -0.24964073, 0.19320928, -41.97309113, -76.08086395, -37.96834946, -55.83162689, 16.36948204, -71.20724487, 94.99953461, -50.82590103, 7.78334045, -0.58734119, 0.68407619, -0.24405794, 0.35707963, -0.35862231, -0.37922692, -0.14034519, 99.96600342, 113.74507904, 32.38000107, 0.00000000
1, 2.9700, 347, -0.38477042, -0.22920783, 0.17254779, -41.62681961, -83.30640411, -47.43380356, -55.83162689, 16.36948204, -71.20724487, 95.27221680, -50.55355835, 7.16120100, -0.58842820, 0.68480122, -0.24543414, 0.35293314, -0.38867170, -0.40285379, -0.11636526, 99.96600342, 113.74507904, 32.38000107, 0.00000000
1, 2.9750, 348, -0.34077042, -0.20534863, 0.13606296, -41.52150345, -94.31193542, -57.68734360, -55.39315796, 16.07716942, -71.17801666, 95.59881592, -50.22300339, 6.46683168, -0.58953863, 0.68579113, -0.24678048, 0.34818691, -0.42907476, -0.43055886, -0.07589018, 99.96600342, 113.74507904, 32.38000107, 0.00000000
1, 2.9800, 349, -0.27359608, -0.17657705, 0.09522530, -41.08920670, -109.08408356, -69.08638000, -55.39315796, 16.07716942, -71.17801666, 95.99900055, -49.82559204, 5.67541361, -0.59063238, 0.68711770, -0.24815330, 0.34269914, -0.49189228, -0.46390563, -0.03008989, 99.96600342, 113.74507904, 32.38000107, 0.00000000
1, 3.0400, 350, -0.32955262, -0.45093763, 0.32883075, -29.47479248, -106.32048798, -193.98918152, -47.35457230, 12.30634308, -68.60566711, 100.99245453, -39.92484283, -4.02074194, -0.60678148, 0.71715832, -0.24248430, 0.24228409, -0.31659290, -0.29957569, -0.18522233, 99.96600342, 113.74507904, 32.38000107, 0.00000000
1, 3.0450, 351, -0.40277827, -0.46950492, 0.23716003, -31.80793381, -103.14807892, -200.78915405, -47.35457230, 12.30634308, -68.60566711, 101.09017944, -38.84161758, -4.42926264, -0.60878736, 0.71948338, -0.23927809, 0.23338321, -0.22867793, -0.29232883, -0.08996373, 99.96600342, 113.74507904, 32.38000107, 0.00000000
1, 3.0500, 352, -0.45016456, -0.49139974, 0.16331910, -35.37462997, -95.25939941, -208.61773682, -45.83454895, 10.84478188, -68.66413116, 101.12261200, -37.72718430, -4.77112961, -0.61100620, 0.72164255, -0.23562913, 0.22446054, -0.16600382, -0.28199753, -0.01329352, 99.96600342, 113.74507904, 32.38000107, 0.00000000
1, 3.0550, 353, -0.50583231, -0.53617251, 0.12865894, -37.96456146, -82.96145630, -216.94949341, -45.83454895, 10.84478188, -68.66413116, 101.08185577, -36.58364105, -5.02222157, -0.61345160, 0.72362262, -0.23139086, 0.21565199, -0.09450380, -0.24905851, 0.02316790, 99.96600342, 113.74507904, 32.38000107, 0.00000000
1, 3.0600, 354, -0.54103124, -0.56380045, 0.11243388, -39.82838440, -72.47511292, -227.92759705, -45.83454895, 10.84478188, -68.66413116, 100.98130035, -35.39643860, -5.19480991, -0.61609983, 0.72548532, -0.22651838, 0.20683715, -0.04268952, -0.23358732, 0.04035210, 99.96600342, 113.74507904, 32.38000107, 0.00000000
1, 3.0650, 355, -0.53334272, -0.56725752, 0.11051767, -45.41754913, -47.98999023, -238.62974548, -43.70067215, 10.69862556, -68.57643890, 100.76016235, -34.18003464, -5.21029186, -0.61919343, 0.72699988, -0.22067305, 0.19842942, -0.03313351, -0.24252537, 0.04194455, 99.96600342, 113.74507904, 32.38000107, 0.00000000
1, 3.0700, 356, -0.51788628, -0.56085646, 0.10901407, -48.24866867, -36.41689682, -247.32624817, -43.70067215, 10.69862556, -68.57643890, 100.48484802, -32.93153763, -5.15408182, -0.62248993, 0.72833371, -0.21423748, 0.19010176, -0.03061163, -0.26148218, 0.04199387, 99.96600342, 113.74507904, 32.38000107, 0.00000000
1, 3.0750, 357, -0.51033187, -0.56131244, 0.10120461, -49.96143723, -26.18818855, -256.20925903, -41.36217499, 9.52937698, -68.95644379, 100.16961670, -31.64822578, -5.03743505, -0.62593156, 0.72952628, -0.20722906, 0.18181668, -0.01940823, -0.27361533, 0.04756031, 99.96600342, 113.74507904, 32.38000107, 0.00000000
1, 3.0800, 358, -0.50063878, -0.56559134, 0.08669107, -50.99945068, -15.82007122, -264.85220337, -41.36217499, 9.52937698, -68.95644379, 99.82147217, -30.33071899, -4.86283827, -0.62948489, 0.73058748, -0.19964275, 0.17359060, -0.00954691, -0.28189057, 0.05917725, 99.96600342, 113.74507904, 32.38000107, 0.00000000
1, 3.0850, 359, -0.48083049, -0.58032143, 0.06410095, -51.29273224, -5.17684364, -273.07739258, -39.46214676, 8.30166626, -69.19029236, 99.44743347, -28.98056412, -4.63193989, -0.63311297, 0.73152685, -0.19147560, 0.16544938, -0.00901076, -0.27960372, 0.07828355, 99.96600342, 113.74507904, 32.38000107, 0.00000000
1, 3.1700, 360, -0.22539262, -1.68349612, 0.31325209, 6.85993338, -17.43938255, -354.30935669, -24.23267937, 6.72318029, -69.95030975, 96.65930176, -1.64082181, -1.16162312, -0.66485023, 0.74677074, -0.01709031, 0.00395626, 0.18822667, 0.69040787, -0.20074502, 99.96600342, 113.74507904, 32.38000107, 0.00000000
1, 3.1750, 361, -0.24369693, -1.63466096, 0.28463537, 0.61214083, -7.51222706, -358.02416992, -21.98187637, 7.45396090, -69.83338165, 96.65602875, 0.14181042, -0.99415773, -0.66483194, 0.74694163, -0.00565755, -0.00669242, 0.23765182, 0.64098799, -0.17192081, 99.96600342, 113.74507904, 32.38000107, 0.00000000
1, 3.1800, 362, -0.27152586, -1.59591758, 0.29867628, -3.41932416, 6.84468746, -364.11535645, -21.98187637, 7.45396090, -69.83338165, 96.63887787, 1.94650257, -0.75235993, -0.66478372, 0.74681401, 0.00639196, -0.01705096, 0.29685220, 0.60250741, -0.18633431, 99.96600342, 113.74507904, 32.38000107, 0.00000000
1, 3.1850, 363, -0.26077738, -1.61727774, 0.33381510, -3.17507195, 12.58143044, -366.50546265, -18.97106171, 8.36012840, -70.06723022, 96.63201141, 3.75985098, -0.48079073, -0.66455543, 0.74650681, 0.01868410, -0.02728805, 0.31761602, 0.62510657, -0.22180191, 99.96600342, 113.74507904, 32.38000107, 0.00000000
1, 3.1900, 364, -0.23365419, -1.70400190, 0.34008753, -0.79028988, 15.60797882, -365.48220825, -18.97106171, 8.36012840, -70.06723022, 96.64782715, 5.56365013, -0.19389482, -0.66407311, 0.74608898, 0.03100808, -0.03737369, 0.32193726, 0.71413815, -0.22826302, 99.96600342, 113.74507904, 32.38000107, 0.00000000
1, 3.1950, 365, -0.25985676, -1.83074701, 0.30735171, 1.71045411, 15.66595650, -361.16616821, -18.97106171, 8.36012840, -70.06723022, 96.68405914, 7.34862804, 0.09240568, -0.66335481, 0.74555546, 0.04319734, -0.04734457, 0.37929973, 0.84425157, -0.19561356, 99.96600342, 113.74507904, 32.38000107, 0.00000000
1, 3.2000, 366, -0.33739114, -1.88370800, 0.24295737, -0.14154141, 9.62816811, -349.64923096, -17.27565002, 9.41245270, -70.18415833, 96.71485138, 9.07968712, 0.34392264, -0.66257167, 0.74479854, 0.05483087, -0.05716255, 0.48718911, 0.90147984, -0.13140360, 99.96600342, 113.74507904, 32.38000107, 0.00000000
1, 3.2050, 367, -0.54948598, -1.84640181, 0.25812414, -4.19992733, 1.72572649, -333.76702881, -17.27565002, 9.41245270, -70.18415833, 96.72478485, 10.73629379, 0.54811704, -0.66182995, 0.74377835, 0.06571779, -0.06675439, 0.72810543, 0.86896825, -0.14733741, 99.96600342, 113.74507904, 32.38000107, 0.00000000
1, 3.2100, 368, -0.92287320, -1.74315703, 0.35920128, -3.29499650, -0.81531721, -313.05319214, -14.99561501, 10.81555080, -69.92107391, 96.74044037, 12.29147053, 0.72859818, -0.66099250, 0.74268979, 0.07584373, -0.07581941, 1.12833798, 0.77086610, -0.24960156, 99.96600342, 113.74507904, 32.38000107, 0.00000000
1, 3.2150, 369, -1.05557084, -1.66170573, 0.32911706, 1.70872414, 10.64665604, -292.33816528, -14.99561501, 10.81555080, -69.92107391, 96.79705048, 13.73707294, 0.95719445, -0.65990466, 0.74172497, 0.08560095, -0.08391906, 1.28619003, 0.69513774, -0.21962750, 99.96600342, 113.74507904, 32.38000107, 0.00000000
1, 3.3250, 370, 0.69016427, -1.58434963, -0.18355325, 0.44965053, -30.58936119, 161.46203613, -12.94942951, 13.88482857, -68.60566711, 99.34042358, 18.44087219, 3.12944937, -0.64192158, 0.74936956, 0.12420950, -0.10466145, -0.37023336, 0.64969373, 0.33688349, 99.96600342, 113.74507904, 32.38000107, 0.00000000
1, 3.3300, 371, 1.24547660, -1.70453978, -0.43062776, -19.40622330, -7.12786198, 144.71286011, -12.94942951, 13.88482857, -68.60566711, 99.19582367, 17.73205185, 2.97092557, -0.64323080, 0.74957299, 0.11936700, -0.10072722, -0.93699157, 0.76600814, 0.58364367, 99.96600342, 113.74507904, 32.38000107, 0.00000000
1, 3.3350, 372, 1.74677730, -1.73040330, -0.91924840, -43.17636490, 35.42386246, 120.61685181, -13.44636059, 13.73867321, -68.51797485, 99.00653076, 17.10818672, 3.05514002, -0.64496803, 0.74914134, 0.11660648, -0.09595113, -1.44779491, 0.78884488, 1.07106233, 99.96600342, 113.74507904, 32.38000107, 0.00000000
1, 3.3400, 373, 2.09328461, -1.60571563, -1.13508940, -51.30762863, 46.20442963, 108.18327332, -13.44636059, 13.73867321, -68.51797485, 98.79322052, 16.53996468, 3.20637465, -0.64685488, 0.74842447, 0.11459609, -0.09114476, -1.80341530, 0.66105831, 1.28497887, 99.96600342, 113.74507904, 32.38000107, 0.00000000
1, 3.3450, 374, 1.81242490, -1.47759509, -0.97283578, -24.38398743, -103.53327179, 108.86331940, -13.44636059, 13.73867321, -68.51797485, 98.49951172, 16.07823753, 2.58866525, -0.64857668, 0.74786389, 0.10820907, -0.09131736, -1.53120005, 0.52957964, 1.11811090, 99.96600342, 113.74507904, 32.38000107, 0.00000000
1, 3.3500, 375, 1.23495293, -1.39188683, -0.76154304, -6.79137039, -198.88491821, 111.48423004, -14.29406548, 11.66325665, -68.81028748, 98.16458893, 15.66888428, 1.48247349, -0.65013933, 0.74738014, 0.09895716, -0.09460086, -0.96129841, 0.44073343, 0.90043640, 99.96600342, 113.74507904, 32.38000107, 0.00000000
1, 3.3550, 376, 0.57694411, -1.30425417, -0.57661426, 4.39896011, -264.06762695, 117.46453857, -14.29406548, 11.66325665, -68.81028748, 97.80390930, 15.26834011, 0.04187612, -0.65155989, 0.74687427, 0.08760019, -0.09987384, -0.31047413, 0.35010171, 0.70834720, 99.96600342, 113.74507904, 32.38000107, 0.00000000
1, 3.3600, 377, -0.04279634, -1.23318577, -0.31256217, 12.31690311, -304.87973022, 127.15202332, -13.41712952, 13.27097321, -69.71645355, 97.43824768, 14.83783817, -1.60927153, -0.65280092, 0.74631613, 0.07471584, -0.10621171, 0.30150843, 0.27586982, 0.43703672, 99.96600342, 113.74507904, 32.38000107, 0.00000000
1, 3.4700, 378, -0.80820620, -1.25411284, 0.07698657, 31.55768394, 14.48705578, 68.79647827, -17.45103836, 9.96784592, -70.12569427, 99.20932007, 1.48734641, -13.55806541, -0.64230645, 0.75719553, -0.08153857, -0.08630642, 0.83547783, 0.26713985, 0.07825767, 99.96600342, 113.74507904, 32.38000107, 0.00000000
1, 3.4750, 379, -0.65447819, -1.35167122, 0.07187490, 27.62436104, 26.83547783, 63.70779037, -17.45103836, 9.96784592, -70.12569427, 99.35009003, 1.15180099, -13.47638607, -0.64172071, 0.75784528, -0.08298893, -0.08353473, 0.67583656, 0.36497146, 0.08612531, 99.96600342, 113.74507904, 32.38000107, 0.00000000
1, 3.4800, 380, -0.42119148, -1.41889930, -0.04649386, 26.86120987, 32.90771484, 58.56935501, -17.45103836, 9.96784592, -70.12569427, 99.48710632, 0.83649051, -13.36139297, -0.64115703, 0.75850624, -0.08409552, -0.08070854, 0.43724975, 0.43267754, 0.20732632, 99.96600342, 113.74507904, 32.38000107, 0.00000000
1, 3.4850, 381, -0.20131789, -1.45962787, -0.07967419, 27.75704002, 31.41368294, 54.35114288, -18.56182289, 10.37708282, -69.71645355, 99.62789917, 0.54295158, -13.25107670, -0.64053762, 0.75919515, -0.08510686, -0.07804610, 0.21224330, 0.47379765, 0.24341759, 99.96600342, 113.74507904, 32.38000107, 0.00000000
1, 3.4900, 382, -0.03086061, -1.46687174, -0.04046948, 23.89169121, 26.94772720, 51.80519104, -18.56182289, 10.37708282, -69.71645355, 99.74072266, 0.26544911, -13.16144276, -0.64006829, 0.75971943, -0.08614055, -0.07562306, 0.03678728, 0.48129904, 0.20676079, 99.96600342, 113.74507904, 32.38000107, 0.00000000
