time,ax,ay,az,aT
0.017000,0.1116,0.3192,-0.6956,0.773
0.017000,0.2434,0.2957,-0.3625,0.527
0.018000,0.3374,0.2673,0.0277,0.431
0.018000,0.4016,0.2379,0.3940,0.611
0.018000,0.4344,0.1976,0.6887,0.838
0.018000,0.4743,0.1580,0.9166,1.044
0.019000,0.4784,0.0997,1.1259,1.227
0.023000,0.4543,0.0274,1.2783,1.357
0.027000,0.4046,-0.0422,1.3308,1.392
0.032000,0.3506,-0.1212,1.3052,1.357
0.037000,0.2848,-0.1759,1.2228,1.268
0.042000,0.2236,-0.2035,1.0527,1.095
0.055000,0.1616,-0.2013,0.8090,0.849
0.056000,0.0693,-0.1927,0.5348,0.573
0.056000,-0.0395,-0.1628,0.2802,0.326
0.081000,-0.1196,-0.1258,0.0330,0.177
0.082000,-0.1594,-0.0741,-0.2044,0.270
0.082000,-0.1618,-0.0289,-0.4202,0.451
0.082000,-0.1489,0.0054,-0.5860,0.605
0.082000,-0.1420,0.0145,-0.7016,0.716
0.088000,-0.1268,0.0176,-0.7339,0.745
0.091000,-0.0934,0.0266,-0.7281,0.735
0.104000,-0.0586,0.0463,-0.6796,0.684
0.105000,-0.0319,0.0550,-0.6052,0.609
0.106000,0.0112,0.0691,-0.5024,0.507
0.124000,0.0374,0.0814,-0.4212,0.431
0.124000,0.0592,0.0727,-0.3450,0.358
0.125000,0.0526,0.0642,-0.2737,0.286
0.127000,0.0439,0.0322,-0.2025,0.210
0.141000,0.0045,-0.0019,-0.1123,0.112
0.142000,-0.0464,-0.0358,-0.0078,0.059
0.142000,-0.0870,-0.0629,0.0777,0.133
0.148000,-0.1124,-0.0784,0.1201,0.182
0.152000,-0.1274,-0.0849,0.1053,0.186
0.159000,-0.1271,-0.0868,0.0429,0.160
0.173000,-0.1261,-0.0697,-0.0624,0.157
0.174000,-0.1221,-0.0641,-0.1794,0.226
0.174000,-0.1274,-0.0652,-0.3036,0.336
0.181000,-0.1373,-0.0751,-0.4133,0.442
0.183000,-0.1546,-0.0937,-0.5255,0.556
0.188000,-0.1724,-0.1113,-0.6115,0.645
0.192000,-0.1980,-0.1183,-0.6641,0.703
0.203000,-0.2149,-0.1292,-0.6787,0.723
0.204000,-0.2207,-0.1392,-0.6744,0.723
0.207000,-0.2298,-0.1410,-0.6488,0.703
0.214000,-0.2351,-0.1325,-0.5709,0.631
0.218000,-0.2221,-0.1115,-0.4670,0.529
0.222000,-0.2001,-0.0782,-0.3251,0.390
0.226000,-0.1590,-0.0209,-0.1499,0.220
0.232000,-0.1080,0.0410,0.0323,0.120
0.238000,-0.0465,0.0880,0.1858,0.211
0.242000,0.0160,0.1155,0.2964,0.318
0.247000,0.0819,0.1063,0.3545,0.379
0.252000,0.1440,0.0917,0.3529,0.392
0.258000,0.1735,0.0864,0.3253,0.379
0.276000,0.1800,0.0927,0.2931,0.356
0.277000,0.1635,0.0894,0.2371,0.302
0.277000,0.1236,0.0860,0.1838,0.238
0.278000,0.0552,0.0802,0.1425,0.173
0.310000,-0.0106,0.0743,0.1060,0.130
0.312000,-0.0740,0.0612,0.1031,0.141
0.312000,-0.1254,0.0312,0.1074,0.168
0.312000,-0.1839,-0.0061,0.1022,0.210
0.313000,-0.2235,-0.0340,0.1041,0.249
0.313000,-0.2563,-0.0527,0.1156,0.286
0.313000,-0.2871,-0.0694,0.1439,0.329
0.317000,-0.2989,-0.0913,0.1650,0.353
0.323000,-0.3015,-0.1019,0.1717,0.362
0.339000,-0.2830,-0.1059,0.1689,0.346
0.340000,-0.2718,-0.1104,0.1422,0.326
0.340000,-0.2560,-0.1082,0.0989,0.295
0.342000,-0.2521,-0.1300,0.0366,0.286
0.349000,-0.2410,-0.1135,-0.0544,0.272
0.353000,-0.2230,-0.1087,-0.1573,0.294
0.358000,-0.2128,-0.0939,-0.2339,0.330
0.373000,-0.2177,-0.0809,-0.2723,0.358
0.373000,-0.2473,-0.0794,-0.2679,0.373
0.374000,-0.2847,-0.0944,-0.2444,0.387
0.381000,-0.2841,-0.0969,-0.2067,0.364
0.387000,-0.2574,-0.0946,-0.1811,0.329
0.388000,-0.2217,-0.0897,-0.1412,0.278
0.394000,-0.1768,-0.0681,-0.0943,0.212
0.407000,-0.1344,-0.0418,-0.0569,0.152
0.408000,-0.1109,-0.0467,-0.0435,0.128
0.409000,-0.0872,-0.0422,-0.0205,0.099
0.418000,-0.0727,-0.0376,0.0074,0.082
0.419000,-0.0553,-0.0235,0.0281,0.066
0.423000,-0.0422,-0.0120,0.0059,0.044
0.431000,-0.0195,-0.0006,-0.0450,0.049
0.433000,-0.0420,-0.0012,-0.0671,0.079
0.438000,-0.0616,0.0053,-0.0747,0.097
0.443000,-0.0898,0.0028,-0.1157,0.146
0.448000,-0.1315,-0.0087,-0.1734,0.218
0.453000,-0.1752,-0.0317,-0.1998,0.268
0.458000,-0.2379,-0.0446,-0.2072,0.319
0.471000,-0.3191,-0.0524,-0.2001,0.380
0.471000,-0.3832,-0.0790,-0.2026,0.441
0.473000,-0.4279,-0.0813,-0.1859,0.474
0.481000,-0.4627,-0.0784,-0.1215,0.485
0.483000,-0.4690,-0.0657,-0.0117,0.474
0.490000,-0.4538,-0.0698,0.1242,0.476
0.493000,-0.4243,-0.0910,0.2696,0.511
0.514000,-0.4233,-0.1440,0.4030,0.602
0.515000,-0.4340,-0.2075,0.5363,0.720
0.516000,-0.4661,-0.2553,0.6792,0.862
0.516000,-0.5125,-0.2952,0.8461,1.032
0.524000,-0.5705,-0.3106,1.0417,1.228
0.525000,-0.8874,-0.1347,1.4934,1.742
0.533000,-1.0106,0.0064,1.6779,1.959
0.534000,-0.9642,0.0822,1.7437,1.994
0.539000,-0.8085,0.1078,1.7266,1.910
0.543000,-0.6209,0.0982,1.6602,1.775
0.548000,-0.4592,0.0514,1.5325,1.601
0.553000,-0.4740,0.1137,1.4104,1.492
0.558000,-0.4299,0.1823,1.3252,1.405
0.565000,-0.3861,0.2308,1.2222,1.302
0.568000,-0.3319,0.2327,1.1440,1.214
0.573000,-0.3103,0.2090,1.1484,1.208
0.592000,-0.2999,0.1279,1.0750,1.123
0.592000,-0.2709,-0.0033,0.9142,0.954
0.593000,-0.2232,-0.1107,0.6299,0.677
0.593000,0.0339,-0.1404,0.1329,0.196
0.599000,0.0681,-0.1611,-0.4652,0.497
0.603000,-0.2274,-0.1266,-0.6722,0.721
0.611000,-0.4489,-0.0989,-0.9020,1.012
0.624000,-0.5207,-0.0279,-1.3444,1.442
0.625000,-0.6051,0.0747,-1.5452,1.661
0.626000,-0.5264,0.1261,-1.6308,1.718
0.634000,-0.3690,0.2109,-1.5556,1.613
0.635000,-0.1908,0.3792,-1.2453,1.316
0.639000,0.0739,0.5686,-0.8020,0.986
0.643000,0.3443,0.7308,-0.2899,0.858
0.648000,0.6674,0.8100,0.1600,1.062
0.653000,0.9875,0.8113,0.5552,1.393
0.658000,1.4440,0.9044,0.8098,1.887
0.664000,1.8867,0.9496,0.8807,2.288
0.669000,2.2206,0.9371,0.8468,2.555
0.673000,2.3965,0.8812,0.7149,2.652
0.679000,2.4095,0.8226,0.5356,2.602
0.684000,2.3607,0.7447,0.2872,2.492
0.689000,2.1981,0.6932,0.0680,2.306
0.694000,1.9892,0.6036,-0.2271,2.091
0.700000,1.7334,0.4953,-0.5385,1.881
0.704000,1.5730,0.4258,-0.8784,1.851
0.709000,1.4947,0.3812,-1.2494,1.985
0.724000,1.4391,0.2858,-1.6617,2.217
0.725000,1.3509,0.2982,-1.8719,2.328
0.727000,1.2477,0.3777,-1.8854,2.292
0.729000,1.1072,0.4929,-1.7717,2.147
0.733000,0.9804,0.6388,-1.5548,1.946
0.739000,0.9518,0.8155,-1.2321,1.758
0.744000,1.1019,1.0079,-0.7912,1.690
0.757000,1.2642,1.1672,-0.2176,1.734
0.759000,1.4208,1.1585,0.6522,1.946
0.759000,1.6747,0.7697,2.5182,3.121
0.765000,2.2442,0.2591,2.9928,3.750
0.768000,2.5310,-0.1656,2.3786,3.477
0.773000,2.2076,-0.3640,2.1182,3.081
0.779000,1.4762,-0.4608,2.5727,3.002
0.784000,0.7700,-0.4196,3.2699,3.385
0.789000,0.4439,-0.4757,3.3358,3.399
0.794000,0.3063,-0.7003,2.7561,2.860
0.799000,0.1281,-1.2598,1.6449,2.076
0.804000,0.1545,-1.6255,0.6228,1.748
0.810000,-0.0187,-1.8841,-0.1864,1.893
0.821000,-0.5071,-2.1107,-0.5362,2.236
0.822000,-1.1529,-2.3035,-0.7946,2.696
0.824000,-1.6721,-2.3366,-1.0737,3.067
0.830000,-1.7334,-2.0184,-1.5265,3.067
0.838000,-1.3985,-1.4551,-2.1534,2.951
0.839000,-1.0194,-0.9323,-2.6703,3.006
0.866000,-0.7124,-0.4122,-2.6520,2.777
0.867000,-0.5146,-0.0035,-2.8472,2.893
0.868000,-0.2730,0.3273,-3.0410,3.071
0.869000,-0.0228,0.5844,-3.1139,3.168
0.869000,0.2201,0.7643,-3.2045,3.302
0.870000,0.4505,0.8858,-3.1934,3.344
0.874000,0.7656,1.0651,-3.1738,3.434
0.879000,1.0802,1.2855,-3.0259,3.461
0.884000,1.3325,1.5134,-2.5248,3.231
0.889000,1.4190,1.5976,-2.0506,2.962
0.897000,1.4084,1.5567,-1.7560,2.737
0.899000,1.4775,1.4741,-1.6145,2.639
0.905000,1.6073,1.4073,-1.4895,2.604
0.909000,1.8514,1.3562,-1.5938,2.794
0.914000,2.0179,1.2737,-1.9057,3.054
0.919000,2.0204,1.1141,-2.2723,3.238
0.924000,1.8442,0.8963,-2.6171,3.325
0.936000,1.3953,0.5062,-2.8134,3.181
0.938000,1.1534,0.2958,-2.8923,3.128
0.940000,1.2158,0.3882,-3.0404,3.297
0.970000,1.4945,0.7330,-3.2288,3.633
0.971000,1.9341,1.2161,-3.4742,4.158
0.971000,2.4082,1.7382,-3.7407,4.776
0.972000,2.8936,2.2289,-3.9396,5.372
0.972000,3.3557,2.6897,-4.0377,5.899
0.973000,3.6965,3.0463,-4.1713,6.352
0.973000,3.6500,2.9471,-4.6206,6.585
0.983000,3.1006,2.3178,-5.2425,6.517
0.984000,2.1141,1.4156,-5.7457,6.284
0.990000,0.8213,0.5161,-5.8771,5.957
0.994000,-0.4953,-0.2968,-5.6894,5.719
0.999000,-1.7469,-0.9193,-5.2350,5.595
1.004000,-1.7347,-1.2855,-4.8459,5.305
1.009000,-2.6343,-1.4322,-4.6605,5.542
1.014000,-3.0047,-1.4162,-4.7908,5.830
1.019000,-2.7587,-1.3333,-5.0454,5.903
1.024000,-1.6297,-1.2452,-5.1852,5.576
1.035000,-1.2520,-1.1765,-5.1267,5.407
1.036000,-1.1175,-1.1511,-5.0111,5.262
1.041000,-1.1911,-1.2164,-5.1183,5.394
1.046000,-1.2671,-1.1773,-5.0560,5.344
1.051000,-1.2134,-1.0278,-4.9606,5.209
1.054000,-0.9749,-0.8474,-4.9540,5.120
1.061000,-0.6140,-0.6620,-5.1125,5.192
1.065000,-0.2222,-0.4749,-5.4145,5.440
1.070000,0.1840,-0.2927,-5.7662,5.777
1.074000,0.5371,-0.1155,-6.1053,6.130
1.080000,0.6133,-0.1595,-6.1326,6.165
1.084000,0.6642,-0.1549,-5.5344,5.576
1.089000,0.6206,-0.1159,-4.9113,4.952
1.094000,0.6830,-0.0156,-5.1790,5.224
1.100000,0.6620,0.0336,-5.8583,5.896
1.106000,0.5746,-0.0726,-6.1757,6.203
1.109000,0.4163,-0.3664,-5.9949,6.020
1.116000,0.1486,-0.7931,-5.5527,5.611
1.120000,-0.1625,-1.2683,-5.1169,5.274
1.125000,-0.5016,-1.7183,-4.7540,5.080
1.137000,-0.8291,-2.0871,-4.4515,4.986
1.143000,-1.1913,-2.4074,-4.1372,4.933
1.145000,-1.5290,-2.6606,-3.8368,4.913
1.146000,-1.7776,-2.8298,-3.5981,4.911
1.171000,-1.9409,-2.9607,-3.4038,4.911
1.173000,-1.9827,-3.0153,-3.3513,4.925
1.173000,-1.9155,-2.9910,-3.4807,4.973
1.174000,-1.8108,-2.9490,-3.7162,5.078
1.175000,-1.6945,-2.9323,-4.0338,5.267
1.175000,-1.5887,-2.9438,-4.3701,5.503
1.181000,-1.4704,-2.9912,-4.7244,5.782
1.185000,-1.3473,-3.0726,-5.0461,6.060
1.190000,-1.2478,-3.1787,-5.3245,6.325
1.198000,-1.1621,-3.2922,-5.5418,6.550
1.200000,-1.1187,-3.4833,-5.7094,6.781
1.205000,-1.1133,-3.7337,-5.8200,7.004
1.209000,-1.1033,-4.0450,-5.8574,7.203
1.214000,-1.0631,-4.3853,-5.7956,7.345
1.219000,-0.9757,-4.7202,-5.6103,7.396
1.224000,-0.8304,-5.0183,-5.2995,7.346
1.229000,-0.6542,-5.2944,-4.8555,7.213
1.235000,-0.4948,-5.4902,-4.3099,6.997
1.240000,-0.3542,-5.6194,-3.6873,6.730
1.246000,-0.2191,-5.6804,-3.0373,6.445
1.250000,-0.0895,-5.6813,-2.3822,6.161
1.255000,0.0692,-5.6320,-1.7716,5.904
1.260000,0.2285,-5.5958,-1.2133,5.730
1.270000,0.4177,-5.5826,-0.6964,5.641
1.272000,0.6196,-5.5946,-0.2495,5.634
1.275000,0.8105,-5.6025,0.1513,5.663
1.300000,0.9830,-5.6459,0.5057,5.753
1.302000,1.1522,-5.7893,0.7159,5.946
1.302000,1.2223,-6.0358,0.8563,6.218
1.303000,1.2187,-6.3000,0.9606,6.488
1.303000,1.1557,-6.5446,0.9878,6.719
1.305000,1.1836,-6.8814,0.8297,7.032
1.310000,1.2444,-7.2787,0.6204,7.410
1.317000,1.3159,-7.7121,0.4752,7.838
1.320000,1.3974,-8.1423,0.3854,8.270
1.325000,1.4670,-8.5545,0.2862,8.684
1.331000,1.4497,-8.9241,0.1173,9.042
1.335000,1.3499,-9.2530,-0.1129,9.352
1.340000,1.2152,-9.5792,-0.3693,9.663
1.351000,1.0674,-9.9324,-0.6395,10.010
1.353000,0.9443,-10.3089,-0.8669,10.388
1.356000,0.8850,-10.6833,-0.9970,10.766
1.360000,0.8854,-11.0508,-1.0462,11.135
1.378000,0.9606,-11.4517,-0.9959,11.535
1.380000,1.2626,-11.8972,-0.9169,11.999
1.381000,1.7804,-12.3253,-0.7970,12.479
1.381000,2.4284,-12.6809,-0.5830,12.925
1.385000,3.1824,-12.9487,-0.2901,13.337
1.390000,4.0011,-13.0512,0.1122,13.651
1.397000,4.8589,-13.0053,0.5927,13.896
1.400000,5.7501,-12.8051,1.1798,14.086
1.405000,6.6604,-12.4583,1.8540,14.248
1.410000,7.5477,-11.9973,2.5636,14.404
1.416000,8.3916,-11.4496,3.2785,14.569
1.420000,9.1609,-10.8294,4.0029,14.738
1.425000,9.8680,-10.1394,4.6771,14.902
1.431000,10.4698,-9.4125,5.3126,15.048
1.436000,10.9792,-8.6587,5.8678,15.164
1.440000,11.4306,-7.8828,6.3304,15.260
1.447000,11.8386,-7.1105,6.7291,15.362
1.451000,12.1918,-6.3526,7.0248,15.438
1.455000,12.5021,-5.5797,7.1967,15.467
1.460000,12.7849,-4.7987,7.2667,15.469
1.471000,13.0534,-4.0383,7.2286,15.458
1.473000,13.3169,-3.2979,7.1049,15.450
1.475000,13.5646,-2.6234,6.9133,15.449
1.499000,13.5673,-1.9638,6.7172,15.266
1.500000,13.3826,-1.3590,6.5553,14.964
1.501000,13.4320,-0.9378,6.1345,14.796
1.502000,13.6125,-0.6131,5.5787,14.724
1.502000,13.8158,-0.3804,4.9958,14.696
1.506000,13.9725,-0.1913,4.4253,14.658
1.511000,14.0415,-0.0166,3.8995,14.573
1.515000,13.9844,0.1751,3.4408,14.403
1.524000,13.7761,0.4037,3.0258,14.110
1.525000,13.3467,0.6669,2.6581,13.625
1.530000,12.7460,0.9772,2.3521,12.998
1.535000,12.0903,1.2919,2.0771,12.335
1.541000,11.5193,1.5397,1.8137,11.762
1.547000,11.0480,1.7257,1.5356,11.287
1.551000,10.6783,1.8308,1.2436,10.905
1.555000,10.3461,1.8890,0.9807,10.563
1.560000,10.0370,1.9002,0.7516,10.243
1.567000,9.7583,1.8981,0.5707,9.958
1.570000,9.4960,1.8948,0.4254,9.693
1.575000,9.2598,1.8687,0.2994,9.451
1.583000,9.0260,1.7816,0.1872,9.202
1.586000,8.7687,1.6359,0.0858,8.920
1.592000,8.4623,1.4366,-0.0097,8.583
1.616000,8.0904,1.2314,-0.1046,8.184
1.618000,7.6737,1.0516,-0.2346,7.749
1.618000,7.2174,0.8997,-0.4046,7.284
1.619000,6.6986,0.7876,-0.5790,6.770
1.619000,6.1161,0.7058,-0.7435,6.201
1.621000,5.4685,0.6616,-0.8862,5.579
1.626000,4.8174,0.6698,-1.0644,4.979
1.631000,4.1634,0.7160,-1.3067,4.422
1.636000,3.5052,0.7933,-1.5766,3.925
1.641000,2.9102,0.9211,-1.8403,3.564
1.646000,2.3784,1.1185,-2.1092,3.370
1.651000,1.9298,1.4170,-2.3348,3.344
1.657000,1.5806,1.7589,-2.5265,3.461
1.662000,1.3235,2.0917,-2.6868,3.653
1.666000,1.1195,2.4035,-2.8105,3.864
1.671000,0.9681,2.6749,-2.8957,4.059
1.675000,0.8717,2.9038,-2.9613,4.238
1.684000,0.8533,3.0636,-2.9858,4.362
1.686000,0.8957,3.1807,-2.9598,4.436
1.692000,0.9813,3.2406,-2.8646,4.435
1.718000,1.0975,3.2647,-2.7295,4.395
1.720000,1.2392,3.2718,-2.5694,4.341
1.721000,1.3916,3.2499,-2.4114,4.279
1.721000,1.5347,3.2082,-2.2774,4.223
1.722000,1.6971,3.1515,-2.1347,4.168
1.722000,1.8445,3.0578,-1.9788,4.083
1.726000,1.9604,2.9177,-1.8462,3.970
1.731000,2.0208,2.7453,-1.7661,3.839
1.736000,2.0374,2.5406,-1.7576,3.701
1.741000,2.0273,2.3443,-1.8205,3.594
1.747000,2.0069,2.1539,-1.9186,3.514
1.751000,1.9793,1.9958,-2.0276,3.466
1.758000,1.9177,1.8651,-2.1521,3.433
1.761000,1.8153,1.7426,-2.2820,3.397
1.767000,1.6529,1.6020,-2.4197,3.340
1.771000,1.4358,1.4530,-2.5886,3.297
1.777000,1.2128,1.2889,-2.7807,3.296
1.786000,0.9816,1.1456,-2.9788,3.339
1.788000,0.7640,1.0448,-3.1749,3.429
1.798000,0.5435,0.9460,-3.3471,3.520
1.799000,0.3389,0.8898,-3.4542,3.583
1.823000,0.1467,0.8575,-3.5173,3.623
1.824000,-0.0025,0.8370,-3.5246,3.623
1.824000,-0.1159,0.8617,-3.4642,3.572
1.825000,-0.3298,0.7738,-3.3843,3.487
1.826000,-0.5125,0.7049,-3.3709,3.482
1.826000,-0.6871,0.6076,-3.3306,3.455
1.834000,-0.8968,0.4889,-3.2468,3.404
1.836000,-1.1033,0.3706,-3.1340,3.343
1.841000,-1.2773,0.2479,-3.0164,3.285
1.847000,-1.4190,0.1256,-2.8656,3.200
1.852000,-1.5106,0.0161,-2.7085,3.101
1.856000,-1.5431,-0.0808,-2.5452,2.978
1.861000,-1.5238,-0.1628,-2.3736,2.825
1.866000,-1.4691,-0.2393,-2.2062,2.661
1.871000,-1.4199,-0.3368,-2.0265,2.497
1.876000,-1.3884,-0.4074,-1.8135,2.320
1.881000,-1.3983,-0.4777,-1.6012,2.179
1.886000,-1.4472,-0.5451,-1.4069,2.091
1.891000,-1.5615,-0.5859,-1.2546,2.087
1.903000,-1.6925,-0.5734,-1.1400,2.120
1.904000,-1.8211,-0.5219,-1.0511,2.166
1.937000,-1.9328,-0.4672,-0.9854,2.219
1.938000,-2.0299,-0.4164,-0.9501,2.280
1.939000,-2.0862,-0.3885,-0.9355,2.319
1.939000,-2.1108,-0.3857,-0.9322,2.340
1.939000,-2.0994,-0.3650,-0.9520,2.334
1.940000,-2.0496,-0.3144,-0.9827,2.295
1.940000,-1.9761,-0.2317,-1.0121,2.232
1.942000,-1.8747,-0.1315,-1.0184,2.137
1.947000,-1.7956,-0.0138,-1.0183,2.064
1.951000,-1.7343,0.1259,-1.0072,2.009
1.956000,-1.6959,0.2947,-1.0041,1.993
1.962000,-1.6638,0.4709,-0.9919,1.993
1.968000,-1.6549,0.6495,-0.9851,2.032
1.971000,-1.6646,0.8211,-0.9883,2.103
1.976000,-1.7120,0.9735,-0.9916,2.205
1.981000,-1.7612,1.1141,-0.9927,2.308
1.986000,-1.8313,1.2237,-0.9843,2.412
1.991000,-1.9054,1.3336,-0.9807,2.524
1.997000,-1.9666,1.4367,-0.9770,2.624
2.004000,-2.0124,1.5547,-0.9491,2.714
2.006000,-2.0070,1.6922,-0.8972,2.774
2.014000,-2.0149,1.7800,-0.8241,2.812
2.017000,-2.0645,1.8111,-0.7682,2.852
2.021000,-2.1032,1.8549,-0.7414,2.901
2.026000,-2.1021,1.9210,-0.7081,2.934
2.035000,-2.0565,2.0143,-0.6635,2.954
2.036000,-1.9928,2.1250,-0.6125,2.977
2.041000,-1.9494,2.2508,-0.5602,3.030
2.072000,-1.9143,2.3914,-0.5090,3.105
2.073000,-1.8804,2.5254,-0.4566,3.182
2.074000,-1.8310,2.6647,-0.4175,3.260
2.074000,-1.7900,2.7829,-0.3891,3.332
2.074000,-1.7290,2.9015,-0.3691,3.398
2.075000,-1.6670,3.0038,-0.3409,3.452
2.078000,-1.5996,3.1087,-0.3354,3.512
2.082000,-1.5266,3.2185,-0.3218,3.577
2.086000,-1.4844,3.3045,-0.3046,3.635
2.091000,-1.4490,3.3426,-0.3008,3.656
2.097000,-1.4105,3.3403,-0.3055,3.639
2.102000,-1.3669,3.3165,-0.2948,3.599
2.107000,-1.3300,3.2857,-0.2786,3.556
2.119000,-1.2903,3.2334,-0.2785,3.492
2.121000,-1.2835,3.1526,-0.2872,3.416
2.123000,-1.3022,3.0698,-0.3048,3.348
2.127000,-1.3490,3.0087,-0.3359,3.314
2.154000,-1.4308,2.9647,-0.3850,3.314
2.155000,-1.5403,2.9497,-0.4497,3.358
2.156000,-1.6486,2.9017,-0.5177,3.377
2.156000,-1.7386,2.8519,-0.5770,3.390
2.157000,-1.8105,2.8173,-0.6105,3.404
2.157000,-1.8594,2.7881,-0.6400,3.412
2.166000,-1.9045,2.7380,-0.6726,3.402
2.168000,-1.9360,2.6910,-0.7158,3.391
2.175000,-1.9659,2.6662,-0.7719,3.401
2.178000,-1.9919,2.6756,-0.8263,3.436
2.189000,-1.9852,2.7048,-0.8956,3.473
2.190000,-1.9603,2.7201,-0.9536,3.486
2.192000,-1.8883,2.7170,-1.0171,3.462
2.206000,-1.7478,2.7048,-1.1104,3.406
2.207000,-1.5160,2.6688,-1.2611,3.318
2.207000,-1.1719,2.5706,-1.4521,3.176
2.223000,-0.7402,2.3763,-1.6303,2.975
2.223000,-0.2554,2.0810,-1.7885,2.756
2.224000,0.2486,1.7060,-1.9338,2.591
2.227000,0.8090,1.2963,-2.0827,2.583
2.241000,1.3461,0.8540,-2.2136,2.728
2.241000,1.7496,0.3265,-2.3502,2.948
2.242000,2.1485,-0.1786,-2.5423,3.333
2.249000,2.7643,-0.5109,-3.0084,4.117
2.252000,3.1217,-1.3166,-3.2464,4.692
2.258000,3.5377,-2.2884,-3.6319,5.563
2.281000,4.0762,-3.4115,-4.1941,6.771
2.282000,4.6907,-4.7913,-4.7753,8.232
2.282000,5.3066,-6.3722,-5.2522,9.816
2.283000,5.8548,-8.0391,-5.7171,11.471
2.283000,6.2426,-9.5977,-6.0921,12.969
2.289000,6.3542,-10.9209,-6.2760,14.108
2.294000,6.1630,-11.8670,-6.1610,14.723
2.304000,5.5805,-12.2731,-5.6668,14.625
2.304000,4.6031,-12.1461,-4.8535,13.866
2.308000,3.4632,-11.5549,-3.8666,12.667
2.322000,2.4449,-10.6430,-2.8271,11.280
2.323000,1.7087,-9.5496,-1.8027,9.867
2.323000,1.3349,-8.4211,-0.7428,8.559
2.327000,1.2818,-7.3761,0.3359,7.494
2.339000,1.5139,-6.4681,1.4330,6.796
2.339000,1.9604,-5.7221,2.5514,6.565
2.342000,2.5452,-5.1442,3.6361,6.794
2.384000,3.2163,-4.7305,4.6282,7.358
2.385000,3.8243,-4.5151,5.5645,8.122
2.387000,4.6166,-4.2977,6.4739,9.039
2.388000,5.3919,-4.1301,7.2153,9.909
2.389000,6.0432,-3.9990,7.7365,10.600
2.389000,6.4517,-3.8957,8.0994,11.064
2.390000,6.5845,-3.8320,8.2778,11.250
2.393000,6.4749,-3.8176,8.2553,11.165
2.394000,6.1814,-3.8855,8.0388,10.860
2.395000,5.7409,-4.0306,7.6481,10.378
2.401000,5.1805,-4.2047,7.1249,9.761
2.404000,4.5027,-4.3850,6.4822,9.029
2.408000,3.7037,-4.5210,5.7552,8.202
2.413000,2.7947,-4.5833,4.9934,7.332
2.419000,1.8085,-4.6188,4.2274,6.517
2.422000,0.7818,-4.6224,3.4896,5.844
2.428000,-0.2774,-4.6059,2.8248,5.410
2.434000,-1.3349,-4.5807,2.2221,5.263
2.438000,-2.3514,-4.4975,1.6823,5.347
2.442000,-3.3115,-4.3722,1.1729,5.609
2.449000,-4.2171,-4.2084,0.7093,6.000
2.454000,-5.0417,-3.9770,0.3064,6.429
2.458000,-5.7623,-3.6879,-0.0156,6.841
2.475000,-6.3388,-3.3266,-0.2683,7.164
2.477000,-6.5635,-2.8523,-0.5181,7.175
2.478000,-6.7102,-2.3876,-0.6207,7.149
2.482000,-6.9231,-1.9902,-0.5384,7.224
2.484000,-7.1014,-1.6233,-0.4603,7.299
2.487000,-7.2624,-1.3256,-0.2981,7.388
2.493000,-7.3800,-1.0779,-0.0811,7.459
2.498000,-7.4282,-0.8370,0.1352,7.476
2.503000,-7.3478,-0.5677,0.3456,7.378
2.507000,-7.0244,-0.2507,0.5379,7.049
2.513000,-6.6744,0.0289,0.7667,6.718
2.519000,-6.4060,0.2324,0.9858,6.486
2.523000,-6.2099,0.3785,1.1925,6.335
2.529000,-6.0815,0.4909,1.3791,6.255
2.533000,-5.9968,0.5838,1.5384,6.218
2.539000,-5.9609,0.6380,1.6653,6.222
2.543000,-5.9639,0.7110,1.7146,6.246
2.548000,-6.0012,0.7812,1.7084,6.288
2.553000,-6.0225,0.8272,1.6516,6.299
2.559000,-6.0180,0.8922,1.5495,6.278
2.570000,-5.9857,0.9403,1.4239,6.224
2.572000,-5.9184,0.9879,1.2797,6.135
2.577000,-5.8356,1.0133,1.1242,6.029
2.581000,-5.7302,1.0164,0.9671,5.899
2.609000,-5.6047,0.9901,0.7965,5.747
2.614000,-5.4615,0.9605,0.6244,5.580
2.617000,-5.2840,0.9180,0.4505,5.382
2.618000,-5.1060,0.8672,0.2699,5.186
2.619000,-4.9370,0.8246,0.0872,5.006
2.619000,-4.7652,0.7757,-0.1049,4.829
2.620000,-4.6171,0.7466,-0.2946,4.686
2.620000,-4.5166,0.8352,-0.4556,4.616
2.623000,-4.4949,0.8451,-0.6096,4.614
2.631000,-4.4537,0.8556,-0.8808,4.620
2.634000,-4.3978,0.9073,-1.1579,4.637
2.638000,-4.3968,0.9521,-1.3857,4.707
2.643000,-4.4004,1.0115,-1.5740,4.782
2.649000,-4.4634,1.0858,-1.7515,4.916
2.653000,-4.5259,1.1965,-1.9206,5.060
2.658000,-4.5903,1.3341,-2.0617,5.206
2.669000,-4.6397,1.4558,-2.1725,5.326
2.672000,-4.6836,1.5687,-2.2482,5.427
2.672000,-4.6958,1.6251,-2.2983,5.475
2.701000,-4.6881,1.6299,-2.3107,5.475
2.703000,-4.6702,1.5664,-2.2858,5.430
2.703000,-4.6422,1.4656,-2.2213,5.351
2.704000,-4.6016,1.3563,-2.1486,5.257
2.704000,-4.5367,1.2528,-2.0698,5.141
2.705000,-4.4809,1.1668,-1.9465,5.023
2.708000,-4.4680,1.0478,-1.7719,4.919
2.715000,-4.5073,0.9105,-1.5773,4.861
2.719000,-4.5816,0.7240,-1.3751,4.838
2.723000,-4.6692,0.4936,-1.1747,4.840
2.729000,-4.7626,0.2509,-0.9787,4.869
2.733000,-4.8592,0.0223,-0.7659,4.919
2.738000,-4.9635,-0.1849,-0.5481,4.997
2.743000,-5.0705,-0.3918,-0.3257,5.096
2.748000,-5.1440,-0.5742,-0.1084,5.177
2.754000,-5.1884,-0.7341,0.1013,5.241
2.759000,-5.1944,-0.8647,0.3200,5.276
2.770000,-5.1688,-1.0134,0.5451,5.295
2.773000,-5.1092,-1.1682,0.7766,5.298
2.774000,-5.0081,-1.3052,1.0119,5.273
2.810000,-4.8560,-1.4481,1.2387,5.217
2.813000,-4.6175,-1.5834,1.4333,5.088
2.813000,-4.3285,-1.7517,1.6265,4.945
2.814000,-3.9677,-1.9749,1.7970,4.782
2.816000,-3.5401,-2.2626,1.9492,4.632
2.818000,-3.0767,-2.5957,2.0804,4.531
2.820000,-2.5976,-2.9632,2.1444,4.486
2.820000,-2.1004,-3.3533,2.1029,4.481
2.821000,-1.6045,-3.7352,1.9440,4.506
2.823000,-1.0959,-4.1046,1.6633,4.562
2.830000,-0.5508,-4.4734,1.3022,4.692
2.833000,0.0273,-4.8692,0.8688,4.946
2.839000,0.6715,-5.3469,0.3855,5.403
2.843000,1.3311,-5.9190,-0.1327,6.068
2.848000,1.9744,-6.5929,-0.6922,6.917
2.853000,2.5296,-7.3754,-1.2749,7.901
2.858000,2.9125,-8.1786,-1.8415,8.875
2.865000,3.0641,-8.9203,-2.3790,9.727
2.870000,2.9328,-9.5090,-2.8335,10.347
2.874000,2.5348,-9.8935,-3.1658,10.692
2.883000,1.9822,-10.0317,-3.3392,10.757
2.884000,1.3766,-9.9498,-3.3273,10.581
2.889000,0.8486,-9.6543,-3.1083,10.178
2.893000,0.4731,-9.2288,-2.6394,9.611
2.914000,0.3031,-8.7596,-1.9429,8.978
2.916000,0.3318,-8.2897,-1.0720,8.365
2.916000,0.5532,-7.8516,-0.0532,7.871
2.917000,0.9597,-7.4361,1.0689,7.574
2.918000,1.5457,-7.0176,2.2318,7.524
2.924000,2.2382,-6.5922,3.4232,7.758
2.931000,2.9886,-6.1461,4.5903,8.233
2.933000,3.7464,-5.6615,5.6766,8.849
2.939000,4.4800,-5.1673,6.6224,9.520
2.944000,5.1620,-4.6709,7.4106,10.168
2.949000,5.7793,-4.1606,7.9843,10.699
2.954000,6.3051,-3.6580,8.2776,11.030
2.959000,6.7063,-3.2095,8.2926,11.137
2.964000,6.9666,-2.8100,8.0317,10.997
2.969000,7.0954,-2.4619,7.4890,10.606
2.974000,7.0953,-2.1582,6.6615,9.969
2.986000,6.9766,-1.8890,5.6276,9.160
2.988000,6.7531,-1.6742,4.4794,8.275
2.992000,6.4568,-1.4870,3.3004,7.402
2.993000,6.1220,-1.3344,2.1501,6.624
3.034000,5.7803,-1.1682,1.0856,5.996
3.035000,5.4304,-0.9667,0.1175,5.517
3.036000,5.0838,-0.7369,-0.7583,5.193
3.036000,4.7511,-0.4283,-1.5149,5.005
3.037000,4.4546,-0.1145,-2.1677,4.955
3.037000,4.2113,0.2335,-2.7086,5.013
3.038000,4.0653,0.6472,-3.1423,5.179
3.038000,4.0036,1.0908,-3.4906,5.422
3.043000,4.0003,1.5644,-3.7441,5.698
3.045000,4.0815,2.0253,-3.9046,6.001
3.049000,4.1894,2.4710,-3.9529,6.268
3.055000,4.3360,2.8754,-3.8775,6.489
3.063000,4.4984,3.1929,-3.7238,6.656
3.066000,4.6694,3.4569,-3.5452,6.806
3.069000,4.8483,3.6699,-3.3544,6.944
3.074000,5.0395,3.8579,-3.1661,7.093
3.082000,5.2164,4.0427,-2.9834,7.243
3.084000,5.3633,4.1782,-2.8016,7.353
3.089000,5.4660,4.3246,-2.5951,7.437
3.094000,5.5720,4.4599,-2.3935,7.528
3.102000,5.6687,4.6129,-2.1972,7.632
3.104000,5.7153,4.7642,-2.0191,7.710
3.109000,5.7322,4.9184,-1.8784,7.783
3.129000,5.7051,5.0610,-1.7566,7.826
3.131000,5.5526,5.1921,-1.6709,7.783
3.131000,5.5715,5.2734,-1.6261,7.842
3.132000,5.0518,5.3243,-1.6299,7.518
3.134000,4.7929,5.3807,-1.6388,7.390
3.139000,4.5675,5.4618,-1.6578,7.310
3.147000,4.3637,5.5747,-1.6581,7.271
3.149000,4.1884,5.6907,-1.6470,7.255
3.154000,4.0396,5.7501,-1.6342,7.215
3.160000,3.9150,5.7504,-1.6700,7.154
3.165000,3.8052,5.7039,-1.7854,7.085
3.169000,3.7152,5.6081,-1.9659,7.008
3.180000,3.6331,5.4657,-2.1823,6.916
3.181000,3.5708,5.2933,-2.4080,6.824
3.184000,3.4759,5.1031,-2.6424,6.716
3.189000,3.3458,4.8952,-2.8802,6.592
3.194000,3.1762,4.6984,-3.1160,6.471
3.199000,2.9697,4.5224,-3.3205,6.348
3.204000,2.7530,4.3674,-3.4599,6.215
3.209000,2.7018,4.1835,-3.6007,6.145
3.219000,2.2423,3.9947,-3.7020,5.890
3.220000,2.0213,3.8444,-3.7731,5.753
3.224000,1.8520,3.7207,-3.8092,5.638
3.232000,1.7344,3.6019,-3.8128,5.524
3.258000,1.6759,3.4977,-3.7909,5.423
3.260000,1.6620,3.4153,-3.7316,5.325
3.261000,1.6827,3.3232,-3.6517,5.216
3.261000,1.7286,3.2479,-3.5346,5.102
3.262000,1.7993,3.1653,-3.3730,4.963
3.262000,1.8832,3.0848,-3.1795,4.814
3.269000,1.9728,3.0136,-2.9660,4.666
3.270000,2.0633,2.9419,-2.7450,4.522
3.274000,2.1355,2.8718,-2.5190,4.376
3.281000,2.1912,2.8128,-2.2952,4.240
3.285000,2.2243,2.7577,-2.0838,4.110
3.290000,2.2057,2.7256,-1.8681,3.973
3.295000,2.1716,2.7092,-1.6651,3.851
3.300000,2.1221,2.7179,-1.4701,3.749
3.304000,2.0643,2.7397,-1.2734,3.659
3.309000,2.0038,2.7844,-1.0926,3.600
3.317000,1.9354,2.8421,-0.9061,3.556
3.320000,1.8781,2.8912,-0.7380,3.526
3.324000,1.7987,2.9149,-0.5814,3.474
3.358000,1.7063,2.9345,-0.4243,3.421
3.360000,1.6378,2.9289,-0.2697,3.367
3.360000,1.5662,2.8954,-0.1057,3.294
3.363000,1.4749,2.8483,0.0698,3.208
3.364000,1.3974,2.7851,0.2466,3.126
3.364000,1.3069,2.7104,0.4177,3.038
3.365000,1.2115,2.6126,0.5845,2.939
3.366000,1.1250,2.4938,0.7375,2.834
3.369000,1.0260,2.3206,0.9409,2.706
3.375000,0.6659,1.9161,1.7844,2.702
3.381000,0.3708,1.6297,2.3223,2.861
3.386000,0.5668,1.3759,2.0370,2.523
3.391000,1.0867,1.0173,1.6976,2.258
3.399000,1.6661,0.5342,1.4929,2.300
3.400000,2.1202,-0.0285,1.3812,2.531
3.405000,2.3862,-0.6690,1.3259,2.811
3.412000,2.5611,-1.4201,1.2914,3.201
3.420000,2.7502,-2.1957,1.2401,3.731
3.424000,2.9582,-2.9768,1.1106,4.341
3.426000,3.1520,-3.7847,0.9517,5.016
3.453000,3.3197,-4.6317,0.7753,5.751
3.454000,3.5084,-5.6166,0.4985,6.641
3.455000,3.7563,-6.7706,0.0986,7.743
3.455000,4.0229,-8.0693,-0.3840,9.025
3.456000,4.2634,-9.4760,-0.8946,10.429
3.456000,4.3871,-10.8661,-1.3477,11.796
3.460000,4.2985,-12.1439,-1.6804,12.991
3.465000,3.8696,-13.1603,-1.8280,13.839
3.470000,3.0505,-13.7004,-1.7533,14.145
3.476000,1.9129,-13.6546,-1.5174,13.871
3.479000,0.6405,-13.0311,-1.2215,13.104
3.484000,-0.4968,-11.9762,-0.9505,12.024
3.490000,-1.3129,-10.6649,-0.6796,10.767
3.496000,-1.7110,-9.3277,-0.4279,9.493
3.501000,-1.7171,-8.0904,-0.2075,8.273
3.505000,-1.4121,-7.0626,0.0253,7.202
3.510000,-0.8696,-6.2553,0.3001,6.323
3.515000,-0.1563,-5.6752,0.6836,5.718
3.521000,0.7162,-5.3242,1.1978,5.504
3.525000,1.6910,-5.1490,1.8331,5.721
3.533000,2.7013,-5.0942,2.5321,6.298
3.538000,3.6664,-5.0942,3.2835,7.083
3.541000,4.4773,-5.1239,4.0252,7.906
3.545000,5.0515,-5.1199,4.7338,8.610
3.558000,5.4076,-5.0686,5.4104,9.176
3.559000,5.5213,-4.9730,6.0583,9.587
3.560000,5.3978,-4.8256,6.5797,9.783
3.569000,5.0519,-4.6598,6.8977,9.737
3.571000,4.4943,-4.5205,6.9744,9.449
3.575000,3.7647,-4.4498,6.8302,8.979
3.579000,2.9289,-4.4615,6.4836,8.398
3.585000,2.0587,-4.5293,5.9708,7.772
3.591000,1.1883,-4.6098,5.3104,7.132
3.596000,0.3381,-4.6782,4.5669,6.546
3.600000,-0.5125,-4.7120,3.7973,6.073
3.606000,-1.3798,-4.7014,3.0363,5.764
3.611000,-2.2478,-4.6394,2.3321,5.658
3.615000,-3.0875,-4.5113,1.6952,5.723
3.621000,-3.8792,-4.3495,1.1171,5.934
3.626000,-4.5726,-4.1412,0.6035,6.199
3.631000,-5.1726,-3.8959,0.1499,6.477
3.635000,-5.6596,-3.6288,-0.2472,6.728
3.639000,-5.7472,-3.2566,-0.6353,6.636
3.662000,-5.8503,-2.9547,-0.8584,6.610
3.664000,-6.0982,-2.7613,-0.8956,6.754
3.664000,-6.3523,-2.6211,-0.9346,6.935
3.665000,-6.6384,-2.5500,-0.9107,7.169
3.665000,-6.9403,-2.5027,-0.8605,7.428
3.670000,-7.2002,-2.4356,-0.7964,7.643
3.675000,-7.4208,-2.3342,-0.7281,7.813
3.680000,-7.5640,-2.1818,-0.6250,7.897
3.685000,-7.6201,-1.9636,-0.4723,7.883
3.690000,-7.4940,-1.6972,-0.2897,7.689
3.696000,-7.2940,-1.4385,-0.1153,7.435
3.700000,-7.1257,-1.2287,0.0534,7.231
3.705000,-7.0278,-1.0372,0.2020,7.107
3.710000,-6.9786,-0.8594,0.3574,7.040
3.716000,-6.9593,-0.7101,0.5024,7.013
3.720000,-6.9650,-0.5845,0.6084,7.016
3.725000,-7.0267,-0.4967,0.6707,7.076
3.740000,-7.1157,-0.4394,0.6583,7.160
3.742000,-7.2272,-0.4172,0.5841,7.263
3.742000,-7.3417,-0.3963,0.4411,7.366
3.746000,-7.4475,-0.3669,0.2465,7.461
3.787000,-7.5181,-0.3553,0.0055,7.526
3.790000,-7.5535,-0.3158,-0.2604,7.565
3.790000,-7.5347,-0.2751,-0.5581,7.560
3.792000,-7.4547,-0.2070,-0.8540,7.506
3.793000,-7.3279,-0.1594,-1.1532,7.420
3.793000,-7.1781,-0.1180,-1.4293,7.320
3.795000,-7.0054,-0.1041,-1.6586,7.200
3.796000,-6.7931,-0.1087,-1.8368,7.038
3.797000,-6.5555,-0.1127,-1.9691,6.846
3.798000,-6.2713,-0.1355,-2.0678,6.605
3.801000,-5.9813,-0.1488,-2.1474,6.357
3.805000,-5.6806,-0.1551,-2.1912,6.091
3.810000,-5.3888,-0.1672,-2.2161,5.829
3.816000,-5.1083,-0.1827,-2.2100,5.569
3.821000,-4.8414,-0.1971,-2.1584,5.304
3.825000,-4.5931,-0.2369,-2.0854,5.050
3.835000,-4.3393,-0.2639,-2.0002,4.785
3.837000,-4.0997,-0.2645,-1.8936,4.524
3.840000,-3.8813,-0.2507,-1.7487,4.264
3.865000,-3.6842,-0.2682,-1.6014,4.026
3.866000,-3.4724,-0.3074,-1.4638,3.781
3.867000,-3.2627,-0.3514,-1.3117,3.534
3.867000,-3.0699,-0.4131,-1.1124,3.291
3.867000,-2.9057,-0.4778,-0.8953,3.078
3.870000,-2.7724,-0.5336,-0.6725,2.902
3.875000,-2.6724,-0.5734,-0.4613,2.772
3.881000,-2.5817,-0.5921,-0.2399,2.660
3.887000,-2.5172,-0.5999,-0.0282,2.588
3.891000,-2.4597,-0.5966,0.1931,2.538
3.896000,-2.4306,-0.6036,0.4213,2.540
3.901000,-2.4156,-0.6352,0.6610,2.584
3.907000,-2.4238,-0.6670,0.9124,2.674
3.911000,-2.4676,-0.7066,1.1604,2.817
3.916000,-2.5250,-0.7487,1.4217,2.993
3.921000,-2.5792,-0.7645,1.6673,3.165
3.926000,-2.6324,-0.7586,1.9138,3.342
3.935000,-2.6867,-0.7688,2.1418,3.521
3.937000,-2.7327,-0.7832,2.3674,3.699
3.940000,-2.7532,-0.7656,2.6120,3.872
3.973000,-2.7268,-0.7302,2.8393,4.004
3.975000,-2.6823,-0.6795,3.0397,4.110
3.975000,-2.6265,-0.6013,3.2323,4.208
3.977000,-2.5554,-0.5011,3.4121,4.292
3.980000,-2.4805,-0.3809,3.5837,4.375
3.982000,-2.4043,-0.2719,3.7423,4.456
3.982000,-2.2958,-0.1764,3.8565,4.492
3.983000,-2.1358,-0.1089,3.9361,4.480
3.986000,-1.9192,-0.0976,3.9646,4.406
3.991000,-1.6493,-0.1768,3.9325,4.268
3.998000,-1.2997,-0.3224,3.8543,4.080
4.001000,-0.8781,-0.5061,3.7277,3.863
4.007000,-0.4517,-0.7807,3.5670,3.679
4.012000,-0.0517,-1.1221,3.4008,3.582
4.017000,0.3023,-1.5164,3.2385,3.589
4.021000,0.6033,-1.9419,3.0582,3.673
4.027000,0.8707,-2.3457,2.8550,3.796
4.031000,1.1241,-2.7228,2.6246,3.945
4.036000,1.3844,-3.0620,2.3581,4.105
4.042000,1.6469,-3.3584,2.0968,4.288
4.049000,1.8900,-3.6576,1.8193,4.501
4.053000,2.2044,-4.0267,1.4881,4.826
4.056000,2.5878,-4.4705,1.1041,5.282
4.060000,3.0545,-5.0295,0.7157,5.928
4.088000,3.4575,-5.6542,0.3837,6.639
4.090000,3.8091,-6.3418,0.1032,7.399
4.091000,4.1478,-7.0131,-0.2807,8.153
4.092000,4.3423,-7.5246,-0.6687,8.713
4.092000,4.3387,-7.8830,-0.9528,9.048
4.092000,4.1012,-8.0502,-1.1158,9.103
4.100000,3.7538,-8.0110,-1.1797,8.925
4.101000,3.4317,-7.7528,-1.1613,8.558
4.106000,3.3077,-7.2947,-1.0462,8.078
4.111000,3.3771,-6.7301,-0.8276,7.575
4.117000,3.6168,-6.1534,-0.4700,7.153
4.121000,3.9733,-5.6153,0.0183,6.879
4.126000,4.3719,-5.1401,0.6144,6.776
4.131000,4.8092,-4.7400,1.2831,6.873
4.136000,5.2613,-4.3886,1.9723,7.130
4.141000,5.7383,-4.0510,2.6273,7.499
4.152000,6.2187,-3.7414,3.1963,7.930
4.154000,6.6681,-3.4529,3.6371,8.344
4.157000,7.0718,-3.2121,3.9344,8.707
4.161000,7.4416,-2.9973,4.0705,8.996
4.196000,7.7477,-2.8403,4.0097,9.174
4.198000,7.9590,-2.7029,3.7614,9.209
4.199000,8.0946,-2.5542,3.3644,9.130
4.200000,8.1497,-2.4039,2.8173,8.952
4.201000,8.1125,-2.2474,2.1471,8.688
4.202000,7.9657,-2.0899,1.3752,8.349
4.202000,7.7050,-1.9505,0.5651,7.968
4.203000,7.3284,-1.8075,-0.2601,7.552
4.207000,6.8819,-1.6369,-1.0894,7.157
4.212000,6.3685,-1.4216,-1.8975,6.795
4.218000,5.8218,-1.1637,-2.6317,6.494
4.221000,5.2689,-0.8510,-3.2840,6.267
4.227000,4.7367,-0.5070,-3.8487,6.124
4.232000,4.2619,-0.1429,-4.3330,6.079
4.237000,3.8183,0.2581,-4.7398,6.092
4.241000,3.4207,0.6632,-5.0739,6.155
4.248000,3.0626,1.0680,-5.3518,6.258
4.252000,2.7398,1.4873,-5.5682,6.381
4.256000,2.4934,1.8952,-5.6992,6.503
4.262000,2.3139,2.2897,-5.7297,6.590
4.272000,2.2087,2.6829,-5.6748,6.654
4.274000,2.1705,3.0508,-5.5396,6.686
4.279000,2.2253,3.3528,-5.3532,6.697
4.318000,2.3324,3.5985,-5.1260,6.683
4.320000,2.4906,3.7612,-4.8842,6.649
4.321000,2.6782,3.8744,-4.6356,6.609
4.321000,2.8802,3.9617,-4.3904,6.578
4.322000,3.0578,4.0347,-4.1416,6.541
4.322000,3.2036,4.0792,-3.8995,6.489
4.323000,3.3094,4.1351,-3.6738,6.446
4.324000,3.3538,4.1764,-3.4576,6.375
4.325000,3.3654,4.2100,-3.2609,6.299
4.326000,3.3537,4.2430,-3.0888,6.228
4.332000,3.3213,4.2731,-2.9273,6.153
4.338000,3.2723,4.2976,-2.7812,6.076
4.342000,3.2401,4.3643,-2.6390,6.042
4.347000,3.2126,4.4181,-2.5007,6.008
4.352000,3.1777,4.4972,-2.3596,5.991
4.358000,3.1543,4.5966,-2.2302,6.004
4.362000,3.1494,4.6996,-2.1081,6.037
4.367000,3.1482,4.7844,-2.0076,6.069
4.372000,3.1603,4.8630,-1.9241,6.110
4.376000,3.1976,4.9043,-1.8696,6.146
4.382000,3.2576,4.9228,-1.8321,6.181
4.387000,3.3161,4.9256,-1.8113,6.208
4.391000,3.3827,4.9246,-1.8048,6.241
4.414000,3.4498,4.9102,-1.8171,6.270
4.415000,3.4962,4.8970,-1.8121,6.284
4.415000,3.5311,4.8656,-1.8016,6.276
4.416000,3.5381,4.8114,-1.7880,6.234
4.416000,3.4982,4.7105,-1.7974,6.137
4.423000,3.4237,4.6038,-1.8079,6.015
4.427000,3.3293,4.4771,-1.8196,5.869
4.432000,3.2392,4.3519,-1.8345,5.727
4.439000,3.1366,4.2355,-1.8310,5.580
4.442000,3.0199,4.1208,-1.8141,5.421
4.447000,2.9082,3.9911,-1.7764,5.248
4.453000,2.7969,3.8704,-1.7278,5.078
4.459000,2.6695,3.7633,-1.6659,4.906
4.463000,2.5379,3.6628,-1.5977,4.734
4.467000,2.4027,3.6000,-1.5046,4.582
4.472000,2.2686,3.5748,-1.3937,4.457
4.477000,2.1261,3.5775,-1.2701,4.351
4.482000,1.9802,3.5651,-1.1460,4.236
4.487000,1.8354,3.5328,-1.0213,4.110
4.492000,1.6904,3.4831,-0.9109,3.977
4.524000,1.5686,3.4543,-0.8123,3.880
4.525000,1.4463,3.4440,-0.7087,3.802
4.526000,1.2993,3.4591,-0.5882,3.742
4.526000,1.1489,3.4972,-0.4557,3.709
4.527000,0.9864,3.5274,-0.3044,3.675
4.529000,0.8305,3.5590,-0.1584,3.658
4.530000,0.6956,3.5849,-0.0250,3.652
4.535000,0.5982,3.5906,0.0932,3.641
4.537000,0.4998,3.5663,0.2083,3.607
4.542000,0.3842,3.5124,0.3341,3.549
4.547000,0.2703,3.4071,0.4417,3.446
4.552000,0.1511,3.2651,0.5097,3.308
4.557000,0.0243,3.1077,0.5522,3.157
4.563000,-0.1126,2.9661,0.5815,3.025
4.567000,-0.2587,2.8288,0.6260,2.909
4.581000,-0.5145,2.6024,0.6880,2.741
4.582000,-0.5738,2.5645,0.6959,2.718
4.582000,-0.7328,2.4281,0.7213,2.637
4.588000,-0.9009,2.2770,0.7333,2.556
4.593000,-1.0532,2.1404,0.7342,2.496
4.599000,-1.1636,1.9776,0.7220,2.405
4.602000,-1.2274,1.7958,0.6753,2.278
4.607000,-1.2351,1.5592,0.6206,2.084
4.634000,-1.1800,1.2677,0.5511,1.817
4.635000,-1.0258,0.9051,0.4573,1.442
4.635000,-0.7686,0.4733,0.3230,0.959
4.636000,-0.4257,-0.0255,0.1819,0.464
4.636000,-0.0047,-0.6177,0.0175,0.618
4.637000,0.4577,-1.2725,-0.1485,1.360
4.642000,0.9497,-1.9588,-0.3349,2.202
4.647000,1.4278,-2.6265,-0.5318,3.036
4.652000,1.8821,-3.2806,-0.7290,3.852
4.658000,2.3128,-3.8902,-0.9093,4.616
4.664000,2.7049,-4.4579,-1.0482,5.319
4.668000,3.0691,-5.0239,-1.1101,5.991
4.673000,3.4173,-5.5572,-1.1163,6.619
4.681000,3.7614,-6.0578,-1.0527,7.208
4.682000,4.0589,-6.5186,-0.9436,7.737
4.687000,4.2639,-6.9303,-0.8200,8.178
4.692000,4.3610,-7.2754,-0.6826,8.510
4.699000,4.3576,-7.5325,-0.5481,8.719
4.706000,4.2685,-7.7277,-0.4336,8.839
4.707000,4.1567,-7.8558,-0.3295,8.894
4.756000,4.0554,-7.9217,-0.2525,8.903
4.759000,3.9800,-7.9343,-0.1813,8.878
4.760000,3.9442,-7.9084,-0.1207,8.838
4.760000,3.9550,-7.8394,-0.0418,8.781
4.761000,3.9976,-7.7518,0.0692,8.722
4.762000,4.0521,-7.6295,0.2051,8.641
4.762000,4.1093,-7.5058,0.3672,8.565
4.763000,4.1468,-7.3673,0.5549,8.472
4.764000,4.1714,-7.2552,0.7581,8.403
4.765000,4.1638,-7.1913,0.9806,8.367
4.766000,4.1330,-7.1932,1.2075,8.383
4.768000,4.0536,-7.2360,1.4207,8.415
4.773000,3.9083,-7.2821,1.6149,8.421
4.778000,3.6689,-7.3026,1.7802,8.364
4.783000,3.3667,-7.2878,1.9139,8.253
4.787000,2.9873,-7.2525,1.9967,8.094
4.794000,2.5417,-7.1855,2.0427,7.891
4.801000,2.0419,-7.0917,2.0595,7.662
4.803000,1.4958,-6.9919,2.0689,7.443
4.807000,0.9494,-6.8664,2.0350,7.224
4.817000,0.4028,-6.6983,1.9608,6.991
4.821000,-0.1167,-6.5027,1.8756,6.769
4.832000,-0.6617,-6.2869,1.7894,6.570
4.832000,-1.2201,-6.0672,1.7216,6.424
4.833000,-1.7556,-5.8382,1.6628,6.319
4.847000,-2.2898,-5.5855,1.6084,6.247
4.849000,-2.8029,-5.2886,1.5424,6.181
4.849000,-3.3025,-4.9575,1.4648,6.134
4.853000,-3.7860,-4.5775,1.3714,6.097
4.858000,-4.2343,-4.1771,1.2726,6.083
4.862000,-4.6336,-3.7543,1.2017,6.083
4.868000,-4.9859,-3.3226,1.1310,6.097
4.873000,-5.2916,-2.9062,1.0679,6.131
4.879000,-5.5509,-2.5245,1.0103,6.181
4.883000,-5.7593,-2.1653,0.9609,6.228
4.887000,-5.9100,-1.8624,0.9248,6.265
4.892000,-6.0197,-1.6036,0.8975,6.294
4.899000,-6.1102,-1.3652,0.8742,6.322
4.903000,-6.1698,-1.1450,0.8546,6.333
4.908000,-6.2036,-0.9338,0.8529,6.331
4.916000,-6.2356,-0.7176,0.8352,6.332
4.919000,-6.2468,-0.4939,0.8236,6.320
4.923000,-6.2208,-0.2631,0.7916,6.276
4.940000,-6.2007,-0.0663,0.7442,6.246
4.942000,-6.1845,0.0964,0.6744,6.222
4.943000,-6.1508,0.2295,0.6086,6.185
4.944000,-6.1307,0.3355,0.5280,6.163
5.003000,-6.0933,0.4117,0.4516,6.124
5.004000,-6.0553,0.4582,0.3600,6.083
5.005000,-6.0071,0.4919,0.2629,6.033
5.005000,-5.9703,0.5149,0.1646,5.995
5.006000,-5.9329,0.5298,0.0650,5.957
5.006000,-5.8997,0.5555,-0.0504,5.926
5.006000,-5.8610,0.5731,-0.1937,5.892
5.007000,-5.8170,0.5871,-0.3336,5.856
5.007000,-5.7701,0.6001,-0.4800,5.821
5.008000,-5.7298,0.6214,-0.6420,5.799
5.008000,-5.6817,0.6272,-0.8103,5.773
5.009000,-5.6428,0.6342,-0.9942,5.765
5.009000,-5.5723,0.6091,-1.1981,5.732
5.014000,-5.4894,0.5591,-1.4144,5.696
5.019000,-5.4037,0.4794,-1.6331,5.665
5.023000,-5.2961,0.3823,-1.8347,5.618
5.030000,-5.1594,0.2988,-2.0237,5.550
5.034000,-5.0105,0.2027,-2.1738,5.465
5.039000,-4.8659,0.1060,-2.2802,5.375
5.043000,-4.7042,0.0206,-2.3505,5.259
5.053000,-4.5491,-0.0439,-2.3876,5.138
5.055000,-4.3910,-0.0898,-2.3658,4.989
5.058000,-4.2202,-0.0984,-2.2884,4.802
5.089000,-4.0414,-0.0768,-2.1611,4.584
5.090000,-3.8550,-0.0355,-2.0089,4.347
5.091000,-3.6728,-0.0248,-1.8636,4.119
5.091000,-3.4856,-0.0666,-1.7519,3.902
5.093000,-3.3221,-0.1420,-1.6785,3.725
5.093000,-3.1633,-0.2462,-1.6318,3.568
5.094000,-3.0429,-0.3776,-1.5806,3.450
5.099000,-2.9872,-0.5405,-1.5561,3.411
5.103000,-3.0104,-0.7325,-1.5392,3.459
5.108000,-3.1262,-0.8957,-1.5586,3.606
5.113000,-3.3008,-1.0555,-1.5923,3.814
5.122000,-3.5171,-1.1926,-1.6350,4.058
5.123000,-3.7386,-1.2844,-1.6696,4.291
5.128000,-3.9268,-1.3378,-1.6955,4.482
5.137000,-4.0886,-1.3619,-1.7099,4.636
5.142000,-4.2286,-1.3825,-1.7384,4.776
5.143000,-4.3159,-1.3475,-1.7585,4.851
5.181000,-4.3434,-1.2637,-1.7531,4.851
5.182000,-4.3112,-1.1270,-1.7409,4.784
5.182000,-4.2437,-0.9685,-1.6905,4.670
5.183000,-4.1525,-0.8050,-1.5994,4.522
5.183000,-4.0409,-0.6041,-1.4607,4.339
5.183000,-3.9087,-0.3922,-1.3318,4.148
5.184000,-3.7611,-0.1841,-1.1984,3.952
5.184000,-3.6103,-0.0041,-1.0558,3.762
5.190000,-3.4443,0.1694,-0.9065,3.566
5.194000,-3.2708,0.3283,-0.7794,3.378
5.200000,-3.0972,0.4582,-0.6745,3.203
5.204000,-2.9189,0.5541,-0.5992,3.031
5.209000,-2.7599,0.6157,-0.5317,2.877
5.214000,-2.6105,0.6434,-0.4674,2.729
5.220000,-2.4832,0.6197,-0.4376,2.596
5.224000,-2.3775,0.5404,-0.4351,2.477
5.232000,-2.3030,0.4273,-0.4215,2.380
5.234000,-2.2592,0.3044,-0.3778,2.311
5.239000,-2.2791,0.1057,-0.2993,2.301
5.244000,-2.3887,-0.1880,-0.1697,2.402
5.255000,-2.2955,-0.1958,-0.0108,2.304
5.259000,-2.1319,-0.1027,0.1299,2.138
5.261000,-1.9173,0.0575,0.3244,1.945
5.299000,-1.6614,0.2509,0.5773,1.777
5.300000,-1.4057,0.4170,0.8878,1.714
5.301000,-1.1501,0.4505,1.1931,1.717
5.301000,-0.8731,0.3492,1.4356,1.716
5.302000,-0.5535,0.1705,1.5894,1.692
5.302000,-0.1555,-0.0328,1.6479,1.656
5.302000,0.3415,-0.2424,1.6710,1.723
5.303000,0.9323,-0.4776,1.6852,1.984
5.304000,1.5496,-0.7480,1.7499,2.454
5.310000,2.1141,-1.0947,1.8714,3.028
5.314000,2.5946,-1.5318,1.9798,3.605
5.318000,3.0100,-2.0047,2.0289,4.147
5.324000,3.3842,-2.4462,2.0238,4.640
5.330000,3.7941,-2.8035,1.9649,5.110
5.333000,4.1963,-3.1268,1.8813,5.561
5.339000,4.5696,-3.4710,1.7782,6.008
5.343000,4.9730,-3.8199,1.6079,6.474
5.349000,5.3778,-4.2355,1.3425,6.976
5.354000,5.7620,-4.7036,1.0236,7.508
5.358000,6.0894,-5.2053,0.7144,8.043
5.384000,6.3052,-5.6900,0.4536,8.505
5.385000,6.3117,-6.1625,0.2362,8.824
5.386000,6.0383,-6.5647,0.1151,8.920
5.386000,5.5319,-6.7978,0.1021,8.765
5.387000,4.9046,-6.8224,0.2280,8.405
5.389000,4.1983,-6.6547,0.4942,7.884
5.394000,3.5029,-6.3848,0.8810,7.336
5.399000,2.8884,-6.0387,1.3343,6.826
5.404000,2.4126,-5.6735,1.8442,6.435
5.409000,2.1237,-5.2819,2.4122,6.183
5.413000,2.0042,-4.9047,3.0182,6.098
5.419000,2.0253,-4.5636,3.6275,6.171
5.423000,2.1573,-4.2472,4.2142,6.360
5.432000,2.3735,-3.9414,4.7224,6.593
5.433000,2.6731,-3.6417,5.1440,6.846
5.439000,2.9955,-3.3607,5.4735,7.087
5.444000,3.2783,-3.1199,5.6789,7.262
5.449000,3.5088,-2.9105,5.7478,7.336
5.454000,3.8088,-2.5771,5.6824,7.310
5.459000,3.9813,-2.3356,5.3560,7.071
5.472000,4.0387,-2.1215,4.8823,6.682
5.474000,3.9886,-1.9440,4.3152,6.189
5.477000,3.9171,-1.7316,3.7116,5.667
5.479000,3.8436,-1.4771,3.0414,5.119
5.514000,3.7082,-1.2668,2.3180,4.553
5.516000,3.6329,-0.9905,1.6218,4.100
5.516000,3.6057,-0.6270,0.9321,3.777
5.517000,3.5895,-0.2392,0.2625,3.607
5.517000,3.5482,0.1563,-0.3622,3.570
5.517000,3.4841,0.5571,-0.9077,3.643
5.518000,3.4139,0.9655,-1.3829,3.808
5.519000,3.3450,1.3915,-1.7805,4.037
5.524000,3.2647,1.8229,-2.0898,4.284
5.531000,3.1951,2.2407,-2.3229,4.541
5.534000,3.1193,2.6309,-2.4725,4.771
5.539000,3.0303,2.9673,-2.5555,4.952
5.545000,2.9310,3.2671,-2.5839,5.093
5.550000,2.8260,3.5279,-2.5575,5.194
5.555000,2.7276,3.7476,-2.4790,5.256
5.560000,2.6312,3.9311,-2.3248,5.271
5.566000,2.5488,4.0785,-2.1169,5.255
5.570000,2.4950,4.1995,-1.8726,5.231
5.608000,2.3569,4.3513,-1.3005,5.117
5.609000,2.3858,4.3616,-1.3080,5.141
5.609000,2.3543,4.3908,-1.0029,5.082
5.610000,2.3483,4.3861,-0.7162,5.026
5.610000,2.3629,4.3593,-0.4506,4.979
5.610000,2.3928,4.2887,-0.2234,4.916
5.610000,2.4186,4.2029,-0.0589,4.850
5.611000,2.4282,4.1257,0.0739,4.788
5.620000,2.4070,4.0713,0.1774,4.733
5.621000,2.3622,4.0612,0.2393,4.704
5.625000,2.2934,4.0689,0.2694,4.678
5.629000,2.2172,4.1061,0.2750,4.675
5.635000,2.1384,4.1467,0.2536,4.672
5.640000,2.0592,4.1665,0.2223,4.653
5.644000,1.9868,4.1634,0.1735,4.616
5.650000,1.9283,4.1300,0.1268,4.560
5.654000,1.8837,4.0759,0.0632,4.491
5.659000,1.8530,3.9991,0.0066,4.408
5.666000,1.8413,3.8898,-0.0549,4.304
5.671000,1.8270,3.7746,-0.1189,4.195
5.674000,1.7962,3.6488,-0.1898,4.071
5.714000,1.7491,3.5103,-0.2722,3.931
5.715000,1.7097,3.3757,-0.3734,3.802
5.715000,1.6784,3.2693,-0.4641,3.704
5.715000,1.6765,3.1981,-0.5395,3.651
5.716000,1.6374,3.1073,-0.5995,3.563
5.716000,1.5758,3.0663,-0.6106,3.501
5.716000,1.5253,3.0512,-0.5872,3.461
5.716000,1.4739,3.0572,-0.5655,3.441
5.720000,1.4243,3.0772,-0.5286,3.432
5.724000,1.3978,3.1112,-0.4815,3.445
5.730000,1.3825,3.1637,-0.4270,3.479
5.734000,1.3734,3.2228,-0.3793,3.524
5.739000,1.3654,3.2857,-0.3532,3.576
5.744000,1.3562,3.3407,-0.3318,3.621
5.750000,1.3314,3.3780,-0.3200,3.645
5.754000,1.2765,3.3833,-0.3226,3.630
5.761000,1.2250,3.3827,-0.3540,3.615
5.767000,1.1840,3.3835,-0.3853,3.605
5.769000,1.1633,3.3977,-0.4405,3.618
5.775000,1.1385,3.4155,-0.5050,3.636
5.786000,1.1143,3.4272,-0.5549,3.646
5.788000,1.0597,3.4257,-0.5803,3.633
5.791000,0.9674,3.4014,-0.6390,3.594
5.794000,0.8446,3.3254,-0.7137,3.504
5.830000,0.7019,3.2607,-0.7662,3.422
5.831000,0.5392,3.2095,-0.8109,3.354
5.832000,0.3761,3.1625,-0.8547,3.297
5.832000,0.2130,3.1223,-0.8955,3.255
5.832000,0.0499,3.0914,-0.9234,3.227
5.833000,-0.1145,3.0608,-0.9267,3.200
5.833000,-0.2899,3.0161,-0.9247,3.168
5.835000,-0.4496,2.9719,-0.9006,3.138
5.840000,-0.6007,2.9260,-0.8714,3.112
5.845000,-0.7167,2.8904,-0.8465,3.096
5.850000,-0.7852,2.8942,-0.7902,3.101
5.855000,-0.7948,2.9157,-0.6999,3.102
5.860000,-0.7792,2.9473,-0.5567,3.099
5.866000,-0.7365,2.9697,-0.3847,3.084
5.870000,-0.6719,2.9945,-0.1963,3.075
5.875000,-0.5732,2.9908,-0.0226,3.045
5.882000,-0.4313,2.9344,0.1457,2.970
5.885000,-0.2443,2.8418,0.2941,2.867
5.890000,-0.0053,2.6937,0.4034,2.724
5.896000,0.2801,2.4489,0.4855,2.512
5.901000,0.5952,2.0693,0.5309,2.218
5.905000,0.9180,1.5594,0.5563,1.893
5.909000,1.2149,0.9145,0.5661,1.623
5.939000,1.5053,0.1660,0.5340,1.606
5.940000,1.7868,-0.6503,0.4430,1.952
5.941000,2.0795,-1.5359,0.2649,2.599
5.941000,2.3973,-2.4598,0.0340,3.435
5.942000,2.7262,-3.3787,-0.2133,4.347
5.942000,3.0463,-4.2737,-0.4378,5.267
5.950000,3.3465,-5.0966,-0.6250,6.129
5.952000,3.5861,-5.8473,-0.7674,6.902
5.955000,3.7605,-6.5090,-0.8526,7.565
5.960000,3.8987,-7.1008,-0.8804,8.148
5.965000,3.9888,-7.6156,-0.8267,8.637
5.970000,4.0171,-8.0672,-0.6985,9.039
5.980000,3.9644,-8.4366,-0.4938,9.335
5.982000,3.8290,-8.6758,-0.2200,9.486
5.986000,3.5849,-8.7534,0.0937,9.460
5.991000,3.2494,-8.6290,0.4278,9.230
5.995000,2.8545,-8.2755,0.7649,8.787
6.000000,2.4622,-7.7342,1.1141,8.193
6.006000,2.1108,-7.0675,1.4531,7.518
6.011000,1.8527,-6.3547,1.7573,6.849
6.016000,1.7279,-5.6753,2.0217,6.268
6.020000,1.7379,-5.1066,2.2603,5.849
6.025000,1.8606,-4.6870,2.4723,5.616
6.052000,2.0927,-4.4556,2.6837,5.607
6.053000,2.3737,-4.4226,2.8793,5.787
6.053000,2.6647,-4.5524,3.0274,6.082
6.054000,2.9102,-4.7690,3.1083,6.393
6.054000,3.0507,-5.0197,3.1119,6.647
6.055000,3.0789,-5.2498,3.0119,6.791
6.060000,2.9833,-5.4449,2.8276,6.822
6.065000,2.7739,-5.5879,2.5427,6.737
6.070000,2.4797,-5.7005,2.1772,6.587
6.075000,2.1161,-5.7479,1.7661,6.375
6.080000,1.7024,-5.7491,1.3365,6.143
6.086000,1.2677,-5.7204,0.8919,5.927
6.090000,0.7910,-5.6540,0.4454,5.726
6.095000,0.3154,-5.5474,0.0170,5.556
6.101000,-0.1463,-5.3585,-0.3635,5.373
6.106000,-0.6014,-5.1066,-0.7004,5.189
6.111000,-1.0640,-4.7816,-0.9694,4.994
6.115000,-1.4790,-4.4217,-1.1656,4.806
6.120000,-1.8657,-4.0220,-1.2962,4.619
6.125000,-2.2046,-3.5962,-1.3780,4.437
6.147000,-2.5101,-3.1779,-1.3942,4.283
6.148000,-2.7632,-2.7719,-1.3693,4.147
6.148000,-2.9640,-2.3973,-1.2866,4.023
6.149000,-3.1010,-2.0449,-1.1656,3.893
6.151000,-3.1573,-1.7359,-0.9875,3.736
6.155000,-3.1622,-1.4663,-0.7721,3.570
6.160000,-3.1207,-1.2171,-0.5245,3.390
6.165000,-3.0523,-1.0058,-0.2646,3.225
6.170000,-2.9743,-0.8234,-0.0310,3.086
6.175000,-2.9080,-0.6556,0.1878,2.987
6.180000,-2.8493,-0.4910,0.3701,2.915
6.185000,-2.8053,-0.3515,0.5253,2.876
6.190000,-2.8001,-0.2446,0.6437,2.884
6.196000,-2.8578,-0.1658,0.7465,2.958
6.201000,-2.9588,-0.0932,0.8120,3.070
6.205000,-3.1054,-0.0365,0.8351,3.216
6.210000,-3.2688,-0.0072,0.8040,3.366
6.216000,-3.4296,0.0021,0.7502,3.511
6.220000,-3.6284,-0.0088,0.6760,3.691
6.225000,-3.8481,-0.0029,0.5817,3.892
6.246000,-4.0886,-0.0068,0.4864,4.117
6.246000,-4.3402,0.0277,0.3592,4.355
6.246000,-4.3588,0.0555,0.2244,4.365
6.246000,-4.8548,0.0840,0.0798,4.856
6.252000,-5.0787,0.0950,-0.0599,5.080
6.256000,-5.2701,0.1363,-0.2016,5.276
6.261000,-5.4193,0.2080,-0.3524,5.435
6.265000,-5.5290,0.2743,-0.5217,5.560
6.270000,-5.5969,0.3660,-0.6898,5.651
6.275000,-5.6326,0.4572,-0.8567,5.716
6.280000,-5.6292,0.5642,-1.0413,5.752
6.285000,-5.5868,0.6558,-1.2146,5.755
6.290000,-5.5368,0.7200,-1.4122,5.759
6.295000,-5.4555,0.7756,-1.6077,5.740
6.300000,-5.3596,0.8155,-1.7984,5.712
6.306000,-5.2614,0.8370,-1.9889,5.687
6.311000,-5.1633,0.8281,-2.1696,5.661
6.316000,-5.0797,0.8031,-2.3357,5.648
6.320000,-5.0059,0.7619,-2.4944,5.645
6.325000,-4.9752,0.6808,-2.6458,5.676
6.331000,-4.9660,0.5696,-2.7804,5.720
6.336000,-4.9756,0.4476,-2.9174,5.785
6.341000,-5.0089,0.3173,-3.0424,5.869
6.383000,-5.0656,0.1791,-3.1290,5.957
6.384000,-5.1383,0.0167,-3.1727,6.039
6.384000,-5.2316,-0.1505,-3.1571,6.112
6.384000,-5.3427,-0.3149,-3.1160,6.193
6.385000,-5.4475,-0.4762,-3.0305,6.252
6.385000,-5.5341,-0.6150,-2.9174,6.286
6.385000,-5.6117,-0.7215,-2.7677,6.299
6.385000,-5.6564,-0.7981,-2.5834,6.269
6.386000,-5.6612,-0.8521,-2.3553,6.191
6.390000,-5.6499,-0.8812,-2.1143,6.097
6.396000,-5.6251,-0.9091,-1.8653,5.996
6.401000,-5.5865,-0.9362,-1.6088,5.888
6.407000,-5.5176,-0.9672,-1.3376,5.759
6.412000,-5.4302,-1.0237,-1.0665,5.628
6.416000,-5.3196,-1.1056,-0.8170,5.494
6.420000,-5.2001,-1.2057,-0.5771,5.369
6.426000,-5.0764,-1.3338,-0.3307,5.259
6.431000,-4.9676,-1.4800,-0.0827,5.184
6.435000,-4.8735,-1.6350,0.1427,5.142
6.440000,-4.7917,-1.7672,0.3524,5.119
6.461000,-4.7193,-1.8669,0.5755,5.108
6.462000,-4.6518,-1.9296,0.8093,5.101
6.462000,-4.5913,-1.9862,1.0514,5.112
6.463000,-4.5351,-2.0339,1.2831,5.133
6.467000,-4.4665,-2.0681,1.5025,5.146
6.472000,-4.3755,-2.1025,1.7339,5.155
6.477000,-4.2504,-2.1378,1.9939,5.159
6.481000,-4.0644,-2.1545,2.2587,5.125
6.488000,-3.7938,-2.1575,2.5472,5.053
6.492000,-3.4075,-2.1304,2.8331,4.917
6.496000,-2.9319,-2.0998,3.1018,4.757
6.502000,-2.3585,-2.0744,3.3693,4.606
6.506000,-1.6874,-2.0809,3.6183,4.502
6.511000,-0.9672,-2.1419,3.8386,4.501
6.518000,-0.2296,-2.2198,4.0151,4.594
6.521000,0.4942,-2.3364,4.1568,4.794
6.526000,1.1955,-2.4815,4.2558,5.069
6.539000,1.8575,-2.6074,4.3021,5.363
6.541000,2.4606,-2.7172,4.2740,5.631
6.543000,2.9804,-2.8135,4.1879,5.860
6.586000,3.4411,-2.9035,4.0484,6.055
6.586000,3.8847,-3.0239,3.8653,6.259
6.587000,4.3231,-3.2082,3.6459,6.502
6.587000,4.7369,-3.4637,3.3980,6.781
6.587000,5.1115,-3.7974,3.1076,7.086
6.588000,5.4041,-4.2115,2.7346,7.377
6.588000,5.4323,-5.5624,1.4600,7.911
6.589000,5.4674,-5.5141,1.4235,7.895
6.589000,5.5001,-5.4691,1.3859,7.879
6.592000,5.1585,-5.7874,0.9245,7.808
6.597000,4.6332,-6.0006,0.4711,7.596
6.602000,4.0020,-6.0885,0.0678,7.286
6.606000,3.3335,-6.0450,-0.2514,6.908
6.611000,2.7535,-5.8616,-0.4740,6.493
6.618000,2.3465,-5.5497,-0.5803,6.053
6.622000,2.1989,-5.1089,-0.5464,5.589
6.626000,2.3023,-4.5907,-0.3406,5.147
6.632000,2.6344,-4.0243,0.0506,4.810
6.637000,3.1080,-3.4256,0.5972,4.664
6.641000,3.6522,-2.8675,1.2235,4.802
6.681000,4.2259,-2.3723,1.8415,5.184
6.682000,4.8128,-1.9082,2.3830,5.699
6.683000,5.3743,-1.4731,2.7919,6.233
6.683000,5.8355,-1.0821,3.0316,6.664
6.684000,6.2078,-0.7548,3.0899,6.975
6.684000,6.4935,-0.4528,2.9931,7.164
6.684000,6.6940,-0.1459,2.7180,7.226
6.685000,6.8022,0.1446,2.2654,7.171
6.687000,6.8489,0.4164,1.6631,7.060
6.691000,6.8267,0.6695,0.9797,6.929
6.698000,6.7476,0.9091,0.2955,6.815
6.702000,6.6015,1.1422,-0.3473,6.709
6.708000,6.3767,1.3837,-0.9361,6.592
6.712000,6.0615,1.6340,-1.4437,6.442
6.720000,5.6709,1.9005,-1.8770,6.268
6.722000,5.2174,2.1841,-2.2235,6.077
6.727000,4.7305,2.4779,-2.4758,5.886
6.732000,4.2564,2.7899,-2.6436,5.735
6.736000,3.8031,3.0895,-2.7508,5.619
6.742000,3.3903,3.3627,-2.8024,5.537
6.773000,3.0138,3.6221,-2.7771,5.469
6.774000,2.6644,3.8606,-2.6659,5.395
6.774000,2.3786,4.0810,-2.4931,5.341
6.774000,2.1492,4.3119,-2.2595,5.321
6.775000,1.9953,4.5245,-1.9705,5.323
6.775000,1.9193,4.7213,-1.6408,5.354
6.777000,1.9087,4.9040,-1.2786,5.416
6.784000,1.9442,5.0367,-0.9012,5.474
6.787000,2.0179,5.1310,-0.5379,5.540
6.793000,2.1175,5.1816,-0.2201,5.602
6.799000,2.2333,5.1767,0.0496,5.638
6.802000,2.3669,5.1493,0.3016,5.675
6.807000,2.4964,5.1062,0.5285,5.708
6.813000,2.5976,5.0376,0.7037,5.711
6.818000,2.6512,4.9436,0.8296,5.671
6.822000,2.6834,4.8623,0.9303,5.631
6.827000,2.6821,4.7936,1.0033,5.584
6.832000,2.6378,4.7375,1.0631,5.526
6.838000,2.5839,4.6773,1.0861,5.453
6.842000,2.5014,4.6251,1.1058,5.373
6.855000,2.4023,4.5735,1.1033,5.283
6.858000,2.3084,4.4894,1.0690,5.160
6.859000,2.2197,4.3657,1.0250,5.004
6.907000,2.1461,4.2385,0.9665,4.848
6.909000,2.1142,4.0745,0.8986,4.677
6.909000,2.1097,3.8716,0.8361,4.488
6.910000,2.1306,3.6204,0.7931,4.275
6.910000,2.1579,3.3522,0.7792,4.062
6.911000,2.1823,3.1007,0.7941,3.874
6.911000,2.1991,2.8635,0.8090,3.700
6.913000,2.2014,2.6312,0.8236,3.528
6.914000,2.1848,2.4518,0.8496,3.392
6.914000,2.1661,2.3253,0.8798,3.297
6.915000,2.1479,2.2708,0.9426,3.265
6.919000,2.1323,2.2476,1.0018,3.256
6.923000,2.1124,2.2580,1.0671,3.271
6.928000,2.0903,2.3066,1.1285,3.311
6.933000,2.0776,2.3788,1.2006,3.379
6.940000,2.0766,2.4601,1.2833,3.466
6.943000,2.0942,2.5170,1.3597,3.545
6.949000,2.1204,2.5634,1.4515,3.630
6.952000,2.1576,2.5851,1.5391,3.702
6.959000,2.2007,2.5889,1.6415,3.774
6.962000,2.2494,2.5628,1.7417,3.829
6.995000,2.2867,2.5401,1.8419,3.883
6.996000,2.3126,2.4991,1.9370,3.917
6.996000,2.3436,2.4589,2.0340,3.959
6.997000,2.3438,2.4359,2.1159,3.988
6.997000,2.3250,2.4015,2.1777,3.989
6.997000,2.2752,2.3913,2.2170,3.976
6.998000,2.1894,2.3692,2.2002,3.905
7.004000,2.1539,2.3664,2.1493,3.855
7.007000,1.9463,2.3707,2.0620,3.696
7.014000,1.7484,2.3869,1.9531,3.545
7.018000,1.5222,2.3791,1.8179,3.359
7.023000,1.2938,2.3736,1.6761,3.181
7.028000,1.0401,2.3349,1.5113,2.969
7.033000,0.7876,2.2654,1.3403,2.748
7.039000,0.5197,2.1703,1.1540,2.512
7.044000,0.2702,2.0712,0.9717,2.304
7.048000,0.0344,1.9872,0.7813,2.136
7.053000,-0.1919,1.9021,0.6100,2.007
7.060000,-0.3944,1.8280,0.4505,1.924
7.069000,-0.5824,1.7408,0.3100,1.862
7.072000,-0.7774,1.6696,0.1884,1.851
7.073000,-0.9437,1.5925,0.0954,1.854
7.077000,-1.1069,1.4912,0.0383,1.858
7.113000,-1.2360,1.3847,0.0410,1.857
7.115000,-1.3595,1.2444,0.1150,1.847
7.115000,-1.4508,1.1160,0.2427,1.846
7.117000,-1.5413,0.9897,0.3924,1.873
7.119000,-1.6732,0.8637,0.5426,1.960
7.119000,-1.8154,0.7525,0.6665,2.075
7.120000,-1.9581,0.6202,0.7545,2.188
7.120000,-2.0869,0.4862,0.8329,2.299
7.123000,-2.1922,0.3455,0.9132,2.400
7.128000,-2.2855,0.1843,0.9840,2.495
7.134000,-2.3337,0.0287,1.0376,2.554
7.139000,-2.3487,-0.1668,1.0235,2.567
7.144000,-2.3305,-0.4093,0.9137,2.536
7.148000,-2.2770,-0.7372,0.7229,2.500
7.153000,-2.1857,-1.1568,0.4793,2.519
7.159000,-2.0519,-1.6371,0.2215,2.634
7.164000,-1.8877,-2.1466,-0.0454,2.859
7.170000,-1.7052,-2.6852,-0.3231,3.197
7.173000,-1.5069,-3.2172,-0.6018,3.603
7.182000,-1.3025,-3.7346,-0.8751,4.051
7.184000,-1.1089,-4.2446,-1.1187,4.527
7.188000,-0.8878,-4.7589,-1.3201,5.018
7.194000,-0.6514,-5.2750,-1.4862,5.519
7.207000,-0.3902,-5.7498,-1.6480,5.994
7.210000,-0.1117,-6.1496,-1.8332,6.418
7.211000,0.1549,-6.5083,-2.0343,6.821
7.256000,0.4191,-6.8234,-2.2385,7.193
7.259000,0.6782,-7.0926,-2.3928,7.516
7.259000,0.9222,-7.3353,-2.5207,7.811
7.260000,1.1466,-7.5536,-2.6006,8.071
7.260000,1.3464,-7.7357,-2.6467,8.286
7.261000,1.5026,-7.8314,-2.6449,8.401
7.261000,1.6010,-7.8287,-2.5569,8.390
7.262000,1.6658,-7.7229,-2.4095,8.260
7.262000,1.7164,-7.5118,-2.2060,8.015
7.263000,1.7769,-7.2387,-1.9562,7.706
7.264000,1.8542,-6.9186,-1.6991,7.361
7.268000,1.9601,-6.5662,-1.4254,6.999
7.273000,2.0991,-6.2062,-1.1330,6.649
7.280000,2.2256,-5.8750,-0.7897,6.332
7.283000,2.3348,-5.5325,-0.4252,6.020
7.289000,2.4432,-5.2201,-0.0812,5.764
7.294000,2.5317,-4.9404,0.2199,5.556
7.298000,2.5953,-4.6938,0.4753,5.385
7.303000,2.6030,-4.5118,0.6835,5.254
7.309000,2.5668,-4.3563,0.8181,5.122
7.338000,2.4841,-4.2201,0.9119,4.981
7.339000,2.3671,-4.0747,0.9552,4.808
7.340000,2.2229,-3.9202,0.9600,4.608
7.340000,2.0420,-3.7709,0.9231,4.386
7.340000,1.8363,-3.6077,0.8853,4.144
7.341000,1.6105,-3.4620,0.8466,3.911
7.343000,1.3552,-3.3001,0.8497,3.667
7.349000,1.0655,-3.1461,0.8659,3.433
7.353000,0.7489,-2.9925,0.8852,3.209
7.358000,0.4007,-2.8465,0.9123,3.016
7.363000,0.0354,-2.7055,0.9544,2.869
7.368000,-0.3515,-2.5716,1.0041,2.783
7.374000,-0.7576,-2.4590,1.0280,2.771
7.383000,-1.1845,-2.3574,1.0284,2.832
7.385000,-1.6035,-2.2593,1.0126,2.950
7.388000,-2.0261,-2.1618,0.9618,3.115
7.393000,-2.4426,-2.0885,0.8977,3.337
7.425000,-2.8313,-1.9936,0.8108,3.556
7.426000,-3.2085,-1.8978,0.6968,3.792
7.427000,-3.5597,-1.8153,0.5440,4.033
7.427000,-3.9016,-1.7171,0.3504,4.277
7.427000,-4.2271,-1.6101,0.1216,4.525
7.428000,-4.5552,-1.5276,-0.1158,4.806
7.428000,-4.8855,-1.4353,-0.3443,5.104
7.436000,-5.2132,-1.3234,-0.5828,5.410
7.438000,-5.5357,-1.1820,-0.8285,5.721
7.444000,-5.8363,-1.0274,-1.0712,6.022
7.448000,-6.0982,-0.8738,-1.2889,6.294
7.453000,-6.3308,-0.7182,-1.4880,6.543
7.458000,-6.5366,-0.5773,-1.6494,6.766
7.463000,-6.7251,-0.4508,-1.7773,6.971
7.468000,-6.8605,-0.3267,-1.8739,7.119
7.473000,-6.9620,-0.1975,-1.9271,7.226
7.480000,-7.0224,-0.0707,-1.9390,7.286
7.485000,-7.0277,0.0682,-1.9145,7.284
7.489000,-6.9825,0.1782,-1.8583,7.228
7.494000,-6.9039,0.2736,-1.7967,7.139
7.499000,-6.7609,0.3710,-1.7198,6.986
7.505000,-6.5635,0.4601,-1.6302,6.779
7.508000,-6.3167,0.5382,-1.5323,6.522
7.553000,-6.0279,0.6049,-1.4167,6.222
7.555000,-5.7454,0.6597,-1.3121,5.930
7.556000,-5.4619,0.6833,-1.1994,5.634
7.556000,-5.1826,0.6846,-1.0839,5.339
7.557000,-4.8931,0.6803,-0.9608,5.033
7.557000,-4.6246,0.6772,-0.8375,4.748
7.558000,-4.3651,0.6703,-0.7239,4.475
7.558000,-4.1289,0.6358,-0.6180,4.223
7.559000,-3.8994,0.5970,-0.5084,3.977
7.559000,-3.6979,0.5447,-0.4265,3.762
7.564000,-3.5028,0.4811,-0.3531,3.553
7.569000,-3.3211,0.3920,-0.2884,3.357
7.575000,-3.1455,0.2657,-0.2154,3.164
7.584000,-2.8160,-0.0513,-0.1086,2.819
7.585000,-2.7725,0.0059,-0.0707,2.773
7.589000,-2.5913,-0.0846,0.0010,2.593
7.594000,-2.4067,-0.1313,0.0515,2.411
7.599000,-2.2304,-0.1462,0.0908,2.237
7.603000,-2.0724,-0.1514,0.1278,2.082
7.609000,-1.9516,-0.1493,0.1580,1.964
7.640000,-1.8441,-0.1156,0.1979,1.858
7.641000,-1.7519,-0.0601,0.2427,1.770
7.642000,-1.6677,0.0127,0.3235,1.699
7.642000,-1.5777,0.1404,0.4421,1.645
7.642000,-1.4840,0.3015,0.5770,1.621
7.643000,-1.4036,0.4648,0.7446,1.655
7.645000,-1.3102,0.6324,0.9183,1.720
7.651000,-1.2206,0.7806,1.1147,1.828
7.653000,-1.1081,0.8999,1.3050,1.934
7.660000,-0.9903,1.0254,1.4886,2.061
7.666000,-0.8528,1.1191,1.6799,2.191
7.670000,-0.6862,1.2048,1.8666,2.325
7.674000,-0.5028,1.2964,2.0435,2.472
7.680000,-0.3025,1.3942,2.2107,2.631
7.685000,-0.1248,1.4756,2.3700,2.795
7.688000,0.0641,1.5241,2.5165,2.943
7.693000,0.2448,1.5326,2.6477,3.069
7.699000,0.4290,1.5296,2.7660,3.190
7.703000,0.6002,1.4962,2.8639,3.286
7.708000,0.7336,1.4486,2.9533,3.370
7.716000,0.8630,1.3799,3.0077,3.420
7.719000,0.9715,1.2902,3.0131,3.419
7.723000,1.0713,1.1747,2.9913,3.388
7.751000,1.1769,1.0314,2.9255,3.318
7.752000,1.3020,0.8695,2.8137,3.220
7.752000,1.4396,0.6749,2.6396,3.081
7.753000,1.5920,0.4642,2.4301,2.942
7.753000,1.7495,0.2400,2.1786,2.804
7.753000,1.8956,-0.0143,1.8831,2.672
7.760000,2.0416,-0.2607,1.5759,2.592
7.763000,2.1831,-0.5085,1.2716,2.577
7.769000,2.3225,-0.7575,1.0114,2.644
7.774000,2.4526,-1.0006,0.7619,2.756
7.779000,2.5736,-1.2447,0.5235,2.906
7.783000,2.7091,-1.4733,0.2848,3.097
7.789000,2.8591,-1.6718,0.0511,3.312
7.794000,3.0425,-1.8548,-0.1842,3.568
7.799000,3.2496,-2.0676,-0.4085,3.873
7.804000,3.5090,-2.3223,-0.6332,4.255
7.809000,3.7866,-2.6548,-0.8243,4.697
7.818000,4.0537,-3.0602,-0.9698,5.171
7.819000,4.2437,-3.5311,-1.0648,5.622
7.824000,4.3309,-4.0336,-1.1193,6.023
7.855000,4.3041,-4.5075,-1.1117,6.331
7.856000,4.1619,-4.9165,-1.0739,6.530
7.856000,3.9055,-5.1931,-1.0085,6.576
7.856000,3.5911,-5.2961,-0.8894,6.460
7.857000,3.2626,-5.1871,-0.7073,6.169
7.858000,2.9540,-4.9091,-0.4412,5.746
7.860000,2.6919,-4.5842,-0.0658,5.317
7.865000,2.5077,-4.2171,0.4059,4.923
7.869000,2.4349,-3.8414,0.9344,4.643
7.874000,2.5136,-3.4812,1.4920,4.546
7.880000,2.7030,-3.1342,2.0463,4.617
7.884000,2.9756,-2.7916,2.5571,4.815
7.890000,3.2900,-2.4823,3.0039,5.100
7.894000,3.6384,-2.1947,3.3044,5.383
7.900000,4.0059,-1.9411,3.4678,5.643
7.904000,4.3705,-1.7048,3.4768,5.839
7.909000,4.7001,-1.4865,3.3221,5.945
7.915000,4.9610,-1.2911,3.0162,5.948
7.920000,5.1672,-1.1163,2.5910,5.887
7.924000,5.2994,-0.9552,2.0524,5.763
7.960000,5.3481,-0.7957,1.4422,5.596
7.962000,5.3250,-0.6381,0.7790,5.419
7.963000,5.2110,-0.4609,0.1286,5.233
7.964000,5.0351,-0.2782,-0.5006,5.068
7.965000,4.7903,-0.0733,-1.0787,4.911
7.965000,4.4961,0.1469,-1.6002,4.775
7.966000,4.1361,0.3730,-2.0566,4.634
7.966000,3.7324,0.6102,-2.4355,4.498
7.971000,3.3431,0.8637,-2.7364,4.406
7.975000,2.9880,1.1147,-2.9588,4.350
7.980000,2.6770,1.3444,-3.1145,4.321
7.984000,2.4486,1.5554,-3.1718,4.298
7.989000,2.2884,1.7287,-3.1430,4.255
7.996000,2.1631,1.8621,-3.0043,4.144
8.000000,2.0942,1.9770,-2.7374,3.973
8.005000,2.1103,2.0902,-2.3551,3.791
8.009000,2.0104,2.1969,-1.9114,3.539
8.015000,2.0074,2.3064,-1.4525,3.385
8.019000,2.0268,2.4210,-1.0034,3.313
8.024000,2.0637,2.5621,-0.5767,3.340
8.038000,2.0914,2.6888,-0.2112,3.413
8.040000,2.1311,2.8439,0.0948,3.555
8.044000,2.1608,2.9888,0.3270,3.703
8.090000,2.1923,3.1427,0.4972,3.864
8.091000,2.2060,3.2934,0.6172,4.012
8.092000,2.2021,3.4264,0.6941,4.132
8.092000,2.1870,3.5559,0.7351,4.239
8.093000,2.1632,3.6747,0.7402,4.328
8.093000,2.1186,3.7899,0.7289,4.403
8.094000,2.0482,3.8894,0.7035,4.452
8.094000,1.9830,4.0020,0.6735,4.517
8.095000,1.8795,4.1225,0.6248,4.574
8.096000,1.7593,4.2295,0.5622,4.615
8.096000,1.6245,4.3085,0.5097,4.633
8.101000,1.4681,4.3667,0.4529,4.629
8.105000,1.2756,4.3825,0.3869,4.581
8.110000,1.0449,4.3704,0.3000,4.504
8.114000,0.8048,4.3234,0.1779,4.401
8.120000,0.5053,4.2390,0.0397,4.269
8.125000,0.1825,4.1415,-0.1214,4.147
8.131000,-0.1963,4.0335,-0.3078,4.050
8.134000,-0.6090,3.9273,-0.5095,4.007
8.139000,-1.0594,3.8161,-0.7215,4.026
8.145000,-1.0709,3.7124,-0.9149,3.971
8.150000,-1.8294,3.6428,-1.1015,4.223
8.155000,-2.1188,3.5549,-1.2791,4.332
8.160000,-2.3337,3.4754,-1.4540,4.432
8.173000,-2.4572,3.4067,-1.6430,4.510
8.174000,-2.5017,3.3609,-1.8502,4.580
8.175000,-2.4863,3.3427,-2.0322,4.635
8.230000,-2.3972,3.3328,-2.1862,4.651
8.232000,-2.2732,3.3144,-2.2948,4.628
8.233000,-2.1096,3.2778,-2.3533,4.553
8.233000,-1.9166,3.2514,-2.3689,4.456
8.234000,-1.6803,3.2424,-2.3563,4.346
8.234000,-1.4251,3.2551,-2.3060,4.236
8.234000,-1.1780,3.2701,-2.2322,4.131
8.235000,-0.9274,3.2728,-2.1376,4.018
8.235000,-0.6976,3.2583,-2.0392,3.907
8.236000,-0.5011,3.2262,-1.9418,3.799
8.236000,-0.3402,3.1694,-1.8384,3.680
8.238000,-0.2177,3.1092,-1.7386,3.569
8.240000,-0.1358,3.0505,-1.6305,3.462
8.247000,-0.1186,2.9692,-1.5505,3.352
8.251000,-0.1514,2.8869,-1.4983,3.256
8.256000,-0.2677,2.7965,-1.4740,3.172
8.261000,-0.4264,2.6910,-1.4677,3.095
8.266000,-0.5887,2.5969,-1.4601,3.037
8.272000,-0.7473,2.5240,-1.4489,3.005
8.276000,-0.8805,2.4747,-1.4244,2.988
8.312000,-0.9716,2.4442,-1.3768,2.969
8.313000,-1.0181,2.3918,-1.3134,2.912
8.313000,-1.0132,2.3079,-1.2679,2.821
8.313000,-0.9474,2.1997,-1.2496,2.701
8.314000,-0.8285,2.0406,-1.2463,2.531
8.314000,-0.6379,1.8017,-1.2745,2.297
8.314000,-0.3710,1.5167,-1.3458,2.061
8.315000,-0.0524,1.1373,-1.4549,1.847
8.320000,0.3268,0.6730,-1.5943,1.761
8.325000,0.7350,0.1403,-1.7276,1.883
8.331000,1.1477,-0.4395,-1.8423,2.215
8.335000,1.5433,-1.0521,-1.9074,2.670
8.340000,1.8618,-1.6882,-1.9107,3.157
8.347000,2.1367,-2.3146,-1.8402,3.648
8.351000,2.3753,-2.9098,-1.6506,4.103
8.356000,2.6015,-3.5077,-1.3378,4.567
8.361000,2.8163,-4.1177,-0.9894,5.086
8.365000,3.0313,-4.7593,-0.6251,5.677
8.371000,3.2418,-5.4137,-0.2572,6.315
8.375000,3.3980,-6.0881,0.0990,6.973
8.384000,3.4802,-6.7279,0.4484,7.588
8.385000,3.4521,-7.2943,0.7586,8.105
8.390000,3.3233,-7.7610,1.0419,8.507
8.395000,3.0537,-8.1400,1.2935,8.790
8.435000,2.6110,-8.4142,1.5564,8.946
8.436000,2.0054,-8.5714,1.8211,8.989
8.437000,1.2825,-8.5788,2.0701,8.918
8.437000,0.5051,-8.4195,2.2745,8.736
8.438000,-0.2945,-8.1309,2.4296,8.491
8.438000,-1.0151,-7.7433,2.5088,8.203
8.439000,-1.6664,-7.3619,2.5365,7.963
8.439000,-2.2158,-7.0113,2.5146,7.771
8.440000,-2.6611,-6.7774,2.4701,7.689
8.447000,-2.9903,-6.6331,2.4292,7.671
8.451000,-3.2151,-6.5587,2.4203,7.695
8.457000,-3.3456,-6.5062,2.4194,7.706
8.462000,-3.3790,-6.4726,2.4617,7.705
8.468000,-3.3660,-6.4388,2.5541,7.701
8.472000,-3.3498,-6.3664,2.6484,7.666
8.477000,-3.3451,-6.2605,2.7586,7.615
8.480000,-3.3592,-6.1043,2.8654,7.534
8.490000,-3.3967,-5.9119,2.9758,7.439
8.492000,-3.4194,-5.6739,3.1016,7.315
8.542000,-3.3987,-5.3975,3.2450,7.156
8.543000,-3.3350,-5.0686,3.3698,6.940
8.544000,-3.2479,-4.6974,3.4521,6.673
8.544000,-3.1736,-4.3009,3.4730,6.374
8.544000,-3.0932,-3.9274,3.4423,6.070
8.545000,-2.9974,-3.5721,3.3651,5.750
8.546000,-2.8766,-3.2328,3.2490,5.411
8.546000,-2.7216,-2.9194,3.1040,5.056
8.547000,-2.5423,-2.6300,2.9207,4.681
8.548000,-2.3656,-2.3481,2.6972,4.288
8.548000,-2.1939,-2.0789,2.4575,3.895
8.552000,-2.0276,-1.8299,2.2044,3.510
8.556000,-1.8618,-1.6130,1.9330,3.131
8.562000,-1.7115,-1.4120,1.6726,2.779
8.567000,-1.5742,-1.2055,1.4160,2.436
8.571000,-1.4666,-1.0078,1.1920,2.142
8.576000,-1.3770,-0.8095,0.9694,1.869
8.584000,-1.3148,-0.5987,0.7531,1.629
8.586000,-1.2802,-0.3829,0.5485,1.444
8.591000,-1.2803,-0.1620,0.3506,1.337
8.599000,-1.3102,0.0642,0.1693,1.323
8.601000,-1.3767,0.3100,0.0024,1.411
8.605000,-1.4653,0.5685,-0.1428,1.578
8.610000,-1.5547,0.8252,-0.2538,1.778
8.654000,-1.6183,1.0801,-0.3425,1.976
8.655000,-1.6798,1.3288,-0.4183,2.182
8.656000,-1.7154,1.5521,-0.4736,2.361
8.656000,-1.7176,1.7383,-0.5084,2.496
8.656000,-1.6703,1.8989,-0.5055,2.579
8.657000,-1.5805,2.0340,-0.4842,2.621
8.657000,-1.4532,2.1603,-0.4422,2.641
8.658000,-1.2649,2.2799,-0.3796,2.635
8.658000,-1.0396,2.3974,-0.3086,2.631
8.664000,-0.7879,2.5024,-0.2147,2.632
8.667000,-0.5127,2.6259,-0.0981,2.677
8.671000,-0.2262,2.7460,0.0097,2.755
8.677000,0.0543,2.8502,0.1059,2.853
8.681000,0.3288,2.9603,0.1666,2.983
8.686000,0.5819,3.0563,0.1870,3.117
8.691000,0.8066,3.1503,0.1957,3.258
8.702000,1.0169,3.2207,0.1927,3.383
8.703000,1.2078,3.2673,0.1492,3.487
8.706000,1.3698,3.2832,0.0462,3.558
8.753000,1.4928,3.3063,-0.0797,3.629
8.754000,1.5793,3.3273,-0.2069,3.689
8.755000,1.6437,3.3582,-0.3326,3.754
8.755000,1.6835,3.4326,-0.4611,3.851
8.755000,1.6704,3.5220,-0.5926,3.943
8.756000,1.6449,3.6311,-0.7383,4.054
8.756000,1.6001,3.7219,-0.8668,4.143
8.756000,1.5552,3.8234,-0.9994,4.247
8.757000,1.5365,3.9378,-1.1284,4.375
8.757000,1.5079,4.0270,-1.2270,4.472
8.761000,1.4764,4.1029,-1.2471,4.535
8.768000,1.4445,4.1488,-1.2129,4.557
8.771000,1.4360,4.1767,-1.1174,4.556
8.776000,1.4269,4.1576,-0.9847,4.505
8.782000,1.4219,4.1276,-0.7958,4.438
8.786000,1.4327,4.0624,-0.5444,4.342
8.791000,1.4330,3.9381,-0.2499,4.198
8.799000,1.4037,3.7880,0.0628,4.040
8.801000,1.3497,3.6026,0.3860,3.867
8.805000,1.2496,3.3892,0.7001,3.679
8.813000,1.1205,3.1620,1.0302,3.509
8.817000,0.9699,2.9379,1.3423,3.373
8.821000,0.8053,2.7147,1.6429,3.274
8.826000,0.6174,2.4877,1.9122,3.198
8.861000,0.4112,2.2594,2.1715,3.161
8.863000,0.1590,2.0398,2.4032,3.156
8.864000,-0.0837,1.8124,2.6000,3.170
8.864000,-0.3309,1.5920,2.7639,3.207
8.865000,-0.5724,1.3717,2.9093,3.267
8.867000,-0.8195,1.1592,3.0383,3.354
8.867000,-1.0381,0.9548,3.1176,3.422
8.868000,-1.1920,0.7327,3.1448,3.442
8.872000,-1.2139,0.4811,3.0704,3.337
8.876000,-1.0682,0.1859,2.9238,3.118
8.883000,-0.7432,-0.1745,2.7297,2.834
8.886000,-0.2805,-0.5741,2.5126,2.593
8.891000,0.2303,-0.9559,2.2945,2.496
8.897000,0.7122,-1.3110,2.1328,2.603
8.901000,1.0878,-1.6063,2.0052,2.790
8.906000,1.3646,-1.8062,1.8735,2.938
8.911000,1.5739,-1.9417,1.6994,3.022
8.918000,1.7372,-2.0679,1.4524,3.066
8.921000,1.9000,-2.2229,1.1694,3.149
8.926000,2.1149,-2.4354,0.8535,3.337
8.957000,2.3818,-2.7291,0.5036,3.657
8.958000,2.7170,-3.0872,0.1684,4.116
8.959000,3.1493,-3.5263,-0.1564,4.730
8.959000,3.6830,-4.0058,-0.4300,5.459
8.959000,4.2722,-4.5305,-0.6954,6.266
8.960000,4.8639,-5.0506,-1.0195,7.086
8.970000,5.3955,-5.5231,-1.3965,7.846
8.971000,5.8021,-5.8671,-1.8045,8.446
8.972000,6.0455,-6.0397,-2.2164,8.828
8.977000,6.0588,-6.0172,-2.5836,8.921
8.984000,5.7900,-5.8332,-2.8387,8.695
8.986000,5.3024,-5.5640,-2.9030,8.216
8.993000,4.7071,-5.2806,-2.7842,7.602
8.997000,4.0985,-5.0258,-2.5285,6.961
9.002000,3.4846,-4.8397,-2.0890,6.319
9.006000,2.8899,-4.7219,-1.4336,5.719
9.014000,2.3130,-4.6501,-0.6130,5.230
9.030000,1.7808,-4.5980,0.2750,4.938
9.033000,1.3057,-4.5363,1.1929,4.869
9.034000,0.9385,-4.4406,2.1461,5.021
9.034000,0.7131,-4.2772,3.1017,5.331
9.037000,0.6755,-4.0625,3.9805,5.728
9.041000,0.8540,-3.7415,4.7119,6.077
9.085000,1.2215,-3.3006,5.2017,6.280
9.086000,1.7361,-2.7408,5.4496,6.342
9.087000,2.3271,-2.1373,5.4297,6.282
9.087000,2.9451,-1.5297,5.1646,6.139
9.088000,3.5435,-0.9213,4.6982,5.956
9.088000,4.0972,-0.3801,3.9984,5.737
9.088000,4.5427,0.0762,3.1005,5.500
9.089000,4.8508,0.4353,2.0899,5.300
9.089000,5.0350,0.7301,1.0553,5.196
9.093000,5.0762,0.9536,0.0675,5.165
9.098000,4.9984,1.1560,-0.8294,5.197
9.102000,4.7756,1.3210,-1.6128,5.211
9.107000,4.4540,1.4992,-2.2827,5.225
9.114000,4.0607,1.6914,-2.8428,5.238
9.119000,3.5965,1.9123,-3.3173,5.253
9.122000,3.0862,2.1316,-3.7158,5.280
9.127000,2.5425,2.3690,-4.0213,5.315
9.133000,1.9976,2.6252,-4.2533,5.383
9.139000,1.4856,2.8676,-4.4016,5.459
9.143000,1.0215,3.1015,-4.4832,5.546
9.155000,0.6223,3.3247,-4.5199,5.645
9.157000,0.3002,3.5257,-4.5238,5.743
9.159000,0.0480,3.6950,-4.5072,5.828
9.162000,-0.1557,3.8520,-4.4816,5.912
9.206000,-0.2993,3.9965,-4.4187,5.965
9.208000,-0.3877,4.1238,-4.3328,5.994
9.208000,-0.4069,4.2551,-4.2192,6.006
9.208000,-0.3933,4.3686,-4.1070,6.009
9.209000,-0.3427,4.4520,-4.0123,6.003
9.209000,-0.2629,4.5049,-3.9279,5.983
9.210000,-0.1903,4.5677,-3.8510,5.977
9.210000,-0.1447,4.6066,-3.7719,5.956
9.210000,-0.1025,4.6163,-3.7313,5.937
9.217000,-0.0763,4.5849,-3.6927,5.888
9.218000,-0.0348,4.5171,-3.5986,5.775
9.222000,0.0096,4.4292,-3.5006,5.646
9.227000,0.0086,4.3136,-3.5326,5.576
9.232000,-0.0716,4.1630,-3.7088,5.576
9.240000,-0.2500,4.0136,-3.9914,5.666
9.242000,-0.5193,3.8924,-4.2691,5.800
9.256000,-0.8431,3.8118,-4.4285,5.904
9.258000,-1.1369,3.7487,-4.4166,5.904
9.260000,-1.3450,3.6773,-4.2869,5.806
9.304000,-1.4309,3.5526,-4.0833,5.598
9.305000,-1.4060,3.3770,-3.8906,5.340
9.306000,-1.2920,3.1434,-3.7526,5.063
9.306000,-1.1394,2.9065,-3.6695,4.818
9.306000,-0.9986,2.6663,-3.6052,4.594
9.306000,-0.9318,2.4442,-3.5668,4.423
9.306000,-0.8959,2.2380,-3.5343,4.278
9.307000,-0.8763,2.0623,-3.4549,4.118
9.307000,-0.8511,1.8933,-3.3743,3.962
9.307000,-0.7985,1.7383,-3.3259,3.837
9.316000,-0.7399,1.5855,-3.3174,3.750
9.319000,-0.6583,1.4684,-3.3338,3.702
9.324000,-0.5513,1.3823,-3.3032,3.623
9.329000,-0.3949,1.3248,-3.2258,3.510
9.334000,-0.2226,1.3030,-3.0539,3.328
9.338000,-0.0176,1.3259,-2.7934,3.092
9.343000,0.2010,1.4054,-2.4188,2.805
9.350000,0.3949,1.5003,-1.9913,2.524
9.353000,0.5449,1.5889,-1.5837,2.309
9.358000,0.6561,1.6664,-1.2080,2.160
9.392000,0.8119,1.7637,-0.8001,2.100
9.393000,1.0600,1.8734,-0.3024,2.174
9.393000,1.3972,1.9783,0.3129,2.442
9.393000,1.7752,2.0274,1.0177,2.880
9.394000,2.1432,2.0202,1.6830,3.392
9.394000,2.4434,1.9703,2.1917,3.828
9.394000,2.6801,1.9303,2.4672,4.123
9.402000,2.8673,1.9499,2.5557,4.308
9.403000,2.9995,2.0720,2.5397,4.443
9.408000,3.0809,2.2792,2.4753,4.562
9.415000,3.1278,2.5377,2.3629,4.670
9.418000,3.1471,2.8065,2.2173,4.764
9.422000,3.1598,3.0089,2.0128,4.805
9.428000,3.1298,3.1232,1.7046,4.739
9.433000,3.0520,3.1327,1.3274,4.571
9.438000,2.9266,3.0258,0.9257,4.310
9.442000,2.7442,2.7884,0.5217,3.947
9.448000,2.5413,2.4546,0.1018,3.535
9.454000,2.3756,2.0943,-0.3240,3.183
9.458000,2.2473,1.7601,-0.7788,2.959
9.469000,2.1351,1.5267,-1.1710,2.874
9.470000,1.9937,1.3698,-1.4621,2.826
9.473000,1.8017,1.2585,-1.6667,2.758
9.477000,1.5788,1.2024,-1.7947,2.676
9.511000,1.3372,1.1920,-1.8754,2.593
9.512000,1.0609,1.1561,-1.9139,2.475
9.512000,0.7767,1.0566,-1.9490,2.349
9.513000,0.5066,0.9322,-2.0188,2.281
9.513000,0.2843,0.8049,-2.0776,2.246
9.513000,0.1122,0.7056,-2.1351,2.251
9.514000,-0.0112,0.6161,-2.1961,2.281
9.519000,-0.0885,0.5459,-2.2751,2.341
9.523000,-0.0810,0.4715,-2.3119,2.361
9.528000,0.0496,0.3907,-2.2872,2.321
9.532000,0.3097,0.3293,-2.1678,2.214
9.538000,0.7040,0.3016,-2.0119,2.153
9.542000,1.1695,0.2994,-1.8392,2.200
9.547000,1.6502,0.3122,-1.6886,2.382
9.553000,2.0784,0.3104,-1.6370,2.664
9.558000,2.4319,0.2786,-1.7603,3.015
9.563000,2.7228,0.1383,-2.0448,3.408
9.568000,2.9390,-0.0987,-2.3128,3.741
9.573000,3.1190,-0.4533,-2.4407,3.986
9.579000,3.2561,-0.8918,-2.3823,4.132
9.586000,3.3408,-1.4286,-2.1646,4.229
9.587000,3.4393,-1.9952,-1.8110,4.369
9.593000,3.5901,-2.5439,-1.4117,4.621
9.625000,3.8173,-3.0529,-1.0228,4.994
9.626000,4.0659,-3.5416,-0.6953,5.437
9.627000,4.3284,-4.0775,-0.4797,5.966
9.627000,4.5338,-4.6788,-0.3624,6.525
9.629000,4.6583,-5.3430,-0.2453,7.093
9.630000,4.7024,-6.0742,-0.1111,7.682
9.631000,4.7124,-6.8380,-0.0046,8.305
9.637000,4.6930,-7.5577,-0.0230,8.896
9.638000,4.6596,-8.1625,-0.2110,9.401
9.643000,4.5712,-8.5881,-0.5542,9.745
9.648000,4.4302,-8.7866,-0.9851,9.890
9.653000,4.2512,-8.6768,-1.3977,9.763
9.658000,4.0409,-8.3168,-1.7152,9.404
9.664000,3.8571,-7.7825,-1.8874,8.889
9.668000,3.7068,-7.1726,-1.9144,8.298
9.673000,3.5774,-6.5859,-1.8420,7.718
9.678000,3.5094,-6.0536,-1.6989,7.201
9.702000,3.4471,-5.6057,-1.5308,6.756
9.703000,3.3715,-5.2558,-1.3353,6.385
9.703000,3.2395,-4.9973,-1.1583,6.067
9.703000,3.0604,-4.7921,-0.9970,5.773
9.704000,2.8202,-4.6163,-0.8516,5.476
9.708000,2.4994,-4.4727,-0.7364,5.176
9.714000,2.1420,-4.3437,-0.6363,4.885
9.718000,1.7454,-4.2174,-0.5487,4.597
9.723000,1.3433,-4.1153,-0.4895,4.357
9.729000,0.9359,-4.0108,-0.4363,4.142
9.733000,0.5421,-3.9140,-0.4029,3.972
9.738000,0.1526,-3.8311,-0.3778,3.853
9.743000,-0.2400,-3.7434,-0.3702,3.769
9.748000,-0.6212,-3.6721,-0.3862,3.744
9.754000,-0.9887,-3.5788,-0.4107,3.736
9.759000,-1.3071,-3.4689,-0.4408,3.733
9.765000,-1.5929,-3.3510,-0.4942,3.743
9.768000,-1.8298,-3.2018,-0.5610,3.730
9.774000,-2.0444,-3.0550,-0.6311,3.730
9.778000,-2.2225,-2.9251,-0.6943,3.739
9.821000,-2.3836,-2.8220,-0.7723,3.774
9.821000,-2.5348,-2.7257,-0.8308,3.814
9.822000,-2.6808,-2.6582,-0.8852,3.878
9.822000,-2.8099,-2.6002,-0.9669,3.949
9.823000,-2.9433,-2.5731,-1.0810,4.056
9.823000,-3.0955,-2.5722,-1.2160,4.204
9.823000,-3.2710,-2.5726,-1.3766,4.383
9.824000,-3.4841,-2.5791,-1.5489,4.603
9.824000,-3.7106,-2.5841,-1.7285,4.841
9.831000,-3.9289,-2.5681,-1.9086,5.067
9.833000,-4.1247,-2.5743,-2.0970,5.295
9.838000,-4.3023,-2.5679,-2.2819,5.506
9.843000,-4.4690,-2.5946,-2.4637,5.725
9.848000,-4.6224,-2.6445,-2.6379,5.943
9.854000,-4.7529,-2.7149,-2.7663,6.133
9.859000,-4.8652,-2.8297,-2.8542,6.311
9.863000,-4.9785,-2.9430,-2.8895,6.465
9.869000,-5.0928,-3.0570,-2.8750,6.599
9.874000,-5.1960,-3.1574,-2.8181,6.701
9.888000,-5.3169,-3.2415,-2.7357,6.801
9.889000,-5.4385,-3.3042,-2.6205,6.882
9.889000,-5.5539,-3.3406,-2.4602,6.932
9.894000,-5.6438,-3.3483,-2.2693,6.944
9.943000,-5.7084,-3.3298,-2.0690,6.925
9.944000,-5.7455,-3.2949,-1.8662,6.881
9.945000,-5.7813,-3.2459,-1.6754,6.839
9.945000,-5.7849,-3.1950,-1.4719,6.771
9.945000,-5.7589,-3.1424,-1.2822,6.685
9.946000,-5.7128,-3.0740,-1.1060,6.581
9.946000,-5.6419,-3.0114,-0.9269,6.462
9.947000,-5.5629,-2.9573,-0.7403,6.343
9.947000,-5.4665,-2.9121,-0.5748,6.220
9.947000,-5.3501,-2.8951,-0.4499,6.100
9.949000,-5.2354,-2.9208,-0.3629,6.006
9.954000,-5.1153,-2.9653,-0.3111,5.921
9.959000,-5.0137,-3.0238,-0.2825,5.862
9.964000,-4.9212,-3.0970,-0.2671,5.821
9.970000,-4.8330,-3.1513,-0.2506,5.775
9.973000,-4.7633,-3.2274,-0.2738,5.760
9.979000,-4.6931,-3.2943,-0.3365,5.744
9.984000,-4.6294,-3.3348,-0.4214,5.721
9.989000,-4.5678,-3.3950,-0.5087,5.714
9.994000,-4.5226,-3.4792,-0.5980,5.737
10.000000,-4.4721,-3.5942,-0.6840,5.778
10.004000,-4.4332,-3.6944,-0.7447,5.819
10.009000,-4.3552,-3.7674,-0.7824,5.811
10.025000,-4.2386,-3.8115,-0.7875,5.754
10.027000,-4.0953,-3.8217,-0.7573,5.652
10.029000,-3.9443,-3.8365,-0.6776,5.544
10.032000,-3.7926,-3.8320,-0.5607,5.421
10.077000,-3.6402,-3.8276,-0.4286,5.300
10.077000,-3.4844,-3.7917,-0.2838,5.157
10.078000,-3.3421,-3.7614,-0.1506,5.034
10.078000,-3.2059,-3.7266,0.0138,4.916
10.078000,-3.0590,-3.6852,0.2306,4.795
10.079000,-2.8964,-3.6445,0.4871,4.681
10.079000,-2.7415,-3.5945,0.7658,4.585
10.080000,-2.5851,-3.5364,1.0370,4.502
10.080000,-2.4244,-3.4649,1.2881,4.421
10.080000,-2.2474,-3.3780,1.5305,4.336
10.087000,-2.0445,-3.2709,1.7781,4.247
10.088000,-1.8346,-3.1651,1.9969,4.168
10.095000,-1.6516,-3.0762,2.1720,4.112
10.099000,-1.4764,-3.0061,2.2942,4.060
10.104000,-1.3163,-2.9288,2.3711,3.992
10.108000,-1.1712,-2.8441,2.4320,3.921
10.136000,-1.0386,-2.7374,2.4922,3.845
10.137000,-0.9599,-2.6384,2.5209,3.773
10.137000,-0.8798,-2.5586,2.5096,3.690
10.137000,-0.7985,-2.4860,2.4644,3.590
10.137000,-0.6898,-2.3990,2.4079,3.468
10.140000,-0.5609,-2.2782,2.3510,3.321
10.144000,-0.4030,-2.1655,2.3226,3.201
10.150000,-0.3428,-2.0272,2.3234,3.102
10.155000,-0.0287,-1.8898,2.3462,3.013
10.160000,0.1996,-1.7219,2.3693,2.936
10.164000,0.4227,-1.5609,2.4231,2.913
10.170000,0.6483,-1.3824,2.4902,2.921
10.174000,0.8643,-1.1985,2.5797,2.973
10.180000,1.0635,-1.0071,2.6906,3.063
10.185000,1.2870,-0.8008,2.8059,3.189
10.189000,1.5100,-0.6044,2.9357,3.356
10.194000,1.7280,-0.4273,3.0605,3.540
10.201000,1.9432,-0.2720,3.1719,3.730
10.205000,2.1364,-0.1576,3.2355,3.880
10.209000,2.3198,-0.0814,3.2390,3.985
10.223000,2.4829,-0.0537,3.2101,4.059
10.225000,2.6429,-0.0548,3.1462,4.109
10.228000,2.7708,-0.0966,3.0516,4.123
10.277000,2.8619,-0.1743,2.9214,4.093
10.280000,2.9238,-0.3085,2.7581,4.031
10.281000,2.9369,-0.4400,2.5589,3.920
10.282000,2.9302,-0.5898,2.3363,3.794
10.283000,2.8825,-0.7624,2.0856,3.639
10.283000,2.7941,-0.9574,1.8147,3.466
10.284000,2.6919,-1.1597,1.5672,3.324
10.284000,2.5542,-1.3552,1.3383,3.186
10.285000,2.3603,-1.5410,1.1166,3.032
10.285000,2.1513,-1.7191,0.8882,2.893
10.285000,1.9614,-1.8578,0.6874,2.788
10.286000,1.8032,-1.9423,0.5337,2.704
10.290000,1.6764,-1.9971,0.4394,2.644
10.295000,1.6269,-2.0121,0.3907,2.617
10.299000,1.6379,-1.9852,0.3880,2.603
10.304000,1.7117,-1.9118,0.4366,2.603
10.310000,1.8366,-1.8325,0.5366,2.649
10.319000,2.0182,-1.7316,0.7002,2.750
10.319000,2.2472,-1.6188,0.9226,2.919
10.324000,2.5061,-1.4562,1.2153,3.143
10.363000,2.7873,-1.2705,1.5348,3.426
10.364000,3.0621,-1.0784,1.8472,3.735
10.364000,3.3240,-0.8979,2.1375,4.053
10.364000,3.5542,-0.7120,2.3983,4.346
10.365000,3.7785,-0.5208,2.6508,4.645
10.365000,3.9823,-0.3316,2.8920,4.933
10.366000,4.1873,-0.1228,3.1027,5.213
10.366000,4.3779,0.0955,3.2847,5.474
10.371000,4.5590,0.3257,3.4280,5.713
10.375000,4.7039,0.5653,3.5327,5.910
10.383000,4.8220,0.7930,3.6080,6.074
10.385000,4.9256,0.9992,3.6490,6.211
10.390000,5.0279,1.1765,3.6436,6.320
10.395000,5.1341,1.3060,3.6156,6.414
10.400000,5.2369,1.3806,3.5504,6.476
10.405000,5.3742,1.4218,3.4290,6.532
10.409000,5.5030,1.4490,3.2609,6.559
10.415000,5.5937,1.4450,3.0466,6.531
10.420000,5.6250,1.4314,2.7959,6.443
10.424000,5.6282,1.3918,2.5353,6.328
10.434000,5.5939,1.3620,2.2626,6.186
10.435000,5.5341,1.3494,2.0303,6.047
10.440000,5.4606,1.3107,1.7861,5.893
10.445000,5.3932,1.2654,1.5323,5.748
10.490000,5.3248,1.2422,1.2860,5.617
10.491000,5.2362,1.2292,1.0234,5.475
10.492000,5.1156,1.2455,0.7661,5.321
10.492000,4.9558,1.2815,0.4841,5.142
10.493000,4.7665,1.3683,0.1726,4.962
10.493000,4.5624,1.4940,-0.1463,4.803
10.497000,4.3361,1.6441,-0.4624,4.660
10.497000,4.0832,1.7901,-0.7564,4.522
10.498000,3.8495,1.9058,-1.0227,4.416
10.499000,3.6137,2.0011,-1.2659,4.320
10.500000,3.3927,2.1118,-1.5026,4.269
10.506000,3.1722,2.2142,-1.7324,4.239
10.511000,2.9454,2.3155,-1.9334,4.216
10.516000,2.7245,2.3945,-2.0837,4.183
10.520000,2.5120,2.4632,-2.1812,4.139
10.526000,2.2891,2.5074,-2.2476,4.072
10.537000,2.0872,2.5296,-2.3071,4.010
10.538000,1.9253,2.5323,-2.3481,3.954
10.541000,1.7585,2.5421,-2.4085,3.919
10.545000,1.5939,2.5541,-2.4670,3.892
10.596000,1.4291,2.5659,-2.5068,3.861
10.598000,1.2498,2.5848,-2.5280,3.825
10.599000,1.0728,2.6036,-2.5333,3.788
10.599000,0.8963,2.6082,-2.5250,3.739
10.600000,0.7106,2.5890,-2.5080,3.674
10.600000,0.5470,2.5749,-2.4993,3.630
10.600000,0.3864,2.5515,-2.4797,3.579
10.601000,0.2313,2.5117,-2.4610,3.524
10.601000,0.0842,2.4891,-2.4410,3.487
10.602000,-0.0573,2.4717,-2.3956,3.443
10.602000,-0.2098,2.4500,-2.3178,3.379
10.606000,-0.3637,2.4456,-2.2150,3.320
10.611000,-0.4974,2.4322,-2.0971,3.250
10.616000,-0.6152,2.4387,-1.9760,3.199
10.620000,-0.7148,2.4483,-1.8425,3.146
10.625000,-0.8130,2.4132,-1.6775,3.049
10.630000,-0.9023,2.3406,-1.4697,2.907
10.635000,-0.9754,2.2451,-1.2720,2.759
10.641000,-1.0440,2.1483,-1.1042,2.631
10.646000,-1.0912,2.0670,-0.9878,2.538
10.652000,-1.1362,1.9940,-0.9059,2.467
10.655000,-1.1764,1.9341,-0.8370,2.414
10.661000,-1.2141,1.8851,-0.7598,2.367
10.672000,-1.2467,1.8230,-0.7006,2.317
10.673000,-1.2477,1.7599,-0.6858,2.264
10.676000,-1.2197,1.7101,-0.7152,2.219
10.721000,-1.1650,1.7000,-0.7718,2.201
10.722000,-1.0934,1.6815,-0.8267,2.169
10.723000,-0.9932,1.6952,-0.8821,2.154
10.723000,-0.8669,1.6980,-0.9164,2.115
10.723000,-0.7003,1.6945,-0.9512,2.066
10.724000,-0.4865,1.6919,-0.9700,2.010
10.724000,-0.2520,1.6732,-0.9800,1.955
10.724000,-0.0095,1.6237,-0.9764,1.895
10.725000,0.2171,1.5363,-0.9883,1.840
10.727000,0.4132,1.4085,-0.9943,1.773
10.734000,0.6100,1.2857,-1.0138,1.747
10.737000,0.7905,1.1271,-1.0421,1.727
10.740000,0.9402,0.9829,-1.0747,1.733
10.746000,1.0639,0.8432,-1.1261,1.764
10.751000,1.1879,0.7465,-1.2037,1.849
10.755000,1.3311,0.6972,-1.2980,1.986
10.761000,1.4935,0.7144,-1.4068,2.173
10.766000,1.6863,0.7666,-1.5418,2.410
10.770000,1.8711,0.8417,-1.7076,2.669
10.775000,2.0475,0.9324,-1.8824,2.933
10.813000,2.2393,1.0553,-2.0445,3.211
10.814000,2.4414,1.2079,-2.1963,3.499
10.814000,2.6361,1.3875,-2.3585,3.800
10.814000,2.8185,1.5893,-2.5262,4.105
10.815000,2.9524,1.7964,-2.6917,4.380
10.815000,3.0400,1.9849,-2.8330,4.605
10.816000,3.0862,2.1620,-2.9743,4.801
10.816000,3.0669,2.3542,-3.0977,4.954
10.822000,3.0111,2.5520,-3.1986,5.080
10.825000,3.0195,2.7292,-3.3387,5.264
10.830000,3.0606,2.9003,-3.4675,5.459
10.836000,3.0719,3.0221,-3.5748,5.599
10.841000,3.0368,3.0924,-3.6752,5.683
10.847000,2.9627,3.1235,-3.7726,5.724
10.852000,2.8497,3.1634,-3.8550,5.744
10.857000,2.7031,3.2050,-3.9081,5.732
10.862000,2.4994,3.2222,-3.9030,5.645
10.866000,2.2460,3.2223,-3.8736,5.517
10.872000,1.9796,3.2057,-3.8484,5.386
10.875000,1.7149,3.1749,-3.8135,5.250
10.887000,1.4880,3.1443,-3.7592,5.122
10.887000,1.2943,3.1380,-3.7407,5.051
10.891000,1.1266,3.1942,-3.7002,5.016
10.895000,0.9702,3.2697,-3.5924,4.954
10.945000,0.8131,3.3668,-3.4894,4.917
10.946000,0.6912,3.4926,-3.3506,4.889
10.947000,0.5873,3.6085,-3.2003,4.859
10.948000,0.5059,3.7264,-3.0574,4.847
10.949000,0.4422,3.8248,-2.9152,4.829
10.949000,0.3670,3.9295,-2.7472,4.809
10.950000,0.2944,4.0214,-2.5586,4.775
10.950000,0.2458,4.0955,-2.3733,4.740
10.950000,0.2111,4.1610,-2.1868,4.705
10.951000,0.2050,4.2013,-2.0329,4.672
10.952000,0.2652,4.1994,-1.9067,4.620
10.956000,0.3627,4.1241,-1.8082,4.518
10.962000,0.5039,3.9702,-1.7611,4.372
10.966000,0.6699,3.7402,-1.7486,4.183
10.972000,0.8434,3.4460,-1.7535,3.957
10.977000,1.0075,3.1113,-1.7733,3.720
10.986000,1.1527,2.7672,-1.8198,3.507
10.990000,1.2837,2.3897,-1.9117,3.319
10.991000,1.4169,1.9402,-2.0866,3.182
11.029000,1.5938,1.3953,-2.3009,3.127
11.030000,1.8090,0.7047,-2.5490,3.204
11.031000,2.0865,-0.1221,-2.8085,3.501
11.032000,2.4326,-1.0830,-3.1241,4.105
11.032000,2.7766,-2.1823,-3.4739,4.954
11.033000,3.0607,-3.4130,-3.8353,5.977
11.033000,3.2760,-4.6290,-4.1095,7.003
11.034000,3.3274,-5.8257,-4.2415,7.937
11.037000,3.2041,-7.0315,-4.2677,8.827
11.041000,2.9455,-8.2033,-4.1907,9.671
11.047000,2.5738,-9.2962,-4.0166,10.449
11.053000,2.0971,-10.2551,-3.7196,11.109
11.057000,1.5339,-11.0144,-3.2958,11.599
11.062000,0.8976,-11.5183,-2.7698,11.881
11.067000,0.2631,-11.7546,-2.1705,11.956
11.072000,-0.3389,-11.7602,-1.5432,11.866
11.077000,-0.8343,-11.6115,-0.8925,11.676
11.082000,-1.1822,-11.3488,-0.2262,11.412
11.087000,-1.3663,-11.0274,0.4464,11.121
11.091000,-1.3912,-10.6753,1.1014,10.822
11.103000,-1.2579,-10.2978,1.7076,10.514
11.105000,-0.9743,-9.9360,2.2477,10.234
11.108000,-0.5584,-9.6120,2.7637,10.017
11.111000,-0.0472,-9.3217,3.2832,9.883
11.153000,0.4908,-9.0565,3.8318,9.846
11.155000,0.9638,-8.7714,4.3872,9.855
11.156000,1.3465,-8.4387,4.9441,9.873
11.156000,1.5972,-8.0520,5.4939,9.878
11.157000,1.7227,-7.6496,6.0261,9.889
11.158000,1.7200,-7.2224,6.5616,9.908
11.158000,1.5965,-6.7482,7.0606,9.896
11.159000,1.3615,-6.2726,7.5110,9.880
11.160000,1.0202,-5.8023,7.9145,9.866
11.163000,0.5894,-5.3393,8.2540,9.848
11.167000,0.0964,-4.9231,8.5048,9.827
11.172000,-0.4269,-4.5672,8.6434,9.785
11.178000,-0.9558,-4.2708,8.6390,9.684
11.182000,-1.4825,-3.9830,8.4949,9.499
11.186000,-1.9752,-3.6987,8.2122,9.221
11.191000,-2.4043,-3.3957,7.7905,8.832
11.224000,-2.7554,-3.0909,7.2838,8.379
11.225000,-3.0567,-2.7725,6.7105,7.878
11.225000,-3.3108,-2.4453,6.1077,7.365
11.225000,-3.4985,-2.1481,5.5049,6.867
11.226000,-3.6533,-1.8547,4.9044,6.391
11.226000,-3.7755,-1.5681,4.3233,5.950
11.226000,-3.8581,-1.3004,3.7767,5.553
11.235000,-3.9013,-1.0425,3.2703,5.196
11.237000,-3.9196,-0.7969,2.8139,4.890
11.242000,-3.9277,-0.5783,2.4026,4.640
11.247000,-3.9044,-0.3943,2.0351,4.421
11.253000,-3.8737,-0.2091,1.6823,4.228
11.256000,-3.8193,-0.0207,1.3564,4.053
11.262000,-3.7817,0.1517,1.0401,3.925
11.266000,-3.7280,0.3197,0.7205,3.810
11.272000,-3.6679,0.4807,0.3996,3.721
11.278000,-3.5944,0.6202,0.0970,3.649
11.283000,-3.5148,0.7382,-0.1824,3.596
11.288000,-3.4317,0.8704,-0.4242,3.566
11.291000,-3.3453,0.9904,-0.6813,3.555
11.303000,-3.2751,1.0906,-0.9359,3.577
11.305000,-3.2307,1.1569,-1.1806,3.629
11.307000,-3.2336,1.2086,-1.3940,3.723
11.312000,-3.2740,1.2601,-1.5951,3.854
11.362000,-3.3278,1.3238,-1.7963,4.007
11.363000,-3.3784,1.3972,-1.9987,4.167
11.364000,-3.4161,1.4781,-2.1955,4.321
11.364000,-3.4384,1.5644,-2.3838,4.467
11.365000,-3.4598,1.6586,-2.5587,4.612
11.365000,-3.4632,1.7537,-2.7348,4.749
11.365000,-3.4421,1.8614,-2.9254,4.886
11.366000,-3.4204,1.9771,-3.1114,5.029
11.366000,-3.3645,2.0721,-3.2878,5.140
11.367000,-3.2840,2.1299,-3.4615,5.225
11.367000,-3.1742,2.1867,-3.6303,5.295
11.374000,-3.0282,2.2444,-3.8103,5.360
11.377000,-2.8389,2.3343,-3.9822,5.419
11.382000,-2.6211,2.4420,-4.1291,5.466
11.387000,-2.3534,2.5360,-4.2437,5.475
11.392000,-2.0313,2.6522,-4.3093,5.453
11.400000,-1.6676,2.7804,-4.3524,5.427
11.403000,-1.2698,2.9178,-4.3803,5.414
11.407000,-0.8791,3.0330,-4.3978,5.414
11.412000,-0.5175,3.1424,-4.3688,5.406
11.449000,-0.1876,3.2387,-4.2813,5.372
11.449000,0.1074,3.3308,-4.1307,5.307
11.450000,0.3509,3.4138,-3.9101,5.203
11.450000,0.5305,3.4636,-3.6342,5.048
11.451000,0.6345,3.5062,-3.3299,4.877
11.451000,0.6725,3.5012,-2.9852,4.650
11.451000,0.6447,3.4650,-2.6134,4.388
11.452000,0.5587,3.3979,-2.2457,4.111
11.458000,0.4555,3.2784,-1.8802,3.807
11.462000,0.3235,3.1045,-1.5243,3.474
11.467000,0.1704,2.9004,-1.1496,3.125
11.472000,-0.0177,2.6565,-0.7838,2.770
11.479000,-0.2403,2.4187,-0.4127,2.465
11.483000,-0.4680,2.2017,-0.0658,2.252
11.489000,-0.6718,1.9984,0.2564,2.124
11.494000,-0.7988,1.8020,0.5158,2.038
11.498000,-0.8561,1.6005,0.7281,1.956
11.502000,-0.8271,1.3676,0.9008,1.835
11.507000,-0.7288,1.1056,0.9884,1.652
11.516000,-0.5497,0.8001,0.9744,1.375
11.521000,-0.2688,0.4436,0.9004,1.039
11.524000,0.0703,0.0286,0.7658,0.770
11.528000,0.4621,-0.4427,0.6098,0.884
11.538000,0.8296,-1.0183,0.4588,1.391
11.539000,1.1655,-1.6674,0.3246,2.060
11.543000,1.4384,-2.4163,0.2313,2.822
11.592000,1.6438,-3.2002,0.1371,3.600
11.592000,1.7553,-3.9906,0.0592,4.360
11.593000,1.7181,-4.7945,0.0024,5.093
11.593000,1.5258,-5.6116,-0.0330,5.815
11.593000,1.1649,-6.4436,0.0225,6.548
11.594000,0.6681,-7.2872,0.1514,7.319
11.594000,0.0581,-8.1007,0.3155,8.107
11.594000,-0.6132,-8.8139,0.4983,8.849
11.595000,-1.3492,-9.3992,0.7479,9.525
11.596000,-2.1314,-9.8198,1.1195,10.111
11.602000,-2.8909,-10.0670,1.6475,10.603
11.603000,-3.5303,-10.1587,2.3193,11.002
11.612000,-3.9697,-10.0870,3.1193,11.280
11.616000,-4.1508,-9.8966,3.9910,11.450
11.619000,-4.0183,-9.5873,4.8686,11.479
11.621000,-3.5638,-9.1622,5.7045,11.366
11.626000,-2.7975,-8.6220,6.4761,11.140
11.633000,-1.7715,-7.9798,7.1459,10.857
11.638000,-0.6192,-7.3137,7.6526,10.604
11.641000,0.5600,-6.6656,7.9755,10.409
11.679000,1.7298,-6.0493,8.0252,10.198
11.680000,2.8344,-5.4395,7.8157,9.935
11.680000,3.7624,-4.8829,7.3306,9.578
11.681000,4.5608,-4.3493,6.6043,9.129
11.681000,5.2463,-3.8465,5.6329,8.605
11.682000,5.8410,-3.3974,4.4745,8.104
11.682000,6.3638,-2.9859,3.1954,7.722
11.682000,6.7947,-2.6054,1.8719,7.514
11.688000,7.1569,-2.2516,0.5519,7.523
11.693000,7.4064,-1.9321,-0.7364,7.690
11.697000,7.5816,-1.6397,-1.9582,8.000
11.702000,7.6378,-1.3677,-3.0721,8.345
11.707000,7.5897,-1.1443,-4.1492,8.725
11.712000,7.4161,-0.9451,-5.1713,9.090
11.717000,7.1318,-0.7335,-6.1293,9.432
11.722000,6.7758,-0.4610,-7.0080,9.759
11.727000,6.4153,-0.0026,-7.7114,10.031
11.732000,6.0153,0.4510,-8.2247,10.200
11.737000,5.6198,0.8958,-8.5808,10.296
11.742000,5.2654,1.3542,-8.7817,10.328
11.770000,4.9645,1.8075,-8.8157,10.278
11.771000,4.7528,2.2247,-8.6825,10.145
11.771000,4.6163,2.6062,-8.4404,9.967
11.771000,4.5549,2.9545,-8.1357,9.781
11.771000,4.6093,3.3125,-7.7522,9.608
11.772000,4.7287,3.6466,-7.2761,9.413
11.778000,4.8502,3.9229,-6.6916,9.148
11.784000,4.9184,4.1363,-6.0264,8.810
11.787000,4.9449,4.2745,-5.3488,8.446
11.792000,4.9438,4.3684,-4.6864,8.092
11.797000,4.9151,4.4130,-4.0641,7.756
11.803000,4.8418,4.3962,-3.5093,7.422
11.807000,4.7358,4.3464,-3.0011,7.094
11.813000,4.5876,4.2805,-2.5380,6.768
11.817000,4.3854,4.1839,-2.1156,6.420
11.822000,4.1126,4.0569,-1.7369,6.032
11.830000,3.7963,3.9377,-1.4098,5.648
11.834000,3.4583,3.8169,-1.1202,5.271
11.837000,3.0943,3.7163,-0.8803,4.915
11.843000,2.7192,3.6407,-0.6854,4.596
11.847000,2.3689,3.5760,-0.5353,4.323
11.853000,2.0394,3.5128,-0.4329,4.085
11.857000,1.7500,3.4488,-0.3703,3.885
11.870000,1.4673,3.3937,-0.3234,3.711
11.871000,1.1941,3.3382,-0.2992,3.558
11.872000,0.9352,3.2919,-0.2661,3.432
11.878000,0.7008,3.2432,-0.2531,3.328
11.912000,0.4886,3.2040,-0.2549,3.251
11.913000,0.3131,3.1433,-0.2451,3.168
11.913000,0.1698,3.0759,-0.2354,3.090
11.913000,0.0538,3.0231,-0.2114,3.031
11.913000,-0.0321,2.9948,-0.1731,3.000
11.914000,-0.0811,2.9764,-0.1084,2.980
11.914000,-0.0883,2.9848,-0.0222,2.986
11.919000,-0.0659,3.0198,0.0783,3.022
11.924000,-0.0309,3.0430,0.1930,3.049
11.930000,0.0311,3.0545,0.3405,3.074
11.933000,0.1271,3.0541,0.4944,3.097
11.943000,0.2447,3.0514,0.6306,3.125
11.943000,0.3789,3.0485,0.7610,3.165
11.949000,0.5153,3.0478,0.8947,3.218
11.953000,0.6367,3.0562,1.0270,3.286
11.958000,0.7382,3.0689,1.1740,3.368
11.965000,0.8031,3.0811,1.3142,3.445
11.968000,0.8335,3.0926,1.4448,3.514
11.972000,0.8490,3.1060,1.5466,3.572
11.978000,0.8375,3.1116,1.5932,3.595
12.000000,0.7941,3.1118,1.6207,3.597
12.001000,0.7046,3.1019,1.6315,3.575
12.001000,0.5787,3.0914,1.6257,3.540
12.002000,0.4191,3.0877,1.5936,3.500
12.003000,0.2525,3.1053,1.5186,3.466
12.008000,0.0739,3.1561,1.4155,3.460
12.013000,-0.0851,3.2187,1.3113,3.477
12.018000,-0.2225,3.2906,1.2108,3.513
12.023000,-0.3307,3.3576,1.1263,3.557
12.032000,-0.4075,3.4078,1.0772,3.597
12.034000,-0.4459,3.4386,1.0298,3.617
12.039000,-0.4485,3.4644,0.9869,3.630
12.043000,-0.4443,3.4514,0.9436,3.606
12.050000,-0.4166,3.4405,0.9025,3.581
12.054000,-0.3989,3.4315,0.8756,3.564
12.058000,-0.3820,3.4242,0.8628,3.552
12.065000,-0.3612,3.4304,0.8688,3.557
12.072000,-0.3558,3.4286,0.8887,3.560
12.109000,-0.3633,3.4044,0.9083,3.542
12.110000,-0.3907,3.3459,0.9224,3.493
12.110000,-0.4120,3.2817,0.9216,3.433
12.110000,-0.4415,3.2166,0.9011,3.369
12.110000,-0.4890,3.1598,0.8802,3.316
12.111000,-0.5518,3.0997,0.8354,3.257
12.111000,-0.6348,3.0385,0.7859,3.202
12.111000,-0.7236,2.9738,0.7272,3.146
12.119000,-0.7825,2.8816,0.6455,3.055
12.120000,-0.8021,2.7498,0.5411,2.915
12.123000,-0.7487,2.5836,0.4267,2.724
12.128000,-0.5991,2.3490,0.2837,2.441
12.133000,-0.3491,2.0385,0.0889,2.070
12.138000,-0.0279,1.6209,-0.1398,1.627
12.143000,0.3516,1.1025,-0.3994,1.224
12.148000,0.7702,0.4693,-0.6650,1.121
12.153000,1.1888,-0.2961,-0.9527,1.552
12.158000,1.5762,-1.1222,-1.2281,2.292
12.163000,1.9037,-2.0594,-1.4668,3.165
12.168000,2.2072,-3.0673,-1.6492,4.123
12.173000,2.4545,-4.1523,-1.7663,5.137
12.179000,2.6529,-5.3025,-1.8231,6.203
12.191000,2.7625,-6.5058,-1.8199,7.299
12.192000,2.7677,-7.7712,-1.7405,8.431
12.195000,2.6500,-9.0648,-1.5449,9.570
12.247000,2.3544,-10.3201,-1.2086,10.654
12.248000,1.8582,-11.4552,-0.7234,11.627
12.249000,1.1342,-12.3800,-0.0958,12.432
12.250000,0.2253,-13.0521,0.6368,13.070
12.251000,-0.8123,-13.4223,1.4449,13.524
12.252000,-1.8921,-13.4735,2.2715,13.794
12.252000,-2.9250,-13.2163,3.0497,13.875
12.253000,-3.8670,-12.7166,3.8078,13.826
12.253000,-4.6172,-12.0212,4.5023,13.642
12.254000,-5.1062,-11.1943,5.0901,13.315
12.254000,-5.2604,-10.3241,5.5492,12.847
12.255000,-5.0424,-9.4880,5.8726,12.245
12.258000,-4.4443,-8.7182,6.0634,11.512
12.264000,-3.5566,-8.0380,6.1287,10.715
12.270000,-2.4912,-7.4495,6.1384,9.969
12.273000,-1.3610,-6.9480,6.1102,9.352
12.281000,-0.2441,-6.5306,6.0487,8.905
12.285000,0.8147,-6.1774,5.9604,8.623
12.290000,1.7470,-5.8896,5.8641,8.493
12.295000,2.5280,-5.6110,5.7788,8.442
12.311000,3.1085,-5.3215,5.7256,8.412
12.314000,3.4831,-4.9737,5.6732,8.310
12.315000,3.6400,-4.6229,5.6287,8.143
12.315000,3.6007,-4.2668,5.5633,7.882
12.319000,3.3827,-3.9216,5.4364,7.508
12.324000,3.0078,-3.5586,5.2198,6.997
12.358000,2.5054,-3.1939,4.9118,6.372
12.359000,1.9242,-2.8200,4.5709,5.705
12.360000,1.2984,-2.4268,4.2357,5.051
12.360000,0.6836,-2.0424,3.9091,4.463
12.361000,0.0998,-1.6497,3.5897,3.952
12.361000,-0.4147,-1.2985,3.2803,3.552
12.361000,-0.8521,-0.9646,2.9837,3.249
12.369000,-1.2315,-0.6813,2.7027,3.047
12.370000,-1.5360,-0.4506,2.4636,2.938
12.374000,-1.7656,-0.2294,2.2573,2.875
12.381000,-1.9514,-0.0081,2.0929,2.862
12.386000,-2.0984,0.2203,1.9463,2.871
12.390000,-2.2089,0.4320,1.8125,2.890
12.394000,-2.3022,0.6294,1.6934,2.926
12.400000,-2.3640,0.8148,1.5821,2.959
12.404000,-2.4088,1.0023,1.4686,2.994
12.409000,-2.4368,1.1847,1.3528,3.028
12.417000,-2.4597,1.3333,1.2466,3.063
12.421000,-2.4706,1.4672,1.1328,3.089
12.424000,-2.4909,1.5767,0.9762,3.105
12.429000,-2.5206,1.6667,0.7769,3.120
12.474000,-2.5765,1.7800,0.5447,3.179
12.475000,-2.6346,1.8903,0.2800,3.255
12.476000,-2.7141,1.9952,0.0019,3.369
12.476000,-2.8196,2.0995,-0.2955,3.528
12.476000,-2.9366,2.1602,-0.6053,3.695
12.476000,-3.0506,2.2062,-0.9103,3.873
12.477000,-3.1423,2.2377,-1.2201,4.046
12.477000,-3.2236,2.2214,-1.5323,4.204
12.477000,-3.3062,2.1935,-1.8173,4.364
12.485000,-3.3565,2.1588,-2.0491,4.486
12.487000,-3.4054,2.1032,-2.2376,4.586
12.490000,-3.4670,2.0056,-2.3687,4.653
12.501000,-3.4259,1.8758,-2.4956,4.635
12.502000,-3.4093,1.7905,-2.6076,4.651
12.505000,-3.4838,1.7663,-2.6910,4.743
12.511000,-3.6301,1.7843,-2.7502,4.891
12.517000,-3.7689,1.8399,-2.8132,5.050
12.520000,-3.8756,1.9456,-2.8730,5.202
12.524000,-3.9005,2.0869,-2.9354,5.309
12.568000,-3.8508,2.2469,-2.9786,5.362
12.569000,-3.7318,2.4038,-2.9881,5.351
12.569000,-3.5536,2.5358,-2.9847,5.288
12.570000,-3.3189,2.6165,-2.9209,5.137
12.570000,-3.0381,2.6549,-2.8174,4.921
12.570000,-2.7187,2.6699,-2.6986,4.669
12.571000,-2.3923,2.6470,-2.5741,4.400
12.571000,-2.0497,2.6168,-2.4679,4.140
12.572000,-1.7079,2.6081,-2.3966,3.932
12.574000,-1.3919,2.6009,-2.3596,3.778
12.580000,-1.0971,2.5855,-2.3497,3.662
12.584000,-0.8407,2.5666,-2.3570,3.585
12.596000,-0.6538,2.5487,-2.4077,3.567
12.597000,-0.5127,2.5153,-2.4728,3.564
12.601000,-0.4297,2.4804,-2.5708,3.598
12.606000,-0.4212,2.4540,-2.6538,3.639
12.609000,-0.4369,2.4026,-2.7237,3.658
12.619000,-0.4908,2.3218,-2.7853,3.659
12.621000,-0.5754,2.2263,-2.8192,3.638
12.624000,-0.6664,2.1114,-2.8138,3.580
12.676000,-0.7493,1.9775,-2.7641,3.480
12.677000,-0.8238,1.8437,-2.6655,3.344
12.677000,-0.8632,1.7008,-2.5134,3.155
12.678000,-0.8744,1.5846,-2.3009,2.927
12.678000,-0.8432,1.4711,-2.0121,2.631
12.678000,-0.8031,1.3672,-1.6809,2.311
12.679000,-0.7681,1.2705,-1.3250,1.990
12.679000,-0.7263,1.1881,-0.9207,1.669
12.680000,-0.6965,1.0985,-0.4497,1.376
12.680000,-0.6955,1.0013,0.2035,1.236
12.680000,-0.7110,0.9207,0.9583,1.507
12.686000,-0.7595,0.9043,1.6268,2.010
12.689000,-0.7715,0.9378,2.0985,2.425
12.696000,-0.7230,1.0093,2.4594,2.755
12.700000,-0.6646,1.0779,2.7875,3.062
12.704000,-0.6083,1.1389,3.0944,3.353
12.709000,-0.5472,1.2015,3.3822,3.631
12.715000,-0.4504,1.2490,3.5766,3.815
12.720000,-0.3085,1.2622,3.6827,3.905
12.724000,-0.1530,1.2340,3.7099,3.913
12.737000,0.0184,1.1665,3.6656,3.847
12.738000,0.2245,1.0503,3.5576,3.716
12.739000,0.2308,0.8829,3.3887,3.509
12.745000,0.7308,0.6284,3.1357,3.280
12.793000,1.0059,0.3058,2.8282,3.017
12.794000,1.2788,-0.1065,2.4648,2.779
12.795000,1.5802,-0.6299,2.0682,2.678
12.796000,1.8672,-1.2618,1.6751,2.808
12.796000,2.1709,-1.9852,1.3053,3.218
12.796000,2.4459,-2.7881,0.9784,3.836
12.797000,2.6567,-3.6557,0.6806,4.570
12.797000,2.8086,-4.5661,0.3931,5.375
12.797000,2.9020,-5.4688,0.1167,6.192
12.798000,2.9330,-6.3704,-0.1644,7.015
12.800000,2.9240,-7.2892,-0.4020,7.864
12.805000,2.8377,-8.1842,-0.5499,8.680
12.809000,2.6920,-9.0403,-0.5579,9.449
12.817000,2.4379,-9.8040,-0.3594,10.109
12.820000,2.0938,-10.4314,0.0207,10.640
12.825000,1.6686,-10.8476,0.5972,10.991
12.833000,1.2284,-10.9609,1.3568,11.113
12.835000,0.8512,-10.7277,2.2521,10.995
12.840000,0.5949,-10.1817,3.1949,10.688
12.845000,0.4980,-9.4427,4.1030,10.308
12.886000,0.6672,-8.5380,4.9553,9.894
12.887000,1.1470,-7.5067,5.7485,9.524
12.887000,1.8973,-6.4363,6.5292,9.362
12.888000,2.8323,-5.4213,7.2070,9.453
12.888000,3.9024,-4.4772,7.7419,9.758
12.889000,5.0562,-3.6179,8.0845,10.199
12.889000,6.2130,-2.8733,8.2217,10.698
12.889000,7.3058,-2.2659,8.1747,11.195
12.890000,8.2924,-1.8230,7.9308,11.618
12.898000,9.1382,-1.4828,7.4663,11.893
12.901000,9.8221,-1.2346,6.7897,12.004
12.905000,10.3268,-1.0598,5.9449,11.963
12.910000,10.6301,-0.9540,4.9602,11.769
12.916000,10.7244,-0.9058,3.9067,11.450
12.920000,10.6053,-0.9103,2.8409,11.017
12.925000,10.2990,-0.9318,1.7852,10.494
12.932000,9.8089,-0.9271,0.7694,9.883
12.935000,9.1574,-0.8694,-0.1974,9.201
12.941000,8.3888,-0.7630,-1.0969,8.495
12.946000,7.5641,-0.6097,-1.9023,7.823
12.953000,6.6850,-0.4157,-2.6443,7.201
12.956000,5.8199,-0.1872,-3.3608,6.723
12.961000,4.9868,0.0790,-4.0601,6.431
13.017000,4.2324,0.4200,-4.7196,6.353
13.018000,3.5552,0.8269,-5.3149,6.448
13.019000,3.0471,1.3224,-5.8177,6.699
13.019000,2.8752,1.9472,-6.2545,7.154
13.020000,2.6110,2.4767,-6.4957,7.426
13.020000,2.2785,2.9257,-6.6090,7.578
13.020000,1.9260,3.2873,-6.6261,7.643
13.021000,1.5706,3.5693,-6.5180,7.595
13.021000,1.2699,3.8220,-6.3290,7.502
13.021000,1.0549,4.0671,-6.1076,7.413
13.022000,0.9469,4.3021,-5.8542,7.326
13.022000,0.9666,4.5193,-5.5934,7.256
13.026000,1.0678,4.6872,-5.3017,7.157
13.034000,1.1706,4.8124,-4.9965,7.035
13.036000,1.1833,4.8777,-4.7213,6.891
13.040000,1.1390,4.9016,-4.4667,6.729
13.046000,1.0538,4.8936,-4.2210,6.548
13.051000,0.9423,4.8918,-3.9793,6.376
13.056000,0.7947,4.8888,-3.7421,6.208
13.060000,0.6156,4.8844,-3.5071,6.044
13.071000,0.3933,4.8643,-3.2720,5.875
13.072000,0.1419,4.8330,-3.0368,5.710
13.076000,-0.1354,4.7910,-2.8163,5.559
13.128000,-0.4150,4.7092,-2.6272,5.408
13.129000,-0.7036,4.6024,-2.4524,5.262
13.130000,-1.0012,4.4729,-2.2801,5.119
13.130000,-1.3027,4.3113,-2.1028,4.971
13.130000,-1.6049,4.1422,-1.9139,4.837
13.131000,-1.8932,3.9703,-1.7347,4.728
13.131000,-2.1554,3.8030,-1.5343,4.633
13.131000,-2.4056,3.6620,-1.3198,4.576
13.132000,-2.6439,3.5185,-1.1034,4.537
13.132000,-2.8573,3.4066,-0.8903,4.535
13.132000,-3.0317,3.3023,-0.6755,4.534
13.139000,-3.1668,3.1985,-0.4425,4.523
13.141000,-3.2555,3.0952,-0.2202,4.497
13.147000,-3.3146,2.9972,-0.0086,4.469
13.151000,-3.3458,2.9001,0.1915,4.432
13.156000,-3.3351,2.7798,0.3966,4.360
13.162000,-3.3205,2.6675,0.5706,4.297
13.171000,-3.2926,2.5560,0.7178,4.230
13.174000,-3.2754,2.4619,0.8338,4.181
13.175000,-3.2660,2.3688,0.9323,4.141
13.225000,-3.2693,2.2839,1.0059,4.113
13.226000,-3.2874,2.1858,1.0668,4.089
13.226000,-3.3082,2.0485,1.1599,4.060
13.226000,-3.3385,1.8817,1.2467,4.030
13.227000,-3.3658,1.7028,1.3190,3.996
13.227000,-3.3996,1.5191,1.3645,3.966
13.227000,-3.4252,1.3834,1.3904,3.947
13.228000,-3.4307,1.2885,1.4324,3.935
13.228000,-3.4328,1.2394,1.4785,3.938
13.229000,-3.4241,1.2265,1.5281,3.945
13.236000,-3.4001,1.2378,1.5501,3.936
13.237000,-3.3440,1.2803,1.5444,3.900
13.241000,-3.2634,1.3754,1.5210,3.854
13.247000,-3.1560,1.4941,1.4847,3.794
13.252000,-3.0391,1.6337,1.4381,3.738
13.256000,-2.9272,1.7532,1.3694,3.677
13.261000,-2.8157,1.8645,1.3076,3.621
13.266000,-2.6977,1.9508,1.2292,3.549
13.271000,-2.5804,2.0119,1.1579,3.471
13.276000,-2.4926,2.0478,1.1014,3.409
13.287000,-2.4295,2.0634,1.0714,3.363
13.291000,-2.3716,2.0778,1.0748,3.331
13.292000,-2.3071,2.1102,1.0949,3.313
13.365000,-2.2213,2.1510,1.1310,3.292
13.367000,-2.0977,2.2000,1.1666,3.256
13.367000,-1.9148,2.2406,1.1919,3.179
13.367000,-1.6656,2.2365,1.1899,3.032
13.367000,-1.3359,2.1470,1.1583,2.781
13.368000,-0.9166,1.9838,1.0754,2.436
13.368000,-0.4229,1.7488,0.9495,2.034
13.368000,0.1301,1.4751,0.7975,1.682
13.369000,0.6936,1.1763,0.6273,1.503
13.369000,1.2716,0.8402,0.3918,1.574
13.369000,1.8705,0.4469,0.1470,1.929
13.370000,2.4553,-0.0541,-0.0672,2.457
13.370000,3.0186,-0.7206,-0.2481,3.113
13.370000,3.5787,-1.5094,-0.4195,3.907
13.371000,4.1208,-2.3730,-0.6165,4.795
13.372000,4.5655,-3.2565,-0.7960,5.664
13.376000,4.9364,-4.2078,-1.0119,6.565
13.381000,5.3007,-5.1596,-1.2969,7.510
13.386000,5.5648,-6.0783,-1.5830,8.392
13.391000,5.7027,-6.9302,-1.8479,9.163
13.403000,5.7361,-7.6673,-2.0930,9.802
13.404000,5.7017,-8.2747,-2.3366,10.317
13.406000,5.6357,-8.7667,-2.5708,10.734
13.411000,5.5768,-9.1716,-2.8087,11.095
13.457000,5.5085,-9.5108,-3.0183,11.398
13.458000,5.4119,-9.8200,-3.1314,11.642
13.458000,5.2406,-10.0722,-3.1103,11.772
13.459000,4.9767,-10.1976,-2.9174,11.716
13.459000,4.6214,-10.1577,-2.5345,11.444
13.460000,4.1641,-9.9355,-1.9853,10.954
13.460000,3.6227,-9.5167,-1.3216,10.268
13.461000,3.0416,-8.9607,-0.5924,9.481
13.461000,2.4834,-8.3157,0.1578,8.680
13.462000,1.9770,-7.6439,0.9006,7.947
13.468000,1.5702,-6.9766,1.6462,7.338
13.472000,1.2721,-6.3643,2.3598,6.906
13.477000,1.1281,-5.8287,3.0004,6.652
13.491000,1.1130,-5.3750,3.5793,6.553
13.492000,1.2332,-4.9966,4.0713,6.562
13.493000,1.4181,-4.6679,4.4756,6.621
13.545000,1.6187,-4.3876,4.8136,6.711
13.548000,1.7890,-4.1462,5.1030,6.814
13.549000,1.8736,-3.9227,5.3412,6.887
13.549000,1.8434,-3.7197,5.5320,6.916
13.550000,1.7058,-3.5612,5.6891,6.925
13.551000,1.4539,-3.4853,5.8166,6.935
13.551000,1.1031,-3.4524,5.8877,6.914
13.552000,0.6349,-3.4264,5.8906,6.844
13.552000,0.0860,-3.3397,5.8335,6.722
13.553000,-0.5167,-3.1989,5.7200,6.574
13.553000,-1.1654,-3.0327,5.5820,6.459
13.554000,-1.8257,-2.8686,5.3589,6.347
13.557000,-2.4661,-2.6966,5.0208,6.210
13.563000,-3.0621,-2.5115,4.5933,6.065
13.567000,-3.5970,-2.3273,4.1068,5.935
13.572000,-4.0923,-2.1273,3.5791,5.838
13.578000,-4.5332,-1.9345,3.0532,5.798
13.582000,-4.8961,-1.7608,2.5416,5.791
13.587000,-5.1929,-1.6012,2.0739,5.816
13.601000,-5.4335,-1.4556,1.6265,5.856
13.602000,-5.6012,-1.3456,1.2113,5.887
13.608000,-5.6053,-1.3759,1.1308,5.881
13.610000,-5.6973,-1.2670,0.7573,5.885
13.612000,-5.7362,-1.0359,0.1680,5.831
13.667000,-5.7416,-0.9197,-0.1323,5.816
13.668000,-5.7327,-0.7632,-0.3882,5.796
13.668000,-5.7145,-0.5807,-0.6086,5.776
13.669000,-5.6778,-0.3940,-0.7939,5.747
13.669000,-5.6418,-0.1868,-0.9563,5.725
13.669000,-5.6139,0.0145,-1.1244,5.725
13.670000,-5.5943,0.1929,-1.3035,5.747
13.671000,-5.5783,0.1811,-1.3684,5.747
13.671000,-5.5659,0.3259,-1.5611,5.790
13.672000,-5.6290,0.6057,-1.9172,5.977
13.672000,-5.6812,0.7336,-2.1613,6.123
13.672000,-5.7392,0.8915,-2.4205,6.292
13.677000,-5.7866,1.0725,-2.6985,6.474
13.682000,-5.8257,1.2478,-2.9762,6.660
13.687000,-5.8541,1.4226,-3.2605,6.850
13.691000,-5.8718,1.5849,-3.5271,7.031
13.701000,-5.8883,1.7351,-3.7762,7.207
13.703000,-5.8823,1.8493,-4.0262,7.364
13.706000,-5.8678,1.9328,-4.2365,7.491
13.713000,-5.8497,2.0048,-4.4264,7.605
13.727000,-5.8349,2.0728,-4.6124,7.721
13.730000,-5.8019,2.1369,-4.7732,7.811
13.731000,-5.7341,2.2256,-4.9178,7.875
13.733000,-5.6268,2.3271,-5.0343,7.901
13.784000,-5.4730,2.4151,-5.1176,7.872
13.785000,-5.2943,2.5086,-5.1605,7.807
13.785000,-5.0745,2.5950,-5.1962,7.713
13.785000,-4.8236,2.6766,-5.2510,7.616
13.786000,-4.5180,2.7386,-5.3098,7.490
13.786000,-4.1967,2.7567,-5.3746,7.355
13.786000,-3.8810,2.7718,-5.4283,7.226
13.787000,-3.5478,2.7973,-5.4639,7.090
13.787000,-3.2090,2.8118,-5.4455,6.918
13.788000,-2.8574,2.7980,-5.3973,6.718
13.788000,-2.8279,2.7655,-5.2984,6.612
13.792000,-2.2446,2.6928,-5.1442,6.225
13.799000,-2.0338,2.5673,-4.9718,5.954
13.801000,-1.8932,2.3749,-4.7383,5.628
13.806000,-1.8106,2.1470,-4.4491,5.261
13.812000,-1.8283,1.8837,-4.1312,4.895
13.818000,-1.9171,1.5999,-3.7657,4.518
13.821000,-2.0599,1.2688,-3.3970,4.170
13.827000,-2.1773,0.8981,-3.0733,3.872
13.865000,-2.2188,0.5455,-2.8068,3.619
13.866000,-2.1484,0.2324,-2.5735,3.360
13.867000,-1.9663,-0.0651,-2.3305,3.050
13.867000,-1.6349,-0.3506,-2.0743,2.664
13.867000,-1.2050,-0.6674,-1.8606,2.315
13.868000,-0.6391,-0.9852,-1.7522,2.109
13.868000,0.0258,-1.2476,-1.7824,2.176
13.869000,0.7502,-1.4839,-1.9145,2.536
13.872000,1.4559,-1.7171,-2.1289,3.098
13.876000,2.0845,-1.9333,-2.4271,3.738
13.882000,2.5922,-2.1763,-2.8367,4.416
13.887000,3.0069,-2.4941,-3.3706,5.160
13.891000,3.3234,-2.9034,-4.0264,5.974
13.896000,3.5486,-3.4834,-4.7453,6.874
13.901000,3.6680,-4.3247,-5.3842,7.820
13.906000,3.6152,-5.4100,-5.9708,8.831
13.913000,3.3454,-6.6552,-6.4809,9.873
13.918000,2.7975,-7.9833,-6.8486,10.884
13.922000,1.9972,-9.3167,-7.0341,11.843
13.927000,0.9439,-10.6334,-6.9987,12.765
13.946000,-0.3125,-11.8556,-6.7190,13.631
13.947000,-1.6692,-12.9344,-6.1448,14.417
13.947000,-3.0340,-13.7951,-5.2955,15.085
13.950000,-4.2855,-14.3941,-4.2102,15.597
13.952000,-5.3372,-14.7292,-2.9466,15.941
13.957000,-6.1911,-14.8697,-1.5420,16.181
13.962000,-6.8657,-14.9397,0.0191,16.442
13.990000,-7.2692,-15.0032,1.7504,16.763
13.991000,-7.2646,-15.1303,3.6997,17.187
13.991000,-6.9091,-15.2842,5.8614,17.768
13.992000,-6.3373,-15.4041,8.0515,18.501
13.992000,-5.6685,-15.3544,10.1179,19.242
13.993000,-4.8924,-14.9947,12.0682,19.860
14.001000,-4.0521,-14.2996,13.8379,20.307
14.002000,-3.1880,-13.3350,15.2744,20.525
14.007000,-2.2400,-12.1767,16.2307,20.414
14.012000,-1.2057,-10.9488,16.6401,19.956
14.017000,-0.0417,-9.7234,16.5592,19.203
14.022000,1.2741,-8.4977,16.0852,18.236
14.027000,2.6884,-7.2638,15.2806,17.131
14.032000,4.1397,-6.0410,14.1861,15.965
14.037000,5.5664,-4.8343,12.8667,14.829
14.042000,6.8720,-3.7221,11.4567,13.868
14.069000,8.0103,-2.6955,10.0377,13.122
14.070000,8.9662,-1.7461,8.6544,12.583
14.070000,9.7360,-0.8822,7.3515,12.232
14.070000,10.3425,-0.0691,6.1782,12.047
14.071000,10.7945,0.7503,5.1278,11.974
14.074000,11.1395,1.5479,4.2254,12.014
14.077000,11.3554,2.3215,3.4520,12.093
14.082000,11.4341,3.0492,2.8006,12.161
14.087000,11.3939,3.7070,2.2618,12.193
14.092000,11.2300,4.2691,1.8184,12.151
14.097000,10.9483,4.7087,1.4523,12.006
14.102000,10.5564,4.9836,1.1441,11.730
14.107000,10.1241,5.1229,0.9131,11.383
14.112000,9.7140,5.2016,0.6900,11.041
14.117000,9.3315,5.2630,0.5083,10.725
14.122000,8.9712,5.2880,0.3666,10.420
14.127000,8.6503,5.2745,0.2267,10.134
14.132000,8.3067,5.2108,0.1102,9.806
14.137000,7.9408,5.1091,0.0394,9.442
14.142000,7.5509,4.9937,0.0400,9.053
14.160000,7.1354,4.8936,0.0862,8.653
14.160000,6.6996,4.8164,0.1797,8.253
14.161000,6.2370,4.7479,0.2983,7.844
14.167000,5.7319,4.6958,0.4060,7.421
14.167000,5.1945,4.6699,0.5141,7.004
14.173000,4.6381,4.6468,0.6038,6.593
14.178000,4.0705,4.6507,0.6865,6.218
14.183000,3.5166,4.6772,0.7405,5.898
14.187000,3.0127,4.7148,0.7655,5.647
14.192000,2.5114,4.7634,0.7635,5.439
14.199000,2.0281,4.7998,0.7158,5.260
14.204000,1.5868,4.8241,0.6225,5.116
14.207000,1.1711,4.8653,0.4788,5.027
14.213000,0.8146,4.8946,0.2995,4.971
14.217000,0.5102,4.9241,0.1159,4.952
14.222000,0.2368,4.9448,-0.0737,4.951
14.228000,-0.0010,4.9780,-0.2333,4.983
14.233000,-0.2247,5.0262,-0.3747,5.045
14.238000,-0.4105,5.0990,-0.4835,5.138
14.243000,-0.5634,5.1963,-0.5572,5.256
14.251000,-0.7001,5.2871,-0.6096,5.368
14.256000,-0.7995,5.3784,-0.6239,5.473
14.257000,-0.8623,5.4483,-0.6122,5.550
14.263000,-0.9006,5.5088,-0.5790,5.612
14.315000,-0.9198,5.5380,-0.5366,5.639
14.316000,-0.9486,5.5312,-0.5011,5.634
14.316000,-1.0159,5.4932,-0.4465,5.604
14.317000,-1.1123,5.4407,-0.3656,5.565
14.317000,-1.2064,5.3545,-0.3138,5.498
14.317000,-1.2912,5.2468,-0.2908,5.411
14.318000,-1.3711,5.1130,-0.3085,5.303
14.318000,-1.4269,4.9364,-0.3930,5.153
14.318000,-1.4610,4.7292,-0.5630,4.982
14.319000,-1.4327,4.4772,-0.8701,4.781
14.319000,-1.3709,4.1924,-1.3107,4.602
14.323000,-1.3974,3.8967,-1.6876,4.470
14.328000,-1.6313,3.6166,-1.8907,4.395
14.333000,-1.9950,3.4315,-1.8825,4.393
14.339000,-2.3604,3.3802,-1.7120,4.464
14.344000,-2.6430,3.4370,-1.4804,4.581
14.349000,-2.8133,3.5421,-1.2817,4.701
14.353000,-2.8548,3.6456,-1.1251,4.765
14.358000,-2.7486,3.7161,-1.0056,4.730
14.364000,-2.5050,3.6912,-0.8824,4.547
14.370000,-2.1532,3.5802,-0.7339,4.242
14.373000,-1.7084,3.3946,-0.5656,3.842
14.378000,-1.1664,3.1746,-0.4158,3.408
14.389000,-0.5210,2.9317,-0.1840,2.983
14.390000,0.1790,2.6533,0.1722,2.665
14.393000,0.9186,2.3700,0.6422,2.622
14.400000,1.6657,2.0954,1.1833,2.927
14.404000,2.4266,1.8217,1.7372,3.496
14.410000,3.1858,1.5434,2.2883,4.215
14.414000,3.9067,1.2361,2.8117,4.969
14.418000,4.6002,0.8896,3.2876,5.724
14.423000,5.2343,0.5129,3.6692,6.413
14.428000,5.7772,0.1008,3.9612,7.006
14.434000,6.2165,-0.3591,4.1180,7.465
14.438000,6.5639,-0.9125,4.1325,7.810
14.443000,6.8839,-1.6145,4.0031,8.125
14.449000,7.2561,-2.4909,3.7183,8.525
14.453000,7.7232,-3.6542,3.2696,9.148
14.458000,8.3428,-5.1593,2.6559,10.162
14.465000,9.1218,-7.0156,1.8812,11.660
14.468000,9.9279,-9.0919,1.0118,13.500
14.473000,10.5563,-11.1367,0.0660,15.345
14.478000,10.7322,-12.8467,-0.8612,16.762
14.509000,10.2949,-13.9636,-1.6345,17.425
14.510000,9.2478,-14.3523,-2.1152,17.204
14.511000,7.7848,-14.0722,-2.3375,16.251
14.511000,6.2210,-13.3145,-2.3890,14.889
14.511000,4.7868,-12.2561,-2.3154,13.360
14.512000,3.6048,-11.1020,-2.1196,11.863
14.520000,2.6912,-10.0244,-1.8112,10.536
14.521000,2.0140,-9.1554,-1.2496,9.457
14.523000,1.3993,-8.7039,0.3765,8.824
14.528000,0.6788,-8.1769,2.3176,8.526
14.533000,0.3958,-7.6982,2.3889,8.070
14.538000,0.9557,-7.4331,2.1806,7.805
14.543000,1.5826,-7.2310,2.3478,7.766
14.549000,1.8959,-7.1044,2.7614,7.854
14.558000,1.9690,-7.0614,3.3244,8.049
14.559000,1.9603,-7.0538,3.8556,8.274
14.563000,1.9463,-7.0168,4.2459,8.429
14.569000,1.8550,-6.9128,4.5430,8.477
14.573000,1.5894,-6.7647,4.7591,8.422
14.579000,1.1663,-6.5945,4.9142,8.306
14.584000,0.6627,-6.4018,4.9751,8.135
14.588000,0.1199,-6.2293,4.8831,7.916
14.614000,-0.4287,-6.1057,4.6367,7.679
14.615000,-0.9386,-6.0175,4.2545,7.429
14.616000,-1.4055,-5.9577,3.7687,7.188
14.616000,-1.8244,-5.9165,3.2188,6.978
14.616000,-2.2095,-5.8481,2.6345,6.784
14.619000,-2.5876,-5.7435,2.0931,6.638
14.623000,-2.9483,-5.6109,1.5810,6.533
14.629000,-3.2942,-5.4504,1.1175,6.466
14.636000,-3.6086,-5.2500,0.7027,6.409
14.642000,-3.9035,-4.9999,0.3389,6.352
14.643000,-4.1769,-4.7199,0.0259,6.303
14.648000,-4.4332,-4.4088,-0.2364,6.257
14.653000,-4.6894,-4.0649,-0.4343,6.221
14.659000,-4.8667,-3.6879,-0.5851,6.134
14.664000,-4.9820,-3.3188,-0.7082,6.028
14.668000,-5.1459,-3.0226,-0.8185,6.024
14.673000,-5.2860,-2.7863,-0.9399,6.049
14.679000,-5.4195,-2.5841,-1.0417,6.094
14.684000,-5.5298,-2.3561,-1.1632,6.122
14.688000,-5.6624,-2.1600,-1.3022,6.199
14.694000,-5.7961,-1.9554,-1.4422,6.285
14.719000,-5.9352,-1.7320,-1.5616,6.377
14.720000,-6.0704,-1.4902,-1.6705,6.470
14.720000,-6.2401,-1.2708,-1.7641,6.608
14.720000,-6.3988,-1.0449,-1.8662,6.747
14.720000,-6.5513,-0.8294,-1.9363,6.882
14.724000,-6.7215,-0.6358,-2.0126,7.045
14.730000,-6.8759,-0.4715,-2.1019,7.205
14.734000,-7.0361,-0.3077,-2.2043,7.380
14.738000,-7.1998,-0.1516,-2.2858,7.555
14.744000,-7.3789,-0.0441,-2.3439,7.742
14.755000,-7.5494,0.0659,-2.3736,7.914
14.756000,-7.7209,0.1591,-2.3869,8.083
14.760000,-7.8669,0.2189,-2.4055,8.229
14.764000,-7.9971,0.2767,-2.4248,8.361
14.769000,-8.1282,0.2942,-2.4375,8.491
14.774000,-8.2483,0.2813,-2.4433,8.607
14.779000,-8.4003,0.2380,-2.4233,8.746
14.784000,-8.5602,0.1767,-2.3918,8.890
14.789000,-8.7160,0.1049,-2.3605,9.031
14.794000,-8.8485,0.0346,-2.3196,9.148
14.801000,-8.9623,-0.0074,-2.2923,9.251
14.804000,-9.0551,-0.0522,-2.2686,9.335
14.809000,-9.1197,-0.0825,-2.2452,9.392
14.854000,-9.1536,-0.1317,-2.2093,9.417
14.855000,-9.1376,-0.1732,-2.1389,9.386
14.856000,-9.0479,-0.2214,-2.0070,9.270
14.856000,-8.9109,-0.2715,-1.8496,9.105
14.857000,-8.7124,-0.2999,-1.6547,8.873
14.857000,-8.4453,-0.3069,-1.4323,8.571
14.858000,-8.1574,-0.2974,-1.1874,8.249
14.859000,-7.8444,-0.2675,-0.9085,7.901
14.860000,-7.5396,-0.2294,-0.6199,7.569
14.860000,-7.2431,-0.1857,-0.3389,7.253
14.865000,-6.9620,-0.1341,-0.0920,6.964
14.869000,-6.6771,-0.0749,0.1423,6.679
14.874000,-6.3934,-0.0016,0.3517,6.403
14.880000,-6.0967,0.0761,0.5338,6.121
14.885000,-5.7989,0.1436,0.7220,5.845
14.890000,-5.4953,0.2030,0.8990,5.572
14.895000,-5.1954,0.2352,1.0314,5.302
14.899000,-4.8877,0.2440,1.1236,5.021
14.904000,-4.5625,0.2271,1.2092,4.726
14.909000,-4.2201,0.2010,1.3024,4.421
14.916000,-3.8917,0.1749,1.4219,4.147
14.919000,-3.6225,0.1252,1.5461,3.941
14.924000,-3.3984,0.0463,1.6695,3.787
14.963000,-3.2265,-0.0467,1.7799,3.685
14.964000,-3.1063,-0.1323,1.8726,3.630
14.964000,-3.0211,-0.2030,1.9668,3.611
14.965000,-2.9679,-0.2748,2.0843,3.637
14.965000,-2.9039,-0.3221,2.2606,3.694
14.965000,-2.7952,-0.3895,2.4955,3.767
14.966000,-2.6225,-0.4794,2.7976,3.864
14.966000,-2.3716,-0.5820,3.1086,3.953
14.970000,-2.0326,-0.6899,3.3563,3.984
14.974000,-1.5921,-0.8282,3.4876,3.922
14.980000,-1.0575,-0.9708,3.5173,3.799
14.984000,-0.4581,-1.1469,3.4578,3.672
14.995000,0.1602,-1.3908,3.3119,3.596
14.995000,0.7589,-1.7096,3.1106,3.630
14.999000,1.3155,-2.1284,2.8300,3.778
15.005000,1.8134,-2.6158,2.4319,4.006
15.009000,2.2622,-3.1935,1.9004,4.351
15.015000,2.6593,-3.8420,1.2608,4.840
15.019000,2.9980,-4.5561,0.5958,5.486
15.024000,3.2611,-5.3579,-0.0743,6.273
15.064000,3.4492,-6.2367,-0.7485,7.166
15.065000,3.5583,-7.2111,-1.4375,8.169
15.065000,3.5534,-8.2774,-2.1203,9.254
15.065000,3.3835,-9.3983,-2.7188,10.352
15.066000,3.1929,-10.5562,-3.2986,11.511
15.066000,3.0409,-11.6371,-3.8101,12.617
15.067000,2.8690,-12.5302,-4.1421,13.505
15.067000,2.6977,-13.0843,-4.1769,13.997
15.070000,2.6006,-13.2198,-3.8575,14.015
15.074000,2.6352,-12.9237,-3.1335,13.557
15.080000,2.8788,-12.3017,-2.1241,12.811
15.085000,3.4388,-11.4530,-0.9489,11.996
15.089000,4.3573,-10.4941,0.3534,11.368
15.095000,5.6186,-9.5171,1.7206,11.185
15.099000,7.0795,-8.5542,3.1002,11.528
15.106000,8.5777,-7.6280,4.4052,12.295
15.110000,9.9790,-6.7255,5.5582,13.255
15.117000,11.1974,-5.8356,6.4988,14.201
15.119000,12.1773,-4.9388,7.1914,14.980
15.124000,12.9397,-4.0126,7.6052,15.536
15.164000,13.4914,-3.0732,7.6967,15.834
15.164000,13.8244,-2.1808,7.4495,15.854
15.165000,13.8714,-1.3472,6.8723,15.539
15.165000,13.6884,-0.6031,6.0315,14.970
15.166000,13.5161,-0.0184,4.9184,14.383
15.166000,13.2927,0.4717,3.6917,13.804
15.166000,12.9726,0.8910,2.4548,13.233
15.167000,12.5652,1.2561,1.2797,12.693
15.170000,12.0807,1.6392,0.2374,12.194
15.174000,11.4730,2.0542,-0.7026,11.677
15.181000,10.7861,2.5113,-1.5035,11.176
15.185000,10.0136,2.9844,-2.1497,10.668
15.189000,9.2161,3.4408,-2.6528,10.189
15.196000,8.4260,3.9003,-3.0791,9.782
15.200000,7.6984,4.3487,-3.4059,9.475
15.206000,7.0295,4.7844,-3.6280,9.245
15.210000,6.4172,5.1694,-3.7164,9.040
15.215000,5.8143,5.4922,-3.6663,8.798
15.220000,5.2594,5.7580,-3.4975,8.547
15.225000,4.7555,5.9696,-3.2414,8.292
15.234000,4.3173,6.1202,-2.9157,8.037
15.235000,3.9784,6.2387,-2.5450,7.825
15.240000,3.7507,6.3274,-2.1637,7.667
15.245000,3.6075,6.3578,-1.7891,7.526
15.286000,3.5031,6.3656,-1.4364,7.406
15.286000,3.4107,6.3434,-1.1060,7.287
15.287000,3.2966,6.2982,-0.8009,7.154
15.287000,3.1582,6.2373,-0.5023,7.009
15.287000,2.9812,6.1772,-0.2418,6.863
15.288000,2.7539,6.1134,-0.0100,6.705
15.288000,2.4933,6.0530,0.1928,6.549
15.288000,2.2045,5.9818,0.3856,6.387
15.290000,1.8973,5.9047,0.5371,6.225
15.295000,1.5694,5.8432,0.6639,6.087
15.303000,1.2431,5.7858,0.7686,5.968
15.306000,0.9234,5.7325,0.8415,5.867
15.311000,0.6153,5.6883,0.9019,5.792
15.315000,0.3023,5.6173,0.9402,5.703
15.320000,0.0158,5.5270,0.9685,5.611
15.325000,-0.2605,5.4104,1.0014,5.508
15.331000,-0.5168,5.2774,1.0460,5.405
15.335000,-0.7505,5.1377,1.1022,5.308
15.340000,-0.9780,5.0177,1.1630,5.243
15.345000,-1.2090,4.9294,1.2474,5.227
15.353000,-1.4428,4.8804,1.3359,5.262
15.356000,-1.6554,4.8396,1.4332,5.312
15.361000,-1.8249,4.8550,1.5344,5.409
15.420000,-1.9299,4.8884,1.6295,5.502
15.422000,-1.9466,4.9157,1.7043,5.555
15.422000,-1.8990,4.9515,1.7634,5.589
15.422000,-1.7947,4.9642,1.8164,5.582
15.423000,-1.6629,4.9515,1.8558,5.543
15.423000,-1.5111,4.9034,1.8552,5.456
15.423000,-1.3229,4.8223,1.8048,5.316
15.424000,-1.1033,4.7224,1.7027,5.140
15.424000,-0.8791,4.6226,1.5444,4.952
15.424000,-0.6625,4.4940,1.3588,4.741
15.424000,-0.4491,4.3436,1.1489,4.515
15.425000,-0.2536,4.1832,0.9481,4.297
15.425000,-0.0951,4.0199,0.7666,4.093
15.434000,0.0239,3.8440,0.6165,3.893
15.435000,0.1106,3.6533,0.5002,3.689
15.440000,0.1650,3.5050,0.4081,3.533
15.445000,0.2040,3.3919,0.3545,3.416
15.451000,0.2156,3.3308,0.3419,3.355
15.455000,0.2046,3.2977,0.3440,3.322
15.460000,0.1614,3.2804,0.3801,3.306
15.466000,0.0958,3.2815,0.4546,3.314
15.470000,0.0315,3.2697,0.5554,3.317
15.475000,-0.0358,3.2645,0.6537,3.329
15.518000,-0.0368,3.2680,0.7230,3.347
15.519000,-0.0006,3.2779,0.7634,3.366
15.519000,0.0535,3.2556,0.7700,3.346
15.520000,0.1370,3.2104,0.7835,3.307
15.520000,0.2406,3.1210,0.8231,3.237
15.520000,0.3496,2.9991,0.8595,3.139
15.521000,0.4734,2.8518,0.8688,3.019
15.521000,0.6501,2.6861,0.7771,2.871
15.521000,0.8790,2.4681,0.6330,2.695
15.527000,1.1625,2.1333,0.4445,2.470
15.531000,1.4925,1.6885,0.2601,2.269
15.536000,1.8782,1.1549,0.0897,2.207
15.541000,2.2518,0.5129,-0.1455,2.314
15.545000,2.5794,-0.2117,-0.4115,2.621
15.550000,2.8542,-1.0496,-0.7027,3.121
15.555000,3.0117,-1.9890,-1.0260,3.752
15.560000,3.1075,-3.0197,-1.3446,4.537
15.566000,3.1664,-4.1581,-1.6465,5.480
15.570000,3.2244,-5.4088,-1.9335,6.587
15.575000,3.3024,-6.6936,-2.2365,7.792
15.612000,3.3694,-8.0005,-2.5476,9.047
15.615000,3.4523,-9.3052,-2.8616,10.329
15.616000,3.5327,-10.5879,-3.1392,11.595
15.617000,3.5317,-11.8199,-3.3298,12.778
15.617000,3.3843,-12.9255,-3.3886,13.784
15.618000,3.0413,-13.8420,-3.2942,14.550
15.618000,2.5116,-14.4723,-3.0569,15.003
15.619000,1.7993,-14.8080,-2.6796,15.156
15.621000,0.9990,-14.7596,-2.1576,14.950
15.625000,0.2248,-14.3545,-1.5453,14.439
15.632000,-0.4466,-13.6645,-0.8999,13.701
15.638000,-0.9480,-12.7492,-0.2174,12.786
15.641000,-1.2513,-11.7262,0.5160,11.804
15.648000,-1.3092,-10.7205,1.2710,10.875
15.651000,-1.0843,-9.7972,2.0000,10.058
15.656000,-0.5997,-9.0174,2.6808,9.427
15.661000,0.1189,-8.3919,3.3172,9.025
15.666000,0.9955,-7.9247,3.9007,8.889
15.671000,1.9492,-7.5649,4.4301,8.981
15.677000,2.8489,-7.2853,4.9098,9.236
15.686000,3.6238,-7.0249,5.3292,9.533
15.687000,4.2273,-6.7513,5.7154,9.804
15.691000,4.6489,-6.4390,6.0430,9.980
15.742000,4.8903,-6.0793,6.2902,10.022
15.743000,4.9320,-5.7083,6.4462,9.923
15.743000,4.7909,-5.3286,6.5089,9.680
15.743000,4.4504,-4.9711,6.4689,9.293
15.744000,3.9377,-4.6332,6.3026,8.758
15.744000,3.2844,-4.3383,6.0348,8.126
15.744000,2.5613,-4.0734,5.6645,7.432
15.745000,1.8074,-3.8334,5.1976,6.706
15.745000,1.0116,-3.6630,4.6640,6.016
15.746000,0.2348,-3.5230,4.1130,5.421
15.746000,-0.5106,-3.3986,3.5763,4.960
15.754000,-1.2138,-3.2598,3.0601,4.633
15.756000,-1.8911,-3.1109,2.5483,4.444
15.762000,-2.5132,-2.9561,2.0678,4.397
15.766000,-3.0559,-2.7472,1.6050,4.412
15.772000,-3.5194,-2.4961,1.1674,4.470
15.776000,-3.9150,-2.2285,0.7657,4.569
15.782000,-4.2478,-1.9564,0.3883,4.693
15.786000,-4.5131,-1.6631,0.0330,4.810
15.791000,-4.6871,-1.3868,-0.3021,4.897
15.803000,-4.6125,-1.0970,-0.6718,4.788
15.803000,-4.5362,-0.8108,-0.9863,4.712
