time,ax,ay,az,aT
0.003000,-0.0541,0.2330,-1.0442,1.071
0.004000,-0.0086,0.2218,-0.8197,0.849
0.004000,-0.0108,0.2162,-0.5740,0.613
0.004000,-0.0291,0.2112,-0.3741,0.431
0.016000,-0.0132,0.2160,-0.2151,0.305
0.017000,0.0150,0.1971,-0.0779,0.212
0.018000,0.0096,0.1447,0.0641,0.159
0.036000,-0.0030,0.0849,0.2058,0.223
0.036000,-0.0224,0.0105,0.3308,0.332
0.036000,-0.0436,-0.0717,0.4342,0.442
0.044000,-0.0779,-0.1403,0.4994,0.525
0.045000,-0.1085,-0.1905,0.5313,0.575
0.058000,-0.1258,-0.2127,0.5250,0.580
0.059000,-0.1445,-0.1999,0.4759,0.536
0.059000,-0.1507,-0.1855,0.4175,0.481
0.074000,-0.1517,-0.1406,0.3114,0.374
0.075000,-0.1478,-0.1034,0.2031,0.272
0.075000,-0.1271,-0.0690,0.0902,0.170
0.079000,-0.1065,-0.0346,-0.0081,0.112
0.092000,-0.0835,0.0045,-0.0849,0.119
0.093000,-0.0465,0.0294,-0.1568,0.166
0.094000,-0.0169,0.0401,-0.1952,0.200
0.118000,0.0245,0.0487,-0.2311,0.237
0.118000,0.0513,0.0674,-0.2408,0.255
0.119000,0.0732,0.0960,-0.2195,0.251
0.119000,0.0810,0.1105,-0.2006,0.243
0.119000,0.0840,0.1184,-0.1770,0.229
0.123000,0.0872,0.1241,-0.1559,0.217
0.128000,0.0978,0.1276,-0.1228,0.202
0.135000,0.1085,0.1483,-0.0898,0.205
0.139000,0.1124,0.1525,-0.0545,0.197
0.143000,0.1142,0.1615,-0.0240,0.199
0.149000,0.1187,0.1636,-0.0103,0.202
0.154000,0.1213,0.1609,-0.0180,0.202
0.159000,0.1170,0.1560,-0.0425,0.200
0.167000,0.0915,0.1443,-0.0790,0.188
0.169000,0.0730,0.1330,-0.0915,0.177
0.174000,0.0690,0.1124,-0.0801,0.154
0.178000,0.0649,0.1016,-0.0664,0.138
0.184000,0.0463,0.0863,-0.0288,0.102
0.189000,0.0132,0.0975,0.0326,0.104
0.193000,-0.0009,0.1086,0.1155,0.159
0.206000,-0.0056,0.1123,0.2007,0.230
0.207000,0.0039,0.0991,0.2691,0.287
0.209000,0.0086,0.0926,0.3088,0.322
0.215000,0.0157,0.0834,0.3245,0.335
0.220000,0.0154,0.0691,0.3259,0.334
0.224000,0.0268,0.0760,0.3011,0.312
0.229000,0.0187,0.0659,0.2691,0.278
0.235000,0.0024,0.0603,0.2467,0.254
0.239000,-0.0217,0.0592,0.2721,0.279
0.244000,-0.0322,0.0601,0.3453,0.352
0.250000,-0.0244,0.0580,0.4137,0.418
0.254000,-0.0121,0.0502,0.4676,0.470
0.259000,-0.0075,0.0393,0.4929,0.495
0.266000,-0.0031,0.0396,0.5350,0.537
0.269000,0.0110,0.0390,0.5724,0.574
0.274000,0.0131,0.0518,0.5955,0.598
0.291000,0.0106,0.0636,0.5756,0.579
0.292000,0.0012,0.0649,0.5200,0.524
0.292000,-0.0008,0.0558,0.4503,0.454
0.294000,0.0045,0.0579,0.3855,0.390
0.298000,-0.0018,0.0762,0.2969,0.307
0.304000,-0.0008,0.0965,0.1871,0.210
0.309000,0.0171,0.0853,0.0463,0.099
0.324000,0.0205,0.0813,-0.1110,0.139
0.325000,0.0141,0.0799,-0.2371,0.251
0.325000,-0.0115,0.0717,-0.3081,0.317
0.329000,-0.0584,0.0523,-0.3528,0.361
0.335000,-0.1098,0.0477,-0.3473,0.367
0.342000,-0.1662,0.0172,-0.3824,0.417
0.344000,-0.1870,-0.0059,-0.4367,0.475
0.353000,-0.1246,-0.0093,-0.4815,0.497
0.354000,-0.0527,-0.0120,-0.4545,0.458
0.359000,-0.0165,-0.0095,-0.3655,0.366
0.367000,0.0374,0.0006,-0.2120,0.215
0.369000,0.0834,-0.0038,-0.1230,0.149
0.374000,0.0662,-0.0060,-0.0963,0.117
0.382000,0.0279,-0.0343,-0.0839,0.095
0.384000,0.0327,-0.0528,-0.0691,0.093
0.389000,0.0376,-0.0710,-0.1238,0.148
0.393000,0.0063,-0.0768,-0.1617,0.179
0.399000,-0.0177,-0.0868,-0.2044,0.223
0.404000,0.0066,-0.0940,-0.2733,0.289
0.409000,0.0121,-0.0910,-0.3925,0.403
0.425000,0.0582,-0.0774,-0.5116,0.521
0.426000,0.0608,-0.0604,-0.6139,0.620
0.426000,0.0683,-0.0685,-0.6828,0.690
0.429000,0.0831,-0.0775,-0.7781,0.786
0.435000,0.0978,-0.0919,-0.7849,0.796
0.441000,0.1053,-0.1452,-0.8302,0.849
0.444000,0.0371,-0.1995,-0.8590,0.883
0.453000,-0.0655,-0.2138,-0.7565,0.789
0.455000,-0.1365,-0.2170,-0.6303,0.680
0.459000,-0.1827,-0.2764,-0.5449,0.638
0.466000,-0.2713,-0.3755,-0.4932,0.677
0.469000,-0.3665,-0.4665,-0.4247,0.730
0.475000,-0.4176,-0.5160,-0.3898,0.770
0.479000,-0.4556,-0.5258,-0.3239,0.767
0.484000,-0.5332,-0.5468,-0.1695,0.782
0.489000,-0.6595,-0.5647,0.0518,0.870
0.494000,-0.8248,-0.5802,0.3376,1.063
0.500000,-1.0047,-0.6153,0.6926,1.367
0.504000,-1.1609,-0.6494,1.0930,1.722
0.510000,-1.2892,-0.6860,1.4838,2.082
0.515000,-1.3759,-0.7400,1.9032,2.462
0.519000,-1.4359,-0.8079,2.2722,2.807
0.525000,-1.4337,-0.8972,2.5743,3.080
0.532000,-1.3838,-0.9988,2.8358,3.310
0.535000,-1.3469,-1.1041,3.1023,3.558
0.540000,-1.3040,-1.1831,3.3043,3.744
0.545000,-1.1731,-1.2170,3.4350,3.828
0.558000,-0.8791,-1.1457,3.5759,3.856
0.560000,-0.4118,-0.9722,3.5885,3.741
0.560000,-0.3077,-0.8138,3.5949,3.699
0.565000,-0.1612,-0.5825,3.3203,3.375
0.571000,-0.1248,-0.3202,3.3130,3.331
0.575000,0.0218,-0.0890,3.1568,3.158
0.586000,0.3154,0.1056,2.7465,2.767
0.587000,0.6108,0.2567,2.2567,2.352
0.590000,0.8709,0.3655,1.6079,1.865
0.597000,0.8747,0.5676,1.4265,1.767
0.600000,0.5329,0.9756,1.5331,1.894
0.605000,0.1767,1.2158,1.4568,1.906
0.609000,-0.1361,1.2068,1.1068,1.643
0.615000,-0.3394,1.0942,0.6454,1.315
0.619000,-0.4295,0.9722,0.1655,1.076
0.625000,-0.4932,0.8489,-0.2613,1.016
0.630000,-0.5188,0.7227,-0.7023,1.133
0.635000,-0.3293,0.6536,-1.2437,1.443
0.640000,0.6128,0.7966,-2.4004,2.602
0.645000,0.9114,0.5848,-2.9317,3.125
0.660000,0.7790,0.2005,-2.7783,2.892
0.662000,0.7102,-0.1372,-3.1100,3.193
0.662000,0.4910,-0.4776,-3.3455,3.415
0.666000,0.1652,-0.7171,-3.4464,3.524
0.670000,-0.2304,-0.7430,-3.4893,3.575
0.675000,-0.1201,-0.0711,-3.9618,3.964
0.687000,-0.4072,0.2926,-3.5989,3.634
0.689000,-0.7530,0.3619,-2.9743,3.089
0.690000,-1.0007,0.3145,-2.1760,2.416
0.696000,-1.0342,0.2284,-1.8901,2.167
0.702000,-0.9465,0.1203,-2.0614,2.271
0.706000,-0.8458,-0.0444,-2.1520,2.313
0.710000,-0.6843,-0.1911,-2.2172,2.328
0.715000,-0.5165,-0.2763,-2.1423,2.221
0.720000,-0.2923,-0.2454,-2.0418,2.077
0.726000,-0.0953,-0.1845,-1.9300,1.941
0.739000,0.0291,-0.1873,-1.8351,1.845
0.740000,-0.0516,-0.2522,-1.6541,1.674
0.740000,-0.1283,-0.3705,-1.5827,1.631
0.745000,-0.0240,-0.4655,-1.7835,1.843
0.751000,0.2327,-0.5581,-2.1489,2.232
0.755000,0.6065,-0.6065,-2.6241,2.761
0.759000,1.0767,-0.5976,-3.0803,3.317
0.765000,1.5476,-0.5583,-3.4437,3.816
0.770000,1.9833,-0.4637,-3.6954,4.219
0.775000,2.3324,-0.3596,-3.8641,4.528
0.780000,2.6277,-0.2315,-3.9836,4.778
0.785000,2.8159,-0.1367,-3.9462,4.850
0.790000,2.9616,-0.0662,-3.7446,4.775
0.798000,3.0936,0.0234,-3.4363,4.624
0.800000,3.1636,0.1882,-2.9398,4.323
0.806000,3.1678,0.3873,-2.2478,3.904
0.810000,3.1301,0.5450,-1.5040,3.515
0.816000,2.9463,0.6872,-0.5911,3.083
0.820000,2.6396,0.8304,0.4764,2.808
0.825000,2.2782,0.9086,1.5150,2.883
0.831000,2.0254,0.9213,2.3050,3.204
0.837000,1.9121,0.8475,2.8205,3.511
0.842000,1.9364,0.6826,3.1576,3.766
0.847000,1.9977,0.4725,3.3903,3.963
0.850000,2.0315,0.2642,3.5667,4.113
0.856000,1.9977,0.0984,3.7011,4.207
0.862000,1.8896,-0.0322,3.7840,4.230
0.870000,1.7408,-0.1183,3.8178,4.198
0.871000,1.5582,-0.1745,3.7714,4.084
0.879000,1.2958,-0.2124,3.6829,3.910
0.881000,0.9980,-0.2183,3.5737,3.717
0.889000,0.7434,-0.2373,3.3720,3.461
0.890000,0.5480,-0.2574,3.0777,3.137
0.898000,0.3940,-0.2778,2.7289,2.771
0.901000,0.2577,-0.2952,2.4021,2.434
0.906000,0.1623,-0.3090,2.0398,2.069
0.910000,0.1153,-0.3232,1.6276,1.663
0.916000,0.0683,-0.3272,1.1773,1.224
0.920000,0.0449,-0.3300,0.7010,0.776
0.925000,0.0534,-0.3214,0.2460,0.408
0.932000,-0.0362,-0.2551,-0.0348,0.260
0.936000,-0.1113,-0.1600,-0.2707,0.334
0.940000,-0.1980,-0.1051,-0.4259,0.481
0.945000,-0.0691,-0.2956,-0.8664,0.918
0.951000,0.2074,-0.3665,-1.2792,1.347
0.956000,0.0514,-0.1807,-1.0402,1.057
0.961000,-0.3462,-0.0218,-0.6940,0.776
0.973000,-0.7333,0.0803,-0.3932,0.836
0.974000,-0.8614,0.1200,-0.3504,0.938
0.976000,-0.7092,0.0856,-0.5061,0.875
0.982000,-0.4589,0.0042,-0.6500,0.796
0.992000,-0.2472,-0.0761,-0.6914,0.738
0.993000,-0.0759,-0.1434,-0.6589,0.679
0.996000,0.0634,-0.1786,-0.5836,0.614
1.003000,0.1550,-0.2181,-0.5417,0.604
1.005000,0.1679,-0.2692,-0.4807,0.576
1.010000,0.1386,-0.2965,-0.3908,0.510
1.015000,0.0673,-0.3096,-0.3343,0.461
1.021000,-0.0949,-0.2230,-0.4332,0.496
1.026000,-0.3331,-0.2878,-0.4533,0.632
1.032000,-0.2014,-0.3885,-1.1960,1.274
1.035000,-0.0748,-0.4840,-1.9249,1.986
1.040000,-0.0979,-0.3267,-1.8247,1.856
1.048000,-0.2879,-0.1445,-1.2803,1.320
1.050000,-0.5874,-0.0843,-0.6762,0.900
1.056000,-0.7729,-0.1034,-0.3921,0.873
1.060000,-0.6513,-0.1849,-0.4997,0.841
1.066000,-0.3224,-0.2615,-0.7642,0.870
1.071000,0.0329,-0.3518,-1.0280,1.087
1.077000,0.3111,-0.4719,-1.2647,1.385
1.089000,0.5120,-0.5594,-1.3742,1.570
1.090000,0.6364,-0.4973,-1.2177,1.461
1.092000,0.5915,-0.3776,-0.8957,1.138
1.111000,0.3838,-0.2036,-0.6354,0.770
1.112000,0.1440,-0.0406,-0.5517,0.572
1.113000,-0.0853,0.0513,-0.6947,0.702
1.113000,-0.2977,0.1343,-0.8376,0.899
1.122000,-0.4489,0.2345,-0.9134,1.044
1.122000,-0.5262,0.3255,-0.9676,1.149
1.126000,-0.4856,0.3957,-1.0743,1.244
1.132000,-0.3676,0.4504,-1.2308,1.361
1.136000,-0.2077,0.5143,-1.4157,1.521
1.141000,-0.0658,0.5735,-1.6409,1.739
1.150000,0.0533,0.6620,-1.9015,2.014
1.151000,0.1420,0.7683,-2.1856,2.321
1.156000,0.1710,0.8761,-2.4550,2.612
1.160000,0.1524,0.9904,-2.6858,2.867
1.166000,0.1050,1.0684,-2.8948,3.087
1.171000,0.0458,1.1220,-3.0341,3.235
1.176000,-0.0173,1.1559,-3.1086,3.317
1.189000,-0.0836,1.1580,-3.1350,3.343
1.190000,-0.0732,1.1085,-3.1060,3.299
1.191000,-0.2435,1.0213,-3.0646,3.239
1.196000,-0.3039,0.9291,-3.0418,3.195
1.208000,-0.3656,0.8272,-3.0444,3.176
1.209000,-0.3776,0.6820,-3.1489,3.244
1.211000,-0.3303,0.5630,-3.3407,3.404
1.217000,-0.2164,0.4704,-3.6650,3.701
1.221000,-0.0208,0.4405,-4.0883,4.112
1.227000,0.2269,0.4692,-4.5746,4.604
1.232000,0.4819,0.5238,-5.0762,5.126
1.236000,0.7426,0.5977,-5.5860,5.667
1.241000,0.9744,0.6464,-6.0803,6.192
1.249000,1.1991,0.6723,-6.5260,6.669
1.251000,1.4113,0.6834,-6.9208,7.096
1.256000,1.6415,0.6515,-7.3725,7.581
1.260000,1.8543,0.6037,-7.8239,8.063
1.266000,2.0507,0.5595,-8.1557,8.428
1.271000,2.2351,0.5198,-8.3777,8.686
1.276000,2.4043,0.4622,-8.5619,8.905
1.286000,2.5934,0.4067,-8.7466,9.132
1.287000,2.6937,0.3651,-8.8387,9.247
1.291000,2.7452,0.3350,-8.8407,9.263
1.296000,2.7783,0.3068,-8.7287,9.165
1.307000,2.8168,0.2785,-8.4765,8.937
1.309000,2.8722,0.2135,-8.1369,8.632
1.311000,2.9512,0.1131,-7.7362,8.281
1.318000,3.0294,-0.0455,-7.2912,7.896
1.321000,3.1302,-0.2154,-6.8496,7.534
1.327000,3.2428,-0.4111,-6.4544,7.235
1.332000,3.3578,-0.6185,-6.1149,7.003
1.335000,3.4612,-0.8454,-5.8688,6.866
1.341000,3.5299,-1.0898,-5.7446,6.830
1.346000,3.5380,-1.3493,-5.7368,6.874
1.351000,3.4609,-1.6161,-5.8473,6.984
1.357000,3.3484,-1.8789,-6.0611,7.175
1.362000,3.1924,-2.1389,-6.3846,7.452
1.366000,3.0214,-2.4214,-6.8195,7.842
1.371000,2.8252,-2.7560,-7.3287,8.324
1.376000,2.6193,-3.1455,-7.8677,8.869
1.381000,2.4156,-3.5892,-8.3639,9.417
1.386000,2.2160,-4.0826,-8.7679,9.922
1.391000,2.0022,-4.5836,-9.0354,10.327
1.400000,1.7731,-5.0673,-9.1940,10.647
1.402000,1.5403,-5.5730,-9.2611,10.918
1.406000,1.3004,-6.1280,-9.1982,11.129
1.411000,1.0911,-6.6838,-8.9801,11.248
1.421000,0.9658,-7.2148,-8.5916,11.261
1.423000,0.9679,-7.7052,-8.0081,11.155
1.426000,1.1367,-8.1396,-7.2620,10.967
1.448000,1.3986,-8.5703,-6.3931,10.783
1.450000,1.8513,-8.8300,-5.2976,10.462
1.451000,2.4318,-8.9789,-4.3160,10.255
1.452000,3.0754,-9.0303,-3.4197,10.134
1.453000,3.6744,-9.0685,-2.5997,10.124
1.456000,4.1919,-9.1530,-1.8267,10.232
1.461000,4.6536,-9.2708,-1.1023,10.432
1.466000,5.0322,-9.3964,-0.4411,10.668
1.472000,5.2590,-9.4909,0.1311,10.851
1.477000,5.4542,-9.6107,0.5644,11.065
1.484000,5.5564,-9.6963,0.8926,11.211
1.486000,5.5272,-9.7499,1.1985,11.271
1.491000,5.4674,-9.7123,1.5127,11.248
1.498000,5.4089,-9.5831,1.8855,11.165
1.502000,5.3780,-9.4126,2.3548,11.094
1.506000,5.3593,-9.2510,2.9149,11.081
1.511000,5.3482,-9.1120,3.4949,11.129
1.516000,5.2898,-9.0128,4.0129,11.194
1.522000,5.2182,-8.9274,4.3888,11.233
1.526000,5.1191,-8.8206,4.6491,11.208
1.539000,4.9609,-8.6782,4.8532,11.112
1.542000,4.7368,-8.5164,4.9847,10.946
1.543000,4.4237,-8.4228,5.0004,10.748
1.547000,4.0576,-8.4133,4.9102,10.553
1.559000,3.7390,-8.4195,4.7218,10.352
1.560000,3.5472,-8.4475,4.4280,10.176
1.561000,3.5873,-8.5106,4.0665,10.091
1.568000,3.4350,-8.5902,3.6953,9.962
1.576000,3.4332,-8.6780,3.3756,9.924
1.577000,3.4695,-8.7233,3.1477,9.902
1.583000,3.5439,-8.7018,2.9471,9.847
1.586000,3.6785,-8.6109,2.7718,9.765
1.591000,3.8405,-8.4638,2.5972,9.650
1.597000,3.9848,-8.2579,2.4746,9.497
1.602000,4.0322,-8.0006,2.4669,9.293
1.607000,3.8089,-7.6488,2.6262,8.939
1.612000,4.1389,-7.3239,2.6369,8.816
1.617000,4.6862,-6.9468,2.6383,8.785
1.622000,5.3613,-6.5757,2.7055,8.905
1.627000,6.0667,-6.1877,2.7765,9.100
1.637000,6.7149,-5.7550,2.8705,9.298
1.638000,7.2912,-5.2085,2.9760,9.442
1.642000,7.7305,-4.5307,3.1186,9.488
1.660000,8.2432,-3.8748,3.2194,9.661
1.662000,8.6912,-3.1791,3.2982,9.825
1.663000,9.0850,-2.4583,3.3645,9.995
1.664000,9.4473,-1.7126,3.4093,10.189
1.671000,9.7850,-0.9683,3.4473,10.420
1.673000,10.1237,-0.2356,3.4859,10.710
1.677000,10.3793,0.4379,3.5353,10.974
1.683000,10.5698,1.0380,3.5955,11.213
1.686000,10.6896,1.5769,3.6523,11.406
1.692000,10.7459,2.0621,3.7154,11.556
1.697000,10.7155,2.4673,3.7942,11.632
1.702000,10.6325,2.7740,3.8770,11.652
1.707000,10.4876,2.9969,3.9538,11.602
1.713000,10.2880,3.1507,4.0268,11.488
1.719000,10.0416,3.2526,4.0480,11.305
1.723000,9.7196,3.2909,4.0153,11.019
1.728000,9.3516,3.3017,3.9145,10.662
1.732000,8.9383,3.2661,3.7531,10.230
1.737000,8.4995,3.2012,3.5387,9.747
1.742000,8.0553,3.1049,3.2835,9.236
1.756000,7.6064,3.0035,2.9887,8.707
1.758000,7.1561,2.8760,2.6616,8.159
1.759000,6.7218,2.7678,2.3126,7.628
1.762000,6.2949,2.6290,1.9517,7.096
1.781000,5.8782,2.5101,1.5988,6.589
1.782000,5.4701,2.3775,1.2540,6.095
1.783000,5.0882,2.2413,0.9302,5.637
1.783000,4.6971,2.1184,0.6107,5.189
1.787000,4.3142,2.0233,0.3296,4.776
1.792000,3.9281,1.9489,0.0752,4.386
1.800000,3.5176,1.9195,-0.1359,4.010
1.802000,3.1726,1.8349,-0.3175,3.679
1.808000,2.8954,1.7216,-0.4865,3.404
1.813000,2.6070,1.6228,-0.6235,3.133
1.817000,2.3581,1.5099,-0.7669,2.903
1.823000,2.1627,1.4116,-0.8900,2.732
1.827000,1.9640,1.3354,-0.9759,2.568
1.832000,1.7524,1.2644,-0.9839,2.374
1.838000,1.5469,1.2083,-0.9574,2.184
1.842000,1.3262,1.1885,-0.9061,1.998
1.853000,1.1238,1.1740,-0.8232,1.822
1.855000,0.9496,1.1627,-0.7114,1.661
1.858000,0.7845,1.1472,-0.5946,1.512
1.862000,0.6357,1.1276,-0.4589,1.373
1.877000,0.5080,1.1064,-0.2925,1.252
1.878000,0.4038,1.1027,-0.1222,1.181
1.878000,0.3156,1.0949,0.0448,1.140
1.887000,0.2557,1.0997,0.2151,1.149
1.888000,0.2141,1.1123,0.3886,1.198
1.893000,0.1861,1.1208,0.5626,1.268
1.897000,0.1812,1.1274,0.7274,1.354
1.902000,0.1966,1.1368,0.8683,1.444
1.907000,0.2228,1.1586,0.9945,1.543
1.912000,0.2714,1.1831,1.0894,1.631
1.917000,0.3135,1.2174,1.1674,1.716
1.922000,0.3658,1.2446,1.2429,1.797
1.927000,0.4302,1.2526,1.3184,1.869
1.935000,0.4880,1.2345,1.4124,1.938
1.937000,0.5222,1.2068,1.5178,2.008
1.942000,0.5497,1.1769,1.6343,2.088
1.955000,0.5727,1.1472,1.7495,2.169
1.956000,0.5939,1.1104,1.8587,2.245
1.958000,0.6015,1.0764,1.9685,2.323
1.962000,0.5859,1.0427,2.0861,2.405
1.979000,0.5785,1.0119,2.1992,2.489
1.981000,0.6081,0.9888,2.2956,2.572
1.982000,0.6579,0.9639,2.3703,2.642
1.982000,0.7017,0.9110,2.4473,2.704
1.988000,0.7684,0.8303,2.5189,2.761
1.992000,0.8341,0.7552,2.5681,2.804
1.998000,0.9033,0.6857,2.5830,2.821
2.003000,0.9594,0.6601,2.5588,2.811
2.008000,1.0212,0.6709,2.5101,2.792
2.014000,1.0746,0.6968,2.4490,2.764
2.019000,1.1337,0.7494,2.3732,2.735
2.023000,1.2128,0.8026,2.2828,2.707
2.028000,1.3022,0.8584,2.1900,2.689
2.034000,1.3992,0.9144,2.0902,2.676
2.038000,1.4893,0.9586,1.9882,2.663
2.042000,1.5962,0.9932,1.8746,2.655
2.055000,1.6841,0.9990,1.7519,2.627
2.057000,1.7456,1.0095,1.6154,2.584
2.058000,1.8261,1.0247,1.4652,2.556
2.088000,1.9231,1.0562,1.3188,2.560
2.089000,2.0457,1.0921,1.1688,2.597
2.090000,2.1699,1.1392,1.0371,2.661
2.090000,2.2667,1.1689,0.9189,2.711
2.090000,2.3598,1.1928,0.8094,2.765
2.090000,2.4515,1.2037,0.6796,2.814
2.093000,2.5203,1.1969,0.5350,2.841
2.099000,2.5278,1.2297,0.3636,2.834
2.103000,2.5554,1.2255,0.1753,2.840
2.108000,2.6053,1.2082,-0.0557,2.872
2.113000,2.6603,1.1799,-0.2430,2.920
2.118000,2.6845,1.1454,-0.4412,2.952
2.123000,2.6826,1.1024,-0.6506,2.972
2.128000,2.6429,1.0507,-0.8466,2.967
2.133000,2.5797,1.0026,-1.0340,2.955
2.138000,2.5099,0.9484,-1.2125,2.944
2.143000,2.4315,0.9076,-1.3623,2.931
2.149000,2.3299,0.8681,-1.4909,2.899
2.153000,2.2127,0.8468,-1.5910,2.854
2.158000,2.0798,0.8077,-1.6625,2.782
2.163000,1.9385,0.7582,-1.7176,2.699
2.168000,1.7965,0.7010,-1.7535,2.606
2.174000,1.6516,0.6265,-1.7753,2.504
2.179000,1.5134,0.5565,-1.7758,2.399
2.188000,1.3725,0.4790,-1.7576,2.281
2.189000,1.2339,0.3990,-1.7278,2.160
2.195000,1.1095,0.3164,-1.6772,2.036
2.211000,0.9854,0.2436,-1.6129,1.906
2.213000,0.8688,0.1636,-1.5784,1.809
2.214000,0.7477,0.0910,-1.5353,1.710
2.214000,0.6104,0.0163,-1.5101,1.629
2.219000,0.4736,-0.0607,-1.4883,1.563
2.223000,0.3425,-0.1179,-1.4723,1.516
2.229000,0.2385,-0.1506,-1.4599,1.487
2.233000,0.1234,-0.1662,-1.4463,1.461
2.238000,0.0404,-0.1860,-1.4364,1.449
2.243000,-0.0515,-0.1886,-1.4184,1.432
2.249000,-0.1253,-0.1737,-1.4044,1.421
2.253000,-0.1887,-0.1701,-1.3823,1.405
2.258000,-0.2295,-0.1660,-1.3523,1.382
2.265000,-0.2598,-0.1779,-1.3241,1.361
2.268000,-0.2750,-0.2013,-1.2976,1.342
2.273000,-0.2799,-0.2194,-1.2730,1.322
2.278000,-0.2911,-0.2608,-1.2505,1.310
2.287000,-0.3112,-0.3136,-1.2443,1.320
2.288000,-0.3544,-0.3540,-1.2497,1.346
2.293000,-0.4089,-0.3794,-1.2594,1.377
2.309000,-0.4723,-0.4020,-1.2828,1.425
2.310000,-0.5513,-0.4142,-1.3031,1.474
2.310000,-0.6055,-0.4234,-1.3276,1.519
2.313000,-0.6468,-0.4533,-1.3679,1.580
2.318000,-0.6728,-0.4944,-1.4144,1.642
2.323000,-0.6836,-0.5442,-1.4500,1.693
2.328000,-0.6551,-0.6099,-1.4868,1.735
2.333000,-0.6020,-0.6963,-1.5317,1.787
2.338000,-0.5602,-0.8106,-1.5655,1.850
2.343000,-0.5129,-0.9433,-1.5738,1.905
2.349000,-0.4747,-1.0871,-1.5731,1.970
2.354000,-0.4380,-1.2299,-1.5615,2.035
2.358000,-0.4150,-1.3743,-1.5508,2.113
2.364000,-0.3721,-1.5011,-1.5407,2.183
2.368000,-0.3212,-1.6318,-1.5171,2.251
2.373000,-0.2960,-1.7569,-1.4797,2.316
2.379000,-0.3011,-1.8907,-1.3927,2.367
2.385000,-0.2240,-2.0571,-1.3568,2.474
2.389000,-0.0982,-2.2344,-1.3215,2.598
2.394000,0.0353,-2.3943,-1.2485,2.701
2.405000,0.1117,-2.5346,-1.1168,2.772
2.406000,0.1406,-2.6337,-0.9530,2.804
2.436000,0.1223,-2.6727,-0.7771,2.786
2.437000,0.0593,-2.6563,-0.6061,2.725
2.438000,-0.0530,-2.5890,-0.4354,2.626
2.439000,-0.1594,-2.4902,-0.2699,2.510
2.439000,-0.2765,-2.3836,-0.1024,2.402
2.441000,-0.4044,-2.2571,0.0615,2.294
2.442000,-0.5333,-2.1300,0.2340,2.208
2.443000,-0.6751,-1.9926,0.4050,2.142
2.448000,-0.8058,-1.8327,0.5861,2.086
2.454000,-0.9374,-1.6528,0.7555,2.045
2.458000,-1.0483,-1.4505,0.9176,2.011
2.463000,-1.1339,-1.2402,1.0718,1.993
2.468000,-1.2135,-1.0078,1.2105,1.988
2.473000,-1.2946,-0.7485,1.3334,2.004
2.479000,-1.3559,-0.4819,1.4520,2.044
2.490000,-1.3929,-0.2081,1.5612,2.103
2.491000,-1.4229,0.0557,1.6458,2.176
2.497000,-1.4604,0.2712,1.6676,2.233
2.518000,-1.5512,0.4142,1.6073,2.272
2.519000,-1.7022,0.4491,1.4418,2.275
2.520000,-1.8818,0.4360,1.2028,2.276
2.520000,-2.0923,0.3513,0.9224,2.313
2.520000,-2.3092,0.2313,0.6110,2.400
2.523000,-2.5200,0.1170,0.3125,2.542
2.528000,-2.7100,0.0160,0.0130,2.710
2.533000,-2.8764,-0.0952,-0.2795,2.891
2.541000,-2.9926,-0.1854,-0.5665,3.051
2.543000,-3.0583,-0.2400,-0.8427,3.181
2.548000,-3.0688,-0.2591,-1.0857,3.265
2.553000,-3.0218,-0.2211,-1.2854,3.291
2.558000,-2.9153,-0.1265,-1.4318,3.250
2.566000,-2.7445,0.0055,-1.5394,3.147
2.569000,-2.5129,0.1598,-1.6077,2.987
2.574000,-2.2302,0.3122,-1.6345,2.783
2.580000,-1.9164,0.4527,-1.6389,2.562
2.584000,-1.5790,0.5641,-1.6233,2.334
2.589000,-1.2280,0.6462,-1.6067,2.123
2.594000,-0.8668,0.7031,-1.5750,1.930
2.598000,-0.5292,0.7441,-1.5209,1.774
2.604000,-0.2107,0.7691,-1.4255,1.633
2.608000,0.0859,0.7561,-1.2915,1.499
2.620000,0.3486,0.7123,-1.1315,1.382
2.620000,0.5674,0.6518,-0.9531,1.287
2.629000,0.7421,0.5937,-0.7472,1.209
2.629000,0.8800,0.5235,-0.5213,1.149
2.642000,0.9547,0.4340,-0.2807,1.086
2.643000,0.9592,0.3589,-0.0142,1.024
2.644000,0.8985,0.2862,0.2586,0.978
2.653000,0.7514,0.2211,0.5131,0.936
2.655000,0.5495,0.1733,0.7464,0.943
2.659000,0.2979,0.1431,0.9320,0.989
2.665000,0.0188,0.1261,1.0650,1.073
2.670000,-0.2707,0.1322,1.1334,1.173
2.674000,-0.5677,0.1354,1.1683,1.306
2.679000,-0.8384,0.1526,1.1627,1.442
2.684000,-1.0945,0.1675,1.1263,1.579
2.690000,-1.3214,0.1849,1.0594,1.704
2.695000,-1.5190,0.2170,0.9743,1.818
2.700000,-1.7061,0.2496,0.8782,1.935
2.703000,-1.8753,0.2902,0.7859,2.054
2.709000,-2.0193,0.3362,0.7094,2.167
2.716000,-2.1311,0.3927,0.6415,2.260
2.719000,-2.2200,0.4261,0.5825,2.334
2.723000,-2.2717,0.4701,0.5300,2.380
2.729000,-2.3150,0.4959,0.4888,2.417
2.734000,-2.3236,0.5153,0.4378,2.420
2.739000,-2.3286,0.5286,0.3914,2.420
2.744000,-2.3181,0.5475,0.3449,2.407
2.749000,-2.3136,0.5697,0.3007,2.402
2.755000,-2.2985,0.5761,0.2828,2.386
2.760000,-2.2822,0.5666,0.2794,2.368
2.765000,-2.2694,0.5629,0.2782,2.355
2.770000,-2.2265,0.5580,0.2769,2.312
2.774000,-2.1753,0.5755,0.2875,2.268
2.783000,-2.1133,0.5941,0.3049,2.216
2.786000,-2.0405,0.6279,0.3316,2.161
2.790000,-1.9763,0.6554,0.3578,2.113
2.794000,-1.9061,0.6718,0.3788,2.056
2.800000,-1.8396,0.6724,0.4040,2.000
2.805000,-1.7672,0.6930,0.4357,1.948
2.809000,-1.6865,0.7288,0.4619,1.894
2.818000,-1.5881,0.7630,0.4728,1.824
2.821000,-1.4841,0.7931,0.4637,1.745
2.825000,-1.3815,0.8310,0.4442,1.672
2.842000,-1.2879,0.8670,0.4024,1.604
2.852000,-1.1887,0.8939,0.3386,1.525
2.852000,-1.0794,0.9165,0.2816,1.444
2.853000,-0.9577,0.9393,0.2290,1.361
2.853000,-0.8284,0.9290,0.1737,1.257
2.855000,-0.7035,0.9166,0.1109,1.161
2.860000,-0.5880,0.8994,0.0597,1.076
2.881000,-0.4868,0.8776,0.0033,1.004
2.882000,-0.4092,0.8392,-0.0537,0.935
2.882000,-0.3529,0.7986,-0.1134,0.880
2.882000,-0.3008,0.7822,-0.1641,0.854
2.884000,-0.2557,0.7541,-0.2223,0.827
2.889000,-0.2124,0.7237,-0.2734,0.802
2.896000,-0.1781,0.6914,-0.3152,0.780
2.900000,-0.1430,0.6594,-0.3526,0.761
2.905000,-0.1070,0.6352,-0.3711,0.743
2.909000,-0.0846,0.6281,-0.3686,0.733
2.917000,-0.0204,0.6263,-0.3667,0.726
2.920000,0.0661,0.6465,-0.3464,0.736
2.925000,0.1822,0.6933,-0.3200,0.785
2.930000,0.3254,0.7573,-0.3045,0.879
2.935000,0.4616,0.7995,-0.3023,0.971
2.940000,0.5836,0.8178,-0.3278,1.057
2.945000,0.7081,0.8454,-0.3715,1.164
2.952000,0.8351,0.8825,-0.4335,1.290
2.958000,0.9572,0.9168,-0.5018,1.417
2.959000,1.0913,0.9485,-0.5765,1.557
2.979000,1.2248,0.9892,-0.6691,1.711
2.980000,1.3389,1.0341,-0.7729,1.860
2.982000,1.3378,1.0951,-0.8493,1.926
2.982000,1.3773,1.1246,-0.9368,2.010
2.985000,1.5268,1.1465,-1.1336,2.220
2.990000,1.7425,1.1677,-1.3570,2.498
2.996000,1.9594,1.1641,-1.5973,2.783
3.000000,2.1557,1.1475,-1.8231,3.047
3.006000,2.3168,1.1369,-2.0268,3.282
3.010000,2.4621,1.1422,-2.2205,3.507
3.015000,2.5865,1.1725,-2.3986,3.717
3.020000,2.7186,1.1994,-2.5705,3.929
3.025000,2.8392,1.2132,-2.7312,4.122
3.032000,2.9675,1.1997,-2.8828,4.308
3.035000,3.1057,1.1612,-3.0274,4.490
3.040000,3.2703,1.0882,-3.1908,4.697
3.045000,3.4563,1.0022,-3.3511,4.917
3.055000,3.6515,0.8793,-3.4910,5.128
3.058000,3.8724,0.7052,-3.6122,5.342
3.060000,4.1019,0.4558,-3.7101,5.550
3.084000,4.3039,0.1576,-3.7985,5.743
3.086000,4.4809,-0.1751,-3.8702,5.923
3.086000,4.6113,-0.5255,-3.9058,6.066
3.087000,4.7025,-0.8766,-3.8956,6.169
3.087000,4.7597,-1.2069,-3.8014,6.210
3.090000,4.7661,-1.5213,-3.6738,6.207
3.096000,4.7104,-1.7979,-3.5180,6.148
3.100000,4.5762,-2.0105,-3.3152,5.998
3.105000,4.3976,-2.1327,-3.1037,5.790
3.110000,4.1966,-2.2026,-2.8456,5.528
3.115000,3.9805,-2.2250,-2.5364,5.218
3.120000,3.7788,-2.1950,-2.2057,4.895
3.125000,3.5984,-2.1248,-1.8465,4.569
3.131000,3.4441,-2.0191,-1.4762,4.256
3.135000,3.2776,-1.8925,-1.0809,3.936
3.140000,3.1184,-1.7569,-0.6422,3.636
3.145000,2.9686,-1.6125,-0.1989,3.384
3.150000,2.8477,-1.4589,0.2453,3.209
3.156000,2.7507,-1.2917,0.6805,3.114
3.160000,2.6561,-1.1035,1.1084,3.082
3.169000,2.5924,-0.8971,1.5282,3.140
3.171000,2.5280,-0.6677,1.9372,3.254
3.176000,2.4417,-0.3985,2.3079,3.383
3.200000,2.3283,-0.1185,2.6448,3.526
3.201000,2.1950,0.1818,2.9332,3.668
3.201000,2.0706,0.4667,3.1488,3.797
3.202000,1.9379,0.7336,3.2941,3.892
3.202000,1.8378,0.9849,3.3762,3.968
3.205000,1.7773,1.1823,3.3907,4.007
3.210000,1.7488,1.3186,3.3330,3.988
3.216000,1.7738,1.3768,3.1989,3.908
3.221000,1.8109,1.3568,2.9911,3.751
3.226000,1.8580,1.2706,2.6868,3.505
3.231000,1.9123,1.1300,2.3082,3.203
3.235000,1.9282,0.9493,1.8754,2.852
3.241000,1.9057,0.7595,1.4228,2.497
3.245000,1.8733,0.5770,0.9822,2.192
3.250000,1.8005,0.4118,0.5570,1.929
3.255000,1.7089,0.2495,0.1787,1.736
3.259000,1.5841,0.1116,-0.1642,1.597
3.265000,1.4695,-0.0091,-0.4904,1.549
3.271000,1.3604,-0.1244,-0.8042,1.585
3.275000,1.2399,-0.2296,-1.0834,1.663
3.282000,1.1257,-0.3338,-1.3299,1.774
3.286000,0.9960,-0.4514,-1.5387,1.888
3.290000,0.8464,-0.5630,-1.7118,1.991
3.295000,0.6701,-0.6899,-1.8588,2.093
3.300000,0.4720,-0.8131,-1.9843,2.196
3.305000,0.2626,-0.9268,-2.0954,2.306
3.310000,0.0278,-1.0119,-2.1726,2.397
3.315000,-0.2177,-1.0753,-2.1897,2.449
3.320000,-0.4569,-1.1191,-2.1732,2.487
3.325000,-0.6731,-1.1338,-2.1037,2.483
3.332000,-0.8532,-1.1331,-1.9892,2.443
3.335000,-1.0144,-1.1241,-1.8226,2.370
3.340000,-1.1375,-1.1022,-1.6069,2.256
3.345000,-1.2059,-1.0626,-1.3401,2.093
3.350000,-1.2460,-1.0104,-1.0419,1.913
3.355000,-1.2631,-0.9483,-0.6816,1.720
3.360000,-1.2498,-0.8832,-0.3011,1.560
3.370000,-1.2161,-0.8299,0.0846,1.475
3.370000,-1.1599,-0.7672,0.4510,1.462
3.375000,-1.1055,-0.7072,0.8024,1.538
3.396000,-1.0701,-0.6720,1.1434,1.704
3.397000,-1.0511,-0.6398,1.4490,1.901
3.398000,-1.0417,-0.6109,1.6878,2.075
3.399000,-1.0373,-0.5736,1.8717,2.215
3.400000,-0.9784,-0.5879,1.9506,2.260
3.406000,-0.8798,-0.6950,1.9250,2.228
3.410000,-0.9877,-0.7271,2.0123,2.357
3.416000,-1.2423,-0.7132,2.2477,2.665
3.421000,-1.5711,-0.7197,2.5128,3.050
3.425000,-1.8755,-0.7100,2.7616,3.413
3.432000,-2.0861,-0.7149,2.9319,3.669
3.436000,-2.2021,-0.7381,3.0355,3.822
3.440000,-2.2384,-0.8112,3.0875,3.899
3.446000,-2.2000,-0.9269,3.0932,3.907
3.450000,-2.1444,-1.0664,3.0646,3.889
3.455000,-2.1030,-1.2058,3.0001,3.857
3.460000,-2.1070,-1.3455,2.9165,3.841
3.468000,-2.1439,-1.4633,2.8121,3.827
3.474000,-2.2186,-1.5595,2.6992,3.826
3.476000,-2.3381,-1.6245,2.5853,3.846
3.490000,-2.5023,-1.6965,2.4731,3.906
3.491000,-2.6945,-1.7659,2.3654,3.997
3.492000,-2.8923,-1.8296,2.2551,4.099
3.495000,-3.0841,-1.9043,2.1569,4.218
3.500000,-3.2695,-1.9754,2.0541,4.337
3.505000,-3.4366,-2.0452,1.9541,4.451
3.512000,-3.5926,-2.0873,1.8569,4.551
3.516000,-3.7275,-2.1274,1.7674,4.642
3.521000,-3.8487,-2.1560,1.6976,4.727
3.525000,-3.9441,-2.1682,1.6377,4.789
3.531000,-4.0210,-2.1830,1.6044,4.848
3.535000,-4.0771,-2.1767,1.5856,4.886
3.540000,-4.1361,-2.1631,1.5667,4.923
3.545000,-4.1911,-2.1353,1.5786,4.962
3.550000,-4.2254,-2.1005,1.5926,4.980
3.555000,-4.2509,-2.0634,1.6249,4.997
3.560000,-4.2631,-2.0288,1.6492,5.001
3.566000,-4.2548,-1.9874,1.6650,4.982
3.571000,-4.2500,-1.9579,1.6746,4.970
3.577000,-4.2321,-1.9384,1.6803,4.949
3.586000,-4.2227,-1.9335,1.6771,4.938
3.588000,-4.2002,-1.9385,1.6746,4.920
3.591000,-4.1697,-1.9511,1.6649,4.895
3.613000,-4.1310,-1.9686,1.6436,4.862
3.615000,-4.0865,-1.9770,1.6152,4.818
3.616000,-4.0413,-2.0098,1.5846,4.784
3.617000,-4.0024,-2.0431,1.5400,4.750
3.617000,-3.9508,-2.0793,1.4957,4.708
3.621000,-3.9079,-2.1209,1.4424,4.674
3.627000,-3.8762,-2.1606,1.3801,4.647
3.632000,-3.8578,-2.2080,1.3161,4.636
3.636000,-3.8506,-2.2704,1.2461,4.641
3.641000,-3.8399,-2.3427,1.1532,4.644
3.646000,-3.8329,-2.4083,1.0644,4.650
3.650000,-3.8248,-2.4885,0.9629,4.664
3.656000,-3.8228,-2.5835,0.8753,4.696
3.660000,-3.8027,-2.6763,0.7874,4.716
3.667000,-3.7695,-2.7718,0.6948,4.730
3.671000,-3.7374,-2.8651,0.5996,4.747
3.676000,-3.7040,-2.9635,0.5072,4.771
3.687000,-3.6694,-3.0622,0.4149,4.797
3.688000,-3.6527,-3.1659,0.3490,4.846
3.695000,-3.8067,-3.3966,0.5815,5.135
3.696000,-3.9683,-3.5189,0.7161,5.352
3.729000,-3.9222,-3.5283,0.4556,5.295
3.732000,-3.7716,-3.5257,0.1342,5.165
3.733000,-3.6337,-3.5446,-0.1333,5.078
3.734000,-3.6448,-3.5659,-0.3236,5.109
3.734000,-3.6730,-3.6082,-0.4849,5.172
3.735000,-3.7298,-3.6402,-0.6007,5.246
3.736000,-3.8154,-3.6597,-0.6637,5.328
3.736000,-3.8886,-3.6757,-0.6598,5.391
3.741000,-3.9394,-3.6996,-0.5942,5.437
3.746000,-3.9196,-3.7575,-0.4964,5.452
3.751000,-3.8144,-3.8510,-0.3887,5.434
3.756000,-3.5884,-4.0046,-0.3192,5.387
3.761000,-3.2603,-4.1870,-0.3221,5.316
3.767000,-2.8352,-4.3960,-0.4192,5.248
3.772000,-2.3252,-4.5821,-0.6174,5.175
3.776000,-1.7591,-4.7405,-0.9166,5.139
3.782000,-1.1927,-4.8059,-1.2728,5.113
3.786000,-0.6597,-4.7668,-1.6926,5.101
3.791000,-0.1817,-4.6404,-2.1276,5.108
3.803000,0.2459,-4.4249,-2.5433,5.110
3.805000,0.6257,-4.1299,-2.9944,5.139
3.806000,0.9515,-3.8383,-3.4645,5.257
3.835000,1.2282,-3.5549,-3.8880,5.409
3.837000,1.4604,-3.3228,-4.2490,5.588
3.837000,1.6692,-3.1493,-4.4912,5.734
3.838000,1.8263,-3.0389,-4.6092,5.815
3.838000,1.9470,-2.9900,-4.5926,5.816
3.839000,2.0294,-2.9711,-4.4244,5.703
3.842000,2.0423,-2.9727,-4.1093,5.468
3.846000,2.0193,-2.9875,-3.6668,5.143
3.852000,1.9554,-2.9964,-3.1526,4.769
3.857000,1.8873,-2.9751,-2.5908,4.373
3.862000,1.8258,-2.9317,-2.0036,3.993
3.867000,1.7977,-2.8420,-1.4059,3.645
3.872000,1.7887,-2.7252,-0.7862,3.353
3.878000,1.7986,-2.5862,-0.1475,3.154
3.882000,1.8209,-2.4222,0.4998,3.071
3.886000,1.8643,-2.2031,1.1447,3.105
3.892000,1.9173,-1.9331,1.7718,3.248
3.897000,1.9846,-1.6246,2.3535,3.481
3.904000,2.0734,-1.2846,2.8527,3.753
3.906000,2.1673,-0.9153,3.2593,4.020
3.911000,2.2820,-0.5461,3.5698,4.272
3.923000,2.4271,-0.1911,3.7860,4.501
3.924000,2.5906,0.1544,3.9055,4.689
3.926000,2.7743,0.4569,3.9398,4.840
3.934000,2.9570,0.7215,3.9229,4.965
3.937000,3.1348,0.9665,3.8496,5.058
3.942000,3.2769,1.1540,3.8827,5.210
3.948000,3.3902,1.3462,3.9525,5.378
3.951000,3.4482,1.5621,3.9321,5.458
3.957000,3.5035,1.7756,3.7954,5.462
3.961000,3.5611,1.9511,3.6312,5.447
3.966000,3.6035,2.1073,3.4944,5.444
3.971000,3.6429,2.2205,3.3779,5.442
3.976000,3.6817,2.3173,3.2914,5.455
3.982000,3.7316,2.3928,3.1963,5.465
3.987000,3.7976,2.4519,3.0950,5.478
3.991000,3.8788,2.4824,2.9855,5.488
3.996000,3.9587,2.5156,2.8223,5.474
4.003000,4.0372,2.5323,2.6416,5.449
4.007000,4.1236,2.5564,2.4509,5.436
4.014000,4.1964,2.6070,2.2481,5.428
4.025000,4.2694,2.6622,2.0217,5.422
4.026000,4.3281,2.7269,1.7818,5.417
4.027000,4.3579,2.7962,1.5266,5.398
4.052000,4.3732,2.8818,1.2829,5.392
4.053000,4.3521,2.9623,1.0555,5.369
4.055000,4.2853,3.0448,0.8192,5.320
4.055000,4.1871,3.1269,0.5838,5.258
4.056000,4.0577,3.2207,0.3736,5.194
4.057000,3.9067,3.2950,0.1771,5.114
4.062000,3.7368,3.3571,-0.0008,5.023
4.067000,3.5457,3.4023,-0.1504,4.916
4.072000,3.3338,3.4308,-0.3000,4.793
4.077000,3.0991,3.4236,-0.4403,4.639
4.083000,2.8610,3.3904,-0.5733,4.473
4.087000,2.6199,3.3362,-0.6945,4.298
4.092000,2.3783,3.2491,-0.8108,4.107
4.099000,2.1346,3.1485,-0.9004,3.909
4.102000,1.8913,3.0059,-0.9399,3.674
4.108000,1.6513,2.8526,-0.9487,3.430
4.114000,1.4125,2.6887,-0.9460,3.181
4.117000,1.1653,2.5167,-0.9392,2.928
4.122000,0.9323,2.3369,-0.9116,2.676
4.127000,0.6846,2.1591,-0.8657,2.425
4.138000,0.4466,1.9880,-0.8209,2.197
4.140000,0.2040,1.8430,-0.7629,2.005
4.146000,-0.0552,1.7120,-0.7035,1.852
4.168000,-0.3109,1.5980,-0.6285,1.745
4.168000,-0.5633,1.4911,-0.5355,1.682
4.169000,-0.8097,1.4062,-0.4319,1.679
4.170000,-1.0545,1.3169,-0.3275,1.719
4.170000,-1.2785,1.2259,-0.2222,1.785
4.172000,-1.4575,1.1429,-0.1087,1.855
4.177000,-1.5219,1.0706,-0.0066,1.861
4.183000,-1.5220,0.9826,0.0893,1.814
4.187000,-1.5371,0.8789,0.2315,1.786
4.193000,-1.5885,0.7812,0.3979,1.814
4.199000,-1.6976,0.6752,0.5597,1.911
4.203000,-1.8114,0.5827,0.7116,2.032
4.207000,-1.9320,0.4944,0.8441,2.166
4.215000,-2.0376,0.4247,0.9784,2.300
4.219000,-2.1090,0.3788,1.1048,2.411
4.222000,-2.1725,0.3422,1.2325,2.521
4.227000,-2.1894,0.2866,1.3346,2.580
4.233000,-2.1935,0.2238,1.4279,2.627
4.237000,-2.1869,0.1445,1.4858,2.648
4.242000,-2.1244,0.0559,1.5298,2.618
4.253000,-2.0059,0.0105,1.5694,2.547
4.255000,-1.8605,-0.0156,1.6115,2.461
4.257000,-1.7504,-0.0299,1.6653,2.416
4.262000,-1.6734,-0.0180,1.7113,2.394
4.277000,-1.5840,-0.0014,1.7278,2.344
4.278000,-1.4582,0.0268,1.7170,2.253
4.279000,-1.3058,0.0643,1.6745,2.124
4.286000,-1.1391,0.1107,1.6049,1.971
4.287000,-0.9728,0.1681,1.5323,1.823
4.292000,-0.8597,0.2268,1.4542,1.704
4.298000,-0.7615,0.3082,1.3729,1.600
4.302000,-0.6901,0.4122,1.2714,1.504
4.307000,-0.6171,0.5266,1.1359,1.396
4.313000,-0.5113,0.6298,0.9831,1.275
4.318000,-0.3704,0.7193,0.8086,1.144
4.322000,-0.1973,0.7902,0.6246,1.026
4.327000,0.0199,0.7992,0.4359,0.911
4.339000,0.2590,0.7770,0.2743,0.864
4.340000,0.5675,0.8574,0.1274,1.036
4.342000,0.7680,0.8175,-0.0285,1.122
4.373000,0.9848,0.7459,-0.2099,1.253
4.375000,1.2082,0.6760,-0.4284,1.449
4.375000,1.4163,0.5883,-0.6624,1.671
4.376000,1.6182,0.4732,-0.9204,1.921
4.376000,1.8068,0.3402,-1.2024,2.197
4.377000,1.9677,0.2014,-1.5029,2.484
4.379000,2.1031,0.0806,-1.8241,2.785
4.387000,2.2251,-0.0076,-2.1460,3.091
4.389000,2.3094,-0.0468,-2.4606,3.375
4.393000,2.3656,-0.0511,-2.7484,3.627
4.399000,2.3891,-0.0277,-2.9992,3.835
4.403000,2.3799,0.0212,-3.2080,3.994
4.408000,2.3476,0.1100,-3.3652,4.105
4.413000,2.2875,0.2197,-3.4654,4.158
4.418000,2.2238,0.3384,-3.5209,4.178
4.423000,2.1710,0.4711,-3.5387,4.178
4.428000,2.1436,0.5868,-3.5310,4.172
4.443000,2.1630,0.6998,-3.4860,4.162
4.445000,2.2266,0.7672,-3.4228,4.155
4.446000,2.3249,0.7960,-3.3369,4.144
4.447000,2.4669,0.7694,-3.2596,4.160
4.477000,2.6287,0.6873,-3.1886,4.189
4.478000,2.8124,0.5448,-3.1241,4.239
4.479000,2.9988,0.3326,-3.0614,4.298
4.479000,3.1806,0.0767,-3.0054,4.377
4.480000,3.3479,-0.2157,-2.9635,4.476
4.480000,3.4626,-0.5350,-2.9402,4.574
4.486000,3.5175,-0.8502,-2.9284,4.655
4.488000,3.5177,-1.1563,-2.9062,4.707
4.493000,3.4754,-1.4509,-2.8860,4.745
4.498000,3.3911,-1.7409,-2.8457,4.757
4.503000,3.3033,-2.0261,-2.7998,4.781
4.508000,3.2149,-2.3065,-2.7575,4.823
4.513000,3.1162,-2.5651,-2.6829,4.846
4.518000,3.0221,-2.7947,-2.5735,4.855
4.523000,2.9254,-3.0073,-2.4198,4.843
4.527000,2.7981,-3.2002,-2.2148,4.793
4.533000,2.6524,-3.3373,-1.9563,4.690
4.538000,2.5152,-3.4114,-1.6350,4.543
4.542000,2.3821,-3.3962,-1.2667,4.337
4.552000,2.2653,-3.3012,-0.8589,4.095
4.554000,2.1624,-3.1169,-0.4220,3.817
4.558000,2.0736,-2.8531,0.0218,3.527
4.581000,1.9916,-2.5409,0.4790,3.264
4.582000,1.9161,-2.1640,0.9492,3.042
4.583000,1.8447,-1.7367,1.4284,2.909
4.583000,1.7844,-1.2832,1.8852,2.896
4.584000,1.7494,-0.8107,2.3186,3.016
4.588000,1.7535,-0.3434,2.7281,3.261
4.593000,1.7988,0.1066,3.0845,3.572
4.600000,1.9132,0.4958,3.3795,3.915
4.604000,2.0699,0.8242,3.5964,4.231
4.609000,2.2705,1.0602,3.7422,4.504
4.612000,2.5143,1.1988,3.7952,4.708
4.618000,2.7599,1.2588,3.7558,4.828
4.623000,2.9877,1.2424,3.6384,4.869
4.628000,3.1899,1.1971,3.4604,4.856
4.633000,3.3446,1.0914,3.2077,4.761
4.638000,3.4183,0.9661,2.8907,4.580
4.642000,3.4397,0.8328,2.5149,4.342
4.650000,3.3847,0.6867,2.0932,4.038
4.653000,3.2826,0.5423,1.6269,3.704
4.657000,3.1359,0.3973,1.1650,3.369
4.662000,2.9734,0.2564,0.7014,3.066
4.670000,2.7859,0.1125,0.2444,2.799
4.672000,2.5877,-0.0223,-0.1860,2.594
4.678000,2.3534,-0.1620,-0.5144,2.414
4.683000,2.2960,-0.3470,-0.6787,2.419
4.688000,1.6462,-0.5242,-0.7913,1.900
4.693000,1.3472,-0.6095,-0.9998,1.785
4.698000,1.1691,-0.6247,-1.3033,1.859
4.703000,1.0456,-0.6335,-1.6099,2.021
4.709000,0.9146,-0.6361,-1.8426,2.153
4.713000,0.7570,-0.6468,-1.9751,2.212
4.718000,0.5590,-0.6701,-1.9934,2.176
4.723000,0.3730,-0.6894,-1.9504,2.102
4.728000,0.2310,-0.7207,-1.9088,2.053
4.735000,0.1138,-0.7500,-1.8493,1.999
4.739000,0.0310,-0.7651,-1.7289,1.891
4.743000,-0.0221,-0.7615,-1.5532,1.730
4.749000,-0.0527,-0.7607,-1.2990,1.506
4.753000,-0.0877,-0.7657,-0.9837,1.250
4.759000,-0.1120,-0.7639,-0.6400,1.003
4.771000,-0.1262,-0.7584,-0.2754,0.817
4.772000,-0.1425,-0.7686,0.1071,0.789
4.773000,-0.1707,-0.7898,0.4898,0.945
4.779000,-0.2038,-0.8058,0.8749,1.207
4.813000,-0.2557,-0.8207,1.2560,1.522
4.815000,-0.3079,-0.8447,1.6111,1.845
4.815000,-0.3723,-0.8490,1.9399,2.150
4.816000,-0.4468,-0.8627,2.2394,2.441
4.816000,-0.5388,-0.8931,2.4951,2.704
4.816000,-0.6549,-0.9252,2.7180,2.945
4.817000,-0.7978,-0.9688,2.9033,3.163
4.819000,-0.9604,-0.9978,3.0580,3.357
4.824000,-1.1449,-1.0215,3.1937,3.543
4.828000,-1.3302,-1.0427,3.3083,3.715
4.835000,-1.5273,-1.0652,3.3988,3.876
4.839000,-1.7173,-1.0869,3.4561,4.009
4.844000,-1.9097,-1.1242,3.4708,4.118
4.849000,-2.1161,-1.1889,3.4763,4.240
4.854000,-2.3244,-1.2783,3.4657,4.364
4.859000,-2.5325,-1.3832,3.4295,4.482
4.865000,-2.7513,-1.5164,3.3702,4.607
4.869000,-2.9642,-1.6400,3.3072,4.734
4.874000,-3.1782,-1.7727,3.2120,4.854
4.879000,-3.3836,-1.9047,3.1159,4.978
4.888000,-3.5876,-2.0481,3.0167,5.115
4.890000,-3.8062,-2.1633,2.8884,5.245
4.894000,-4.0157,-2.2555,2.7504,5.364
4.927000,-4.2183,-2.3195,2.6032,5.473
4.929000,-4.5790,-2.3051,2.3371,5.634
4.930000,-4.6194,-2.3799,2.3186,5.690
4.930000,-4.8057,-2.3755,2.1869,5.790
4.931000,-4.9610,-2.3614,2.0573,5.867
4.932000,-5.1139,-2.3544,1.9251,5.950
4.932000,-5.2357,-2.3494,1.8077,6.017
4.934000,-5.3265,-2.3584,1.7053,6.070
4.939000,-5.3986,-2.3744,1.6273,6.118
4.943000,-5.4467,-2.4038,1.5596,6.154
4.949000,-5.4784,-2.4469,1.5047,6.186
4.954000,-5.4770,-2.4894,1.4623,6.191
4.959000,-5.4547,-2.5431,1.4300,6.186
4.965000,-5.4188,-2.5870,1.4126,6.169
4.969000,-5.3788,-2.6374,1.3957,6.151
4.974000,-5.3373,-2.6851,1.3744,6.131
4.979000,-5.2801,-2.7302,1.3533,6.096
4.987000,-5.2289,-2.7822,1.3205,6.068
4.989000,-5.1908,-2.8344,1.2996,6.055
4.994000,-5.1492,-2.8768,1.2810,6.036
5.022000,-5.1208,-2.9025,1.2620,6.020
5.024000,-5.1010,-2.9116,1.2446,6.004
5.024000,-5.0731,-2.9114,1.2075,5.972
5.025000,-5.0370,-2.9567,1.1529,5.953
5.026000,-4.9807,-3.0331,1.0788,5.931
5.026000,-4.8925,-3.1478,0.9971,5.903
5.030000,-4.7843,-3.2866,0.9199,5.877
5.034000,-4.6825,-3.4447,0.8325,5.872
5.039000,-4.5681,-3.6078,0.7421,5.868
5.045000,-4.4937,-3.7640,0.6461,5.897
5.049000,-4.4519,-3.9228,0.5423,5.958
5.054000,-4.4476,-4.0961,0.4331,6.062
5.059000,-4.4615,-4.2788,0.3089,6.189
5.065000,-4.5053,-4.4396,0.1746,6.328
5.069000,-4.5838,-4.5951,0.0444,6.491
5.074000,-4.6752,-4.7282,-0.0885,6.650
5.079000,-4.7984,-4.8627,-0.2120,6.835
5.085000,-4.9223,-4.9623,-0.3475,6.998
5.089000,-5.0442,-5.0530,-0.4852,7.156
5.094000,-5.1520,-5.1464,-0.6270,7.309
5.105000,-5.2288,-5.2543,-0.7769,7.453
5.107000,-5.2552,-5.4121,-0.9159,7.599
5.111000,-5.2240,-5.5837,-1.0531,7.719
5.140000,-5.1352,-5.7786,-1.1906,7.822
5.142000,-5.0102,-5.9848,-1.3305,7.918
5.143000,-4.8274,-6.1637,-1.4559,7.963
5.143000,-4.6372,-6.3017,-1.5547,7.977
5.144000,-4.4466,-6.3892,-1.6649,7.960
5.145000,-4.2579,-6.4073,-1.7696,7.894
5.145000,-4.0568,-6.3826,-1.8685,7.790
5.150000,-3.8549,-6.3316,-1.9638,7.668
5.155000,-3.6312,-6.2771,-2.0363,7.532
5.159000,-3.3998,-6.2309,-2.0715,7.394
5.165000,-3.1749,-6.1980,-2.0937,7.272
5.169000,-2.9782,-6.1572,-2.0837,7.150
5.174000,-2.8162,-6.1033,-2.0345,7.023
5.180000,-2.6967,-6.0494,-1.9394,6.901
5.189000,-2.6358,-5.9711,-1.7555,6.759
5.191000,-2.6066,-5.8658,-1.5050,6.593
5.195000,-2.6066,-5.7525,-1.1813,6.425
5.215000,-2.5917,-5.6112,-0.8231,6.235
5.217000,-2.5721,-5.4720,-0.4549,6.063
5.218000,-2.5040,-5.3221,-0.0509,5.882
5.218000,-2.3703,-5.1711,0.3502,5.699
5.221000,-2.1662,-4.9953,0.7480,5.496
5.224000,-1.9131,-4.8118,1.1464,5.304
5.229000,-1.5841,-4.6106,1.5280,5.109
5.234000,-1.1879,-4.3986,1.8819,4.930
5.239000,-0.7435,-4.1589,2.1690,4.749
5.244000,-0.2750,-3.9041,2.3815,4.581
5.249000,0.2338,-3.6446,2.5240,4.439
5.255000,0.7641,-3.4017,2.5915,4.344
5.259000,1.3088,-3.1992,2.5959,4.323
5.265000,1.8658,-3.0418,2.5463,4.384
5.269000,2.4151,-2.8966,2.4263,4.484
5.275000,2.9274,-2.7739,2.2599,4.623
5.279000,3.3934,-2.6733,2.0685,4.790
5.284000,3.8107,-2.5680,1.8721,4.962
5.290000,4.1608,-2.4671,1.6993,5.127
5.296000,4.4672,-2.3324,1.5528,5.273
5.304000,4.7249,-2.1929,1.3899,5.391
5.306000,4.9609,-2.0360,1.2178,5.499
5.310000,5.1874,-1.8607,1.0401,5.608
5.344000,5.3930,-1.6688,0.8713,5.712
5.345000,5.6107,-1.4533,0.7261,5.841
5.346000,5.8376,-1.2238,0.5901,5.994
5.347000,6.0780,-0.9780,0.4612,6.173
5.347000,6.2890,-0.7444,0.2911,6.340
5.348000,6.5067,-0.5023,0.1217,6.527
5.348000,6.7100,-0.2128,-0.0636,6.714
5.349000,6.8959,0.0999,-0.2571,6.901
5.355000,7.0659,0.4573,-0.4658,7.096
5.360000,7.1941,0.8312,-0.6678,7.273
5.366000,7.2953,1.2137,-0.8524,7.445
5.370000,7.3582,1.5745,-1.0096,7.592
5.376000,7.3754,1.9328,-1.1393,7.709
5.379000,7.3468,2.2699,-1.2552,7.791
5.385000,7.2923,2.6053,-1.3526,7.861
5.390000,7.2060,2.9318,-1.4254,7.909
5.396000,7.0934,3.2428,-1.4786,7.938
5.406000,6.9643,3.5313,-1.5121,7.954
5.407000,6.8307,3.7809,-1.5257,7.955
5.411000,6.6835,3.9894,-1.5340,7.933
5.437000,6.5440,4.1522,-1.5509,7.904
5.438000,6.3981,4.2553,-1.5835,7.845
5.439000,6.2412,4.3133,-1.6271,7.759
5.439000,6.0688,4.3478,-1.6788,7.652
5.440000,5.8859,4.3687,-1.7197,7.529
5.441000,5.6760,4.3641,-1.7451,7.369
5.447000,5.4658,4.3365,-1.7762,7.200
5.450000,5.2557,4.2695,-1.8037,7.007
5.457000,5.0459,4.1774,-1.8420,6.805
5.460000,4.8151,4.0555,-1.8840,6.571
5.466000,4.5586,3.9207,-1.9322,6.316
5.470000,4.2936,3.8113,-1.9481,6.063
5.476000,3.9941,3.7202,-1.9491,5.796
5.480000,3.6987,3.6282,-1.9329,5.530
5.485000,3.4124,3.5520,-1.9046,5.281
5.490000,3.1663,3.4725,-1.8812,5.062
5.496000,2.9253,3.3802,-1.8605,4.842
5.505000,2.7226,3.2632,-1.8333,4.628
5.507000,2.5466,3.0999,-1.8283,4.409
5.510000,2.4044,2.9214,-1.8337,4.205
5.533000,2.2386,2.7182,-1.8473,3.977
5.535000,2.0740,2.5145,-1.8642,3.755
5.536000,1.8890,2.3269,-1.8845,3.540
5.537000,1.6911,2.1483,-1.9179,3.340
5.537000,1.4901,1.9740,-1.9451,3.146
5.540000,1.2935,1.7921,-1.9566,2.952
5.546000,1.0916,1.6123,-1.9547,2.759
5.550000,0.8928,1.4492,-1.9470,2.586
5.558000,0.7064,1.2668,-1.9261,2.411
5.560000,0.5183,1.1133,-1.8779,2.244
5.565000,0.3335,0.9575,-1.8049,2.070
5.571000,0.1665,0.7947,-1.7286,1.910
5.575000,-0.0084,0.6348,-1.6231,1.743
5.579000,-0.1718,0.4707,-1.4863,1.568
5.586000,-0.3451,0.2739,-1.3278,1.399
5.590000,-0.5278,0.0614,-1.1554,1.272
5.596000,-0.7055,-0.1524,-0.9955,1.230
5.600000,-0.9202,-0.3765,-0.8629,1.316
5.606000,-1.1598,-0.5725,-0.7335,1.487
5.611000,-1.4141,-0.6874,-0.5931,1.680
5.615000,-1.6492,-0.7283,-0.4490,1.858
5.620000,-1.8289,-0.7068,-0.3134,1.986
5.626000,-1.9486,-0.6518,-0.1911,2.064
5.641000,-2.0056,-0.5631,-0.0702,2.084
5.653000,-1.9810,-0.4815,0.0469,2.039
5.655000,-1.8896,-0.4046,0.1720,1.940
5.655000,-1.7294,-0.3374,0.2979,1.787
5.655000,-1.5199,-0.2681,0.4197,1.599
5.656000,-1.2759,-0.2114,0.5465,1.404
5.661000,-1.0196,-0.1676,0.6973,1.247
5.680000,-0.7606,-0.1320,0.8573,1.154
5.681000,-0.5042,-0.0833,1.0116,1.133
5.682000,-0.2744,-0.0122,1.1427,1.175
5.682000,-0.0407,0.0737,1.2361,1.239
5.686000,0.1825,0.1672,1.2844,1.308
5.690000,0.4091,0.2584,1.2780,1.367
5.697000,0.6533,0.3280,1.2047,1.409
5.701000,0.9193,0.3495,1.0622,1.448
5.706000,1.1948,0.3537,0.8533,1.510
5.711000,1.4841,0.3451,0.5832,1.632
5.718000,1.7508,0.3189,0.2642,1.799
5.720000,1.9994,0.2699,-0.0792,2.019
5.726000,2.2203,0.2007,-0.4442,2.273
5.738000,2.4158,0.1399,-0.8355,2.560
5.743000,2.5758,0.0969,-1.2396,2.860
5.745000,2.7173,0.0789,-1.6583,3.184
5.745000,2.8137,0.0740,-2.0695,3.494
5.763000,2.8963,0.0967,-2.4604,3.801
5.765000,2.9697,0.1279,-2.8044,4.087
5.767000,3.0388,0.1868,-3.1292,4.366
5.767000,3.1153,0.3571,-3.3843,4.614
5.770000,3.1848,0.4211,-3.6220,4.841
5.776000,3.3072,0.4223,-3.8801,5.116
5.782000,3.4485,0.4107,-4.1316,5.397
5.786000,3.5630,0.3650,-4.3422,5.629
5.791000,3.6267,0.3114,-4.4855,5.777
5.796000,3.6826,0.2597,-4.6019,5.900
5.801000,3.7189,0.2363,-4.6817,5.984
5.806000,3.7477,0.2315,-4.7154,6.028
5.811000,3.7620,0.2096,-4.7078,6.030
5.816000,3.7188,0.1635,-4.6543,5.960
5.821000,3.6136,0.0740,-4.5550,5.815
5.826000,3.4683,-0.0467,-4.4055,5.607
5.837000,3.3166,-0.1794,-4.2011,5.356
5.839000,3.1969,-0.3170,-3.9707,5.108
5.841000,3.1166,-0.4667,-3.7174,4.873
5.846000,3.0516,-0.6213,-3.4675,4.661
5.866000,2.9947,-0.7977,-3.1999,4.455
5.868000,2.9412,-1.0081,-2.9508,4.286
5.870000,2.8717,-1.2500,-2.7225,4.150
5.871000,2.7868,-1.5043,-2.4893,4.028
5.871000,2.6723,-1.7446,-2.2443,3.902
5.876000,2.5141,-1.9374,-1.9829,3.742
5.883000,2.3246,-2.0970,-1.7127,3.568
5.886000,2.1158,-2.2114,-1.4360,3.381
5.891000,1.8959,-2.2612,-1.1490,3.167
5.896000,1.6696,-2.2824,-0.8277,2.947
5.914000,1.4516,-2.2414,-0.4942,2.716
5.917000,1.1128,-2.0163,0.1671,2.309
5.917000,1.0767,-2.0305,0.2229,2.309
5.917000,0.9319,-1.8699,0.5721,2.166
5.920000,0.8985,-1.6879,0.8987,2.113
5.926000,0.7299,-1.4916,1.1975,2.047
5.932000,0.6725,-1.2668,1.4945,2.071
5.936000,0.6329,-1.0398,1.7895,2.164
5.940000,0.5725,-0.7774,2.0822,2.295
5.945000,0.5034,-0.5057,2.3451,2.451
5.950000,0.4375,-0.2296,2.5783,2.625
5.956000,0.3817,0.0436,2.7721,2.799
5.961000,0.3694,0.2851,2.9262,2.963
5.973000,0.3978,0.4758,3.0240,3.087
5.974000,0.4764,0.5846,3.0846,3.175
5.975000,0.5973,0.6184,3.0914,3.209
6.012000,0.7484,0.5557,3.0493,3.189
6.013000,0.9100,0.4177,2.9634,3.128
6.014000,1.0364,0.2355,2.8339,3.027
6.014000,1.1083,0.0424,2.6684,2.890
6.015000,1.1429,-0.1397,2.4358,2.694
6.015000,1.1065,-0.3422,2.1702,2.460
6.017000,1.0378,-0.5219,1.8746,2.205
6.018000,0.9251,-0.6856,1.5569,1.936
6.022000,0.8115,-0.8239,1.2417,1.697
6.026000,0.6857,-0.9340,0.9250,1.483
6.032000,0.5501,-1.0421,0.6386,1.340
6.036000,0.3930,-1.1385,0.3902,1.266
6.041000,0.2316,-1.2277,0.1706,1.261
6.045000,0.0590,-1.2880,-0.0315,1.290
6.051000,-0.1103,-1.3312,-0.1991,1.351
6.055000,-0.2757,-1.3472,-0.3342,1.415
6.060000,-0.4083,-1.3408,-0.4415,1.469
6.071000,-0.5126,-1.3380,-0.5017,1.518
6.072000,-0.5933,-1.3363,-0.5316,1.556
6.076000,-0.6313,-1.3213,-0.5454,1.563
6.100000,-0.6191,-1.3095,-0.5342,1.544
6.101000,-0.5784,-1.2939,-0.4860,1.498
6.101000,-0.5189,-1.2363,-0.4105,1.402
6.102000,-0.4241,-1.1537,-0.3009,1.265
6.103000,-0.3398,-1.0322,-0.1548,1.098
6.106000,-0.2397,-0.8764,0.0292,0.909
6.110000,-0.1220,-0.6991,0.2723,0.760
6.116000,0.0061,-0.5194,0.5239,0.738
6.121000,0.1368,-0.3306,0.7952,0.872
6.127000,0.2626,-0.1402,1.0691,1.110
6.132000,0.3688,0.0156,1.3408,1.391
6.137000,0.4409,0.1726,1.6044,1.673
6.140000,0.4977,0.3114,1.8599,1.950
6.149000,0.5174,0.4388,2.0948,2.202
6.151000,0.5095,0.5478,2.3040,2.422
6.156000,0.4761,0.6406,2.5090,2.633
6.161000,0.4414,0.7173,2.6776,2.807
6.167000,0.3979,0.7922,2.8101,2.947
6.171000,0.3503,0.8555,2.9277,3.070
6.176000,0.2985,0.9002,3.0278,3.173
6.188000,0.2351,0.8757,3.1272,3.256
6.189000,0.1532,0.8257,3.2037,3.312
6.191000,0.0408,0.7500,3.2641,3.349
6.232000,-0.0878,0.6703,3.2846,3.353
6.235000,-0.2492,0.5746,3.2603,3.320
6.236000,-0.4266,0.4748,3.2108,3.274
6.236000,-0.6097,0.3956,3.1385,3.222
6.237000,-0.7889,0.3249,3.0751,3.191
6.237000,-0.9547,0.2435,3.0111,3.168
6.237000,-1.1115,0.1517,2.9420,3.149
6.238000,-1.2663,0.0400,2.8488,3.118
6.238000,-1.4025,-0.0772,2.7486,3.087
6.241000,-1.5385,-0.1827,2.6320,3.054
6.248000,-1.6554,-0.2790,2.5210,3.029
6.251000,-1.7602,-0.3755,2.4088,3.007
6.256000,-1.8744,-0.4652,2.2954,3.000
6.261000,-1.9812,-0.5577,2.2000,3.013
6.266000,-2.0994,-0.6380,2.0892,3.030
6.271000,-2.2195,-0.7064,1.9871,3.062
6.276000,-2.3269,-0.7675,1.8796,3.088
6.288000,-2.4313,-0.8213,1.7835,3.125
6.289000,-2.5209,-0.8801,1.7040,3.168
6.290000,-2.6166,-0.9216,1.6364,3.221
6.296000,-2.7115,-0.9676,1.5902,3.289
6.320000,-2.8032,-1.0086,1.5679,3.367
6.321000,-2.8916,-1.0635,1.5548,3.451
6.322000,-2.9650,-1.1181,1.5534,3.529
6.322000,-3.0516,-1.1552,1.5541,3.614
6.322000,-3.1300,-1.1988,1.5664,3.700
6.326000,-3.2146,-1.2392,1.5951,3.797
6.331000,-3.3006,-1.2788,1.6159,3.891
6.337000,-3.3855,-1.3439,1.6482,3.998
6.341000,-3.4575,-1.4008,1.6749,4.089
6.348000,-3.5138,-1.4753,1.7008,4.173
6.351000,-3.5450,-1.5701,1.7355,4.248
6.356000,-3.5416,-1.6921,1.7740,4.307
6.362000,-3.5420,-1.7936,1.8111,4.364
6.367000,-3.5584,-1.8795,1.8439,4.427
6.372000,-3.5905,-1.9472,1.8485,4.483
6.376000,-3.6577,-1.9897,1.8272,4.547
6.387000,-3.7310,-2.0116,1.7966,4.604
6.389000,-3.8153,-2.0274,1.7280,4.653
6.391000,-3.8916,-2.0634,1.6357,4.699
6.416000,-3.9619,-2.1145,1.5154,4.740
6.418000,-4.0121,-2.1905,1.3599,4.769
6.418000,-4.0542,-2.2843,1.1861,4.802
6.419000,-4.1144,-2.4077,0.9944,4.870
6.419000,-4.1856,-2.5918,0.7967,4.987
6.423000,-4.2841,-2.8072,0.5796,5.155
6.426000,-4.4144,-3.0704,0.3550,5.389
6.432000,-4.5620,-3.3618,0.1330,5.668
6.437000,-4.7145,-3.6616,-0.0744,5.970
6.442000,-4.9004,-3.9503,-0.2928,6.301
6.448000,-5.0955,-4.1938,-0.5031,6.619
6.452000,-5.3112,-4.4036,-0.6970,6.934
6.457000,-5.5115,-4.5552,-0.8909,7.206
6.461000,-5.6936,-4.6864,-1.0534,7.449
6.466000,-5.8357,-4.7826,-1.1957,7.639
6.472000,-5.9210,-4.8649,-1.3178,7.776
6.476000,-5.9183,-4.9428,-1.4118,7.839
6.488000,-5.8084,-5.0139,-1.4920,7.817
6.491000,-5.5700,-5.1334,-1.5509,7.732
6.492000,-5.1960,-5.2559,-1.5766,7.557
6.496000,-4.7274,-5.3747,-1.5572,7.325
6.529000,-4.1960,-5.4553,-1.5125,7.047
6.531000,-3.6691,-5.4888,-1.4502,6.760
6.532000,-3.1804,-5.4708,-1.3993,6.481
6.533000,-2.7683,-5.4212,-1.3362,6.232
6.533000,-2.4133,-5.3471,-1.2585,6.000
6.534000,-2.0969,-5.2472,-1.1954,5.776
6.534000,-1.7854,-5.1383,-1.1515,5.560
6.537000,-1.4813,-5.0421,-1.1149,5.372
6.542000,-1.2015,-4.9901,-1.0831,5.246
6.548000,-0.9722,-4.9586,-1.0372,5.158
6.552000,-0.7930,-4.9375,-0.9656,5.093
6.559000,-0.6741,-4.9134,-0.8666,5.035
6.562000,-0.5908,-4.8761,-0.7524,4.969
6.567000,-0.5286,-4.7826,-0.6117,4.850
6.572000,-0.4778,-4.6494,-0.4208,4.693
6.577000,-0.4327,-4.4712,-0.1994,4.497
6.582000,-0.3487,-4.2610,0.0302,4.275
6.587000,-0.1942,-4.0158,0.2775,4.030
6.592000,0.0187,-3.7385,0.5516,3.779
6.609000,0.2755,-3.4436,0.8185,3.550
6.614000,0.5669,-3.1332,1.0826,3.363
6.615000,0.8795,-2.8017,1.3072,3.214
6.618000,1.2041,-2.4465,1.4922,3.108
6.619000,1.5474,-2.0726,1.6035,3.043
6.649000,1.9115,-1.7069,1.6316,3.038
6.650000,2.2863,-1.3472,1.5693,3.083
6.650000,2.6624,-0.9960,1.4315,3.183
6.651000,3.0405,-0.6714,1.2280,3.347
6.651000,3.4398,-0.3732,0.9786,3.596
6.651000,3.8526,-0.0947,0.6887,3.915
6.652000,4.2542,0.1900,0.4044,4.278
6.657000,4.6517,0.4714,0.1452,4.678
6.662000,4.9716,0.7531,-0.0858,5.029
6.667000,5.2188,1.0495,-0.2981,5.332
6.672000,5.4098,1.3178,-0.4576,5.587
6.676000,5.5636,1.5889,-0.5761,5.815
6.681000,5.6638,1.8490,-0.6366,5.992
6.687000,5.7475,2.0807,-0.6366,6.146
6.691000,5.8104,2.2774,-0.6002,6.270
6.700000,5.8929,2.4584,-0.5370,6.408
6.702000,5.9662,2.6141,-0.4496,6.529
6.706000,6.0497,2.7641,-0.3358,6.660
6.711000,6.1326,2.9006,-0.2341,6.788
6.730000,6.2200,3.0146,-0.1469,6.914
6.734000,6.2971,3.1105,-0.0959,7.024
6.735000,6.3732,3.1886,-0.0808,7.127
6.735000,6.4408,3.2630,-0.0775,7.221
6.738000,6.4782,3.3338,-0.1048,7.286
6.743000,6.5016,3.3936,-0.1289,7.335
6.749000,6.4824,3.4353,-0.1498,7.338
6.752000,6.4253,3.4660,-0.1816,7.303
6.757000,6.3352,3.4644,-0.2122,7.224
6.763000,6.1835,3.4353,-0.2297,7.077
6.767000,5.9943,3.3859,-0.2507,6.889
6.772000,5.7800,3.3046,-0.2440,6.662
6.777000,5.5385,3.2010,-0.2219,6.401
6.782000,5.2773,3.0849,-0.1965,6.116
6.787000,4.9893,2.9681,-0.1869,5.808
6.792000,4.6801,2.8486,-0.1764,5.482
6.799000,4.3549,2.7313,-0.1509,5.143
6.802000,4.0139,2.6068,-0.1009,4.787
6.807000,3.6721,2.4920,-0.0483,4.438
6.812000,3.3417,2.3678,-0.0029,4.096
6.817000,3.0209,2.2466,0.0281,3.765
6.823000,2.7125,2.1117,0.0542,3.438
6.827000,2.4216,1.9752,0.0517,3.125
6.840000,2.1292,1.8636,0.0660,2.830
6.842000,1.8592,1.7551,0.0802,2.558
6.842000,1.5865,1.6432,0.1085,2.287
6.876000,1.3346,1.5350,0.1628,2.041
6.877000,1.0871,1.4067,0.2212,1.792
6.878000,0.8419,1.2657,0.2740,1.545
6.878000,0.5990,1.1262,0.3258,1.317
6.880000,0.3497,0.9938,0.3789,1.120
6.880000,0.1153,0.8730,0.4213,0.976
6.881000,-0.1062,0.7689,0.4744,0.910
6.885000,-0.3362,0.6791,0.5165,0.917
6.887000,-0.5579,0.5967,0.5477,0.983
6.893000,-0.7666,0.5405,0.5515,1.088
6.898000,-0.9758,0.4658,0.5638,1.219
6.902000,-1.1761,0.3774,0.5775,1.364
6.908000,-1.3722,0.2992,0.5855,1.522
6.913000,-1.5592,0.2148,0.5733,1.675
6.917000,-1.7492,0.1311,0.5600,1.841
6.923000,-1.9367,0.0489,0.5362,2.010
6.927000,-2.1290,-0.0200,0.4996,2.187
6.937000,-2.3187,-0.0849,0.4717,2.368
6.938000,-2.4985,-0.1457,0.4360,2.540
6.942000,-2.6706,-0.1806,0.4044,2.707
6.964000,-2.8400,-0.2041,0.3554,2.869
6.966000,-2.9918,-0.2181,0.2894,3.014
6.967000,-3.1405,-0.2250,0.2280,3.157
6.967000,-3.2908,-0.2248,0.1643,3.303
6.968000,-3.4378,-0.2052,0.1055,3.445
6.973000,-3.5791,-0.1878,0.0373,3.584
6.977000,-3.6930,-0.1628,-0.0184,3.697
6.982000,-3.7960,-0.1348,-0.0569,3.799
6.988000,-3.8597,-0.1062,-0.0903,3.862
6.993000,-3.8983,-0.0746,-0.1162,3.901
6.998000,-3.8951,-0.0543,-0.1273,3.898
7.003000,-3.8550,-0.0237,-0.1355,3.857
7.008000,-3.7781,0.0051,-0.1241,3.780
7.013000,-3.6526,0.0414,-0.1146,3.655
7.018000,-3.5028,0.0637,-0.0930,3.505
7.023000,-3.3311,0.0861,-0.0498,3.333
7.027000,-3.1520,0.1014,-0.0044,3.154
7.039000,-2.9826,0.1116,0.0286,2.985
7.040000,-2.8134,0.1214,0.0324,2.816
7.043000,-2.6372,0.1522,0.0401,2.642
7.075000,-2.4686,0.1991,0.0232,2.477
7.076000,-2.3052,0.2499,-0.0138,2.319
7.077000,-2.1258,0.2925,-0.0494,2.146
7.077000,-1.9472,0.3124,-0.0981,1.975
7.077000,-1.7383,0.3382,-0.1862,1.781
7.078000,-1.5019,0.3410,-0.3208,1.573
7.084000,-1.2188,0.3231,-0.4827,1.350
7.086000,-0.9138,0.3030,-0.6520,1.163
7.088000,-0.6229,0.2568,-0.8312,1.070
7.093000,-0.3393,0.1889,-1.0106,1.083
7.098000,-0.0847,0.1159,-1.1900,1.199
7.103000,0.1459,0.0405,-1.3576,1.366
7.108000,0.3568,-0.0260,-1.5349,1.576
7.115000,0.5599,-0.1121,-1.7073,1.800
7.119000,0.7459,-0.1939,-1.8821,2.034
7.123000,0.9074,-0.2641,-2.0565,2.263
7.127000,1.0493,-0.3205,-2.2375,2.492
7.133000,1.1837,-0.3700,-2.4033,2.704
7.138000,1.3102,-0.3889,-2.5534,2.896
7.142000,1.4338,-0.3773,-2.6804,3.063
7.155000,1.5687,-0.3374,-2.7889,3.218
7.156000,1.6934,-0.2478,-2.8452,3.320
7.158000,1.8726,-0.2735,-2.9546,3.509
7.185000,2.1151,-0.2879,-3.0707,3.740
7.186000,2.3822,-0.2768,-3.1646,3.971
7.187000,2.6569,-0.2788,-3.2407,4.200
7.188000,2.9411,-0.2964,-3.2775,4.414
7.188000,3.2060,-0.3081,-3.3011,4.612
7.189000,3.4583,-0.3501,-3.2997,4.793
7.193000,3.6477,-0.4177,-3.2444,4.900
7.198000,3.8004,-0.5131,-3.1594,4.969
7.203000,3.8951,-0.6389,-3.0306,4.976
7.208000,3.9533,-0.7853,-2.8868,4.958
7.213000,3.9706,-0.9570,-2.7091,4.901
7.218000,3.9469,-1.1540,-2.5098,4.818
7.224000,3.9137,-1.3713,-2.3060,4.745
7.229000,3.8663,-1.5899,-2.1002,4.678
7.233000,3.7691,-1.8214,-1.9072,4.600
7.238000,3.6320,-2.0466,-1.7151,4.508
7.243000,3.4292,-2.2463,-1.5172,4.371
7.250000,3.1874,-2.4224,-1.3233,4.216
7.254000,2.9024,-2.5412,-1.1361,4.022
7.258000,2.5940,-2.6169,-0.9437,3.804
7.265000,2.3056,-2.6182,-0.7414,3.567
7.274000,2.0208,-2.5688,-0.5250,3.310
7.276000,1.7878,-2.4638,-0.2919,3.058
7.278000,1.5945,-2.3199,-0.0399,2.815
7.304000,1.4388,-2.1204,0.2331,2.573
7.306000,1.3300,-1.8821,0.5198,2.363
7.307000,1.2703,-1.6076,0.8172,2.206
7.307000,1.2428,-1.3521,1.1322,2.157
7.307000,1.2304,-1.0725,1.4357,2.174
7.310000,1.2307,-0.7762,1.7393,2.268
7.314000,1.2503,-0.4588,2.0423,2.438
7.319000,1.2794,-0.1347,2.3230,2.655
7.324000,1.3009,0.1983,2.5781,2.895
7.328000,1.3409,0.5232,2.8051,3.153
7.333000,1.3918,0.8303,2.9751,3.388
7.339000,1.4510,1.0954,3.0805,3.577
7.343000,1.5371,1.3042,3.1167,3.712
7.349000,1.6499,1.4563,3.0600,3.769
7.353000,1.7840,1.5180,2.9203,3.744
7.358000,1.9128,1.5012,2.7053,3.637
7.363000,2.0073,1.4273,2.3867,3.430
7.369000,2.0624,1.3032,1.9942,3.151
7.374000,2.0593,1.1483,1.5525,2.823
7.378000,2.0076,0.9721,1.0818,2.479
7.387000,1.9051,0.7843,0.6138,2.150
7.389000,1.7905,0.5803,0.1470,1.888
7.393000,1.6519,0.3841,-0.2986,1.722
7.417000,1.4994,0.2033,-0.7175,1.675
7.419000,1.3428,0.0331,-1.0992,1.736
7.419000,1.1921,-0.1237,-1.4576,1.887
7.420000,1.0139,-0.2622,-1.7801,2.065
7.420000,0.8255,-0.3918,-2.0804,2.272
7.424000,0.6271,-0.5026,-2.3460,2.480
7.428000,0.4459,-0.6014,-2.5765,2.683
7.435000,0.2749,-0.6662,-2.7336,2.827
7.439000,0.1312,-0.7090,-2.8195,2.910
7.443000,0.0127,-0.7248,-2.8322,2.924
7.450000,-0.0926,-0.7256,-2.7765,2.871
7.454000,-0.1650,-0.6943,-2.6459,2.740
7.459000,-0.2023,-0.6623,-2.4310,2.528
7.463000,-0.1877,-0.6032,-2.1230,2.215
7.469000,-0.1313,-0.5486,-1.7272,1.817
7.474000,-0.0405,-0.4772,-1.2706,1.358
7.479000,0.0679,-0.4201,-0.7787,0.887
7.489000,0.1647,-0.3396,-0.2782,0.469
7.490000,0.2520,-0.2765,0.2372,0.443
7.494000,0.3295,-0.1808,0.7165,0.809
7.532000,0.3780,-0.0791,1.1665,1.229
7.535000,0.4017,0.0139,1.6012,1.651
7.536000,0.4008,0.1200,2.0121,2.055
7.536000,0.3870,0.2030,2.3918,2.431
7.536000,0.3626,0.2940,2.7422,2.782
7.537000,0.3179,0.3715,3.0534,3.092
7.537000,0.2718,0.4424,3.3254,3.366
7.538000,0.2079,0.4810,3.5522,3.591
7.539000,0.1355,0.4823,3.7271,3.761
7.544000,0.0452,0.4727,3.8665,3.896
7.550000,-0.0535,0.4261,3.9534,3.977
7.554000,-0.1749,0.3782,3.9763,3.998
7.559000,-0.2732,0.3225,3.9518,3.974
7.564000,-0.3677,0.2706,3.8922,3.919
7.569000,-0.4749,0.2083,3.8120,3.847
7.574000,-0.5853,0.1405,3.6946,3.743
7.580000,-0.7204,0.0693,3.5334,3.607
7.589000,-0.8343,-0.0143,3.3524,3.455
7.592000,-0.9485,-0.1079,3.1569,3.298
7.594000,-1.0652,-0.2115,2.9473,3.141
7.630000,-1.1867,-0.3106,2.7527,3.014
7.632000,-1.2986,-0.4243,2.5685,2.909
7.634000,-1.4105,-0.5457,2.3997,2.837
7.635000,-1.5386,-0.6548,2.2274,2.785
7.635000,-1.6446,-0.7615,2.0661,2.748
7.636000,-1.7596,-0.8823,1.9257,2.754
7.636000,-1.8784,-0.9979,1.8016,2.787
7.636000,-1.9941,-1.1083,1.7058,2.849
7.639000,-2.1013,-1.1939,1.6192,2.909
7.643000,-2.2073,-1.2858,1.5491,2.987
7.649000,-2.2929,-1.3647,1.4883,3.055
7.655000,-2.3795,-1.4235,1.4301,3.120
7.659000,-2.4602,-1.4790,1.3600,3.176
7.665000,-2.5464,-1.5307,1.2830,3.236
7.669000,-2.6073,-1.5692,1.2017,3.272
7.675000,-2.6644,-1.5731,1.1376,3.297
7.679000,-2.7201,-1.5805,1.0741,3.324
7.684000,-2.7843,-1.5774,1.0349,3.363
7.689000,-2.8493,-1.5799,1.0057,3.410
7.695000,-2.8986,-1.5716,0.9887,3.442
7.705000,-2.9442,-1.5668,0.9834,3.477
7.707000,-2.9862,-1.5390,0.9992,3.505
7.710000,-3.0269,-1.5122,1.0143,3.532
7.742000,-3.0833,-1.4721,1.0478,3.574
7.743000,-3.1312,-1.4280,1.1017,3.613
7.744000,-3.1707,-1.3872,1.1542,3.648
7.744000,-3.2162,-1.3471,1.2027,3.689
7.745000,-3.2487,-1.2864,1.2207,3.701
7.745000,-3.2657,-1.2458,1.2201,3.702
7.751000,-3.2410,-1.2226,1.2085,3.669
7.753000,-3.1793,-1.2218,1.2073,3.614
7.755000,-3.0930,-1.2435,1.2067,3.545
7.759000,-2.9916,-1.2831,1.1947,3.468
7.765000,-2.9041,-1.3337,1.1712,3.404
7.769000,-2.8591,-1.3496,1.1413,3.361
7.775000,-2.8733,-1.3597,1.1191,3.370
7.779000,-2.9250,-1.3591,1.0857,3.403
7.786000,-3.0165,-1.3572,1.0483,3.470
7.790000,-3.1092,-1.3683,0.9782,3.535
7.795000,-3.1815,-1.3633,0.8708,3.569
7.804000,-3.2286,-1.3614,0.7391,3.581
7.806000,-3.2552,-1.3555,0.5976,3.576
7.809000,-3.2661,-1.3671,0.4538,3.570
7.840000,-3.2759,-1.3844,0.3127,3.570
7.842000,-3.2963,-1.4215,0.1767,3.594
7.842000,-3.3180,-1.4715,0.0583,3.630
7.843000,-3.3478,-1.5269,-0.0691,3.680
7.843000,-3.3857,-1.5971,-0.1860,3.748
7.844000,-3.4412,-1.6749,-0.2635,3.836
7.844000,-3.5021,-1.7671,-0.3235,3.936
7.850000,-3.5324,-1.8711,-0.3657,4.014
7.856000,-3.5606,-1.9892,-0.4186,4.100
7.861000,-3.5748,-2.1450,-0.4774,4.196
7.865000,-3.5508,-2.3169,-0.5535,4.276
7.871000,-3.4955,-2.4926,-0.6230,4.338
7.877000,-3.4165,-2.6841,-0.6806,4.398
7.881000,-3.3038,-2.8651,-0.7293,4.433
7.885000,-3.1600,-3.0188,-0.7882,4.441
7.889000,-2.9970,-3.1548,-0.8621,4.436
7.895000,-2.8148,-3.2732,-0.9581,4.422
7.901000,-2.6324,-3.3597,-1.0667,4.399
7.905000,-2.4860,-3.4077,-1.1852,4.381
7.909000,-2.3587,-3.4410,-1.2897,4.367
7.927000,-2.2741,-3.4427,-1.3825,4.351
7.929000,-2.2011,-3.4010,-1.4371,4.298
7.929000,-2.1248,-3.3178,-1.4748,4.207
7.937000,-2.0193,-3.2036,-1.4837,4.067
7.939000,-1.8820,-3.0772,-1.4446,3.886
7.940000,-1.7224,-2.9531,-1.3647,3.681
7.945000,-1.5190,-2.8267,-1.2370,3.439
7.950000,-1.2762,-2.6763,-1.0642,3.150
7.955000,-1.0024,-2.5150,-0.8444,2.836
7.960000,-0.6994,-2.3475,-0.6066,2.523
7.965000,-0.3940,-2.1383,-0.3725,2.206
7.970000,-0.3183,-1.9260,-0.1234,1.956
7.975000,0.3007,-1.7033,0.1165,1.734
7.980000,0.6456,-1.4739,0.3490,1.647
7.985000,0.9992,-1.2353,0.5550,1.683
7.990000,1.3515,-0.9877,0.7172,1.821
7.995000,1.7094,-0.7221,0.8666,2.048
8.000000,2.0486,-0.4626,0.9933,2.323
8.005000,2.3741,-0.1971,1.0899,2.620
8.010000,2.6846,0.0662,1.1393,2.917
8.021000,2.9992,0.3369,1.1391,3.226
8.022000,3.2962,0.5838,1.0943,3.522
8.025000,3.5823,0.8210,1.0192,3.814
8.064000,3.8290,1.0272,0.9141,4.068
8.066000,4.0709,1.2087,0.7744,4.317
8.067000,4.2963,1.3683,0.6121,4.550
8.067000,4.5096,1.5034,0.4350,4.773
8.069000,4.7035,1.6237,0.2552,4.982
8.070000,4.8783,1.7078,0.0898,5.169
8.070000,5.0305,1.7768,-0.0585,5.335
8.071000,5.1772,1.8477,-0.1942,5.500
8.072000,5.3135,1.9039,-0.2982,5.652
8.076000,5.4275,1.9645,-0.3773,5.784
8.082000,5.5384,2.0178,-0.4364,5.911
8.086000,5.6264,2.0754,-0.4800,6.016
8.091000,5.7157,2.1303,-0.4984,6.120
8.097000,5.7895,2.1922,-0.4988,6.211
8.102000,5.8642,2.2322,-0.4832,6.293
8.106000,5.9259,2.2507,-0.4325,6.354
8.111000,6.0025,2.2592,-0.3444,6.423
8.117000,6.0465,2.2604,-0.2358,6.459
8.121000,6.0887,2.2398,-0.0973,6.488
8.126000,6.0958,2.2025,0.0806,6.482
8.139000,6.1038,2.1483,0.2664,6.476
8.140000,6.0693,2.0847,0.4789,6.435
8.142000,6.0166,2.0187,0.6959,6.384
8.146000,5.9505,1.9505,0.9151,6.329
8.176000,5.8566,1.9184,1.1381,6.267
8.178000,5.7326,1.8840,1.3601,6.186
8.178000,5.5739,1.8547,1.5712,6.081
8.179000,5.3781,1.8616,1.7591,5.957
8.179000,5.1312,1.8497,1.9187,5.782
8.180000,4.8669,1.8527,2.0596,5.600
8.188000,4.5809,1.8540,2.1747,5.399
8.189000,4.2732,1.8441,2.2734,5.180
8.191000,3.9635,1.8376,2.3508,4.961
8.196000,3.6569,1.8300,2.4214,4.752
8.201000,3.3537,1.8260,2.4803,4.553
8.206000,3.0613,1.8188,2.4990,4.350
8.211000,2.8012,1.8297,2.4991,4.176
8.218000,2.5621,1.8114,2.4927,4.007
8.221000,2.3319,1.7971,2.4752,3.846
8.226000,2.1227,1.7871,2.4444,3.698
8.236000,1.9465,1.7622,2.4100,3.564
8.239000,1.7627,1.7223,2.3552,3.409
8.241000,1.6123,1.6798,2.2900,3.266
8.246000,1.4664,1.6369,2.2122,3.118
8.262000,1.3419,1.5840,2.1385,2.980
8.264000,1.2340,1.5356,2.0479,2.842
8.265000,1.1163,1.4868,1.9570,2.699
8.266000,1.0270,1.4470,1.8662,2.575
8.271000,0.9161,1.3973,1.7708,2.435
8.276000,0.8099,1.3760,1.6878,2.323
8.281000,0.6989,1.3303,1.6053,2.199
8.286000,0.5974,1.2890,1.5137,2.076
8.291000,0.4980,1.2472,1.4158,1.951
8.296000,0.3988,1.1956,1.3405,1.840
8.300000,0.2973,1.1484,1.2712,1.739
8.306000,0.2030,1.0962,1.2055,1.642
8.311000,0.1113,1.0485,1.1531,1.563
8.318000,0.0388,0.9694,1.0997,1.467
8.321000,-0.0261,0.8951,1.0527,1.382
8.326000,-0.0788,0.8086,1.0147,1.300
8.339000,-0.1409,0.7149,0.9808,1.222
8.341000,-0.1860,0.6138,0.9608,1.155
8.342000,-0.2383,0.5053,0.9524,1.104
8.346000,-0.2828,0.3970,0.9579,1.075
8.383000,-0.3125,0.2815,0.9797,1.066
8.385000,-0.3657,0.1518,1.0106,1.085
8.385000,-0.4255,0.0318,1.0697,1.152
8.386000,-0.4897,-0.0786,1.1425,1.245
8.386000,-0.5552,-0.1932,1.2119,1.347
8.387000,-0.6199,-0.3001,1.2805,1.454
8.387000,-0.6524,-0.4017,1.3435,1.547
8.388000,-0.6695,-0.5385,1.4007,1.643
8.391000,-0.6497,-0.6986,1.4522,1.738
8.396000,-0.6146,-0.8962,1.5125,1.862
8.401000,-0.5686,-1.1287,1.5668,2.013
8.406000,-0.5096,-1.3553,1.6152,2.169
8.412000,-0.4494,-1.5858,1.6836,2.356
8.417000,-0.4025,-1.8199,1.7528,2.559
8.421000,-0.3901,-2.0266,1.8109,2.746
8.426000,-0.4143,-2.2101,1.8788,2.930
8.432000,-0.4628,-2.3465,1.9637,3.095
8.436000,-0.5141,-2.4428,2.0629,3.238
8.442000,-0.5654,-2.4892,2.1761,3.354
8.447000,-0.6048,-2.4809,2.2792,3.423
8.451000,-0.6252,-2.4131,2.3695,3.439
8.457000,-0.6336,-2.2955,2.4541,3.420
8.462000,-0.6016,-2.1472,2.5473,3.385
8.466000,-0.5389,-1.9710,2.6370,3.336
8.471000,-0.4579,-1.8148,2.7158,3.298
8.476000,-0.3661,-1.6407,2.7767,3.246
8.490000,-0.2564,-1.4607,2.8263,3.192
8.491000,-0.1197,-1.2920,2.8456,3.127
8.491000,0.0246,-1.1323,2.8560,3.072
8.496000,0.1855,-0.9630,2.8623,3.026
8.501000,0.3482,-0.7939,2.8716,3.000
8.506000,0.5173,-0.6518,2.8765,2.994
8.511000,0.6825,-0.5131,2.8791,3.003
8.516000,0.8341,-0.3923,2.8605,3.005
8.521000,0.9598,-0.2922,2.8372,3.009
8.526000,1.0546,-0.1963,2.8024,3.001
8.531000,1.1423,-0.1167,2.7560,2.986
8.537000,1.2106,-0.0559,2.7031,2.962
8.541000,1.2524,-0.0143,2.6271,2.910
8.547000,1.2699,0.0106,2.5401,2.840
8.551000,1.2393,0.0210,2.4475,2.743
8.557000,1.1941,0.0074,2.3251,2.614
8.562000,1.1371,-0.0157,2.1903,2.468
8.569000,1.0874,-0.0674,2.0266,2.301
8.572000,1.0354,-0.1431,1.8442,2.120
8.576000,0.9813,-0.2523,1.6482,1.935
8.592000,0.9105,-0.3713,1.4726,1.771
8.593000,0.8261,-0.4948,1.3105,1.626
8.593000,0.7160,-0.6158,1.1811,1.512
8.597000,0.5949,-0.7342,1.0748,1.431
8.602000,0.4653,-0.8499,0.9775,1.376
8.606000,0.3415,-0.9724,0.9155,1.379
8.612000,0.2122,-1.1038,0.8839,1.430
8.617000,0.1036,-1.2391,0.8874,1.528
8.621000,-0.0009,-1.3641,0.9354,1.654
8.626000,-0.0820,-1.4929,1.0156,1.807
8.631000,-0.1735,-1.6044,1.1277,1.969
8.636000,-0.2772,-1.7191,1.2689,2.155
8.641000,-0.3763,-1.8159,1.4271,2.340
8.646000,-0.4782,-1.9163,1.5946,2.538
8.651000,-0.5755,-2.0106,1.7832,2.748
8.656000,-0.6827,-2.1109,1.9803,2.974
8.661000,-0.8041,-2.2068,2.1615,3.192
8.668000,-0.9302,-2.2794,2.3217,3.384
8.672000,-1.0467,-2.3550,2.4487,3.555
8.677000,-1.1583,-2.4145,2.5402,3.691
8.694000,-1.2817,-2.4601,2.6437,3.832
8.695000,-1.4197,-2.5114,2.7422,3.980
8.695000,-1.5739,-2.5579,2.8163,4.117
8.697000,-1.7183,-2.6022,2.8658,4.235
8.704000,-1.8789,-2.6585,2.8763,4.344
8.706000,-2.0294,-2.7268,2.8766,4.453
8.711000,-2.1891,-2.7880,2.8811,4.568
8.717000,-2.3501,-2.8531,2.8827,4.688
8.722000,-2.5293,-2.9226,2.8621,4.809
8.726000,-2.7266,-3.0007,2.8338,4.947
8.732000,-2.9393,-3.0754,2.7882,5.086
8.737000,-3.1532,-3.1443,2.7110,5.213
8.742000,-3.3699,-3.1992,2.6075,5.328
8.746000,-3.5848,-3.2307,2.4875,5.429
8.752000,-3.7929,-3.2434,2.3418,5.513
8.757000,-3.9942,-3.2491,2.1755,5.590
8.762000,-4.2030,-3.2384,2.0033,5.671
8.774000,-4.3997,-3.2224,1.8354,5.754
8.777000,-4.5750,-3.1939,1.6862,5.829
8.778000,-4.7286,-3.1696,1.5414,5.898
8.809000,-4.8535,-3.1421,1.4038,5.950
8.810000,-4.9640,-3.1280,1.2685,6.003
8.810000,-5.0339,-3.1155,1.1237,6.026
8.810000,-5.0846,-3.0946,0.9844,6.033
8.811000,-5.1091,-3.0751,0.8531,6.024
8.811000,-5.1172,-3.0549,0.7299,6.004
8.813000,-5.1303,-3.0217,0.6078,5.985
8.820000,-5.1199,-2.9879,0.5009,5.949
8.822000,-5.0956,-2.9653,0.3906,5.909
8.828000,-5.0694,-2.9537,0.2887,5.874
8.831000,-5.0341,-2.9534,0.1830,5.839
8.838000,-4.9898,-2.9404,0.0953,5.792
8.842000,-4.9414,-2.9268,0.0036,5.743
8.847000,-4.8913,-2.9127,-0.0822,5.693
8.852000,-4.8371,-2.8717,-0.1719,5.628
8.857000,-4.7764,-2.8255,-0.2654,5.556
8.862000,-4.7092,-2.7788,-0.3627,5.480
8.868000,-4.6380,-2.7365,-0.4829,5.407
8.872000,-4.5604,-2.6987,-0.6088,5.334
8.877000,-4.4789,-2.6680,-0.7548,5.268
8.884000,-4.4006,-2.6466,-0.9063,5.215
8.889000,-4.3208,-2.6275,-1.0396,5.163
8.892000,-4.2466,-2.5962,-1.1711,5.113
8.897000,-4.1658,-2.5430,-1.2894,5.048
8.933000,-4.0882,-2.4732,-1.4060,4.981
8.935000,-4.0089,-2.4175,-1.5139,4.920
8.936000,-3.9158,-2.3593,-1.6083,4.846
8.936000,-3.8114,-2.2722,-1.6796,4.745
8.936000,-3.6764,-2.1754,-1.7353,4.611
8.937000,-3.5111,-2.0766,-1.7631,4.444
8.937000,-3.3275,-1.9781,-1.7824,4.262
8.938000,-3.1351,-1.8920,-1.7741,4.069
8.943000,-2.9317,-1.8115,-1.7623,3.871
8.948000,-2.7052,-1.7386,-1.7421,3.657
8.952000,-2.4538,-1.6625,-1.7113,3.422
8.957000,-2.1870,-1.5926,-1.6794,3.184
8.962000,-1.9194,-1.5197,-1.6608,2.958
8.967000,-1.6703,-1.4512,-1.6411,2.755
8.972000,-1.4279,-1.3779,-1.6179,2.560
8.977000,-1.2159,-1.2972,-1.5962,2.389
8.987000,-1.0135,-1.2266,-1.5758,2.239
8.989000,-0.8252,-1.1804,-1.5568,2.121
8.993000,-0.6510,-1.1322,-1.5320,2.013
9.024000,-0.5054,-1.0940,-1.5088,1.931
9.026000,-0.3928,-1.0633,-1.4895,1.872
9.026000,-0.2946,-1.0405,-1.4550,1.813
9.027000,-0.2033,-1.0157,-1.4364,1.771
9.027000,-0.1165,-1.0080,-1.4049,1.733
9.028000,-0.0341,-0.9888,-1.3701,1.690
9.028000,0.0561,-0.9766,-1.3464,1.664
9.033000,0.1490,-0.9626,-1.3074,1.630
9.038000,0.2446,-0.9441,-1.2676,1.599
9.043000,0.3312,-0.9187,-1.2267,1.568
9.049000,0.4207,-0.8911,-1.1632,1.524
9.052000,0.5158,-0.8561,-1.1106,1.494
9.058000,0.6159,-0.8241,-1.0404,1.463
9.062000,0.7095,-0.8019,-0.9740,1.447
9.068000,0.8155,-0.7775,-0.8948,1.439
9.073000,0.9174,-0.7270,-0.8147,1.426
9.077000,1.0246,-0.6840,-0.7243,1.429
9.083000,1.1469,-0.6219,-0.6189,1.444
9.088000,1.2742,-0.5462,-0.4915,1.471
9.093000,1.3947,-0.4710,-0.3710,1.518
9.107000,1.5323,-0.4059,-0.2527,1.605
9.109000,1.6700,-0.3391,-0.1318,1.709
9.110000,1.8129,-0.2704,-0.0202,1.833
9.113000,1.9602,-0.2100,0.0840,1.973
9.148000,2.0905,-0.1338,0.1955,2.104
9.150000,2.2254,-0.0611,0.3092,2.248
9.150000,2.3599,0.0058,0.4298,2.399
9.150000,2.4942,0.0814,0.5452,2.554
9.151000,2.6251,0.1530,0.6457,2.708
9.151000,2.7576,0.2281,0.7360,2.863
9.152000,2.8939,0.3042,0.8233,3.024
9.153000,3.0362,0.3787,0.9147,3.194
9.158000,3.1561,0.4424,1.0030,3.341
9.163000,3.2766,0.4995,1.0855,3.488
9.168000,3.3860,0.5526,1.1715,3.625
9.173000,3.4937,0.5993,1.2587,3.762
9.178000,3.5949,0.6395,1.3181,3.882
9.183000,3.6919,0.6901,1.3643,3.996
9.188000,3.7682,0.7392,1.4067,4.090
9.194000,3.8301,0.7792,1.4428,4.166
9.205000,3.8685,0.8391,1.4844,4.228
9.207000,3.8858,0.9046,1.5243,4.271
9.208000,3.9059,0.9684,1.5743,4.321
9.213000,3.9099,1.0404,1.6104,4.355
9.247000,3.8877,1.0989,1.6517,4.365
9.249000,3.8804,1.1725,1.6766,4.387
9.250000,3.8639,1.2495,1.6873,4.398
9.250000,3.8360,1.3394,1.6865,4.399
9.251000,3.8133,1.4160,1.6764,4.400
9.252000,3.7910,1.4982,1.6546,4.399
9.253000,3.7857,1.5646,1.5996,4.398
9.253000,3.7903,1.6129,1.5382,4.397
9.258000,3.8047,1.6597,1.4558,4.399
9.262000,3.8168,1.6953,1.3695,4.395
9.268000,3.8313,1.7223,1.2792,4.391
9.274000,3.8385,1.7428,1.1732,4.376
9.279000,3.8646,1.7496,1.0565,4.372
9.284000,3.8689,1.7405,0.9293,4.343
9.289000,3.8586,1.7367,0.7988,4.306
9.294000,3.8455,1.7073,0.6557,4.258
9.299000,3.8177,1.6785,0.5005,4.200
9.303000,3.7847,1.6360,0.3429,4.137
9.308000,3.7276,1.5845,0.1903,4.055
9.313000,3.6487,1.5505,0.0383,3.965
9.319000,3.5576,1.4979,-0.1202,3.862
9.324000,3.4521,1.4534,-0.2633,3.755
9.328000,3.3323,1.4119,-0.3883,3.640
9.358000,3.2032,1.3737,-0.5093,3.522
9.359000,3.0768,1.3340,-0.6071,3.408
9.359000,2.9507,1.2952,-0.6934,3.296
9.360000,2.8274,1.2286,-0.7587,3.175
9.360000,2.6954,1.1442,-0.7979,3.035
9.360000,2.5738,1.0610,-0.8255,2.904
9.363000,2.4604,0.9743,-0.8369,2.775
9.369000,2.3431,0.8961,-0.8248,2.641
9.375000,2.2411,0.8095,-0.7846,2.509
9.378000,2.1477,0.7149,-0.7260,2.377
9.383000,2.0628,0.6193,-0.6467,2.249
9.389000,1.9769,0.5467,-0.5494,2.123
9.395000,1.8946,0.4587,-0.4511,2.001
9.398000,1.8063,0.3624,-0.3446,1.874
9.403000,1.7150,0.2653,-0.2184,1.749
9.408000,1.6253,0.1529,-0.0848,1.635
9.413000,1.5301,0.0468,0.0418,1.531
9.421000,1.4082,-0.0505,0.1702,1.419
9.423000,1.2927,-0.1488,0.2814,1.331
9.429000,1.1702,-0.2475,0.3750,1.254
9.434000,1.0428,-0.3421,0.4606,1.190
9.439000,0.9202,-0.4109,0.5261,1.137
9.443000,0.7857,-0.4802,0.5786,1.087
9.448000,0.6490,-0.5404,0.6251,1.051
9.476000,0.5027,-0.5965,0.6559,1.019
9.477000,0.3571,-0.6432,0.6785,1.001
9.478000,0.2168,-0.6949,0.6926,1.005
9.478000,0.0794,-0.7324,0.6889,1.009
9.479000,-0.0573,-0.7701,0.6818,1.030
9.479000,-0.2055,-0.8153,0.6833,1.083
9.485000,-0.3239,-0.8553,0.6719,1.135
9.488000,-0.4558,-0.8810,0.6620,1.193
9.494000,-0.5820,-0.9184,0.6463,1.265
9.499000,-0.6904,-0.9627,0.6058,1.331
9.503000,-0.7910,-1.0093,0.5789,1.407
9.508000,-0.8758,-1.0553,0.5393,1.474
9.513000,-0.9501,-1.0962,0.4848,1.530
9.518000,-1.0163,-1.1295,0.4180,1.576
9.523000,-1.0745,-1.1768,0.3364,1.629
9.528000,-1.1416,-1.2145,0.2450,1.685
9.538000,-1.1908,-1.2491,0.1584,1.733
9.539000,-1.2368,-1.2905,0.0527,1.788
9.544000,-1.2939,-1.3267,-0.0527,1.854
9.572000,-1.3574,-1.3576,-0.1602,1.926
9.574000,-1.4129,-1.3930,-0.2721,2.003
9.574000,-1.4797,-1.4209,-0.3643,2.084
9.575000,-1.5503,-1.4456,-0.4628,2.170
9.575000,-1.6415,-1.4673,-0.5487,2.269
9.576000,-1.7508,-1.4764,-0.6217,2.373
9.579000,-1.8520,-1.4919,-0.6724,2.471
9.584000,-1.9474,-1.5018,-0.7247,2.564
9.589000,-2.0343,-1.5153,-0.7710,2.651
9.594000,-2.1438,-1.5109,-0.7972,2.741
9.599000,-2.2329,-1.5077,-0.8153,2.815
9.603000,-2.3158,-1.4960,-0.8279,2.879
9.609000,-2.3831,-1.5046,-0.8420,2.941
9.614000,-2.4369,-1.5162,-0.8412,2.991
9.619000,-2.4749,-1.5263,-0.8444,3.028
9.624000,-2.4971,-1.5444,-0.8520,3.057
9.629000,-2.5107,-1.5584,-0.8590,3.077
9.640000,-2.5158,-1.5495,-0.8562,3.076
9.643000,-2.5028,-1.5316,-0.8530,3.056
9.644000,-2.4980,-1.5027,-0.8593,3.039
9.669000,-2.4776,-1.4675,-0.8727,3.009
9.671000,-2.4512,-1.4453,-0.8811,2.979
9.672000,-2.4284,-1.4121,-0.9014,2.950
9.672000,-2.4095,-1.3682,-0.9170,2.919
9.673000,-2.3895,-1.3302,-0.9205,2.886
9.675000,-2.3686,-1.2839,-0.9359,2.852
9.679000,-2.3468,-1.2462,-0.9560,2.824
9.685000,-2.3313,-1.2050,-0.9664,2.797
9.689000,-2.3294,-1.1844,-0.9887,2.794
9.695000,-2.3267,-1.1532,-1.0178,2.789
9.700000,-2.3088,-1.1282,-1.0370,2.771
9.704000,-2.2997,-1.0998,-1.0701,2.765
9.709000,-2.2948,-1.0777,-1.1003,2.764
9.713000,-2.2795,-1.0594,-1.1275,2.755
9.720000,-2.2659,-1.0402,-1.1469,2.744
9.724000,-2.2493,-1.0224,-1.1680,2.733
9.730000,-2.2392,-1.0061,-1.1813,2.724
9.734000,-2.2212,-0.9841,-1.1819,2.702
9.739000,-2.2169,-0.9684,-1.1842,2.693
9.744000,-2.2095,-0.9493,-1.1811,2.679
9.758000,-2.1942,-0.9413,-1.1822,2.664
9.760000,-2.1781,-0.9202,-1.1706,2.638
9.761000,-2.1469,-0.8982,-1.1609,2.601
9.799000,-2.1078,-0.8896,-1.1386,2.556
9.801000,-2.0632,-0.8584,-1.1134,2.497
9.801000,-2.0107,-0.8432,-1.1070,2.445
9.802000,-1.9505,-0.8224,-1.0906,2.381
9.802000,-1.8897,-0.7936,-1.0618,2.308
9.803000,-1.8355,-0.7762,-1.0543,2.255
9.803000,-1.7758,-0.7770,-1.0464,2.203
9.803000,-1.7229,-0.7820,-1.0406,2.159
9.804000,-1.6575,-0.7840,-1.0583,2.117
9.809000,-1.5939,-0.7972,-1.0612,2.074
9.814000,-1.5395,-0.8098,-1.0588,2.036
9.820000,-1.4940,-0.8217,-1.0439,1.999
9.824000,-1.4456,-0.8426,-1.0359,1.968
9.829000,-1.4063,-0.8508,-1.0177,1.933
9.835000,-1.3664,-0.8608,-0.9822,1.890
9.840000,-1.3330,-0.8606,-0.9486,1.849
9.844000,-1.2775,-0.8524,-0.9003,1.780
9.849000,-1.2262,-0.8390,-0.8706,1.722
9.854000,-1.1696,-0.8346,-0.8286,1.659
9.859000,-1.1149,-0.8249,-0.7693,1.586
9.865000,-1.0548,-0.8075,-0.7026,1.503
9.869000,-0.9990,-0.7872,-0.6311,1.420
9.874000,-0.9544,-0.7471,-0.5570,1.334
9.879000,-0.9068,-0.6971,-0.4881,1.244
9.888000,-0.8539,-0.6275,-0.4241,1.141
9.890000,-0.7742,-0.5673,-0.3843,1.034
9.895000,-0.6749,-0.5163,-0.3567,0.922
9.926000,-0.5655,-0.4603,-0.3340,0.802
9.928000,-0.4562,-0.4140,-0.3163,0.692
9.929000,-0.3515,-0.3988,-0.3084,0.615
9.929000,-0.2444,-0.3717,-0.3009,0.537
9.930000,-0.1348,-0.3520,-0.2889,0.475
9.930000,-0.0204,-0.3347,-0.2821,0.438
9.931000,0.0936,-0.3299,-0.2878,0.448
9.935000,0.2050,-0.3302,-0.2916,0.486
9.939000,0.3137,-0.3405,-0.2815,0.542
9.945000,0.4196,-0.3488,-0.2601,0.605
9.951000,0.5036,-0.3529,-0.2489,0.663
9.955000,0.5826,-0.3572,-0.2358,0.723
9.960000,0.6538,-0.3648,-0.2305,0.783
9.973000,0.7006,-0.3512,-0.2328,0.818
9.976000,0.7302,-0.3478,-0.2308,0.841
9.977000,0.7619,-0.3329,-0.2245,0.861
9.979000,0.7957,-0.3160,-0.2114,0.882
10.006000,0.8219,-0.2997,-0.2060,0.899
10.007000,0.8620,-0.2816,-0.2058,0.930
10.008000,0.9137,-0.2423,-0.2130,0.969
10.008000,0.9721,-0.2204,-0.2086,1.018
10.009000,1.0181,-0.2108,-0.1950,1.058
10.011000,1.0635,-0.1972,-0.1889,1.098
10.015000,1.1130,-0.1674,-0.1736,1.139
10.019000,1.1500,-0.1478,-0.1490,1.169
10.024000,1.1934,-0.1122,-0.1272,1.205
10.031000,1.2315,-0.0724,-0.0939,1.237
10.035000,1.2735,-0.0335,-0.0514,1.275
10.040000,1.3003,0.0094,-0.0095,1.300
10.045000,1.3238,0.0562,0.0248,1.325
10.050000,1.3465,0.1118,0.0656,1.353
10.056000,1.3635,0.1497,0.0985,1.375
10.059000,1.3749,0.2012,0.1355,1.396
10.065000,1.3948,0.2588,0.1693,1.429
10.070000,1.4280,0.3370,0.1928,1.480
10.077000,1.4409,0.4332,0.2105,1.519
10.093000,1.4478,0.5306,0.2081,1.556
10.094000,1.4535,0.6028,0.2023,1.587
10.096000,1.4627,0.6858,0.1813,1.626
10.098000,1.4537,0.7483,0.1498,1.642
10.146000,1.4434,0.7905,0.1101,1.649
10.147000,1.4174,0.8122,0.0455,1.634
10.149000,1.3828,0.8303,-0.0390,1.613
10.149000,1.3326,0.8376,-0.1290,1.579
10.150000,1.2669,0.8295,-0.2361,1.533
10.150000,1.1857,0.8061,-0.3461,1.475
10.151000,1.0987,0.7816,-0.4371,1.417
10.151000,1.0300,0.7587,-0.5424,1.390
10.152000,0.9462,0.7280,-0.6430,1.356
10.152000,0.8712,0.6751,-0.7433,1.329
10.153000,0.8004,0.6263,-0.8384,1.318
10.157000,0.7339,0.5748,-0.9282,1.315
10.160000,0.6573,0.5156,-0.9983,1.302
10.166000,0.5898,0.4489,-1.0607,1.294
10.170000,0.5173,0.3843,-1.1106,1.284
10.176000,0.4565,0.3220,-1.1481,1.277
10.180000,0.3764,0.2738,-1.1754,1.264
10.186000,0.3082,0.2304,-1.2070,1.267
10.190000,0.2421,0.1987,-1.2308,1.270
10.196000,0.1714,0.1862,-1.2490,1.274
10.205000,0.1127,0.1546,-1.2688,1.283
10.206000,0.0659,0.1182,-1.2758,1.283
10.210000,0.0217,0.0748,-1.2702,1.273
10.247000,-0.0105,0.0315,-1.2709,1.271
10.248000,-0.0329,-0.0044,-1.2588,1.259
10.248000,-0.0554,-0.0306,-1.2386,1.240
10.249000,-0.0610,-0.0496,-1.2056,1.208
10.249000,-0.0692,-0.0830,-1.1550,1.160
10.250000,-0.0797,-0.1258,-1.0941,1.104
10.251000,-0.0880,-0.1568,-1.0111,1.027
10.251000,-0.1059,-0.1949,-0.9204,0.947
10.256000,-0.1143,-0.2449,-0.8103,0.854
10.260000,-0.1370,-0.2926,-0.6929,0.765
10.267000,-0.1693,-0.3331,-0.5758,0.686
10.270000,-0.2041,-0.3856,-0.4685,0.640
10.276000,-0.2649,-0.4332,-0.3737,0.631
10.280000,-0.3256,-0.4712,-0.2939,0.644
10.285000,-0.3908,-0.5089,-0.2338,0.683
10.290000,-0.4723,-0.5345,-0.1910,0.738
10.296000,-0.5439,-0.5575,-0.1656,0.796
10.305000,-0.6197,-0.5776,-0.1452,0.860
10.306000,-0.6998,-0.6093,-0.1372,0.938
10.311000,-0.7791,-0.6382,-0.1439,1.017
10.334000,-0.8697,-0.6640,-0.1531,1.105
10.335000,-0.9522,-0.6867,-0.1817,1.188
10.336000,-1.0218,-0.6942,-0.2102,1.253
10.336000,-1.0712,-0.6984,-0.2337,1.300
10.337000,-1.1124,-0.7089,-0.2475,1.342
10.341000,-1.1381,-0.6992,-0.2632,1.361
10.345000,-1.1604,-0.6981,-0.2786,1.383
10.350000,-1.1578,-0.6913,-0.2864,1.379
10.358000,-1.1565,-0.6858,-0.2768,1.373
10.361000,-1.1422,-0.6818,-0.2406,1.352
10.366000,-1.1150,-0.6672,-0.1873,1.313
10.371000,-1.0868,-0.6588,-0.1410,1.279
10.376000,-1.0528,-0.6542,-0.0730,1.242
10.382000,-1.0010,-0.6510,-0.0123,1.194
10.385000,-0.9387,-0.6325,0.0411,1.133
10.391000,-0.8707,-0.6157,0.0920,1.070
10.399000,-0.7925,-0.5741,0.1284,0.987
10.401000,-0.7205,-0.5294,0.1694,0.910
10.406000,-0.6480,-0.4890,0.1910,0.834
10.410000,-0.5868,-0.4384,0.2173,0.764
10.423000,-0.5297,-0.3967,0.2648,0.713
10.426000,-0.4645,-0.3735,0.3116,0.673
10.426000,-0.3842,-0.3377,0.3433,0.616
10.431000,-0.2934,-0.2820,0.3618,0.545
10.461000,-0.1685,-0.2354,0.3435,0.449
10.462000,-0.0431,-0.1478,0.3002,0.337
10.463000,0.0874,-0.0528,0.2465,0.267
10.464000,0.2062,0.0470,0.1775,0.276
10.464000,0.3180,0.1397,0.1005,0.362
10.465000,0.4273,0.2416,0.0132,0.491
10.466000,0.5245,0.3458,-0.0915,0.635
10.470000,0.6095,0.4423,-0.2086,0.781
10.475000,0.6894,0.5194,-0.3261,0.923
10.481000,0.7451,0.5912,-0.4413,1.049
10.485000,0.7955,0.6315,-0.5396,1.150
10.490000,0.8335,0.6426,-0.6212,1.222
10.497000,0.8687,0.6390,-0.7048,1.288
10.501000,0.9057,0.6158,-0.7857,1.348
10.505000,0.9304,0.5923,-0.8421,1.388
10.511000,0.9377,0.5469,-0.8740,1.394
10.516000,0.9255,0.4940,-0.8792,1.369
10.520000,0.9059,0.4362,-0.8863,1.340
10.525000,0.8789,0.3878,-0.8809,1.303
10.542000,0.8422,0.3346,-0.9037,1.280
10.542000,0.8176,0.2935,-0.9591,1.294
10.543000,0.7951,0.2524,-1.0227,1.320
10.546000,0.7677,0.2304,-1.1061,1.366
10.551000,0.7472,0.2204,-1.1684,1.404
10.556000,0.7051,0.2247,-1.2214,1.428
10.561000,0.6748,0.2412,-1.2601,1.450
10.566000,0.6229,0.2648,-1.2724,1.441
10.571000,0.5781,0.2909,-1.2463,1.404
10.576000,0.5308,0.3196,-1.1843,1.337
10.581000,0.4906,0.3483,-1.0888,1.244
10.586000,0.4578,0.3652,-0.9430,1.110
10.591000,0.4463,0.3702,-0.7666,0.961
10.597000,0.4253,0.3849,-0.5547,0.798
10.601000,0.4091,0.3996,-0.3294,0.660
10.606000,0.4024,0.4096,-0.1003,0.583
10.613000,0.3838,0.4052,0.1416,0.576
10.617000,0.3796,0.4032,0.3699,0.666
10.622000,0.3682,0.4082,0.5911,0.807
10.626000,0.3616,0.4132,0.8075,0.976
10.634000,0.3550,0.4228,1.0067,1.148
10.636000,0.3557,0.4515,1.1814,1.314
10.641000,0.3493,0.4825,1.3436,1.470
10.647000,0.3310,0.5181,1.4928,1.614
10.660000,0.2936,0.5511,1.6193,1.736
10.661000,0.2636,0.5912,1.7328,1.850
10.663000,0.2410,0.6289,1.8353,1.955
10.713000,0.2090,0.6737,1.9247,2.050
10.719000,0.1700,0.7423,2.0006,2.141
10.722000,0.1336,0.8132,2.0727,2.231
10.723000,0.0904,0.8746,2.1339,2.308
10.723000,0.0642,0.9456,2.1792,2.376
10.724000,0.0408,1.0118,2.2017,2.423
10.724000,0.0249,1.0948,2.2108,2.467
10.725000,0.0189,1.1564,2.1947,2.481
10.726000,0.0252,1.2203,2.1633,2.484
10.726000,0.0437,1.2843,2.1091,2.470
10.727000,0.0719,1.3579,2.0302,2.444
10.727000,0.1027,1.4243,1.9292,2.400
10.728000,0.1382,1.4930,1.8158,2.355
10.733000,0.1762,1.5640,1.7139,2.327
10.737000,0.2141,1.6037,1.6071,2.280
10.741000,0.2614,1.6576,1.4905,2.244
10.746000,0.3087,1.6994,1.3860,2.215
10.756000,0.3652,1.7290,1.2766,2.180
10.758000,0.4096,1.7513,1.1747,2.148
10.761000,0.4536,1.7804,1.0875,2.135
10.796000,0.4972,1.7902,1.0127,2.116
10.797000,0.5380,1.7972,0.9479,2.102
10.798000,0.5759,1.7967,0.8861,2.084
10.798000,0.6085,1.7959,0.8320,2.071
10.799000,0.6334,1.7851,0.7859,2.051
10.799000,0.6458,1.7597,0.7499,2.019
10.799000,0.6673,1.7124,0.7243,1.975
10.801000,0.7171,1.6554,0.7162,1.941
10.806000,0.7615,1.5860,0.7254,1.903
10.812000,0.8077,1.5069,0.7282,1.858
10.818000,0.8655,1.4060,0.7482,1.813
10.821000,0.9201,1.3048,0.7759,1.775
10.826000,0.9645,1.2128,0.8185,1.752
10.833000,1.0035,1.1252,0.8493,1.730
10.837000,1.0321,1.0421,0.8852,1.713
10.841000,1.0338,0.9586,0.9237,1.686
10.846000,1.0135,0.8749,0.9695,1.653
10.857000,1.0094,0.7813,1.0128,1.630
10.858000,0.9955,0.6948,1.0559,1.609
10.861000,0.9885,0.5986,1.0822,1.583
10.889000,0.9981,0.4929,1.1130,1.574
10.891000,1.0291,0.3704,1.1508,1.588
10.891000,1.0599,0.2552,1.1739,1.602
10.892000,1.1025,0.1400,1.1990,1.635
10.892000,1.1330,0.0320,1.2235,1.668
10.893000,1.1587,-0.0759,1.2450,1.702
10.897000,1.1866,-0.1789,1.2441,1.729
10.901000,1.2169,-0.2866,1.2400,1.761
10.906000,1.2568,-0.4061,1.2065,1.789
10.914000,1.3015,-0.5492,1.1577,1.826
10.923000,1.4110,-0.8905,1.0341,1.963
10.924000,1.4129,-0.8869,1.0388,1.965
10.926000,1.4678,-1.0648,0.9566,2.050
10.931000,1.5158,-1.2422,0.8617,2.141
10.937000,1.5761,-1.4167,0.7327,2.242
10.942000,1.6490,-1.5691,0.5937,2.352
10.947000,1.7654,-1.7543,0.4355,2.527
10.954000,1.9086,-1.9532,0.2559,2.743
10.956000,2.0736,-2.1945,0.0410,3.020
10.961000,2.2772,-2.4066,-0.1872,3.319
10.977000,2.4902,-2.6590,-0.4283,3.668
10.978000,2.6841,-2.9372,-0.6602,4.033
10.978000,2.8541,-3.1982,-0.8564,4.371
10.988000,2.9547,-3.4110,-1.0214,4.627
10.989000,2.9789,-3.5756,-1.1360,4.791
10.992000,2.9200,-3.6608,-1.2123,4.837
10.997000,2.7711,-3.6641,-1.2360,4.757
11.003000,2.5473,-3.5709,-1.2264,4.555
11.007000,2.3063,-3.3932,-1.1619,4.264
11.012000,2.0797,-3.1595,-1.0234,3.918
11.016000,1.8745,-2.8770,-0.7996,3.526
11.023000,1.7390,-2.5768,-0.4792,3.145
11.026000,1.6539,-2.2565,-0.0846,2.799
11.032000,1.6071,-1.9256,0.3499,2.532
11.037000,1.5796,-1.5650,0.7877,2.359
11.041000,1.5805,-1.1630,1.1918,2.296
11.048000,1.6145,-0.7052,1.5642,2.356
11.051000,1.7195,-0.2184,1.8946,2.568
11.057000,1.9043,0.3044,2.1561,2.893
11.062000,2.1855,0.8056,2.3437,3.304
11.067000,2.5400,1.2820,2.4478,3.753
11.072000,2.9478,1.7117,2.4491,4.197
11.077000,3.3744,2.0703,2.3721,4.615
11.089000,3.7544,2.3598,2.2193,4.959
11.090000,4.0871,2.5702,2.0628,5.250
11.093000,4.3363,2.7063,1.8859,5.448
11.096000,4.5136,2.7607,1.7174,5.563
11.127000,4.6262,2.7693,1.5193,5.602
11.128000,4.6599,2.7346,1.3011,5.557
11.132000,4.6317,2.6877,1.0417,5.455
11.133000,4.5871,2.6694,0.7293,5.357
11.134000,4.5288,2.6868,0.3890,5.280
11.134000,4.4780,2.7349,0.0452,5.247
11.135000,4.4609,2.8088,-0.3256,5.282
11.136000,4.4556,2.8936,-0.7178,5.361
11.143000,4.4448,2.9867,-1.1358,5.474
11.148000,4.4068,3.0687,-1.5712,5.595
11.152000,4.3247,3.1371,-2.0136,5.710
11.157000,4.1984,3.1820,-2.4502,5.810
11.163000,4.0162,3.2226,-2.8706,5.895
11.168000,3.7852,3.2324,-3.2741,5.958
11.173000,3.5566,3.3076,-3.5808,6.034
11.177000,3.2969,3.2638,-3.8885,6.053
11.208000,3.0379,3.1492,-4.1414,6.025
11.209000,2.7370,3.0094,-4.3320,5.943
11.209000,2.3924,2.8065,-4.4078,5.747
11.209000,1.9684,2.5044,-4.4697,5.489
11.210000,1.5841,2.2361,-4.4751,5.248
11.210000,1.2250,2.0084,-4.4751,5.056
11.212000,0.8460,1.7686,-4.4391,4.853
11.217000,0.4641,1.5264,-4.3941,4.675
11.222000,0.0960,1.3080,-4.3451,4.539
11.227000,-0.2760,1.1263,-4.2187,4.375
11.232000,-0.6689,0.9595,-3.9961,4.164
11.237000,-1.1133,0.7551,-3.5994,3.843
11.242000,-1.7211,0.5186,-2.8605,3.378
11.247000,-2.3149,0.3673,-2.0783,3.133
11.253000,-2.7140,0.2764,-1.5675,3.146
11.257000,-2.9382,0.1858,-1.2004,3.179
11.264000,-3.0717,0.0570,-0.8167,3.179
11.268000,-3.2032,-0.0835,-0.4435,3.235
11.273000,-3.3905,-0.2481,-0.0979,3.401
11.278000,-3.6112,-0.4044,0.2311,3.641
11.286000,-3.8368,-0.5621,0.5601,3.918
11.289000,-4.0432,-0.6969,0.8246,4.185
11.292000,-4.2375,-0.7943,1.0246,4.431
11.320000,-4.4244,-0.8922,1.1890,4.667
11.322000,-4.6088,-0.9501,1.3185,4.887
11.322000,-4.7971,-1.0243,1.4464,5.114
11.323000,-4.9895,-1.0862,1.5876,5.347
11.323000,-5.1739,-1.1403,1.6897,5.561
11.324000,-5.3310,-1.1863,1.7840,5.745
11.328000,-5.4826,-1.2267,1.8518,5.916
11.334000,-5.6234,-1.2631,1.9032,6.070
11.337000,-5.7487,-1.3075,1.9551,6.211
11.342000,-5.8753,-1.3693,1.9840,6.351
11.349000,-6.0054,-1.4386,2.0163,6.496
11.353000,-6.1248,-1.4987,2.0331,6.625
11.358000,-6.2283,-1.5609,2.0205,6.731
11.362000,-6.3111,-1.6156,1.9622,6.804
11.368000,-6.3709,-1.6437,1.8873,6.845
11.373000,-6.4029,-1.6688,1.8011,6.858
11.377000,-6.4166,-1.6862,1.7205,6.854
11.383000,-6.4120,-1.6815,1.6482,6.831
11.387000,-6.3725,-1.6644,1.5817,6.774
11.393000,-6.3004,-1.6609,1.5210,6.691
11.406000,-6.1863,-1.6450,1.4565,6.565
11.407000,-6.0255,-1.6216,1.4002,6.395
11.408000,-5.8302,-1.5935,1.3685,6.197
11.414000,-5.6006,-1.5606,1.3374,5.966
11.451000,-5.3487,-1.5306,1.3354,5.721
11.453000,-5.0747,-1.4797,1.3289,5.451
11.454000,-4.7909,-1.4037,1.3392,5.169
11.454000,-4.5067,-1.3360,1.3591,4.893
11.455000,-4.2299,-1.2774,1.3810,4.629
11.455000,-3.9316,-1.1968,1.3905,4.339
11.456000,-3.6239,-1.1257,1.3874,4.040
11.456000,-3.3191,-1.0570,1.3789,3.746
11.458000,-2.9881,-0.9836,1.3600,3.427
11.463000,-2.6415,-0.9303,1.3281,3.099
11.467000,-2.2982,-0.8973,1.2690,2.774
11.473000,-1.9418,-0.8967,1.2160,2.460
11.478000,-1.5869,-0.9193,1.1261,2.152
11.482000,-1.2429,-0.9483,1.0135,1.863
11.488000,-0.9034,-0.9893,0.8883,1.607
11.493000,-0.5731,-1.0398,0.7407,1.399
11.501000,-0.2617,-1.0930,0.6047,1.276
11.504000,0.0283,-1.1633,0.4656,1.253
11.508000,0.3063,-1.2581,0.3141,1.332
11.513000,0.5511,-1.3578,0.1693,1.475
11.543000,0.7740,-1.4368,0.0264,1.632
11.544000,0.9800,-1.5023,-0.1002,1.796
11.544000,1.1523,-1.5517,-0.2275,1.946
11.546000,1.3174,-1.5540,-0.3528,2.068
11.546000,1.4516,-1.5257,-0.4666,2.157
11.547000,1.5782,-1.4795,-0.5710,2.237
11.548000,1.7071,-1.4173,-0.6685,2.317
11.552000,1.8431,-1.3537,-0.7687,2.413
11.558000,1.9978,-1.2982,-0.8595,2.533
11.563000,2.1765,-1.2746,-0.9625,2.700
11.568000,2.3805,-1.2906,-1.0723,2.912
11.573000,2.6269,-1.3509,-1.1795,3.181
11.578000,2.8843,-1.4697,-1.2839,3.483
11.584000,3.1669,-1.6446,-1.3879,3.829
11.588000,3.4363,-1.8734,-1.4820,4.185
11.594000,3.6949,-2.1200,-1.5687,4.540
11.605000,3.9111,-2.3608,-1.6453,4.856
11.606000,4.0851,-2.5718,-1.7288,5.127
11.617000,4.1694,-2.7671,-1.7856,5.313
11.619000,4.2934,-2.9584,-1.8968,5.548
11.620000,4.4050,-3.1239,-2.0167,5.765
11.644000,4.4533,-3.2713,-2.0921,5.908
11.646000,4.4532,-3.3905,-2.1351,5.990
11.646000,4.3931,-3.4456,-2.1361,5.978
11.647000,4.2663,-3.4315,-2.0905,5.861
11.648000,4.0902,-3.3048,-1.9913,5.623
11.649000,3.8934,-3.0635,-1.8193,5.278
11.656000,3.7029,-2.7360,-1.6205,4.881
11.658000,3.5617,-2.3079,-1.4119,4.473
11.663000,3.4913,-1.8273,-1.2010,4.120
11.669000,3.4581,-1.3421,-0.9950,3.841
11.673000,3.4638,-0.8433,-0.7989,3.653
11.678000,3.5298,-0.3117,-0.6131,3.596
11.683000,3.6387,0.2187,-0.4498,3.673
11.689000,3.7925,0.7214,-0.3023,3.872
11.694000,3.9859,1.1842,-0.1708,4.162
11.699000,4.2184,1.6117,-0.0867,4.517
11.704000,4.4840,1.9745,-0.0452,4.900
11.709000,4.7775,2.2391,-0.0728,5.277
11.714000,5.0815,2.4411,-0.1548,5.640
11.725000,5.3690,2.5755,-0.2647,5.961
11.726000,5.6324,2.6446,-0.3762,6.234
11.729000,5.8326,2.6694,-0.5058,6.434
11.768000,5.9743,2.6237,-0.6796,6.560
11.770000,6.0432,2.5411,-0.9117,6.619
11.771000,6.0511,2.4478,-1.1824,6.634
11.771000,5.9790,2.3297,-1.4745,6.584
11.772000,5.8418,2.2299,-1.7823,6.502
11.773000,5.6469,2.0985,-2.0982,6.379
11.774000,5.6267,2.0863,-2.1225,6.365
11.774000,5.3891,1.9519,-2.4242,6.223
11.775000,4.8966,1.7053,-3.0071,5.994
11.779000,4.6236,1.5693,-3.2720,5.878
11.785000,4.3430,1.4294,-3.5179,5.769
11.788000,4.0409,1.3266,-3.7010,5.638
11.793000,3.7610,1.2036,-3.8618,5.523
11.800000,3.5754,1.0752,-4.0404,5.501
11.804000,3.4414,0.9751,-4.1454,5.475
11.808000,3.3278,0.8865,-4.1815,5.417
11.819000,3.2851,0.8620,-4.1536,5.365
11.820000,3.2010,0.7582,-4.0860,5.246
11.824000,3.1399,0.6180,-3.7687,4.944
11.829000,3.1121,0.5780,-3.4754,4.701
11.835000,3.0884,0.5635,-3.1300,4.433
11.839000,3.0711,0.5672,-2.7333,4.150
11.843000,3.0456,0.5793,-2.2860,3.852
11.880000,2.9876,0.5968,-1.8293,3.554
11.881000,2.9047,0.6199,-1.3432,3.260
11.882000,2.7918,0.6412,-0.8570,2.990
11.882000,2.6514,0.6581,-0.3860,2.759
11.883000,2.4928,0.6802,0.0525,2.584
11.883000,2.3111,0.7285,0.4605,2.467
11.884000,2.1092,0.7917,0.8584,2.411
11.884000,1.9061,0.8313,1.2386,2.420
11.889000,1.6923,0.8615,1.6030,2.485
11.894000,1.4606,0.8826,1.9415,2.585
11.900000,1.2251,0.8966,2.2325,2.700
11.904000,0.9938,0.9067,2.4966,2.836
11.909000,0.7523,0.8865,2.7149,2.953
11.914000,0.5078,0.8481,2.8730,3.038
11.922000,0.2871,0.7989,2.9806,3.099
11.923000,0.0638,0.7272,3.0332,3.120
11.928000,-0.1644,0.6328,3.0383,3.108
11.936000,-0.3823,0.5549,3.0082,3.083
11.938000,-0.5973,0.4836,2.9407,3.040
11.943000,-0.7973,0.3976,2.8412,2.978
11.963000,-1.0012,0.3305,2.7029,2.901
11.964000,-1.1951,0.2627,2.5000,2.783
11.965000,-1.3805,0.1999,2.2811,2.674
11.966000,-1.5671,0.1348,2.0349,2.572
11.968000,-1.7191,0.0624,1.7833,2.478
11.973000,-1.8699,0.0141,1.5318,2.417
11.978000,-2.0150,-0.0322,1.2879,2.392
11.984000,-2.1419,-0.0851,1.0734,2.397
11.989000,-2.2675,-0.1284,0.8602,2.429
11.993000,-2.3178,-0.1690,0.6844,2.423
11.999000,-2.5081,-0.2142,0.5270,2.572
12.003000,-2.6185,-0.2668,0.4074,2.663
12.009000,-2.7177,-0.3257,0.3138,2.755
12.015000,-2.8156,-0.3770,0.2675,2.853
12.019000,-2.9146,-0.4397,0.2398,2.957
12.024000,-2.9956,-0.4948,0.2186,3.044
12.029000,-3.0924,-0.5567,0.2110,3.149
12.034000,-3.1899,-0.6103,0.2360,3.256
12.039000,-3.2836,-0.6655,0.2766,3.362
12.043000,-3.3687,-0.7126,0.3229,3.458
12.056000,-3.4428,-0.7396,0.3771,3.542
12.057000,-3.5086,-0.7898,0.4272,3.622
12.059000,-3.5657,-0.8386,0.4586,3.692
12.103000,-3.6047,-0.8960,0.4690,3.744
12.105000,-3.6137,-0.9880,0.4893,3.778
12.105000,-3.6047,-1.1076,0.5001,3.804
12.106000,-3.5876,-1.2597,0.4896,3.834
12.106000,-3.5668,-1.4126,0.4742,3.866
12.106000,-3.5450,-1.5739,0.4396,3.903
12.107000,-3.5388,-1.7577,0.4143,3.973
12.107000,-3.5411,-1.9472,0.3698,4.058
12.107000,-3.5254,-2.1591,0.3277,4.147
12.109000,-3.5086,-2.3886,0.3000,4.255
12.115000,-3.4713,-2.6350,0.2793,4.367
12.120000,-3.4136,-2.8962,0.2468,4.484
12.124000,-3.3524,-3.1698,0.1905,4.618
12.130000,-3.2804,-3.4510,0.1320,4.763
12.134000,-3.2193,-3.7373,0.0767,4.933
12.140000,-3.1711,-4.0451,0.0481,5.140
12.144000,-3.1287,-4.3480,0.0487,5.357
12.154000,-3.1137,-4.6291,0.0685,5.579
12.159000,-3.1282,-4.8477,0.1146,5.771
12.160000,-3.1912,-5.0132,0.1889,5.946
12.186000,-3.2787,-5.1301,0.2890,6.095
12.188000,-3.3736,-5.2075,0.3980,6.217
12.189000,-3.4662,-5.2500,0.5110,6.312
12.190000,-3.5133,-5.2718,0.6569,6.369
12.190000,-3.4933,-5.2919,0.8140,6.393
12.191000,-3.4184,-5.3531,0.9393,6.421
12.195000,-3.2908,-5.4555,1.0351,6.455
12.199000,-3.1227,-5.5585,1.0918,6.468
12.204000,-2.9429,-5.6574,1.1068,6.472
12.210000,-2.7563,-5.7093,1.0751,6.430
12.214000,-2.5653,-5.6882,1.0393,6.326
12.220000,-2.4350,-5.6833,0.9175,6.251
12.225000,-2.3242,-5.6344,0.7865,6.145
12.230000,-2.1948,-5.5105,0.6222,5.964
12.234000,-2.0541,-5.3458,0.4177,5.742
12.239000,-1.9214,-5.1690,0.1704,5.517
12.244000,-1.7899,-4.9787,-0.1429,5.293
12.251000,-1.6859,-4.7751,-0.4956,5.088
12.268000,-1.6287,-4.5727,-0.8776,4.933
12.272000,-1.6040,-4.3360,-1.2788,4.797
12.273000,-1.6283,-4.1103,-1.6487,4.719
12.274000,-1.7042,-3.8770,-1.9798,4.675
12.285000,-1.8243,-3.6596,-2.2578,4.671
12.287000,-1.9906,-3.4602,-2.4612,4.690
12.289000,-2.1933,-3.2571,-2.5759,4.696
12.290000,-2.4295,-3.0591,-2.5831,4.683
12.297000,-2.6459,-2.8824,-2.4998,4.643
12.301000,-2.8569,-2.7199,-2.3143,4.573
12.305000,-2.9686,-2.5635,-2.0436,4.423
12.310000,-2.9904,-2.4228,-1.7359,4.222
12.316000,-2.8983,-2.2858,-1.4197,3.955
12.320000,-2.7040,-2.1522,-1.1235,3.634
12.325000,-2.4159,-2.0499,-0.8180,3.272
12.329000,-2.0721,-1.9859,-0.5587,2.924
12.336000,-1.7089,-1.9273,-0.3692,2.602
12.339000,-1.3409,-1.8529,-0.2425,2.300
12.344000,-1.2668,-1.7652,-0.1522,2.178
12.351000,-0.6075,-1.6655,-0.0980,1.776
12.355000,-0.2388,-1.5516,-0.0824,1.572
12.360000,0.1501,-1.4309,-0.1148,1.443
12.372000,0.5755,-1.3041,-0.1877,1.438
12.373000,0.9966,-1.1640,-0.2965,1.561
12.377000,1.4024,-1.0001,-0.4378,1.777
12.379000,1.7807,-0.8029,-0.5828,2.038
12.412000,2.1214,-0.6184,-0.7743,2.341
12.414000,2.4336,-0.4037,-0.9351,2.638
12.415000,2.7050,-0.1617,-1.0719,2.914
12.415000,2.9378,0.0912,-1.1964,3.173
12.416000,3.1044,0.3753,-1.3010,3.387
12.416000,3.2121,0.6717,-1.3807,3.560
12.417000,3.2533,0.9587,-1.4160,3.675
12.421000,3.2352,1.2461,-1.4188,3.746
12.425000,3.1893,1.5077,-1.3604,3.781
12.430000,3.0909,1.7315,-1.2579,3.759
12.435000,2.9645,1.9249,-1.1330,3.712
12.440000,2.8269,2.0763,-0.9621,3.637
12.445000,2.6926,2.2122,-0.7671,3.568
12.453000,2.5501,2.3281,-0.5482,3.496
12.457000,2.4062,2.4431,-0.3302,3.445
12.461000,2.2614,2.5455,-0.1107,3.407
12.465000,2.1251,2.6283,0.0931,3.381
12.470000,1.9905,2.7131,0.2811,3.377
12.476000,1.8527,2.7760,0.4626,3.369
12.480000,1.7144,2.8173,0.6208,3.356
12.505000,1.5897,2.8513,0.7887,3.358
12.506000,1.4766,2.8638,0.9492,3.359
12.507000,1.3488,2.8430,1.0734,3.325
12.507000,1.2160,2.8010,1.1780,3.273
12.508000,1.0831,2.7569,1.2773,3.226
12.510000,0.9360,2.6967,1.3491,3.157
12.516000,0.7892,2.6205,1.3791,3.065
12.520000,0.6358,2.5548,1.4036,2.984
12.525000,0.4901,2.4853,1.4461,2.917
12.531000,0.3188,2.4119,1.4831,2.849
12.536000,0.1391,2.3350,1.5237,2.792
12.540000,-0.0512,2.2357,1.5609,2.727
12.545000,-0.2494,2.1405,1.5851,2.675
12.551000,-0.4552,2.0496,1.6182,2.651
12.555000,-0.6708,1.9487,1.6577,2.645
12.560000,-0.8792,1.8549,1.7013,2.666
12.567000,-1.0800,1.7517,1.7561,2.705
12.570000,-1.2826,1.6632,1.7981,2.765
12.576000,-1.4675,1.5489,1.8514,2.825
12.582000,-1.6534,1.4475,1.9137,2.914
12.585000,-1.8116,1.3473,1.9778,3.001
12.590000,-1.9487,1.2341,2.0580,3.091
12.596000,-2.0551,1.1201,2.1353,3.168
12.605000,-2.1212,1.0197,2.2097,3.228
12.607000,-2.1754,0.9117,2.2787,3.280
12.610000,-2.2202,0.7913,2.3592,3.335
12.650000,-2.2433,0.6803,2.4316,3.378
12.652000,-2.2589,0.5477,2.5223,3.430
12.652000,-2.2669,0.4392,2.6095,3.484
12.653000,-2.2505,0.3524,2.7097,3.540
12.653000,-2.2263,0.2849,2.8109,3.597
12.654000,-2.1969,0.2344,2.9129,3.656
12.654000,-2.1571,0.2201,3.0132,3.712
12.655000,-2.1119,0.2396,3.1212,3.776
12.656000,-2.0563,0.2690,3.2415,3.848
12.660000,-1.9617,0.3009,3.3477,3.892
12.666000,-1.8351,0.3428,3.4468,3.920
12.670000,-1.6675,0.4037,3.5339,3.928
12.676000,-1.4780,0.4716,3.6208,3.939
12.680000,-1.2692,0.5464,3.7024,3.952
12.685000,-1.0439,0.6110,3.7545,3.945
12.691000,-0.8281,0.6703,3.7721,3.920
12.697000,-0.6083,0.7189,3.7527,3.869
12.701000,-0.4012,0.7520,3.6771,3.775
12.705000,-0.1853,0.7719,3.5501,3.638
12.710000,0.0176,0.7567,3.3861,3.470
12.736000,0.2149,0.7234,3.1921,3.280
12.737000,0.4179,0.6642,2.9544,3.057
12.738000,0.6220,0.5672,2.6897,2.818
12.738000,0.8415,0.4491,2.4029,2.585
12.738000,1.0834,0.2953,2.1160,2.395
12.740000,1.3334,0.0893,1.8239,2.261
12.745000,1.5958,-0.1456,1.5441,2.225
12.750000,1.8466,-0.3829,1.2671,2.272
12.756000,2.0884,-0.6252,0.9882,2.394
12.760000,2.3066,-0.8438,0.7197,2.559
12.765000,2.5156,-1.0341,0.4570,2.758
12.770000,2.7037,-1.1840,0.1975,2.958
12.775000,2.8799,-1.2844,-0.0695,3.154
12.781000,3.0731,-1.3353,-0.3130,3.365
12.786000,3.2282,-1.3320,-0.5374,3.533
12.790000,3.4001,-1.2674,-0.7426,3.704
12.797000,3.5890,-1.1822,-0.9287,3.891
12.808000,3.7913,-1.0889,-1.0971,4.094
12.810000,4.0286,-0.9611,-1.2457,4.325
12.813000,4.2862,-0.8277,-1.3790,4.578
12.855000,4.5658,-0.6914,-1.5088,4.858
12.856000,4.8814,-0.6001,-1.6257,5.180
12.857000,5.2248,-0.5446,-1.7482,5.536
12.857000,5.5955,-0.5199,-1.8642,5.921
12.858000,5.9523,-0.5193,-1.9522,6.286
12.858000,6.2780,-0.5523,-2.0552,6.629
12.859000,6.5649,-0.6261,-2.1775,6.945
12.859000,6.8154,-0.7144,-2.2619,7.216
12.860000,7.0099,-0.8124,-2.3437,7.436
12.860000,7.1315,-0.9320,-2.4280,7.591
12.866000,7.1757,-1.0492,-2.5265,7.680
12.872000,7.1431,-1.1901,-2.6390,7.707
12.876000,7.0292,-1.3520,-2.7466,7.667
12.882000,6.8346,-1.5082,-2.8461,7.556
12.887000,6.5600,-1.6489,-2.9185,7.367
12.891000,6.2158,-1.7618,-2.9638,7.108
12.895000,5.8005,-1.8514,-2.9678,6.774
12.900000,5.3437,-1.8909,-2.9523,6.391
12.906000,4.8584,-1.8967,-2.9005,5.968
12.910000,4.3788,-1.8422,-2.8174,5.523
12.919000,3.9412,-1.7416,-2.7033,5.087
12.925000,3.5654,-1.6019,-2.5371,4.660
12.926000,3.2465,-1.4087,-2.3337,4.239
12.930000,2.9703,-1.1552,-2.0769,3.804
12.958000,2.7246,-0.8725,-1.7939,3.377
12.960000,2.7199,-0.5584,-1.5140,3.163
12.961000,2.3505,-0.2490,-1.2735,2.685
12.961000,2.2934,0.0817,-1.0824,2.537
12.962000,2.2963,0.3640,-0.9767,2.522
12.962000,2.3898,0.5930,-0.8819,2.615
12.968000,2.5587,0.7945,-0.8245,2.803
12.970000,2.7804,0.9300,-0.8285,3.047
12.976000,3.0252,1.0038,-0.9007,3.312
12.982000,3.2564,1.0324,-1.0458,3.573
12.986000,3.4472,1.0108,-1.2222,3.795
12.991000,3.5972,0.9389,-1.4513,3.991
12.995000,3.6632,0.8335,-1.7299,4.136
13.001000,3.6738,0.7233,-2.0310,4.260
13.006000,3.6388,0.5893,-2.3535,4.373
13.010000,3.5508,0.4364,-2.6704,4.464
13.021000,3.4299,0.2723,-2.9784,4.551
13.022000,3.2904,0.0780,-3.2742,4.643
13.025000,3.1422,-0.1224,-3.5571,4.748
13.055000,2.9666,-0.3070,-3.8023,4.832
13.057000,2.7780,-0.4710,-3.9947,4.888
13.058000,2.5728,-0.6185,-4.1219,4.898
13.058000,2.3536,-0.7064,-4.1884,4.856
13.059000,2.1450,-0.7584,-4.1844,4.763
13.059000,1.9524,-0.7840,-4.1121,4.619
13.061000,1.8121,-0.7518,-3.9621,4.421
13.066000,1.7168,-0.7172,-3.7321,4.170
13.070000,1.6626,-0.6919,-3.4373,3.881
13.075000,1.6471,-0.6856,-3.1067,3.583
13.082000,1.6606,-0.6748,-2.7073,3.247
13.085000,1.6457,-0.6788,-2.2613,2.878
13.091000,1.6285,-0.6812,-1.7859,2.511
13.095000,1.5788,-0.6582,-1.2805,2.137
13.100000,1.5010,-0.6243,-0.7217,1.779
13.107000,1.4026,-0.5846,-0.1537,1.527
13.110000,1.3169,-0.5393,0.3726,1.471
13.121000,1.2365,-0.4433,0.8906,1.587
13.123000,1.1498,-0.3371,1.4365,1.871
13.126000,1.0562,-0.2283,1.9718,2.249
13.165000,0.9724,-0.1171,2.4789,2.665
13.166000,0.8838,-0.0132,2.9572,3.087
13.167000,0.7927,0.0881,3.3870,3.480
13.167000,0.7202,0.1675,3.7827,3.854
13.168000,0.6453,0.2399,4.1307,4.188
13.168000,0.5890,0.2809,4.4287,4.477
13.169000,0.5391,0.2883,4.6741,4.714
13.169000,0.4763,0.2740,4.8379,4.869
13.171000,0.3883,0.2256,4.9399,4.960
13.176000,0.2687,0.1513,4.9717,4.981
13.182000,0.2009,0.0437,4.9340,4.938
13.186000,-0.0614,-0.0757,4.8267,4.828
13.191000,-0.2572,-0.1875,4.7098,4.721
13.195000,-0.4969,-0.3136,4.5908,4.628
13.201000,-0.7602,-0.4265,4.4597,4.544
13.208000,-1.0307,-0.5265,4.3216,4.474
13.211000,-1.3224,-0.6539,4.1956,4.447
13.216000,-1.5848,-0.7774,4.0295,4.399
13.220000,-1.8778,-0.8732,3.8692,4.389
13.226000,-2.1980,-0.9759,3.7144,4.425
13.231000,-2.5001,-1.0571,3.5513,4.470
13.235000,-2.7909,-1.1020,3.3873,4.525
13.241000,-3.0800,-1.1560,3.1746,4.572
13.246000,-3.3430,-1.1923,2.9736,4.630
13.254000,-3.5899,-1.2302,2.7704,4.698
13.257000,-3.7862,-1.2614,2.5723,4.748
13.261000,-3.9514,-1.2910,2.3940,4.797
13.293000,-4.0808,-1.3427,2.2190,4.835
13.295000,-4.1839,-1.3902,2.0641,4.868
13.295000,-4.2517,-1.4459,1.9342,4.890
13.297000,-4.3195,-1.5088,1.8247,4.926
13.297000,-4.3709,-1.5626,1.7211,4.951
13.298000,-4.4108,-1.6026,1.6401,4.971
13.298000,-4.4561,-1.6192,1.5937,5.002
13.303000,-4.5072,-1.6226,1.5581,5.037
13.306000,-4.5371,-1.5928,1.5408,5.049
13.311000,-4.5631,-1.5710,1.5347,5.064
13.315000,-4.5707,-1.5644,1.5330,5.068
13.321000,-4.5529,-1.5800,1.5338,5.057
13.330000,-4.4978,-1.6324,1.5252,5.022
13.335000,-4.4153,-1.7125,1.5433,4.981
13.337000,-4.3197,-1.8317,1.5810,4.951
13.342000,-4.2136,-1.9522,1.6332,4.923
13.347000,-4.1139,-2.0767,1.6782,4.904
13.352000,-4.0256,-2.2146,1.7039,4.900
13.358000,-3.9489,-2.3712,1.7032,4.911
13.362000,-3.8857,-2.5507,1.6787,4.942
13.388000,-3.8458,-2.7748,1.6426,5.019
13.390000,-3.7981,-3.0292,1.6019,5.115
13.391000,-3.7689,-3.2896,1.5639,5.241
13.391000,-3.7487,-3.5684,1.5261,5.396
13.392000,-3.7467,-3.8338,1.4718,5.559
13.393000,-3.7750,-4.0836,1.4203,5.740
13.397000,-3.8263,-4.3293,1.3671,5.937
13.402000,-3.9122,-4.5638,1.3482,6.160
13.407000,-4.0472,-4.7915,1.3610,6.418
13.413000,-4.2210,-4.9874,1.4076,6.684
13.417000,-4.4121,-5.1466,1.4756,6.938
13.421000,-4.6441,-5.2566,1.5504,7.184
13.429000,-4.8881,-5.3336,1.6199,7.414
13.432000,-5.1295,-5.3841,1.6887,7.626
13.436000,-5.3393,-5.4294,1.7548,7.814
13.441000,-5.3380,-5.4687,1.8136,7.854
13.447000,-5.6062,-5.5136,1.8507,8.078
13.452000,-5.6102,-5.5806,1.8689,8.131
13.457000,-5.5224,-5.6669,1.8395,8.124
13.461000,-5.3309,-5.7751,1.7842,8.059
13.468000,-5.0385,-5.8723,1.7125,7.925
13.476000,-4.7028,-5.9373,1.6122,7.744
13.477000,-4.3624,-5.9516,1.4784,7.526
13.499000,-4.0749,-5.9255,1.3372,7.315
13.500000,-3.8522,-5.8447,1.2049,7.103
13.501000,-3.6777,-5.7291,1.0764,6.893
13.501000,-3.5419,-5.5931,0.9538,6.689
13.501000,-3.4231,-5.4416,0.8394,6.483
13.506000,-3.3068,-5.2773,0.7283,6.270
13.512000,-3.1787,-5.1311,0.6253,6.068
13.517000,-3.0414,-5.0182,0.5620,5.895
13.521000,-2.9235,-4.9168,0.5238,5.744
13.526000,-2.7961,-4.8127,0.5013,5.589
13.531000,-2.6951,-4.7109,0.5350,5.454
13.536000,-2.6348,-4.5946,0.5653,5.327
13.542000,-2.6050,-4.4515,0.6445,5.198
13.547000,-2.6014,-4.3157,0.7608,5.096
13.552000,-2.6136,-4.1699,0.8853,5.000
13.558000,-2.6296,-4.0212,1.0131,4.910
13.561000,-2.6227,-3.8981,1.1132,4.828
13.585000,-2.5636,-3.7858,1.1928,4.725
13.587000,-2.4291,-3.6974,1.2525,4.598
13.588000,-2.2284,-3.6326,1.3042,4.457
13.588000,-1.9760,-3.5821,1.3695,4.314
13.589000,-1.7127,-3.5439,1.4290,4.187
13.592000,-1.4308,-3.5082,1.4728,4.065
13.598000,-1.1243,-3.4932,1.5157,3.970
13.602000,-0.8120,-3.4940,1.5261,3.898
13.606000,-0.4748,-3.4845,1.5157,3.829
13.612000,-0.1178,-3.4819,1.4630,3.779
13.617000,0.2643,-3.4715,1.3892,3.748
13.621000,0.6722,-3.4241,1.2994,3.724
13.627000,1.0989,-3.3254,1.1816,3.696
13.632000,1.5150,-3.1783,1.0238,3.667
13.636000,1.9201,-2.9907,0.8287,3.649
13.642000,2.3255,-2.7392,0.6423,3.650
13.646000,2.6977,-2.4619,0.4597,3.681
13.652000,3.0492,-2.1558,0.2888,3.745
13.657000,3.3680,-1.8803,0.1486,3.860
13.661000,3.6585,-1.6381,0.0318,4.009
13.669000,3.9203,-1.4173,-0.0593,4.169
13.675000,4.1202,-1.1958,-0.1419,4.293
13.680000,4.2494,-0.9507,-0.2104,4.360
13.682000,4.3157,-0.6744,-0.2484,4.375
13.712000,4.3166,-0.3787,-0.3011,4.344
13.713000,4.2881,-0.0706,-0.3567,4.304
13.714000,4.2379,0.2289,-0.4032,4.263
13.715000,4.1601,0.5169,-0.4566,4.217
13.716000,4.0722,0.7915,-0.5291,4.182
13.716000,3.9741,1.0603,-0.6085,4.158
13.717000,3.8708,1.3233,-0.7137,4.153
13.722000,3.7747,1.5715,-0.8134,4.169
13.727000,3.6729,1.8212,-0.9118,4.200
13.733000,3.5659,2.0442,-1.0135,4.233
13.737000,3.4706,2.2598,-1.0994,4.285
13.742000,3.3773,2.4491,-1.1834,4.336
13.748000,3.2932,2.6098,-1.2511,4.384
13.753000,3.2093,2.7494,-1.3169,4.426
13.758000,3.1273,2.8631,-1.3780,4.458
13.763000,3.0546,2.9774,-1.4341,4.500
13.769000,2.9626,3.0996,-1.4877,4.539
13.772000,2.8656,3.2131,-1.5267,4.568
13.778000,2.7759,3.3133,-1.5725,4.600
13.782000,2.6714,3.4073,-1.5721,4.606
13.810000,2.5881,3.4545,-1.5523,4.587
13.813000,2.5360,3.4838,-1.5157,4.568
13.815000,2.4933,3.4905,-1.4818,4.538
13.815000,2.4866,3.4747,-1.4268,4.505
13.817000,2.5249,3.4219,-1.3462,4.461
13.819000,2.5966,3.3514,-1.2430,4.418
13.820000,2.6679,3.2893,-1.1774,4.396
13.824000,2.7342,3.2358,-1.1567,4.391
13.827000,2.7786,3.1812,-1.2214,4.397
13.832000,2.8037,3.1161,-1.3328,4.399
13.838000,2.8166,2.9784,-1.5092,4.368
13.842000,2.7913,2.8785,-1.7000,4.355
13.847000,2.6825,2.8235,-1.8281,4.302
13.854000,2.5029,2.7468,-1.9102,4.178
13.857000,2.3658,2.6750,-1.9630,4.075
13.862000,2.2980,2.6086,-2.0079,4.015
13.868000,2.2927,2.4948,-2.0113,3.940
13.873000,2.3114,2.3483,-1.9851,3.847
13.877000,2.3445,2.1546,-1.9198,3.718
13.891000,2.3733,1.9402,-1.8083,3.559
13.893000,2.3834,1.7314,-1.6536,3.378
13.893000,2.3681,1.5140,-1.4776,3.175
13.897000,2.3754,1.3166,-1.2806,3.003
13.924000,2.2452,1.1560,-1.0271,2.726
13.925000,2.1338,1.0323,-0.7199,2.477
13.926000,2.0292,0.9429,-0.3674,2.268
13.926000,1.9583,0.9000,-0.0516,2.156
13.927000,1.9617,0.9034,0.1913,2.168
13.928000,2.0130,0.9290,0.3802,2.249
13.935000,2.1048,0.9433,0.5626,2.374
13.937000,2.2248,0.9534,0.7312,2.529
13.943000,2.3726,0.9732,0.8927,2.715
13.948000,2.5359,1.0052,1.0421,2.920
13.952000,2.7146,1.0659,1.2031,3.155
13.958000,2.9081,1.1527,1.3346,3.401
13.963000,3.1091,1.2607,1.4508,3.655
13.967000,3.2881,1.3727,1.5750,3.896
13.973000,3.4594,1.4601,1.6687,4.109
13.978000,3.6203,1.5490,1.7173,4.296
13.983000,3.7778,1.6345,1.7302,4.465
13.988000,3.9243,1.7237,1.7049,4.613
13.992000,4.0426,1.8068,1.6630,4.730
14.008000,4.1566,1.8407,1.5731,4.810
14.009000,4.2829,1.8398,1.4188,4.872
14.010000,4.4116,1.8063,1.2147,4.919
14.013000,4.5616,1.7523,0.9707,4.982
14.061000,4.7183,1.6369,0.7085,5.044
14.063000,4.8765,1.5128,0.4029,5.122
14.064000,5.0193,1.3944,0.0878,5.210
14.065000,5.1514,1.2743,-0.2459,5.312
14.065000,5.2629,1.1694,-0.5924,5.424
14.066000,5.3608,1.1153,-0.9515,5.558
14.066000,5.4233,1.0669,-1.2761,5.673
14.067000,5.4505,1.0263,-1.6018,5.773
14.069000,5.4471,1.0273,-1.8991,5.859
14.070000,5.4228,1.0532,-2.1744,5.937
14.070000,5.3703,1.0824,-2.4156,5.987
14.073000,5.2997,1.1272,-2.6194,6.018
14.077000,5.2180,1.1803,-2.7902,6.034
14.083000,5.1375,1.2373,-2.9064,6.031
14.088000,5.0847,1.2861,-3.0108,6.048
14.093000,5.0903,1.3172,-3.0982,6.103
14.109000,5.1380,1.3117,-3.1660,6.176
14.110000,5.2343,1.2478,-3.2188,6.270
14.112000,5.3503,1.1400,-3.2469,6.361
14.112000,5.4810,0.9832,-3.2405,6.443
14.149000,5.5857,0.7942,-3.1997,6.486
14.150000,5.6591,0.5725,-3.1414,6.498
14.151000,5.6996,0.3258,-3.0775,6.486
14.151000,5.7048,0.0536,-2.9963,6.444
14.151000,5.7034,-0.2297,-2.9001,6.403
14.152000,5.6575,-0.5244,-2.7751,6.323
14.152000,5.5573,-0.8522,-2.6213,6.203
14.153000,5.4042,-1.2128,-2.4731,6.066
14.157000,5.2033,-1.5919,-2.3545,5.929
14.164000,4.9503,-1.9848,-2.2204,5.777
14.169000,4.6695,-2.3339,-2.0112,5.594
14.173000,4.3179,-2.6754,-1.7750,5.381
14.178000,3.9140,-2.9753,-1.5324,5.150
14.183000,3.4602,-3.2431,-1.2524,4.905
14.188000,2.9714,-3.4406,-0.9428,4.643
14.194000,2.4747,-3.5866,-0.6426,4.405
14.199000,1.9962,-3.6574,-0.3254,4.179
14.204000,1.5351,-3.6664,0.0122,3.975
14.208000,1.1079,-3.6401,0.3747,3.823
14.213000,0.7244,-3.5901,0.7473,3.738
14.218000,0.3945,-3.4924,1.1008,3.683
14.225000,0.1419,-3.3826,1.4419,3.680
14.228000,-0.0625,-3.2372,1.7421,3.677
14.266000,-0.2109,-3.0745,1.9911,3.669
14.268000,-0.2921,-2.8950,2.1868,3.640
14.269000,-0.3158,-2.7202,2.3245,3.592
14.269000,-0.2731,-2.5526,2.3976,3.513
14.269000,-0.1767,-2.4383,2.4280,3.446
14.270000,-0.0526,-2.3720,2.4419,3.405
14.270000,0.0721,-2.3544,2.4397,3.391
14.271000,0.1731,-2.3854,2.4358,3.414
14.273000,0.2288,-2.4366,2.4371,3.454
14.278000,0.2315,-2.5443,2.4391,3.532
14.284000,0.1607,-2.6885,2.4511,3.642
14.288000,0.0424,-2.8334,2.4709,3.760
14.293000,-0.0775,-2.9669,2.4962,3.878
14.300000,-0.2110,-3.0866,2.4963,3.975
14.303000,-0.3293,-3.2234,2.5073,4.097
14.308000,-0.4591,-3.3585,2.5202,4.224
14.313000,-0.6257,-3.4600,2.5207,4.326
14.319000,-0.8461,-3.5329,2.5118,4.417
14.324000,-1.0842,-3.5601,2.5082,4.488
14.329000,-1.3324,-3.5535,2.4934,4.541
14.336000,-1.5670,-3.5108,2.4798,4.575
14.339000,-1.7993,-3.4814,2.4601,4.627
14.343000,-2.0029,-3.4246,2.4226,4.648
14.378000,-2.1684,-3.3619,2.3723,4.651
14.379000,-2.3150,-3.2861,2.3191,4.641
14.380000,-2.4357,-3.2071,2.2774,4.626
14.380000,-2.5658,-3.1312,2.2515,4.632
14.381000,-2.6842,-3.0372,2.2392,4.631
14.381000,-2.7858,-2.9440,2.2521,4.637
14.382000,-2.8685,-2.8396,2.2851,4.638
14.385000,-2.9324,-2.7602,2.3404,4.658
14.388000,-2.9796,-2.6668,2.4217,4.675
14.393000,-3.0105,-2.5765,2.5142,4.693
14.400000,-3.0419,-2.4560,2.6269,4.710
14.403000,-3.0814,-2.3244,2.7400,4.733
14.409000,-3.1338,-2.1771,2.8483,4.762
14.414000,-3.1874,-2.0287,2.9660,4.803
14.419000,-3.2539,-1.8644,3.0804,4.853
14.423000,-3.3146,-1.7443,3.1814,4.914
14.428000,-3.3910,-1.6253,3.2715,4.984
14.435000,-3.4497,-1.5026,3.3503,5.038
14.438000,-3.5150,-1.4053,3.3989,5.087
14.443000,-3.5818,-1.3353,3.4338,5.138
14.455000,-3.6478,-1.2544,3.4553,5.179
14.457000,-3.7154,-1.1987,3.4755,5.227
14.462000,-3.7871,-1.1607,3.4705,5.266
14.463000,-3.8724,-1.1360,3.4477,5.308
14.492000,-3.9591,-1.1071,3.3835,5.324
14.493000,-4.0353,-1.0743,3.2762,5.308
14.494000,-4.1032,-1.0543,3.1451,5.276
14.495000,-4.1605,-1.0374,3.0076,5.238
14.495000,-4.2190,-1.0235,2.8519,5.194
14.495000,-4.2574,-1.0129,2.6903,5.137
14.499000,-4.2920,-1.0243,2.5161,5.080
14.504000,-4.3159,-1.0172,2.3561,5.021
14.509000,-4.3241,-1.0177,2.1769,4.947
14.513000,-4.3048,-1.0428,2.0149,4.866
14.519000,-4.2675,-1.0493,1.8702,4.776
14.524000,-4.2148,-1.0541,1.7265,4.675
14.529000,-4.1442,-1.0476,1.5862,4.559
14.540000,-4.0630,-1.0420,1.4567,4.440
14.542000,-3.9689,-1.0254,1.3121,4.304
14.543000,-3.8596,-1.0289,1.1858,4.167
14.574000,-3.7400,-1.0169,1.0470,4.015
14.575000,-3.6077,-1.0158,0.9077,3.856
14.576000,-3.4702,-1.0114,0.7679,3.695
14.576000,-3.3322,-1.0016,0.6300,3.536
14.577000,-3.1988,-0.9792,0.4916,3.381
14.577000,-3.0915,-0.9518,0.3789,3.257
14.579000,-2.9961,-0.8860,0.2866,3.137
14.584000,-2.9127,-0.8130,0.1835,3.030
14.588000,-2.8365,-0.7164,0.0674,2.926
14.593000,-2.7342,-0.6104,-0.0402,2.802
14.599000,-2.6466,-0.5028,-0.1271,2.697
14.605000,-2.5618,-0.4318,-0.1911,2.605
14.612000,-2.4632,-0.3665,-0.2417,2.502
14.617000,-2.3726,-0.3334,-0.2719,2.411
14.618000,-2.2731,-0.3231,-0.2699,2.312
14.624000,-2.2057,-0.3548,-0.2288,2.246
14.630000,-2.1560,-0.4284,-0.1536,2.203
14.638000,-2.1214,-0.5128,-0.0451,2.183
14.640000,-2.1236,-0.6222,0.0775,2.214
14.643000,-2.1576,-0.7613,0.2159,2.298
14.671000,-2.2233,-0.9323,0.3554,2.437
14.672000,-2.3111,-1.0917,0.4812,2.601
14.673000,-2.4468,-1.2561,0.5693,2.809
14.674000,-2.6112,-1.4346,0.6224,3.044
14.675000,-2.7873,-1.6054,0.6309,3.278
14.676000,-2.9819,-1.7944,0.5951,3.531
14.680000,-3.1709,-1.9942,0.5463,3.785
14.686000,-3.3587,-2.1921,0.5037,4.042
14.690000,-3.5501,-2.3929,0.4526,4.305
14.694000,-3.7329,-2.6033,0.3643,4.566
14.699000,-3.9257,-2.8059,0.2487,4.832
14.705000,-4.0924,-3.0171,0.1319,5.086
14.709000,-4.2495,-3.2173,0.0502,5.330
14.716000,-4.3511,-3.3917,0.0030,5.517
14.720000,-4.4116,-3.5088,-0.0409,5.637
14.724000,-4.4378,-3.5781,-0.0573,5.701
14.729000,-4.3936,-3.6039,-0.0918,5.683
14.735000,-4.2456,-3.5914,-0.1461,5.563
14.739000,-3.9698,-3.5308,-0.1933,5.316
14.744000,-3.6023,-3.4322,-0.2280,4.981
14.751000,-3.2032,-3.3631,-0.2596,4.652
14.755000,-2.8276,-3.3595,-0.3645,4.406
14.759000,-2.4927,-3.4484,-0.5849,4.295
14.764000,-2.2242,-3.6389,-0.9203,4.363
14.793000,-2.0173,-3.8712,-1.3456,4.568
14.794000,-1.8453,-4.1597,-1.9371,4.946
14.795000,-1.5813,-4.3392,-2.5381,5.270
14.795000,-1.1944,-4.3409,-3.1582,5.499
14.796000,-0.9175,-4.4174,-3.7684,5.878
14.796000,-0.6257,-4.3961,-4.3971,6.249
14.801000,-0.3839,-4.2752,-5.0431,6.623
14.804000,-0.2060,-4.0980,-5.4349,6.810
14.809000,-0.0602,-3.8785,-5.5346,6.759
14.816000,0.1150,-3.6606,-5.4524,6.568
14.819000,0.3890,-3.4538,-5.3217,6.356
14.824000,0.7160,-3.2322,-5.1407,6.114
14.829000,1.2250,-3.0009,-4.8544,5.837
14.835000,1.9158,-2.8176,-4.3901,5.557
14.839000,2.6119,-2.7365,-3.7106,5.299
14.844000,3.2032,-2.7529,-2.8820,5.113
14.855000,3.6438,-2.8261,-1.9806,5.019
14.856000,3.9573,-2.8843,-1.1067,5.020
14.860000,4.1683,-2.9029,-0.3502,5.092
14.864000,4.2854,-2.8369,0.2895,5.148
14.893000,4.3383,-2.6713,0.8290,5.162
14.895000,4.3584,-2.3793,1.2649,5.124
14.896000,4.3864,-1.9800,1.5850,5.067
14.896000,4.4487,-1.4927,1.7702,5.015
14.897000,4.5695,-0.9267,1.8236,5.006
14.898000,4.7546,-0.3358,1.7792,5.088
14.900000,4.9945,0.2082,1.6378,5.260
14.905000,5.3176,0.7194,1.4244,5.552
14.909000,5.6849,1.1806,1.1660,5.922
14.916000,6.0747,1.5821,0.8803,6.339
14.919000,6.4779,1.9324,0.5682,6.784
14.925000,6.8705,2.2553,0.2804,7.237
14.930000,7.2183,2.5314,0.0080,7.649
14.936000,7.5351,2.7962,-0.2438,8.041
14.939000,7.7967,3.0643,-0.4531,8.390
14.945000,7.9925,3.3253,-0.6216,8.679
14.953000,8.1249,3.5388,-0.7442,8.893
14.955000,8.2198,3.6951,-0.8326,9.051
14.960000,8.2942,3.8112,-0.8650,9.169
15.012000,8.3336,3.8873,-0.8172,9.232
15.014000,8.3285,3.8973,-0.7253,9.224
15.015000,8.2906,3.8578,-0.6035,9.164
15.016000,8.3062,3.7930,-0.4708,9.143
15.017000,8.1697,3.7055,-0.3296,8.977
15.019000,8.0942,3.6122,-0.1608,8.865
15.020000,8.0057,3.5180,0.0188,8.745
15.021000,7.8923,3.4443,0.1951,8.613
15.021000,7.7755,3.3746,0.3988,8.486
15.022000,7.6246,3.3113,0.6250,8.336
15.023000,7.4468,3.2424,0.8518,8.167
15.024000,7.2327,3.1538,1.0622,7.962
15.025000,7.0094,3.0552,1.2682,7.751
15.029000,6.7793,2.9826,1.4411,7.545
15.035000,6.5498,2.8977,1.5761,7.333
15.040000,6.2948,2.7839,1.6899,7.087
15.045000,6.0410,2.6555,1.7993,6.840
15.050000,5.7885,2.5271,1.9016,6.596
15.055000,5.5356,2.4108,1.9969,6.359
15.060000,5.2775,2.2898,2.0565,6.109
15.070000,5.0167,2.1545,2.0947,5.848
15.072000,4.7368,2.0410,2.1141,5.574
15.079000,4.4329,1.9275,2.1244,5.280
15.109000,4.0920,1.8051,2.1283,4.953
15.111000,3.7260,1.6690,2.1424,4.611
15.111000,3.3807,1.5409,2.1526,4.294
15.112000,3.0515,1.4089,2.1566,3.993
15.112000,2.7407,1.2632,2.1855,3.726
15.112000,2.4253,1.1046,2.2322,3.476
15.114000,2.0861,0.9473,2.3132,3.256
15.114000,1.6947,0.7892,2.4259,3.063
15.120000,1.2900,0.6737,2.5750,2.958
15.125000,0.8672,0.5601,2.7197,2.909
15.131000,0.4372,0.4565,2.9102,2.978
15.136000,0.0190,0.3608,3.1486,3.169
15.140000,-0.3651,0.2855,3.4300,3.461
15.145000,-0.6958,0.2403,3.7468,3.818
15.151000,-0.9684,0.1919,4.0917,4.209
15.158000,-1.1968,0.1864,4.4549,4.617
15.162000,-1.3550,0.1924,4.8314,5.022
15.166000,-1.4599,0.2172,5.2042,5.409
15.171000,-1.5190,0.2535,5.5968,5.805
15.176000,-1.5139,0.2937,5.9564,6.153
15.189000,-1.4730,0.3427,6.2752,6.455
15.191000,-1.4092,0.3762,6.5771,6.737
15.192000,-1.3442,0.3842,6.8640,7.005
15.197000,-1.2760,0.3786,7.1261,7.249
15.233000,-1.2053,0.3899,7.3531,7.461
15.235000,-1.1895,0.3868,7.4996,7.603
15.235000,-1.2124,0.3473,7.5724,7.677
15.236000,-1.2882,0.2810,7.5935,7.707
15.236000,-1.3953,0.1926,7.5509,7.681
15.237000,-1.5291,0.0915,7.4591,7.615
15.237000,-1.7105,-0.0291,7.2925,7.490
15.237000,-1.8990,-0.1239,7.0706,7.322
15.241000,-2.0826,-0.2409,6.7700,7.087
15.246000,-2.2971,-0.3705,6.4323,6.840
15.251000,-2.5039,-0.5052,6.0916,6.605
15.257000,-2.7030,-0.6093,5.7483,6.381
15.261000,-2.8700,-0.7036,5.4057,6.161
15.268000,-3.0243,-0.8003,5.0830,5.969
15.271000,-3.1608,-0.8825,4.7664,5.787
15.276000,-3.2820,-0.9476,4.4702,5.626
15.282000,-3.3855,-1.0125,4.1919,5.483
15.287000,-3.4614,-1.0598,3.9348,5.347
15.291000,-3.5170,-1.1041,3.6892,5.215
15.297000,-3.5405,-1.1406,3.4553,5.077
15.302000,-3.5294,-1.1738,3.2502,4.939
15.305000,-3.4890,-1.1899,3.0737,4.800
15.311000,-3.4166,-1.2051,2.9215,4.654
15.336000,-3.3341,-1.2198,2.7742,4.506
15.338000,-3.2322,-1.2414,2.6415,4.355
15.338000,-3.1277,-1.3012,2.5257,4.225
15.339000,-3.0518,-1.4061,2.4386,4.152
15.339000,-2.9854,-1.5562,2.3704,4.117
15.341000,-2.9472,-1.7128,2.3042,4.114
15.346000,-2.9276,-1.8831,2.2587,4.150
15.352000,-2.9409,-2.0572,2.2555,4.239
15.356000,-2.9701,-2.2398,2.2871,4.367
15.361000,-3.0032,-2.4020,2.3556,4.510
15.366000,-3.0493,-2.5648,2.4563,4.681
15.371000,-3.0988,-2.7208,2.5864,4.868
15.376000,-3.1323,-2.8652,2.7171,5.040
15.382000,-3.1451,-2.9930,2.8484,5.193
15.386000,-3.1348,-3.1042,2.9683,5.317
15.391000,-3.0894,-3.1986,3.0818,5.410
15.396000,-3.0352,-3.2715,3.2006,5.492
15.401000,-2.9531,-3.3300,3.3079,5.545
15.406000,-2.8648,-3.3793,3.3940,5.581
15.411000,-2.7681,-3.4122,3.4705,5.599
15.423000,-2.6508,-3.4406,3.5278,5.595
15.424000,-2.5180,-3.4432,3.5655,5.560
15.426000,-2.3746,-3.4275,3.6032,5.511
15.472000,-2.2208,-3.3769,3.6382,5.438
15.473000,-2.0639,-3.3014,3.6658,5.348
15.474000,-1.9090,-3.2204,3.6694,5.242
15.475000,-1.7684,-3.1342,3.6611,5.134
15.475000,-1.6420,-3.0622,3.6433,5.035
15.476000,-1.5231,-2.9999,3.6303,4.950
15.476000,-2.7383,-4.2896,18.1349,18.835
15.477000,-1.8353,-4.6975,11.0373,12.135
15.477000,-0.7638,-3.7660,3.2377,5.025
15.478000,-0.7830,-3.0628,1.1038,3.348
15.483000,-1.2282,-2.8461,2.7118,4.119
15.486000,-1.3315,-2.7054,1.9511,3.591
15.491000,-1.4603,-2.6963,1.6939,3.503
15.496000,-1.5181,-2.6911,1.3870,3.387
15.502000,-1.5293,-2.7064,0.9952,3.264
15.507000,-1.4826,-2.6414,0.7115,3.111
15.512000,-1.4381,-2.4869,0.6716,2.950
15.519000,-1.4582,-2.3175,0.8677,2.872
15.521000,-1.5763,-2.1453,1.1133,2.886
15.526000,-1.7129,-2.0157,1.3113,2.952
15.532000,-1.8390,-1.9018,1.4160,3.001
15.558000,-1.9064,-1.8078,1.4593,3.005
15.559000,-1.8840,-1.7382,1.5181,2.979
15.560000,-1.7670,-1.6643,1.6091,2.912
15.560000,-1.5797,-1.5767,1.7606,2.843
15.560000,-1.3440,-1.4664,1.9648,2.796
15.561000,-1.0935,-1.3316,2.1968,2.792
15.568000,-0.8860,-1.1943,2.4730,2.886
15.571000,-0.7119,-1.0690,2.7737,3.057
15.576000,-0.5594,-0.9298,3.0864,3.272
15.582000,-0.4285,-0.7865,3.4011,3.517
15.586000,-0.3098,-0.6273,3.6839,3.750
15.591000,-0.2224,-0.4717,3.8985,3.933
15.596000,-0.1307,-0.3321,4.0329,4.049
15.602000,-0.0299,-0.2035,4.0992,4.104
15.606000,0.0892,-0.0817,4.1124,4.114
15.612000,0.2169,0.0571,4.1041,4.110
15.618000,0.3456,0.2054,4.0744,4.094
15.622000,0.4392,0.3699,4.0258,4.067
15.626000,0.4855,0.5214,3.9512,4.015
15.667000,0.4822,0.6409,3.8486,3.931
15.668000,0.4483,0.7353,3.6991,3.798
15.669000,0.3743,0.7903,3.5222,3.629
15.669000,0.2484,0.8205,3.3373,3.446
15.670000,0.0897,0.8164,3.1516,3.257
15.670000,-0.0964,0.7762,2.9608,3.062
15.670000,-0.2930,0.7145,2.7720,2.878
15.671000,-0.5262,0.6435,2.5875,2.718
15.672000,-0.7742,0.5420,2.4050,2.584
15.676000,-1.0819,0.3748,2.2199,2.498
15.683000,-1.3987,0.1928,2.0462,2.486
15.687000,-1.6569,0.0735,1.9060,2.527
15.692000,-1.8779,-0.0284,1.7921,2.596
15.697000,-2.0904,-0.1171,1.7164,2.707
15.702000,-2.0980,-0.1878,1.7003,2.707
15.706000,-2.5057,-0.2880,1.7004,3.042
15.712000,-2.7530,-0.4169,1.7097,3.267
15.721000,-2.9883,-0.5429,1.7162,3.489
15.722000,-3.1993,-0.6345,1.7251,3.690
15.726000,-3.3644,-0.6771,1.7438,3.849
15.732000,-3.4718,-0.6659,1.7911,3.963
15.758000,-3.5335,-0.6366,1.8656,4.046
15.760000,-3.5474,-0.6086,1.9620,4.099
15.760000,-3.5422,-0.5916,2.0827,4.151
15.761000,-3.4989,-0.5857,2.2110,4.180
15.762000,-3.4273,-0.5864,2.3393,4.191
15.762000,-3.3085,-0.5892,2.4368,4.151
15.768000,-3.1832,-0.5825,2.4936,4.085
15.772000,-3.0399,-0.5570,2.5147,3.984
15.776000,-2.9050,-0.5347,2.4859,3.861
15.782000,-2.7885,-0.5136,2.4147,3.724
15.787000,-2.6766,-0.4868,2.2877,3.555
15.791000,-2.5623,-0.4426,2.0883,3.335
15.797000,-2.4721,-0.3881,1.8482,3.111
15.802000,-2.3822,-0.3472,1.6013,2.891
15.807000,-2.3024,-0.3055,1.3406,2.682
15.813000,-2.2062,-0.2603,1.0855,2.472
15.822000,-2.1012,-0.2049,0.8436,2.273
15.823000,-2.0018,-0.1294,0.6294,2.102
15.827000,-1.8961,-0.0651,0.4356,1.947
15.863000,-1.8009,-0.0118,0.2578,1.819
15.864000,-1.7090,0.0331,0.1196,1.714
15.865000,-1.6109,0.0838,0.0070,1.613
15.865000,-1.5113,0.1093,-0.0993,1.518
