time,ax,ay,az,aT
0.004000,0.1273,0.2996,0.0942,0.339
0.004000,0.1283,0.2109,0.1872,0.310
0.005000,0.1176,0.1099,0.2682,0.313
0.005000,0.1027,0.0275,0.3542,0.370
0.013000,0.0602,-0.0460,0.4021,0.409
0.015000,-0.0026,-0.1058,0.4288,0.442
0.021000,-0.0741,-0.1208,0.4462,0.468
0.023000,-0.1306,-0.1294,0.4687,0.503
0.029000,-0.1767,-0.1195,0.4818,0.527
0.039000,-0.2051,-0.1128,0.4689,0.524
0.040000,-0.2345,-0.1019,0.4468,0.515
0.046000,-0.2628,-0.1010,0.4081,0.496
0.065000,-0.2782,-0.1006,0.3625,0.468
0.066000,-0.2880,-0.1005,0.3219,0.444
0.066000,-0.2566,-0.0985,0.2768,0.390
0.066000,-0.2081,-0.0942,0.2102,0.310
0.075000,-0.1663,-0.0734,0.1367,0.227
0.075000,-0.1436,-0.0742,0.0704,0.176
0.080000,-0.1232,-0.0727,-0.0005,0.143
0.091000,-0.1319,-0.0830,-0.0355,0.160
0.092000,-0.1626,-0.0958,-0.0418,0.193
0.094000,-0.1960,-0.1159,-0.0672,0.237
0.108000,-0.2202,-0.1290,-0.0781,0.267
0.109000,-0.2400,-0.1397,-0.1081,0.298
0.109000,-0.2506,-0.1696,-0.1286,0.329
0.127000,-0.2688,-0.1874,-0.1395,0.356
0.130000,-0.2896,-0.2121,-0.1290,0.381
0.130000,-0.3247,-0.2316,-0.0779,0.406
0.131000,-0.3788,-0.2416,0.0114,0.449
0.135000,-0.4279,-0.2372,0.0767,0.495
0.140000,-0.4696,-0.2284,0.1157,0.535
0.144000,-0.4921,-0.2173,0.1403,0.556
0.160000,-0.4882,-0.1992,0.1507,0.548
0.161000,-0.4604,-0.1766,0.1372,0.512
0.161000,-0.4208,-0.1423,0.1071,0.457
0.167000,-0.3768,-0.1177,0.0674,0.400
0.170000,-0.3307,-0.0886,0.0207,0.343
0.174000,-0.2824,-0.0548,-0.0235,0.289
0.179000,-0.2155,-0.0137,-0.0629,0.225
0.198000,-0.1561,0.0202,-0.0712,0.173
0.199000,-0.0971,0.0707,-0.0628,0.136
0.200000,-0.0505,0.1163,-0.0472,0.135
0.200000,-0.0256,0.1378,-0.0004,0.140
0.209000,-0.0126,0.1543,0.0535,0.164
0.210000,0.0102,0.1706,0.1051,0.201
0.230000,0.0237,0.1555,0.1256,0.201
0.231000,0.0400,0.1378,0.1199,0.187
0.231000,0.0276,0.0914,0.0880,0.130
0.232000,0.0130,0.0474,0.0465,0.068
0.242000,-0.0134,-0.0109,0.0099,0.020
0.242000,-0.0422,-0.0307,-0.0315,0.061
0.244000,-0.0711,-0.0551,-0.0634,0.110
0.258000,-0.0930,-0.0771,-0.0832,0.147
0.259000,-0.1105,-0.0943,-0.0982,0.175
0.259000,-0.1329,-0.1089,-0.1061,0.202
0.276000,-0.1436,-0.1140,-0.1115,0.215
0.277000,-0.1476,-0.1263,-0.0978,0.217
0.277000,-0.1446,-0.1338,-0.1009,0.221
0.280000,-0.1514,-0.1318,-0.0848,0.218
0.305000,-0.1752,-0.1298,-0.0687,0.229
0.306000,-0.1774,-0.1183,-0.0478,0.219
0.306000,-0.1746,-0.0855,-0.0436,0.199
0.306000,-0.1718,-0.0456,-0.0393,0.182
0.313000,-0.1975,-0.0513,-0.0350,0.207
0.314000,-0.2423,-0.1049,-0.0546,0.270
0.315000,-0.2489,-0.1441,-0.0885,0.301
0.325000,-0.2389,-0.1522,-0.1151,0.306
0.326000,-0.2028,-0.1435,-0.1226,0.277
0.330000,-0.1835,-0.1181,-0.1229,0.250
0.341000,-0.1641,-0.1022,-0.1399,0.239
0.342000,-0.1423,-0.0719,-0.1569,0.224
0.344000,-0.1272,-0.0583,-0.1716,0.221
0.358000,-0.1288,-0.0492,-0.1695,0.219
0.359000,-0.1205,-0.0520,-0.1938,0.234
0.360000,-0.0861,-0.0330,-0.2421,0.259
0.375000,-0.0950,-0.0138,-0.2784,0.294
0.376000,-0.0752,0.0035,-0.2909,0.300
0.377000,-0.0766,0.0093,-0.3012,0.311
0.381000,-0.0943,0.0323,-0.3140,0.329
0.407000,-0.0948,0.0654,-0.3102,0.331
0.407000,-0.0999,0.0895,-0.2852,0.315
0.408000,-0.1093,0.0950,-0.2292,0.271
0.408000,-0.1183,0.0865,-0.1568,0.215
0.408000,-0.0953,0.0760,-0.0917,0.153
0.416000,-0.0687,0.0819,-0.0408,0.114
0.417000,-0.0389,0.0904,-0.0071,0.099
0.425000,-0.0227,0.0729,0.0025,0.076
0.426000,-0.0106,0.0677,-0.0213,0.072
0.432000,-0.0049,0.0700,-0.0474,0.085
0.435000,0.0132,0.0773,-0.0473,0.092
0.440000,0.0433,0.0872,-0.0236,0.100
0.445000,0.0807,0.0972,0.0189,0.128
0.451000,0.1085,0.1095,0.0540,0.163
0.458000,0.1352,0.0986,0.1013,0.196
0.460000,0.1694,0.0947,0.1414,0.240
0.475000,0.1681,0.0859,0.1601,0.248
0.476000,0.1624,0.0744,0.1764,0.251
0.476000,0.1592,0.0457,0.1761,0.242
0.479000,0.1539,0.0169,0.1735,0.233
0.485000,0.1488,0.0021,0.1663,0.223
0.491000,0.1248,-0.0131,0.1449,0.192
0.495000,0.1033,-0.0261,0.1188,0.160
0.503000,0.0748,-0.0491,0.0976,0.132
0.505000,0.0391,-0.0555,0.0718,0.099
0.511000,0.0083,-0.0574,0.0365,0.069
0.515000,-0.0202,-0.0570,-0.0083,0.061
0.520000,-0.0535,-0.0541,-0.0578,0.095
0.524000,-0.0749,-0.0607,-0.1000,0.139
0.531000,-0.0916,-0.0624,-0.1232,0.166
0.535000,-0.1013,-0.0497,-0.1081,0.156
0.540000,-0.0989,-0.0225,-0.0667,0.121
0.544000,-0.0748,0.0141,-0.0302,0.082
0.550000,-0.0429,0.0411,-0.0294,0.066
0.555000,-0.0181,0.0608,-0.0643,0.090
0.560000,0.0044,0.0687,-0.1251,0.143
0.580000,0.0102,0.0745,-0.1998,0.213
0.582000,-0.0031,0.0880,-0.2764,0.290
0.582000,-0.0140,0.0664,-0.3337,0.340
0.582000,-0.0299,0.0646,-0.3646,0.371
0.585000,-0.0437,0.0542,-0.3622,0.369
0.591000,-0.0601,0.0326,-0.3127,0.320
0.595000,-0.0717,0.0260,-0.2423,0.254
0.601000,-0.0762,0.0055,-0.1727,0.189
0.605000,-0.0902,-0.0027,-0.0942,0.130
0.611000,-0.0922,-0.0156,-0.0093,0.094
0.625000,-0.0892,-0.0283,0.0440,0.103
0.626000,-0.1005,-0.0363,0.1278,0.167
0.628000,-0.1090,-0.0492,0.1754,0.212
0.635000,-0.0936,-0.0672,0.1848,0.218
0.636000,-0.0451,-0.0593,0.2061,0.219
0.640000,-0.0373,-0.0615,0.2179,0.229
0.645000,-0.0720,-0.0879,0.2084,0.237
0.651000,-0.1134,-0.1241,0.1398,0.219
0.655000,-0.1190,-0.1652,0.0245,0.205
0.660000,-0.1037,-0.1799,-0.0780,0.222
0.666000,-0.0795,-0.1543,-0.1368,0.221
0.671000,-0.0771,-0.1360,-0.1690,0.230
0.675000,-0.1009,-0.1084,-0.1725,0.227
0.682000,-0.1315,-0.0930,-0.1854,0.246
0.685000,-0.1691,-0.1085,-0.2029,0.286
0.691000,-0.1779,-0.1333,-0.2298,0.320
0.695000,-0.1617,-0.1469,-0.2776,0.353
0.714000,-0.1431,-0.1506,-0.3206,0.382
0.715000,-0.1292,-0.1443,-0.3565,0.406
0.715000,-0.1635,-0.1470,-0.4069,0.463
0.717000,-0.1527,-0.1349,-0.4359,0.481
0.720000,-0.1563,-0.1173,-0.4628,0.502
0.726000,-0.1789,-0.0873,-0.4802,0.520
0.734000,-0.1992,-0.0639,-0.4667,0.511
0.736000,-0.1955,-0.0422,-0.4176,0.463
0.741000,-0.1821,-0.0297,-0.3639,0.408
0.762000,-0.1589,-0.0454,-0.3392,0.377
0.765000,-0.1762,-0.0678,-0.3003,0.355
0.767000,-0.1740,-0.0826,-0.2544,0.319
0.768000,-0.1821,-0.1082,-0.2167,0.303
0.770000,-0.2043,-0.1285,-0.1912,0.308
0.771000,-0.2205,-0.1540,-0.1674,0.317
0.776000,-0.2198,-0.1768,-0.1532,0.321
0.781000,-0.1950,-0.1729,-0.1320,0.292
0.785000,-0.1629,-0.1686,-0.1205,0.264
0.791000,-0.1450,-0.1473,-0.1067,0.233
0.795000,-0.1292,-0.1258,-0.0762,0.196
0.800000,-0.1108,-0.1089,-0.0458,0.162
0.805000,-0.0993,-0.0966,-0.0132,0.139
0.811000,-0.0851,-0.0794,0.0075,0.117
0.817000,-0.0731,-0.0694,0.0233,0.103
0.821000,-0.0611,-0.0522,0.0248,0.084
0.825000,-0.0587,-0.0302,0.0455,0.080
0.834000,-0.0701,-0.0273,0.0846,0.113
0.835000,-0.1097,-0.0554,0.1188,0.171
0.842000,-0.1397,-0.0717,0.1267,0.202
0.845000,-0.1438,-0.0812,0.1275,0.209
0.852000,-0.1494,-0.0726,0.1271,0.209
0.856000,-0.1773,-0.0501,0.1195,0.220
0.862000,-0.1985,-0.0089,0.1433,0.245
0.868000,-0.2054,0.0271,0.1695,0.268
0.871000,-0.2385,0.0699,0.1742,0.304
0.876000,-0.2836,0.0978,0.2006,0.361
0.881000,-0.3235,0.1087,0.2200,0.406
0.885000,-0.3320,0.1382,0.2059,0.414
0.891000,-0.3119,0.1792,0.2208,0.422
0.895000,-0.2800,0.2146,0.2932,0.459
0.901000,-0.2504,0.2469,0.4471,0.569
0.906000,-0.2107,0.2589,0.6299,0.713
0.911000,-0.1770,0.2527,0.8177,0.874
0.921000,-0.1290,0.2617,1.0226,1.063
0.922000,-0.0612,0.2663,1.2136,1.244
0.926000,0.0409,0.2782,1.3788,1.407
0.946000,0.1158,0.2996,1.5640,1.597
0.948000,0.1689,0.2971,1.7905,1.823
0.951000,0.2658,0.3419,1.9701,2.017
0.951000,0.4057,0.3838,2.0048,2.081
0.952000,0.4639,0.3923,1.8662,1.963
0.955000,0.4356,0.3993,1.5447,1.654
0.960000,0.2356,0.3772,1.1525,1.235
0.967000,-0.0220,0.3078,0.7637,0.824
0.971000,-0.4049,0.1560,0.3661,0.568
0.976000,-0.7795,0.1903,-0.0718,0.806
0.982000,-1.7135,0.0777,-0.3755,1.756
0.986000,-2.2256,-0.0960,-0.7343,2.346
0.991000,-2.1801,-0.1984,-0.7949,2.329
0.996000,-2.4200,-0.2197,-0.7799,2.552
1.001000,-2.3044,-0.2794,-0.8568,2.474
1.006000,-2.2470,-0.4281,-1.0109,2.501
1.012000,-1.7201,-0.4553,-1.8068,2.536
1.023000,-1.5279,-0.3988,-2.0776,2.610
1.024000,-1.7497,-0.3325,-1.6324,2.416
1.026000,-1.9301,-0.3336,-1.4374,2.430
1.046000,-1.7686,-0.3043,-2.0735,2.742
1.048000,-1.7260,-0.2398,-2.4309,2.991
1.049000,-1.7974,-0.1132,-2.3615,2.970
1.049000,-1.7366,0.0522,-2.1407,2.757
1.051000,-1.6714,0.1224,-1.8828,2.521
1.058000,-1.5910,0.1001,-1.6382,2.286
1.061000,-1.4978,0.0375,-1.3348,2.007
1.066000,-1.2896,-0.0301,-0.9678,1.613
1.071000,-1.0190,-0.1060,-0.5536,1.165
1.076000,-0.7288,-0.1813,-0.0323,0.752
1.081000,-0.3297,-0.2911,0.3766,0.579
1.086000,0.1943,-0.3645,0.6734,0.790
1.091000,0.7134,-0.4262,0.9112,1.233
1.097000,1.2043,-0.5052,0.9656,1.624
1.103000,1.6525,-0.5871,0.8728,1.959
1.106000,1.9526,-0.6861,0.6425,2.167
1.111000,2.1335,-0.7581,0.3174,2.286
1.124000,2.1350,-0.8119,-0.0451,2.285
1.127000,2.1099,-0.7916,-0.4071,2.290
1.127000,2.0102,-0.6797,-0.7522,2.251
1.159000,1.7786,-0.5765,-0.9656,2.104
1.160000,1.5687,-0.4696,-1.0859,1.965
1.161000,1.4211,-0.3473,-1.1561,1.865
1.162000,1.3980,-0.1975,-1.2386,1.878
1.163000,1.4371,-0.0246,-1.3956,2.003
1.163000,1.4823,0.1646,-1.6177,2.200
1.164000,1.5259,0.3728,-1.8210,2.405
1.168000,1.5897,0.6100,-1.9318,2.575
1.172000,1.6643,0.8214,-1.9835,2.716
1.176000,1.7596,0.9735,-1.9451,2.798
1.183000,1.8634,1.0592,-1.8238,2.814
1.186000,2.0194,1.1183,-1.6434,2.834
1.191000,2.1681,1.0958,-1.3584,2.783
1.196000,2.4066,1.0893,-0.9615,2.811
1.202000,2.6265,1.0547,-0.5554,2.884
1.206000,2.7642,0.9914,-0.1662,2.941
1.211000,2.9066,0.9529,0.1515,3.063
1.216000,3.0206,0.9220,0.3717,3.180
1.221000,3.0535,0.8692,0.4682,3.209
1.226000,3.0049,0.8065,0.4149,3.139
1.237000,2.8909,0.7195,0.2287,2.988
1.238000,2.7340,0.6347,-0.0736,2.808
1.241000,2.5830,0.5642,-0.4537,2.683
1.262000,2.3190,0.4776,-0.7923,2.497
1.264000,2.0277,0.4428,-1.1110,2.354
1.266000,1.7934,0.4276,-1.4079,2.320
1.267000,1.5651,0.3865,-1.7768,2.399
1.268000,1.3746,0.3608,-2.1722,2.596
1.272000,1.2036,0.3662,-2.3335,2.651
1.277000,1.0550,0.4132,-2.2558,2.524
1.282000,0.9724,0.4651,-2.1210,2.379
1.287000,0.9773,0.5071,-2.0056,2.288
1.292000,1.0240,0.5150,-1.8806,2.202
1.300000,1.0667,0.4788,-1.7103,2.072
1.302000,1.0746,0.4053,-1.5254,1.909
1.307000,1.0555,0.3062,-1.3763,1.761
1.311000,1.0214,0.1864,-1.2843,1.651
1.316000,0.9663,0.0627,-1.2420,1.575
1.321000,0.9121,-0.0547,-1.2448,1.544
1.326000,0.8332,-0.1415,-1.2806,1.534
1.331000,0.7352,-0.2280,-1.3519,1.556
1.336000,0.6469,-0.2991,-1.4516,1.617
1.341000,0.5479,-0.3591,-1.5582,1.690
1.355000,0.4622,-0.3979,-1.6790,1.786
1.356000,0.3688,-0.4318,-1.8043,1.892
1.357000,0.2917,-0.4625,-1.9368,2.013
1.362000,0.1829,-0.4636,-2.0477,2.107
1.385000,0.0461,-0.4439,-2.0605,2.108
1.387000,-0.1016,-0.4065,-1.9177,1.963
1.387000,-0.2028,-0.3565,-1.6506,1.701
1.387000,-0.2572,-0.3020,-1.2974,1.357
1.388000,-0.2787,-0.2778,-0.9153,0.996
1.393000,-0.2743,-0.2749,-0.5569,0.679
1.399000,-0.2452,-0.2778,-0.2554,0.450
1.402000,-0.2059,-0.3133,-0.0325,0.376
1.407000,-0.1846,-0.3336,0.1050,0.395
1.411000,-0.1811,-0.3411,0.1760,0.424
1.417000,-0.2002,-0.3401,0.2045,0.444
1.422000,-0.2265,-0.3212,0.1832,0.434
1.426000,-0.2845,-0.2742,0.1241,0.414
1.432000,-0.3403,-0.2105,0.0414,0.402
1.437000,-0.3845,-0.1415,-0.0698,0.416
1.442000,-0.4028,-0.0590,-0.2096,0.458
1.447000,-0.3993,0.0299,-0.3421,0.527
1.455000,-0.4033,0.1067,-0.4698,0.628
1.457000,-0.4007,0.1983,-0.5521,0.710
1.462000,-0.4012,0.2880,-0.5578,0.745
1.482000,-0.4097,0.3617,-0.4991,0.740
1.483000,-0.4100,0.4143,-0.3639,0.687
1.483000,-0.4446,0.4160,-0.1737,0.633
1.484000,-0.4830,0.4099,0.0380,0.635
1.488000,-0.5132,0.3761,0.2807,0.695
1.492000,-0.5382,0.3450,0.5499,0.843
1.500000,-0.5535,0.3184,0.7715,1.002
1.502000,-0.5443,0.3219,0.9025,1.102
1.508000,-0.5344,0.3419,0.9786,1.166
1.512000,-0.5355,0.3644,1.0669,1.248
1.517000,-0.5567,0.3778,1.1554,1.337
1.522000,-0.6171,0.3804,1.2605,1.454
1.527000,-0.6894,0.3764,1.3703,1.580
1.532000,-0.7234,0.3523,1.5062,1.708
1.537000,-0.6966,0.3346,1.6465,1.819
1.542000,-0.6190,0.3084,1.8581,1.983
1.550000,-0.4885,0.3091,2.1218,2.199
1.552000,-0.3052,0.3370,2.4210,2.463
1.557000,-0.1586,0.3884,2.7173,2.750
1.563000,-0.0514,0.4338,2.9726,3.005
1.568000,-0.0197,0.4532,3.1797,3.212
1.572000,-0.0714,0.4557,3.3339,3.366
1.577000,-0.1736,0.4484,3.4666,3.500
1.590000,-0.2929,0.4329,3.5417,3.580
1.594000,-0.4177,0.4025,3.5356,3.583
1.594000,-0.5149,0.3598,3.4938,3.550
1.612000,-0.5942,0.3076,3.4139,3.479
1.613000,-0.6703,0.2369,3.3320,3.407
1.614000,-0.7404,0.1573,3.2623,3.349
1.614000,-0.8022,0.0763,3.2240,3.323
1.617000,-0.8933,0.0038,3.2120,3.334
1.622000,-0.9679,-0.0553,3.1976,3.341
1.627000,-1.0351,-0.1055,3.1544,3.322
1.633000,-1.0947,-0.1444,3.0775,3.270
1.641000,-1.1563,-0.1691,2.9933,3.213
1.642000,-1.2028,-0.1868,2.8993,3.144
1.649000,-1.2414,-0.1781,2.7861,3.055
1.652000,-1.2696,-0.1648,2.6512,2.944
1.657000,-1.2994,-0.1417,2.5018,2.823
1.662000,-1.3308,-0.0968,2.3476,2.700
1.667000,-1.3566,-0.0398,2.1717,2.561
1.672000,-1.3627,0.0153,1.9816,2.405
1.677000,-1.3660,0.0730,1.7748,2.241
1.689000,-1.3762,0.1286,1.5586,2.083
1.691000,-1.3764,0.1896,1.3354,1.927
1.693000,-1.3764,0.2369,1.1030,1.780
1.716000,-1.3740,0.2826,0.8684,1.650
1.717000,-1.3930,0.3125,0.6366,1.563
1.718000,-1.4291,0.3459,0.4125,1.527
1.718000,-1.4748,0.3928,0.1984,1.539
1.718000,-1.4947,0.4295,-0.0176,1.555
1.722000,-1.5150,0.4657,-0.2210,1.600
1.727000,-1.5121,0.5039,-0.4071,1.645
1.733000,-1.5029,0.5371,-0.5662,1.693
1.737000,-1.4778,0.5873,-0.7151,1.744
1.742000,-1.4583,0.6377,-0.8753,1.816
1.749000,-1.4518,0.6717,-1.0133,1.894
1.752000,-1.4439,0.7040,-1.1459,1.973
1.757000,-1.4323,0.7271,-1.2706,2.048
1.766000,-1.4144,0.7419,-1.3755,2.108
1.767000,-1.3928,0.7505,-1.4679,2.158
1.772000,-1.3508,0.7602,-1.5190,2.170
1.777000,-1.3267,0.7732,-1.5623,2.191
1.783000,-1.3035,0.7752,-1.5883,2.196
1.788000,-1.2744,0.7682,-1.5946,2.181
1.792000,-1.2580,0.7430,-1.5933,2.162
1.806000,-1.2425,0.7208,-1.5939,2.146
1.807000,-1.2303,0.6990,-1.5845,2.124
1.808000,-1.2188,0.6705,-1.5746,2.101
1.814000,-1.2036,0.6158,-1.5666,2.069
1.831000,-1.2008,0.5591,-1.5463,2.036
1.832000,-1.2011,0.5097,-1.5159,2.000
1.832000,-1.1851,0.4602,-1.4661,1.941
1.833000,-1.1908,0.4128,-1.4255,1.903
1.838000,-1.2160,0.3624,-1.3823,1.876
1.842000,-1.2503,0.3044,-1.3580,1.871
1.848000,-1.3324,0.2628,-1.3671,1.927
1.853000,-1.4336,0.2231,-1.3805,2.003
1.857000,-1.5443,0.1973,-1.4248,2.110
1.863000,-1.6790,0.1496,-1.5068,2.261
1.869000,-1.8232,0.1310,-1.6244,2.445
1.873000,-1.9533,0.1178,-1.7653,2.635
1.877000,-2.0627,0.0913,-1.9270,2.824
1.890000,-2.1518,0.0685,-2.1045,3.011
1.894000,-2.1875,0.0524,-2.2976,3.173
1.896000,-2.1659,0.0597,-2.4989,3.307
1.916000,-2.0770,0.0745,-2.6918,3.401
1.917000,-1.9525,0.1112,-2.8833,3.484
1.918000,-1.8088,0.1486,-3.0281,3.530
1.918000,-1.5883,0.1917,-3.1526,3.535
1.919000,-1.3125,0.2595,-3.2761,3.539
1.923000,-1.0117,0.3234,-3.3917,3.554
1.927000,-0.6791,0.3740,-3.5472,3.631
1.933000,-0.3479,0.4209,-3.7042,3.744
1.938000,-0.0300,0.4593,-3.8700,3.897
1.943000,0.2479,0.4917,-4.0276,4.065
1.949000,0.4769,0.4988,-4.1414,4.199
1.953000,0.6617,0.4618,-4.2257,4.302
1.958000,0.7858,0.3738,-4.2997,4.387
1.966000,0.8420,0.2210,-4.3681,4.454
1.968000,0.8491,0.0639,-4.3806,4.463
1.973000,0.8131,-0.0929,-4.2994,4.377
1.977000,0.7723,-0.2394,-4.0863,4.166
1.984000,0.7224,-0.3210,-3.7824,3.864
1.988000,0.7049,-0.3647,-3.4217,3.513
1.993000,0.7184,-0.3973,-3.0118,3.122
2.006000,0.7369,-0.4146,-2.5675,2.703
2.008000,0.7482,-0.4207,-2.1257,2.292
2.009000,0.7211,-0.4041,-1.7417,1.928
2.032000,0.6320,-0.3849,-1.4441,1.623
2.033000,0.5071,-0.3854,-1.2831,1.433
2.034000,0.3675,-0.3866,-1.2416,1.351
2.034000,0.2081,-0.3847,-1.3072,1.378
2.035000,0.0232,-0.4031,-1.4435,1.499
2.039000,-0.1115,-0.4587,-1.6571,1.723
2.043000,-0.1512,-0.5342,-1.9451,2.023
2.049000,-0.0682,-0.6143,-2.3474,2.427
2.053000,0.1321,-0.6823,-2.7920,2.877
2.058000,0.4320,-0.6868,-3.2231,3.324
2.063000,0.7954,-0.6253,-3.5545,3.696
2.070000,1.1767,-0.5147,-3.7792,3.991
2.075000,1.5378,-0.3840,-3.8997,4.210
2.078000,1.8578,-0.3014,-3.9573,4.382
2.083000,2.1011,-0.2548,-4.0023,4.527
2.088000,2.2653,-0.2297,-4.0419,4.639
2.093000,2.3625,-0.2188,-4.0786,4.718
2.099000,2.3813,-0.2197,-4.0623,4.714
2.102000,2.3363,-0.2392,-3.9982,4.637
2.108000,2.2620,-0.2781,-3.8988,4.516
2.113000,2.1628,-0.3246,-3.7739,4.362
2.122000,2.0673,-0.3696,-3.7019,4.256
2.123000,1.9792,-0.4136,-3.7374,4.249
2.128000,1.8734,-0.4854,-3.8864,4.342
2.146000,1.7558,-0.6096,-4.1480,4.545
2.147000,1.6180,-0.7522,-4.5017,4.842
2.148000,1.4327,-0.9059,-4.8845,5.170
2.149000,1.2354,-1.0771,-5.2503,5.500
2.155000,1.0593,-1.2480,-5.5987,5.833
2.160000,0.9171,-1.4278,-5.9585,6.195
2.166000,0.7874,-1.6413,-6.3366,6.593
2.168000,0.6825,-1.8751,-6.6898,6.981
2.174000,0.5911,-2.1211,-6.9703,7.310
2.178000,0.5282,-2.3493,-7.1230,7.519
2.184000,0.5100,-2.5531,-7.1474,7.607
2.189000,0.5182,-2.7416,-7.0773,7.607
2.193000,0.5657,-2.8980,-6.9612,7.562
2.199000,0.6503,-3.0371,-6.8377,7.510
2.203000,0.7648,-3.1446,-6.7039,7.444
2.209000,0.8392,-3.2107,-6.5302,7.325
2.213000,1.0435,-3.2561,-6.3552,7.217
2.221000,1.3407,-3.3099,-6.1752,7.133
2.223000,1.6005,-3.4113,-5.9390,7.034
2.229000,1.7845,-3.5898,-5.6365,6.917
2.247000,1.8665,-3.8359,-5.2171,6.739
2.250000,1.8597,-4.1224,-4.6636,6.496
2.251000,1.7646,-4.4354,-3.9667,6.207
2.251000,1.5793,-4.7441,-3.1725,5.922
2.256000,1.2999,-5.0372,-2.2943,5.686
2.258000,0.9628,-5.2570,-1.4015,5.525
2.266000,0.5912,-5.4170,-0.5261,5.474
2.269000,0.2188,-5.5091,0.3199,5.523
2.274000,-0.0964,-5.5098,1.1332,5.626
2.278000,-0.2922,-5.4241,1.8962,5.753
2.284000,-0.2088,-5.1060,2.5496,5.711
2.289000,-0.0384,-4.8686,3.2188,5.837
2.293000,0.1959,-4.7690,3.6964,6.037
2.299000,0.4351,-4.7087,3.9230,6.144
2.304000,0.5626,-4.6991,3.8666,6.111
2.309000,0.6552,-4.6266,3.6610,5.936
2.314000,0.8567,-4.3635,3.4598,5.634
2.319000,1.1879,-3.9494,3.1807,5.208
2.324000,1.4606,-3.5807,2.7588,4.750
2.329000,1.5490,-3.3963,2.1800,4.323
2.339000,1.4686,-3.3982,1.5336,4.007
2.340000,1.3027,-3.4966,1.0018,3.864
2.344000,1.0989,-3.5888,0.6181,3.804
2.362000,0.8840,-3.6447,0.3313,3.765
2.364000,0.6821,-3.6661,0.1917,3.734
2.365000,0.5200,-3.6768,0.2065,3.719
2.365000,0.5319,-3.6715,0.3685,3.728
2.369000,0.4090,-3.6442,0.6617,3.726
2.374000,0.4598,-3.5877,1.0534,3.767
2.378000,0.5692,-3.5217,1.5264,3.880
2.384000,0.6915,-3.4708,2.0083,4.069
2.389000,0.8029,-3.3943,2.4486,4.262
2.394000,0.8915,-3.2884,2.8620,4.450
2.400000,0.9576,-3.1625,3.2865,4.660
2.403000,1.0489,-2.9978,3.7545,4.918
2.409000,1.1654,-2.7945,4.2221,5.196
2.415000,1.3024,-2.5744,4.6163,5.444
2.419000,1.2907,-2.4539,4.8407,5.578
2.424000,1.2353,-2.4170,4.9178,5.617
2.428000,1.3279,-2.2454,5.2423,5.855
2.438000,1.2095,-2.1858,5.6277,6.157
2.445000,1.0283,-2.1302,5.7520,6.219
2.447000,0.9641,-1.9483,5.6943,6.095
2.463000,0.8653,-1.7439,5.4694,5.806
2.465000,0.7396,-1.5495,5.1842,5.461
2.466000,0.6490,-1.3674,4.9046,5.133
2.466000,0.6627,-1.1643,4.6023,4.793
2.470000,0.7352,-1.0066,4.3019,4.479
2.474000,0.8563,-0.8951,4.0563,4.241
2.480000,1.0407,-0.7550,3.9398,4.144
2.485000,1.2617,-0.5653,3.9471,4.182
2.489000,1.4782,-0.3457,4.0128,4.290
2.494000,1.6421,-0.1322,4.1178,4.435
2.501000,1.7959,0.1272,4.2589,4.624
2.504000,1.9418,0.3845,4.4099,4.834
2.509000,2.0366,0.6299,4.5371,5.013
2.517000,2.0775,0.8465,4.6595,5.171
2.520000,2.0909,1.0440,4.7195,5.266
2.525000,2.0915,1.2347,4.7726,5.355
2.528000,2.1073,1.4182,4.7752,5.409
2.534000,2.1266,1.5779,4.7179,5.410
2.540000,2.1566,1.7164,4.6846,5.435
2.545000,2.1661,1.8289,4.6582,5.453
2.551000,2.1651,1.9447,4.6459,5.482
2.554000,2.1580,2.0320,4.6852,5.544
2.559000,2.1546,2.0820,4.7184,5.589
2.579000,2.1408,2.1256,4.7384,5.617
2.581000,2.1187,2.1605,4.7426,5.626
2.582000,2.0719,2.1798,4.7002,5.580
2.583000,1.9713,2.1951,4.5995,5.464
2.585000,1.7865,2.1352,4.5010,5.292
2.590000,1.5756,2.0200,4.4144,5.104
2.594000,1.3991,1.9144,4.3466,4.951
2.599000,1.2502,1.8378,4.2329,4.781
2.604000,1.1091,1.8306,4.0571,4.587
2.609000,1.0047,1.8831,3.8486,4.401
2.616000,0.9896,1.9858,3.5722,4.205
2.620000,1.3502,2.2342,2.6443,3.716
2.624000,1.3286,2.4215,2.7395,3.890
2.629000,0.9264,2.3855,3.2427,4.131
2.636000,0.4945,2.1894,3.7088,4.335
2.639000,0.3173,1.9494,3.9385,4.406
2.644000,0.4476,1.7831,3.9417,4.349
2.656000,0.7335,1.7399,3.8868,4.321
2.658000,0.9852,1.7666,3.8667,4.364
2.660000,1.1417,1.7808,3.8386,4.383
2.685000,1.2226,1.6512,3.8261,4.343
2.687000,1.3171,1.3710,3.7910,4.241
2.687000,1.6310,1.1678,3.7530,4.255
2.688000,1.9581,0.9431,3.7476,4.332
2.688000,2.3023,0.6486,3.7417,4.441
2.691000,2.6494,0.2890,3.6964,4.557
2.695000,2.9799,-0.0809,3.5878,4.665
2.700000,3.2390,-0.4514,3.3494,4.681
2.704000,3.4460,-0.7650,3.0705,4.678
2.710000,3.6686,-1.0261,2.8139,4.736
2.716000,4.0880,-1.2445,2.5596,4.981
2.719000,4.6006,-1.4012,2.2414,5.306
2.724000,4.9138,-1.5323,1.9867,5.517
2.732000,5.3071,-1.7433,1.6288,5.819
2.735000,5.7557,-2.0482,1.1382,6.214
2.739000,6.2337,-2.4355,0.6704,6.726
2.744000,6.7645,-2.8044,0.2813,7.328
2.749000,7.2128,-3.0954,0.0337,7.849
2.755000,7.5015,-3.2990,-0.1389,8.196
2.759000,7.6330,-3.2813,-0.1884,8.311
2.772000,7.2673,-2.9303,0.2174,7.839
2.774000,6.4806,-2.3251,1.0206,6.960
2.777000,5.6700,-1.5950,1.8713,6.180
2.780000,5.1135,-0.8355,2.6603,5.824
2.802000,4.9016,-0.1264,3.3837,5.957
2.804000,4.9700,0.5173,4.0286,6.419
2.804000,5.1689,1.0204,4.6034,6.996
2.805000,5.4445,1.3846,5.0497,7.554
2.805000,5.7431,1.5569,5.2996,7.968
2.810000,6.0715,1.5608,5.3508,8.242
2.816000,6.4864,1.4919,5.2416,8.472
2.821000,6.8939,1.3786,5.0039,8.629
2.825000,7.2049,1.1965,4.6647,8.666
2.830000,7.3619,0.9457,4.2535,8.555
2.835000,7.3580,0.6450,3.7760,8.295
2.840000,7.2219,0.3041,3.2740,7.935
2.845000,6.9984,-0.0475,2.7705,7.527
2.855000,6.6922,-0.3837,2.2901,7.084
2.856000,6.3328,-0.6993,1.8196,6.626
2.860000,5.9186,-0.9703,1.3647,6.151
2.881000,5.4591,-1.2161,0.9403,5.671
2.882000,4.9998,-1.4375,0.5500,5.231
2.883000,4.6218,-1.6348,0.1612,4.905
2.884000,4.1628,-1.7862,-0.1466,4.532
2.885000,3.6574,-1.9225,-0.3609,4.148
2.891000,3.1869,-2.0557,-0.5582,3.833
2.894000,2.7752,-2.1867,-0.7357,3.609
2.901000,2.4197,-2.3228,-0.8718,3.466
2.905000,2.0779,-2.4829,-0.9375,3.371
2.911000,1.7600,-2.6977,-0.9452,3.357
2.915000,1.4334,-2.9356,-0.8881,3.385
2.920000,1.0935,-3.1515,-0.7573,3.421
2.925000,0.7569,-3.3556,-0.6070,3.493
2.932000,0.4304,-3.4936,-0.4327,3.547
2.935000,0.0834,-3.5772,-0.2327,3.586
2.940000,-0.2981,-3.6375,-0.0222,3.650
2.945000,-0.6882,-3.6822,0.1960,3.751
2.950000,-1.0777,-3.6903,0.3942,3.865
2.955000,-1.4386,-3.6793,0.6081,3.997
2.960000,-1.7683,-3.6704,0.8225,4.156
2.973000,-2.0788,-3.6588,1.0250,4.331
2.975000,-2.3779,-3.6618,1.2225,4.534
2.976000,-2.6498,-3.6632,1.3923,4.731
3.005000,-2.9073,-3.6615,1.5179,4.916
3.007000,-3.1531,-3.6517,1.6204,5.089
3.007000,-3.3799,-3.6386,1.7164,5.254
3.008000,-3.6075,-3.6276,1.7772,5.416
3.008000,-3.8277,-3.6287,1.8255,5.581
3.009000,-4.0244,-3.6355,1.8588,5.733
3.011000,-4.2262,-3.6550,1.8792,5.895
3.015000,-4.4310,-3.6487,1.8817,6.040
3.021000,-4.6292,-3.6117,1.8421,6.154
3.026000,-4.8215,-3.5711,1.7800,6.258
3.033000,-5.0025,-3.5348,1.6782,6.351
3.035000,-5.1799,-3.5035,1.5350,6.439
3.040000,-5.3419,-3.4602,1.3623,6.509
3.045000,-5.4839,-3.4360,1.1869,6.579
3.051000,-5.6208,-3.4337,1.0162,6.664
3.055000,-5.7638,-3.4303,0.8239,6.758
3.060000,-5.8944,-3.4262,0.6125,6.845
3.070000,-6.0247,-3.4311,0.3824,6.944
3.071000,-6.1548,-3.3850,0.1624,7.026
3.075000,-6.2801,-3.3243,-0.0565,7.106
3.080000,-6.4221,-3.2695,-0.2886,7.212
3.092000,-6.5643,-3.2160,-0.5190,7.328
3.093000,-6.6923,-3.1710,-0.7451,7.443
3.095000,-6.7943,-3.1295,-0.9621,7.542
3.101000,-6.7989,-3.1037,-1.2033,7.570
3.105000,-6.7251,-3.1194,-1.4683,7.557
3.111000,-6.7576,-3.1507,-1.6066,7.627
3.115000,-6.8506,-3.2144,-1.7120,7.759
3.121000,-6.9516,-3.2550,-1.8566,7.897
3.126000,-7.0197,-3.2819,-2.0278,8.010
3.131000,-7.0315,-3.3263,-2.2064,8.085
3.135000,-6.9819,-3.3709,-2.3680,8.107
3.141000,-6.8619,-3.4069,-2.5271,8.067
3.146000,-6.7363,-3.4968,-2.6929,8.053
3.152000,-6.5859,-3.6646,-2.8104,8.044
3.156000,-6.5711,-3.9368,-2.8294,8.166
3.161000,-6.8038,-4.2571,-2.6844,8.463
3.168000,-7.2211,-4.6508,-2.4793,8.940
3.172000,-7.7266,-5.1159,-2.2196,9.529
3.176000,-8.2192,-5.6003,-1.9020,10.126
3.182000,-8.6743,-6.0785,-1.5879,10.710
3.185000,-8.7330,-6.0643,-1.2924,10.710
3.191000,-8.7117,-5.9571,-0.9629,10.598
3.195000,-9.0862,-6.2517,-0.6871,11.051
3.207000,-9.5808,-6.6809,-0.5204,11.692
3.209000,-10.0845,-7.1231,-0.5310,12.358
3.216000,-10.4273,-7.4295,-0.5978,12.817
3.218000,-10.5081,-7.5083,-0.6223,12.930
3.243000,-10.3245,-7.3769,-0.6264,12.705
3.246000,-9.8955,-7.1801,-0.6630,12.244
3.247000,-9.2718,-6.9796,-0.7819,11.632
3.250000,-8.5493,-6.7598,-0.9894,10.944
3.253000,-7.7769,-6.5148,-1.1733,10.213
3.253000,-6.9667,-6.2167,-1.2639,9.422
3.254000,-6.0903,-5.8622,-1.2615,8.547
3.255000,-5.1459,-5.4486,-1.2019,7.590
3.260000,-4.1698,-5.0031,-1.1307,6.610
3.266000,-3.1975,-4.5727,-1.0786,5.683
3.271000,-2.2556,-4.1844,-1.0480,4.868
3.276000,-1.4292,-3.8542,-1.0458,4.242
3.283000,-0.7597,-3.5832,-1.0572,3.812
3.286000,-0.2519,-3.3565,-1.0658,3.531
3.291000,0.1049,-3.1713,-1.1002,3.358
3.295000,0.2989,-3.0171,-1.1869,3.256
3.305000,0.3446,-2.8886,-1.3112,3.191
3.307000,0.2684,-2.7948,-1.4248,3.149
3.311000,0.1594,-2.7489,-1.5993,3.184
3.339000,0.0456,-2.7657,-1.8222,3.312
3.341000,-0.0150,-2.8941,-2.0858,3.567
3.341000,-0.0703,-3.1597,-2.3294,3.926
3.342000,-0.0864,-3.4922,-2.5001,4.296
3.342000,-0.0725,-3.8576,-2.6003,4.653
3.343000,-0.0686,-4.2238,-2.6298,4.976
3.345000,-0.1136,-4.5723,-2.5792,5.251
3.350000,-0.2088,-4.8926,-2.4195,5.462
3.356000,-0.3179,-5.1580,-2.1677,5.604
3.362000,-0.4523,-5.3467,-1.8456,5.674
3.368000,-0.6182,-5.4485,-1.4460,5.671
3.371000,-0.7609,-5.5023,-1.0128,5.646
3.376000,-0.8721,-5.5075,-0.5245,5.601
3.381000,-0.9252,-5.4926,0.0515,5.570
3.386000,-0.8956,-5.4577,0.6400,5.568
3.391000,-0.8018,-5.4476,1.2091,5.638
3.395000,-0.6537,-5.4681,1.7471,5.778
3.404000,-0.4793,-5.5138,2.2511,5.975
3.406000,-0.2826,-5.5651,2.7314,6.206
3.411000,-0.0034,-5.5886,3.1389,6.410
3.435000,0.3425,-5.5574,3.4471,6.549
3.436000,0.7467,-5.4585,3.6784,6.624
3.437000,1.1661,-5.2871,3.8521,6.645
3.437000,1.5769,-5.0987,4.0876,6.723
3.438000,2.1269,-4.8148,4.2290,6.752
3.441000,2.8325,-4.4335,4.1261,6.686
3.449000,3.5687,-4.0332,3.8367,6.612
3.452000,4.2276,-3.6716,3.5535,6.632
3.456000,4.8732,-3.3752,3.3246,6.797
3.461000,5.5405,-3.1445,3.1768,7.119
3.466000,6.1841,-2.9218,3.1367,7.525
3.471000,6.7799,-2.7157,3.1604,7.958
3.476000,7.3018,-2.4921,3.2165,8.359
3.482000,7.7423,-2.2416,3.2541,8.692
3.486000,8.1395,-1.9593,3.2732,8.989
3.491000,8.5168,-1.6237,3.2831,9.271
3.496000,8.8674,-1.2633,3.2552,9.530
3.501000,9.1961,-0.8524,3.2228,9.782
3.506000,9.5197,-0.4173,3.1666,10.041
3.511000,9.8326,0.0612,3.0965,10.309
3.521000,10.1194,0.5590,3.0104,10.572
3.522000,10.3752,1.0357,2.9249,10.829
3.527000,10.5932,1.4884,2.8164,11.062
3.552000,10.7637,1.8768,2.7114,11.258
3.554000,10.8720,2.2202,2.5886,11.394
3.555000,10.8936,2.5259,2.4579,11.450
3.555000,10.8216,2.7964,2.2979,11.411
3.556000,10.6540,3.0131,2.1326,11.275
3.556000,10.3811,3.1808,1.9461,11.031
3.563000,10.0255,3.3191,1.7504,10.705
3.568000,9.5998,3.4426,1.5361,10.313
3.573000,9.1263,3.5659,1.3442,9.890
3.577000,8.6369,3.6771,1.1579,9.458
3.581000,8.1202,3.7647,0.9802,9.004
3.586000,7.5914,3.8264,0.8110,8.540
3.591000,7.0872,3.8673,0.6551,8.100
3.597000,6.6009,3.8851,0.5103,7.676
3.602000,6.1403,3.8967,0.3738,7.282
3.606000,5.7155,3.9095,0.2319,6.929
3.611000,5.3412,3.9235,0.0823,6.628
3.626000,5.0081,3.9532,-0.0677,6.381
3.627000,4.7068,3.9891,-0.2202,6.174
3.628000,4.4348,4.0071,-0.3636,5.988
3.635000,4.2022,4.0243,-0.5066,5.840
3.637000,4.0087,4.0166,-0.6469,5.712
3.642000,3.8258,3.9960,-0.7843,5.587
3.647000,3.6581,3.9483,-0.9520,5.466
3.652000,3.4890,3.8830,-1.1378,5.343
3.657000,3.3208,3.8121,-1.3367,5.229
3.662000,3.1564,3.7646,-1.5167,5.142
3.666000,3.0030,3.7212,-1.6779,5.068
3.671000,2.8462,3.6917,-1.8203,5.004
3.676000,2.7220,3.6449,-1.9627,4.954
3.682000,2.7520,3.5975,-2.1313,5.006
3.686000,2.6611,3.5354,-2.2847,4.980
3.691000,2.4806,3.4704,-2.3896,4.889
3.699000,2.2325,3.4051,-2.4579,4.756
3.702000,1.9533,3.3398,-2.5065,4.610
3.707000,1.6909,3.2984,-2.5571,4.503
3.712000,1.4510,3.2907,-2.6093,4.443
3.717000,1.2452,3.3074,-2.6462,4.415
3.722000,1.0928,3.3481,-2.6512,4.408
3.727000,0.9792,3.3988,-2.6075,4.394
3.738000,0.8993,3.4662,-2.5490,4.396
3.740000,0.8366,3.5099,-2.4591,4.366
3.741000,0.8052,3.5488,-2.3572,4.336
3.748000,0.7834,3.5759,-2.2318,4.287
3.769000,0.7688,3.5884,-2.0974,4.227
3.770000,0.7900,3.5890,-1.9639,4.167
3.771000,0.8347,3.5629,-1.8459,4.099
3.772000,0.9032,3.5248,-1.7342,4.031
3.772000,0.9640,3.4409,-1.6264,3.926
3.777000,1.0170,3.3614,-1.5515,3.839
3.782000,1.0312,3.2552,-1.4882,3.725
3.786000,1.0109,3.1628,-1.4505,3.623
3.792000,0.9569,3.0844,-1.4243,3.530
3.797000,0.8783,2.9936,-1.4023,3.420
3.802000,0.7467,2.8951,-1.3628,3.286
3.807000,0.5647,2.7843,-1.3252,3.135
3.812000,0.4019,2.6709,-1.2843,2.991
3.822000,0.2636,2.5863,-1.2550,2.887
3.824000,0.2070,2.5159,-1.2680,2.825
3.827000,0.1913,2.4144,-1.3016,2.750
3.853000,0.2260,2.2793,-1.3101,2.639
3.854000,0.3064,2.1491,-1.2720,2.516
3.854000,0.4294,2.0305,-1.1802,2.388
3.855000,0.5836,1.9311,-1.0759,2.286
3.856000,0.7206,1.8192,-0.9497,2.175
3.857000,0.8643,1.7309,-0.8284,2.105
3.862000,0.9859,1.6539,-0.7167,2.055
3.867000,1.0805,1.5738,-0.5790,1.995
3.872000,1.1606,1.5101,-0.4565,1.959
3.877000,1.2189,1.4554,-0.3635,1.933
3.882000,1.2723,1.4168,-0.2855,1.926
3.887000,1.3518,1.3802,-0.2346,1.946
3.892000,1.4545,1.3403,-0.2272,1.991
3.899000,1.5761,1.2472,-0.2632,2.027
3.902000,1.7162,1.0746,-0.3012,2.047
3.907000,1.8746,0.8487,-0.3316,2.084
3.912000,2.0775,0.5956,-0.3592,2.191
3.917000,2.2976,0.3364,-0.3863,2.354
3.922000,2.4874,0.0784,-0.3772,2.517
3.927000,2.6008,-0.1839,-0.3248,2.627
3.939000,2.6258,-0.4625,-0.2245,2.676
3.941000,2.6081,-0.7479,-0.1244,2.716
3.942000,2.5810,-1.0618,-0.0530,2.791
3.980000,2.6026,-1.4491,-0.0250,2.979
3.984000,2.6749,-1.9316,-0.0400,3.300
3.985000,2.7736,-2.5001,-0.0856,3.735
3.985000,2.8699,-3.1403,-0.1400,4.256
3.986000,2.8993,-3.8185,-0.1456,4.797
3.987000,2.8020,-4.4752,-0.0713,5.281
3.988000,2.5609,-5.0613,0.0580,5.673
3.989000,2.1980,-5.5477,0.2133,5.971
3.990000,1.7480,-5.9003,0.3895,6.166
3.992000,1.2716,-6.1351,0.5384,6.289
3.999000,0.8096,-6.2496,0.6509,6.335
4.003000,0.4041,-6.2451,0.7269,6.300
4.007000,0.0809,-6.1384,0.7862,6.189
4.012000,-0.1410,-5.9489,0.8674,6.013
4.017000,-0.2641,-5.7196,0.9565,5.805
4.022000,-0.2798,-5.4894,1.0345,5.593
4.027000,-0.1974,-5.2650,1.1276,5.388
4.032000,-0.0251,-5.0905,1.2193,5.235
4.037000,0.2005,-4.9998,1.3044,5.171
4.042000,0.4528,-4.9455,1.3686,5.151
4.049000,0.6829,-4.9116,1.4141,5.157
4.052000,0.8961,-4.8787,1.4309,5.163
4.057000,1.0652,-4.8765,1.4334,5.193
4.062000,1.1639,-4.9194,1.4571,5.261
4.074000,1.1971,-4.9932,1.4706,5.341
4.075000,1.1601,-5.0810,1.4855,5.419
4.077000,1.0553,-5.1639,1.4804,5.475
4.104000,0.8597,-5.2434,1.4647,5.512
4.105000,0.5807,-5.3145,1.4172,5.531
4.105000,0.2236,-5.3624,1.3694,5.539
4.106000,-0.1869,-5.4150,1.3356,5.580
4.106000,-0.6004,-5.4791,1.2996,5.663
4.107000,-1.0419,-5.5769,1.2634,5.812
4.114000,-1.4945,-5.6505,1.2416,5.975
4.117000,-1.9960,-5.6488,1.2412,6.118
4.122000,-2.4884,-5.5114,1.2933,6.184
4.128000,-2.9575,-5.2407,1.4217,6.183
4.132000,-3.3646,-4.8645,1.5994,6.127
4.138000,-3.7004,-4.4359,1.7905,6.048
4.142000,-3.9413,-3.9953,2.0138,5.962
4.149000,-4.0827,-3.5765,2.2493,5.875
4.152000,-4.1134,-3.1943,2.4584,5.759
4.158000,-4.0718,-2.8463,2.6525,5.632
4.164000,-3.9658,-2.5212,2.8528,5.497
4.176000,-3.8197,-2.2147,3.0371,5.359
4.182000,-3.6627,-1.9298,3.1858,5.224
4.183000,-3.5025,-1.6669,3.2915,5.087
4.184000,-3.3583,-1.4218,3.3683,4.964
4.205000,-3.2352,-1.1874,3.3851,4.831
4.206000,-3.1573,-0.9690,3.3299,4.690
4.207000,-3.1055,-0.7789,3.1887,4.519
4.207000,-3.0895,-0.5981,2.9787,4.333
4.208000,-3.0998,-0.4365,2.7294,4.153
4.212000,-3.1553,-0.3012,2.4656,4.016
4.219000,-3.2227,-0.1851,2.1900,3.901
4.222000,-3.3018,-0.0907,1.9102,3.816
4.227000,-3.3926,-0.0202,1.6149,3.757
4.232000,-3.4878,0.0263,1.3379,3.736
4.238000,-3.5850,0.0515,1.0729,3.742
4.242000,-3.6960,0.0815,0.8226,3.787
4.247000,-3.8114,0.1046,0.6138,3.862
4.253000,-3.9118,0.1209,0.4108,3.935
4.257000,-4.0068,0.1304,0.2089,4.014
4.263000,-4.0056,0.1332,0.0113,4.008
4.268000,-4.1475,0.1412,-0.1749,4.154
4.273000,-4.2075,0.1401,-0.3661,4.226
4.278000,-4.2551,0.1251,-0.5550,4.293
4.284000,-4.2758,0.1036,-0.7294,4.339
4.290000,-4.2842,0.0852,-0.8847,4.375
4.293000,-4.1607,0.1844,-0.9947,4.282
4.312000,-4.1448,0.2072,-1.0048,4.270
4.314000,-4.2004,0.1538,-1.0637,4.336
4.315000,-4.2173,0.1155,-1.2045,4.387
4.315000,-4.2363,0.0371,-1.3360,4.442
4.318000,-4.2598,-0.0574,-1.4702,4.507
4.323000,-4.2757,-0.1247,-1.6095,4.570
4.327000,-4.2649,-0.1721,-1.7586,4.616
4.333000,-4.2082,-0.1947,-1.8888,4.617
4.339000,-4.1130,-0.1831,-1.9785,4.568
4.343000,-4.0416,-0.1518,-2.0206,4.521
4.351000,-3.9963,-0.1296,-2.0033,4.472
4.353000,-3.9413,-0.1189,-1.9796,4.412
4.358000,-3.8718,-0.1172,-1.9445,4.334
4.363000,-3.7879,-0.1272,-1.9101,4.244
4.368000,-3.6849,-0.1513,-1.8624,4.132
4.373000,-3.5891,-0.1871,-1.8111,4.025
4.378000,-3.4862,-0.2394,-1.7420,3.905
4.387000,-3.4074,-0.2869,-1.6598,3.801
4.388000,-3.3383,-0.3367,-1.5620,3.701
4.393000,-3.3313,-0.4197,-1.4414,3.654
4.411000,-3.3219,-0.5669,-1.3464,3.629
4.412000,-3.2930,-0.7135,-1.2575,3.596
4.412000,-3.2400,-0.8545,-1.1535,3.544
4.414000,-3.1985,-1.0139,-1.0443,3.514
4.420000,-3.1710,-1.1675,-0.9562,3.512
4.423000,-3.1548,-1.3224,-0.8607,3.527
4.429000,-3.1835,-1.4856,-0.7406,3.590
4.433000,-3.2280,-1.6545,-0.5986,3.676
4.438000,-3.2762,-1.8289,-0.4682,3.781
4.443000,-3.3279,-1.9844,-0.3611,3.891
4.449000,-3.3782,-2.1497,-0.2535,4.012
4.453000,-3.4291,-2.3123,-0.1356,4.138
4.458000,-3.4375,-2.5102,0.0044,4.256
4.465000,-3.4269,-2.7240,0.1734,4.381
4.468000,-3.3614,-2.9269,0.3281,4.469
4.473000,-3.2910,-3.1355,0.4589,4.569
4.478000,-3.1678,-3.3380,0.5418,4.634
4.484000,-2.9919,-3.5104,0.5773,4.648
4.488000,-2.7703,-3.6624,0.5898,4.630
4.493000,-2.4819,-3.8133,0.5892,4.588
4.505000,-2.1360,-3.9561,0.5755,4.533
4.506000,-1.7691,-4.0988,0.5652,4.500
4.508000,-1.3934,-4.2200,0.5556,4.479
4.513000,-1.0375,-4.3249,0.5562,4.482
4.535000,-0.7161,-4.3778,0.5547,4.471
4.536000,-0.4455,-4.3764,0.5563,4.434
4.537000,-0.2025,-4.3694,0.5771,4.412
4.537000,0.0324,-4.3399,0.6101,4.383
4.539000,0.2662,-4.3000,0.6528,4.357
4.543000,0.5252,-4.2498,0.6980,4.339
4.549000,0.8167,-4.1726,0.7506,4.318
4.553000,1.1013,-4.1079,0.8152,4.330
4.558000,1.3745,-4.0578,0.9058,4.379
4.566000,1.6219,-4.0439,0.9865,4.467
4.569000,1.8385,-4.0210,1.0666,4.548
4.574000,2.0056,-4.0173,1.1484,4.635
4.578000,2.1296,-4.0336,1.2553,4.731
4.584000,2.1947,-4.0524,1.3799,4.811
4.588000,2.2273,-4.0663,1.5289,4.882
4.593000,2.2208,-4.0771,1.6831,4.938
4.604000,2.2164,-4.0582,1.8516,4.981
4.605000,2.2409,-3.9947,2.0174,5.005
4.609000,2.3108,-3.8942,2.1803,5.026
4.629000,2.4336,-3.7325,2.3353,5.031
4.632000,2.6117,-3.4954,2.4583,5.008
4.633000,2.8473,-3.1856,2.5470,4.974
4.634000,3.1213,-2.7912,2.6085,4.933
4.635000,3.4393,-2.3185,2.6453,4.920
4.638000,3.8014,-1.7868,2.6431,4.963
4.643000,4.2353,-1.1993,2.6354,5.130
4.648000,4.7208,-0.5950,2.6198,5.432
4.654000,5.2431,0.0305,2.6150,5.859
4.658000,5.7735,0.6469,2.6093,6.369
4.663000,6.2491,1.2249,2.5899,6.875
4.668000,6.6475,1.7380,2.5475,7.328
4.673000,6.9441,2.1738,2.4771,7.686
4.678000,7.1606,2.5278,2.3690,7.955
4.686000,7.2984,2.7683,2.2117,8.113
4.688000,7.3721,2.9149,1.9979,8.175
4.694000,7.3698,2.9846,1.7278,8.137
4.708000,7.2915,2.9965,1.4305,8.012
4.709000,7.1187,2.9846,1.1062,7.798
4.710000,6.8495,2.9395,0.7646,7.493
4.718000,6.5153,2.8879,0.4141,7.139
4.719000,6.1196,2.8470,0.0501,6.750
4.723000,5.6937,2.8409,-0.3434,6.372
4.729000,5.2575,2.8700,-0.7415,6.036
4.734000,4.8138,2.9251,-1.1368,5.746
4.739000,4.3821,2.9967,-1.4967,5.516
4.745000,3.9675,3.1044,-1.8304,5.360
4.750000,3.5728,3.2149,-2.1448,5.263
4.754000,3.2125,3.3403,-2.4033,5.220
4.759000,2.9010,3.4641,-2.6298,5.228
4.764000,2.6267,3.5795,-2.8139,5.256
4.770000,2.3608,3.6888,-2.9340,5.272
4.774000,2.1321,3.7732,-3.0191,5.282
4.779000,1.9048,3.8207,-3.0403,5.241
4.784000,1.7076,3.8291,-2.9930,5.151
4.789000,1.5382,3.8009,-2.8803,5.011
4.794000,1.3659,3.7388,-2.7502,4.838
4.805000,1.2048,3.6523,-2.6152,4.651
4.807000,1.0479,3.5486,-2.4711,4.449
4.809000,0.8857,3.4469,-2.3203,4.248
4.834000,0.7063,3.3281,-2.1683,4.034
4.836000,0.5101,3.2211,-2.0246,3.839
4.836000,0.3069,3.1237,-1.9136,3.676
4.837000,0.0920,3.0264,-1.8282,3.537
4.837000,-0.1222,2.9485,-1.7636,3.438
4.839000,-0.3021,2.8830,-1.7247,3.373
4.844000,-0.2828,2.9017,-1.7109,3.380
4.850000,-0.4283,2.8536,-1.6339,3.316
4.855000,-0.6760,2.7748,-1.5776,3.263
4.859000,-0.9868,2.6658,-1.5493,3.237
4.865000,-1.3414,2.5318,-1.5176,3.242
4.869000,-1.6814,2.4117,-1.5040,3.302
4.874000,-1.9921,2.3203,-1.4847,3.399
4.878000,-2.2444,2.2913,-1.4430,3.517
4.884000,-2.4095,2.3057,-1.3836,3.611
4.889000,-2.4183,2.3562,-1.2993,3.618
4.894000,-2.3955,2.4045,-1.2214,3.607
4.905000,-2.3725,2.4311,-1.1474,3.585
4.906000,-2.3327,2.4312,-1.0630,3.533
4.909000,-2.2665,2.4191,-0.9539,3.449
4.940000,-2.1669,2.4162,-0.8422,3.353
4.941000,-2.0627,2.3867,-0.7233,3.236
4.941000,-1.9612,2.3542,-0.6047,3.123
4.942000,-1.8287,2.3452,-0.4770,3.012
4.942000,-1.6630,2.3786,-0.3382,2.922
4.942000,-1.4834,2.4398,-0.2054,2.863
4.945000,-1.2592,2.5357,-0.0981,2.833
4.950000,-0.9717,2.6513,-0.0306,2.824
4.954000,-0.6430,2.7674,0.0046,2.841
4.959000,-0.2713,2.8809,0.0024,2.894
4.964000,-0.2492,2.9843,-0.0300,2.995
4.971000,0.5398,3.0869,-0.0829,3.135
4.974000,0.9296,3.1450,-0.1824,3.285
4.980000,1.3004,3.1726,-0.3236,3.444
4.984000,1.6351,3.1768,-0.5039,3.608
4.990000,1.9310,3.1837,-0.7155,3.792
4.994000,2.1307,3.2076,-0.8867,3.952
5.001000,2.3298,3.1120,-1.1079,4.042
5.005000,2.5426,2.9978,-1.4192,4.179
5.010000,2.7356,2.8362,-1.7243,4.301
5.021000,2.8871,2.6225,-2.0228,4.394
5.022000,2.9975,2.4025,-2.2974,4.476
5.025000,3.0693,2.2122,-2.5335,4.553
5.030000,3.0886,2.0567,-2.7185,4.600
5.068000,3.0870,1.9362,-2.8456,4.623
5.070000,3.0766,1.8630,-2.9313,4.640
5.071000,3.0746,1.8370,-2.9781,4.658
5.071000,3.0711,1.8535,-2.9809,4.664
5.072000,3.0809,1.9196,-2.9186,4.658
5.073000,3.0894,2.0304,-2.7817,4.627
5.074000,3.1084,2.1427,-2.5850,4.576
5.074000,3.1142,2.2611,-2.3243,4.496
5.075000,3.1327,2.3733,-2.0046,4.412
5.081000,3.1617,2.4579,-1.6795,4.343
5.086000,3.2225,2.5027,-1.3591,4.301
5.090000,3.3195,2.4810,-1.0533,4.276
5.095000,3.4405,2.3855,-0.8153,4.265
5.100000,3.5829,2.1967,-0.6094,4.247
5.105000,3.7484,1.9048,-0.4573,4.229
5.111000,3.9157,1.5195,-0.3713,4.217
5.116000,4.0462,1.0573,-0.3489,4.197
5.120000,4.1448,0.5038,-0.3754,4.192
5.124000,4.1757,-0.1097,-0.4552,4.202
5.137000,4.1580,-0.7785,-0.5620,4.267
5.138000,4.0474,-1.4803,-0.6668,4.361
5.140000,3.8706,-2.1764,-0.7738,4.507
5.144000,3.6426,-2.8664,-0.8946,4.721
5.169000,3.4121,-3.5590,-1.0214,5.035
5.170000,3.1482,-4.2372,-1.1465,5.402
5.171000,2.8501,-4.8709,-1.2553,5.781
5.172000,2.5132,-5.4168,-1.3352,6.119
5.182000,1.4304,-6.2018,-1.2137,6.479
5.184000,1.3824,-6.2396,-1.1849,6.500
5.185000,1.3378,-6.2743,-1.1528,6.518
5.185000,0.9771,-6.2354,-0.9102,6.377
5.191000,0.6762,-6.0345,-0.5912,6.101
5.195000,0.4924,-5.6715,-0.2109,5.697
5.201000,0.4133,-5.1686,0.2039,5.189
5.205000,0.3976,-4.5695,0.6573,4.634
5.211000,0.4086,-3.9493,1.0963,4.119
5.216000,0.4436,-3.3204,1.4934,3.668
5.221000,0.5471,-2.7098,1.8843,3.346
5.225000,0.7209,-2.1687,2.2157,3.183
5.231000,0.9447,-1.7073,2.4943,3.167
5.240000,1.2202,-1.3887,2.7274,3.295
5.242000,1.5347,-1.2325,2.9260,3.526
5.245000,1.8780,-1.2439,3.0827,3.818
5.277000,2.2424,-1.4162,3.1876,4.147
5.279000,2.5869,-1.7065,3.2499,4.491
5.280000,2.8633,-2.0698,3.2551,4.804
5.281000,3.0360,-2.4533,3.2342,5.069
5.282000,3.0499,-2.8403,3.1679,5.235
5.282000,2.9273,-3.2138,3.0327,5.301
5.283000,2.6617,-3.5614,2.8267,5.269
5.285000,2.2727,-3.8754,2.5269,5.155
5.291000,1.7761,-4.1282,2.1847,4.997
5.295000,1.2249,-4.2835,1.8323,4.817
5.300000,0.6438,-4.3430,1.4921,4.637
5.305000,0.0404,-4.3039,1.1843,4.464
5.310000,-0.5511,-4.2084,0.9072,4.340
5.316000,-1.0948,-4.0659,0.6808,4.265
5.320000,-1.5875,-3.8704,0.5008,4.213
5.325000,-1.9886,-3.6291,0.3674,4.154
5.332000,-2.3078,-3.3418,0.2879,4.071
5.335000,-2.5522,-3.0203,0.2763,3.964
5.340000,-2.7317,-2.6531,0.3418,3.823
5.345000,-2.8199,-2.2852,0.4738,3.660
5.351000,-2.8149,-1.9099,0.6693,3.467
5.356000,-2.7148,-1.5590,0.9229,3.264
5.360000,-2.5561,-1.2258,1.1977,3.077
5.372000,-2.3704,-0.9446,1.4740,2.947
5.374000,-2.1796,-0.6894,1.7244,2.863
5.375000,-2.0153,-0.4512,1.9532,2.843
5.380000,-1.8994,-0.2355,2.1430,2.873
5.410000,-1.8391,-0.0426,2.3031,2.948
5.412000,-1.8178,0.1370,2.4281,3.036
5.412000,-1.8453,0.3077,2.4939,3.118
5.413000,-1.9188,0.4770,2.5076,3.193
5.416000,-2.0290,0.6110,2.4573,3.245
5.416000,-2.1590,0.7146,2.3507,3.271
5.417000,-2.3255,0.7903,2.2000,3.297
5.421000,-2.5021,0.8428,2.0176,3.323
5.425000,-2.7028,0.8918,1.8138,3.375
5.433000,-2.9131,0.9182,1.5986,3.447
5.436000,-3.1353,0.9318,1.3915,3.555
5.441000,-3.3549,0.9208,1.1906,3.677
5.445000,-3.5695,0.8926,0.9818,3.808
5.455000,-3.7643,0.8764,0.7824,3.943
5.457000,-3.9322,0.8627,0.5902,4.069
5.460000,-4.0803,0.8398,0.4127,4.186
5.485000,-4.2085,0.8030,0.2523,4.292
5.487000,-4.3027,0.7664,0.0970,4.372
5.487000,-4.3914,0.7163,-0.0526,4.450
5.487000,-4.4768,0.6789,-0.2134,4.533
5.488000,-4.5449,0.6278,-0.3729,4.603
5.490000,-4.5932,0.5776,-0.5214,4.659
5.495000,-4.6218,0.5328,-0.6877,4.703
5.502000,-4.6402,0.4939,-0.8449,4.742
5.505000,-4.6293,0.4511,-1.0098,4.760
5.511000,-4.6037,0.4114,-1.1680,4.767
5.516000,-4.5634,0.3629,-1.3216,4.765
5.521000,-4.5061,0.3293,-1.4466,4.744
5.525000,-4.4560,0.2938,-1.5620,4.731
5.532000,-4.3961,0.2517,-1.6486,4.702
5.535000,-4.3506,0.2076,-1.7280,4.686
5.541000,-4.3171,0.1543,-1.8003,4.680
5.545000,-4.3050,0.0919,-1.8488,4.686
5.552000,-4.3263,0.0276,-1.9023,4.726
5.556000,-4.3496,-0.0286,-1.9561,4.769
5.561000,-4.3798,-0.0887,-2.0052,4.818
5.573000,-4.4048,-0.1455,-2.0377,4.855
5.574000,-4.4317,-0.2154,-2.0415,4.884
5.576000,-4.4606,-0.2865,-2.0358,4.912
5.603000,-4.4672,-0.3823,-2.0304,4.922
5.605000,-4.4276,-0.4810,-2.0015,4.883
5.605000,-4.3443,-0.5851,-1.9612,4.802
5.606000,-4.2149,-0.6588,-1.9238,4.680
5.606000,-4.0396,-0.7335,-1.8750,4.514
5.610000,-3.8283,-0.8284,-1.8171,4.318
5.610000,-3.6121,-0.9345,-1.7551,4.123
5.615000,-3.3912,-1.0567,-1.6842,3.931
5.621000,-3.1728,-1.2263,-1.6309,3.772
5.626000,-2.9691,-1.4290,-1.5832,3.656
5.632000,-2.7799,-1.6650,-1.5314,3.584
5.636000,-2.6101,-1.9294,-1.4712,3.564
5.641000,-2.4786,-2.2434,-1.3958,3.623
5.646000,-2.4091,-2.5710,-1.2935,3.753
5.651000,-2.3797,-2.8923,-1.1410,3.915
5.656000,-2.4307,-3.1688,-0.9362,4.102
5.661000,-2.5333,-3.3737,-0.6922,4.275
5.672000,-2.7060,-3.5257,-0.4232,4.465
5.674000,-2.9176,-3.5932,-0.1322,4.630
5.676000,-3.1293,-3.6284,0.1689,4.794
5.707000,-3.3243,-3.6188,0.4612,4.935
5.708000,-3.4544,-3.6048,0.7353,5.047
5.709000,-3.4551,-3.6124,0.9817,5.094
5.710000,-3.2906,-3.6320,1.1748,5.040
5.711000,-2.9613,-3.6997,1.3053,4.915
5.711000,-2.5081,-3.8231,1.3689,4.773
5.714000,-1.9699,-3.9913,1.3415,4.649
5.716000,-1.4070,-4.2047,1.2497,4.607
5.721000,-0.8794,-4.4065,1.1054,4.627
5.726000,-0.4254,-4.5875,0.9231,4.699
5.732000,-0.0692,-4.7123,0.7480,4.772
5.736000,0.1799,-4.7668,0.5921,4.807
5.741000,0.3406,-4.7659,0.4289,4.797
5.745000,0.4613,-4.7646,0.2518,4.793
5.750000,0.5633,-4.8129,0.0898,4.847
5.757000,0.6614,-4.9225,-0.0448,4.967
5.761000,0.7462,-5.0930,-0.1016,5.148
5.771000,0.8102,-5.2936,-0.0999,5.356
5.773000,0.8421,-5.5022,-0.0230,5.566
5.775000,0.8348,-5.6731,0.1412,5.736
5.796000,0.7936,-5.8012,0.3851,5.868
5.798000,0.7430,-5.8735,0.7201,5.964
5.798000,0.6975,-5.8833,1.1167,6.029
5.799000,0.6837,-5.8513,1.5457,6.091
5.801000,0.7427,-5.7655,1.9659,6.137
5.806000,0.8768,-5.6378,2.3794,6.182
5.811000,1.1055,-5.4416,2.7785,6.209
5.816000,1.4135,-5.1831,3.1647,6.235
5.821000,1.7626,-4.8502,3.5252,6.250
5.825000,2.1285,-4.4486,3.8399,6.250
5.833000,2.5131,-4.0002,4.0722,6.237
5.836000,2.9160,-3.5202,4.1739,6.190
5.841000,3.3490,-3.0399,4.1617,6.146
5.846000,3.7939,-2.5588,4.0311,6.098
5.851000,4.2431,-2.1321,3.7897,6.075
5.857000,4.6600,-1.6988,3.4834,6.061
5.861000,5.0223,-1.2834,3.1342,6.058
5.866000,5.3155,-0.8741,2.7496,6.048
5.871000,5.5193,-0.5011,2.3546,6.021
5.876000,5.6624,-0.1569,1.9663,5.996
5.881000,5.7207,0.1439,1.5854,5.938
5.886000,5.7251,0.3942,1.2173,5.866
5.891000,5.6495,0.5871,0.8935,5.750
5.897000,5.5079,0.7462,0.6124,5.592
5.917000,5.3247,0.8625,0.4005,5.409
5.920000,5.0882,0.9484,0.2578,5.182
5.921000,4.8370,1.0403,0.2010,4.952
5.921000,4.5641,1.1477,0.2008,4.710
5.922000,4.3011,1.2809,0.2207,4.493
5.931000,4.0431,1.4396,0.2322,4.298
5.932000,3.7831,1.6074,0.1822,4.114
5.955000,3.5163,1.7913,0.0591,3.947
5.957000,3.2453,1.9939,-0.1416,3.811
5.958000,2.9724,2.1817,-0.4004,3.709
5.958000,2.6928,2.3715,-0.7090,3.658
5.959000,2.4067,2.5588,-1.0239,3.659
5.962000,2.1071,2.7581,-1.3303,3.717
5.967000,1.8015,2.9482,-1.6255,3.818
5.971000,1.5091,3.1221,-1.8927,3.951
5.976000,1.2206,3.2753,-2.1096,4.083
5.982000,0.9363,3.4154,-2.2883,4.216
5.986000,0.6706,3.5354,-2.4286,4.341
5.991000,0.4049,3.6310,-2.5116,4.434
5.996000,0.1490,3.7097,-2.5424,4.500
6.002000,-0.0755,3.7668,-2.5039,4.524
6.007000,-0.2777,3.7861,-2.4091,4.496
6.011000,-0.4361,3.7866,-2.2869,4.445
6.034000,-0.5649,3.7543,-2.1712,4.374
6.035000,-0.6593,3.7250,-2.0695,4.312
6.036000,-0.7409,3.6963,-1.9962,4.266
6.036000,-0.8170,3.6801,-1.9439,4.241
6.036000,-0.8948,3.7098,-1.8912,4.259
6.042000,-0.9814,3.7495,-1.8716,4.304
6.047000,-1.0719,3.7826,-1.8779,4.357
6.051000,-1.1782,3.7924,-1.9005,4.403
6.057000,-1.2813,3.8124,-1.9223,4.458
6.061000,-1.3880,3.8356,-1.9436,4.518
6.066000,-1.4983,3.8431,-1.9305,4.554
6.072000,-1.5929,3.8467,-1.9073,4.580
6.076000,-1.6812,3.8252,-1.8453,4.568
6.082000,-1.7273,3.7931,-1.7638,4.526
6.087000,-1.7428,3.7552,-1.6678,4.463
6.091000,-1.7208,3.7259,-1.5840,4.399
6.097000,-1.6778,3.7291,-1.5409,4.370
6.102000,-1.5925,3.7694,-1.5122,4.362
6.107000,-1.4727,3.8488,-1.5117,4.389
6.112000,-1.3209,3.9313,-1.5250,4.419
6.121000,-1.1733,4.0214,-1.5639,4.471
6.123000,-1.0158,4.1046,-1.6187,4.528
6.127000,-0.8581,4.1569,-1.7156,4.578
6.157000,-0.7025,4.1785,-1.8519,4.624
6.159000,-0.5113,4.1930,-1.9982,4.673
6.159000,-0.3061,4.1670,-2.1326,4.691
6.160000,-0.0896,4.1100,-2.2623,4.692
6.160000,0.1550,4.0317,-2.3891,4.689
6.161000,0.4205,3.8987,-2.4988,4.650
6.162000,0.7136,3.7371,-2.6148,4.617
6.168000,1.0340,3.5278,-2.7250,4.576
6.178000,1.7355,2.9624,-2.9102,4.501
6.180000,1.7581,2.9785,-2.9047,4.517
6.183000,2.1235,2.6117,-2.9286,4.462
6.187000,2.4342,2.2043,-2.9126,4.389
6.192000,2.6762,1.8091,-2.8595,4.314
6.197000,2.8452,1.4597,-2.7598,4.224
6.202000,2.9607,1.1802,-2.6355,4.136
6.207000,3.0328,0.9733,-2.4792,4.036
6.212000,3.0736,0.8411,-2.3057,3.933
6.219000,3.1122,0.7839,-2.1174,3.845
6.222000,3.1487,0.8063,-1.9143,3.772
6.227000,3.2212,0.8842,-1.7014,3.749
6.254000,3.2940,1.0127,-1.4598,3.743
6.255000,3.3764,1.1893,-1.2061,3.777
6.256000,3.4754,1.4038,-0.9124,3.858
6.257000,3.6218,1.6633,-0.6077,4.032
6.257000,3.8057,1.9387,-0.2828,4.280
6.258000,4.0935,2.2390,0.0689,4.666
6.262000,4.4652,2.5278,0.4256,5.149
6.268000,4.9530,2.7491,0.7454,5.714
6.272000,5.5654,2.8641,1.0022,6.339
6.277000,6.2747,2.8482,1.1837,6.992
6.282000,7.0436,2.7293,1.3138,7.667
6.287000,7.7873,2.5305,1.4424,8.314
6.292000,8.4094,2.2658,1.5446,8.845
6.298000,8.8449,1.9058,1.5842,9.186
6.302000,9.0606,1.4651,1.5444,9.307
6.307000,9.0932,0.9462,1.3754,9.245
6.312000,8.9264,0.3613,1.1114,9.003
6.316000,8.5815,-0.2644,0.8365,8.626
6.322000,8.0689,-0.8731,0.5895,8.137
6.327000,7.3712,-1.3945,0.3948,7.512
6.340000,6.5163,-1.8253,0.2528,6.772
6.341000,5.6201,-2.1674,0.1615,6.026
6.342000,4.7591,-2.3903,0.0945,5.327
6.347000,4.0128,-2.5366,0.0309,4.747
6.379000,3.3816,-2.6179,-0.0098,4.276
6.382000,2.8778,-2.6550,0.0012,3.915
6.383000,2.4705,-2.6551,0.0450,3.627
6.384000,2.1782,-2.6398,0.1409,3.425
6.385000,2.0111,-2.5942,0.3003,3.296
6.385000,1.9685,-2.5427,0.5111,3.256
6.386000,2.0451,-2.5120,0.7394,3.322
6.388000,2.2162,-2.5215,0.9750,3.496
6.392000,2.4593,-2.5650,1.2204,3.757
6.399000,2.7505,-2.6401,1.4863,4.092
6.402000,3.0600,-2.7597,1.7367,4.472
6.408000,3.3420,-2.9171,1.9568,4.848
6.412000,3.5697,-3.0958,2.1343,5.185
6.418000,3.7140,-3.2919,2.2596,5.453
6.422000,3.7637,-3.4976,2.3272,5.640
6.427000,3.6948,-3.7107,2.3635,5.745
6.437000,3.4884,-3.9073,2.3496,5.741
6.439000,3.1859,-4.1107,2.2974,5.686
6.442000,2.8186,-4.3185,2.2458,5.625
6.468000,2.4310,-4.5100,2.2209,5.584
6.469000,2.0183,-4.6587,2.2158,5.540
6.470000,1.6218,-4.7499,2.2259,5.491
6.470000,1.2392,-4.7926,2.2250,5.427
6.471000,0.8373,-4.7628,2.2447,5.331
6.473000,0.4231,-4.6821,2.2827,5.226
6.477000,0.0240,-4.5467,2.3220,5.105
6.484000,-0.3339,-4.3687,2.3867,4.989
6.487000,-0.6340,-4.1743,2.4360,4.875
6.492000,-0.8762,-3.9634,2.4794,4.756
6.499000,-1.0347,-3.7316,2.5289,4.625
6.502000,-1.1212,-3.4998,2.5795,4.490
6.508000,-1.1482,-3.2780,2.6385,4.362
6.512000,-1.1185,-3.0643,2.6984,4.233
6.517000,-1.0613,-2.8567,2.7348,4.095
6.522000,-0.9913,-2.6512,2.7643,3.956
6.527000,-0.9301,-2.4882,2.8035,3.862
6.538000,-0.8970,-2.3634,2.8446,3.806
6.539000,-0.8875,-2.2600,2.8942,3.778
6.543000,-0.9015,-2.1474,2.9087,3.726
6.571000,-0.9442,-2.0044,2.9021,3.651
6.573000,-1.0104,-1.8497,2.8790,3.568
6.574000,-1.1219,-1.6936,2.8252,3.480
6.574000,-1.2333,-1.5242,2.7310,3.362
6.575000,-1.3612,-1.3894,2.5898,3.239
6.575000,-1.4960,-1.2820,2.4141,3.116
6.578000,-1.6498,-1.2192,2.2113,3.016
6.583000,-1.7984,-1.1596,1.9943,2.925
6.588000,-1.9466,-1.1180,1.7631,2.854
6.593000,-2.0895,-1.1013,1.5182,2.808
6.599000,-2.2249,-1.0716,1.2718,2.778
6.603000,-2.3648,-1.0506,1.0337,2.786
6.609000,-2.5159,-1.0376,0.8001,2.837
6.613000,-2.6450,-1.0330,0.5780,2.898
6.618000,-2.7689,-1.0462,0.3440,2.980
6.622000,-2.8850,-1.0798,0.1223,3.083
6.627000,-3.0008,-1.1268,-0.1014,3.207
6.641000,-3.1183,-1.1959,-0.3260,3.356
6.643000,-3.2377,-1.2802,-0.5636,3.527
6.645000,-3.3659,-1.3772,-0.7972,3.723
6.677000,-3.5079,-1.4842,-1.0218,3.944
6.679000,-3.6540,-1.5751,-1.2424,4.169
6.679000,-3.8255,-1.6753,-1.4538,4.422
6.680000,-4.0081,-1.7586,-1.6512,4.678
6.682000,-4.2135,-1.8247,-1.8418,4.947
6.685000,-4.4251,-1.8661,-2.0017,5.203
6.685000,-4.6594,-1.9135,-2.1619,5.481
6.686000,-4.8805,-1.9623,-2.3152,5.747
6.688000,-5.0907,-1.9993,-2.4516,5.994
6.692000,-5.3019,-2.0268,-2.5401,6.219
6.699000,-5.4950,-2.0400,-2.6216,6.421
6.703000,-5.6676,-2.0481,-2.6721,6.592
6.708000,-5.8341,-2.0416,-2.7086,6.748
6.713000,-6.0065,-2.0126,-2.7285,6.897
6.719000,-6.1632,-1.9924,-2.7248,7.027
6.723000,-6.3018,-1.9688,-2.7048,7.135
6.728000,-6.4273,-1.9631,-2.6855,7.237
6.739000,-6.5348,-1.9587,-2.6789,7.329
6.741000,-6.6267,-1.9621,-2.6799,7.412
6.743000,-6.6673,-1.9736,-2.6813,7.452
6.765000,-6.6973,-2.0100,-2.6783,7.488
6.767000,-6.6857,-2.0640,-2.6687,7.489
6.768000,-6.6566,-2.1286,-2.6549,7.476
6.769000,-6.6003,-2.1963,-2.6395,7.440
6.769000,-6.5290,-2.2580,-2.6296,7.392
6.773000,-6.4282,-2.3256,-2.6252,7.323
6.778000,-6.3054,-2.4113,-2.6143,7.239
6.784000,-6.1582,-2.5416,-2.5754,7.143
6.788000,-6.0129,-2.7092,-2.5447,7.069
6.793000,-5.8887,-2.9070,-2.5222,7.035
6.799000,-5.7519,-3.0943,-2.5031,6.995
6.803000,-5.6458,-3.2856,-2.4900,6.991
6.808000,-5.5773,-3.4711,-2.4850,7.024
6.813000,-5.5678,-3.6578,-2.4451,7.096
6.818000,-5.5982,-3.8143,-2.3868,7.182
6.823000,-5.6513,-3.9498,-2.2913,7.266
6.828000,-5.7079,-4.0449,-2.1634,7.323
6.838000,-5.7727,-4.1112,-2.0054,7.365
6.840000,-5.8287,-4.1533,-1.7958,7.379
6.843000,-5.8950,-4.1737,-1.5470,7.387
6.867000,-5.9642,-4.1913,-1.2661,7.399
6.868000,-6.0265,-4.2083,-0.9843,7.416
6.869000,-6.0580,-4.2148,-0.7135,7.414
6.869000,-6.0439,-4.2103,-0.4653,7.381
6.870000,-5.9509,-4.2388,-0.2545,7.311
6.874000,-5.7622,-4.3165,-0.0947,7.200
6.878000,-5.4897,-4.4531,0.0019,7.069
6.884000,-5.1000,-4.6085,0.0310,6.874
6.888000,-4.6171,-4.7759,-0.0030,6.643
6.893000,-4.0817,-4.9387,-0.0996,6.408
6.899000,-3.5350,-5.0652,-0.2406,6.181
6.903000,-3.0152,-5.1557,-0.4232,5.988
6.908000,-2.5629,-5.2297,-0.6357,5.859
6.916000,-2.1566,-5.2924,-0.8683,5.781
6.919000,-1.7937,-5.3364,-1.1226,5.741
6.923000,-1.4890,-5.3512,-1.3748,5.722
6.928000,-1.2254,-5.3913,-1.6309,5.764
6.933000,-0.9956,-5.5262,-1.8780,5.921
6.938000,-0.7612,-5.7843,-2.1390,6.214
6.944000,-0.5598,-6.1908,-2.4007,6.664
6.956000,-0.4131,-6.7274,-2.6220,7.232
6.958000,-0.3008,-7.3067,-2.8186,7.837
6.959000,-0.1267,-7.8302,-3.0115,8.390
6.991000,0.1695,-8.2048,-3.1451,8.789
6.992000,0.6191,-8.4188,-3.1044,8.994
6.993000,1.2133,-8.4603,-2.8442,9.008
6.994000,1.9151,-8.3556,-2.3599,8.891
6.994000,2.7127,-8.1145,-1.6598,8.715
6.995000,3.5986,-7.7237,-0.7699,8.556
6.999000,4.5432,-7.1700,0.3095,8.494
7.002000,5.4744,-6.4682,1.5066,8.607
7.003000,6.3394,-5.6254,2.7420,8.908
7.009000,7.0992,-4.6991,3.9463,9.384
7.014000,7.7405,-3.7398,5.0089,9.949
7.019000,8.2642,-2.7910,5.8245,10.489
7.024000,8.6842,-1.9409,6.3520,10.933
7.029000,8.9907,-1.2287,6.6017,11.222
7.034000,9.1548,-0.6780,6.5862,11.298
7.038000,9.1758,-0.2980,6.3035,11.136
7.043000,9.0391,-0.0669,5.8074,10.744
7.053000,8.7699,0.0234,5.1689,10.180
7.055000,8.4302,0.0065,4.3897,9.505
7.059000,8.0790,-0.0902,3.5487,8.824
7.080000,7.7531,-0.2373,2.6743,8.205
7.082000,7.4940,-0.3771,1.8282,7.723
7.083000,7.2904,-0.4998,1.0409,7.381
7.083000,7.1573,-0.5403,0.3279,7.185
7.084000,7.0966,-0.4564,-0.2399,7.115
7.089000,7.0940,-0.2505,-0.6334,7.127
7.093000,7.1347,0.0626,-0.8981,7.191
7.099000,7.1967,0.4442,-1.0694,7.289
7.104000,7.2748,0.8798,-1.1549,7.418
7.108000,7.3153,1.3325,-1.1778,7.528
7.116000,7.2846,1.7689,-1.1478,7.584
7.119000,7.1439,2.2174,-1.0770,7.557
7.123000,6.9076,2.6660,-1.0206,7.474
7.129000,6.5783,3.1127,-0.9788,7.343
7.134000,6.1943,3.5022,-0.9653,7.181
7.139000,5.7534,3.8276,-0.9586,6.976
7.144000,5.3206,4.0775,-0.9608,6.772
7.149000,4.8820,4.2497,-0.9573,6.543
7.155000,4.4688,4.3302,-0.9296,6.292
7.159000,4.0959,4.3387,-0.8700,6.030
7.172000,3.7612,4.2851,-0.7862,5.756
7.174000,3.4481,4.1791,-0.6904,5.462
7.179000,3.1116,4.0642,-0.5900,5.152
7.180000,2.7616,3.9478,-0.4995,4.844
7.214000,2.3914,3.8255,-0.4383,4.533
7.216000,2.0136,3.7119,-0.3725,4.239
7.216000,1.6239,3.5980,-0.3190,3.960
7.217000,1.2348,3.4863,-0.2852,3.710
7.217000,0.8707,3.3822,-0.2713,3.503
7.218000,0.5296,3.3026,-0.2748,3.356
7.218000,0.2285,3.2380,-0.3025,3.260
7.219000,-0.0542,3.2173,-0.3328,3.235
7.224000,-0.3156,3.2239,-0.3560,3.259
7.229000,-0.5533,3.2411,-0.3720,3.309
7.234000,-0.7697,3.2451,-0.3714,3.356
7.239000,-0.9694,3.2383,-0.3682,3.400
7.244000,-1.1618,3.2091,-0.3652,3.432
7.250000,-1.3610,3.1670,-0.3722,3.467
7.254000,-1.5573,3.1386,-0.3578,3.522
7.259000,-1.7576,3.1240,-0.3058,3.598
7.273000,-1.9858,3.1257,-0.2395,3.711
7.276000,-2.2341,3.1391,-0.1520,3.856
7.276000,-2.4951,3.1476,-0.0703,4.017
7.314000,-2.7516,3.1418,-0.0254,4.177
7.316000,-2.9604,3.1244,-0.0342,4.304
7.316000,-3.0900,3.0954,-0.0897,4.375
7.317000,-2.9998,3.0689,-0.2461,4.299
7.318000,-2.9462,3.0041,-0.3478,4.222
7.318000,-3.0078,2.9248,-0.3809,4.213
7.319000,-3.0004,2.9003,-0.4702,4.199
7.319000,-2.8543,2.9282,-0.5920,4.132
7.320000,-2.5373,2.9886,-0.7573,3.993
7.324000,-2.1289,3.0715,-0.9494,3.856
7.330000,-1.6420,3.1498,-1.1756,3.742
7.335000,-1.1280,3.2182,-1.4092,3.690
7.340000,-0.6113,3.2810,-1.6240,3.712
7.344000,-0.1128,3.3373,-1.8386,3.812
7.351000,0.3603,3.4015,-2.0483,3.987
7.355000,0.8027,3.4350,-2.2699,4.195
7.359000,1.2041,3.4422,-2.5366,4.442
7.374000,1.5957,3.4258,-2.8481,4.732
7.376000,1.9883,3.3759,-3.1863,5.050
7.377000,2.3602,3.2615,-3.5413,5.362
7.380000,2.7088,3.1091,-3.8813,5.663
7.418000,3.0054,2.9525,-4.2226,5.965
7.420000,3.2475,2.7990,-4.5382,6.243
7.421000,3.4453,2.6778,-4.8255,6.506
7.422000,3.6127,2.5963,-5.0809,6.753
7.422000,3.7671,2.5618,-5.2682,6.965
7.423000,3.9277,2.5484,-5.4229,7.164
7.423000,4.1064,2.5323,-5.5352,7.343
7.424000,4.3129,2.5137,-5.6164,7.514
7.424000,4.5325,2.5093,-5.6039,7.632
7.433000,4.7676,2.5241,-5.4811,7.690
7.435000,4.9896,2.5531,-5.2410,7.673
7.440000,5.1745,2.6107,-4.8816,7.578
7.444000,5.3416,2.7063,-4.4347,7.451
7.450000,5.5003,2.8369,-3.8939,7.312
7.455000,5.6957,2.9618,-3.2960,7.216
7.460000,5.9324,3.0805,-2.6753,7.200
7.466000,6.2409,3.1470,-2.0709,7.290
7.471000,6.6034,3.1251,-1.5525,7.469
7.475000,7.0696,2.9831,-1.1517,7.759
7.480000,7.6168,2.7255,-0.8660,8.136
7.485000,8.2105,2.3159,-0.7045,8.560
7.491000,8.8117,1.7397,-0.6837,9.008
7.495000,9.3671,0.9916,-0.7625,9.450
7.505000,9.7806,0.1073,-0.8871,9.821
7.506000,9.9964,-0.8959,-1.0129,10.087
7.511000,9.9629,-1.9844,-1.1180,10.220
7.543000,9.6772,-3.0811,-1.1549,10.221
7.545000,9.1581,-4.0992,-1.1267,10.097
7.547000,8.4381,-4.9714,-1.0551,9.850
7.547000,7.5730,-5.6654,-0.9008,9.500
7.548000,6.6381,-6.1569,-0.6568,9.078
7.549000,5.7087,-6.4622,-0.3049,8.628
7.550000,4.8525,-6.6192,0.1256,8.208
7.551000,4.1152,-6.6446,0.6250,7.841
7.555000,3.5288,-6.5569,1.1725,7.538
7.560000,3.0617,-6.3681,1.7488,7.279
7.565000,2.7182,-6.0760,2.3649,7.064
7.571000,2.4910,-5.6808,2.9722,6.878
7.575000,2.4122,-5.2285,3.5296,6.754
7.581000,2.4890,-4.7668,4.0071,6.706
7.585000,2.7054,-4.3588,4.4189,6.771
7.592000,3.0745,-4.0602,4.7316,6.952
7.595000,3.5304,-3.8908,4.9330,7.207
7.603000,3.9759,-3.8661,5.0116,7.475
7.606000,4.3559,-3.9597,4.9648,7.701
7.611000,4.6026,-4.1364,4.8026,7.833
7.639000,4.6658,-4.3345,4.5472,7.825
7.641000,4.5148,-4.5515,4.2279,7.679
7.641000,4.1576,-4.7799,3.8429,7.410
7.641000,3.6522,-5.0292,3.4076,7.088
7.642000,3.0915,-5.2548,2.9801,6.786
7.642000,2.4737,-5.4923,2.5539,6.543
7.645000,1.8165,-5.7001,2.1418,6.354
7.650000,1.1423,-5.8465,1.7802,6.217
7.654000,0.4873,-5.9311,1.4890,6.135
7.659000,-0.1493,-5.9473,1.2443,6.078
7.664000,-0.7458,-5.8925,1.0390,6.030
7.671000,-1.2779,-5.7686,0.8759,5.973
7.675000,-1.7263,-5.6061,0.7429,5.913
7.680000,-2.0868,-5.3766,0.6355,5.802
7.687000,-2.3729,-5.1340,0.6013,5.688
7.691000,-2.5686,-4.8500,0.6234,5.523
7.695000,-2.6861,-4.5391,0.6965,5.320
7.702000,-2.7497,-4.1990,0.8179,5.085
7.705000,-2.7576,-3.8278,0.9677,4.816
7.711000,-2.7512,-3.4405,1.1410,4.551
7.756000,-2.7136,-3.0512,1.3155,4.290
7.758000,-2.6409,-2.6777,1.4958,4.047
7.758000,-2.5695,-2.3275,1.6862,3.855
7.759000,-2.4829,-2.0202,1.8815,3.713
7.759000,-2.4273,-1.7446,2.0671,3.634
7.760000,-2.4120,-1.5027,2.2276,3.611
7.761000,-2.4421,-1.2950,2.3535,3.630
7.761000,-2.5129,-1.1311,2.4540,3.690
7.762000,-2.6507,-1.0062,2.5357,3.804
7.762000,-2.8269,-0.9086,2.5816,3.935
7.767000,-3.0385,-0.7992,2.5773,4.064
7.772000,-3.2617,-0.6925,2.5373,4.190
7.775000,-3.5251,-0.5982,2.4644,4.343
7.783000,-3.8188,-0.5325,2.3641,4.523
7.786000,-4.1309,-0.5053,2.2533,4.732
7.791000,-4.4534,-0.5034,2.1256,4.960
7.795000,-4.7649,-0.5053,1.9904,5.189
7.800000,-5.0509,-0.4962,1.8364,5.397
7.806000,-5.3182,-0.4784,1.6807,5.598
7.811000,-5.5503,-0.4636,1.5237,5.774
7.821000,-5.7640,-0.4330,1.3705,5.940
7.823000,-5.9756,-0.4193,1.2078,6.111
7.826000,-6.1375,-0.3939,1.0426,6.238
7.861000,-6.2808,-0.3639,0.8681,6.351
7.863000,-6.3817,-0.3174,0.7084,6.429
7.864000,-6.4356,-0.2618,0.5468,6.464
7.864000,-6.4544,-0.2184,0.3983,6.470
7.864000,-6.4264,-0.1732,0.2648,6.434
7.865000,-6.3877,-0.1310,0.1513,6.391
7.865000,-6.3289,-0.0946,0.0622,6.330
7.866000,-6.2622,-0.0691,-0.0124,6.263
7.870000,-6.2232,-0.0516,-0.0868,6.224
7.875000,-6.2049,-0.0473,-0.1731,6.208
7.883000,-6.2050,-0.0419,-0.2665,6.211
7.886000,-6.2138,-0.0280,-0.3863,6.226
7.891000,-6.2386,-0.0130,-0.5181,6.260
7.895000,-6.2791,0.0106,-0.6567,6.313
7.900000,-6.3187,0.0237,-0.7949,6.369
7.905000,-6.3669,0.0335,-0.9734,6.441
7.910000,-6.3974,0.0546,-1.1681,6.503
7.917000,-6.4293,0.0700,-1.3716,6.574
7.922000,-6.4412,0.0751,-1.6004,6.637
7.925000,-6.4378,0.0916,-1.8154,6.690
7.940000,-6.4240,0.1027,-2.0046,6.730
7.942000,-6.3927,0.0893,-2.1776,6.754
7.943000,-6.3511,0.0704,-2.3555,6.774
7.945000,-6.2994,0.0222,-2.5334,6.790
7.979000,-6.2278,-0.0432,-2.6986,6.787
7.980000,-6.1319,-0.1333,-2.8320,6.756
7.981000,-6.0164,-0.2408,-2.9240,6.694
7.982000,-5.8815,-0.3872,-2.9935,6.611
7.983000,-5.7345,-0.5775,-3.0403,6.516
7.983000,-5.5825,-0.7926,-3.0595,6.415
7.984000,-5.4329,-1.0253,-3.0416,6.310
7.986000,-5.3022,-1.2946,-2.9984,6.227
7.990000,-5.1883,-1.5792,-2.9084,6.154
7.996000,-5.0932,-1.8978,-2.7431,6.088
8.001000,-5.0217,-2.2408,-2.5316,6.054
8.006000,-4.9974,-2.5839,-2.2980,6.077
8.011000,-5.0513,-2.9149,-1.9942,6.164
8.017000,-5.1853,-3.2046,-1.6159,6.306
8.021000,-5.3561,-3.4717,-1.1610,6.488
8.026000,-5.5441,-3.6750,-0.6681,6.685
8.032000,-5.7299,-3.8453,-0.1690,6.903
8.036000,-5.8676,-4.0155,0.3296,7.118
8.041000,-5.9260,-4.2115,0.8082,7.315
8.045000,-5.8596,-4.4641,1.2405,7.470
8.056000,-5.6514,-4.7851,1.6171,7.580
8.057000,-5.2971,-5.1774,1.9517,7.660
8.061000,-4.8589,-5.6387,2.2729,7.783
8.086000,-4.3775,-6.1381,2.5653,7.964
8.088000,-3.9009,-6.6327,2.8213,8.196
8.091000,-3.4573,-7.1150,3.0453,8.476
8.091000,-3.0924,-7.5405,3.2750,8.783
8.092000,-2.8082,-7.8945,3.4699,9.069
8.092000,-2.5588,-8.1816,3.6015,9.298
8.096000,-2.2626,-8.4304,3.7067,9.483
8.101000,-1.9000,-8.6360,3.7646,9.611
8.106000,-1.5438,-8.8717,3.7751,9.764
8.111000,-1.2484,-9.1324,3.7960,9.968
8.116000,-1.0349,-9.3964,3.8583,10.210
8.121000,-0.8595,-9.6177,3.9737,10.442
8.126000,-0.6667,-9.7817,4.1416,10.643
8.136000,-0.4434,-9.8734,4.3783,10.810
8.137000,-0.1783,-9.9035,4.6443,10.940
8.141000,0.1031,-9.8645,4.8983,11.014
8.146000,0.4300,-9.7923,5.1539,11.074
8.168000,0.8386,-9.6822,5.4317,11.133
8.170000,1.3942,-9.4670,5.7159,11.146
8.171000,2.1021,-9.1159,5.9589,11.092
8.172000,2.9455,-8.6578,6.1618,11.027
8.173000,3.9064,-8.1088,6.2534,10.960
8.183000,4.9427,-7.4944,6.2065,10.914
8.184000,5.9865,-6.8349,5.9818,10.878
8.186000,7.0054,-6.1814,5.6059,10.895
8.191000,7.9747,-5.5178,5.0836,10.949
8.196000,8.8662,-4.8742,4.4345,11.047
8.201000,9.6471,-4.2207,3.6477,11.144
8.206000,10.2871,-3.5773,2.7868,11.242
8.211000,10.7525,-2.9727,1.9245,11.321
8.216000,11.0432,-2.3699,1.0871,11.347
8.221000,11.1596,-1.8114,0.2492,11.308
8.226000,11.1399,-1.2897,-0.5781,11.229
8.233000,11.0080,-0.7994,-1.3621,11.121
8.236000,10.7816,-0.3589,-2.0830,10.987
8.242000,10.4861,0.0297,-2.7019,10.829
8.246000,10.1275,0.3554,-3.2309,10.636
8.251000,9.7231,0.6047,-3.6905,10.417
8.257000,9.2785,0.8000,-4.1208,10.184
8.261000,8.8044,0.9519,-4.5338,9.949
8.272000,8.2938,1.1161,-4.9247,9.710
8.274000,7.7672,1.3055,-5.2790,9.482
8.277000,7.2515,1.5257,-5.5770,9.274
8.310000,6.7786,1.8084,-5.8133,9.111
8.312000,6.3823,2.1254,-5.9805,9.001
8.313000,6.0271,2.4484,-6.1051,8.921
8.314000,5.6983,2.7586,-6.1716,8.841
8.315000,5.4081,3.0419,-6.1708,8.751
8.316000,5.1423,3.3081,-6.0789,8.622
8.316000,4.9031,3.5286,-5.9036,8.447
8.317000,4.6858,3.7202,-5.6697,8.243
8.321000,4.4759,3.8803,-5.3821,8.004
8.326000,4.2662,3.9781,-5.0631,7.724
8.332000,4.0447,4.0491,-4.7233,7.421
8.336000,3.8283,4.1029,-4.4087,7.136
8.341000,3.6646,4.1273,-4.1535,6.908
8.346000,3.7444,4.1294,-4.0509,6.891
8.351000,3.5624,4.1159,-3.7587,6.615
8.356000,3.0979,4.0797,-3.3458,6.118
8.361000,2.6390,4.0521,-3.0786,5.732
8.372000,2.2413,4.0596,-2.9140,5.477
8.374000,1.8861,4.0426,-2.8446,5.291
8.377000,1.5853,4.0134,-2.8249,5.158
8.416000,1.3222,3.9622,-2.8212,5.040
8.418000,1.0822,3.9035,-2.8286,4.941
8.420000,0.8296,3.8493,-2.8445,4.858
8.421000,0.5957,3.7998,-2.8591,4.792
8.422000,0.3760,3.7193,-2.8797,4.719
8.422000,0.1540,3.6056,-2.8965,4.627
8.422000,-0.0866,3.4685,-2.8762,4.507
8.423000,-0.3548,3.3324,-2.8067,4.371
8.423000,-0.6356,3.2238,-2.7171,4.264
8.427000,-0.9312,3.1572,-2.6362,4.217
8.432000,-1.1958,3.1519,-2.5400,4.221
8.437000,-1.4149,3.1864,-2.4212,4.245
8.441000,-1.5935,3.2534,-2.2798,4.280
8.447000,-1.7220,3.3313,-2.1308,4.313
8.452000,-1.8199,3.4272,-1.9691,4.351
8.456000,-1.8967,3.5074,-1.7759,4.365
8.461000,-1.9431,3.6005,-1.5945,4.391
8.470000,-1.9377,3.7017,-1.4228,4.414
8.472000,-1.8783,3.8130,-1.2754,4.438
8.477000,-1.7917,3.9175,-1.1572,4.461
8.507000,-1.6447,4.0199,-1.0897,4.478
8.510000,-1.4543,4.0840,-1.0587,4.463
8.511000,-1.2402,4.1074,-1.0353,4.414
8.513000,-1.0362,4.1017,-1.0339,4.355
8.514000,-0.8711,4.0502,-1.0594,4.276
8.514000,-0.7326,3.9770,-1.0901,4.188
8.515000,-0.5682,3.9324,-1.1452,4.135
8.517000,-0.3925,3.8301,-1.2316,4.042
8.521000,-0.2005,3.6680,-1.3037,3.898
8.527000,-0.0135,3.4678,-1.3615,3.725
8.533000,0.1878,3.2439,-1.4194,3.546
8.537000,0.3770,3.0037,-1.4894,3.374
8.542000,0.5544,2.7567,-1.5641,3.218
8.550000,0.7129,2.5272,-1.6266,3.089
8.553000,0.8551,2.3246,-1.6912,2.999
8.557000,0.9953,2.1371,-1.7507,2.936
8.563000,1.1410,1.9839,-1.8001,2.912
8.569000,1.3160,1.8338,-1.8488,2.918
8.572000,1.5272,1.6845,-1.8657,2.941
8.578000,1.7675,1.5287,-1.8913,3.006
8.587000,2.0294,1.3784,-1.8968,3.101
8.589000,2.3201,1.2358,-1.8654,3.223
8.592000,2.6105,1.1033,-1.7636,3.338
8.597000,2.8789,0.9997,-1.5846,3.435
8.639000,3.1327,0.9083,-1.3648,3.536
8.641000,3.3695,0.8289,-1.1336,3.650
8.641000,3.6131,0.7399,-0.8885,3.794
8.642000,3.8800,0.6436,-0.6633,3.989
8.642000,4.2320,0.5134,-0.5082,4.293
8.642000,4.6275,0.3465,-0.4299,4.660
8.643000,5.0822,0.1236,-0.4062,5.100
8.643000,5.5926,-0.1846,-0.4626,5.615
8.644000,6.1290,-0.5663,-0.5361,6.178
8.647000,6.6521,-1.0220,-0.5978,6.757
8.653000,7.0635,-1.5328,-0.6067,7.253
8.657000,7.3012,-2.0651,-0.5634,7.609
8.662000,7.3255,-2.5638,-0.4106,7.772
8.670000,7.1156,-2.9713,-0.1730,7.713
8.672000,6.7186,-3.2871,0.1293,7.481
8.677000,6.1789,-3.4751,0.4765,7.105
8.699000,5.5551,-3.5443,0.8272,6.641
8.700000,4.9488,-3.5328,1.1473,6.188
8.701000,4.4511,-3.4381,1.4321,5.804
8.702000,4.0759,-3.3273,1.6672,5.519
8.702000,3.7942,-3.2294,1.8836,5.327
8.707000,3.5838,-3.1278,2.0792,5.191
8.713000,3.4089,-3.0442,2.2512,5.095
8.718000,3.2691,-2.9620,2.4210,5.032
8.722000,3.2241,-2.9028,2.5619,5.038
8.728000,3.1635,-2.8526,2.6522,5.018
8.733000,3.2085,-2.8406,2.6728,5.051
8.737000,3.3327,-2.8787,2.6002,5.114
8.743000,3.4825,-2.9554,2.4492,5.183
8.747000,3.6359,-3.0593,2.2179,5.244
8.752000,3.7278,-3.1881,1.9334,5.272
8.758000,3.7172,-3.3424,1.5889,5.245
8.762000,3.5908,-3.5165,1.2356,5.176
8.768000,3.3583,-3.6939,0.8665,5.067
8.772000,3.0753,-3.8717,0.5256,4.972
8.778000,2.7401,-4.0806,0.2062,4.920
8.788000,2.3510,-4.3082,-0.0458,4.908
8.790000,1.9058,-4.5542,-0.2325,4.942
8.792000,1.4256,-4.7789,-0.3298,4.998
8.825000,0.9276,-4.9484,-0.3404,5.046
8.828000,0.4052,-5.0383,-0.2594,5.061
8.828000,-0.1240,-5.0696,-0.1157,5.072
8.831000,-0.6671,-5.0589,0.0715,5.103
8.832000,-1.1698,-4.9616,0.2921,5.106
8.832000,-1.6111,-4.8043,0.5153,5.093
8.833000,-1.9789,-4.5916,0.7433,5.055
8.833000,-2.2518,-4.3498,0.9713,4.993
8.837000,-2.4326,-4.0720,1.2115,4.896
8.843000,-2.5259,-3.7912,1.4538,4.782
8.849000,-2.5300,-3.5058,1.6910,4.642
8.852000,-2.4407,-3.2184,1.9370,4.480
8.858000,-2.2824,-2.9176,2.1583,4.287
8.863000,-2.0964,-2.6256,2.3709,4.112
8.868000,-1.8954,-2.3335,2.5746,3.958
8.873000,-1.7271,-2.0485,2.7419,3.834
8.879000,-1.5873,-1.7355,2.9041,3.737
8.886000,-1.4881,-1.4568,3.0654,3.706
8.890000,-1.4224,-1.1984,3.2060,3.706
8.892000,-1.4002,-0.9845,3.3257,3.740
8.898000,-1.4138,-0.8004,3.4185,3.785
8.926000,-1.4777,-0.6273,3.4772,3.830
8.928000,-1.5608,-0.4866,3.4943,3.858
8.928000,-1.7013,-0.3662,3.4841,3.895
8.929000,-1.8752,-0.2376,3.4249,3.912
8.929000,-2.0701,-0.0881,3.3214,3.915
8.930000,-2.2692,0.0583,3.1711,3.900
8.938000,-2.4630,0.1945,2.9887,3.878
8.940000,-2.6346,0.3205,2.7674,3.834
8.942000,-2.7865,0.4221,2.5242,3.783
8.948000,-2.9065,0.5141,2.2641,3.720
8.953000,-3.0067,0.6106,2.0187,3.673
8.959000,-3.0824,0.6974,1.7738,3.624
8.964000,-3.1599,0.7720,1.5272,3.594
8.969000,-3.2420,0.8365,1.2841,3.586
8.975000,-3.3209,0.8796,1.0615,3.596
8.978000,-3.4018,0.9081,0.8644,3.626
8.983000,-3.5133,0.9341,0.7070,3.703
8.988000,-3.6433,0.9768,0.5632,3.814
8.993000,-3.7751,1.0171,0.4257,3.933
9.001000,-3.9158,1.0550,0.2899,4.066
9.005000,-4.0436,1.0910,0.1539,4.191
9.008000,-4.1753,1.1203,0.0394,4.323
9.013000,-4.2870,1.1381,-0.0748,4.436
9.032000,-4.3095,1.1444,-0.1694,4.462
9.033000,-4.4845,1.1535,-0.2515,4.637
9.034000,-4.5724,1.1656,-0.3280,4.730
9.034000,-4.6453,1.1784,-0.3891,4.808
9.038000,-4.7104,1.1845,-0.4297,4.876
9.042000,-4.7534,1.1743,-0.4618,4.918
9.049000,-4.7864,1.1503,-0.4877,4.947
9.053000,-4.7976,1.1191,-0.4835,4.950
9.058000,-4.8060,1.0694,-0.4708,4.946
9.063000,-4.8213,1.0079,-0.4593,4.947
9.068000,-4.8363,0.9442,-0.4298,4.946
9.073000,-4.8465,0.8472,-0.4038,4.936
9.079000,-4.8638,0.7333,-0.3692,4.933
9.084000,-4.8927,0.6126,-0.3309,4.942
9.088000,-4.9023,0.4706,-0.2959,4.934
9.093000,-4.9046,0.3050,-0.2668,4.921
9.108000,-4.9163,0.1156,-0.2388,4.923
9.111000,-4.9254,-0.1023,-0.2170,4.931
9.111000,-4.9342,-0.3434,-0.2060,4.950
9.113000,-4.9474,-0.6126,-0.2130,4.990
9.121000,-4.9554,-0.8929,-0.2401,5.041
9.123000,-4.9558,-1.1914,-0.2610,5.104
9.128000,-4.9652,-1.4961,-0.2825,5.193
9.139000,-4.9834,-1.8063,-0.3096,5.310
9.145000,-5.0177,-2.1150,-0.3181,5.454
9.147000,-5.0797,-2.4242,-0.2987,5.636
9.150000,-5.1787,-2.7480,-0.2274,5.867
9.178000,-5.3242,-3.0617,-0.1406,6.143
9.183000,-5.4966,-3.3484,-0.0383,6.436
9.184000,-5.7028,-3.6074,0.1078,6.749
9.185000,-5.9233,-3.8214,0.2618,7.054
9.185000,-6.1388,-4.0186,0.4354,7.350
9.186000,-6.3155,-4.1986,0.6502,7.612
9.187000,-6.4316,-4.3774,0.8824,7.830
9.188000,-6.4799,-4.5621,1.1147,8.003
9.193000,-6.4413,-4.7954,1.3520,8.143
9.199000,-6.3084,-5.0651,1.5630,8.240
9.203000,-6.0743,-5.3761,1.7357,8.295
9.208000,-5.7508,-5.7401,1.8562,8.335
9.213000,-5.3790,-6.1219,1.9599,8.382
9.217000,-5.0234,-6.4760,2.1040,8.462
9.223000,-4.7628,-6.7858,2.2805,8.598
9.228000,-4.5969,-7.0392,2.5006,8.771
9.237000,-4.5227,-7.2310,2.7207,8.952
9.239000,-4.4654,-7.3917,2.9358,9.121
9.242000,-4.3748,-7.4931,3.1338,9.225
9.265000,-4.2338,-7.5923,3.3080,9.301
9.266000,-4.0423,-7.6921,3.4299,9.342
9.267000,-3.8385,-7.7949,3.4974,9.366
9.268000,-3.6050,-7.9006,3.5395,9.378
9.268000,-3.3569,-7.9580,3.5731,9.347
9.273000,-3.1055,-7.9979,3.6128,9.309
9.278000,-2.8147,-7.9943,3.6851,9.242
9.284000,-2.4391,-7.9716,3.7778,9.152
9.289000,-1.9541,-7.9438,3.9030,9.064
9.293000,-1.3515,-7.8773,4.0602,8.965
9.298000,-0.6502,-7.7888,4.2298,8.887
9.303000,0.1564,-7.6793,4.3922,8.848
9.307000,1.0031,-7.5236,4.5536,8.851
9.313000,1.8699,-7.3036,4.6722,8.870
9.317000,2.7521,-7.0051,4.7349,8.892
9.322000,3.6450,-6.6427,4.7384,8.937
9.327000,4.5003,-6.2072,4.6434,8.963
9.334000,5.2907,-5.7284,4.4517,8.979
9.338000,6.0126,-5.1786,4.1178,8.940
9.342000,6.6514,-4.5508,3.6775,8.859
9.364000,7.1808,-3.8734,3.1486,8.745
9.365000,7.6318,-3.1942,2.5317,8.652
9.365000,8.0013,-2.5515,1.8492,8.599
9.365000,8.3005,-1.9769,1.1121,8.605
9.368000,8.5632,-1.4721,0.3498,8.696
9.373000,8.7901,-0.9996,-0.4447,8.858
9.378000,9.0270,-0.5777,-1.2319,9.129
9.383000,9.2784,-0.1894,-1.9841,9.490
9.389000,9.5080,0.1918,-2.6738,9.879
9.393000,9.6797,0.5663,-3.2881,10.239
9.398000,9.7460,0.9299,-3.8456,10.518
9.403000,9.6801,1.2826,-4.3351,10.684
9.408000,9.5090,1.6038,-4.7371,10.744
9.413000,9.2310,1.9035,-5.0441,10.690
9.419000,8.8729,2.1610,-5.2680,10.543
9.423000,8.8948,2.3936,-5.4182,10.687
9.428000,7.9811,2.5993,-5.4845,10.027
9.434000,7.4942,2.8146,-5.4315,9.674
9.438000,7.0468,3.0324,-5.2932,9.320
9.443000,6.8658,3.2649,-5.1990,9.210
9.480000,6.6013,3.4256,-5.0127,8.969
9.481000,6.0644,3.5432,-4.5586,8.373
9.482000,5.4667,3.6634,-4.0893,7.748
9.483000,4.9309,3.7961,-3.6105,7.194
9.483000,4.4718,3.9199,-3.1205,6.716
9.484000,4.1298,4.0012,-2.6563,6.334
9.484000,3.8835,4.0330,-2.2688,6.041
9.485000,3.6582,4.0124,-1.9105,5.756
9.489000,3.4514,3.9587,-1.5745,5.483
9.494000,3.2176,3.8812,-1.2544,5.195
9.499000,2.9713,3.8206,-0.9744,4.937
9.505000,2.6914,3.7651,-0.7254,4.685
9.509000,2.3902,3.7028,-0.5151,4.437
9.514000,2.0417,3.6388,-0.3459,4.187
9.519000,1.6586,3.5660,-0.2176,3.939
9.523000,1.2365,3.5111,-0.1041,3.724
9.528000,0.7854,3.4240,-0.0123,3.513
9.535000,0.2898,3.3153,0.0315,3.328
9.538000,-0.2401,3.1757,0.0014,3.185
9.543000,-0.7675,3.0560,-0.1117,3.153
9.553000,-0.7970,2.9904,-0.2856,3.108
9.556000,-1.6179,2.9668,-0.4888,3.414
9.559000,-1.9419,2.9908,-0.6699,3.628
9.591000,-2.1978,3.0409,-0.8291,3.842
9.593000,-2.3472,3.1027,-0.9636,4.008
9.594000,-2.3951,3.1740,-1.0781,4.120
9.594000,-2.3732,3.2664,-1.1604,4.201
9.594000,-2.3271,3.3870,-1.1865,4.277
9.595000,-2.2620,3.5212,-1.1855,4.350
9.597000,-2.2092,3.6902,-1.1718,4.458
9.598000,-2.1762,3.8749,-1.1455,4.589
9.603000,-2.1487,4.0606,-1.1284,4.731
9.609000,-2.1148,4.2305,-1.1061,4.857
9.614000,-2.0556,4.3511,-1.1000,4.936
9.618000,-1.9903,4.4224,-1.0933,4.971
9.623000,-1.9215,4.4635,-1.1006,4.983
9.628000,-1.8444,4.4625,-1.1075,4.954
9.634000,-1.7614,4.4480,-1.1259,4.915
9.639000,-1.6724,4.3963,-1.1631,4.845
9.643000,-1.6204,4.2882,-1.1926,4.737
9.653000,-1.5739,4.1314,-1.2192,4.586
9.655000,-1.5231,3.9333,-1.2501,4.399
9.658000,-1.4199,3.7060,-1.3139,4.181
9.663000,-1.3050,3.4639,-1.4055,3.959
9.683000,-1.1832,3.1880,-1.5437,3.734
9.684000,-1.0350,2.8690,-1.7040,3.494
9.685000,-0.8486,2.5143,-1.8761,3.250
9.685000,-0.6358,2.1313,-2.0523,3.026
9.688000,-0.3825,1.7533,-2.1913,2.832
9.694000,-0.1221,1.3613,-2.2546,2.637
9.699000,0.1575,0.9720,-2.2637,2.469
9.704000,0.4277,0.6095,-2.2044,2.327
9.709000,0.7100,0.3024,-2.1101,2.247
9.714000,1.0096,0.0792,-1.9474,2.195
9.719000,1.3091,-0.0677,-1.7213,2.164
9.724000,1.6182,-0.1265,-1.4226,2.158
9.728000,1.9297,-0.0905,-1.0520,2.200
9.735000,2.2528,0.0255,-0.6173,2.336
9.739000,2.5852,0.2214,-0.1549,2.599
9.744000,2.9305,0.5128,0.3483,2.995
9.749000,3.2978,0.8801,0.8654,3.521
9.754000,3.6865,1.2798,1.3670,4.135
9.759000,4.1482,1.6585,1.8187,4.824
9.766000,4.6748,1.9634,2.1989,5.527
9.770000,5.3076,2.1671,2.4734,6.244
9.774000,6.0500,2.2550,2.6423,6.976
9.779000,6.8623,2.1980,2.7461,7.711
9.792000,7.6760,1.9860,2.8136,8.413
9.799000,8.4469,1.6737,2.8778,9.079
9.799000,9.0811,1.2896,2.9386,9.631
9.800000,9.5590,0.8407,3.0141,10.058
9.804000,9.9430,0.3367,2.9752,10.384
9.809000,10.1663,-0.1529,2.8078,10.548
9.840000,10.1839,-0.6234,2.5940,10.528
9.842000,9.9749,-1.0529,2.3798,10.309
9.842000,9.5388,-1.4051,2.1870,9.887
9.843000,8.9082,-1.6482,1.9755,9.272
9.844000,8.1972,-1.8152,1.7242,8.571
9.844000,8.1390,-1.9390,1.4364,8.489
9.845000,6.8514,-2.0598,1.1083,7.240
9.850000,6.2886,-2.1362,0.8199,6.692
9.854000,5.8113,-2.2017,0.6150,6.245
9.859000,5.3839,-2.2034,0.4939,5.838
9.865000,5.0187,-2.1484,0.4995,5.482
9.869000,4.7155,-2.0367,0.6003,5.172
9.874000,4.5110,-1.8897,0.7715,4.951
9.879000,4.4163,-1.7387,0.9504,4.840
9.886000,4.4645,-1.6775,1.0983,4.894
9.889000,4.6690,-1.7136,1.1888,5.114
9.894000,4.9972,-1.8501,1.2243,5.468
9.915000,5.3797,-2.0753,1.2333,5.896
9.916000,5.7265,-2.3612,1.2204,6.313
9.917000,5.9417,-2.6677,1.1570,6.615
9.917000,5.9798,-2.9736,1.0692,6.763
9.920000,5.8463,-3.2835,0.9427,6.771
9.925000,5.5676,-3.5930,0.8116,6.676
9.932000,5.2079,-3.8888,0.6950,6.537
9.935000,4.7796,-4.1757,0.5907,6.374
9.939000,4.3290,-4.4532,0.4871,6.230
9.944000,3.8781,-4.7088,0.3895,6.113
9.950000,3.4129,-4.9139,0.3271,5.992
9.954000,2.9349,-5.0719,0.3049,5.868
9.959000,2.4561,-5.1756,0.3205,5.738
9.966000,1.9698,-5.2126,0.4052,5.587
9.971000,1.4862,-5.1850,0.5539,5.422
9.974000,1.0193,-5.0810,0.7258,5.233
9.979000,0.5657,-4.9279,0.9251,5.046
9.985000,0.1465,-4.7261,1.1828,4.874
9.991000,-0.2213,-4.4993,1.4697,4.738
9.995000,-0.5211,-4.2570,1.7686,4.639
10.006000,-0.7536,-3.9851,2.0576,4.548
10.007000,-0.9157,-3.7119,2.3219,4.473
10.011000,-0.9940,-3.4547,2.5563,4.411
10.044000,-1.0200,-3.1995,2.7629,4.349
10.045000,-1.0324,-2.9466,2.9532,4.298
10.046000,-1.0316,-2.7086,3.1101,4.251
10.047000,-1.0423,-2.4766,3.2358,4.206
10.047000,-1.1021,-2.2620,3.2985,4.149
10.048000,-1.1996,-2.0727,3.3198,4.093
10.048000,-1.3419,-1.9063,3.2877,4.030
10.051000,-1.5171,-1.7484,3.2022,3.951
10.054000,-1.7278,-1.6283,3.0613,3.874
10.059000,-1.9612,-1.5209,2.8652,3.791
10.065000,-2.2057,-1.4458,2.6405,3.732
10.072000,-2.4730,-1.3716,2.3948,3.706
10.075000,-2.7415,-1.3125,2.1429,3.719
10.080000,-3.0138,-1.2663,1.9017,3.782
10.085000,-3.2603,-1.2056,1.6476,3.847
10.090000,-3.4839,-1.1522,1.4216,3.935
10.095000,-3.6940,-1.1011,1.2046,4.038
10.118000,-3.8714,-1.0596,0.9826,4.132
10.120000,-4.0309,-1.0278,0.7630,4.229
10.120000,-4.1767,-0.9834,0.5486,4.326
10.121000,-4.3212,-0.9458,0.3347,4.436
10.121000,-4.4594,-0.9126,0.1262,4.554
10.124000,-4.5938,-0.8717,-0.0865,4.677
10.131000,-4.7340,-0.8206,-0.2958,4.814
10.135000,-4.8706,-0.7574,-0.5138,4.956
10.140000,-4.9936,-0.6977,-0.7327,5.095
10.146000,-5.1059,-0.6423,-0.9308,5.230
10.151000,-5.2002,-0.5956,-1.1153,5.352
10.155000,-5.2861,-0.5552,-1.2954,5.471
10.160000,-5.3735,-0.5216,-1.4496,5.590
10.165000,-5.4501,-0.4937,-1.5852,5.697
10.172000,-5.5184,-0.4745,-1.7067,5.796
10.178000,-5.5833,-0.4592,-1.7976,5.884
10.186000,-5.6473,-0.4429,-1.8746,5.967
10.187000,-5.7033,-0.4381,-1.9163,6.033
10.192000,-5.7655,-0.4487,-1.9441,6.101
10.197000,-5.8292,-0.4775,-1.9511,6.166
10.206000,-5.8824,-0.5148,-1.9444,6.217
10.207000,-5.9158,-0.5943,-1.9145,6.246
10.210000,-5.9413,-0.6754,-1.8758,6.267
10.242000,-5.9516,-0.7886,-1.8381,6.279
10.244000,-5.9492,-0.9462,-1.7871,6.283
10.244000,-5.9389,-1.1337,-1.7301,6.289
10.244000,-5.9303,-1.3439,-1.6436,6.299
10.245000,-5.9210,-1.5722,-1.5255,6.313
10.246000,-5.9395,-1.8131,-1.4127,6.369
10.246000,-5.9714,-2.0429,-1.3121,6.446
10.252000,-6.0024,-2.2828,-1.2238,6.537
10.255000,-6.0517,-2.5114,-1.1143,6.646
10.260000,-6.1167,-2.7500,-1.0028,6.781
10.265000,-6.1903,-3.0032,-0.9110,6.940
10.270000,-6.2746,-3.2678,-0.8391,7.124
10.275000,-6.3840,-3.5413,-0.7942,7.343
10.281000,-6.4992,-3.7994,-0.7545,7.566
10.286000,-6.6036,-4.0418,-0.7320,7.777
10.292000,-6.7090,-4.2874,-0.7260,7.995
10.296000,-6.8393,-4.5402,-0.6958,8.239
10.301000,-6.9728,-4.8167,-0.6554,8.500
10.305000,-7.1046,-5.0971,-0.5809,8.763
10.311000,-7.2347,-5.3640,-0.4770,9.019
10.315000,-7.3390,-5.5764,-0.3029,9.222
10.344000,-7.4174,-5.7770,-0.1021,9.402
10.345000,-7.4388,-5.9848,0.0993,9.548
10.346000,-7.4057,-6.2020,0.2870,9.664
10.347000,-7.2988,-6.4356,0.4422,9.741
10.347000,-7.1063,-6.6713,0.5607,9.763
10.348000,-6.8688,-6.9161,0.6811,9.771
10.350000,-6.6200,-7.1587,0.7913,9.783
10.355000,-6.3764,-7.3632,0.8747,9.780
10.361000,-6.1474,-7.5058,0.9550,9.749
10.365000,-5.9449,-7.5794,1.0464,9.689
10.372000,-5.7614,-7.6032,1.1634,9.610
10.375000,-5.6136,-7.6065,1.2956,9.542
10.381000,-5.4844,-7.5723,1.4476,9.461
10.386000,-5.3472,-7.5197,1.6073,9.366
10.391000,-5.1827,-7.4275,1.7841,9.231
10.396000,-4.9691,-7.3313,1.9495,9.069
10.401000,-4.6876,-7.2683,2.0719,8.894
10.405000,-4.3165,-7.2481,2.1542,8.707
10.411000,-3.8535,-7.3024,2.2128,8.548
10.422000,-3.3322,-7.3838,2.2356,8.404
10.424000,-2.7930,-7.4922,2.2893,8.317
10.426000,-2.2534,-7.6080,2.3873,8.286
10.430000,-1.7419,-7.7334,2.5340,8.322
10.462000,-1.2583,-7.8542,2.6855,8.395
10.464000,-0.7641,-7.9752,2.8199,8.493
10.465000,-0.2379,-8.0824,2.9127,8.594
10.467000,0.3280,-8.1440,2.9755,8.677
10.468000,0.9134,-8.1671,2.9961,8.747
10.469000,1.4923,-8.1247,2.9502,8.772
10.470000,2.0766,-8.0009,2.8041,8.729
10.472000,2.6466,-7.7677,2.5581,8.596
10.476000,3.1478,-7.4224,2.2435,8.369
10.481000,3.6097,-6.9772,1.8821,8.078
10.485000,3.9990,-6.4724,1.5052,7.756
10.492000,4.3418,-5.9277,1.1108,7.431
10.496000,4.6448,-5.3675,0.7134,7.134
10.501000,4.9250,-4.7987,0.3111,6.883
10.505000,5.1761,-4.2325,-0.0858,6.687
10.512000,5.4077,-3.7115,-0.4692,6.576
10.516000,5.6196,-3.2336,-0.8265,6.536
10.521000,5.8354,-2.8178,-1.1422,6.580
10.526000,6.0330,-2.4689,-1.4061,6.669
10.532000,6.2441,-2.1911,-1.6178,6.812
10.537000,6.4502,-1.9616,-1.7669,6.970
10.541000,6.6302,-1.7724,-1.8317,7.103
10.545000,6.8005,-1.6165,-1.7834,7.214
10.575000,6.9394,-1.4842,-1.6460,7.285
10.577000,7.0162,-1.3413,-1.4249,7.284
10.577000,7.0296,-1.1841,-1.1466,7.220
10.578000,6.9755,-1.0119,-0.8188,7.096
10.578000,6.8563,-0.8293,-0.4660,6.922
10.579000,6.6628,-0.6096,-0.1123,6.692
10.581000,6.4266,-0.3643,0.2347,6.441
10.585000,6.1473,-0.0939,0.5746,6.175
10.591000,5.8685,0.2143,0.8735,5.937
10.596000,5.6048,0.5700,1.1412,5.748
10.600000,5.3658,0.9542,1.4204,5.632
10.606000,5.1658,1.3667,1.6797,5.601
10.611000,5.0027,1.7698,1.9210,5.643
10.617000,4.8659,2.1627,2.1488,5.742
10.621000,4.7628,2.5196,2.3408,5.875
10.627000,4.6957,2.8547,2.4970,6.036
10.632000,4.6474,3.1513,2.6216,6.197
10.636000,4.6135,3.3975,2.7167,6.341
10.640000,4.5786,3.6027,2.7844,6.457
10.645000,4.5214,3.7693,2.8052,6.521
10.655000,4.4349,3.8784,2.7477,6.501
10.657000,4.3191,3.9517,2.6169,6.412
10.661000,4.1792,4.0108,2.4201,6.278
10.698000,4.0008,4.0391,2.1821,6.090
10.699000,3.7747,4.0273,1.9007,5.838
10.701000,3.5157,4.0211,1.5932,5.574
10.702000,3.2314,3.9992,1.2746,5.297
10.702000,2.9226,3.9668,0.9500,5.018
10.702000,2.6277,3.9527,0.6395,4.789
10.703000,2.3567,3.9287,0.3458,4.594
10.704000,2.0981,3.9091,0.0718,4.437
10.706000,1.8593,3.8896,-0.1823,4.315
10.711000,1.6624,3.8799,-0.3995,4.240
10.716000,1.5023,3.8848,-0.5791,4.205
10.721000,1.3627,3.9069,-0.7239,4.201
10.726000,1.2317,3.9462,-0.8381,4.218
10.731000,1.1286,4.0196,-0.9028,4.272
10.736000,1.0461,4.1294,-0.9322,4.361
10.742000,0.9867,4.2493,-0.9149,4.457
10.747000,0.9380,4.3791,-0.8744,4.563
10.752000,0.9144,4.5139,-0.7993,4.674
10.758000,0.9159,4.6179,-0.7330,4.765
10.761000,0.9328,4.7125,-0.6659,4.850
10.783000,0.9818,4.7978,-0.6224,4.937
10.784000,1.0217,4.8088,-0.6476,4.959
10.784000,1.1193,4.8604,-0.6149,5.025
10.785000,1.2720,4.8808,-0.5173,5.070
10.787000,1.3745,4.8627,-0.4986,5.078
10.792000,1.4557,4.8205,-0.4848,5.059
10.800000,1.5415,4.7398,-0.4900,5.008
10.801000,1.6345,4.6256,-0.5095,4.932
10.806000,1.7325,4.4826,-0.5363,4.836
10.811000,1.8689,4.3158,-0.5701,4.737
10.816000,2.0105,4.1467,-0.6064,4.648
10.821000,2.1712,3.9704,-0.6471,4.571
10.826000,2.3320,3.8182,-0.6782,4.525
10.832000,2.4953,3.6492,-0.7115,4.478
10.837000,2.6613,3.4900,-0.7590,4.454
10.841000,2.8399,3.3429,-0.7992,4.459
10.847000,3.0089,3.2079,-0.8367,4.477
10.851000,3.1952,3.1448,-0.8905,4.571
10.857000,3.4082,3.1201,-0.9389,4.715
10.861000,3.6477,3.1240,-0.9723,4.900
10.877000,3.9091,3.1281,-1.0000,5.106
10.879000,4.2038,3.1345,-1.0431,5.346
10.881000,4.5242,3.1863,-1.0845,5.639
10.882000,4.8533,3.2857,-1.0951,5.962
10.926000,5.1927,3.4398,-1.0626,6.319
10.928000,5.5443,3.6171,-0.9821,6.692
10.928000,5.9075,3.8032,-0.8537,7.077
10.929000,6.2931,3.9833,-0.6940,7.480
10.930000,6.7243,4.1335,-0.5294,7.911
10.930000,7.1929,4.2653,-0.3649,8.370
10.931000,7.6667,4.3211,-0.1741,8.802
10.932000,8.1711,4.2790,0.0856,9.224
10.932000,8.8579,4.0481,0.2129,9.741
10.932000,9.6208,3.7045,0.3037,10.314
10.941000,10.3720,3.2432,0.3437,10.873
10.943000,11.0412,2.6711,0.3786,11.366
10.948000,11.5921,2.0405,0.4204,11.778
10.953000,11.9484,1.4016,0.4950,12.041
10.956000,12.0652,0.7947,0.5690,12.105
10.962000,11.9457,0.2126,0.6613,11.966
10.968000,11.6415,-0.3328,0.7334,11.669
10.971000,11.2131,-0.8297,0.7427,11.268
10.976000,10.7369,-1.3615,0.7369,10.848
11.002000,10.2661,-1.9232,0.7619,10.472
11.003000,9.8351,-2.5267,0.8106,10.187
11.004000,9.4110,-3.1696,0.8736,9.969
11.004000,8.9918,-3.8018,0.9798,9.812
11.007000,8.5416,-4.3793,1.1552,9.668
11.008000,8.0463,-4.8905,1.4139,9.521
11.012000,7.5092,-5.2945,1.7861,9.360
11.017000,6.9338,-5.5864,2.2303,9.179
11.022000,6.3321,-5.7642,2.6999,8.978
11.027000,5.7542,-5.8389,3.1458,8.781
11.033000,5.2404,-5.8564,3.5578,8.626
11.039000,4.8361,-5.8572,3.8971,8.537
11.043000,4.5457,-5.8488,4.1659,8.499
11.048000,4.3592,-5.8865,4.3543,8.521
11.051000,4.2515,-5.9686,4.4388,8.568
11.057000,4.1971,-6.0921,4.4217,8.619
11.062000,4.1519,-6.2385,4.3060,8.643
11.069000,4.0967,-6.3938,4.1187,8.639
11.072000,4.0050,-6.5366,3.8721,8.588
11.077000,3.8595,-6.6914,3.5861,8.517
11.103000,3.6599,-6.8688,3.3016,8.454
11.104000,3.4155,-7.0547,3.0164,8.398
11.105000,3.1030,-7.2152,2.7403,8.318
11.107000,2.7444,-7.3332,2.4639,8.208
11.108000,2.3300,-7.4091,2.2019,8.073
11.109000,1.8642,-7.4910,1.9738,7.968
11.113000,1.3518,-7.5718,1.8298,7.906
11.120000,0.8150,-7.6172,1.7529,7.859
11.123000,0.2661,-7.5906,1.6878,7.781
11.128000,-0.2832,-7.4827,1.6374,7.665
11.133000,-0.8480,-7.3321,1.6207,7.557
11.137000,-1.4239,-7.1269,1.6377,7.450
11.142000,-2.0085,-6.8808,1.6693,7.360
11.147000,-2.5177,-6.5909,1.7346,7.265
11.152000,-2.9518,-6.2735,1.8000,7.163
11.157000,-3.2876,-5.9342,1.8727,7.038
11.162000,-3.5223,-5.6050,1.9477,6.900
11.169000,-3.6999,-5.2821,2.0178,6.757
11.172000,-3.7993,-4.9755,2.0855,6.598
11.178000,-3.8234,-4.6756,2.1699,6.418
11.187000,-3.7994,-4.4101,2.2514,6.241
11.188000,-3.7366,-4.1853,2.3416,6.080
11.198000,-3.6622,-3.9857,2.4165,5.928
11.199000,-3.5691,-3.8235,2.4612,5.781
11.235000,-3.4602,-3.6729,2.4707,5.618
11.237000,-3.3814,-3.5373,2.4379,5.467
11.238000,-3.3396,-3.4112,2.3652,5.328
11.238000,-3.3542,-3.2980,2.2455,5.212
11.239000,-3.4278,-3.1977,2.0815,5.129
11.240000,-3.5554,-3.1199,1.8736,5.088
11.240000,-3.7444,-3.0580,1.6364,5.104
11.240000,-3.9583,-3.0128,1.3631,5.158
11.242000,-4.1804,-2.9848,1.0782,5.249
11.250000,-4.4179,-2.9736,0.8202,5.388
11.252000,-4.6611,-2.9621,0.5510,5.550
11.257000,-4.8884,-2.9406,0.2997,5.713
11.262000,-5.1025,-2.9190,0.0688,5.879
11.269000,-5.3005,-2.8698,-0.1320,6.029
11.272000,-5.4850,-2.8266,-0.3122,6.178
11.277000,-5.6584,-2.7990,-0.4719,6.330
11.290000,-5.8015,-2.7939,-0.6326,6.470
11.291000,-5.9409,-2.7901,-0.7894,6.611
11.293000,-6.0380,-2.7815,-0.9400,6.714
11.328000,-6.1003,-2.7832,-1.1035,6.795
11.330000,-6.1732,-2.7926,-1.2559,6.891
11.332000,-6.2162,-2.7860,-1.3830,6.951
11.332000,-6.2868,-2.7828,-1.4944,7.036
11.333000,-6.3609,-2.7606,-1.5881,7.114
11.334000,-6.4530,-2.7436,-1.6855,7.212
11.335000,-6.5510,-2.7317,-1.7651,7.314
11.335000,-6.6479,-2.7201,-1.8247,7.411
11.338000,-6.7652,-2.7064,-1.8954,7.529
11.342000,-6.8883,-2.7040,-1.9436,7.651
11.347000,-7.0031,-2.6986,-1.9739,7.760
11.353000,-7.0975,-2.6851,-1.9763,7.842
11.358000,-7.1573,-2.6657,-1.9625,7.886
11.363000,-7.1754,-2.6643,-1.9372,7.895
11.368000,-7.1257,-2.6621,-1.8738,7.834
11.373000,-7.0489,-2.6968,-1.7940,7.757
11.377000,-6.9402,-2.7112,-1.6645,7.635
11.384000,-6.8309,-2.7367,-1.4879,7.508
11.387000,-6.7162,-2.7782,-1.2956,7.383
11.392000,-6.6178,-2.8430,-1.0758,7.283
11.401000,-6.5353,-2.9329,-0.8319,7.211
11.404000,-6.4784,-3.0266,-0.5934,7.175
11.407000,-6.4352,-3.1119,-0.4019,7.159
11.412000,-6.3934,-3.1695,-0.2122,7.139
11.424000,-6.3342,-3.1925,-0.0509,7.093
11.427000,-6.2743,-3.2167,0.0862,7.051
11.428000,-6.2113,-3.2447,0.2039,7.011
11.474000,-6.1668,-3.2789,0.2854,6.990
11.476000,-6.1455,-3.3170,0.3450,6.992
11.477000,-6.1404,-3.3733,0.3586,7.015
11.477000,-6.1703,-3.4212,0.3336,7.063
11.478000,-6.2187,-3.4893,0.2967,7.137
11.479000,-6.2733,-3.5533,0.2554,7.214
11.479000,-6.3437,-3.6153,0.2124,7.305
11.480000,-6.3987,-3.6869,0.1680,7.387
11.480000,-6.4262,-3.7460,0.1298,7.439
11.481000,-6.4264,-3.7881,0.0911,7.460
11.482000,-6.3822,-3.7842,0.0807,7.420
11.487000,-6.3106,-3.7510,0.0848,7.342
11.493000,-6.2017,-3.6863,0.1321,7.216
11.499000,-6.0557,-3.6089,0.1944,7.052
11.502000,-5.8319,-3.5291,0.2644,6.822
11.509000,-5.5350,-3.4398,0.3230,6.525
11.512000,-5.1676,-3.3892,0.3630,6.191
11.518000,-4.7490,-3.3923,0.3481,5.846
11.523000,-4.3101,-3.4658,0.2523,5.536
11.527000,-3.8656,-3.5992,0.0659,5.282
11.538000,-3.4968,-3.8041,-0.1938,5.171
11.540000,-3.2082,-4.0733,-0.5069,5.210
11.543000,-2.9829,-4.3490,-0.8586,5.343
11.585000,-2.7799,-4.5711,-1.1957,5.482
11.586000,-2.5486,-4.7125,-1.4913,5.561
11.587000,-2.3036,-4.8008,-1.7310,5.599
11.587000,-2.0613,-4.8475,-1.9195,5.606
11.588000,-1.8385,-4.9055,-2.0740,5.634
11.588000,-1.6373,-4.9821,-2.2114,5.691
11.589000,-1.4191,-5.0528,-2.3244,5.740
11.590000,-1.2059,-5.1098,-2.3456,5.750
11.591000,-0.9949,-5.1642,-2.2728,5.729
11.594000,-0.7835,-5.2210,-2.0844,5.676
11.599000,-0.5860,-5.2923,-1.8098,5.624
11.603000,-0.3899,-5.3584,-1.4636,5.568
11.608000,-0.1958,-5.4231,-1.0375,5.525
11.613000,-0.0007,-5.5025,-0.5246,5.527
11.619000,0.2098,-5.5798,0.0670,5.584
11.623000,0.4573,-5.6576,0.6985,5.719
11.629000,0.7520,-5.7351,1.3909,5.949
11.636000,1.0713,-5.8141,2.1139,6.279
11.639000,1.3940,-5.8750,2.8448,6.675
11.644000,1.7081,-5.9108,3.5374,7.097
11.648000,2.0089,-5.8977,4.1476,7.485
11.682000,2.2754,-5.8256,4.6990,7.823
11.683000,2.5423,-5.7201,5.1741,8.121
11.684000,2.8008,-5.5591,5.5582,8.345
11.684000,3.0867,-5.3571,5.8105,8.485
11.685000,3.4022,-5.1433,5.8903,8.528
11.685000,3.7567,-4.9085,5.7958,8.473
11.685000,4.1266,-4.6813,5.5206,8.332
11.688000,4.4861,-4.4710,5.0972,8.130
11.693000,4.8262,-4.2847,4.5576,7.901
11.698000,5.1725,-4.1228,3.9105,7.684
11.703000,5.5248,-3.9546,3.2218,7.519
11.709000,5.8546,-3.7943,2.5431,7.426
11.712000,6.1504,-3.6411,1.9546,7.410
11.718000,6.3982,-3.4850,1.4808,7.435
11.723000,6.6242,-3.2926,1.1123,7.481
11.728000,6.7992,-3.0737,0.8302,7.508
11.734000,6.9309,-2.8132,0.6392,7.507
11.738000,7.0178,-2.5099,0.5704,7.475
11.743000,7.0628,-2.1799,0.6019,7.416
11.747000,7.0827,-1.8255,0.7138,7.349
11.762000,7.0916,-1.4539,0.8984,7.295
11.763000,7.1038,-1.0528,1.1307,7.270
11.763000,7.1317,-0.6315,1.3814,7.292
11.773000,7.1618,-0.1789,1.6471,7.351
11.774000,7.1871,0.2959,1.9056,7.441
11.779000,7.1977,0.7808,2.1061,7.540
11.783000,7.2363,1.2853,2.2653,7.691
11.788000,7.2885,1.8000,2.3804,7.876
11.793000,7.3501,2.2763,2.4637,8.079
11.798000,7.3902,2.7144,2.5245,8.268
11.803000,7.4201,3.1215,2.5654,8.449
11.809000,7.4203,3.4832,2.5740,8.592
11.814000,7.3959,3.8262,2.5554,8.710
11.819000,7.3361,4.1214,2.5003,8.778
11.825000,7.2576,4.3785,2.4063,8.811
11.828000,7.1439,4.6025,2.2999,8.804
11.834000,6.9923,4.7624,2.1812,8.737
11.838000,6.7890,4.8632,2.0284,8.594
11.843000,6.5192,4.9194,1.8402,8.372
11.865000,6.1863,4.9194,1.6283,8.070
11.866000,5.8313,4.8873,1.3908,7.735
11.867000,5.4739,4.7997,1.1327,7.368
11.868000,5.1101,4.6928,0.8641,6.992
11.869000,4.7427,4.5691,0.5992,6.613
11.873000,4.3791,4.4194,0.3274,6.230
11.882000,4.0059,4.2751,0.0771,5.859
11.884000,3.6404,4.1558,-0.1466,5.527
11.888000,3.2784,4.0615,-0.3770,5.233
11.894000,2.9252,3.9878,-0.5761,4.979
11.900000,2.5911,3.9279,-0.7547,4.766
11.903000,2.2812,3.8916,-0.9036,4.601
11.908000,2.0007,3.8741,-1.0443,4.484
11.913000,1.7499,3.8615,-1.1790,4.400
11.918000,1.5386,3.8537,-1.2866,4.344
11.923000,1.3288,3.8390,-1.3903,4.294
11.928000,1.1423,3.8177,-1.4808,4.251
11.933000,0.9554,3.7897,-1.5799,4.216
11.938000,0.8066,3.7721,-1.6851,4.209
11.943000,0.7034,3.7673,-1.7917,4.231
11.950000,0.6217,3.7754,-1.9088,4.276
11.953000,0.5832,3.7869,-2.0269,4.335
11.958000,0.5854,3.8041,-2.1555,4.411
11.963000,0.6376,3.8296,-2.3085,4.517
11.979000,0.7228,3.8680,-2.4663,4.644
11.979000,0.8359,3.9073,-2.6074,4.771
11.980000,0.9641,3.9355,-2.7407,4.892
11.989000,1.1120,3.9310,-2.8564,4.985
11.989000,1.2530,3.8722,-2.9927,5.052
11.993000,1.3701,3.7665,-3.0942,5.063
12.000000,1.4919,3.5874,-3.1613,5.009
12.004000,1.5967,3.3807,-3.2007,4.922
12.008000,1.6869,3.1654,-3.2080,4.812
12.014000,1.7700,2.9440,-3.2072,4.700
12.018000,1.8555,2.7333,-3.1745,4.582
12.023000,1.9555,2.5260,-3.1101,4.458
12.028000,2.0864,2.3294,-3.0284,4.353
12.034000,2.2767,2.1551,-2.9513,4.306
12.039000,2.4738,1.9744,-2.8811,4.280
12.043000,2.6843,1.8350,-2.7844,4.281
12.048000,2.9228,1.7800,-2.6373,4.320
12.053000,3.1764,1.7873,-2.4807,4.409
12.058000,3.4543,1.8711,-2.2908,4.548
12.065000,3.7321,1.9855,-2.0846,4.713
12.068000,4.0524,2.1016,-1.8886,4.940
12.074000,4.4264,2.2000,-1.7195,5.234
12.080000,4.8724,2.2662,-1.5962,5.606
12.083000,5.3987,2.2352,-1.5161,6.037
12.090000,5.9971,2.0996,-1.4908,6.527
12.093000,6.6498,1.8257,-1.4911,7.055
12.109000,7.3055,1.4205,-1.4930,7.591
12.110000,7.9087,0.9461,-1.4794,8.101
12.110000,8.3758,0.3785,-1.4554,8.510
12.113000,8.6642,-0.2033,-1.3920,8.778
12.118000,8.7940,-0.7897,-1.3182,8.927
12.123000,8.7715,-1.3492,-1.2409,8.961
12.128000,8.6763,-1.8505,-1.1480,8.945
12.135000,8.5129,-2.2908,-1.0281,8.876
12.142000,8.2962,-2.6798,-0.8884,8.763
12.145000,8.0459,-3.0005,-0.7527,8.620
12.149000,7.7746,-3.2529,-0.6235,8.451
12.154000,7.5180,-3.4206,-0.4785,8.273
12.158000,7.2747,-3.5512,-0.2755,8.100
12.165000,6.9895,-3.6401,-0.0025,7.881
12.168000,6.6868,-3.6899,0.3566,7.646
12.187000,6.3646,-3.6433,0.7719,7.374
12.187000,6.0184,-3.5243,1.2400,7.084
12.188000,5.6886,-3.3288,1.7459,6.818
12.188000,5.4191,-3.0731,2.2255,6.615
12.194000,5.2569,-2.8226,2.6379,6.524
12.210000,5.2108,-2.5872,2.9539,6.525
12.211000,5.3037,-2.4033,3.1757,6.633
12.211000,5.4980,-2.2769,3.3062,6.808
12.213000,5.7459,-2.2389,3.3231,7.005
12.219000,5.9718,-2.3071,3.2105,7.162
12.224000,6.1229,-2.4675,2.9901,7.247
12.229000,6.1370,-2.6845,2.6815,7.215
12.234000,6.0497,-2.9442,2.3455,7.125
12.239000,5.8968,-3.2646,1.9990,7.030
12.246000,5.6827,-3.6198,1.6854,6.945
12.249000,5.4227,-4.0358,1.4003,6.903
12.255000,5.1081,-4.5338,1.1416,6.925
12.259000,4.7226,-5.1089,0.9715,7.025
12.265000,4.1802,-5.6826,0.9202,7.114
12.269000,3.4961,-6.1827,0.9443,7.165
12.274000,2.6956,-6.5557,1.0050,7.159
12.279000,1.8375,-6.7667,1.1165,7.100
12.284000,0.9730,-6.8316,1.2714,7.017
12.289000,0.1738,-6.7622,1.3936,6.906
12.294000,-0.5680,-6.5707,1.4570,6.754
12.317000,-1.2552,-6.3170,1.5028,6.613
12.317000,-1.8758,-6.0052,1.5292,6.475
12.317000,-2.3988,-5.6422,1.5461,6.323
12.318000,-2.7986,-5.2642,1.5542,6.161
12.323000,-3.0817,-4.8673,1.5988,5.979
12.324000,-3.2564,-4.4738,1.6729,5.781
12.330000,-3.3401,-4.0911,1.8097,5.583
12.334000,-3.3427,-3.7387,1.9868,5.394
12.339000,-3.2702,-3.4056,2.1537,5.189
12.344000,-3.1128,-3.0911,2.3146,4.960
12.349000,-2.9051,-2.7990,2.4408,4.715
12.354000,-2.6812,-2.5561,2.5558,4.501
12.359000,-2.5016,-2.3679,2.6736,4.360
12.365000,-2.3451,-2.2210,2.8056,4.278
12.370000,-2.2452,-2.0980,2.9388,4.252
12.376000,-2.2165,-1.9903,3.0681,4.276
12.379000,-2.2543,-1.8956,3.1692,4.326
12.391000,-2.3682,-1.8139,3.2466,4.409
12.392000,-2.5437,-1.7428,3.2668,4.492
12.395000,-2.7689,-1.6802,3.2422,4.583
12.422000,-3.0072,-1.6250,3.1970,4.680
12.422000,-3.2613,-1.5870,3.1100,4.778
12.422000,-3.5261,-1.5684,2.9984,4.887
12.423000,-3.7824,-1.5380,2.8600,4.985
12.423000,-4.0304,-1.5199,2.6857,5.076
12.425000,-4.2624,-1.5249,2.4926,5.168
12.430000,-4.4785,-1.5295,2.2881,5.257
12.434000,-4.6693,-1.5168,2.0774,5.331
12.439000,-4.8489,-1.5154,1.8535,5.408
12.444000,-5.0201,-1.5209,1.6168,5.489
12.449000,-5.1848,-1.5514,1.3633,5.581
12.456000,-5.3193,-1.5784,1.0957,5.656
12.459000,-5.4594,-1.6043,0.8410,5.752
12.466000,-5.5694,-1.6384,0.6088,5.837
12.470000,-5.6852,-1.6764,0.4111,5.941
12.474000,-5.7851,-1.7195,0.2243,6.039
12.479000,-5.8620,-1.7513,0.0388,6.118
12.484000,-5.9376,-1.7647,-0.1405,6.196
12.496000,-6.0142,-1.7739,-0.3183,6.278
12.503000,-6.0632,-1.7957,-0.4942,6.343
12.503000,-6.1113,-1.8280,-0.6516,6.412
12.508000,-6.1341,-1.8700,-0.7950,6.462
12.509000,-6.1607,-1.9054,-0.9147,6.513
12.535000,-6.2077,-1.9458,-1.0135,6.584
12.536000,-6.2608,-1.9722,-1.1106,6.657
12.536000,-6.3321,-2.0087,-1.1821,6.747
12.536000,-6.3903,-2.0330,-1.2256,6.817
12.537000,-6.4426,-2.0716,-1.2509,6.882
12.540000,-6.4844,-2.1244,-1.2746,6.942
12.544000,-6.5420,-2.1842,-1.2872,7.016
12.549000,-6.5939,-2.2416,-1.2887,7.083
12.555000,-6.6399,-2.3102,-1.2864,7.147
12.559000,-6.6659,-2.3737,-1.2661,7.188
12.565000,-6.6624,-2.4678,-1.2305,7.211
12.570000,-6.6461,-2.5901,-1.1845,7.231
12.574000,-6.6051,-2.7313,-1.1142,7.234
12.579000,-6.5323,-2.8908,-1.0150,7.215
12.586000,-6.4421,-3.0714,-0.8972,7.193
12.591000,-6.3514,-3.2755,-0.7846,7.189
12.595000,-6.2959,-3.5076,-0.6726,7.238
12.600000,-6.2685,-3.7701,-0.5569,7.336
12.606000,-6.2546,-4.0172,-0.4327,7.446
12.611000,-6.2711,-4.2463,-0.2860,7.579
12.624000,-6.3274,-4.4739,-0.1220,7.750
12.625000,-6.4615,-4.6635,0.0715,7.969
12.625000,-6.6612,-4.8195,0.2987,8.227
12.630000,-6.9408,-4.9579,0.5570,8.548
12.635000,-7.2471,-5.0515,0.8418,8.874
12.640000,-7.5226,-5.1567,1.1076,9.187
12.645000,-7.6664,-5.2416,1.3675,9.387
12.650000,-7.6381,-5.3155,1.5647,9.436
12.654000,-7.4474,-5.3786,1.6475,9.333
12.659000,-7.1590,-5.5564,1.6121,9.204
12.665000,-6.7849,-5.7838,1.5119,9.043
12.670000,-6.3657,-6.0086,1.3759,8.861
12.674000,-5.9279,-6.1834,1.2228,8.653
12.679000,-5.4855,-6.2893,1.0592,8.412
12.685000,-5.0197,-6.3467,0.8919,8.141
12.690000,-4.5183,-6.3583,0.7062,7.832
12.695000,-3.9767,-6.3391,0.4159,7.495
12.700000,-3.3925,-6.3067,-0.0261,7.161
12.705000,-2.7662,-6.2645,-0.6018,6.874
12.711000,-2.1766,-6.2439,-1.2550,6.730
12.724000,-1.6865,-6.2327,-1.9537,6.746
12.725000,-1.3221,-6.2498,-2.6060,6.899
12.725000,-1.0664,-6.2329,-3.1587,7.069
12.730000,-0.9166,-6.2203,-3.5949,7.243
12.769000,-0.8410,-6.2180,-3.8850,7.380
12.770000,-0.8182,-6.2534,-3.9816,7.458
12.771000,-0.8258,-6.3323,-3.8247,7.444
12.771000,-0.8298,-6.4709,-3.4098,7.361
12.771000,-0.8032,-6.6757,-2.7115,7.250
12.772000,-0.6589,-6.8975,-1.8100,7.161
12.772000,-0.4119,-7.1089,-0.7840,7.164
12.773000,-0.0519,-7.2735,0.3748,7.283
12.776000,0.4282,-7.3769,1.5950,7.560
12.781000,1.0090,-7.4245,2.7832,7.993
12.785000,1.7028,-7.3801,3.9138,8.525
12.791000,2.5196,-7.2320,4.9121,9.098
12.796000,3.4064,-7.0020,5.7433,9.676
12.801000,4.3023,-6.7248,6.3699,10.213
12.807000,5.1752,-6.4133,6.7883,10.677
12.812000,5.9955,-6.1304,6.9283,11.024
12.818000,6.7631,-5.8976,6.8116,11.266
12.821000,7.4091,-5.7124,6.4435,11.360
12.825000,7.9074,-5.5457,5.8826,11.309
12.854000,8.2651,-5.3834,5.1760,11.139
12.855000,8.4776,-5.2040,4.4000,10.877
12.855000,8.5672,-4.9927,3.6112,10.553
12.856000,8.5283,-4.7433,2.8522,10.167
12.856000,8.4383,-4.4766,2.1795,9.798
12.856000,8.3120,-4.1852,1.6348,9.449
12.861000,8.1614,-3.8689,1.2213,9.114
12.866000,7.9947,-3.4886,0.9511,8.774
12.871000,7.8322,-3.0431,0.8036,8.441
12.875000,7.6552,-2.5627,0.7667,8.109
12.881000,7.4376,-2.0500,0.8233,7.759
12.885000,7.2199,-1.5095,0.9490,7.437
12.890000,7.0266,-0.9503,1.1022,7.176
12.895000,6.8802,-0.3878,1.2736,7.008
12.901000,6.7929,0.1544,1.4314,6.944
12.906000,6.7760,0.6976,1.5486,6.986
12.911000,6.7857,1.2343,1.6131,7.083
12.916000,6.8003,1.7286,1.6220,7.202
12.921000,6.8158,2.2178,1.5615,7.336
12.926000,6.8107,2.6807,1.4507,7.462
12.931000,6.7580,3.0978,1.2897,7.545
12.938000,6.6599,3.4739,1.0957,7.591
12.941000,6.5262,3.8022,0.8659,7.602
12.946000,6.3463,4.0822,0.6065,7.570
12.978000,6.1301,4.2881,0.3103,7.488
12.980000,5.8587,4.4536,-0.0030,7.359
12.980000,5.5322,4.5623,-0.3043,7.177
12.982000,5.1681,4.6314,-0.5858,6.964
12.983000,4.7788,4.6423,-0.8479,6.716
12.983000,4.3909,4.6000,-1.0872,6.452
12.984000,3.9861,4.5649,-1.3254,6.204
12.986000,3.5648,4.4943,-1.5814,5.950
12.991000,3.1085,4.4294,-1.8163,5.708
12.995000,2.6708,4.3970,-2.0279,5.530
13.001000,2.2496,4.3854,-2.2056,5.400
13.006000,1.8550,4.3926,-2.3616,5.321
13.011000,1.4947,4.4213,-2.5126,5.301
13.016000,1.1688,4.4479,-2.6461,5.306
13.021000,0.8780,4.4990,-2.7577,5.349
13.026000,0.6221,4.5483,-2.8106,5.383
13.033000,0.4229,4.6223,-2.8055,5.424
13.036000,0.2901,4.6996,-2.7498,5.453
13.041000,0.2189,4.7634,-2.6582,5.459
13.046000,0.1833,4.8186,-2.5481,5.454
13.052000,0.1970,4.8649,-2.4337,5.443
13.056000,0.2551,4.9237,-2.3180,5.448
13.062000,0.3358,4.9710,-2.2036,5.448
13.095000,0.4221,5.0090,-2.1098,5.452
13.096000,0.5089,5.0256,-2.0344,5.446
13.097000,0.5869,5.0160,-1.9873,5.427
13.098000,0.6481,5.0015,-1.9897,5.422
13.099000,0.7024,4.9726,-2.0225,5.414
13.100000,0.7593,4.9245,-2.0999,5.407
13.101000,0.8283,4.8454,-2.1929,5.383
13.105000,0.9168,4.7379,-2.3398,5.363
13.109000,1.0435,4.5588,-2.5062,5.306
13.111000,1.1893,4.3467,-2.6966,5.252
13.116000,1.3541,4.0994,-2.8509,5.174
13.121000,1.5119,3.8408,-2.9785,5.090
13.126000,1.6485,3.5951,-3.0724,5.008
13.131000,1.7804,3.3932,-3.1322,4.949
13.137000,1.9273,3.2163,-3.1675,4.908
13.142000,2.1201,3.0785,-3.1736,4.903
13.147000,2.3827,2.9632,-3.1529,4.939
13.151000,2.7103,2.8702,-3.1006,5.020
13.156000,3.0946,2.8039,-3.0288,5.159
13.162000,3.4968,2.7546,-2.9399,5.335
13.195000,3.8998,2.7412,-2.8292,5.543
13.195000,4.2841,2.7732,-2.6584,5.754
13.196000,4.6538,2.8452,-2.4472,5.978
13.197000,5.0158,2.9405,-2.1837,6.211
13.197000,5.3624,3.0587,-1.8639,6.449
13.198000,5.6791,3.1876,-1.5289,6.690
13.198000,5.9752,3.3367,-1.1959,6.947
13.201000,6.2737,3.5104,-0.8750,7.242
13.206000,6.6053,3.6868,-0.5617,7.585
13.212000,7.0147,3.8466,-0.2992,8.006
13.217000,7.4889,3.9656,-0.1187,8.475
13.221000,8.0601,4.0005,-0.0557,8.998
13.226000,8.7288,3.9412,-0.1262,9.578
13.232000,9.4843,3.7542,-0.3339,10.206
13.236000,10.2719,3.4201,-0.6486,10.846
13.241000,10.9855,2.9434,-1.0186,11.419
13.247000,11.5625,2.3577,-1.3660,11.879
13.252000,11.9333,1.6867,-1.6920,12.170
13.256000,12.0807,0.9235,-1.9914,12.279
13.261000,12.0037,0.1138,-2.1962,12.203
13.271000,11.7284,-0.7062,-2.2656,11.966
13.274000,11.2764,-1.4764,-2.2143,11.586
13.276000,10.7313,-2.1893,-2.0523,11.143
13.311000,10.2043,-2.8713,-1.8755,10.765
13.312000,9.7719,-3.4859,-1.6994,10.513
13.312000,9.3719,-4.0192,-1.4066,10.294
13.313000,8.9350,-4.5099,-1.0100,10.059
13.313000,8.4760,-4.9273,-0.5156,9.818
13.314000,7.9664,-5.2693,0.0518,9.552
13.314000,7.4254,-5.5159,0.7064,9.277
13.320000,6.8840,-5.6604,1.4062,9.023
13.322000,6.3835,-5.7098,2.0968,8.817
13.327000,5.9551,-5.6831,2.7336,8.674
13.332000,5.6622,-5.6001,3.2970,8.619
13.336000,5.5295,-5.5129,3.7396,8.658
13.342000,5.5698,-5.4605,4.0237,8.777
13.350000,5.7532,-5.4816,4.1662,8.972
13.352000,6.0091,-5.5508,4.2153,9.203
13.357000,6.2241,-5.6761,4.2024,9.414
13.361000,6.2846,-5.8345,4.1472,9.526
13.367000,6.1494,-6.0299,4.0843,9.532
13.372000,5.8521,-6.2266,4.0068,9.438
13.377000,5.4799,-6.4289,3.9119,9.309
13.388000,5.0670,-6.7127,3.8162,9.236
13.390000,4.5969,-7.0756,3.7557,9.236
13.392000,4.0459,-7.4337,3.7075,9.240
13.397000,3.4282,-7.7415,3.6219,9.209
13.438000,2.6780,-7.9574,3.5611,9.120
13.439000,1.8465,-8.0467,3.5085,8.970
13.440000,0.9819,-8.0259,3.4525,8.792
13.440000,0.1556,-7.9040,3.3792,8.597
13.441000,-0.6181,-7.6928,3.3010,8.394
13.442000,-1.3129,-7.4250,3.2212,8.199
13.442000,-1.9191,-7.1216,3.1305,8.012
13.443000,-2.4343,-6.7866,3.0272,7.820
13.443000,-2.8594,-6.4157,2.9378,7.614
13.450000,-3.2080,-6.0192,2.8341,7.386
13.455000,-3.4620,-5.6146,2.7593,7.150
13.457000,-3.6267,-5.2092,2.6707,6.886
13.462000,-3.6955,-4.7985,2.6088,6.595
13.468000,-3.6885,-4.4051,2.5522,6.287
13.472000,-3.5842,-4.0453,2.4936,5.952
13.477000,-3.4196,-3.7226,2.4639,5.623
13.488000,-3.2263,-3.4498,2.4602,5.326
13.490000,-3.0313,-3.1893,2.4847,5.053
13.492000,-2.8496,-2.9327,2.5077,4.797
13.544000,-2.7386,-2.6895,2.5272,4.596
13.545000,-2.6890,-2.4414,2.5259,4.424
13.546000,-2.7153,-2.2463,2.5065,4.325
13.546000,-2.8008,-2.0707,2.4475,4.257
13.547000,-2.9238,-1.9196,2.3636,4.221
13.547000,-3.0939,-1.7981,2.2548,4.230
13.548000,-3.2868,-1.7054,2.1316,4.273
13.548000,-3.5193,-1.6252,1.9847,4.355
13.549000,-3.7578,-1.5644,1.7905,4.447
13.549000,-3.9951,-1.5039,1.5688,4.548
13.550000,-4.2097,-1.4418,1.3202,4.641
13.552000,-4.4157,-1.3842,1.0652,4.749
13.557000,-4.6158,-1.3533,0.8183,4.879
13.562000,-4.8051,-1.3249,0.5753,5.018
13.567000,-4.9598,-1.3062,0.3245,5.139
13.572000,-5.1232,-1.2999,0.0659,5.286
13.577000,-5.2781,-1.2956,-0.2212,5.439
13.586000,-5.4416,-1.2935,-0.5009,5.616
13.588000,-5.5969,-1.2840,-0.7634,5.793
13.592000,-5.7512,-1.2981,-1.0157,5.983
13.597000,-5.8903,-1.3024,-1.2415,6.159
13.619000,-6.0354,-1.3031,-1.4496,6.342
13.620000,-6.1796,-1.2958,-1.6478,6.525
13.620000,-6.3371,-1.2923,-1.8070,6.715
13.621000,-6.5008,-1.2872,-1.9511,6.908
13.623000,-6.6132,-1.2423,-2.0537,7.035
13.627000,-6.7128,-1.2321,-2.1773,7.164
13.632000,-6.8045,-1.2488,-2.2879,7.287
13.637000,-6.8977,-1.2733,-2.3977,7.413
13.642000,-6.9949,-1.3125,-2.4827,7.538
13.647000,-7.1103,-1.3638,-2.5432,7.674
13.652000,-7.2250,-1.4200,-2.5723,7.800
13.658000,-7.3362,-1.4851,-2.5795,7.917
13.662000,-7.4298,-1.5470,-2.5818,8.016
13.669000,-7.4890,-1.6178,-2.5913,8.088
13.673000,-7.5450,-1.6852,-2.6005,8.157
13.678000,-7.5835,-1.7592,-2.6024,8.208
13.690000,-7.6067,-1.8486,-2.5900,8.245
13.693000,-7.6149,-1.9441,-2.5655,8.267
13.694000,-7.6009,-2.0672,-2.5316,8.274
13.748000,-7.5576,-2.2154,-2.4812,8.257
13.750000,-7.4801,-2.3842,-2.4144,8.214
13.751000,-7.3997,-2.5756,-2.3122,8.169
13.751000,-7.3140,-2.8041,-2.1892,8.133
13.752000,-7.2419,-3.0527,-2.0314,8.117
13.752000,-7.1787,-3.3048,-1.8704,8.121
13.753000,-7.1507,-3.5672,-1.7207,8.174
13.753000,-7.1217,-3.8322,-1.5799,8.240
13.754000,-7.1013,-4.0949,-1.4363,8.322
13.754000,-7.1133,-4.3455,-1.3041,8.437
13.754000,-7.1695,-4.5884,-1.1618,8.591
13.755000,-7.2554,-4.7970,-0.9830,8.753
13.757000,-7.3803,-4.9898,-0.8013,8.945
13.762000,-7.5033,-5.1689,-0.5882,9.130
13.768000,-7.5932,-5.3431,-0.3459,9.291
13.772000,-7.6208,-5.5238,-0.1105,9.413
13.777000,-7.5671,-5.7610,0.0968,9.511
13.783000,-7.4247,-6.0328,0.2594,9.570
13.787000,-7.2103,-6.3183,0.3414,9.593
13.792000,-6.9383,-6.6270,0.3695,9.602
13.799000,-6.6443,-6.9590,0.3441,9.628
13.803000,-6.3760,-7.2930,0.2752,9.691
13.808000,-6.1066,-7.6021,0.2011,9.753
13.813000,-5.8648,-7.8756,0.1122,9.820
13.821000,-5.6238,-8.0844,0.0398,9.848
13.824000,-5.3760,-8.2571,-0.0299,9.853
13.827000,-5.0685,-8.4417,-0.1344,9.847
13.876000,-4.6698,-8.6625,-0.2679,9.845
13.876000,-4.2009,-8.9118,-0.4223,9.861
13.877000,-3.6481,-9.2016,-0.5425,9.913
13.877000,-3.0634,-9.5077,-0.6017,10.007
13.878000,-2.4658,-9.8380,-0.6000,10.160
13.878000,-1.8525,-10.2097,-0.5303,10.390
13.878000,-1.2370,-10.5743,-0.3540,10.652
13.879000,-0.6391,-10.9891,-0.0462,11.008
13.879000,-0.0720,-11.4221,0.4021,11.429
13.880000,0.4816,-11.8208,0.9995,11.873
13.885000,1.0270,-12.1352,1.7396,12.302
13.887000,1.5656,-12.3548,2.5995,12.722
13.893000,2.1105,-12.4386,3.5614,13.109
13.897000,2.6486,-12.4004,4.5875,13.484
13.906000,3.2232,-12.2091,5.6127,13.819
13.909000,3.8460,-11.8867,6.5790,14.120
13.912000,4.5679,-11.4210,7.4219,14.366
13.917000,5.3975,-10.8561,8.0663,14.562
13.922000,6.2960,-10.2210,8.4698,14.692
13.927000,7.1923,-9.5506,8.6307,14.746
13.935000,8.0604,-8.8707,8.5454,14.720
13.937000,8.9080,-8.2016,8.2444,14.649
13.943000,9.7106,-7.5439,7.6992,14.508
13.948000,10.4729,-6.9323,6.9641,14.361
13.953000,11.1444,-6.3668,6.1003,14.211
13.959000,11.7163,-5.8509,5.1507,14.072
13.965000,12.1777,-5.3828,4.1559,13.948
13.970000,12.5051,-4.9501,3.1842,13.821
13.973000,12.7077,-4.5423,2.2398,13.680
13.978000,12.7790,-4.0963,1.3308,13.485
13.983000,12.7477,-3.6121,0.4575,13.257
13.988000,12.6352,-3.1130,-0.3446,13.018
13.993000,12.4973,-2.6197,-1.0201,12.810
13.998000,12.3226,-2.0990,-1.5559,12.597
14.004000,12.1094,-1.5644,-2.0002,12.373
14.009000,11.8650,-1.0151,-2.3808,12.144
14.014000,11.6251,-0.4556,-2.7065,11.945
14.019000,11.3831,0.1174,-2.9799,11.767
14.023000,11.1497,0.7016,-3.2152,11.625
14.028000,10.9014,1.2619,-3.4152,11.493
14.036000,10.6408,1.7701,-3.5965,11.371
14.038000,10.3609,2.2388,-3.7657,11.249
14.043000,10.0500,2.6398,-3.9272,11.108
14.070000,9.6945,2.9857,-4.0866,10.936
14.071000,9.3374,3.2844,-4.2705,10.780
14.071000,9.0010,3.5483,-4.4338,10.643
14.071000,8.6784,3.7779,-4.5763,10.513
14.072000,8.3579,3.9832,-4.6884,10.378
14.073000,8.0398,4.1691,-4.7444,10.224
14.078000,7.6692,4.3265,-4.7170,9.989
14.083000,7.2205,4.3934,-4.6481,9.646
14.089000,6.7255,4.3270,-4.6246,9.238
14.093000,6.1757,4.1419,-4.6730,8.782
14.099000,5.5815,3.8983,-4.8153,8.339
14.103000,4.9419,3.6571,-5.0143,7.933
14.108000,4.3080,3.4304,-5.2438,7.604
14.114000,3.6953,3.2309,-5.4939,7.367
14.118000,3.1024,3.0782,-5.7621,7.232
14.123000,2.5537,2.9798,-6.0294,7.194
14.128000,2.0527,2.9221,-6.2875,7.231
14.136000,1.5901,2.9269,-6.5343,7.334
14.138000,1.1590,2.9754,-6.7265,7.446
14.143000,0.7881,3.0365,-6.8953,7.575
14.174000,0.4631,3.0603,-7.0645,7.713
14.175000,0.1477,2.8316,-7.3560,7.884
14.175000,-0.1646,2.7960,-7.4175,7.929
14.176000,-0.5479,2.8576,-7.2165,7.781
14.176000,-0.9369,2.9993,-6.8571,7.543
14.177000,-1.1996,3.2185,-6.4888,7.342
14.178000,-1.2768,3.5170,-6.0954,7.152
14.184000,-1.2342,3.7961,-5.7017,6.960
14.194000,-1.1354,3.9401,-5.3298,6.725
14.195000,-1.0096,3.9535,-5.0637,6.503
14.206000,-0.8909,3.8506,-4.8631,6.267
14.207000,-0.8176,3.6791,-4.6971,6.022
14.209000,-0.7917,3.4987,-4.5734,5.812
14.215000,-0.8109,3.3669,-4.4464,5.636
14.221000,-0.8776,3.2931,-4.2753,5.467
14.224000,-0.9774,3.2892,-4.0603,5.316
14.228000,-1.0837,3.3265,-3.7993,5.165
14.234000,-1.1870,3.3616,-3.5024,4.998
14.238000,-1.2559,3.3944,-3.1915,4.825
14.243000,-1.2903,3.4082,-2.8887,4.650
14.276000,-1.2734,3.3910,-2.6278,4.475
14.277000,-1.2004,3.3474,-2.4067,4.294
14.277000,-1.0428,3.2751,-2.2230,4.093
14.277000,-0.8079,3.1764,-2.0938,3.889
14.278000,-0.5345,3.0560,-2.0189,3.701
14.278000,-0.2036,2.9233,-1.9837,3.539
14.279000,0.1459,2.7640,-1.9978,3.414
14.286000,0.5328,2.5900,-2.0367,3.338
14.289000,0.9377,2.4204,-2.1241,3.354
14.295000,1.3529,2.2097,-2.2381,3.424
14.299000,1.7639,1.9532,-2.3663,3.539
14.304000,2.1849,1.6918,-2.4937,3.722
14.308000,2.5966,1.4111,-2.6201,3.949
14.315000,2.5877,1.1447,-2.7070,3.916
14.319000,3.3900,0.9046,-2.6320,4.386
14.325000,3.7160,0.6692,-2.3571,4.451
14.330000,3.9612,0.4934,-2.0555,4.490
14.335000,4.0734,0.4824,-2.0692,4.594
14.340000,4.1440,0.5479,-2.2011,4.724
14.345000,4.2452,0.6376,-2.1967,4.822
14.351000,4.3722,0.7324,-2.0942,4.903
14.354000,4.4983,0.8299,-2.0057,4.995
14.358000,4.6590,0.8773,-1.9382,5.122
14.364000,4.9857,0.8222,-1.9289,5.409
14.400000,5.5233,0.6790,-1.9680,5.903
14.401000,6.2249,0.4402,-2.0115,6.557
14.401000,7.0010,0.1175,-2.0086,7.284
14.401000,7.7930,-0.2967,-1.9376,8.036
14.402000,8.5190,-0.7549,-1.7647,8.733
14.402000,9.1122,-1.2170,-1.5056,9.316
14.402000,9.4984,-1.6833,-1.2086,9.722
14.405000,9.6182,-2.0632,-0.8123,9.870
14.411000,9.4274,-2.3546,-0.3251,9.722
14.416000,9.0203,-2.5671,0.2041,9.381
14.420000,8.5425,-2.7149,0.6843,8.990
14.424000,8.0730,-2.8578,1.0770,8.631
14.432000,7.6482,-2.9766,1.3460,8.317
14.434000,7.2727,-3.0833,1.5295,8.046
14.440000,6.8547,-3.1307,1.6494,7.714
14.445000,6.4192,-3.0753,1.7430,7.328
14.450000,6.0206,-2.9177,1.7841,6.924
14.454000,5.5752,-2.6746,1.8394,6.451
14.459000,5.1332,-2.4445,1.9155,6.000
14.464000,4.7307,-2.2942,1.9783,5.617
14.473000,4.3886,-2.2335,2.0035,5.316
14.475000,4.1149,-2.2859,2.0044,5.116
14.480000,3.8875,-2.4084,1.9546,4.973
14.528000,3.6870,-2.6060,1.8852,4.893
14.529000,3.4919,-2.8498,1.8055,4.855
14.529000,3.2920,-3.1571,1.7346,4.880
14.530000,3.0672,-3.4959,1.6598,4.938
14.530000,2.7908,-3.8615,1.5883,5.022
14.531000,2.4660,-4.2131,1.5129,5.111
14.531000,2.0813,-4.5310,1.4286,5.187
14.532000,1.6776,-4.7962,1.3312,5.253
14.532000,1.2640,-5.0191,1.2378,5.322
14.532000,0.8837,-5.1805,1.1156,5.372
14.536000,0.5466,-5.3110,0.9609,5.425
14.539000,0.2481,-5.3958,0.7890,5.459
14.546000,-0.0025,-5.3995,0.6008,5.433
14.550000,-0.2354,-5.3185,0.4194,5.340
14.556000,-0.4320,-5.1651,0.2530,5.189
14.561000,-0.6000,-4.9563,0.0815,4.993
14.568000,-0.6725,-4.7519,-0.0752,4.800
14.573000,-0.9272,-4.5399,-0.2090,4.638
14.574000,-1.1157,-4.3277,-0.2811,4.478
14.580000,-1.3017,-4.1072,-0.2888,4.318
14.616000,-1.4691,-3.9028,-0.2202,4.176
14.617000,-1.6418,-3.7264,-0.0851,4.073
14.618000,-1.8415,-3.5447,0.1229,3.996
14.618000,-2.0660,-3.3388,0.3723,3.944
14.618000,-2.3027,-3.1152,0.6672,3.931
14.619000,-2.5374,-2.8790,0.9784,3.960
14.619000,-2.7750,-2.6613,1.3030,4.060
14.620000,-2.9964,-2.4477,1.6141,4.192
14.625000,-3.2041,-2.2507,1.9282,4.365
14.632000,-3.4216,-2.0692,2.2230,4.575
14.636000,-3.6227,-1.8868,2.4960,4.787
14.640000,-3.8120,-1.7177,2.7299,4.993
14.645000,-3.9753,-1.5592,2.9197,5.173
14.651000,-4.1077,-1.3898,3.0891,5.324
14.655000,-4.1978,-1.2124,3.2400,5.440
14.661000,-4.2523,-1.0455,3.3312,5.502
14.666000,-4.2739,-0.8918,3.3649,5.512
14.671000,-4.2845,-0.7468,3.3508,5.490
14.675000,-4.2937,-0.6105,3.2838,5.440
14.680000,-4.2995,-0.5120,3.1593,5.360
14.705000,-4.3015,-0.4292,2.9891,5.256
14.707000,-4.3286,-0.3600,2.7638,5.148
14.707000,-4.3761,-0.2829,2.5096,5.053
14.707000,-4.4177,-0.2123,2.2264,4.952
14.708000,-4.4490,-0.1270,1.9337,4.853
14.711000,-4.4672,-0.0100,1.6437,4.760
14.716000,-4.4895,0.0953,1.3758,4.697
14.721000,-4.5231,0.1528,1.1205,4.662
14.725000,-4.5752,0.1673,0.8539,4.657
14.732000,-4.6411,0.1605,0.5714,4.679
14.736000,-4.7252,0.1424,0.2926,4.736
14.741000,-4.8298,0.1274,0.0464,4.832
14.746000,-4.9692,0.0726,-0.1267,4.971
14.753000,-5.0427,0.0552,-0.3274,5.054
14.756000,-5.0575,0.0847,-0.5385,5.087
14.760000,-4.9326,0.1869,-0.7617,4.995
14.768000,-4.8789,0.2492,-0.8528,4.959
14.771000,-5.0088,0.2213,-0.9483,5.103
14.775000,-5.2499,0.1732,-1.0624,5.359
14.780000,-5.5637,0.1008,-1.1353,5.679
14.822000,-5.8157,0.0500,-1.2320,5.945
14.824000,-6.0056,0.0674,-1.3065,6.146
14.825000,-6.0834,0.1194,-1.3733,6.238
14.826000,-6.0706,0.1963,-1.4033,6.234
14.827000,-6.0323,0.2715,-1.3938,6.197
14.827000,-5.9710,0.3089,-1.3448,6.128
14.828000,-5.8964,0.2942,-1.2871,6.042
14.828000,-5.7896,0.2655,-1.2323,5.925
14.828000,-5.6245,0.1771,-1.1943,5.753
14.830000,-5.4203,0.0697,-1.1420,5.540
14.836000,-5.1631,-0.0549,-1.0826,5.276
14.841000,-4.8816,-0.2063,-1.0520,4.998
14.846000,-4.5738,-0.4184,-1.0382,4.709
14.850000,-4.2349,-0.6722,-1.0483,4.414
14.855000,-3.8988,-0.9632,-1.0870,4.161
14.861000,-3.5846,-1.2629,-1.1111,3.960
14.866000,-3.3091,-1.5522,-1.1205,3.823
14.871000,-3.0748,-1.8291,-1.1152,3.747
14.875000,-2.9031,-2.0862,-1.0617,3.729
14.881000,-2.8058,-2.3114,-0.9820,3.766
14.887000,-2.7827,-2.5002,-0.8783,3.843
14.891000,-2.8216,-2.6760,-0.7365,3.958
14.895000,-2.9413,-2.7909,-0.5570,4.093
14.941000,-3.1106,-2.8707,-0.3016,4.244
14.942000,-3.3170,-2.9344,0.0031,4.429
14.943000,-3.5076,-2.9983,0.3088,4.625
14.943000,-3.6153,-3.1001,0.5895,4.799
14.944000,-3.6185,-3.2826,0.8285,4.955
14.944000,-3.4621,-3.5790,1.0003,5.079
14.945000,-3.1489,-4.0082,1.0958,5.214
14.945000,-2.7148,-4.5202,1.1082,5.388
14.945000,-2.1768,-5.0551,1.0594,5.605
14.946000,-1.6262,-5.5802,0.9848,5.895
14.951000,-1.1251,-6.0263,0.9222,6.199
14.957000,-0.7428,-6.3578,0.9024,6.464
14.961000,-0.4911,-6.5652,0.8933,6.644
14.967000,-0.3337,-6.6772,0.8662,6.741
14.972000,-0.2174,-6.7030,0.8237,6.757
14.977000,-0.1115,-6.6910,0.7439,6.733
14.980000,0.0203,-6.6863,0.6510,6.718
14.986000,0.1803,-6.6652,0.5881,6.694
14.991000,0.3470,-6.6446,0.5549,6.677
14.995000,0.5230,-6.5764,0.5848,6.623
15.002000,0.6745,-6.4372,0.6787,6.508
15.007000,0.8328,-6.2271,0.8315,6.337
15.011000,0.9620,-5.9484,1.0566,6.118
15.047000,1.0836,-5.6133,1.3312,5.870
15.049000,1.1835,-5.2551,1.6475,5.633
15.050000,1.2826,-4.8674,1.9989,5.416
15.050000,1.3715,-4.4642,2.3681,5.236
15.051000,1.4718,-4.0550,2.7205,5.100
15.051000,1.6214,-3.6688,3.0456,5.036
15.052000,1.8492,-3.2860,3.2882,5.003
15.053000,2.1469,-2.9414,3.4165,4.993
15.057000,2.4833,-2.6232,3.4595,5.002
15.061000,2.8363,-2.3343,3.4196,5.019
15.067000,3.1743,-2.0729,3.2754,5.010
15.071000,3.4710,-1.8510,3.0367,4.969
15.076000,3.6897,-1.6697,2.6952,4.865
15.081000,3.8810,-1.5431,2.2827,4.760
15.087000,4.0304,-1.4499,1.8121,4.651
15.091000,4.1572,-1.3877,1.2967,4.570
15.097000,4.2803,-1.3470,0.7521,4.550
15.104000,4.3235,-1.3563,0.1864,4.535
15.107000,4.3250,-1.3800,-0.3336,4.552
15.111000,4.3114,-1.4127,-0.8190,4.610
15.154000,4.2854,-1.4615,-1.2567,4.699
15.156000,4.2063,-1.4974,-1.6387,4.756
15.157000,4.1079,-1.4435,-1.9382,4.766
15.157000,3.9062,-1.3744,-2.0803,4.634
15.158000,3.7022,-1.2968,-2.2947,4.545
15.158000,3.5485,-1.1219,-2.4921,4.479
15.159000,3.3707,-0.8883,-2.5601,4.325
15.159000,3.1836,-0.5765,-2.5278,4.106
15.160000,2.9890,-0.1991,-2.3931,3.834
15.162000,2.8208,0.1918,-2.1738,3.566
15.167000,2.6909,0.5649,-1.9280,3.358
15.173000,2.6063,0.9154,-1.6681,3.227
15.178000,2.5742,1.2266,-1.3852,3.170
15.181000,2.5532,1.4908,-1.0849,3.149
15.187000,2.5290,1.7129,-0.7777,3.152
15.195000,2.4992,1.9217,-0.4714,3.188
15.196000,2.4300,2.1192,-0.1717,3.229
15.201000,2.3312,2.2912,0.0752,3.270
15.206000,2.1984,2.4260,0.2954,3.287
15.211000,2.0288,2.5497,0.4694,3.292
15.243000,1.8420,2.6459,0.5850,3.277
15.245000,1.6479,2.7004,0.6471,3.229
15.245000,1.4298,2.7420,0.6842,3.167
15.246000,1.1952,2.8044,0.6821,3.124
15.246000,0.9367,2.8707,0.6318,3.085
15.247000,0.6929,2.9482,0.5525,3.079
15.248000,0.4282,3.0180,0.4447,3.081
15.253000,0.1883,3.0851,0.3088,3.106
15.257000,-0.0171,3.1472,0.1449,3.151
15.262000,-0.2194,3.1970,-0.0223,3.205
15.268000,-0.4016,3.2298,-0.1616,3.259
15.272000,-0.5516,3.2387,-0.2826,3.297
15.276000,-0.6717,3.2547,-0.4189,3.350
15.281000,-0.7859,3.2827,-0.5464,3.419
15.287000,-0.8651,3.3444,-0.6747,3.520
15.291000,-0.8382,3.4298,-0.8318,3.627
15.296000,-0.6625,3.5555,-0.9794,3.747
15.302000,-0.6589,3.6398,-1.0696,3.850
15.307000,-0.8297,3.6852,-1.0716,3.927
15.311000,-1.0755,3.7234,-1.0844,4.024
15.320000,-1.3534,3.7782,-1.1478,4.174
15.321000,-1.5501,3.8621,-1.3028,4.361
15.326000,-1.6297,3.9872,-1.4816,4.555
15.374000,-1.6235,4.1151,-1.6646,4.727
15.374000,-1.5482,4.2075,-1.8520,4.851
15.375000,-1.4408,4.2618,-2.0164,4.930
15.375000,-1.3086,4.2946,-2.1604,4.982
15.376000,-1.1516,4.3107,-2.2698,5.006
15.376000,-0.9582,4.3242,-2.3588,5.018
15.376000,-0.7118,4.3185,-2.4395,5.011
15.377000,-0.5175,4.2480,-2.4952,4.954
15.377000,-0.3761,4.1318,-2.5402,4.865
15.377000,-0.2509,3.9629,-2.6130,4.753
15.382000,-0.0917,3.7510,-2.7374,4.645
15.386000,0.1228,3.5321,-2.9202,4.585
15.392000,0.4001,3.3063,-3.1254,4.567
15.397000,0.6937,3.0519,-3.3188,4.562
15.402000,0.9702,2.7953,-3.5145,4.594
15.408000,1.2273,2.5415,-3.7147,4.665
15.411000,1.4791,2.3024,-3.9310,4.790
15.418000,1.7118,2.0711,-4.1605,4.953
15.422000,1.9745,1.8691,-4.3807,5.156
15.426000,2.2603,1.7157,-4.5627,5.373
15.431000,2.5690,1.5845,-4.7060,5.591
15.462000,2.9073,1.4875,-4.7815,5.790
15.463000,3.2824,1.4415,-4.7535,5.954
15.464000,3.7029,1.4460,-4.6243,6.098
15.465000,4.0801,1.5368,-4.3968,6.192
15.467000,4.4065,1.7181,-4.0857,6.250
15.468000,4.6913,1.9611,-3.7082,6.293
15.470000,4.9536,2.2224,-3.2864,6.346
15.473000,5.2617,2.5062,-2.8784,6.500
15.478000,5.6699,2.7572,-2.5392,6.797
15.482000,6.1937,2.9416,-2.2878,7.228
15.487000,6.8196,2.9992,-2.0974,7.740
15.491000,7.5460,2.9345,-1.9247,8.322
15.496000,8.3143,2.7664,-1.7905,8.944
15.502000,9.0610,2.4729,-1.6734,9.540
15.507000,9.7352,2.0611,-1.5562,10.072
15.512000,10.2650,1.5810,-1.3980,10.480
15.517000,10.5935,1.0971,-1.1873,10.716
15.522000,10.7024,0.6094,-0.9979,10.766
15.527000,10.6298,0.1277,-0.8331,10.663
15.540000,10.4679,-0.3788,-0.7117,10.499
15.541000,10.2469,-0.9337,-0.6575,10.310
15.545000,10.0061,-1.5081,-0.6727,10.141
15.547000,9.7508,-2.1044,-0.7395,10.003
15.598000,9.4945,-2.6983,-0.7892,9.902
15.599000,9.2255,-3.2613,-0.7541,9.814
15.601000,8.8848,-3.7886,-0.5869,9.677
15.603000,8.4469,-4.2707,-0.2764,9.469
15.603000,7.9149,-4.6719,0.1239,9.192
15.604000,7.2910,-4.9197,0.6471,8.819
15.604000,6.6232,-5.0457,1.2562,8.420
15.605000,5.9408,-5.0521,1.9449,8.037
15.605000,5.2844,-4.9152,2.6879,7.701
15.606000,4.6862,-4.6821,3.3936,7.443
15.607000,4.2195,-4.4012,4.0041,7.294
15.607000,3.9173,-4.1778,4.4704,7.265
15.612000,3.8241,-3.9639,4.7899,7.299
15.618000,3.8911,-3.7936,4.9863,7.375
15.622000,4.0447,-3.7085,5.0675,7.469
15.628000,4.2109,-3.7345,5.0493,7.561
15.632000,4.3384,-3.8435,4.9253,7.606
15.638000,4.3841,-4.0069,4.7508,7.606
15.642000,4.3698,-4.2295,4.5572,7.599
15.649000,4.2595,-4.4754,4.3302,7.545
15.654000,4.0959,-4.7363,4.0530,7.459
15.657000,3.8692,-5.0314,3.7216,7.358
15.663000,3.5874,-5.3267,3.3775,7.256
15.713000,3.2273,-5.6433,3.0405,7.177
15.715000,2.7827,-5.9326,2.7330,7.100
15.715000,2.2442,-6.1586,2.4722,7.006
15.716000,1.6190,-6.2930,2.2639,6.881
15.717000,0.9383,-6.3020,2.1347,6.720
15.717000,0.2364,-6.1729,2.0516,6.509
15.718000,-0.4049,-5.9505,1.9840,6.286
15.719000,-0.9858,-5.6732,1.9252,6.072
15.720000,-1.4790,-5.3537,1.9117,5.874
15.720000,-1.9114,-4.9994,1.9412,5.694
15.721000,-2.2498,-4.6222,1.9995,5.516
15.722000,-2.5160,-4.2341,2.1031,5.355
15.728000,-2.6798,-3.8356,2.2305,5.183
15.735000,-2.7457,-3.4239,2.3815,4.993
15.737000,-2.7172,-3.0260,2.5246,4.787
15.743000,-2.5951,-2.6452,2.6620,4.563
15.749000,-2.4065,-2.3108,2.7767,4.341
15.753000,-2.2046,-2.0236,2.8492,4.132
15.758000,-1.9928,-1.7679,2.8912,3.931
15.762000,-1.8142,-1.5296,2.8933,3.742
15.768000,-1.6861,-1.3380,2.8745,3.591
15.773000,-1.6062,-1.1936,2.8298,3.466
15.777000,-1.6010,-1.0800,2.7354,3.348
