SensorId, TimeStamp (s), FrameNumber, AccX (g), AccY (g), AccZ (g), GyroX (deg/s), GyroY (deg/s), GyroZ (deg/s), MagX (uT), MagY (uT), MagZ (uT), EulerX (deg), EulerY (deg), EulerZ (deg), QuatW, QuatX, QuatY, QuatZ, LinAccX (g), LinAccY (g), LinAccZ (g), Pressure (kPa), Altitude (m), Temperature (degC), HeaveMotion (m)
1, 0.0000, 0, 0.05908995, -1.03153467, 0.09809455, -27.86220551, 15.00231838, 6.51997471, -19.20491028, 5.96316862, -112.33557129, 89.34819794, -6.11448669, -123.33578491, -0.37000889, 0.29980758, -0.63597143, -0.60724735, -0.16570753, 0.03710322, -0.11030451, 100.01900482, 109.28558350, 32.46999741, 0.00000000
1, 0.0050, 1, 0.07014711, -1.03139508, 0.10948113, -29.08669090, 13.57135487, 7.65817595, -19.20491028, 5.96316862, -112.33557129, 89.19551086, -6.15216064, -123.26698303, -0.37096995, 0.29948401, -0.63508207, -0.60775113, -0.17742169, 0.03704417, -0.12428816, 100.01900482, 109.28558350, 32.46999741, 0.00000000
1, 0.0450, 2, 0.07759456, -1.09362757, 0.17376935, -42.11193085, 14.15931511, 20.66709709, -19.58491707, 6.22624969, -113.00788879, 87.72250366, -6.70557785, -122.74665833, -0.38042057, 0.29439414, -0.62737393, -0.61238402, -0.19435008, 0.10087685, -0.21388075, 100.01900482, 109.28558350, 32.46999741, 0.00000000
1, 0.0500, 3, 0.06706087, -1.09462619, 0.17767207, -43.75680542, 15.34948635, 22.74943352, -19.58491707, 6.22624969, -113.00788879, 87.49433136, -6.81643295, -122.66445923, -0.38201231, 0.29345420, -0.62624264, -0.61300206, -0.18570352, 0.10225004, -0.22171313, 100.01900482, 109.28558350, 32.46999741, 0.00000000
1, 0.0550, 4, 0.06118214, -1.09625387, 0.18689264, -45.16571808, 17.62095451, 24.85453415, -19.58491707, 6.22624969, -113.00788879, 87.25748444, -6.93693781, -122.56984711, -0.38373828, 0.29249257, -0.62505937, -0.61359102, -0.18189585, 0.10429049, -0.23499957, 100.01900482, 109.28558350, 32.46999741, 0.00000000
1, 0.0600, 5, 0.05951833, -1.08707356, 0.19345827, -47.25607300, 20.30994415, 26.73289871, -19.87722778, 6.66471767, -113.88482666, 87.00823212, -7.06576633, -122.46068573, -0.38561243, 0.29151505, -0.62379539, -0.61416727, -0.18244505, 0.09557663, -0.24580342, 100.01900482, 109.28558350, 32.46999741, 0.00000000
1, 0.0650, 6, 0.06374501, -1.07836556, 0.20935005, -48.56594086, 23.17827797, 28.67570686, -19.87722778, 6.66471767, -113.88482666, 86.75027466, -7.20301676, -122.33594513, -0.38763064, 0.29053774, -0.62246865, -0.61470568, -0.18905133, 0.08736975, -0.26607639, 100.01900482, 109.28558350, 32.46999741, 0.00000000
1, 0.0700, 7, 0.08217223, -1.08407938, 0.23201667, -50.30475616, 26.28063583, 30.87491798, -19.52645493, 4.09237051, -113.82636261, 86.48116302, -7.34975243, -122.19422913, -0.38981137, 0.28955254, -0.62106597, -0.61521018, -0.21003297, 0.09363013, -0.29328990, 100.01900482, 109.28558350, 32.46999741, 0.00000000
1, 0.0750, 8, 0.10491724, -1.11023045, 0.23992829, -51.86502075, 29.34727097, 33.17616272, -19.52645493, 4.09237051, -113.82636261, 86.20175171, -7.50631285, -122.03559113, -0.39215326, 0.28855854, -0.61959332, -0.61567354, -0.23546623, 0.12041391, -0.30595332, 100.01900482, 109.28558350, 32.46999741, 0.00000000
1, 0.0800, 9, 0.13554250, -1.13353515, 0.25163653, -53.14309311, 32.56066895, 35.26699829, -19.52645493, 4.09237051, -113.82636261, 85.91319275, -7.67140627, -121.85918427, -0.39465064, 0.28757003, -0.61805201, -0.61608934, -0.26893950, 0.14440638, -0.32253808, 100.01900482, 109.28558350, 32.46999741, 0.00000000
1, 0.0850, 10, 0.17436446, -1.14979041, 0.27919063, -54.52136230, 35.28079605, 37.55766296, -19.76030350, 6.40163708, -114.17713928, 85.62255859, -7.83942652, -121.66894531, -0.39723623, 0.28662124, -0.61647505, -0.61644971, -0.31075221, 0.16137740, -0.35502914, 100.01900482, 109.28558350, 32.46999741, 0.00000000
1, 0.0900, 11, 0.21980417, -1.17767441, 0.33249196, -55.84448242, 36.39752579, 39.91457367, -19.76030350, 6.40163708, -114.17713928, 85.31632233, -8.02437496, -121.46950531, -0.39998764, 0.28555840, -0.61484033, -0.61679631, -0.35941818, 0.19000548, -0.41341221, 100.01900482, 109.28558350, 32.46999741, 0.00000000
1, 0.1350, 12, 0.21121043, -1.43685651, 0.18177921, -74.81941223, 36.38840866, 59.75007248, -20.78339577, 6.57702398, -115.81408691, 82.10584259, -10.17684746, -119.63199615, -0.42800495, 0.27108628, -0.59909987, -0.62000275, -0.38721770, 0.46117705, -0.31707144, 100.01900482, 109.28558350, 32.46999741, 0.00000000
1, 0.1400, 13, 0.23791750, -1.40748084, 0.15074559, -77.78520966, 34.71161652, 60.34374619, -20.78339577, 6.57702398, -115.81408691, 81.67855835, -10.45168686, -119.41352081, -0.43146491, 0.26899427, -0.59705883, -0.62048447, -0.41851926, 0.43369925, -0.29299307, 100.01900482, 109.28558350, 32.46999741, 0.00000000
1, 0.1450, 14, 0.23598595, -1.39103889, 0.18060021, -79.49393463, 29.10718536, 61.03810883, -20.98801422, 8.21397209, -116.36948395, 81.24635315, -10.73257065, -119.22039032, -0.43480921, 0.26669446, -0.59507293, -0.62105018, -0.42144981, 0.41917285, -0.33001482, 100.01900482, 109.28558350, 32.46999741, 0.00000000
1, 0.1500, 15, 0.20584510, -1.36693895, 0.18117684, -80.84022522, 23.32581520, 63.44120789, -20.98801422, 8.21397209, -116.36948395, 80.81117249, -11.02843475, -119.05204010, -0.43807542, 0.26414439, -0.59317595, -0.62165910, -0.39633042, 0.39716709, -0.33784160, 100.01900482, 109.28558350, 32.46999741, 0.00000000
1, 0.1550, 16, 0.13718864, -1.33376062, 0.19135442, -78.15304565, 7.79861069, 66.99779510, -20.98801422, 8.21397209, -116.36948395, 80.40270233, -11.35338783, -118.95639038, -0.44099671, 0.26112682, -0.59167784, -0.62229580, -0.33311790, 0.36617270, -0.35499763, 100.01900482, 109.28558350, 32.46999741, 0.00000000
1, 0.1600, 17, 0.09394448, -1.31727755, 0.20919682, -77.38395691, 0.73465413, 69.90422821, -21.33878899, 7.16164875, -117.12949371, 80.00364685, -11.69803619, -118.89125824, -0.44379711, 0.25785193, -0.59035760, -0.62292409, -0.29572886, 0.35197520, -0.37948424, 100.01900482, 109.28558350, 32.46999741, 0.00000000
1, 0.1650, 18, 0.05244993, -1.29609084, 0.21455215, -75.78375244, -4.47516584, 72.77416992, -21.33878899, 7.16164875, -117.12949371, 79.61656189, -12.06099415, -118.84717560, -0.44651431, 0.25438723, -0.58920187, -0.62350088, -0.26037604, 0.33320791, -0.39125004, 100.01900482, 109.28558350, 32.46999741, 0.00000000
1, 0.1700, 19, 0.00708039, -1.26755869, 0.19649622, -73.88275146, -8.26976395, 74.83275604, -21.92341423, 8.30166626, -118.56182098, 79.24184418, -12.43725204, -118.81772614, -0.44915935, 0.25079823, -0.58818227, -0.62401748, -0.22132656, 0.30722517, -0.37934887, 100.01900482, 109.28558350, 32.46999741, 0.00000000
1, 0.1750, 20, -0.05781215, -1.22572839, 0.17305782, -71.18911743, -12.86300373, 77.07254028, -21.92341423, 8.30166626, -118.56182098, 78.88445282, -12.82867622, -118.80667114, -0.45170867, 0.24707431, -0.58733815, -0.62445784, -0.16297722, 0.26803631, -0.36178729, 100.01900482, 109.28558350, 32.46999741, 0.00000000
1, 0.1800, 21, -0.15298058, -1.18455327, 0.14344946, -67.42607117, -17.59264946, 79.57586670, -21.92341423, 8.30166626, -118.56182098, 78.55007935, -13.23691654, -118.81444550, -0.45415473, 0.24322663, -0.58670437, -0.62478989, -0.07460687, 0.22958258, -0.33772436, 100.01900482, 109.28558350, 32.46999741, 0.00000000
1, 0.2150, 22, -0.33986586, -1.10981441, -0.03165090, -39.80332565, -2.50746632, 89.43346405, -23.91113663, 8.21397209, -118.85413361, 76.72027588, -16.30402565, -118.58403778, -0.47203964, 0.21811813, -0.58497036, -0.62242490, 0.06104159, 0.17501347, -0.19070518, 100.01900482, 109.28558350, 32.46999741, 0.00000000
1, 0.2200, 23, -0.33208045, -1.09081042, -0.04958485, -37.31914520, -5.11940908, 88.84885406, -24.05729294, 8.79859638, -119.20491028, 76.51142120, -16.74245644, -118.50188446, -0.47467729, 0.21494667, -0.58490670, -0.62158149, 0.04596266, 0.15896259, -0.17568502, 100.01900482, 109.28558350, 32.46999741, 0.00000000
1, 0.2250, 24, -0.35419512, -1.03956985, -0.09108031, -35.22981262, -7.45386219, 88.17072296, -24.05729294, 8.79859638, -119.20491028, 76.31558990, -17.18003845, -118.43063354, -0.47720903, 0.21176876, -0.58493137, -0.62070996, 0.06086214, 0.11072393, -0.13687523, 100.01900482, 109.28558350, 32.46999741, 0.00000000
1, 0.2300, 25, -0.37932751, -0.97964418, -0.14095904, -32.13523865, -7.74604034, 86.93259430, -24.05729294, 8.79859638, -119.20491028, 76.13511658, -17.61170769, -118.36074066, -0.47966295, 0.20867541, -0.58502460, -0.61977762, 0.07889533, 0.05379415, -0.08941656, 100.01900482, 109.28558350, 32.46999741, 0.00000000
1, 0.2350, 26, -0.40526661, -0.93360579, -0.17282550, -28.19678879, -7.32443142, 85.28011322, -25.10961723, 9.26629639, -119.35106659, 75.97498322, -18.03775024, -118.29017639, -0.48204410, 0.20569763, -0.58521008, -0.61874968, 0.09781961, 0.01066996, -0.05966946, 100.01900482, 109.28558350, 32.46999741, 0.00000000
1, 0.2400, 27, -0.43508142, -0.89599001, -0.19020616, -24.25918198, -6.99056816, 82.92449951, -25.10961723, 9.26629639, -119.35106659, 75.83235168, -18.44857979, -118.21875763, -0.48432225, 0.20288593, -0.58544552, -0.61767536, 0.12078242, -0.02413673, -0.04410665, 100.01900482, 109.28558350, 32.46999741, 0.00000000
1, 0.2450, 28, -0.45710051, -0.89274955, -0.22007801, -22.60995293, -5.85468340, 79.70577240, -25.34346581, 9.32475853, -119.76029968, 75.69656372, -18.84222984, -118.14451599, -0.48652121, 0.20021899, -0.58566487, -0.61660868, 0.13628408, -0.02463140, -0.01592783, 100.01900482, 109.28558350, 32.46999741, 0.00000000
1, 0.2500, 29, -0.46335369, -0.89847076, -0.28632328, -23.85150337, -1.10650051, 75.87385559, -25.34346581, 9.32475853, -119.76029968, 75.54736328, -19.21121788, -118.04983521, -0.48874277, 0.19774848, -0.58570886, -0.61560643, 0.13650325, -0.01615006, 0.04850429, 100.01900482, 109.28558350, 32.46999741, 0.00000000
1, 0.2550, 30, -0.39440554, -0.87593782, -0.33956107, -24.44508743, 6.16622496, 73.04027557, -25.34346581, 9.32475853, -119.76029968, 75.38306427, -19.55707359, -117.92036438, -0.49107322, 0.19553088, -0.58555031, -0.61461020, 0.06190309, -0.03596818, 0.09987865, 100.01900482, 109.28558350, 32.46999741, 0.00000000
1, 0.2600, 31, -0.16890275, -0.81328106, -0.22030510, -18.13488579, 1.18763745, 69.37112427, -25.66501045, 10.02630806, -119.78953552, 75.25949860, -19.89118004, -117.82021332, -0.49311894, 0.19340670, -0.58563024, -0.61356729, -0.16941932, -0.09632714, -0.02045825, 100.01900482, 109.28558350, 32.46999741, 0.00000000
1, 0.2850, 32, 0.37069371, -0.67615926, -0.19500983, 6.59574127, -78.97521973, 43.80083466, -27.15580177, 9.38322163, -119.35106659, 75.54151154, -21.50907135, -118.75401306, -0.49393630, 0.17958973, -0.59296036, -0.61005950, -0.73574835, -0.22466320, -0.03825531, 100.01900482, 109.28558350, 32.46999741, 0.00000000
1, 0.2900, 33, 0.33070010, -0.64193249, -0.20507373, 11.65957737, -95.66109467, 39.83343887, -27.15580177, 9.38322163, -119.35106659, 75.76461029, -21.82109642, -119.19898987, -0.49242955, 0.17626287, -0.59564072, -0.60963660, -0.70063305, -0.25782388, -0.02451734, 100.01900482, 109.28558350, 32.46999741, 0.00000000
1, 0.2950, 34, 0.24360748, -0.63546491, -0.14518796, 18.83253670, -116.06649017, 36.31136703, -27.97427559, 9.96784592, -119.67260742, 76.06842041, -22.13903999, -119.75784302, -0.49023166, 0.17263377, -0.59890848, -0.60924470, -0.61881089, -0.26351291, -0.07966313, 100.01900482, 109.28558350, 32.46999741, 0.00000000
1, 0.3000, 35, 0.11733428, -0.62538040, -0.06651302, 25.39277267, -135.68832397, 33.30651474, -27.97427559, 9.96784592, -119.67260742, 76.44972229, -22.46267891, -120.42687988, -0.48737568, 0.16869545, -0.60272771, -0.60887289, -0.49794412, -0.27306053, -0.15243363, 100.01900482, 109.28558350, 32.46999741, 0.00000000
1, 0.3050, 36, 0.00686842, -0.60846734, -0.03349687, 30.77435112, -149.01626587, 30.32646370, -28.85121346, 6.81087399, -119.35106659, 76.89138031, -22.78277969, -121.17396545, -0.48403001, 0.16458818, -0.60692590, -0.60849541, -0.39274660, -0.28953534, -0.17849241, 100.01900482, 109.28558350, 32.46999741, 0.00000000
1, 0.3100, 37, -0.07585353, -0.60323942, -0.05183039, 37.55210876, -154.44158936, 26.57060242, -28.85121346, 6.81087399, -119.35106659, 77.38534546, -23.08496284, -121.95886230, -0.48036906, 0.16057135, -0.61136258, -0.60802811, -0.31492797, -0.29443854, -0.15234661, 100.01900482, 109.28558350, 32.46999741, 0.00000000
1, 0.3150, 38, -0.14344554, -0.64228797, -0.08712759, 46.38476563, -154.02688599, 19.66792679, -28.85121346, 6.81087399, -119.35106659, 77.93111420, -23.34632492, -122.75422668, -0.47644967, 0.15692690, -0.61594588, -0.60743749, -0.25165230, -0.25533652, -0.10854527, 100.01900482, 109.28558350, 32.46999741, 0.00000000
1, 0.3200, 39, -0.15661153, -0.66476321, -0.08351999, 52.38181305, -151.35147095, 13.34596252, -30.66354752, 9.23706532, -118.91259766, 78.50867462, -23.56675911, -123.54664612, -0.47236922, 0.15364002, -0.62055838, -0.60676962, -0.24219793, -0.23318866, -0.10294554, 100.01900482, 109.28558350, 32.46999741, 0.00000000
1, 0.3250, 40, -0.19469374, -0.69453037, -0.05628362, 59.38108063, -149.50573730, 5.65948009, -30.66354752, 9.23706532, -118.91259766, 79.12440491, -23.73999596, -124.34107971, -0.46806407, 0.15074664, -0.62523550, -0.60602975, -0.20710000, -0.20412461, -0.12055451, 100.01900482, 109.28558350, 32.46999741, 0.00000000
1, 0.3300, 41, -0.26123857, -0.72865272, -0.03474978, 64.66271973, -149.25880432, 0.12999165, -31.33586693, 8.82782841, -118.41566467, 79.77137756, -23.87773323, -125.14275360, -0.46356091, 0.14811084, -0.62997937, -0.60522759, -0.14295134, -0.17092279, -0.13207859, 100.01900482, 109.28558350, 32.46999741, 0.00000000
1, 0.3900, 42, -0.48532960, -0.81999743, 0.03816915, 81.28398895, -2.34966660, -75.13188171, -32.79742813, 6.63548660, -116.07717133, 86.66510773, -22.08401299, -130.57598877, -0.41785496, 0.15501706, -0.67008764, -0.59359038, 0.10772884, -0.10440430, -0.09627545, 100.01900482, 109.28558350, 32.46999741, 0.00000000
1, 0.3950, 43, -0.44808117, -0.82013917, 0.04023039, 83.90717316, 3.59568429, -78.10815430, -32.44665146, 6.48933077, -115.58023834, 87.08531189, -21.69205475, -130.58033752, -0.41535643, 0.15892115, -0.67165458, -0.59253979, 0.07675600, -0.10717999, -0.09160792, 100.01900482, 109.28558350, 32.46999741, 0.00000000
1, 0.4000, 44, -0.41699827, -0.82985306, 0.03592628, 87.22699738, 7.93250036, -80.57081604, -32.44665146, 6.48933077, -115.58023834, 87.51260376, -21.28668022, -130.55892944, -0.41288695, 0.16306581, -0.67319393, -0.59139156, 0.05221010, -0.10037635, -0.08047567, 100.01900482, 109.28558350, 32.46999741, 0.00000000
1, 0.4050, 45, -0.38008511, -0.83858526, 0.03374851, 90.99241638, 10.76966572, -82.79446411, -31.77433395, 5.58316278, -115.20023346, 87.95239258, -20.86971283, -130.51960754, -0.41040468, 0.16741246, -0.67474437, -0.59013665, 0.02204288, -0.09454450, -0.07123441, 100.01900482, 109.28558350, 32.46999741, 0.00000000
1, 0.4100, 46, -0.34622753, -0.84706247, 0.03960435, 94.61130524, 11.05836296, -84.83161926, -31.77433395, 5.58316278, -115.20023346, 88.40891266, -20.44277763, -130.47570801, -0.40783936, 0.17188641, -0.67634761, -0.58879209, -0.00490136, -0.08895032, -0.06973664, 100.01900482, 109.28558350, 32.46999741, 0.00000000
1, 0.4150, 47, -0.31579381, -0.85155439, 0.04014400, 98.53053284, 10.09063721, -86.65718842, -31.77433395, 5.58316278, -115.20023346, 88.88595581, -20.00712776, -130.43367004, -0.40515584, 0.17645378, -0.67803341, -0.58735311, -0.02823944, -0.08728620, -0.06255528, 100.01900482, 109.28558350, 32.46999741, 0.00000000
1, 0.4200, 48, -0.29042026, -0.85722744, 0.03466307, 102.31723785, 8.35168076, -88.32418823, -31.01432228, 4.96930695, -114.70330048, 89.38407135, -19.56359291, -130.39717102, -0.40233499, 0.18108682, -0.67981082, -0.58582544, -0.04635345, -0.08436532, -0.04897913, 100.01900482, 109.28558350, 32.46999741, 0.00000000
1, 0.4250, 49, -0.28133997, -0.88009441, 0.02925986, 105.82937622, 5.80708504, -89.90174103, -31.01432228, 4.96930695, -114.70330048, 89.90315247, -19.11254692, -130.37016296, -0.39935601, 0.18575682, -0.68168586, -0.58422053, -0.04802713, -0.06417163, -0.03515417, 100.01900482, 109.28558350, 32.46999741, 0.00000000
1, 0.4300, 50, -0.28885961, -0.90127504, 0.02473448, 108.98033905, 3.71267176, -91.49901581, -29.55276108, 2.57234716, -113.59251404, 90.44034576, -18.65373802, -130.34986877, -0.39623341, 0.19046880, -0.68363899, -0.58254486, -0.03294982, -0.04557553, -0.02186971, 100.01900482, 109.28558350, 32.46999741, 0.00000000
1, 0.4350, 51, -0.29313409, -0.91568840, 0.00848691, 111.54828644, 3.01533079, -92.00399780, -29.55276108, 2.57234716, -113.59251404, 90.99006653, -18.19238663, -130.32862854, -0.39304012, 0.19521584, -0.68563712, -0.58078575, -0.02101412, -0.03359942, 0.00340339, 100.01900482, 109.28558350, 32.46999741, 0.00000000
1, 0.4950, 52, -0.17324302, -0.95870686, 0.04459859, 105.98223877, -18.29295731, -88.55024719, -25.72347260, 0.90616781, -108.68167114, 97.63149261, -12.61915779, -130.09887695, -0.35108086, 0.24993563, -0.70875144, -0.55852115, -0.04726303, -0.00843477, 0.08067863, 100.01900482, 109.28558350, 32.46999741, 0.00000000
1, 0.5000, 53, -0.16022059, -0.94436240, 0.05018537, 104.97147369, -22.62064362, -87.09823608, -25.72347260, 0.90616781, -108.68167114, 98.16686249, -12.17103767, -130.15287781, -0.34710002, 0.25368148, -0.71068782, -0.55685747, -0.05264563, -0.02323856, 0.08441156, 100.01900482, 109.28558350, 32.46999741, 0.00000000
1, 0.5050, 54, -0.15325779, -0.94014013, 0.06676900, 103.97610474, -28.17248154, -85.43023682, -26.04501534, 1.57848585, -107.86319733, 98.70201874, -11.72668457, -130.23181152, -0.34298635, 0.25721627, -0.71267700, -0.55524027, -0.05205072, -0.02777488, 0.07713176, 100.01900482, 109.28558350, 32.46999741, 0.00000000
1, 0.5100, 55, -0.14857855, -0.92931616, 0.07103790, 102.44384766, -33.51270294, -84.06582642, -26.04501534, 1.57848585, -107.86319733, 99.23365021, -11.28426838, -130.33438110, -0.33874494, 0.26054683, -0.71469891, -0.55369014, -0.04916937, -0.03874617, 0.08212337, 100.01900482, 109.28558350, 32.46999741, 0.00000000
1, 0.5150, 56, -0.15993407, -0.92298758, 0.07569589, 101.55148315, -38.75114441, -82.35662079, -26.04501534, 1.57848585, -107.86319733, 99.76454926, -10.84510517, -130.46037292, -0.33437988, 0.26367486, -0.71677101, -0.55218214, -0.03029040, -0.04507146, 0.08666068, 100.01900482, 109.28558350, 32.46999741, 0.00000000
1, 0.5200, 57, -0.18700731, -0.92043889, 0.07407399, 100.85127258, -42.24473572, -80.71340942, -25.31423569, 0.90616781, -107.95088959, 100.29373169, -10.40990734, -130.60101318, -0.32994157, 0.26664767, -0.71887100, -0.55069244, 0.00426758, -0.04745272, 0.09741586, 100.01900482, 109.28558350, 32.46999741, 0.00000000
1, 0.5250, 58, -0.21313551, -0.91941977, 0.08553986, 99.89677429, -45.32034302, -79.16217804, -25.31423569, 0.90616781, -107.95088959, 100.81932068, -9.97829819, -130.75415039, -0.32544398, 0.26947477, -0.72098523, -0.54922670, 0.03779369, -0.04818249, 0.09502253, 100.01900482, 109.28558350, 32.46999741, 0.00000000
1, 0.5300, 59, -0.24616070, -0.92137873, 0.08421281, 98.37953949, -48.92314529, -77.61633301, -23.79421234, -0.35077462, -106.63548279, 101.33879852, -9.54951000, -130.92253113, -0.32087687, 0.27213579, -0.72310764, -0.54780972, 0.07820541, -0.04578161, 0.10530233, 100.01900482, 109.28558350, 32.46999741, 0.00000000
1, 0.5350, 60, -0.27584463, -0.92332637, 0.09368779, 96.45606232, -51.30779266, -76.17649841, -23.79421234, -0.35077462, -106.63548279, 101.84702301, -9.12650490, -131.09963989, -0.31630304, 0.27464229, -0.72520447, -0.54644531, 0.11518691, -0.04329026, 0.10463532, 100.01900482, 109.28558350, 32.46999741, 0.00000000
1, 0.5400, 61, -0.31159350, -0.90514016, 0.08766596, 93.43910980, -51.44435883, -74.45883942, -23.79421234, -0.35077462, -106.63548279, 102.34058380, -8.70773697, -131.27572632, -0.31176996, 0.27705616, -0.72723383, -0.54513329, 0.15818639, -0.06081242, 0.11922304, 100.01900482, 109.28558350, 32.46999741, 0.00000000
1, 0.5700, 62, -0.41116768, -0.90113771, 0.04038781, 76.74298859, -35.87459564, -62.93891144, -22.77112007, 0.35077462, -104.26775360, 104.95354462, -6.41290188, -132.04602051, -0.28765929, 0.29066157, -0.73737788, -0.53762615, 0.29786140, -0.05928702, 0.21185675, 100.01900482, 109.28558350, 32.46999741, 0.00000000
1, 0.5750, 63, -0.40308452, -0.90322137, 0.04700198, 72.99237823, -34.04507065, -60.67432022, -22.77112007, 0.35077462, -104.26775360, 105.32710266, -6.07486868, -132.13192749, -0.28420788, 0.29272825, -0.73873705, -0.53647345, 0.29568133, -0.05614162, 0.21178013, 100.01900482, 109.28558350, 32.46999741, 0.00000000
1, 0.5800, 64, -0.38132635, -0.89360738, 0.02889675, 68.67664337, -32.56620789, -58.51605606, -22.06957054, -0.05846244, -103.18620300, 105.67794800, -5.74870968, -132.21134949, -0.28090471, 0.29470098, -0.73999083, -0.53540403, 0.27968037, -0.06465947, 0.23608038, 100.01900482, 109.28558350, 32.46999741, 0.00000000
1, 0.5850, 65, -0.35134199, -0.88275373, 0.01826074, 64.83630371, -32.10018921, -56.07251358, -22.06957054, -0.05846244, -103.18620300, 106.00258636, -5.44211054, -132.28869629, -0.27778846, 0.29650807, -0.74114895, -0.53442943, 0.25516418, -0.07444844, 0.25251156, 100.01900482, 109.28558350, 32.46999741, 0.00000000
1, 0.5900, 66, -0.31966555, -0.86610126, 0.01964022, 60.30762863, -33.49120331, -53.41910553, -22.06957054, -0.05846244, -103.18620300, 106.31150055, -5.13838530, -132.37585449, -0.27467418, 0.29818293, -0.74226147, -0.53356266, 0.22874293, -0.09007707, 0.25658125, 100.01900482, 109.28558350, 32.46999741, 0.00000000
1, 0.5950, 67, -0.28776610, -0.84265828, 0.01198077, 55.70722580, -34.59460449, -49.70637131, -21.92341423, -0.14615609, -103.27389526, 106.59777832, -4.85052347, -132.47198486, -0.27166706, 0.29965240, -0.74331844, -0.53280699, 0.20195544, -0.11251104, 0.26934963, 100.01900482, 109.28558350, 32.46999741, 0.00000000
1, 0.6000, 68, -0.27465275, -0.83569741, 0.01632760, 51.10566330, -35.68881989, -46.37897110, -21.92341423, -0.14615609, -103.27389526, 106.86132813, -4.57662964, -132.57675171, -0.26875901, 0.30093017, -0.74431616, -0.53216839, 0.19365475, -0.11850820, 0.26969799, 100.01900482, 109.28558350, 32.46999741, 0.00000000
1, 0.6050, 69, -0.26491970, -0.83000731, 0.02145012, 44.25770950, -38.92770386, -41.56684494, -22.06957054, -4.67699480, -102.13388062, 107.09188080, -4.32070017, -132.70286560, -0.26594517, 0.30189243, -0.74524862, -0.53173172, 0.18842705, -0.12335342, 0.26864046, 100.01900482, 109.28558350, 32.46999741, 0.00000000
1, 0.6400, 70, -0.35725516, -0.76894057, -0.02970307, -1.97949374, -69.98352051, -9.19006157, -21.36802101, -1.63694823, -102.25080109, 107.82270813, -2.98794198, -134.30570984, -0.24804574, 0.29950795, -0.75041527, -0.53445804, 0.30455667, -0.18169373, 0.33319989, 100.01900482, 109.28558350, 32.46999741, 0.00000000
1, 0.6450, 71, -0.37082830, -0.73995543, -0.05241086, -7.91838026, -75.01036072, -5.02801657, -21.36802101, -1.63694823, -102.25080109, 107.80088043, -2.84993553, -134.65582275, -0.24557772, 0.29783106, -0.75097418, -0.53574806, 0.32064641, -0.21083987, 0.35571891, 100.01900482, 109.28558350, 32.46999741, 0.00000000
1, 0.6500, 72, -0.40051085, -0.71029210, -0.09716372, -13.59307480, -78.36218262, -0.89951360, -21.36802101, -1.63694823, -102.25080109, 107.75100708, -2.72679234, -135.02824402, -0.24316792, 0.29587597, -0.75148195, -0.53721678, 0.35265446, -0.24076168, 0.39976963, 100.01900482, 109.28558350, 32.46999741, 0.00000000
1, 0.6550, 73, -0.42623693, -0.68558800, -0.10928564, -19.16495323, -81.39893341, 3.20013809, -21.68956375, -3.50774622, -102.25080109, 107.67354584, -2.61905408, -135.42146301, -0.24082392, 0.29365212, -0.75193495, -0.53885639, 0.38038957, -0.26589334, 0.41077483, 100.01900482, 109.28558350, 32.46999741, 0.00000000
1, 0.6600, 74, -0.46699950, -0.64488351, -0.11126098, -27.19071198, -86.78633881, 10.04411888, -21.68956375, -3.50774622, -102.25080109, 107.55701447, -2.53661752, -135.85090637, -0.23856434, 0.29098788, -0.75233322, -0.54074746, 0.42267561, -0.30724150, 0.41090870, 100.01900482, 109.28558350, 32.46999741, 0.00000000
1, 0.6650, 75, -0.52890241, -0.64000106, -0.07967588, -29.76347733, -90.55165863, 15.10474110, -22.09880066, -0.87693655, -102.92311859, 107.42827606, -2.47366071, -136.30609131, -0.23632966, 0.28803676, -0.75276220, -0.54270840, 0.48568392, -0.31289607, 0.37707007, 100.01900482, 109.28558350, 32.46999741, 0.00000000
1, 0.6700, 76, -0.56018853, -0.74615777, 0.01381811, -25.56212044, -95.18041992, 22.30188751, -22.09880066, -0.87693655, -102.92311859, 107.32163239, -2.43909287, -136.79417419, -0.23405644, 0.28477809, -0.75341487, -0.54450446, 0.51747942, -0.20751682, 0.28144103, 100.01900482, 109.28558350, 32.46999741, 0.00000000
1, 0.6750, 77, -0.52051789, -0.90252268, 0.24841218, -23.35571671, -107.41686249, 33.75967789, -22.09880066, -0.87693655, -102.92311859, 107.22926331, -2.44198728, -137.35774231, -0.23162106, 0.28086859, -0.75437129, -0.54624963, 0.47734058, -0.05202638, 0.04513430, 100.01900482, 109.28558350, 32.46999741, 0.00000000
1, 0.6800, 78, -0.59690511, -0.97754097, 0.45201465, -29.66531181, -129.35543823, 48.77509689, -22.21572685, -1.31540489, -102.74773407, 107.11119843, -2.48552608, -138.04835510, -0.22889286, 0.27586865, -0.75556034, -0.54830033, 0.55265260, 0.02211536, -0.16061687, 100.01900482, 109.28558350, 32.46999741, 0.00000000
1, 0.6850, 79, -0.85144210, -0.94023001, 0.26698056, -31.60150337, -130.37924194, 64.72409058, -22.21572685, -1.31540489, -102.74773407, 106.98494720, -2.61560678, -138.76708984, -0.22659646, 0.27023670, -0.75688827, -0.55022383, 0.80585742, -0.01547266, 0.02168670, 100.01900482, 109.28558350, 32.46999741, 0.00000000
1, 0.7200, 80, 1.92423093, -2.52508736, -0.46132493, -112.72450256, 66.38484955, 0.51760447, -24.61268616, -2.45542240, -103.71236420, 105.65099335, -3.65697241, -139.96891785, -0.23060122, 0.25447020, -0.75488973, -0.55875719, -1.98643649, 1.56556809, 0.73373389, 100.01900482, 109.28558350, 32.46999741, 0.00000000
1, 0.7250, 81, 1.36601603, -1.68971193, -1.11819613, -114.04155731, 57.28664780, 12.02494049, -24.61268616, -2.45542240, -103.71236420, 105.06402588, -3.79178166, -139.70819092, -0.23404925, 0.25431406, -0.75165737, -0.56174421, -1.42871976, 0.72863132, 1.38055718, 100.01900482, 109.28558350, 32.46999741, 0.00000000
1, 0.7300, 82, 0.67770064, -1.09879863, -1.18981624, -99.81708527, 32.96184158, 33.73252487, -24.26191139, -2.68927217, -105.37854004, 104.55751038, -3.99809265, -139.59162903, -0.23706855, 0.25298914, -0.74924380, -0.56429505, -0.74348795, 0.13567457, 1.44248641, 100.01900482, 109.28558350, 32.46999741, 0.00000000
1, 0.7350, 83, 0.12176541, -0.77468646, -0.58679879, -84.38711548, -27.55298615, 63.14994049, -24.26191139, -2.68927217, -105.37854004, 104.13819122, -4.27057600, -139.80114746, -0.23869756, 0.24935831, -0.74807203, -0.56677347, -0.19353385, -0.19102448, 0.83114541, 100.01900482, 109.28558350, 32.46999741, 0.00000000
1, 0.7400, 84, -0.44365814, -0.63659060, 0.04998591, -69.31580353, -108.06620026, 94.09323883, -24.67114830, 0.02923122, -105.87547302, 103.84232330, -4.59852028, -140.44073486, -0.23825787, 0.24288109, -0.74849772, -0.56920403, 0.36485115, -0.33115527, 0.18752274, 100.01900482, 109.28558350, 32.46999741, 0.00000000
1, 0.7450, 85, -0.83908564, -0.60464907, 0.21065216, -60.66854858, -141.86987305, 115.43557739, -24.67114830, 0.02923122, -105.87547302, 103.60964203, -4.99302816, -141.26918030, -0.23713912, 0.23494346, -0.74967170, -0.57145339, 0.75330341, -0.36384881, 0.02166524, 100.01900482, 109.28558350, 32.46999741, 0.00000000
1, 0.7500, 86, -0.85101837, -0.57241833, 0.06730054, -57.98865891, -139.01943970, 119.57049561, -24.67114830, 0.02923122, -105.87547302, 103.39540863, -5.41408205, -142.08750916, -0.23617177, 0.22695364, -0.75087279, -0.57350242, 0.75830829, -0.39609498, 0.16122690, 100.01900482, 109.28558350, 32.46999741, 0.00000000
1, 0.7550, 87, -0.68370569, -0.48525992, -0.10890408, -59.50894547, -133.50155640, 108.18920135, -26.13270950, 0.17538731, -106.28471375, 103.17512512, -5.78913403, -142.86474609, -0.23509902, 0.21944329, -0.75181597, -0.57562661, 0.58465451, -0.48320502, 0.33414543, 100.01900482, 109.28558350, 32.46999741, 0.00000000
1, 0.7600, 88, -0.43754968, -0.38055265, -0.23338690, -60.50455856, -128.97976685, 89.10105896, -26.13270950, 0.17538731, -106.28471375, 102.94950104, -6.07926226, -143.59730530, -0.23369017, 0.21264854, -0.75246024, -0.57790422, 0.33338219, -0.58805013, 0.45549411, 100.01900482, 109.28558350, 32.46999741, 0.00000000
1, 0.7650, 89, -0.34764692, -0.32287136, -0.35445875, -60.90183258, -124.87548065, 65.82414246, -27.53580856, -0.29231218, -106.86933899, 102.71953583, -6.26332617, -144.28303528, -0.23182091, 0.20670556, -0.75279808, -0.58036810, 0.24022889, -0.64605033, 0.57291794, 100.01900482, 109.28558350, 32.46999741, 0.00000000
1, 0.8400, 90, -0.09866177, -1.00941944, -0.09697527, -19.20229149, 38.51263428, 38.93770981, -28.88044357, 0.38000584, -108.41858673, 100.56359100, -10.21767044, -144.13841248, -0.26111862, 0.18173164, -0.74644697, -0.58447218, -0.07752629, 0.04203790, 0.27601969, 100.01900482, 109.28558350, 32.46999741, 0.00000000
1, 0.8450, 91, -0.05393260, -1.01952314, -0.11651864, -16.66064072, 22.69529533, 40.00053406, -28.88044357, 0.38000584, -108.41858673, 100.46705627, -10.43510532, -144.06178284, -0.26301086, 0.18082005, -0.74608082, -0.58437389, -0.12598068, 0.05252118, 0.29378787, 100.01900482, 109.28558350, 32.46999741, 0.00000000
1, 0.8500, 92, -0.00998240, -1.00142479, -0.08969834, -14.31938648, 5.76550865, 40.89918137, -28.88044357, 0.38000584, -108.41858673, 100.39753723, -10.64164257, -144.07029724, -0.26435608, 0.17947301, -0.74597299, -0.58431989, -0.17359494, 0.03479601, 0.26569775, 100.01900482, 109.28558350, 32.46999741, 0.00000000
1, 0.8550, 93, -0.02868687, -0.95957816, -0.07678024, -12.09550762, -10.45070171, 41.04518890, -29.55276108, 0.84770536, -108.33089447, 100.35428619, -10.83439827, -144.15992737, -0.26515922, 0.17773211, -0.74610746, -0.58431643, -0.15828300, -0.00660240, 0.25184515, 100.01900482, 109.28558350, 32.46999741, 0.00000000
1, 0.8600, 94, -0.08109615, -0.91821706, -0.03168664, -8.30807972, -20.82008171, 40.50445175, -29.55276108, 0.84770536, -108.33089447, 100.33998871, -11.01526070, -144.30099487, -0.26558077, 0.17578727, -0.74645138, -0.58427405, -0.10913861, -0.04750701, 0.20622098, 100.01900482, 109.28558350, 32.46999741, 0.00000000
1, 0.8650, 95, -0.18439917, -0.88941276, 0.01757837, -4.86305189, -26.57638550, 39.20172501, -30.07892418, 0.81847411, -108.79859924, 100.34865570, -11.18455029, -144.46978760, -0.26575410, 0.17377719, -0.74693656, -0.58417648, -0.00890451, -0.07581490, 0.15670240, 100.01900482, 109.28558350, 32.46999741, 0.00000000
1, 0.8700, 96, -0.32178137, -0.88473392, 0.07413203, -2.00548196, -27.91003990, 37.73146820, -30.07892418, 0.81847411, -108.79859924, 100.37313843, -11.34534740, -144.64410400, -0.26582354, 0.17181343, -0.74749565, -0.58401060, 0.12554987, -0.07997811, 0.10006671, 100.01900482, 109.28558350, 32.46999741, 0.00000000
1, 0.8750, 97, -0.55496311, -0.91776633, 0.16925387, -0.00452999, -23.52927780, 34.41035461, -30.07892418, 0.81847411, -108.79859924, 100.40313721, -11.49360371, -144.79354858, -0.26593477, 0.17009240, -0.74802697, -0.58378339, 0.35588551, -0.04649394, 0.00471464, 100.01900482, 109.28558350, 32.46999741, 0.00000000
1, 0.8800, 98, -0.65043026, -0.94166017, 0.17031044, -1.04288054, -14.92093563, 30.91322136, -30.54662323, 0.49693072, -108.38935852, 100.41896820, -11.63231850, -144.89672852, -0.26624435, 0.16869229, -0.74840361, -0.58356577, 0.44894993, -0.02205103, 0.00367183, 100.01900482, 109.28558350, 32.46999741, 0.00000000
1, 0.8850, 99, -0.73824221, -0.95609450, 0.15099686, -3.26785183, 0.39091066, 26.32910156, -30.54662323, 0.49693072, -108.38935852, 100.40612030, -11.79522991, -144.91857910, -0.26716009, 0.16762304, -0.74853683, -0.58328444, 0.53427708, -0.00709380, 0.02252032, 100.01900482, 109.28558350, 32.46999741, 0.00000000
1, 0.9200, 100, -0.25293446, -0.96481168, 0.12693009, -3.85580897, 52.22139359, 14.42741966, -30.89739799, 1.81233561, -108.85705566, 99.95515442, -12.68120003, -143.52449036, -0.28035495, 0.17074339, -0.74510169, -0.58057845, 0.03357365, 0.00363034, 0.03983927, 100.01900482, 109.28558350, 32.46999741, 0.00000000
1, 0.9250, 101, -0.19049428, -0.97511506, 0.14516923, -2.53606105, 45.90644455, 13.87452602, -30.92663002, 1.75387311, -108.59397888, 99.89419556, -12.78876495, -143.30477905, -0.28221586, 0.17142707, -0.74457759, -0.58014756, -0.03077818, 0.01412897, 0.02058474, 100.01900482, 109.28558350, 32.46999741, 0.00000000
1, 0.9300, 102, -0.15937933, -0.98902357, 0.15809463, -2.08747721, 38.21352005, 13.82565975, -30.92663002, 1.75387311, -108.59397888, 99.84370422, -12.88936043, -143.12370300, -0.28382155, 0.17192215, -0.74415672, -0.57975769, -0.06366564, 0.02825165, 0.00675918, 100.01900482, 109.28558350, 32.46999741, 0.00000000
1, 0.9350, 103, -0.15100035, -0.98720145, 0.16174786, -1.88469183, 30.27305794, 13.84412861, -30.92663002, 1.75387311, -108.59397888, 99.80227661, -12.97437954, -142.98237610, -0.28511643, 0.17226627, -0.74382472, -0.57944614, -0.07361959, 0.02664714, 0.00231831, 100.01900482, 109.28558350, 32.46999741, 0.00000000
1, 0.9400, 104, -0.17820525, -0.97679758, 0.17668341, -1.60562623, 18.89266777, 13.53426552, -30.95586014, 2.13387895, -108.65244293, 99.77551270, -13.05700779, -142.89851379, -0.28608352, 0.17228645, -0.74365073, -0.57918674, -0.04781581, 0.01644482, -0.01320934, 100.01900482, 109.28558350, 32.46999741, 0.00000000
1, 0.9450, 105, -0.21700424, -0.97018182, 0.19480173, -2.11382222, 13.61918068, 12.46862984, -30.95586014, 2.13387895, -108.65244293, 99.75193787, -13.12993240, -142.84036255, -0.28685629, 0.17220108, -0.74352127, -0.57899606, -0.01034627, 0.01002378, -0.03186714, 100.01900482, 109.28558350, 32.46999741, 0.00000000
1, 0.9500, 106, -0.26028746, -0.95545173, 0.18029259, -2.50018167, 9.98881054, 11.19524288, -30.92663002, 1.78310430, -109.03244781, 99.73024750, -13.19351768, -142.79940796, -0.28748208, 0.17206004, -0.74341744, -0.57886100, 0.03185520, -0.00448972, -0.01786099, 100.01900482, 109.28558350, 32.46999741, 0.00000000
1, 0.9550, 107, -0.30554673, -0.94632077, 0.18979533, -1.80743623, 8.34819317, 10.13080692, -30.92663002, 1.78310430, -109.03244781, 99.71364594, -13.25045872, -142.76585388, -0.28802240, 0.17192060, -0.74334329, -0.57872903, 0.07609770, -0.01345798, -0.02780132, 100.01900482, 109.28558350, 32.46999741, 0.00000000
1, 0.9600, 108, -0.35381973, -0.95566988, 0.20301205, -1.34177732, 7.91647577, 9.41354370, -30.92663002, 1.78310430, -109.03244781, 99.69970703, -13.30349541, -142.73382568, -0.28852701, 0.17179930, -0.74328077, -0.57859403, 0.12342407, -0.00395931, -0.04142912, 100.01900482, 109.28558350, 32.46999741, 0.00000000
1, 0.9650, 109, -0.38979390, -0.97562778, 0.21792200, -1.29075563, 9.46204376, 8.88889980, -31.36509705, 1.57848585, -108.91551971, 99.68405914, -13.35522079, -142.69351196, -0.28906789, 0.17173462, -0.74319577, -0.57845229, 0.15847781, 0.01613765, -0.05674568, 100.01900482, 109.28558350, 32.46999741, 0.00000000
1, 1.0000, 110, -0.29400712, -0.93358862, 0.14444977, -2.75519609, 20.04416656, 1.34313428, -31.01432228, -1.02309263, -109.67552948, 99.44552612, -13.62487793, -142.11441040, -0.29398042, 0.17338262, -0.74140674, -0.57778025, 0.05817255, -0.02532842, 0.01293982, 100.01900482, 109.28558350, 32.46999741, 0.00000000
1, 1.0050, 111, -0.24923620, -0.95392275, 0.14043693, -2.86629152, 20.17266273, 0.29604575, -31.01432228, -1.02309263, -109.67552948, 99.40709686, -13.64272308, -142.01225281, -0.29466140, 0.17384562, -0.74107742, -0.57771683, 0.01308550, -0.00501517, 0.01638290, 100.01900482, 109.28558350, 32.46999741, 0.00000000
1, 1.0100, 112, -0.19870423, -0.96843100, 0.12698331, -2.90846133, 20.44519997, -0.92374790, -31.01432228, -1.02309263, -109.67552948, 99.36786652, -13.65470505, -141.90768433, -0.29532042, 0.17435418, -0.74073362, -0.57766783, -0.03764196, 0.00946110, 0.02927174, 100.01900482, 109.28558350, 32.46999741, 0.00000000
1, 1.0150, 113, -0.15382420, -0.97350299, 0.13505712, -3.13846231, 18.68691826, -1.76892960, -31.56971550, 1.28617358, -109.32476044, 99.32939148, -13.66104698, -141.81132507, -0.29590300, 0.17484243, -0.74039978, -0.57765019, -0.08267084, 0.01444471, 0.02065246, 100.01900482, 109.28558350, 32.46999741, 0.00000000
1, 1.0200, 114, -0.13009872, -0.96258724, 0.12413923, -3.32085681, 16.04621887, -2.10996771, -31.56971550, 1.28617358, -109.32476044, 99.29309082, -13.66352272, -141.72807312, -0.29639298, 0.17527255, -0.74009234, -0.57766271, -0.10642662, 0.00345834, 0.03102160, 100.01900482, 109.28558350, 32.46999741, 0.00000000
1, 1.0250, 115, -0.13005294, -0.96273482, 0.11046826, -2.82786798, 13.53993034, -2.00072050, -30.78047371, 1.98772287, -109.32476044, 99.26228333, -13.66448498, -141.65766907, -0.29680088, 0.17564218, -0.73983026, -0.57767659, -0.10645925, 0.00354506, 0.04415185, 100.01900482, 109.28558350, 32.46999741, 0.00000000
1, 1.0300, 116, -0.13899948, -0.97183478, 0.11821456, -2.78913212, 10.43026733, -1.58460343, -30.78047371, 1.98772287, -109.32476044, 99.23549652, -13.66499805, -141.60337830, -0.29711869, 0.17592029, -0.73961258, -0.57770747, -0.09753972, 0.01255911, 0.03590711, 100.01900482, 109.28558350, 32.46999741, 0.00000000
1, 1.0350, 117, -0.16382624, -0.97548568, 0.11263549, -3.04222512, 7.94296122, -1.07983291, -30.78047371, 1.98772287, -109.32476044, 99.19168854, -13.63931656, -141.55540466, -0.29727358, 0.17625912, -0.73928958, -0.57793772, -0.07248838, 0.01607365, 0.04084166, 100.01900482, 109.28558350, 32.46999741, 0.00000000
1, 1.0400, 118, -0.21121909, -0.97663033, 0.09679285, -3.09911561, 6.72735500, -1.24829185, -30.89739799, 0.87693655, -109.00321198, 99.16788483, -13.63850403, -141.52021790, -0.29748282, 0.17642882, -0.73911446, -0.57800233, -0.02482971, 0.01709959, 0.05601592, 100.01900482, 109.28558350, 32.46999741, 0.00000000
1, 1.0450, 119, -0.23711085, -0.96803081, 0.08204421, -3.05560756, 5.84599590, -2.25131440, -30.89739799, 0.87693655, -109.00321198, 99.14513397, -13.63203239, -141.48869324, -0.29763803, 0.17660911, -0.73894399, -0.57808530, 0.00118937, 0.00844046, 0.07033233, 100.01900482, 109.28558350, 32.46999741, 0.00000000
1, 1.0700, 120, -0.25778618, -0.98038924, 0.11327344, -2.45369577, 12.35687160, -0.45633429, -31.27740479, 0.99386144, -109.29552460, 99.01188660, -13.63487720, -141.24160767, -0.29910782, 0.17783841, -0.73789275, -0.57829267, 0.02180313, 0.02039057, 0.03682254, 100.01900482, 109.28558350, 32.46999741, 0.00000000
1, 1.0750, 121, -0.24759807, -0.97914732, 0.12395576, -3.18567348, 14.18372917, 0.08725812, -31.10201645, 0.26308095, -109.99707794, 98.97897339, -13.64632034, -141.16960144, -0.29959095, 0.17815240, -0.73762769, -0.57828408, 0.01140990, 0.01909090, 0.02563678, 100.01900482, 109.28558350, 32.46999741, 0.00000000
1, 1.0800, 122, -0.23242228, -0.96717548, 0.15020292, -2.95190573, 15.59726048, 0.78396606, -31.10201645, 0.26308095, -109.99707794, 98.94566345, -13.66225243, -141.09094238, -0.30013514, 0.17848273, -0.73735517, -0.57824761, -0.00408217, 0.00704657, -0.00113074, 100.01900482, 109.28558350, 32.46999741, 0.00000000
1, 1.0850, 123, -0.21751033, -0.97410595, 0.17139916, -2.44459629, 15.02306557, 1.67517865, -31.10201645, 0.26308095, -109.99707794, 98.92231750, -13.67536259, -141.01806641, -0.30061769, 0.17881736, -0.73713857, -0.57816958, -0.01930943, 0.01393308, -0.02277054, 100.01900482, 109.28558350, 32.46999741, 0.00000000
1, 1.0900, 124, -0.21865726, -0.98613942, 0.16594048, -2.64425039, 14.09361839, 2.60197568, -31.10201645, 2.04618526, -109.61707306, 98.89264679, -13.69904995, -140.94844055, -0.30115691, 0.17905518, -0.73690712, -0.57811052, -0.01847811, 0.02598570, -0.01778620, 100.01900482, 109.28558350, 32.46999741, 0.00000000
1, 1.0950, 125, -0.22686632, -0.99654853, 0.15075710, -2.61004210, 14.35655689, 3.27379894, -31.10201645, 2.04618526, -109.61707306, 98.86293793, -13.72621727, -140.87799072, -0.30172113, 0.17927855, -0.73667800, -0.57803905, -0.01067638, 0.03645007, -0.00314799, 100.01900482, 109.28558350, 32.46999741, 0.00000000
1, 1.1000, 126, -0.24238402, -0.99905789, 0.13988502, -3.27103043, 19.04953384, 3.42912388, -30.60508537, 0.99386144, -109.61707306, 98.82424164, -13.75769711, -140.78376770, -0.30244496, 0.17960663, -0.73637128, -0.57794982, 0.00435309, 0.03900847, 0.00706282, 100.01900482, 109.28558350, 32.46999741, 0.00000000
1, 1.1050, 127, -0.23371324, -0.99189746, 0.15390910, -3.65555239, 21.38522911, 3.20927382, -30.60508537, 0.99386144, -109.61707306, 98.78067017, -13.78978634, -140.67745972, -0.30324098, 0.17999554, -0.73602146, -0.57785726, -0.00490020, 0.03184539, -0.00767321, 100.01900482, 109.28558350, 32.46999741, 0.00000000
1, 1.1100, 128, -0.20908488, -0.97720683, 0.18242653, -4.31480694, 20.08377647, 3.50211477, -30.60508537, 0.99386144, -109.61707306, 98.73538208, -13.82228088, -140.57795715, -0.30400762, 0.18033326, -0.73567408, -0.57779151, -0.03014420, 0.01712380, -0.03688012, 100.01900482, 109.28558350, 32.46999741, 0.00000000
1, 1.1150, 129, -0.19492991, -0.96849132, 0.19245407, -4.30181932, 19.19354057, 4.32198286, -31.10201645, 1.95849168, -109.44168091, 98.69135284, -13.85808086, -140.48358154, -0.30476600, 0.18062223, -0.73534477, -0.57772088, -0.04491306, 0.00842157, -0.04762139, 100.01900482, 109.28558350, 32.46999741, 0.00000000
1, 1.1500, 130, -0.21972704, -1.01096213, 0.17626528, -6.03453875, 22.31046677, 8.83490849, -31.01432228, 0.96463019, -109.82168579, 98.37545776, -14.21393490, -139.82746887, -0.31068286, 0.18198906, -0.73313010, -0.57695448, -0.02600242, 0.05159614, -0.03701711, 100.01900482, 109.28558350, 32.46999741, 0.00000000
1, 1.1550, 131, -0.21905687, -1.00898957, 0.17053124, -5.97345924, 23.24092865, 9.27693462, -31.01432228, 0.96463019, -109.82168579, 98.31819916, -14.27659225, -139.71569824, -0.31170684, 0.18219775, -0.73273796, -0.57683438, -0.02770233, 0.04975359, -0.03227926, 100.01900482, 109.28558350, 32.46999741, 0.00000000
1, 1.1600, 132, -0.21559757, -1.01175821, 0.16353995, -5.96102476, 25.28245544, 9.85121918, -31.01432228, 0.96463019, -109.82168579, 98.25839996, -14.34343815, -139.59382629, -0.31280988, 0.18243946, -0.73232210, -0.57668900, -0.03225440, 0.05267109, -0.02630023, 100.01900482, 109.28558350, 32.46999741, 0.00000000
1, 1.1650, 133, -0.20721537, -1.01002383, 0.14617324, -6.57112885, 25.98220062, 10.96228313, -31.07278633, 1.40309846, -109.61707306, 98.19469452, -14.41616058, -139.46908569, -0.31396773, 0.18265480, -0.73188901, -0.57654136, -0.04180313, 0.05111799, -0.01001524, 100.01900482, 109.28558350, 32.46999741, 0.00000000
1, 1.1700, 134, -0.18800427, -1.00564718, 0.15931772, -7.15017414, 27.00138283, 11.83519936, -31.07278633, 1.40309846, -109.61707306, 98.12677002, -14.49378109, -139.33963013, -0.31518418, 0.18285973, -0.73143321, -0.57639122, -0.06233815, 0.04688850, -0.02426971, 100.01900482, 109.28558350, 32.46999741, 0.00000000
1, 1.1750, 135, -0.17133297, -1.00205266, 0.18332869, -7.69585371, 28.22723007, 12.81777287, -30.57585526, 1.43232965, -109.35398865, 98.05452728, -14.57697964, -139.20446777, -0.31646824, 0.18305638, -0.73095334, -0.57623392, -0.08045027, 0.04343936, -0.04947144, 100.01900482, 109.28558350, 32.46999741, 0.00000000
1, 1.1800, 136, -0.14647847, -0.99232697, 0.18659812, -7.91204596, 28.68846130, 13.84803200, -30.57585526, 1.43232965, -109.35398865, 97.98056793, -14.66543579, -139.06750488, -0.31779411, 0.18322848, -0.73046839, -0.57606441, -0.10678725, 0.03391401, -0.05395256, 100.01900482, 109.28558350, 32.46999741, 0.00000000
1, 1.1850, 137, -0.13236018, -0.99905634, 0.19686665, -8.14799500, 27.85895538, 14.95293331, -30.57585526, 1.43232965, -109.35398865, 97.91275024, -14.74625874, -138.93748474, -0.31902969, 0.18341467, -0.73001653, -0.57589501, -0.12237810, 0.04083682, -0.06543127, 100.01900482, 109.28558350, 32.46999741, 0.00000000
1, 1.2150, 138, -0.10689339, -0.99116945, 0.25015250, -12.04990864, 19.68679810, 21.74815178, -30.66354752, 1.78310430, -109.85092163, 97.43885040, -15.40180683, -138.28443909, -0.32688582, 0.18254028, -0.72738433, -0.57509720, -0.15879366, 0.03468842, -0.12684956, 100.01900482, 109.28558350, 32.46999741, 0.00000000
1, 1.2200, 139, -0.12022257, -0.99324179, 0.22992693, -13.03776455, 16.59336090, 24.03548813, -30.66354752, 1.78310430, -109.85092163, 97.35542297, -15.53171539, -138.21492004, -0.32812002, 0.18200940, -0.72701222, -0.57503313, -0.14757007, 0.03720172, -0.10813870, 100.01900482, 109.28558350, 32.46999741, 0.00000000
1, 1.2250, 140, -0.13275950, -1.00047147, 0.21949828, -13.72230721, 14.76924038, 25.78838348, -30.40046692, -0.02923122, -109.99707794, 97.27122498, -15.66908646, -138.15570068, -0.32934526, 0.18136694, -0.72666174, -0.57497877, -0.13728601, 0.04489877, -0.09922737, 100.01900482, 109.28558350, 32.46999741, 0.00000000
1, 1.2300, 141, -0.14697883, -0.99624074, 0.20699373, -14.75842953, 15.49081707, 27.29096603, -30.40046692, -0.02923122, -109.99707794, 97.18090057, -15.81428432, -138.09347534, -0.33063865, 0.18067974, -0.72628522, -0.57492852, -0.12544395, 0.04117198, -0.08831772, 100.01900482, 109.28558350, 32.46999741, 0.00000000
1, 1.2350, 142, -0.15554596, -0.98932314, 0.20132734, -15.70011139, 17.16069412, 28.49947548, -31.48202324, -0.02923122, -110.02630615, 97.09006500, -15.95635509, -138.02543640, -0.33194205, 0.18004358, -0.72589326, -0.57487208, -0.11930346, 0.03475840, -0.08428302, 100.01900482, 109.28558350, 32.46999741, 0.00000000
1, 1.2400, 143, -0.13864061, -0.98670363, 0.21079986, -16.36295319, 19.22434044, 29.36330414, -31.48202324, 2.48465347, -110.02630615, 96.98630524, -16.11392021, -137.94465637, -0.33341673, 0.17936046, -0.72543520, -0.57481033, -0.13877080, 0.03264184, -0.09544501, 100.01900482, 109.28558350, 32.46999741, 0.00000000
1, 1.2450, 144, -0.11578093, -0.98943555, 0.24013229, -17.39573097, 19.51008797, 30.15441132, -31.48202324, 2.48465347, -110.02630615, 96.87680054, -16.27544594, -137.86251831, -0.33492747, 0.17864397, -0.72495127, -0.57476574, -0.16439597, 0.03587966, -0.12662435, 100.01900482, 109.28558350, 32.46999741, 0.00000000
1, 1.2500, 145, -0.11105005, -0.99704206, 0.24251740, -18.18875313, 17.60477638, 30.89023781, -31.65740967, 2.60157847, -110.49400330, 96.76589966, -16.43937111, -137.79029846, -0.33640170, 0.17784414, -0.72447884, -0.57474852, -0.17186853, 0.04405618, -0.13094646, 100.01900482, 109.28558350, 32.46999741, 0.00000000
1, 1.2550, 146, -0.12796350, -1.01961100, 0.23848146, -18.41862679, 16.28627396, 32.05351257, -31.65740967, 2.60157847, -110.49400330, 96.65570068, -16.60818100, -137.72521973, -0.33786425, 0.17697057, -0.72402692, -0.57472974, -0.15774754, 0.06723917, -0.12891574, 100.01900482, 109.28558350, 32.46999741, 0.00000000
1, 1.2600, 147, -0.15867814, -1.03125048, 0.23634763, -19.08394814, 15.59970284, 32.85181808, -31.59894753, 2.68927217, -110.69862366, 96.54304504, -16.78046036, -137.66377258, -0.33932936, 0.17604418, -0.72357231, -0.57472354, -0.12989664, 0.07951781, -0.12884063, 100.01900482, 109.28558350, 32.46999741, 0.00000000
1, 1.2950, 148, -0.28173932, -1.04448724, 0.22719714, -21.60259247, 19.36747169, 39.00265884, -32.41742325, 2.83542824, -111.10786438, 95.69078064, -18.10812950, -137.26271057, -0.35013402, 0.16839986, -0.72025371, -0.57470191, -0.02879559, 0.09810661, -0.13478453, 100.01900482, 109.28558350, 32.46999741, 0.00000000
1, 1.3000, 149, -0.25640458, -1.07231617, 0.17383483, -21.55117798, 23.93171501, 38.97058487, -32.27126694, 2.98158431, -111.02017212, 95.55048370, -18.31386375, -137.15710449, -0.35202253, 0.16744822, -0.71963376, -0.57460302, -0.05739758, 0.12690771, -0.08378768, 100.01900482, 109.28558350, 32.46999741, 0.00000000
1, 1.3050, 150, -0.18765575, -1.12531602, 0.14431162, -22.14690018, 29.14412117, 39.27767181, -32.27126694, 2.98158431, -111.02017212, 95.39807129, -18.52332497, -137.02363586, -0.35408470, 0.16660783, -0.71891743, -0.57447696, -0.12953027, 0.18086022, -0.05675925, 100.01900482, 109.28558350, 32.46999741, 0.00000000
1, 1.3100, 151, -0.08635164, -1.19819164, 0.12139476, -24.84314537, 25.79454613, 40.00329971, -32.73896408, 2.89389062, -111.48786926, 95.23722076, -18.73455429, -136.90736389, -0.35607794, 0.16561784, -0.71818668, -0.57444513, -0.23426253, 0.25469446, -0.03643037, 100.01900482, 109.28558350, 32.46999741, 0.00000000
1, 1.3150, 152, -0.02641220, -1.21004295, 0.08074845, -27.38072968, 24.20429230, 41.50494385, -32.73896408, 2.89389062, -111.48786926, 95.06593323, -18.95228958, -136.79933167, -0.35807574, 0.16450039, -0.71742380, -0.57447755, -0.29766774, 0.26756883, 0.00146080, 100.01900482, 109.28558350, 32.46999741, 0.00000000
1, 1.3200, 153, 0.04192213, -1.19837999, 0.10790761, -28.37803650, 24.74296570, 43.38824463, -32.73896408, 2.89389062, -111.48786926, 94.88840485, -19.17932510, -136.68849182, -0.36014256, 0.16332106, -0.71663702, -0.57450408, -0.36977702, 0.25687891, -0.02852436, 100.01900482, 109.28558350, 32.46999741, 0.00000000
1, 1.3250, 154, 0.06512185, -1.18684912, 0.12348897, -29.63919449, 20.70799446, 45.62157440, -32.97281647, 3.21543407, -111.78018188, 94.71120453, -19.41552734, -136.59902954, -0.36214632, 0.16194975, -0.71589345, -0.57455987, -0.39687806, 0.24641913, -0.04705398, 100.01900482, 109.28558350, 32.46999741, 0.00000000
1, 1.3300, 155, 0.03611671, -1.20300961, 0.12302162, -32.11550522, 11.23311138, 47.67059326, -32.97281647, 3.21543407, -111.78018188, 94.53804779, -19.65796661, -136.55963135, -0.36392114, 0.16023622, -0.71524751, -0.57472330, -0.37182808, 0.26374179, -0.04965106, 100.01900482, 109.28558350, 32.46999741, 0.00000000
1, 1.3350, 156, -0.00092294, -1.20675051, 0.13795252, -33.49916077, 8.29878235, 48.98530579, -33.41128159, 3.33235884, -112.01403046, 94.36503601, -19.89108276, -136.53616333, -0.36555818, 0.15847263, -0.71461260, -0.57496309, -0.33875871, 0.26863968, -0.06763901, 100.01900482, 109.28558350, 32.46999741, 0.00000000
1, 1.3400, 157, -0.05215297, -1.20387173, 0.16174796, -35.20550919, 5.53981543, 50.13303757, -33.41128159, 3.33235884, -112.01403046, 94.18624878, -20.14354324, -136.52626038, -0.36723441, 0.15648791, -0.71398753, -0.57521504, -0.29158685, 0.26695225, -0.09455028, 100.01900482, 109.28558350, 32.46999741, 0.00000000
1, 1.4050, 158, -0.14718992, -1.31917095, 0.20679568, -50.44303894, 19.63936806, 68.32937622, -34.90207672, 4.61853266, -114.14791107, 91.13079834, -24.08185387, -135.85603333, -0.39532915, 0.12707278, -0.70204055, -0.57853830, -0.25999284, 0.40545583, -0.19011912, 100.01900482, 109.28558350, 32.46999741, 0.00000000
1, 1.4100, 159, -0.12766081, -1.34820104, 0.18720360, -52.25947571, 23.07605743, 69.62619019, -35.48669815, 4.44314528, -114.49868011, 90.82077789, -24.43235970, -135.73536682, -0.39808518, 0.12462311, -0.70070672, -0.57879829, -0.28502890, 0.43692183, -0.17542250, 100.01900482, 109.28558350, 32.46999741, 0.00000000
1, 1.4150, 160, -0.07184546, -1.38510835, 0.20676014, -54.45412827, 25.36724472, 70.62008667, -35.48669815, 4.44314528, -114.49868011, 90.49289703, -24.78738213, -135.59970093, -0.40094215, 0.12216082, -0.69927216, -0.57908612, -0.34651345, 0.47629473, -0.20008162, 100.01900482, 109.28558350, 32.46999741, 0.00000000
1, 1.4200, 161, -0.00437087, -1.41929615, 0.20002900, -57.36458588, 22.21127892, 71.91390228, -35.48669815, 4.44314528, -114.49868011, 90.15596008, -25.14810753, -135.47880554, -0.40374446, 0.11952614, -0.69781464, -0.57944691, -0.41965929, 0.51309353, -0.19856219, 100.01900482, 109.28558350, 32.46999741, 0.00000000
1, 1.4250, 162, 0.06850616, -1.44272411, 0.18571761, -59.41828537, 18.87969398, 73.57819366, -35.69131851, 5.78778124, -114.49868011, 89.81476593, -25.51656151, -135.37359619, -0.40649161, 0.11671808, -0.69636047, -0.57984799, -0.49828458, 0.53926498, -0.18948008, 100.01900482, 109.28558350, 32.46999741, 0.00000000
1, 1.4300, 163, 0.10747638, -1.43934894, 0.15692301, -61.30442047, 16.48118973, 75.61311340, -35.69131851, 5.78778124, -114.49868011, 89.46806335, -25.89472198, -135.27880859, -0.40921983, 0.11375186, -0.69489884, -0.58027172, -0.54309571, 0.53879714, -0.16601023, 100.01900482, 109.28558350, 32.46999741, 0.00000000
1, 1.4350, 164, 0.08063023, -1.39606047, 0.16212098, -62.05202484, 14.15159416, 78.09085083, -36.71440887, 5.72931862, -115.66793060, 89.12466431, -26.27458382, -135.19549561, -0.41187406, 0.11070171, -0.69346642, -0.58069724, -0.52224445, 0.49847478, -0.17658353, 100.01900482, 109.28558350, 32.46999741, 0.00000000
1, 1.4400, 165, 0.05869367, -1.38639903, 0.17246851, -61.86236572, 13.64978409, 80.21466064, -36.71440887, 5.72931862, -115.66793060, 88.77838898, -26.67497063, -135.11032104, -0.41462052, 0.10751058, -0.69203758, -0.58104676, -0.50647426, 0.49193192, -0.19231623, 100.01900482, 109.28558350, 32.46999741, 0.00000000
1, 1.4450, 166, 0.01738875, -1.39250398, 0.19022170, -61.20276260, 15.54671192, 82.70513153, -36.71440887, 5.72931862, -115.66793060, 88.42852020, -27.08708954, -135.01109314, -0.41747600, 0.10430246, -0.69058871, -0.58131063, -0.47160149, 0.50135481, -0.21552718, 100.01900482, 109.28558350, 32.46999741, 0.00000000
1, 1.4500, 167, -0.00296105, -1.42761230, 0.21492474, -61.54199982, 20.41802406, 84.26270294, -36.59748459, 5.90470600, -115.55101013, 88.06217194, -27.50564575, -134.88095093, -0.42051029, 0.10116290, -0.68903518, -0.58152187, -0.45778960, 0.53991175, -0.24586007, 100.01900482, 109.28558350, 32.46999741, 0.00000000
1, 1.4850, 168, 0.12721080, -1.47162831, 0.28348196, -56.98983002, 56.90820694, 89.42098236, -38.84828949, 7.19087982, -116.69102478, 85.13742065, -30.47893715, -133.13977051, -0.44569629, 0.08190658, -0.67584372, -0.58127570, -0.63361776, 0.61141247, -0.35696417, 100.01900482, 109.28558350, 32.46999741, 0.00000000
1, 1.4900, 169, 0.12372596, -1.45910132, 0.30876893, -55.44203186, 58.37911224, 89.64665985, -38.84828949, 7.19087982, -116.69102478, 84.66468048, -30.89959526, -132.75447083, -0.44988814, 0.07967123, -0.67361617, -0.58094269, -0.63645840, 0.60314620, -0.38896346, 100.01900482, 109.28558350, 32.46999741, 0.00000000
1, 1.4950, 170, 0.09870435, -1.47598219, 0.33421281, -53.42625046, 59.43141556, 90.06670380, -38.84828949, 7.19087982, -116.69102478, 84.19333649, -31.31903648, -132.35708618, -0.45410192, 0.07748788, -0.67140192, -0.58052272, -0.61777717, 0.62441170, -0.42117125, 100.01900482, 109.28558350, 32.46999741, 0.00000000
1, 1.5000, 171, 0.10175174, -1.49437094, 0.37860855, -52.69738007, 67.07244873, 91.25606537, -39.22829437, 8.21397209, -117.07102966, 83.69638824, -31.73740005, -131.90850830, -0.45855373, 0.07547582, -0.66903949, -0.58001566, -0.62717390, 0.64726812, -0.47240031, 100.01900482, 109.28558350, 32.46999741, 0.00000000
1, 1.5050, 172, 0.17000990, -1.47059548, 0.40995634, -53.80298996, 82.38571930, 92.86196136, -39.22829437, 8.21397209, -117.07102966, 83.13966370, -32.15131378, -131.36265564, -0.46348163, 0.07378066, -0.66632611, -0.57944000, -0.70166636, 0.62814206, -0.51108623, 100.01900482, 109.28558350, 32.46999741, 0.00000000
1, 1.5100, 173, 0.27966753, -1.42269206, 0.43951929, -54.52794266, 95.77183533, 95.08306885, -39.28675842, 9.00321579, -117.53872681, 82.52912140, -32.56307983, -130.72909546, -0.46883944, 0.07234277, -0.66330612, -0.57877558, -0.81747466, 0.58507609, -0.54859507, 100.01900482, 109.28558350, 32.46999741, 0.00000000
1, 1.5150, 174, 0.36412084, -1.37418807, 0.40697312, -55.05667496, 98.90891266, 97.72338867, -39.28675842, 9.00321579, -117.53872681, 81.89649963, -32.97995377, -130.06671143, -0.47433695, 0.07089422, -0.66018945, -0.57803839, -0.90794575, 0.54172873, -0.52440012, 100.01900482, 109.28558350, 32.46999741, 0.00000000
1, 1.5200, 175, 0.35913268, -1.32184136, 0.33549526, -55.69559860, 96.56442261, 100.86539459, -39.28675842, 9.00321579, -117.53872681, 81.25795746, -33.40790176, -129.40672302, -0.47982812, 0.06927998, -0.65708691, -0.57723659, -0.90899611, 0.49484754, -0.46149105, 100.01900482, 109.28558350, 32.46999741, 0.00000000
1, 1.5250, 176, 0.29879382, -1.30408049, 0.34102708, -53.80672073, 94.18843079, 104.78065491, -39.69599533, 9.61707115, -118.21104431, 80.62550354, -33.85088730, -128.74810791, -0.48532346, 0.06753067, -0.65406531, -0.57628059, -0.85505432, 0.48268384, -0.47561628, 100.01900482, 109.28558350, 32.46999741, 0.00000000
1, 1.5300, 177, 0.21082772, -1.32683837, 0.39274374, -53.53410339, 84.37042999, 109.06490326, -39.69599533, 9.61707115, -118.21104431, 80.01522064, -34.31736755, -128.13424683, -0.49062562, 0.06541505, -0.65124369, -0.57522964, -0.77387345, 0.51125866, -0.53565979, 100.01900482, 109.28558350, 32.46999741, 0.00000000
1, 1.5450, 178, -0.22002271, -1.36381888, 0.39063784, -59.67840576, 45.12614441, 120.96669769, -40.25138855, 9.85092068, -119.76029968, 78.36673737, -35.88980484, -126.76100159, -0.50443798, 0.05581293, -0.64436257, -0.57203507, -0.36522511, 0.56791079, -0.55518973, 100.01900482, 109.28558350, 32.46999741, 0.00000000
1, 1.5500, 179, -0.30648020, -1.36452019, 0.37450761, -59.19112015, 40.68230438, 123.44845581, -40.10523224, 10.31861973, -119.76029968, 77.83294678, -36.45201111, -126.35544586, -0.50880426, 0.05206320, -0.64228129, -0.57086116, -0.28663236, 0.57580614, -0.54549187, 100.01900482, 109.28558350, 32.46999741, 0.00000000
1, 1.5550, 180, -0.42743635, -1.34497833, 0.29923919, -63.77298737, 31.05828857, 122.22582245, -40.10523224, 10.31861973, -119.76029968, 77.30343628, -37.01569748, -126.00072479, -0.51286179, 0.04800334, -0.64027226, -0.56984210, -0.17338973, 0.56369913, -0.47649181, 100.01900482, 109.28558350, 32.46999741, 0.00000000
1, 1.5600, 181, -0.48887333, -1.26917088, 0.22567846, -65.33968353, 33.76665497, 120.55770874, -40.95293808, 8.71090317, -120.52031708, 76.74906158, -37.56547928, -125.62246704, -0.51693726, 0.04402047, -0.63813561, -0.56887710, -0.11946908, 0.49539563, -0.40910345, 100.01900482, 109.28558350, 32.46999741, 0.00000000
1, 1.5650, 182, -0.50345409, -1.21650302, 0.19852252, -62.96965790, 34.70708084, 119.95406342, -40.95293808, 8.71090317, -120.52031708, 76.19484711, -38.10827255, -125.22981262, -0.52099985, 0.04012984, -0.63601142, -0.56783652, -0.11232977, 0.45019856, -0.38803291, 100.01900482, 109.28558350, 32.46999741, 0.00000000
1, 1.5700, 183, -0.53810847, -1.12726605, 0.13412984, -60.30714417, 31.74635696, 117.99183655, -41.59602356, 12.18941784, -121.04647827, 75.65840149, -38.64215851, -124.84906769, -0.52490795, 0.03627914, -0.63399386, -0.56675154, -0.08487373, 0.36848095, -0.32937860, 100.01900482, 109.28558350, 32.46999741, 0.00000000
1, 1.5750, 184, -0.55079216, -1.05062604, 0.04785034, -57.02622604, 33.15047836, 114.33811188, -41.59602356, 12.18941784, -121.04647827, 75.12812042, -39.15374756, -124.45644379, -0.52874082, 0.03263800, -0.63199770, -0.56563842, -0.07902917, 0.29927003, -0.24857390, 100.01900482, 109.28558350, 32.46999741, 0.00000000
1, 1.5800, 185, -0.51454228, -0.98050511, -0.00451950, -55.04926682, 39.01261520, 108.77422333, -41.59602356, 12.18941784, -121.04647827, 74.58214569, -39.62786484, -124.02772522, -0.53257763, 0.02933939, -0.62988675, -0.56457341, -0.12168824, 0.23629561, -0.20168719, 100.01900482, 109.28558350, 32.46999741, 0.00000000
1, 1.5850, 186, -0.48375437, -0.88745117, -0.04523990, -51.72456741, 41.98838043, 102.03775024, -41.65448761, 12.18941784, -120.84185791, 74.04723358, -40.05728149, -123.58842468, -0.53626812, 0.02641527, -0.62778878, -0.56356019, -0.15830475, 0.15000404, -0.16641548, 100.01900482, 109.28558350, 32.46999741, 0.00000000
1, 1.5900, 187, -0.48544064, -0.79849434, -0.09152300, -47.08916092, 42.18356323, 94.06159973, -41.65448761, 12.18941784, -120.84185791, 73.52957153, -40.45000076, -123.14994049, -0.53978950, 0.02378177, -0.62574655, -0.56258613, -0.16185340, 0.06738620, -0.12542059, 100.01900482, 109.28558350, 32.46999741, 0.00000000
1, 1.6450, 188, -1.13314629, -0.50810933, 0.13529247, -24.31487274, -5.73160839, 28.62432480, -43.49605179, 13.38789845, -122.06957245, 70.44940948, -42.73441315, -121.44572449, -0.55533594, 0.00306664, -0.61407900, -0.56080264, 0.45464712, -0.18480276, -0.38446715, 100.01900482, 109.28558350, 32.46999741, 0.00000000
1, 1.6500, 189, -0.96267927, -0.47925708, 0.14289498, -17.70973778, -0.49778822, 21.86487007, -43.49605179, 13.38789845, -122.06957245, 70.32911682, -42.83837128, -121.39859772, -0.55586159, 0.00204048, -0.61366063, -0.56074452, 0.28267816, -0.21184048, -0.39264166, 100.01900482, 109.28558350, 32.46999741, 0.00000000
1, 1.6550, 190, -0.76822454, -0.42846942, 0.10456417, -10.39656162, 10.55963326, 13.62281132, -43.49605179, 13.38789845, -122.06957245, 70.20972443, -42.88464355, -121.29928589, -0.55647898, 0.00168304, -0.61315137, -0.56069040, 0.08753523, -0.26136866, -0.35492915, 100.01900482, 109.28558350, 32.46999741, 0.00000000
1, 1.6600, 191, -0.50453275, -0.36265627, 0.04631709, -2.79975200, 20.99681091, 2.27776504, -43.46682358, 14.58637810, -122.74188995, 70.10052490, -42.85958099, -121.15931702, -0.55709583, 0.00206877, -0.61257303, -0.56070882, -0.17595260, -0.32663941, -0.29731864, 100.01900482, 109.28558350, 32.46999741, 0.00000000
1, 1.6650, 192, -0.39855191, -0.34482405, -0.00002860, 2.32037854, 27.87973976, -6.98228836, -43.46682358, 14.58637810, -122.74188995, 70.00179291, -42.77897263, -120.99711609, -0.55766791, 0.00299455, -0.61195087, -0.56081533, -0.28097475, -0.34470111, -0.25213093, 100.01900482, 109.28558350, 32.46999741, 0.00000000
1, 1.6700, 193, -0.24904744, -0.33116689, -0.08250149, 7.28965664, 35.08157730, -17.98542595, -42.47296143, 14.76176548, -122.74188995, 69.91460419, -42.63406754, -120.81517029, -0.55816007, 0.00451083, -0.61127186, -0.56105596, -0.42856306, -0.35930762, -0.17090574, 100.01900482, 109.28558350, 32.46999741, 0.00000000
1, 1.6750, 194, -0.15189441, -0.32188472, -0.13099200, 10.39942455, 35.01446915, -25.73809433, -42.47296143, 14.76176548, -122.74188995, 69.85632324, -42.45271301, -120.65255737, -0.55845767, 0.00630732, -0.61066687, -0.56140125, -0.52337015, -0.37013400, -0.12367225, 100.01900482, 109.28558350, 32.46999741, 0.00000000
1, 1.6800, 195, -0.09128427, -0.31711319, -0.14306436, 14.54936600, 28.43331909, -33.09843063, -42.47296143, 14.76176548, -122.74188995, 69.85929871, -42.24808502, -120.54961395, -0.55839586, 0.00823907, -0.61031932, -0.56181538, -0.58137846, -0.37702721, -0.11242191, 100.01900482, 109.28558350, 32.46999741, 0.00000000
1, 1.6850, 196, -0.06589492, -0.32681921, -0.12311182, 19.66916656, 18.19546700, -40.13764572, -42.53142166, 15.14177132, -122.42034149, 69.94311523, -42.01873016, -120.52808380, -0.55785805, 0.01029570, -0.61032736, -0.56230682, -0.60395807, -0.37006721, -0.13245419, 100.01900482, 109.28558350, 32.46999741, 0.00000000
1, 1.6900, 197, -0.07148378, -0.33875352, -0.09763408, 24.07907486, 7.87749243, -46.99448395, -42.53142166, 15.14177132, -122.42034149, 70.10215759, -41.78422928, -120.58685303, -0.55689871, 0.01232374, -0.61070251, -0.56280941, -0.59537727, -0.36138391, -0.15718129, 100.01900482, 109.28558350, 32.46999741, 0.00000000
1, 1.7450, 198, -0.37165475, -0.52706337, -0.21384716, 84.75786591, -61.87882233, -95.76856232, -40.54370117, 11.98479939, -120.69570160, 75.13943481, -38.12837219, -124.02433777, -0.52742124, 0.04183054, -0.63037896, -0.56806654, -0.24656866, -0.23121686, 0.00805516, 100.01900482, 109.28558350, 32.46999741, 0.00000000
1, 1.7500, 199, -0.37535003, -0.56139493, -0.22812198, 87.50473785, -63.52794266, -100.11920166, -40.54370117, 11.98479939, -120.69570160, 75.91355896, -37.72270966, -124.57402039, -0.52301496, 0.04501591, -0.63381130, -0.56807768, -0.23734735, -0.20369875, 0.03143116, 100.01900482, 109.28558350, 32.46999741, 0.00000000
1, 1.7550, 200, -0.37575662, -0.58549750, -0.24906939, 89.68030548, -65.06935120, -104.81051636, -40.54370117, 11.98479939, -120.69570160, 76.69925690, -37.29020691, -125.13010406, -0.51842260, 0.04834016, -0.63729656, -0.56811488, -0.23100188, -0.18656182, 0.06175373, 100.01900482, 109.28558350, 32.46999741, 0.00000000
1, 1.7600, 201, -0.37563658, -0.60792387, -0.25892958, 92.57622528, -67.43232727, -109.84606934, -40.74831772, 11.37094402, -120.52031708, 77.50230408, -36.82971954, -125.69683075, -0.51360959, 0.05180874, -0.64086664, -0.56816459, -0.22479367, -0.17129073, 0.08130863, 100.01900482, 109.28558350, 32.46999741, 0.00000000
1, 1.7650, 202, -0.37592885, -0.63929987, -0.23397577, 96.05277252, -70.82700348, -115.22906494, -40.74831772, 11.37094402, -120.52031708, 78.32848358, -36.34008789, -126.27960205, -0.50853437, 0.05541856, -0.64455467, -0.56821740, -0.21781267, -0.14731544, 0.06644545, 100.01900482, 109.28558350, 32.46999741, 0.00000000
1, 1.7700, 203, -0.39759219, -0.67723906, -0.16911049, 98.77611542, -73.61094666, -120.20234680, -40.80678177, 10.78631973, -119.14644623, 79.17017365, -35.82201004, -126.87268066, -0.50322288, 0.05915626, -0.64832479, -0.56828016, -0.18911585, -0.11699215, 0.01199949, 100.01900482, 109.28558350, 32.46999741, 0.00000000
1, 1.7750, 204, -0.41383296, -0.70332837, -0.14849465, 99.34127808, -71.43505859, -125.06497192, -40.80678177, 10.78631973, -119.14644623, 79.99795532, -35.27112961, -127.44470978, -0.49782211, 0.06309441, -0.65201145, -0.56839550, -0.16528615, -0.09850688, 0.00189988, 100.01900482, 109.28558350, 32.46999741, 0.00000000
1, 1.7800, 205, -0.40776518, -0.71952915, -0.11263075, 99.49207306, -67.97680664, -132.73100281, -40.80678177, 10.78631973, -119.14644623, 80.80642700, -34.67295074, -127.99014282, -0.49229875, 0.06733518, -0.65556628, -0.56863064, -0.16302258, -0.09017339, -0.02356115, 100.01900482, 109.28558350, 32.46999741, 0.00000000
1, 1.8250, 206, -0.47769481, -0.82611763, -0.06494200, 113.42411804, -56.92651367, -166.04969788, -38.00058365, 7.13241720, -116.07717133, 87.61882019, -28.04174423, -132.09906006, -0.43749946, 0.11286619, -0.68478173, -0.57177746, 0.00458024, -0.05379868, 0.02296256, 100.01900482, 109.28558350, 32.46999741, 0.00000000
1, 1.8300, 207, -0.51040101, -0.84398186, -0.04726779, 115.10494232, -55.53830719, -169.61332703, -38.00058365, 7.13241720, -116.07717133, 88.35380554, -27.20304489, -132.44750977, -0.43101186, 0.11873168, -0.68784267, -0.57184267, 0.05011588, -0.04319034, 0.01628467, 100.01900482, 109.28558350, 32.46999741, 0.00000000
1, 1.8350, 208, -0.55899888, -0.82908690, -0.05598525, 114.93951416, -54.50548172, -173.54748535, -36.56825638, 6.08009338, -114.79099274, 89.07362366, -26.34305573, -132.77575684, -0.42443439, 0.12471226, -0.69079834, -0.57192665, 0.11202283, -0.06512265, 0.03598346, 100.01900482, 109.28558350, 32.46999741, 0.00000000
1, 1.8400, 209, -0.58336657, -0.81967330, -0.04648506, 115.87213135, -52.92425919, -176.71142578, -36.56825638, 6.08009338, -114.79099274, 89.78429413, -25.46120453, -133.08129883, -0.41776848, 0.13084878, -0.69367051, -0.57198715, 0.15009101, -0.08142632, 0.03752006, 100.01900482, 109.28558350, 32.46999741, 0.00000000
1, 1.8450, 210, -0.60635459, -0.80988717, -0.03916891, 116.86690521, -50.57826996, -179.78781128, -35.72055054, 5.17392588, -113.91406250, 90.48410034, -24.56066132, -133.35964966, -0.41105276, 0.13714299, -0.69644380, -0.57200843, 0.18720578, -0.09789863, 0.04124675, 100.01900482, 109.28558350, 32.46999741, 0.00000000
1, 1.8500, 211, -0.63204676, -0.79875457, -0.02355570, 118.94522095, -43.75994110, -183.05181885, -35.72055054, 5.17392588, -113.91406250, 91.16924286, -23.64124680, -133.58647156, -0.40441135, 0.14373125, -0.69906205, -0.57193106, 0.22740531, -0.11550763, 0.03662417, 100.01900482, 109.28558350, 32.46999741, 0.00000000
1, 1.8550, 212, -0.63468319, -0.80171168, 0.01867379, 120.64584351, -35.10074615, -186.23208618, -35.72055054, 5.17392588, -112.89096832, 91.83551025, -22.70459747, -133.75238037, -0.39790493, 0.15064920, -0.70148313, -0.57174981, 0.24487253, -0.11883253, 0.00527982, 100.01900482, 109.28558350, 32.46999741, 0.00000000
1, 1.8600, 213, -0.64031070, -0.80275893, 0.04139068, 121.71585083, -27.18407059, -189.17663574, -34.49283981, 3.21543407, -112.89096832, 92.48335266, -21.75295639, -133.86222839, -0.39152130, 0.15785897, -0.70370597, -0.57148010, 0.26573336, -0.12377449, -0.00672252, 100.01900482, 109.28558350, 32.46999741, 0.00000000
1, 1.8650, 214, -0.64336360, -0.81621397, 0.06063383, 123.98705292, -18.50084877, -191.69761658, -34.49283981, 3.21543407, -112.89096832, 93.11924744, -20.78967476, -133.91271973, -0.38528666, 0.16538620, -0.70574981, -0.57106811, 0.28433567, -0.11601383, -0.01535375, 100.01900482, 109.28558350, 32.46999741, 0.00000000
1, 1.8700, 215, -0.63031524, -0.83448565, 0.04807974, 125.54793549, -9.89440727, -194.17631531, -32.73896408, 3.09850907, -112.30634308, 93.74195862, -19.81605148, -133.90502930, -0.37920451, 0.17321415, -0.70759875, -0.57053041, 0.28718764, -0.10307512, 0.00775813, 100.01900482, 109.28558350, 32.46999741, 0.00000000
1, 1.9250, 216, -0.36468360, -1.02590215, -0.11981174, 130.49751282, -12.63919353, -191.22013855, -25.95732307, 0.46769950, -107.45395660, 100.38732147, -8.88803768, -132.38945007, -0.31208566, 0.26375613, -0.72076392, -0.55994165, 0.20637091, 0.05446021, 0.29255539, 100.01900482, 109.28558350, 32.46999741, 0.00000000
1, 1.9300, 217, -0.33347809, -1.05265176, -0.12093033, 128.84095764, -24.85973549, -187.66964722, -24.11575508, 0.29231218, -106.48932648, 101.02159119, -7.94123411, -132.33799744, -0.30520925, 0.27078694, -0.72204357, -0.55872607, 0.19153316, 0.08076632, 0.30492163, 100.01900482, 109.28558350, 32.46999741, 0.00000000
1, 1.9350, 218, -0.31556639, -1.11146796, -0.13126603, 126.43313599, -39.50656891, -183.43133545, -24.11575508, 0.29231218, -106.48932648, 101.64849091, -7.00412226, -132.35179138, -0.29800546, 0.27724785, -0.72341788, -0.55766749, 0.18990946, 0.13955373, 0.32632840, 100.01900482, 109.28558350, 32.46999741, 0.00000000
1, 1.9400, 219, -0.32499430, -1.13038337, -0.10287658, 119.89157104, -53.05251312, -177.18627930, -24.11575508, 0.29231218, -106.48932648, 102.25453949, -6.08109903, -132.42953491, -0.29054651, 0.28308985, -0.72483808, -0.55682379, 0.21534820, 0.15872273, 0.30866498, 100.01900482, 109.28558350, 32.46999741, 0.00000000
1, 1.9450, 220, -0.34021509, -1.13169563, -0.09076388, 114.87738800, -63.67453384, -171.76727295, -22.77112007, -0.11692487, -105.64162445, 102.83899689, -5.17233086, -132.55546570, -0.28291959, 0.28841278, -0.72627228, -0.55615032, 0.24635655, 0.16062656, 0.30684683, 100.01900482, 109.28558350, 32.46999741, 0.00000000
1, 1.9500, 221, -0.36193636, -1.13307190, -0.04692150, 109.80979156, -75.19348145, -163.81016541, -22.77112007, -0.11692487, -105.64162445, 103.40099335, -4.28826857, -132.73745728, -0.27516082, 0.29311565, -0.72776431, -0.55563378, 0.28345716, 0.16283628, 0.27285567, 100.01900482, 109.28558350, 32.46999741, 0.00000000
1, 1.9550, 222, -0.41260615, -1.11459017, -0.02707114, 103.81192780, -77.45307159, -155.93598938, -21.33878899, -0.76001167, -104.61853027, 103.93115234, -3.43822670, -132.93106079, -0.26757616, 0.29741776, -0.72918004, -0.55519557, 0.34903792, 0.14548123, 0.26228827, 100.01900482, 109.28558350, 32.46999741, 0.00000000
1, 1.9600, 223, -0.44565901, -1.09298813, -0.01031514, 97.53467560, -77.04876709, -147.39886475, -21.33878899, -0.76001167, -104.61853027, 104.42723846, -2.62845874, -133.12533569, -0.26027322, 0.30136263, -0.73049605, -0.55480993, 0.39633512, 0.12519777, 0.25419611, 100.01900482, 109.28558350, 32.46999741, 0.00000000
1, 1.9650, 224, -0.47875032, -1.09540558, -0.00296435, 92.28427887, -78.99197388, -137.91426086, -21.33878899, -0.76001167, -104.61853027, 104.89510345, -1.86058581, -133.33404541, -0.25318986, 0.30487841, -0.73178291, -0.55447084, 0.44298175, 0.12912053, 0.25491455, 100.01900482, 109.28558350, 32.46999741, 0.00000000
1, 1.9700, 225, -0.52694505, -1.10210538, 0.00884665, 86.79697418, -81.85160828, -128.06291199, -20.28646660, -0.29231218, -104.41390991, 105.33345032, -1.13503695, -133.56315613, -0.24631172, 0.30793115, -0.73305547, -0.55420095, 0.50398695, 0.13745135, 0.25059053, 100.01900482, 109.28558350, 32.46999741, 0.00000000
1, 2.0200, 226, -0.85516447, -1.15698898, 0.23882720, 16.69554329, -60.09552002, -3.72396421, -18.62028694, -1.31540489, -103.01081085, 107.54884338, 3.06906819, -136.46195984, -0.19902837, 0.31376621, -0.74303007, -0.55663717, 0.90770024, 0.20440769, 0.05800683, 100.01900482, 109.28558350, 32.46999741, 0.00000000
1, 2.0250, 227, -0.87328184, -1.24791229, 0.21606824, 4.25527334, -63.15484619, 11.99475098, -18.62028694, -1.31540489, -103.01081085, 107.55300140, 3.10666203, -136.78163147, -0.19721557, 0.31187692, -0.74384469, -0.55725574, 0.92686301, 0.29553491, 0.08092292, 100.01900482, 109.28558350, 32.46999741, 0.00000000
1, 2.0300, 228, -0.92117643, -1.31550682, -0.06466633, -9.21845913, -47.94954300, 29.73931313, -19.00029182, -0.02923122, -103.50774384, 107.49258423, 3.03650904, -137.05532837, -0.19651031, 0.30966410, -0.74443805, -0.55794609, 0.97473752, 0.36331204, 0.36067659, 100.01900482, 109.28558350, 32.46999741, 0.00000000
1, 2.0350, 229, -0.92205369, -1.37225449, -0.19122806, -18.90839767, -33.67303085, 48.35998154, -19.00029182, -0.02923122, -103.50774384, 107.38089752, 2.84611702, -137.28848267, -0.19693072, 0.30705485, -0.74491215, -0.55860680, 0.97314739, 0.41962045, 0.48556703, 100.01900482, 109.28558350, 32.46999741, 0.00000000
1, 2.0400, 230, -1.00374961, -1.40168226, -0.23819448, -34.60024261, -34.84463501, 67.00431061, -19.00029182, -0.02923122, -103.50774384, 107.19612122, 2.57717943, -137.55438232, -0.19789830, 0.30372781, -0.74526596, -0.55961096, 1.05056727, 0.44806510, 0.52959889, 100.01900482, 109.28558350, 32.46999741, 0.00000000
1, 2.0450, 231, -1.04597962, -1.31958485, -0.29486734, -53.05730438, -33.43435287, 87.39283752, -19.46799088, -0.90616781, -103.80005646, 106.91989899, 2.20739102, -137.84222412, -0.19965219, 0.29960746, -0.74541557, -0.56100810, 1.08694649, 0.36450732, 0.58213496, 100.01900482, 109.28558350, 32.46999741, 0.00000000
1, 2.0500, 232, -0.99409759, -1.24759269, -0.16805039, -67.42475128, -43.79077911, 107.51894379, -19.46799088, -0.90616781, -103.80005646, 106.57156372, 1.75426877, -138.20651245, -0.20174581, 0.29444483, -0.74554777, -0.56281388, 1.02716291, 0.29037321, 0.45012325, 100.01900482, 109.28558350, 32.46999741, 0.00000000
1, 2.0550, 233, -0.96931469, -1.20582771, -0.17738894, -81.98100281, -57.17764664, 123.19368744, -20.16954041, -0.43846828, -104.29698944, 106.15152740, 1.24207699, -138.65397644, -0.20396908, 0.28830230, -0.74561262, -0.56510210, 0.99384385, 0.24645030, 0.45309019, 100.01900482, 109.28558350, 32.46999741, 0.00000000
1, 2.0600, 234, -0.85614753, -1.06083977, -0.10521509, -89.12606049, -62.58462524, 139.94575500, -20.16954041, -0.43846828, -104.29698944, 105.69947052, 0.65316820, -139.14624023, -0.20651019, 0.28140283, -0.74572062, -0.56750941, 0.87039888, 0.09893236, 0.37374264, 100.01900482, 109.28558350, 32.46999741, 0.00000000
1, 2.0650, 235, -0.60073590, -1.08174694, 0.27209890, -76.31897736, -63.38771439, 137.34498596, -20.16954041, -0.43846828, -104.29698944, 105.31652069, 0.07444569, -139.63455200, -0.20879059, 0.27466810, -0.74607813, -0.56950098, 0.60383260, 0.11725527, -0.00966568, 100.01900482, 109.28558350, 32.46999741, 0.00000000
1, 2.0900, 236, 1.58868825, -0.80522156, -0.76451689, -92.08457184, -23.18324471, 50.94360733, -22.65419388, -0.20461853, -105.90470886, 103.23598480, -1.83605278, -140.55189514, -0.22134426, 0.25515676, -0.74115932, -0.58015919, -1.61794567, -0.16604814, 0.99785042, 100.01900482, 109.28558350, 32.46999741, 0.00000000
1, 2.0950, 237, 0.89270467, -0.57374728, -0.70527488, -72.69438934, -65.09978485, 49.73272705, -23.41420555, -3.18620276, -106.46009827, 102.88568878, -2.00632262, -140.92530823, -0.22131391, 0.25118908, -0.74049896, -0.58273965, -0.92524087, -0.39902830, 0.93078387, 100.01900482, 109.28558350, 32.46999741, 0.00000000
1, 2.1000, 238, 0.30395973, -0.51450288, -0.10235242, -53.52404785, -89.93748474, 56.74837494, -23.41420555, -3.18620276, -106.46009827, 102.63710785, -2.18527079, -141.42672729, -0.22044379, 0.24654292, -0.74062437, -0.58489037, -0.34102213, -0.46020594, 0.32186145, 100.01900482, 109.28558350, 32.46999741, 0.00000000
1, 2.1050, 239, -0.21895814, -0.44391590, 0.71646953, -41.97331619, -118.01167297, 72.58196259, -23.99883080, 0.00000000, -107.19087982, 102.45442963, -2.41300559, -142.08177185, -0.21893975, 0.24077198, -0.74146104, -0.58679616, 0.17614119, -0.53274691, -0.50154787, 100.01900482, 109.28558350, 32.46999741, 0.00000000
1, 2.1100, 240, -0.72433728, -0.40930545, 0.66803759, -22.22538757, -143.91859436, 104.20645142, -23.99883080, 0.00000000, -107.19087982, 102.38144684, -2.76871324, -142.89686584, -0.21718881, 0.23349369, -0.74334705, -0.58800083, 0.67592025, -0.56739563, -0.45601672, 100.01900482, 109.28558350, 32.46999741, 0.00000000
1, 2.1150, 241, -1.42419529, -0.74608755, 0.21500488, 2.48014283, -131.68318176, 127.35308838, -23.99883080, 0.00000000, -107.19087982, 102.43623352, -3.25042081, -143.67698669, -0.21616265, 0.22600189, -0.74593979, -0.58802277, 1.36914170, -0.22941288, -0.00502997, 100.01900482, 109.28558350, 32.46999741, 0.00000000
1, 2.1200, 242, -1.74995518, -1.11410725, -0.01378270, -0.76370186, -106.87871552, 130.40420532, -25.28500366, 0.49693072, -107.30780029, 102.47460175, -3.77287412, -144.33987427, -0.21603921, 0.21900481, -0.74820179, -0.58784187, 1.68645084, 0.13969524, 0.22310385, 100.01900482, 109.28558350, 32.46999741, 0.00000000
1, 2.1250, 243, -1.88672817, -1.26600337, -0.20501728, -23.32252502, -87.62594604, 121.19545746, -25.28500366, 0.49693072, -107.30780029, 102.39865112, -4.27138424, -144.89891052, -0.21651319, 0.21257740, -0.74957895, -0.58827233, 1.81487596, 0.29232365, 0.41286081, 100.01900482, 109.28558350, 32.46999741, 0.00000000
1, 2.1300, 244, -1.80015874, -1.26033068, -0.26447871, -44.39939117, -56.71508408, 107.12808990, -26.95118332, 0.38000584, -107.36626434, 102.20867157, -4.73539019, -145.29072571, -0.21782427, 0.20719542, -0.74996352, -0.58921772, 1.72023487, 0.28675634, 0.46963364, 100.01900482, 109.28558350, 32.46999741, 0.00000000
1, 2.1350, 245, -1.53706050, -1.19353652, -0.23243554, -59.31563950, -14.79818249, 92.40338135, -26.95118332, 0.38000584, -107.36626434, 101.92520905, -5.18012381, -145.45936584, -0.22031052, 0.20318343, -0.74940753, -0.59039670, 1.44928205, 0.21960337, 0.43379104, 100.01900482, 109.28558350, 32.46999741, 0.00000000
1, 2.1700, 246, -0.02686469, -0.96437669, -0.18421978, -26.03843689, 49.06250381, 70.26232147, -28.44197655, -0.84770536, -109.26629639, 99.99808502, -8.04270363, -143.79214478, -0.25031447, 0.19460595, -0.74032563, -0.59278089, -0.11094092, -0.01056475, 0.35515231, 100.01900482, 109.28558350, 32.46999741, 0.00000000
1, 2.1750, 247, -0.05583558, -0.95827103, -0.09458496, -26.37426949, 32.09294891, 67.47856903, -28.44197655, -0.84770536, -109.26629639, 99.85255432, -8.40286636, -143.69065857, -0.25332138, 0.19297129, -0.73986483, -0.59261322, -0.08854362, -0.01636183, 0.26280475, 100.01900482, 109.28558350, 32.46999741, 0.00000000
1, 2.1800, 248, -0.11784641, -0.94363999, -0.02714845, -26.01231575, 21.84702492, 63.44410706, -29.72814941, 0.96463019, -108.82782745, 99.71512604, -8.73427391, -143.63581848, -0.25588775, 0.19120310, -0.73948455, -0.59255838, -0.03254001, -0.03065738, 0.19270855, 100.01900482, 109.28558350, 32.46999741, 0.00000000
1, 2.1850, 249, -0.16961640, -0.97744393, -0.00231599, -24.77635956, 13.05096912, 60.27433014, -29.72814941, 0.96463019, -108.82782745, 99.57858276, -9.04440689, -143.61878967, -0.25811890, 0.18930286, -0.73914129, -0.59262913, 0.01373907, 0.00354650, 0.16527346, 100.01900482, 109.28558350, 32.46999741, 0.00000000
1, 2.1900, 250, -0.23044600, -1.01487803, -0.04100530, -23.04739571, 2.12629318, 58.90532303, -29.17275620, 1.46156096, -109.79245758, 99.47020721, -9.33698273, -143.65710449, -0.25990334, 0.18720019, -0.73900825, -0.59268296, 0.06955026, 0.04151261, 0.20159119, 100.01900482, 109.28558350, 32.46999741, 0.00000000
1, 2.1950, 251, -0.31208855, -1.03996515, -0.07913849, -19.87026024, -10.62663364, 58.77121353, -29.17275620, 1.46156096, -109.79245758, 99.38832092, -9.61857700, -143.75863647, -0.26124555, 0.18480630, -0.73909557, -0.59273541, 0.14639050, 0.06721203, 0.23784289, 100.01900482, 109.28558350, 32.46999741, 0.00000000
1, 2.2000, 252, -0.41417289, -1.04723299, -0.09206697, -17.47083473, -21.06297302, 57.61560822, -29.17275620, 1.46156096, -109.79245758, 99.32753754, -9.88616848, -143.91117859, -0.26220027, 0.18220522, -0.73934883, -0.59280324, 0.24383892, 0.07510348, 0.24926600, 100.01900482, 109.28558350, 32.46999741, 0.00000000
1, 2.2050, 253, -0.52310497, -1.03032649, -0.07776582, -17.33465767, -24.22417831, 54.38382721, -30.19584846, 1.34463608, -109.55860901, 99.27031708, -10.13541126, -144.07679749, -0.26296616, 0.17962638, -0.73961031, -0.59292477, 0.34836569, 0.05877183, 0.23363400, 100.01900482, 109.28558350, 32.46999741, 0.00000000
1, 2.2100, 254, -0.61539358, -0.98488140, -0.05025847, -18.53960609, -19.76726913, 49.63314438, -30.19584846, 1.34463608, -109.55860901, 99.20301819, -10.36494637, -144.21607971, -0.26376048, 0.17730097, -0.73974717, -0.59310120, 0.43656248, 0.01381760, 0.20476404, 100.01900482, 109.28558350, 32.46999741, 0.00000000
1, 2.2150, 255, -0.65935129, -0.94205070, -0.02162584, -18.56192970, -10.08379269, 45.23734665, -31.04355431, 1.22771120, -110.02630615, 99.12654877, -10.58057880, -144.30300903, -0.26475182, 0.17536698, -0.73973346, -0.59325153, 0.47669452, -0.02858340, 0.17471537, 100.01900482, 109.28558350, 32.46999741, 0.00000000
1, 2.2550, 256, -0.52799809, -0.97906554, 0.11084963, -8.97818279, 26.47041702, 30.52862930, -31.65740967, 0.73078048, -110.49400330, 98.65879822, -12.14979362, -144.07104492, -0.27623081, 0.16701211, -0.73871213, -0.59169930, 0.31796741, 0.01231577, 0.03372344, 100.01900482, 109.28558350, 32.46999741, 0.00000000
1, 2.2600, 257, -0.48103231, -0.98042548, 0.10981739, -9.20386219, 29.83989906, 27.91279411, -31.65740967, 0.73078048, -110.49400330, 98.58562469, -12.31005192, -143.94126892, -0.27798015, 0.16677442, -0.73831803, -0.59143889, 0.26822373, 0.01408782, 0.03357249, 100.01900482, 109.28558350, 32.46999741, 0.00000000
1, 2.2650, 258, -0.43945682, -0.98213422, 0.11073989, -8.62852287, 31.74602890, 25.60240936, -31.65740967, 1.11078632, -110.05553436, 98.51245117, -12.46011543, -143.79980469, -0.27972600, 0.16666681, -0.73789626, -0.59117240, 0.22404440, 0.01617018, 0.03141964, 100.01900482, 109.28558350, 32.46999741, 0.00000000
1, 2.2700, 259, -0.41625974, -0.99375260, 0.10387274, -8.34027100, 31.02614021, 23.75886726, -31.65740967, 1.11078632, -110.05553436, 98.44078827, -12.60035992, -143.66035461, -0.28139806, 0.16660279, -0.73747486, -0.59092253, 0.19843334, 0.02815247, 0.03703775, 100.01900482, 109.28558350, 32.46999741, 0.00000000
1, 2.2750, 260, -0.39366055, -1.01183498, 0.10495879, -8.24718285, 28.77443314, 21.81119537, -31.65740967, 1.11078632, -110.05553436, 98.37137604, -12.72917271, -143.53059387, -0.28294605, 0.16654383, -0.73706728, -0.59070855, 0.17358285, 0.04655627, 0.03472323, 100.01900482, 109.28558350, 32.46999741, 0.00000000
1, 2.2800, 261, -0.38915107, -1.01363099, 0.10332895, -8.20657921, 25.14619637, 20.60252762, -31.59894753, 1.60771704, -110.37708282, 98.30571747, -12.84925461, -143.41818237, -0.28434530, 0.16643004, -0.73669505, -0.59053308, 0.16699310, 0.04865531, 0.03515732, 100.01900482, 109.28558350, 32.46999741, 0.00000000
1, 2.2850, 262, -0.39289957, -1.00440836, 0.08517860, -7.26570177, 20.64981461, 19.60707092, -31.59894753, 1.60771704, -110.37708282, 98.24206543, -12.97988415, -143.32553101, -0.28570190, 0.16613314, -0.73637342, -0.59036291, 0.16870493, 0.03978204, 0.05220435, 100.01900482, 109.28558350, 32.46999741, 0.00000000
1, 2.2900, 263, -0.40902933, -0.99176896, 0.06610405, -6.32788897, 19.35700226, 18.65296173, -31.18971062, 1.19848001, -110.28939056, 98.19152069, -13.08596611, -143.24072266, -0.28685024, 0.16595532, -0.73610449, -0.59019148, 0.18289052, 0.02749324, 0.07025665, 100.01900482, 109.28558350, 32.46999741, 0.00000000
1, 2.2950, 264, -0.43128309, -0.98304880, 0.05049536, -5.64153051, 18.20787811, 17.42506027, -31.18971062, 1.19848001, -110.28939056, 98.14536285, -13.18508434, -143.16075134, -0.28792462, 0.16579561, -0.73585767, -0.59002095, 0.20346865, 0.01907997, 0.08497447, 100.01900482, 109.28558350, 32.46999741, 0.00000000
1, 2.3000, 265, -0.43900463, -0.97907400, 0.05849653, -4.99230337, 17.22830963, 16.37693405, -31.18971062, 1.19848001, -110.28939056, 98.10324097, -13.27826405, -143.08486938, -0.28893557, 0.16565223, -0.73563141, -0.58984917, 0.20956495, 0.01536178, 0.07618445, 100.01900482, 109.28558350, 32.46999741, 0.00000000
1, 2.3450, 266, -0.33259961, -0.93088973, 0.23253019, -2.87706280, 24.88568497, 4.22920752, -31.71587181, 2.45542240, -111.25402069, 97.61073303, -13.91315174, -141.83512878, -0.29986590, 0.16880842, -0.73197109, -0.58804983, 0.09170622, -0.03161129, -0.10612369, 100.01900482, 109.28558350, 32.46999741, 0.00000000
1, 2.3500, 267, -0.30340269, -0.92143619, 0.06933538, -5.60605478, 21.07265854, 3.92769670, -31.71587181, 2.45542240, -111.25402069, 97.55747986, -13.94643021, -141.73014832, -0.30068046, 0.16915119, -0.73158020, -0.58802187, 0.06235650, -0.04077572, 0.05627359, 100.01900482, 109.28558350, 32.46999741, 0.00000000
1, 2.3550, 268, -0.27241373, -0.92522156, -0.01248465, -2.48432589, 36.20853424, 2.81158853, -31.94972229, 2.04618526, -110.99093628, 97.50091553, -13.98382378, -141.54704285, -0.30192506, 0.16995957, -0.73106098, -0.58779669, 0.03095622, -0.03682770, 0.13721451, 100.01900482, 109.28558350, 32.46999741, 0.00000000
1, 2.3600, 269, -0.22358587, -0.92284298, 0.04498883, -0.00088797, 45.34344864, 1.87604010, -31.94972229, 2.04618526, -110.99093628, 97.44515228, -14.02223969, -141.31655884, -0.30341715, 0.17106487, -0.73047554, -0.58743548, -0.01866773, -0.03926507, 0.07888760, 100.01900482, 109.28558350, 32.46999741, 0.00000000
1, 2.3650, 270, -0.21217930, -0.94005513, 0.07735257, 0.52214044, 40.26881027, 1.60821712, -31.83279800, -1.11078632, -110.81555176, 97.39811707, -14.05589485, -141.11177063, -0.30473581, 0.17205468, -0.72996628, -0.58709669, -0.03074912, -0.02206606, 0.04568098, 100.01900482, 109.28558350, 32.46999741, 0.00000000
1, 2.3700, 271, -0.21164507, -0.94931376, 0.11768517, 0.20614034, 31.13675499, 1.74509490, -31.83279800, -1.11078632, -110.81555176, 97.36074829, -14.08428860, -140.95370483, -0.30576915, 0.17280109, -0.72956967, -0.58683312, -0.03188444, -0.01283623, 0.00464864, 100.01900482, 109.28558350, 32.46999741, 0.00000000
1, 2.3750, 272, -0.20182469, -0.95262170, 0.12785338, -0.82574910, 25.34033012, 1.97059214, -31.83279800, -1.11078632, -110.81555176, 97.32539368, -14.11006832, -140.82539368, -0.30663139, 0.17337745, -0.72922468, -0.58664203, -0.04217415, -0.00951016, -0.00610213, 100.01900482, 109.28558350, 32.46999741, 0.00000000
1, 2.3800, 273, -0.20817149, -0.96313632, 0.09808271, -1.67248487, 27.60813332, 1.50964224, -30.95586014, 1.95849168, -110.96170807, 97.28284454, -14.13489723, -140.68515015, -0.30755985, 0.17401509, -0.72882324, -0.58646613, -0.03617505, 0.00107109, 0.02294096, 100.01900482, 109.28558350, 32.46999741, 0.00000000
1, 2.3850, 274, -0.19461650, -1.00682080, 0.14741004, -1.55590963, 32.66116333, 1.45333850, -30.95586014, 1.95849168, -110.96170807, 97.24334717, -14.14964676, -140.52174377, -0.30854291, 0.17486449, -0.72838962, -0.58623576, -0.05020104, 0.04467055, -0.02714862, 100.01900482, 109.28558350, 32.46999741, 0.00000000
1, 2.3900, 275, -0.16045995, -1.01273322, 0.21187502, -3.17067575, 33.95797348, 1.99553454, -31.27740479, 2.07541656, -110.99093628, 97.18532562, -14.18063641, -140.34925842, -0.30969587, 0.17562848, -0.72786558, -0.58605027, -0.08492006, 0.05046822, -0.09241804, 100.01900482, 109.28558350, 32.46999741, 0.00000000
1, 2.4150, 276, -0.31565186, -1.00541484, 0.17620547, -1.08789992, 21.13100815, 4.57261562, -31.10201645, 0.87693655, -110.28939056, 97.02777863, -14.33570099, -139.85775757, -0.31335869, 0.17744072, -0.72648811, -0.58526599, 0.06775887, 0.04352012, -0.05995653, 100.01900482, 109.28558350, 32.46999741, 0.00000000
1, 2.4200, 277, -0.31798953, -1.00167656, 0.16905841, -0.90686506, 23.90843773, 5.02208710, -31.10201645, 0.87693655, -110.28939056, 96.99370575, -14.37503433, -139.73838806, -0.31425086, 0.17788111, -0.72617638, -0.58504069, 0.06946755, 0.03988869, -0.05339031, 100.01900482, 109.28558350, 32.46999741, 0.00000000
1, 2.4250, 278, -0.28995812, -0.99749374, 0.18399237, -0.97266906, 26.66697502, 6.17529297, -31.10201645, 0.87693655, -110.28939056, 96.95587921, -14.42168617, -139.60552979, -0.31526002, 0.17835446, -0.72583324, -0.58477944, 0.04064535, 0.03579749, -0.06889057, 100.01900482, 109.28558350, 32.46999741, 0.00000000
1, 2.4300, 279, -0.25157937, -1.00055146, 0.16436648, -1.55509305, 30.89221764, 6.98446226, -31.51125336, 1.46156096, -111.16632080, 96.90975952, -14.47477245, -139.45146179, -0.31642747, 0.17890196, -0.72542226, -0.58449161, 0.00144292, 0.03902143, -0.04993169, 100.01900482, 109.28558350, 32.46999741, 0.00000000
1, 2.4350, 280, -0.20383599, -1.00346291, 0.15759081, -1.61077774, 35.61621094, 7.51839542, -31.51125336, 1.46156096, -111.16632080, 96.86322784, -14.52335358, -139.27526855, -0.31768146, 0.17961276, -0.72496867, -0.58415598, -0.04716633, 0.04207236, -0.04388031, 100.01900482, 109.28558350, 32.46999741, 0.00000000
1, 2.4400, 281, -0.14109583, -1.00828922, 0.18796517, -1.77500224, 37.64697647, 8.48024654, -31.27740479, -0.52616191, -111.28324890, 96.80722809, -14.58757782, -139.08729553, -0.31910071, 0.18028168, -0.72446698, -0.58379865, -0.11095542, 0.04699434, -0.07501343, 100.01900482, 109.28558350, 32.46999741, 0.00000000
1, 2.4450, 282, -0.06335046, -1.01063383, 0.20309190, -2.13574028, 38.50296783, 10.43311214, -31.27740479, -0.52616191, -111.28324890, 96.74838257, -14.66181564, -138.89598083, -0.32059869, 0.18090528, -0.72395748, -0.58341700, -0.18995869, 0.04951343, -0.09096607, 100.01900482, 109.28558350, 32.46999741, 0.00000000
1, 2.4500, 283, 0.01624512, -1.01410937, 0.22049849, -3.39912844, 37.50751495, 12.28323269, -31.27740479, -0.52616191, -111.28324890, 96.68452454, -14.74448967, -138.71070862, -0.32212150, 0.18142690, -0.72344226, -0.58305514, -0.27094996, 0.05318820, -0.10927440, 100.01900482, 109.28558350, 32.46999741, 0.00000000
1, 2.4800, 284, 0.01899986, -1.09152222, 0.13968267, -9.91807461, 13.96087456, 21.61958313, -30.75124168, 2.13387895, -110.96170807, 96.33744049, -15.35150433, -138.10305786, -0.32925737, 0.18081892, -0.72147548, -0.58169341, -0.28359812, 0.13276055, -0.03469311, 100.01900482, 109.28558350, 32.46999741, 0.00000000
1, 2.4850, 285, 0.01938055, -1.07846045, 0.13028142, -10.93814373, 10.55717945, 23.75972939, -30.75124168, 2.13387895, -110.96170807, 96.27388000, -15.43772030, -138.06214905, -0.33005989, 0.18040225, -0.72119623, -0.58171439, -0.28568527, 0.12006833, -0.02639371, 100.01900482, 109.28558350, 32.46999741, 0.00000000
1, 2.4900, 286, 0.00429997, -1.06199157, 0.13375533, -12.30779743, 9.58892059, 25.89227104, -31.62817764, 1.90002918, -111.45863342, 96.20328522, -15.57172298, -138.02706909, -0.33111662, 0.17965497, -0.72095001, -0.58165020, -0.27250886, 0.10399049, -0.03107893, 100.01900482, 109.28558350, 32.46999741, 0.00000000
1, 2.4950, 287, -0.00317653, -1.05612671, 0.14653133, -13.06817913, 8.17936993, 27.76116943, -31.62817764, 1.90002918, -111.45863342, 96.13103485, -15.71423531, -138.00010681, -0.33218196, 0.17880188, -0.72071844, -0.58159274, -0.26742506, 0.09862971, -0.04514075, 100.01900482, 109.28558350, 32.46999741, 0.00000000
1, 2.5000, 288, -0.03946227, -1.07367945, 0.15499009, -13.75554657, 6.66101933, 29.83685875, -31.86202812, 1.98772287, -111.78018188, 96.05767822, -15.86625481, -137.98191833, -0.33325708, 0.17783464, -0.72050619, -0.58153719, -0.23366719, 0.11674178, -0.05500515, 100.01900482, 109.28558350, 32.46999741, 0.00000000
1, 2.5050, 289, -0.04999452, -1.08079493, 0.15555213, -14.97478962, 4.87362814, 31.31701851, -31.86202812, 1.98772287, -111.78018188, 95.98089600, -16.02470589, -137.97354126, -0.33432251, 0.17675734, -0.72029901, -0.58151072, -0.22577171, 0.12446901, -0.05695285, 100.01900482, 109.28558350, 32.46999741, 0.00000000
1, 2.5100, 290, -0.06299728, -1.07732630, 0.15226191, -16.85004807, 1.50715017, 33.04830933, -31.86202812, 1.98772287, -111.78018188, 95.89977264, -16.19005966, -137.98327637, -0.33533990, 0.17551224, -0.72010505, -0.58154219, -0.21551020, 0.12165389, -0.05510812, 100.01900482, 109.28558350, 32.46999741, 0.00000000
1, 2.5150, 291, -0.07332386, -1.07087755, 0.16724573, -17.93719673, 0.55727190, 34.51169968, -31.94972229, 1.22771120, -112.24787903, 95.81478119, -16.36225128, -137.99847412, -0.33637229, 0.17418061, -0.71990681, -0.58159190, -0.20807837, 0.11586399, -0.07159328, 100.01900482, 109.28558350, 32.46999741, 0.00000000
1, 2.5200, 292, -0.09729975, -1.07640111, 0.17875719, -18.88251877, -0.45094827, 35.55126572, -31.94972229, 1.22771120, -112.24787903, 95.72666931, -16.53914070, -138.01916504, -0.33740559, 0.17277631, -0.71970499, -0.58166182, -0.18707529, 0.12208334, -0.08471794, 100.01900482, 109.28558350, 32.46999741, 0.00000000
1, 2.5250, 293, -0.14456902, -1.09916508, 0.17694362, -19.32451820, -1.93872225, 36.43279266, -31.92049026, 2.74773455, -112.16018677, 95.63869476, -16.71973991, -138.04777527, -0.33841702, 0.17129946, -0.71951842, -0.58174193, -0.14280862, 0.14559439, -0.08461833, 100.01900482, 109.28558350, 32.46999741, 0.00000000
1, 2.5550, 294, -0.16520253, -1.13663352, 0.15689166, -22.84303284, 13.43636513, 40.41937637, -32.50511551, 1.37386727, -112.86173248, 94.98353577, -17.87959862, -137.98562622, -0.34622613, 0.16303603, -0.71746498, -0.58205730, -0.14133994, 0.18803754, -0.07592292, 100.01900482, 109.28558350, 32.46999741, 0.00000000
1, 2.5600, 295, -0.14304402, -1.13019168, 0.15907227, -23.59445000, 14.00144482, 41.28366470, -32.50511551, 1.37386727, -112.86173248, 94.84908295, -18.09145927, -137.93055725, -0.34788227, 0.16174461, -0.71694815, -0.58206707, -0.16700220, 0.18252951, -0.08033526, 100.01900482, 109.28558350, 32.46999741, 0.00000000
1, 2.5650, 296, -0.11126928, -1.13131952, 0.17899139, -24.79781342, 13.78744125, 42.52070236, -33.00204468, 0.40923706, -112.45249939, 94.70875549, -18.30929184, -137.87654114, -0.34957004, 0.16038996, -0.71640933, -0.58209425, -0.20241907, 0.18460447, -0.10257676, 100.01900482, 109.28558350, 32.46999741, 0.00000000
1, 2.5700, 297, -0.09790100, -1.14132261, 0.18859012, -26.20817184, 12.98562622, 43.50101089, -33.00204468, 0.40923706, -112.45249939, 94.56244659, -18.53157616, -137.82650757, -0.35126588, 0.15896189, -0.71585011, -0.58215296, -0.21947438, 0.19560856, -0.11464700, 100.01900482, 109.28558350, 32.46999741, 0.00000000
1, 2.5750, 298, -0.08897313, -1.15184128, 0.18519357, -27.95691299, 13.74318504, 44.69804764, -33.49897766, 1.63694823, -112.59865570, 94.40587616, -18.76001740, -137.77227783, -0.35302615, 0.15748799, -0.71523935, -0.58223945, -0.23214628, 0.20719019, -0.11388278, 100.01900482, 109.28558350, 32.46999741, 0.00000000
1, 2.5800, 299, -0.07134003, -1.15978575, 0.20186555, -29.73504257, 14.01060486, 45.98893356, -33.49897766, 1.63694823, -112.59865570, 94.23968506, -18.99487495, -137.71638489, -0.35483792, 0.15595226, -0.71458399, -0.58235615, -0.25367275, 0.21621072, -0.13332048, 100.01900482, 109.28558350, 32.46999741, 0.00000000
1, 2.5850, 300, -0.04538201, -1.16641629, 0.23287220, -31.22541618, 14.06586552, 47.51646423, -33.49897766, 1.63694823, -112.59865570, 94.07386780, -19.21992874, -137.66300964, -0.35657629, 0.15445399, -0.71392232, -0.58250523, -0.28353071, 0.22390378, -0.16713817, 100.01900482, 109.28558350, 32.46999741, 0.00000000
1, 2.5900, 301, -0.02946803, -1.18141067, 0.25123259, -32.84401703, 13.03244209, 49.37020493, -33.38205338, 2.83542824, -113.32943726, 93.89333344, -19.47104263, -137.61189270, -0.35846037, 0.15273789, -0.71321732, -0.58266497, -0.30344787, 0.24004772, -0.18845233, 100.01900482, 109.28558350, 32.46999741, 0.00000000
1, 2.5950, 302, -0.01682132, -1.19288766, 0.25867838, -34.00772858, 12.66033840, 51.40917969, -33.38205338, 2.83542824, -113.32943726, 93.70737457, -19.73205948, -137.56251526, -0.36039001, 0.15092959, -0.71249700, -0.58282709, -0.32036549, 0.25281420, -0.19901770, 100.01900482, 109.28558350, 32.46999741, 0.00000000
1, 2.6000, 303, -0.00169146, -1.20061517, 0.29498392, -35.38492203, 12.25569153, 53.27482986, -33.49897766, 1.57848585, -113.00788879, 93.51491547, -20.00213242, -137.51487732, -0.36236098, 0.14903016, -0.71175480, -0.58300054, -0.33998555, 0.26186341, -0.23852319, 100.01900482, 109.28558350, 32.46999741, 0.00000000
1, 2.6450, 304, -0.05749505, -1.19453108, 0.34449282, -48.61258316, 18.32610893, 68.55519104, -35.25284958, 3.88775206, -114.61560822, 91.47235107, -22.77801323, -137.13269043, -0.38166463, 0.12824500, -0.70384544, -0.58522397, -0.32912928, 0.27170309, -0.32175565, 100.01900482, 109.28558350, 32.46999741, 0.00000000
1, 2.6500, 305, -0.01664993, -1.21281350, 0.34922028, -50.33060074, 22.55350876, 70.32527924, -35.74977875, 4.58930111, -114.99561310, 91.17699432, -23.13260078, -137.01846313, -0.38443661, 0.12582512, -0.70257568, -0.58546060, -0.37565094, 0.29225254, -0.33114123, 100.01900482, 109.28558350, 32.46999741, 0.00000000
1, 2.6550, 306, 0.02387244, -1.22820508, 0.35734707, -51.66347122, 24.34579086, 72.10251617, -35.74977875, 4.58930111, -114.99561310, 90.86965179, -23.49567986, -136.89230347, -0.38731024, 0.12337243, -0.70124084, -0.58568877, -0.42198318, 0.31002080, -0.34413260, 100.01900482, 109.28558350, 32.46999741, 0.00000000
1, 2.6600, 307, 0.06170388, -1.24881482, 0.33938003, -53.66550827, 22.71212959, 74.15714264, -35.74977875, 4.58930111, -114.99561310, 90.55422211, -23.86834145, -136.77268982, -0.39019108, 0.12077916, -0.69988209, -0.58594233, -0.46569014, 0.33317584, -0.33115155, 100.01900482, 109.28558350, 32.46999741, 0.00000000
1, 2.6650, 308, 0.07747608, -1.28364587, 0.29714864, -55.04814911, 22.79147339, 76.17460632, -36.12978745, 5.34931278, -114.82022858, 90.22992706, -24.25047493, -136.65007019, -0.39312655, 0.11810075, -0.69848508, -0.58619314, -0.48741597, 0.37072659, -0.29409438, 100.01900482, 109.28558350, 32.46999741, 0.00000000
1, 2.6700, 309, 0.09685553, -1.30604815, 0.27738458, -56.98662186, 24.77554703, 78.45487213, -36.12978745, 5.34931278, -114.82022858, 89.88954163, -24.64338303, -136.51373291, -0.39618373, 0.11536833, -0.69700348, -0.58644259, -0.51296061, 0.39596033, -0.27968338, 100.01900482, 109.28558350, 32.46999741, 0.00000000
1, 2.6750, 310, 0.12508667, -1.34015667, 0.30219018, -58.85334778, 26.78672028, 81.08537292, -36.07132339, 5.43700647, -116.04793549, 89.53302765, -25.04864693, -136.36315918, -0.39937106, 0.11257298, -0.69543892, -0.58668119, -0.54761755, 0.43298137, -0.31004411, 100.01900482, 109.28558350, 32.46999741, 0.00000000
1, 2.6800, 311, 0.15304026, -1.38619590, 0.32512030, -60.18555069, 25.61492920, 83.00227356, -36.07132339, 5.43700647, -116.04793549, 89.17018890, -25.46271324, -136.21562195, -0.40257025, 0.10966390, -0.69385570, -0.58692014, -0.58213580, 0.48209405, -0.33866388, 100.01900482, 109.28558350, 32.46999741, 0.00000000
1, 2.6850, 312, 0.19160813, -1.43966925, 0.33863479, -62.03540039, 23.14796066, 85.00004578, -36.07132339, 5.43700647, -116.04793549, 88.80741882, -25.87439728, -136.08091736, -0.40566760, 0.10667248, -0.69228429, -0.58719444, -0.62727463, 0.53876436, -0.35785028, 100.01900482, 109.28558350, 32.46999741, 0.00000000
1, 2.6900, 313, 0.22446327, -1.47567606, 0.33896759, -64.06923676, 21.23217583, 87.18855286, -37.06518555, 5.78778124, -116.04793549, 88.43069458, -26.30825996, -135.95024109, -0.40884280, 0.10345127, -0.69066840, -0.58747137, -0.66680330, 0.57815361, -0.36391339, 100.01900482, 109.28558350, 32.46999741, 0.00000000
1, 2.7550, 314, 0.30333748, -1.53603733, 0.59902453, -54.98218155, 122.96286774, 101.31026459, -39.52060699, 9.03244686, -118.59105682, 82.32057953, -32.27302551, -131.56654358, -0.46347854, 0.06850754, -0.66242999, -0.58453476, -0.83723414, 0.69581330, -0.71130121, 100.01900482, 109.28558350, 32.46999741, 0.00000000
1, 2.7600, 315, 0.40812719, -1.48608947, 0.54633296, -53.97500992, 134.18122864, 103.03703308, -39.52060699, 9.03244686, -118.59105682, 81.58265686, -32.68865204, -130.69262695, -0.47013414, 0.06787010, -0.65863073, -0.58358645, -0.94803393, 0.65127981, -0.66837525, 100.01900482, 109.28558350, 32.46999741, 0.00000000
1, 2.7650, 316, 0.42796963, -1.45349789, 0.45852718, -54.35194778, 136.99189758, 107.73571014, -39.54983902, 9.47091484, -119.67260742, 80.82048798, -33.11564255, -129.78730774, -0.47696230, 0.06715795, -0.65473783, -0.58250767, -0.97386307, 0.62444925, -0.59085810, 100.01900482, 109.28558350, 32.46999741, 0.00000000
1, 2.7700, 317, 0.39450866, -1.47225368, 0.41610828, -53.56475449, 135.26116943, 114.87014771, -39.54983902, 9.47091484, -119.67260742, 80.05197144, -33.56905746, -128.87374878, -0.48388976, 0.06621069, -0.65087986, -0.58122492, -0.94681287, 0.64931035, -0.55890524, 100.01900482, 109.28558350, 32.46999741, 0.00000000
1, 2.7750, 318, 0.32357872, -1.53774905, 0.39439151, -53.20343018, 127.41299438, 121.30333710, -39.72522736, 10.05553913, -119.49722290, 79.29434967, -34.05101776, -127.98747253, -0.49072561, 0.06488535, -0.64717352, -0.57977998, -0.88272309, 0.72131479, -0.54756796, 100.01900482, 109.28558350, 32.46999741, 0.00000000
1, 2.7800, 319, 0.09692740, -1.66750979, 0.42944220, -55.08288956, 110.73394775, 127.69478607, -39.72522736, 10.05553913, -119.49722290, 78.56546021, -34.57093048, -127.18005371, -0.49722794, 0.06291284, -0.64375508, -0.57826108, -0.66351092, 0.85792327, -0.59286523, 100.01900482, 109.28558350, 32.46999741, 0.00000000
1, 2.7850, 320, -0.02671035, -1.69214165, 0.39911053, -58.18382263, 100.24870300, 130.98956299, -39.72522736, 10.05553913, -120.69570160, 77.84670258, -35.10383224, -126.42142487, -0.50345713, 0.06055345, -0.64048058, -0.57675713, -0.54742694, 0.88987297, -0.57200277, 100.01900482, 109.28558350, 32.46999741, 0.00000000
1, 2.7900, 321, -0.17206606, -1.70302761, 0.40575263, -61.00236893, 89.53086853, 132.45246887, -39.63753128, 10.31861973, -120.69570160, 77.13037872, -35.65320206, -125.70814514, -0.50944495, 0.05777587, -0.63731450, -0.57528961, -0.40987873, 0.90829843, -0.58778667, 100.01900482, 109.28558350, 32.46999741, 0.00000000
1, 2.7950, 322, -0.23166214, -1.68204427, 0.45332146, -64.59938049, 80.56896973, 130.11141968, -39.63753128, 10.31861973, -120.69570160, 76.41629791, -36.19425964, -125.03878784, -0.51510662, 0.05475424, -0.63421702, -0.57396513, -0.35810140, 0.89492428, -0.64405036, 100.01900482, 109.28558350, 32.46999741, 0.00000000
1, 2.8000, 323, -0.32703561, -1.58680177, 0.35352916, -71.95191193, 78.82659149, 126.02732086, -40.54370117, 11.45863724, -121.22186279, 75.66249084, -36.71070480, -124.37297821, -0.52060866, 0.05163288, -0.63093144, -0.57291031, -0.26984692, 0.80758697, -0.55317098, 100.01900482, 109.28558350, 32.46999741, 0.00000000
1, 2.8450, 324, -0.53749943, -0.77018881, -0.49633235, -28.31327820, 57.94089508, 71.06373596, -40.01753998, 13.27097321, -123.20958710, 68.95244598, -39.47631454, -117.55705261, -0.56568474, 0.03809502, -0.59994978, -0.56445533, -0.09620074, 0.04945490, 0.21762885, 100.01900482, 109.28558350, 32.46999741, 0.00000000
1, 2.8500, 325, -0.79717427, -0.76447630, -0.44069138, -29.77907562, 14.77144432, 72.50708771, -40.63139343, 13.68021011, -122.91727448, 68.63837433, -39.78763962, -117.29654694, -0.56790745, 0.03583183, -0.59897083, -0.56341046, 0.15943970, 0.04836969, 0.15806587, 100.01900482, 109.28558350, 32.46999741, 0.00000000
1, 2.8550, 326, -1.08606160, -0.75457323, -0.38517481, -30.18138885, -25.68600082, 71.61798859, -40.63139343, 13.68021011, -122.91727448, 68.47825623, -40.16824341, -117.28072357, -0.56904596, 0.03258494, -0.59897542, -0.56245297, 0.44328418, 0.04314474, 0.10091071, 100.01900482, 109.28558350, 32.46999741, 0.00000000
1, 2.8600, 327, -1.28760147, -0.77964044, -0.32571837, -32.81058502, -35.67588806, 67.45245361, -40.68985748, 13.41712952, -123.38497162, 68.34989166, -40.54792404, -117.33456421, -0.56981790, 0.02913481, -0.59914947, -0.56167483, 0.63954729, 0.07277258, 0.04094134, 100.01900482, 109.28558350, 32.46999741, 0.00000000
1, 2.8650, 328, -1.29703319, -0.79262483, -0.25207701, -36.94865036, -18.14138412, 62.45492172, -40.68985748, 13.41712952, -123.38497162, 68.13819885, -40.87193298, -117.29210663, -0.57092351, 0.02614176, -0.59877253, -0.56110114, 0.64430219, 0.09013683, -0.03362738, 100.01900482, 109.28558350, 32.46999741, 0.00000000
1, 2.8700, 329, -1.17025721, -0.77612424, -0.13741876, -37.92046738, -0.36756203, 58.78983688, -40.68985748, 13.41712952, -123.38497162, 67.85449982, -41.14540100, -117.14760590, -0.57239836, 0.02365556, -0.59791875, -0.56061900, 0.51348835, 0.07779343, -0.15001769, 100.01900482, 109.28558350, 32.46999741, 0.00000000
1, 2.8750, 330, -1.00526488, -0.70979309, -0.03295556, -35.90370941, 2.59687901, 54.97908020, -41.68371964, 13.88482857, -124.05728912, 67.57313538, -41.39506531, -116.99214935, -0.57384998, 0.02139135, -0.59703118, -0.56017172, 0.34490073, 0.01542271, -0.25635132, 100.01900482, 109.28558350, 32.46999741, 0.00000000
1, 2.8800, 331, -0.85207921, -0.62129319, -0.00904983, -31.53114128, -7.51839876, 48.37292862, -41.68371964, 13.88482857, -124.05728912, 67.36432648, -41.63315964, -116.91401672, -0.57486832, 0.01916052, -0.59649318, -0.55978143, 0.18850458, -0.06939475, -0.28144509, 100.01900482, 109.28558350, 32.46999741, 0.00000000
1, 2.8850, 332, -0.69292939, -0.49330905, -0.04057211, -26.09640121, -20.86043549, 38.69690323, -41.27447891, 12.65711784, -123.88190460, 67.26743317, -41.86785889, -116.95285034, -0.57528025, 0.01690286, -0.59651446, -0.55940813, 0.02640544, -0.19418812, -0.24983528, 100.01900482, 109.28558350, 32.46999741, 0.00000000
1, 2.8900, 333, -0.51149952, -0.34255397, -0.12796789, -18.60856438, -33.76200485, 27.35778618, -41.27447891, 12.65711784, -123.88190460, 67.26686096, -42.05966187, -117.09059906, -0.57508552, 0.01489976, -0.59692734, -0.55922490, -0.15749170, -0.34246954, -0.16106698, 100.01900482, 109.28558350, 32.46999741, 0.00000000
1, 2.8950, 334, -0.39108446, -0.26120669, -0.15822059, -5.42049503, -41.94099045, 14.30606747, -41.27447891, 12.65711784, -123.88190460, 67.38979340, -42.20681763, -117.31397247, -0.57434720, 0.01336707, -0.59785593, -0.55903035, -0.27985767, -0.42257255, -0.12849301, 100.01900482, 109.28558350, 32.46999741, 0.00000000
1, 2.9000, 335, -0.27430987, -0.20180885, -0.20693757, 5.28679037, -41.83773422, 2.14932823, -41.33294296, 14.58637810, -123.94036865, 67.58795929, -42.29709625, -117.56934357, -0.57330561, 0.01242174, -0.59903377, -0.55886036, -0.39789748, -0.48159957, -0.07680678, 100.01900482, 109.28558350, 32.46999741, 0.00000000
1, 2.9050, 336, -0.20661610, -0.18303640, -0.24384423, 11.49835110, -42.97843933, -7.66638708, -41.33294296, 14.58637810, -123.94036865, 67.83964539, -42.34333801, -117.85789490, -0.57198876, 0.01185988, -0.60038394, -0.55877316, -0.46623564, -0.50086182, -0.03659989, 100.01900482, 109.28558350, 32.46999741, 0.00000000
1, 2.9100, 337, -0.18118620, -0.17156094, -0.27419543, 16.88896179, -46.74657822, -17.14870453, -42.35603714, 14.44022179, -123.50189972, 68.15073395, -42.35163879, -118.19464874, -0.57033598, 0.01158825, -0.60195160, -0.55878168, -0.49181399, -0.51353109, -0.00255722, 100.01900482, 109.28558350, 32.46999741, 0.00000000
1, 2.9150, 338, -0.17622565, -0.17167766, -0.26734981, 24.36525726, -52.22200394, -25.85701370, -42.35603714, 14.44022179, -123.50189972, 68.53697205, -42.32803726, -118.58768463, -0.56831908, 0.01159714, -0.60382926, -0.55881041, -0.49658474, -0.51535106, -0.00507180, 100.01900482, 109.28558350, 32.46999741, 0.00000000
1, 2.9200, 339, -0.18669637, -0.18761419, -0.21241254, 33.29254532, -59.83144379, -33.65319824, -42.35603714, 14.44022179, -123.50189972, 69.01245117, -42.27966690, -119.04743958, -0.56590110, 0.01184660, -0.60610372, -0.55879682, -0.48570144, -0.50209624, -0.05479917, 100.01900482, 109.28558350, 32.46999741, 0.00000000
1, 2.9250, 340, -0.20468076, -0.23845837, -0.11817082, 39.74833679, -68.89606476, -41.20723343, -41.82987213, 14.70330334, -123.06343079, 69.56974030, -42.20895004, -119.58150482, -0.56304812, 0.01223339, -0.60874730, -0.55879682, -0.46711010, -0.45459342, -0.14294457, 100.01900482, 109.28558350, 32.46999741, 0.00000000
1, 2.9300, 341, -0.22489537, -0.27599770, -0.08604459, 42.94415283, -76.06917572, -48.92006302, -41.82987213, 14.70330334, -123.06343079, 70.18373871, -42.11035919, -120.17726135, -0.55980498, 0.01272760, -0.61163032, -0.55889606, -0.44580024, -0.42080110, -0.16825429, 100.01900482, 109.28558350, 32.46999741, 0.00000000
1, 2.9350, 342, -0.23024058, -0.30348736, -0.07539403, 46.03625870, -77.63254547, -56.74322128, -42.26834106, 12.54019260, -122.50803375, 70.83062744, -41.97074890, -120.79916382, -0.55630445, 0.01348187, -0.61461520, -0.55909908, -0.43881866, -0.39753017, -0.17166039, 100.01900482, 109.28558350, 32.46999741, 0.00000000
1, 2.9400, 343, -0.22915716, -0.31157488, -0.10672056, 49.43220520, -77.74192810, -64.07991028, -42.26834106, 12.54019260, -122.50803375, 71.50009155, -41.79320908, -121.43288422, -0.55261815, 0.01449700, -0.61766189, -0.55937195, -0.43763053, -0.39405990, -0.13283619, 100.01900482, 109.28558350, 32.46999741, 0.00000000
1, 2.9900, 344, -0.68388617, -0.58956349, -0.13836549, 94.21697235, -108.53456116, -120.94168091, -42.35603714, 10.49400711, -119.49722290, 80.38852692, -38.28972244, -129.21794128, -0.50063550, 0.03511506, -0.65821111, -0.56114984, 0.06283542, -0.18214372, 0.00161988, 100.01900482, 109.28558350, 32.46999741, 0.00000000
1, 2.9950, 345, -0.70313287, -0.59803271, -0.11386754, 93.80438995, -99.33415222, -127.13167572, -42.35603714, 10.49400711, -119.49722290, 81.31916046, -37.74093246, -129.96994019, -0.49450266, 0.03837213, -0.66245806, -0.56137705, 0.08938858, -0.18153641, -0.01110152, 100.01900482, 109.28558350, 32.46999741, 0.00000000
1, 3.0000, 346, -0.70885354, -0.60781670, -0.10657065, 93.58403778, -88.26386261, -132.78881836, -42.47296143, 7.86319780, -118.94182587, 82.19371033, -37.14686966, -130.64134216, -0.48851842, 0.04205660, -0.66640753, -0.56167793, 0.10315230, -0.17971173, -0.00718374, 100.01900482, 109.28558350, 32.46999741, 0.00000000
1, 3.0050, 347, -0.68743855, -0.58727813, -0.11680438, 93.84883881, -78.72458649, -136.87625122, -42.47296143, 7.86319780, -118.94182587, 83.02048492, -36.51845551, -131.24055481, -0.48267841, 0.04609659, -0.67010927, -0.56200558, 0.09043755, -0.20825136, 0.01382322, 100.01900482, 109.28558350, 32.46999741, 0.00000000
1, 3.0100, 348, -0.65977812, -0.59204245, -0.05976703, 91.82924652, -55.35231781, -147.82560730, -42.09295654, 9.41245270, -118.06489563, 83.74199677, -35.81564331, -131.68814087, -0.47722578, 0.05098458, -0.67320418, -0.56254101, 0.07221903, -0.21183333, -0.03348977, 100.01900482, 109.28558350, 32.46999741, 0.00000000
1, 3.0150, 349, -0.62260205, -0.57750142, -0.04684496, 86.29222870, -43.33765793, -155.56581116, -42.09295654, 9.41245270, -118.06489563, 84.38318634, -35.06383514, -132.05302429, -0.47191736, 0.05627581, -0.67585272, -0.56333846, 0.04550317, -0.23486775, -0.03777335, 100.01900482, 109.28558350, 32.46999741, 0.00000000
1, 3.0200, 350, -0.58606172, -0.53627264, -0.08350793, 82.34612274, -33.37445450, -162.88441467, -42.09295654, 9.41245270, -118.06489563, 84.96108246, -34.26782990, -132.34864807, -0.46670151, 0.06194221, -0.67813712, -0.56434292, 0.02030287, -0.28464490, 0.00673663, 100.01900482, 109.28558350, 32.46999741, 0.00000000
1, 3.0250, 351, -0.54503107, -0.53188026, -0.11077054, 83.37123108, -25.41533852, -169.08724976, -41.42063522, 8.38935947, -116.77871704, 85.50890350, -33.43518829, -132.58744812, -0.46153349, 0.06800458, -0.68022233, -0.56538475, -0.00874484, -0.29770058, 0.04138894, 100.01900482, 109.28558350, 32.46999741, 0.00000000
1, 3.0450, 352, -0.49506706, -0.56539035, -0.10819709, 93.37280273, -17.68220901, -184.48825073, -39.78368759, 7.36626720, -116.69102478, 87.66622162, -29.86564445, -133.29508972, -0.44012514, 0.09459281, -0.68803740, -0.56916308, -0.00611314, -0.29880726, 0.06876326, 100.01900482, 109.28558350, 32.46999741, 0.00000000
1, 3.0500, 353, -0.47916821, -0.59161913, -0.16149659, 96.48474884, -19.52910423, -186.25439453, -37.97135162, 5.26161957, -115.66793060, 88.22101593, -28.93748665, -133.44726563, -0.43448406, 0.10153782, -0.69000417, -0.56991923, -0.00783477, -0.28079405, 0.13010213, 100.01900482, 109.28558350, 32.46999741, 0.00000000
1, 3.0550, 354, -0.47574556, -0.62302852, -0.20975488, 100.68735504, -23.25535774, -187.69366455, -37.97135162, 5.26161957, -115.66793060, 88.79923248, -28.00134087, -133.60906982, -0.42863888, 0.10850441, -0.69208038, -0.57054383, 0.00316575, -0.25738305, 0.18684497, 100.01900482, 109.28558350, 32.46999741, 0.00000000
1, 3.0600, 355, -0.48539892, -0.66027403, -0.19970854, 106.45922089, -27.28678894, -188.91477966, -37.38673019, 5.02776957, -115.05407715, 89.40881348, -27.05794334, -133.78135681, -0.42257571, 0.11550582, -0.69430822, -0.57098544, 0.02733197, -0.22797537, 0.18585162, 100.01900482, 109.28558350, 32.46999741, 0.00000000
1, 3.0650, 356, -0.48957372, -0.66962099, -0.16519380, 110.59204865, -31.02451897, -189.89773560, -37.38673019, 5.02776957, -115.05407715, 90.04007721, -26.10809898, -133.96170044, -0.41631484, 0.12250942, -0.69663858, -0.57128644, 0.04618781, -0.22622362, 0.16098073, 100.01900482, 109.28558350, 32.46999741, 0.00000000
1, 3.0700, 357, -0.50412434, -0.67672455, -0.11280178, 115.64648438, -34.60392761, -191.34432983, -37.38673019, 5.02776957, -115.05407715, 90.69675446, -25.14913368, -134.14852905, -0.40984219, 0.12954810, -0.69908577, -0.57142448, 0.07563540, -0.22645518, 0.11883162, 100.01900482, 109.28558350, 32.46999741, 0.00000000
1, 3.0750, 358, -0.52018672, -0.67904115, -0.08011324, 119.92581177, -32.89706421, -192.72514343, -36.33440399, 4.47237635, -114.41098785, 91.36230469, -24.18148994, -134.31217957, -0.40332222, 0.13673547, -0.70153219, -0.57139069, 0.10690100, -0.23112962, 0.09670749, 100.01900482, 109.28558350, 32.46999741, 0.00000000
1, 3.0800, 359, -0.53849322, -0.69821298, -0.06482076, 123.53829956, -29.06339264, -194.43238831, -36.33440399, 4.47237635, -114.41098785, 92.02942657, -23.20414543, -134.44108582, -0.39681408, 0.14412068, -0.70391977, -0.57119590, 0.14071698, -0.21859728, 0.09216480, 100.01900482, 109.28558350, 32.46999741, 0.00000000
1, 3.0850, 360, -0.54530370, -0.72823560, -0.05069225, 126.18849945, -25.19010925, -196.68722534, -34.34668350, 3.18620276, -113.18328094, 92.69244385, -22.22016335, -134.53451538, -0.39034417, 0.15167034, -0.70621461, -0.57086647, 0.16329934, -0.19487986, 0.08889465, 100.01900482, 109.28558350, 32.46999741, 0.00000000
1, 3.0900, 361, -0.54622686, -0.76184011, -0.02438335, 127.31831360, -24.98902512, -198.87004089, -34.34668350, 3.18620276, -113.18328094, 93.35600281, -21.21916389, -134.61401367, -0.38374361, 0.15932804, -0.70844889, -0.57048726, 0.18027097, -0.16727474, 0.07356818, 100.01900482, 109.28558350, 32.46999741, 0.00000000
1, 3.1350, 362, -0.38355476, -0.88781059, -0.12527642, 118.67839050, 5.60936451, -205.56695557, -27.06810760, 0.52616191, -109.12014008, 98.69963074, -11.87362194, -133.92001343, -0.32580283, 0.23333849, -0.72080648, -0.56554735, 0.17382555, -0.07876608, 0.26845384, 100.01900482, 109.28558350, 32.46999741, 0.00000000
1, 3.1400, 363, -0.29776952, -0.90977955, -0.14142387, 119.27439880, -4.73602819, -202.42109680, -27.06810760, 0.52616191, -109.12014008, 99.26663971, -10.86852646, -133.78413391, -0.31941488, 0.24126479, -0.72170734, -0.56471592, 0.10526697, -0.05879034, 0.29478636, 100.01900482, 109.28558350, 32.46999741, 0.00000000
1, 3.1450, 364, -0.22832870, -0.94691002, -0.18314883, 119.48531342, -15.44800949, -198.64808655, -25.19731140, 0.08769365, -107.92166138, 99.84555817, -9.87461853, -133.69534302, -0.31274775, 0.24878593, -0.72272760, -0.56387877, 0.05302923, -0.02313867, 0.34689736, 100.01900482, 109.28558350, 32.46999741, 0.00000000
1, 3.1500, 365, -0.17155232, -0.99511695, -0.23464926, 119.57879639, -27.99550247, -193.90083313, -25.19731140, 0.08769365, -107.92166138, 100.43575287, -8.89406776, -133.66336060, -0.30576953, 0.25582442, -0.72389996, -0.56305230, 0.01331472, 0.02407611, 0.40890861, 100.01900482, 109.28558350, 32.46999741, 0.00000000
1, 3.1550, 366, -0.14179569, -1.04593980, -0.25835139, 119.19653320, -44.94139481, -187.46472168, -25.19731140, 0.08769365, -107.92166138, 101.03631592, -7.92986679, -133.71134949, -0.29838902, 0.26221243, -0.72528946, -0.56228459, 0.00032692, 0.07433426, 0.44321704, 100.01900482, 109.28558350, 32.46999741, 0.00000000
1, 3.1600, 367, -0.17938076, -1.08710515, -0.26645368, 117.73120880, -63.24734497, -179.89047241, -23.76498032, -1.28617358, -107.13241577, 101.64027405, -6.98453617, -133.84698486, -0.29060394, 0.26786679, -0.72689867, -0.56161833, 0.05436594, 0.11535974, 0.46182954, 100.01900482, 109.28558350, 32.46999741, 0.00000000
1, 3.1650, 368, -0.25117865, -1.12120032, -0.22862199, 116.15192413, -77.93966675, -171.98330688, -23.76498032, -1.28617358, -107.13241577, 102.24220276, -6.06148005, -134.05288696, -0.28253841, 0.27286449, -0.72867984, -0.56101942, 0.14216825, 0.14965992, 0.43437678, 100.01900482, 109.28558350, 32.46999741, 0.00000000
1, 3.1700, 369, -0.37670323, -1.16282272, -0.12825438, 113.22489929, -89.96591949, -163.89030457, -22.56650162, -4.09237051, -106.95703125, 102.83202362, -5.16294909, -134.31652832, -0.27429834, 0.27724910, -0.73056751, -0.56050384, 0.28315252, 0.19176099, 0.34404719, 100.01900482, 109.28558350, 32.46999741, 0.00000000
1, 3.1750, 370, -0.47284949, -1.18352115, -0.08959115, 106.00671387, -99.54418945, -153.37083435, -22.56650162, -4.09237051, -106.95703125, 103.38598633, -4.30244350, -134.62951660, -0.26607466, 0.28095293, -0.73245746, -0.56015700, 0.39429834, 0.21331258, 0.31492504, 100.01900482, 109.28558350, 32.46999741, 0.00000000
1, 3.1800, 371, -0.57098246, -1.21852577, -0.07052196, 96.67189789, -107.57807159, -142.64743042, -22.56650162, -4.09237051, -106.95703125, 103.89173126, -3.48186755, -134.98591614, -0.25794989, 0.28398615, -0.73428464, -0.56003553, 0.50688243, 0.24938893, 0.30460316, 100.01900482, 109.28558350, 32.46999741, 0.00000000
1, 3.2100, 372, -0.77354491, -1.07158351, -0.01385200, 50.37736511, -83.91009521, -84.07849884, -19.43876076, -2.19234133, -104.76468658, 106.00112915, 0.44189382, -136.97724915, -0.21780770, 0.29500774, -0.74215513, -0.56101346, 0.77907979, 0.11007775, 0.28481698, 100.01900482, 109.28558350, 32.46999741, 0.00000000
1, 3.2150, 373, -0.77108097, -1.04441619, -0.02990585, 43.50659943, -78.15354919, -73.79384613, -19.43876076, -2.19234133, -104.76468658, 106.21453094, 0.90486717, -137.25091553, -0.21290666, 0.29588863, -0.74300033, -0.56131202, 0.78498304, 0.08408602, 0.30462638, 100.01900482, 109.28558350, 32.46999741, 0.00000000
1, 3.2200, 374, -0.77649891, -1.01598895, -0.05113293, 36.79127502, -73.38204193, -63.04392242, -19.52645493, -1.05232382, -104.58930206, 106.39258575, 1.31042838, -137.51516724, -0.20850579, 0.29646909, -0.74375904, -0.56165284, 0.79778308, 0.05672906, 0.32898122, 100.01900482, 109.28558350, 32.46999741, 0.00000000
1, 3.2250, 375, -0.79587406, -0.99936724, -0.06550121, 30.60712814, -71.23180389, -51.73230743, -19.52645493, -1.05232382, -104.58930206, 106.53798676, 1.65936208, -137.78396606, -0.20452864, 0.29667372, -0.74447984, -0.56205213, 0.82352889, 0.04103597, 0.34585512, 100.01900482, 109.28558350, 32.46999741, 0.00000000
