time,ax,ay,az,aT
25.040000,0.0036,-2.0694,-4.7468,5.178
25.041000,0.0646,-1.9897,-5.0123,5.393
25.041000,0.1095,-2.0112,-5.3510,5.718
25.042000,0.1952,-1.9414,-5.5482,5.881
25.042000,0.3975,-1.7780,-5.7261,6.009
25.042000,0.5536,-1.6420,-5.8853,6.135
25.043000,0.5431,-1.5422,-5.9018,6.124
25.043000,0.5790,-1.4140,-5.7760,5.975
25.043000,0.7041,-1.2210,-5.5250,5.702
25.044000,0.7004,-0.9998,-5.1750,5.317
25.044000,0.7163,-0.7477,-4.8196,4.930
25.045000,0.6493,-0.5988,-4.4898,4.576
25.045000,0.3516,-0.4431,-4.1592,4.197
25.045000,0.0673,-0.2593,-3.6650,3.675
25.046000,-0.2734,-0.0381,-3.2705,3.282
25.052000,-0.5753,0.2368,-2.8461,2.913
25.057000,-0.8771,0.4481,-2.2316,2.439
25.061000,-1.1743,0.6381,-1.6207,2.101
25.065000,-1.3620,0.8996,-1.1635,2.005
25.070000,-1.4556,1.1125,-0.6805,1.954
25.078000,-1.3716,1.3747,-0.3150,1.967
25.082000,-1.1891,1.5208,0.0960,1.933
25.085000,-1.0586,1.5724,0.4424,1.946
25.090000,-0.9587,1.6799,0.7891,2.089
25.145000,-0.9109,1.8405,1.0071,2.287
25.146000,-0.9007,1.9537,1.1756,2.452
25.146000,-1.0329,2.0743,1.4645,2.741
25.146000,-1.1747,2.2261,1.6874,3.030
25.147000,-1.2582,2.3684,1.6315,3.139
25.147000,-1.2974,2.4971,1.6077,3.241
25.147000,-1.4783,2.5022,1.4773,3.260
25.147000,-1.5957,2.5590,1.3789,3.316
25.148000,-1.5253,2.7177,1.3194,3.384
25.148000,-1.3673,2.8167,1.2241,3.362
25.148000,-1.2152,2.8327,1.1621,3.294
25.151000,-1.0571,2.8332,1.1307,3.228
25.156000,-0.8866,2.8354,1.1437,3.183
25.159000,-0.7617,2.7872,1.2033,3.130
25.165000,-0.7451,2.7555,1.3979,3.178
25.169000,-0.7745,2.6904,1.7557,3.305
25.177000,-0.8431,2.6538,2.0568,3.462
25.179000,-0.9418,2.6025,2.3060,3.602
25.184000,-1.0422,2.5121,2.6518,3.799
25.189000,-1.1018,2.4179,3.0851,4.072
25.256000,-1.1618,2.2691,3.4481,4.288
25.258000,-1.2034,2.0938,3.8371,4.534
25.259000,-0.9894,2.1305,4.3600,4.953
25.261000,-0.6629,2.1198,4.7255,5.221
25.261000,-0.2337,1.9919,5.0561,5.439
25.263000,0.1418,1.8513,5.2592,5.577
25.264000,0.4854,1.7451,5.1442,5.454
25.266000,0.9222,1.7213,4.8763,5.253
25.267000,1.3387,1.7208,4.5750,5.068
25.268000,1.6262,1.7033,4.1659,4.785
25.270000,1.9270,1.7061,3.5792,4.408
25.271000,2.0405,1.7133,3.0319,4.036
25.273000,2.0748,1.7286,2.5424,3.709
25.274000,2.0397,1.7149,2.1314,3.412
25.275000,1.9944,1.6059,1.8293,3.147
25.276000,1.8782,1.3358,1.6952,2.861
25.276000,1.8101,1.1339,1.6572,2.703
25.279000,1.7931,0.9381,1.7966,2.706
25.283000,1.7783,0.7333,2.1085,2.854
25.289000,1.8007,0.5398,2.3976,3.047
25.295000,1.7518,0.4163,2.4850,3.069
25.299000,1.7509,0.1753,2.3143,2.907
25.304000,1.5702,-0.3408,2.1512,2.685
25.308000,1.2389,-0.6633,2.0628,2.496
25.373000,0.9519,-0.7739,1.7337,2.124
25.375000,0.7788,-0.7776,1.2143,1.639
25.375000,0.5523,-0.9108,1.0114,1.469
25.376000,0.2743,-1.1301,0.7420,1.380
25.376000,0.1487,-1.1576,0.3533,1.219
25.377000,0.1519,-1.1795,-0.0210,1.189
25.377000,0.1192,-1.1998,-0.2474,1.231
25.378000,0.1464,-1.2326,-0.3839,1.299
25.378000,0.2546,-1.2944,-0.4186,1.384
25.378000,0.4143,-1.3324,-0.4354,1.462
25.379000,0.5548,-1.3517,-0.4487,1.529
25.379000,0.7419,-1.4195,-0.4153,1.655
25.379000,0.9703,-1.5479,-0.3951,1.869
25.380000,1.1529,-1.6769,-0.3498,2.065
25.384000,1.3352,-1.7949,-0.4204,2.276
25.388000,1.5215,-1.8757,-0.5348,2.474
25.394000,1.6421,-1.9343,-0.6067,2.609
25.397000,1.6853,-1.9947,-0.7053,2.705
25.402000,1.6347,-2.0281,-0.9287,2.766
25.407000,1.5821,-2.1016,-1.1690,2.879
25.412000,1.4396,-2.1336,-1.3355,2.900
25.417000,1.2055,-2.1650,-1.5715,2.934
25.422000,1.0096,-2.1480,-1.6545,2.893
25.427000,0.7664,-2.1783,-1.6802,2.856
25.481000,0.4139,-2.2013,-1.8734,2.920
25.482000,0.2940,-2.1692,-2.0304,2.986
25.482000,0.2751,-2.1729,-2.0796,3.020
25.482000,0.3124,-2.1552,-2.0879,3.017
25.482000,0.2668,-2.1736,-2.2730,3.156
25.482000,0.2340,-2.1634,-2.4911,3.308
25.483000,0.2565,-2.1771,-2.6707,3.455
25.483000,0.2930,-2.2290,-2.8047,3.595
25.483000,0.3285,-2.2445,-2.9985,3.760
25.483000,0.3747,-2.1975,-3.1278,3.841
25.484000,0.4839,-2.1552,-3.2021,3.890
25.487000,0.4911,-2.1796,-3.2262,3.924
25.491000,0.5634,-2.1773,-3.1573,3.876
25.498000,0.7487,-2.2251,-2.9714,3.787
25.501000,0.9441,-2.2273,-2.7977,3.699
25.508000,1.0620,-2.2327,-2.5616,3.560
25.512000,1.0051,-2.2179,-2.3632,3.393
25.516000,0.7332,-2.1305,-2.2501,3.184
25.522000,0.4602,-1.9971,-2.1742,2.988
25.585000,0.3536,-1.8271,-2.1476,2.842
25.586000,0.3517,-1.7451,-2.2324,2.855
25.586000,0.2037,-1.7364,-2.2826,2.875
25.586000,-0.0742,-1.7149,-2.2529,2.832
25.587000,-0.1541,-1.6205,-2.1292,2.680
25.587000,-0.0293,-1.4819,-1.9642,2.461
25.587000,0.1088,-1.3447,-1.8370,2.279
25.588000,0.2211,-1.2712,-1.6062,2.060
25.588000,0.4053,-1.2308,-1.3698,1.886
25.588000,0.5844,-1.1399,-1.1898,1.748
25.588000,0.7061,-1.0512,-1.1569,1.715
25.589000,0.8515,-0.9693,-1.2521,1.798
25.589000,0.8532,-0.8935,-1.2890,1.785
25.591000,0.8499,-0.7949,-1.3659,1.794
25.596000,0.8288,-0.7306,-1.4254,1.803
25.600000,0.7252,-0.6098,-1.3458,1.646
25.605000,0.5992,-0.4872,-1.3328,1.540
25.610000,0.4799,-0.4055,-1.3700,1.507
25.618000,0.4056,-0.3332,-1.3331,1.433
25.625000,0.4674,-0.1792,-1.2344,1.332
25.626000,0.5885,-0.0513,-1.0978,1.247
25.654000,0.6162,0.0865,-0.8731,1.072
25.655000,0.6633,0.1906,-0.6247,0.931
25.655000,0.7684,0.2872,-0.3621,0.897
25.655000,0.8004,0.4241,-0.1331,0.916
25.656000,0.8098,0.4958,0.0577,0.951
25.656000,0.8019,0.5452,0.2942,1.013
25.664000,0.8129,0.7371,0.5548,1.230
25.665000,0.8447,0.8751,0.7825,1.446
25.671000,0.8826,0.9878,0.7644,1.529
25.677000,0.8447,1.0876,0.6251,1.512
25.680000,0.7208,1.1604,0.4862,1.450
25.685000,0.6275,1.2285,0.2376,1.400
25.690000,0.5523,1.3112,-0.0230,1.423
25.695000,0.5188,1.4503,-0.2386,1.559
25.700000,0.5462,1.5051,-0.5150,1.682
25.704000,0.5101,1.5482,-0.7523,1.795
25.710000,0.5015,1.6064,-0.9149,1.915
25.718000,0.3608,1.6584,-0.9433,1.942
25.719000,0.1341,1.6808,-0.7639,1.851
25.774000,-0.1438,1.7454,-0.4607,1.811
25.775000,-0.3597,1.7879,-0.0819,1.826
25.775000,-0.5322,1.8081,0.3893,1.925
25.776000,-0.6250,1.8512,0.9124,2.156
25.776000,-0.6836,1.8546,1.4181,2.433
25.776000,-0.4838,1.9256,1.9214,2.763
25.776000,-0.4956,1.8461,2.3433,3.024
25.777000,-0.6574,1.6513,2.9646,3.457
25.777000,-0.6224,1.5561,3.4551,3.840
25.777000,-0.5592,1.5335,3.8850,4.214
25.778000,-0.5717,1.4964,4.2261,4.519
25.780000,-0.5860,1.4779,4.4740,4.748
25.784000,-0.6939,1.3294,4.5979,4.836
25.790000,-0.8089,1.1965,4.8111,5.023
25.794000,-0.8946,1.1653,4.8480,5.066
25.801000,-0.9793,1.1782,4.8093,5.047
25.804000,-1.1007,1.1278,4.7451,5.000
25.811000,-1.1866,1.1123,4.7056,4.979
25.815000,-1.2485,1.0862,4.5879,4.877
25.819000,-1.2139,1.0619,4.4398,4.724
25.892000,-1.0564,1.0131,4.3329,4.573
25.893000,-0.9577,0.9113,4.2026,4.406
25.894000,-0.8841,0.8382,4.0535,4.233
25.894000,-0.8236,0.7578,3.8617,4.021
25.894000,-0.7650,0.6801,3.6748,3.815
25.895000,-0.7571,0.6121,3.5838,3.714
25.895000,-0.7931,0.6138,3.5479,3.687
25.895000,-0.8687,0.5675,3.5694,3.717
25.896000,-0.9745,0.5185,3.6320,3.796
25.896000,-0.9984,0.3996,3.6230,3.779
25.897000,-0.9645,0.2582,3.6602,3.794
25.897000,-0.9016,0.1229,3.6861,3.797
25.897000,-0.7708,0.0362,3.6485,3.729
25.897000,-0.6343,-0.0121,3.5598,3.616
25.898000,-0.5538,-0.1036,3.4224,3.468
25.898000,-0.5456,-0.2122,3.1769,3.230
25.905000,-0.5062,-0.3809,2.9477,3.015
25.909000,-0.5189,-0.4447,2.6271,2.715
25.913000,-0.5068,-0.4727,2.1650,2.273
25.920000,-0.4961,-0.5557,1.6834,1.841
25.930000,-0.5608,-0.6262,1.1341,1.412
25.931000,-0.5713,-0.6549,0.6150,1.065
25.933000,-0.6138,-0.6558,0.0756,0.901
25.938000,-0.6715,-0.6331,-0.4606,1.031
26.016000,-0.6678,-0.6366,-1.0512,1.399
26.017000,-0.6606,-0.7017,-1.6222,1.887
26.017000,-0.6576,-0.7605,-2.2052,2.424
26.017000,-0.6635,-0.7887,-2.6117,2.808
26.017000,-0.6759,-0.8073,-3.0693,3.245
26.018000,-0.6830,-0.8612,-3.4778,3.647
26.018000,-0.7352,-0.9215,-3.7011,3.884
26.018000,-0.8755,-0.9498,-3.8806,4.090
26.019000,-1.0394,-1.0557,-3.9974,4.263
26.019000,-1.0617,-1.0840,-3.9702,4.250
26.019000,-0.9933,-1.0607,-3.9332,4.193
26.019000,-0.9136,-1.1036,-3.7904,4.052
26.020000,-0.8302,-1.1895,-3.5679,3.851
26.020000,-0.7120,-1.2923,-3.3516,3.662
26.020000,-0.5780,-1.3505,-3.1219,3.450
26.021000,-0.4855,-1.4004,-2.9384,3.291
26.022000,-0.4702,-1.4258,-2.7315,3.117
26.029000,-0.4912,-1.4392,-2.5032,2.929
26.033000,-0.5505,-1.4363,-2.2366,2.714
26.038000,-0.5305,-1.4538,-1.9719,2.507
26.044000,-0.4701,-1.4491,-1.7209,2.298
26.047000,-0.3641,-1.4542,-1.5547,2.160
26.052000,-0.2627,-1.4312,-1.5473,2.124
26.116000,-0.2087,-1.4042,-1.6721,2.193
26.117000,-0.1617,-1.3947,-1.8979,2.361
26.118000,-0.0975,-1.3857,-2.0237,2.455
26.118000,-0.0041,-1.3959,-2.1553,2.568
26.118000,0.1160,-1.3558,-2.2807,2.656
26.118000,0.2154,-1.3177,-2.3402,2.694
26.119000,0.2535,-1.3080,-2.3939,2.740
26.119000,0.1203,-1.3216,-2.4633,2.798
26.119000,0.1630,-1.3488,-2.4672,2.817
26.119000,0.3932,-1.2529,-2.5899,2.904
26.120000,0.4011,-1.1442,-2.6065,2.875
26.120000,0.2968,-1.1422,-2.5146,2.778
26.120000,0.2168,-1.1895,-2.4867,2.765
26.123000,0.1921,-1.1640,-2.4987,2.763
26.128000,0.1554,-1.1185,-2.5313,2.772
26.133000,0.1257,-1.0960,-2.5320,2.762
26.137000,0.1363,-1.0056,-2.5248,2.721
26.144000,0.0725,-0.9378,-2.5025,2.673
26.147000,0.0235,-0.8090,-2.4893,2.618
26.151000,-0.0088,-0.6927,-2.4925,2.587
26.156000,-0.0985,-0.6103,-2.4477,2.525
26.220000,-0.1575,-0.5186,-2.3621,2.423
26.221000,-0.1381,-0.4458,-2.2528,2.301
26.221000,-0.0647,-0.3755,-2.2178,2.250
26.221000,0.0506,-0.2953,-2.1782,2.199
26.222000,0.0496,-0.2312,-2.0530,2.067
26.222000,-0.0885,-0.1763,-1.8707,1.881
26.222000,-0.1873,-0.0468,-1.6196,1.631
26.223000,-0.1509,0.1232,-1.3521,1.366
26.223000,-0.0699,0.2763,-1.2857,1.317
26.223000,-0.0471,0.4414,-1.2984,1.372
26.223000,-0.1012,0.4967,-1.2850,1.381
26.224000,-0.1338,0.6175,-1.1837,1.342
26.224000,-0.1901,0.7581,-1.0256,1.289
26.235000,-0.2820,0.8829,-0.8850,1.282
26.235000,-0.4427,0.9777,-0.7262,1.296
26.236000,-0.5507,1.1042,-0.5107,1.335
26.242000,-0.6250,1.1886,-0.3487,1.387
26.246000,-0.7278,1.2977,-0.2017,1.501
26.252000,-0.8472,1.3741,-0.1176,1.619
26.261000,-0.8349,1.4972,-0.0154,1.714
26.262000,-0.8613,1.6573,0.3012,1.892
26.268000,-0.8235,1.6535,0.5424,1.925
26.270000,-0.6623,1.7417,0.6703,1.980
26.343000,-0.5406,1.8045,0.7113,2.014
26.345000,-0.4800,1.8112,0.6821,1.994
26.346000,-0.5073,1.8411,0.6065,2.004
26.347000,-0.4384,1.8685,0.6180,2.016
26.347000,-0.3526,1.8745,0.6423,2.013
26.348000,-0.3407,1.8688,0.6601,2.011
26.350000,-0.2257,1.8634,0.9036,2.083
26.351000,-0.0075,1.9063,1.1713,2.237
26.352000,0.1735,1.9683,1.5425,2.507
26.353000,0.3057,1.9914,2.0008,2.839
26.353000,0.3153,2.0227,2.5416,3.264
26.354000,0.3155,2.0611,3.0485,3.693
26.355000,0.3304,2.1419,3.5431,4.153
26.356000,0.3921,2.2191,3.8921,4.497
26.356000,0.4489,2.2446,4.0310,4.636
26.357000,0.5157,2.2691,4.0771,4.694
26.357000,0.6216,2.2927,4.0255,4.674
26.361000,0.6161,2.2802,4.0506,4.689
26.365000,0.5380,2.2586,3.9151,4.552
26.371000,0.3533,2.1834,3.8961,4.480
26.379000,0.1742,2.0911,4.0267,4.541
26.382000,-0.0029,1.9580,4.1534,4.592
26.385000,-0.1195,1.7961,4.3721,4.728
26.390000,-0.1671,1.6464,4.5845,4.874
26.454000,-0.0587,1.4197,4.8388,5.043
26.455000,0.2235,1.1875,5.2501,5.387
26.455000,0.4777,0.9461,5.7303,5.827
26.456000,0.7665,0.7161,6.1867,6.275
26.456000,1.1047,0.4630,6.5888,6.697
26.456000,1.3901,0.2713,6.8586,7.003
26.456000,1.5372,0.1091,6.9439,7.113
26.457000,1.6428,-0.0294,6.9028,7.096
26.457000,1.6458,-0.1231,6.7691,6.967
26.457000,1.5824,-0.2704,6.3949,6.593
26.458000,1.5155,-0.3015,5.8569,6.057
26.458000,1.3950,-0.3289,5.3250,5.515
26.458000,1.2556,-0.3713,4.8253,5.000
26.459000,1.1407,-0.4683,4.2234,4.400
26.466000,1.0766,-0.5026,3.5456,3.739
26.471000,1.0104,-0.5620,2.8993,3.121
26.477000,0.9872,-0.6392,2.3203,2.601
26.481000,1.0097,-0.6281,1.6456,2.030
26.484000,0.9770,-0.6381,0.9465,1.503
26.489000,0.9466,-0.6422,0.2803,1.178
26.550000,0.9274,-0.6439,-0.4520,1.216
26.551000,0.8903,-0.6764,-1.1761,1.623
26.551000,0.8463,-0.7193,-1.8425,2.151
26.552000,0.7564,-0.6976,-2.4687,2.675
26.552000,0.6681,-0.7351,-2.9665,3.128
26.552000,0.5787,-0.7567,-3.3246,3.458
26.552000,0.5311,-0.7602,-3.6271,3.744
26.553000,0.4244,-0.8384,-3.7833,3.898
26.553000,0.2922,-0.9028,-3.8077,3.924
26.553000,0.1874,-1.0014,-3.7173,3.854
26.554000,0.1293,-1.0511,-3.5740,3.728
26.554000,0.1347,-1.1241,-3.4135,3.596
26.554000,0.1324,-1.2521,-3.1899,3.429
26.559000,0.1298,-1.3665,-2.9007,3.209
26.564000,0.1775,-1.5038,-2.6506,3.053
26.570000,0.2378,-1.6003,-2.4104,2.903
26.575000,0.2991,-1.6996,-2.1845,2.784
26.579000,0.3427,-1.7855,-1.9535,2.669
26.584000,0.3640,-1.7965,-1.9155,2.651
26.590000,0.4655,-1.8096,-1.9696,2.715
26.652000,0.5278,-1.8676,-2.0032,2.789
26.653000,0.5464,-1.9754,-2.0237,2.880
26.653000,0.4541,-2.0305,-2.1910,3.022
26.653000,0.3724,-2.0062,-2.3831,3.137
26.654000,0.3800,-1.9907,-2.5644,3.269
26.654000,0.3524,-1.9957,-2.8330,3.483
26.655000,0.2223,-1.9896,-3.1700,3.749
26.655000,0.1133,-1.9603,-3.5037,4.016
26.655000,0.0440,-1.9309,-3.8178,4.279
26.655000,0.0120,-1.9106,-4.1198,4.541
26.656000,-0.0497,-1.8940,-4.3097,4.708
26.656000,-0.1315,-1.8881,-4.3949,4.785
26.656000,-0.2119,-1.8518,-4.4474,4.822
26.660000,-0.2598,-1.7565,-4.4532,4.794
26.664000,-0.2059,-1.6906,-4.4289,4.745
26.668000,-0.1597,-1.7042,-4.3223,4.649
26.675000,-0.1501,-1.5701,-4.1428,4.433
26.678000,-0.1269,-1.5207,-3.9214,4.208
26.683000,-0.0948,-1.4436,-3.6439,3.921
26.689000,-0.0557,-1.4153,-3.2840,3.576
26.699000,-0.0045,-1.4006,-2.9897,3.302
26.699000,-0.0065,-1.3948,-2.6197,2.968
26.703000,0.0457,-1.3530,-2.1162,2.512
26.783000,0.2310,-1.2425,-1.7111,2.127
26.783000,0.3794,-1.1594,-1.2699,1.761
26.784000,0.5362,-1.0541,-0.8665,1.466
26.784000,0.6367,-0.9821,-0.6703,1.349
26.784000,0.6883,-0.8814,-0.5684,1.254
26.785000,0.6505,-0.7398,-0.5849,1.146
26.785000,0.5596,-0.5857,-0.7054,1.074
26.785000,0.5117,-0.4066,-0.8369,1.062
26.786000,0.5553,-0.2471,-0.9059,1.091
26.786000,0.6643,-0.1448,-1.0253,1.230
26.786000,0.8745,-0.0202,-1.1212,1.422
26.786000,0.9918,0.0503,-1.1173,1.495
26.786000,1.1046,0.1174,-0.9803,1.482
26.787000,1.0858,0.2622,-0.8134,1.382
26.787000,1.0268,0.3627,-0.6333,1.260
26.787000,1.0092,0.4909,-0.4232,1.199
26.788000,1.0427,0.6157,-0.0018,1.211
26.793000,1.0649,0.7870,0.4399,1.395
26.798000,1.1257,0.9105,0.8115,1.660
26.802000,1.2250,1.0410,1.1731,1.990
26.807000,1.3133,1.2092,1.4292,2.287
26.814000,1.2981,1.2957,1.6135,2.443
26.816000,1.1466,1.3196,1.7379,2.465
26.822000,0.9617,1.3552,1.7020,2.379
26.887000,0.7647,1.4317,1.8909,2.492
26.888000,0.6422,1.4794,2.1248,2.668
26.889000,0.4315,1.5251,2.3654,2.847
26.892000,0.1427,1.5494,2.6414,3.066
26.893000,-0.1936,1.6097,2.9027,3.325
26.894000,-0.4773,1.6272,2.9507,3.403
26.897000,-0.7016,1.6092,3.1538,3.609
26.899000,-0.9799,1.6013,3.2130,3.721
26.902000,-1.0159,1.6706,3.2239,3.770
26.902000,-1.1216,1.7479,3.4543,4.031
26.903000,-1.1971,1.7470,3.7915,4.343
26.903000,-1.0530,1.7374,4.1110,4.586
26.904000,-0.9844,1.6873,4.3799,4.796
26.907000,-1.1743,1.6175,4.6679,5.078
26.908000,-1.5160,1.4722,4.8634,5.303
26.910000,-1.8212,1.3368,4.8137,5.317
26.913000,-2.0802,1.1514,4.4667,5.060
26.914000,-2.3001,0.9380,3.9850,4.696
26.918000,-2.5211,0.8909,3.3205,4.263
26.920000,-2.6041,0.8531,2.6691,3.825
26.935000,-2.7185,0.7536,2.0490,3.487
26.936000,-2.7598,0.6169,1.6108,3.255
26.937000,-2.6453,0.5339,1.3134,3.001
26.942000,-2.4736,0.4848,1.0447,2.729
27.020000,-2.2128,0.3814,0.7328,2.362
27.022000,-1.8139,0.3195,0.4016,1.885
27.023000,-1.2956,0.2805,0.0317,1.326
27.026000,-0.8114,0.1383,-0.1263,0.833
27.027000,-0.4500,0.0486,-0.3260,0.558
27.029000,-0.0799,-0.0410,-0.3978,0.408
27.031000,0.3818,-0.0395,-0.2130,0.439
27.032000,0.7113,-0.0360,0.0467,0.714
27.033000,0.8879,-0.0476,0.3171,0.944
27.035000,0.8762,-0.1060,0.7324,1.147
27.035000,0.7339,-0.0993,1.1613,1.377
27.035000,0.5176,-0.1315,1.5112,1.603
27.036000,0.1446,-0.2030,1.8424,1.859
27.036000,-0.2184,-0.2643,1.9975,2.027
27.036000,-0.5463,-0.3229,2.0201,2.117
27.037000,-0.8786,-0.4148,1.9127,2.145
27.037000,-1.0890,-0.5567,1.7854,2.164
27.038000,-1.3355,-0.5447,1.5256,2.099
27.038000,-1.5493,-0.5796,1.2695,2.085
27.042000,-1.7429,-0.6613,0.9405,2.088
27.045000,-1.8015,-0.6504,0.6197,2.013
27.050000,-1.7945,-0.6543,0.2564,1.927
27.056000,-1.7383,-0.6557,-0.1184,1.862
27.062000,-1.6875,-0.6495,-0.4380,1.861
27.065000,-1.6490,-0.7216,-0.6453,1.912
27.071000,-1.6295,-0.7713,-0.9199,2.024
27.139000,-1.5956,-0.8653,-1.1398,2.143
27.141000,-1.5759,-0.9155,-1.3455,2.265
27.142000,-1.5704,-0.9742,-1.5563,2.416
27.142000,-1.5765,-1.0561,-1.8177,2.628
27.143000,-1.6321,-1.1438,-2.1058,2.899
27.144000,-1.6923,-1.2323,-2.4327,3.209
27.145000,-1.6542,-1.2832,-2.7150,3.428
27.145000,-1.5761,-1.2724,-3.0101,3.628
27.146000,-1.4395,-1.2977,-3.2801,3.810
27.147000,-1.3472,-1.3155,-3.4942,3.969
27.148000,-1.2493,-1.3997,-3.6407,4.096
27.149000,-1.1747,-1.4380,-3.5856,4.038
27.150000,-1.0994,-1.4854,-3.4320,3.898
27.150000,-0.9448,-1.5476,-3.1938,3.673
27.152000,-0.7419,-1.5749,-2.8875,3.372
27.152000,-0.5790,-1.6063,-2.6871,3.184
27.155000,-0.3862,-1.6785,-2.5275,3.059
27.160000,-0.1680,-1.7532,-2.5878,3.130
27.164000,-0.0609,-1.7713,-2.5613,3.115
27.170000,0.0550,-1.7760,-2.5438,3.103
27.174000,0.1058,-1.8034,-2.5014,3.086
27.180000,0.1398,-1.7919,-2.3815,2.984
27.184000,0.1772,-1.7820,-2.2438,2.871
27.188000,0.1590,-1.7169,-2.0307,2.664
27.266000,0.1265,-1.6184,-1.8401,2.454
27.267000,0.1591,-1.6233,-1.7268,2.375
27.267000,0.2159,-1.5694,-1.6713,2.303
27.267000,0.2732,-1.4782,-1.6207,2.211
27.268000,0.2806,-1.4406,-1.6853,2.235
27.268000,0.1903,-1.3440,-1.7957,2.251
27.268000,0.1144,-1.2023,-1.9663,2.308
27.268000,0.0686,-1.1108,-2.2357,2.497
27.269000,-0.0022,-1.0282,-2.5658,2.764
27.269000,-0.0390,-0.9392,-2.8783,3.028
27.269000,-0.0568,-0.8237,-3.1068,3.215
27.270000,-0.0440,-0.7125,-3.2207,3.299
27.270000,0.0367,-0.5906,-3.2085,3.263
27.270000,0.1208,-0.4030,-3.0681,3.097
27.271000,0.1479,-0.2550,-2.7828,2.798
27.271000,0.1088,-0.1565,-2.4937,2.501
27.275000,0.0370,-0.0457,-2.2126,2.213
27.279000,-0.0504,0.0317,-2.0396,2.040
27.285000,-0.0979,0.0829,-1.9675,1.972
27.288000,-0.2532,0.1727,-1.8502,1.875
27.295000,-0.4419,0.2821,-1.7072,1.786
27.298000,-0.4892,0.4445,-1.4642,1.607
27.303000,-0.4122,0.5642,-1.1788,1.370
27.370000,-0.3590,0.6793,-0.9443,1.217
27.371000,-0.3539,0.7945,-0.8011,1.182
27.371000,-0.2872,0.8596,-0.6343,1.106
27.372000,-0.2402,0.9537,-0.4393,1.077
27.372000,-0.1985,1.0985,-0.2832,1.152
27.372000,-0.1935,1.1789,-0.0080,1.195
27.373000,-0.1923,1.2496,0.2453,1.288
27.373000,-0.0755,1.3271,0.4385,1.400
27.373000,0.0806,1.3994,0.6412,1.541
27.373000,0.2478,1.4761,0.7888,1.692
27.374000,0.3954,1.5022,0.8049,1.750
27.374000,0.5716,1.5476,0.7563,1.815
27.375000,0.7241,1.6411,0.6262,1.900
27.375000,0.7957,1.7210,0.6034,1.990
27.380000,0.8440,1.7948,0.6396,2.084
27.383000,0.7999,1.8676,0.6343,2.128
27.387000,0.6664,1.8967,0.6925,2.126
27.395000,0.4485,1.9038,0.8617,2.137
27.398000,0.2609,1.9014,1.1321,2.228
27.402000,0.1081,1.9155,1.5205,2.448
27.407000,0.0258,1.9409,1.8809,2.703
27.468000,0.0198,1.9823,2.3116,3.045
27.468000,0.0412,1.9669,2.8417,3.456
27.469000,0.1232,1.9157,3.2803,3.801
27.469000,0.2866,1.8710,3.6445,4.107
27.469000,0.5769,1.9182,3.9302,4.411
27.470000,0.8247,1.9422,4.1639,4.668
27.470000,0.9827,1.9257,4.2672,4.784
27.470000,1.0757,1.9597,4.2616,4.812
27.471000,1.1239,2.0012,4.1329,4.727
27.471000,1.1997,2.0912,3.9841,4.657
27.471000,1.2609,2.1847,3.8100,4.569
27.471000,1.2220,2.3178,3.6178,4.467
27.474000,1.1725,2.3595,3.3520,4.264
27.481000,1.1534,2.3158,3.0553,4.004
27.482000,1.0954,2.3071,2.7750,3.771
27.488000,0.9505,2.2628,2.5608,3.547
27.494000,0.7561,2.1334,2.4023,3.301
27.498000,0.4373,2.0106,2.4545,3.203
27.501000,0.0785,1.8347,2.7004,3.266
27.506000,-0.2762,1.6294,3.0345,3.455
27.570000,-0.5445,1.4231,3.3445,3.675
27.571000,-0.6729,1.2321,3.5589,3.826
27.573000,-0.4862,1.0866,3.7761,3.959
27.576000,-0.2205,0.9168,4.0850,4.192
27.577000,-0.0523,0.6114,4.4120,4.454
27.579000,0.1381,0.3831,4.8553,4.872
27.581000,0.3871,0.1849,5.2722,5.290
27.582000,0.6933,0.0914,5.5636,5.607
27.583000,1.0381,0.0131,5.7611,5.854
27.583000,1.3656,-0.0755,5.7391,5.900
27.584000,1.5196,-0.1435,5.4288,5.639
27.584000,1.6071,-0.2009,4.9216,5.181
27.585000,1.6537,-0.2688,4.3850,4.694
27.586000,1.6076,-0.3276,3.8906,4.222
27.586000,1.6255,-0.3509,3.3759,3.763
27.587000,1.6576,-0.2976,2.8218,3.286
27.591000,1.7357,-0.2557,2.2089,2.821
27.597000,1.7565,-0.2889,1.4530,2.298
27.602000,1.7506,-0.2985,0.6544,1.893
27.607000,1.7460,-0.3430,-0.1228,1.784
27.612000,1.6390,-0.3786,-0.8627,1.890
27.616000,1.4765,-0.4280,-1.5203,2.162
27.620000,1.2551,-0.4470,-2.1301,2.512
27.698000,0.9956,-0.4952,-2.5704,2.801
27.699000,0.7735,-0.5527,-2.9207,3.072
27.701000,0.5547,-0.5978,-3.2508,3.352
27.702000,0.3717,-0.7162,-3.4677,3.560
27.703000,0.2654,-0.8218,-3.5499,3.653
27.706000,0.1283,-0.8596,-3.6507,3.753
27.707000,0.1087,-0.9588,-3.7390,3.861
27.708000,0.1305,-1.0813,-3.5660,3.729
27.710000,0.1655,-1.1844,-3.3542,3.561
27.711000,0.1734,-1.2952,-3.2249,3.480
27.713000,0.0802,-1.4407,-3.1228,3.440
27.714000,0.0031,-1.5209,-3.0834,3.438
27.716000,-0.0530,-1.5959,-2.9630,3.366
27.716000,-0.0688,-1.7188,-2.8713,3.347
27.717000,-0.0585,-1.7776,-2.7985,3.316
27.717000,-0.0243,-1.8085,-2.7540,3.295
27.717000,0.0126,-1.8333,-2.7303,3.289
27.718000,0.0143,-1.8450,-2.6915,3.263
27.718000,0.0334,-1.8968,-2.5751,3.198
27.722000,-0.0013,-1.9145,-2.7566,3.356
27.735000,0.0991,-1.9982,-2.8867,3.512
27.736000,0.2321,-2.0187,-2.9296,3.565
27.737000,0.3237,-2.0357,-2.9404,3.591
27.740000,0.2732,-2.0710,-2.9455,3.611
27.811000,0.1644,-2.0789,-2.9593,3.620
27.812000,0.0807,-2.0115,-2.8358,3.478
27.814000,0.0101,-1.9551,-2.7858,3.403
27.814000,0.0213,-1.9240,-2.7948,3.393
27.815000,-0.0416,-1.8559,-2.8196,3.376
27.816000,-0.1239,-1.8298,-2.8772,3.412
27.817000,-0.2046,-1.7854,-2.9868,3.486
27.818000,-0.2933,-1.7130,-3.1221,3.573
27.819000,-0.3781,-1.6094,-3.3052,3.696
27.820000,-0.3969,-1.4961,-3.3855,3.723
27.821000,-0.3999,-1.3656,-3.3153,3.608
27.822000,-0.4252,-1.2441,-3.1693,3.431
27.823000,-0.4988,-1.0816,-2.9830,3.212
27.824000,-0.6033,-0.9690,-2.8355,3.057
27.825000,-0.6594,-0.8298,-2.6645,2.868
27.826000,-0.6717,-0.7091,-2.5371,2.719
27.827000,-0.6693,-0.6379,-2.3578,2.533
27.832000,-0.5567,-0.5372,-2.1793,2.313
27.835000,-0.4231,-0.4285,-1.9706,2.061
27.839000,-0.2854,-0.3430,-1.7626,1.818
27.847000,-0.1389,-0.2471,-1.5627,1.588
27.849000,-0.0339,-0.1934,-1.3111,1.326
27.854000,0.0033,-0.0385,-1.0987,1.099
27.939000,-0.0251,0.1029,-0.8897,0.896
27.941000,-0.0498,0.2497,-0.6552,0.703
27.942000,-0.0709,0.3662,-0.4193,0.561
27.943000,-0.1073,0.4406,-0.2610,0.523
27.945000,-0.0754,0.5231,-0.0725,0.533
27.947000,-0.0214,0.6160,0.1796,0.642
27.949000,0.0617,0.6325,0.5698,0.854
27.950000,0.2010,0.7471,0.9928,1.259
27.951000,0.4338,0.8877,1.3486,1.672
27.953000,0.5835,0.9343,1.5083,1.868
27.954000,0.6100,0.9827,1.7279,2.079
27.955000,0.5529,1.0472,1.9574,2.288
27.955000,0.6283,1.1350,2.2039,2.557
27.955000,0.6141,1.2010,2.4480,2.795
27.956000,0.5322,1.2881,2.5559,2.911
27.956000,0.4395,1.3509,2.5851,2.950
27.956000,0.2154,1.3446,2.4468,2.800
27.957000,-0.0619,1.3462,2.2749,2.644
27.958000,-0.1518,1.3542,2.2695,2.647
27.958000,-0.1990,1.3736,2.2293,2.626
27.959000,-0.3026,1.4239,2.3001,2.722
27.963000,-0.3386,1.3904,2.4384,2.827
27.968000,-0.2619,1.3475,2.5462,2.893
27.973000,-0.1689,1.2638,2.6354,2.928
27.980000,-0.0627,1.1823,2.8664,3.101
27.982000,0.0401,1.1262,3.2705,3.459
27.988000,0.1282,1.0735,3.6997,3.854
28.053000,0.1429,1.0113,4.0160,4.144
28.055000,0.0881,0.9291,4.2440,4.345
28.055000,-0.0573,0.8647,4.3340,4.420
28.056000,-0.2353,0.8199,4.3273,4.411
28.058000,-0.4477,0.7801,4.1307,4.228
28.059000,-0.6250,0.7956,3.8953,4.025
28.060000,-0.7339,0.7875,3.5659,3.725
28.061000,-0.7577,0.7996,3.0346,3.228
28.062000,-0.7398,0.8066,2.4421,2.676
28.063000,-0.6641,0.7689,1.9072,2.161
28.064000,-0.4927,0.7307,1.4340,1.683
28.065000,-0.2095,0.7574,1.1031,1.354
28.066000,0.0221,0.7347,1.1148,1.335
28.067000,0.2142,0.6938,1.3850,1.564
28.068000,0.2807,0.6392,1.7437,1.878
28.069000,0.1999,0.4893,2.3204,2.380
28.099000,0.0535,0.2952,3.0797,3.094
28.101000,-0.0505,0.3092,3.6924,3.706
28.101000,-0.0307,0.3580,4.3169,4.332
28.102000,-0.2070,0.2605,4.8133,4.825
28.103000,-0.5337,0.1047,5.0148,5.044
28.103000,-0.7331,-0.0093,5.1300,5.182
28.104000,-0.7932,-0.0917,5.0923,5.155
28.108000,-0.9057,-0.1425,4.8853,4.971
28.112000,-1.0777,-0.1832,4.6333,4.761
28.117000,-1.1988,-0.2327,4.3650,4.533
28.121000,-1.2707,-0.2929,3.9822,4.190
28.128000,-1.3319,-0.3199,3.3840,3.651
28.132000,-1.3397,-0.3633,2.6804,3.019
28.137000,-1.3735,-0.4531,1.9879,2.458
28.186000,-1.3526,-0.5766,1.3300,1.983
28.187000,-1.3968,-0.6467,0.8208,1.744
28.188000,-1.4466,-0.6868,0.3258,1.634
28.189000,-1.4616,-0.7590,0.0219,1.647
28.192000,-1.4664,-0.8249,-0.2707,1.704
28.194000,-1.3892,-0.8846,-0.5350,1.732
28.194000,-1.2637,-0.9574,-0.8142,1.782
28.196000,-1.1420,-1.0289,-1.1728,1.933
28.197000,-1.0362,-1.0970,-1.5554,2.167
28.198000,-0.9957,-1.1925,-1.9145,2.465
28.199000,-0.9798,-1.2721,-2.2404,2.756
28.199000,-0.9354,-1.3529,-2.5333,3.020
28.203000,-0.8376,-1.2767,-2.8697,3.251
28.207000,-0.7271,-1.2394,-3.2187,3.525
28.213000,-0.7033,-1.3075,-3.3990,3.709
28.216000,-0.7152,-1.3252,-3.5065,3.816
28.222000,-0.7628,-1.3642,-3.5412,3.871
28.229000,-0.8342,-1.3964,-3.4504,3.815
28.232000,-0.8966,-1.4074,-3.3729,3.763
28.235000,-0.9220,-1.4626,-3.3011,3.726
28.302000,-0.8727,-1.5358,-3.1056,3.573
28.303000,-0.8113,-1.6110,-2.9608,3.467
28.306000,-0.6497,-1.6788,-2.9070,3.419
28.307000,-0.4194,-1.6419,-2.7693,3.247
28.308000,-0.1176,-1.5628,-2.8200,3.226
28.308000,0.1487,-1.5660,-2.9180,3.315
28.310000,0.2770,-1.6606,-3.0848,3.514
28.312000,0.3417,-1.6650,-3.0787,3.517
28.313000,0.3527,-1.6438,-3.0864,3.515
28.315000,0.3416,-1.5734,-3.1005,3.494
28.316000,0.2682,-1.5040,-3.1164,3.471
28.317000,0.0661,-1.4642,-3.0743,3.406
28.318000,-0.1068,-1.3917,-3.0101,3.318
28.318000,-0.2025,-1.2865,-2.8905,3.170
28.319000,-0.3270,-1.2041,-2.8179,3.082
28.320000,-0.4977,-1.1207,-2.6681,2.936
28.321000,-0.6617,-1.0674,-2.5389,2.833
28.329000,-0.6743,-0.9679,-2.3778,2.654
28.331000,-0.6535,-0.8034,-2.2109,2.441
28.336000,-0.6092,-0.7346,-1.9853,2.203
28.341000,-0.5944,-0.6517,-1.7178,1.931
28.347000,-0.6592,-0.6194,-1.4464,1.706
28.352000,-0.6293,-0.5615,-1.2955,1.546
28.356000,-0.5487,-0.4852,-1.2503,1.449
28.432000,-0.4457,-0.3982,-1.2196,1.358
28.433000,-0.4308,-0.3047,-1.1967,1.308
28.434000,-0.3693,-0.2428,-1.3728,1.442
28.434000,-0.2777,-0.1808,-1.6428,1.676
28.435000,-0.1532,-0.1032,-1.8709,1.880
28.435000,0.0431,-0.0242,-2.1290,2.130
28.436000,0.2394,0.0599,-2.2841,2.297
28.436000,0.3427,0.1589,-2.2669,2.298
28.436000,0.4010,0.2948,-2.2910,2.344
28.437000,0.4573,0.4008,-2.2464,2.327
28.437000,0.3202,0.4291,-2.1118,2.179
28.437000,0.1563,0.3970,-1.9617,2.008
28.437000,0.0060,0.4713,-1.8700,1.929
28.438000,0.0742,0.6927,-1.7173,1.853
28.438000,0.1305,0.8913,-1.6590,1.888
28.440000,0.1748,0.9520,-1.4629,1.754
28.440000,0.0663,0.8654,-1.3948,1.643
28.444000,-0.1035,0.7922,-1.2656,1.497
28.449000,-0.1596,0.8590,-1.1255,1.425
28.455000,-0.1375,1.0276,-0.9532,1.408
28.463000,-0.1686,1.1760,-0.6603,1.359
28.465000,-0.1549,1.1964,-0.3808,1.265
28.469000,-0.1344,1.2443,-0.2628,1.279
28.535000,-0.1623,1.3051,-0.2102,1.332
28.536000,-0.1311,1.3504,-0.0391,1.357
28.536000,-0.0734,1.4687,0.0662,1.472
28.537000,-0.0375,1.5860,0.0746,1.588
28.538000,-0.0813,1.7024,0.0816,1.706
28.539000,-0.0588,1.7610,0.1396,1.768
28.540000,-0.0344,1.7812,0.2125,1.794
28.541000,-0.0442,1.7323,0.3095,1.760
28.542000,-0.0642,1.7223,0.5190,1.800
28.542000,-0.0637,1.7127,0.9531,1.961
28.543000,0.0214,1.7007,1.5235,2.283
28.544000,0.2001,1.6905,2.2065,2.787
28.545000,0.4080,1.6714,2.8402,3.321
28.545000,0.6114,1.7409,3.3942,3.863
28.546000,0.8326,1.7402,3.8235,4.283
28.551000,1.0381,1.7452,4.1387,4.610
28.555000,1.2382,1.7526,4.3046,4.810
28.563000,1.3043,1.7693,4.3001,4.829
28.565000,1.2301,1.7762,4.1805,4.706
28.568000,1.0436,1.7736,3.9361,4.442
28.575000,0.7839,1.7549,3.6458,4.121
28.644000,0.4896,1.7782,3.3975,3.866
28.645000,0.2042,1.7890,3.0712,3.560
28.645000,-0.0393,1.7763,2.7141,3.244
28.645000,-0.2748,1.7434,2.3759,2.960
28.645000,-0.3690,1.6481,2.0870,2.685
28.646000,-0.4211,1.4816,2.0284,2.547
28.646000,-0.4374,1.3208,2.0370,2.467
28.646000,-0.4216,1.1396,2.1245,2.447
28.646000,-0.3343,0.8994,2.3267,2.517
28.647000,-0.1787,0.6741,2.5193,2.614
28.647000,0.0351,0.4728,2.7793,2.819
28.647000,0.2834,0.2492,3.1622,3.185
28.648000,0.5686,0.0699,3.5821,3.628
28.648000,0.9753,-0.0240,4.0834,4.198
28.648000,1.2264,-0.1461,4.4203,4.590
28.654000,1.2705,-0.2736,4.6419,4.820
28.659000,1.3384,-0.3931,4.7060,4.908
28.663000,1.3427,-0.4432,4.5008,4.718
28.668000,1.2275,-0.4839,4.1513,4.356
28.673000,1.0271,-0.5223,3.8034,3.974
28.679000,0.7666,-0.5868,3.4425,3.575
28.683000,0.4371,-0.6171,2.9920,3.086
28.687000,0.2749,-0.5081,2.3898,2.459
28.757000,0.3292,-0.4529,1.6714,1.763
28.758000,0.3240,-0.4884,0.9389,1.107
28.758000,0.2660,-0.5900,0.1512,0.665
28.759000,0.2667,-0.6178,-0.6230,0.917
28.759000,0.2841,-0.5711,-1.3270,1.472
28.759000,0.2627,-0.5615,-1.9640,2.059
28.759000,0.3383,-0.5520,-2.5922,2.672
28.760000,0.3859,-0.5826,-3.0257,3.105
28.760000,0.3169,-0.6886,-3.4133,3.496
28.760000,0.2436,-0.7167,-3.8774,3.951
28.761000,0.2757,-0.7380,-4.3035,4.375
28.761000,0.3128,-0.8521,-4.4724,4.564
28.761000,0.3240,-1.0232,-4.4321,4.560
28.762000,0.2814,-1.1894,-4.2900,4.461
28.764000,0.1946,-1.2866,-4.0414,4.246
28.768000,0.0852,-1.4017,-3.6688,3.928
28.773000,-0.0610,-1.5643,-3.2388,3.597
28.777000,0.0048,-1.5553,-2.8344,3.233
28.783000,0.1478,-1.5669,-2.7180,3.141
28.787000,0.1357,-1.7005,-2.5541,3.071
28.795000,0.1723,-1.8868,-2.4235,3.076
28.797000,0.2868,-2.0162,-2.4289,3.170
28.802000,0.4962,-2.1032,-2.4982,3.303
28.806000,0.6762,-2.0977,-2.5811,3.394
28.880000,0.7913,-2.1269,-2.6750,3.508
28.882000,0.9113,-2.1455,-2.6696,3.544
28.883000,1.1297,-2.1749,-2.6537,3.612
28.883000,1.2863,-2.1797,-2.6103,3.636
28.884000,1.2767,-2.2148,-2.6805,3.704
28.884000,1.2972,-2.2444,-2.7278,3.763
28.885000,1.3384,-2.2136,-2.6063,3.672
28.887000,1.2667,-2.1752,-2.6486,3.654
28.887000,1.1779,-2.1485,-2.7396,3.675
28.888000,1.1026,-2.1761,-2.7862,3.703
28.888000,1.0696,-2.1549,-2.8795,3.752
28.889000,1.0478,-2.1185,-2.8617,3.711
28.889000,1.0633,-2.0429,-2.9098,3.711
28.889000,1.0060,-1.9256,-2.9642,3.675
28.890000,0.9813,-1.7902,-2.9318,3.573
28.890000,1.0800,-1.7610,-2.4970,3.241
28.891000,1.0778,-1.6973,-2.4372,3.159
28.896000,1.1206,-1.5845,-2.5656,3.217
28.902000,1.1767,-1.4511,-2.5091,3.128
28.906000,1.2260,-1.4046,-2.3924,3.033
28.912000,1.1585,-1.3250,-2.2565,2.862
28.915000,1.1390,-1.2459,-2.0869,2.684
28.922000,1.0996,-1.1433,-2.0130,2.563
28.998000,1.1097,-1.0099,-1.8458,2.379
28.999000,1.0997,-0.8886,-1.8129,2.299
29.000000,0.9906,-0.7813,-1.8807,2.265
29.001000,0.8346,-0.6616,-1.8771,2.158
29.002000,0.6076,-0.5315,-1.7788,1.953
29.003000,0.5271,-0.3404,-1.5118,1.637
29.003000,0.5764,-0.0887,-1.1431,1.283
29.004000,0.7630,0.1209,-0.8476,1.147
29.004000,0.8454,0.1998,-0.4194,0.965
29.005000,0.7955,0.0328,-0.0256,0.797
29.006000,0.7303,0.1578,0.3103,0.809
29.007000,1.0080,0.6651,0.4305,1.282
29.008000,1.2552,0.9274,0.5939,1.670
29.009000,1.2016,0.8207,0.7548,1.639
29.010000,1.1231,0.6946,0.9756,1.642
29.011000,1.2930,0.8122,1.1988,1.941
29.012000,1.7845,1.1280,1.0847,2.373
29.012000,1.9268,1.3621,1.0377,2.578
29.016000,1.8848,1.3904,1.0289,2.558
29.020000,1.8504,1.4314,0.9168,2.513
29.025000,1.7477,1.5361,0.8588,2.480
29.031000,1.5769,1.6646,0.8758,2.455
29.035000,1.3240,1.7597,1.0870,2.456
29.041000,1.0751,1.9268,1.3727,2.599
29.116000,0.8226,2.1319,1.5704,2.773
29.117000,0.4822,2.1452,1.8883,2.898
29.118000,0.0854,2.0959,2.3719,3.166
29.119000,0.0071,2.1866,2.6172,3.410
29.120000,-0.0236,2.1496,2.7106,3.460
29.120000,-0.1122,2.0518,2.8102,3.481
29.121000,-0.1493,2.0150,2.9902,3.609
29.122000,-0.0654,1.9988,3.0926,3.683
29.123000,-0.0470,1.8858,3.2442,3.753
29.123000,0.0373,1.7688,3.4550,3.882
29.124000,0.0871,1.7006,3.8277,4.189
29.124000,0.1939,1.6587,4.2024,4.522
29.125000,0.3193,1.6665,4.5914,4.895
29.125000,0.4472,1.6802,4.9211,5.219
29.126000,0.5393,1.6056,5.2615,5.527
29.126000,0.5602,1.5090,5.6752,5.899
29.127000,0.6067,1.5356,5.7633,5.995
29.131000,0.5277,1.5195,5.7155,5.938
29.134000,0.3046,1.4463,5.4339,5.631
29.140000,-0.0595,1.3836,4.9114,5.103
29.147000,-0.4760,1.3415,4.3632,4.589
29.150000,-0.8516,1.2947,3.9056,4.202
29.155000,-1.1367,1.2605,3.4404,3.836
29.236000,-1.3510,1.1723,3.0818,3.563
29.238000,-1.4163,1.1524,2.7963,3.340
29.239000,-1.4309,1.1246,2.3228,2.951
29.240000,-1.4624,1.0155,1.7878,2.523
29.241000,-1.4156,0.8741,1.2336,2.071
29.242000,-1.3008,0.7777,0.7315,1.683
29.242000,-1.0803,0.6268,0.4219,1.318
29.243000,-0.7453,0.4838,0.2852,0.933
29.245000,-0.4777,0.3562,0.1057,0.605
29.246000,-0.3249,0.2298,0.0676,0.404
29.247000,-0.1960,-0.0174,0.2687,0.333
29.247000,-0.0909,-0.1517,0.5419,0.570
29.249000,0.0764,-0.2340,0.8041,0.841
29.249000,0.2035,-0.4226,0.8690,0.988
29.250000,0.3725,-0.6006,0.9333,1.171
29.250000,0.4959,-0.7202,0.9970,1.326
29.252000,0.6370,-0.7363,1.0581,1.438
29.254000,0.6459,-0.8408,1.2459,1.636
29.255000,0.4730,-1.0225,1.5178,1.890
29.255000,0.3483,-1.0185,1.6515,1.971
29.263000,0.1935,-0.9752,1.7502,2.013
29.265000,-0.0969,-1.0222,1.7256,2.008
29.269000,-0.4542,-1.2121,1.6594,2.105
29.274000,-0.6922,-1.2865,1.5873,2.157
29.280000,-0.8072,-1.2553,1.3278,1.998
29.284000,-0.9481,-1.2522,0.9622,1.842
29.289000,-1.0436,-1.2552,0.6336,1.751
29.375000,-1.1367,-1.2710,0.3563,1.742
29.375000,-1.1560,-1.2565,0.0534,1.708
29.376000,-1.0950,-1.2306,-0.4161,1.699
29.377000,-1.0206,-1.2671,-0.8276,1.825
29.378000,-0.9760,-1.3220,-1.1171,1.987
29.378000,-0.8913,-1.3520,-1.4666,2.185
29.379000,-0.8197,-1.3426,-1.7757,2.372
29.380000,-0.8477,-1.3465,-1.8486,2.439
29.380000,-0.9532,-1.4903,-1.9986,2.669
29.381000,-0.8985,-1.4889,-2.1326,2.752
29.383000,-0.7433,-1.4049,-2.2506,2.755
29.384000,-0.7370,-1.3888,-2.4769,2.934
29.385000,-0.8219,-1.4286,-2.7494,3.206
29.386000,-0.8831,-1.4350,-3.0206,3.459
29.387000,-0.8250,-1.4411,-3.1854,3.592
29.388000,-0.7775,-1.4921,-3.2754,3.682
29.389000,-0.7361,-1.5474,-3.1924,3.623
29.389000,-0.6081,-1.5622,-3.0201,3.454
29.390000,-0.5011,-1.6255,-2.7557,3.238
29.391000,-0.4459,-1.6901,-2.4420,3.003
29.397000,-0.3969,-1.7354,-2.1670,2.804
29.399000,-0.3806,-1.7642,-1.8443,2.580
29.404000,-0.3538,-1.7441,-1.5475,2.358
29.407000,-0.2828,-1.7400,-1.2189,2.143
29.413000,-0.1672,-1.7530,-0.9059,1.980
29.417000,-0.0042,-1.7597,-0.7276,1.904
29.421000,0.1397,-1.7295,-0.5640,1.824
29.488000,0.2603,-1.6916,-0.5775,1.806
29.491000,0.3248,-1.6460,-0.5430,1.763
29.492000,0.4913,-1.6166,-0.6495,1.810
29.493000,0.7265,-1.5268,-0.9592,1.944
29.493000,0.8700,-1.4714,-1.3047,2.150
29.495000,0.9294,-1.3997,-1.6458,2.352
29.496000,0.8853,-1.2824,-2.0520,2.577
29.497000,0.7784,-1.2024,-2.3804,2.778
29.497000,0.6563,-1.1209,-2.7413,3.033
29.498000,0.6545,-1.0061,-3.1303,3.353
29.499000,0.7536,-0.8811,-3.1869,3.391
29.499000,0.7288,-0.7550,-3.1557,3.326
29.500000,0.6182,-0.6661,-3.1251,3.255
29.500000,0.5410,-0.5496,-3.0954,3.190
29.501000,0.4935,-0.4436,-3.0165,3.089
29.502000,0.4006,-0.3647,-2.8527,2.904
29.507000,0.3794,-0.3156,-2.6470,2.693
29.543000,0.2976,-0.2201,-2.3705,2.399
29.544000,0.2537,-0.1241,-2.1140,2.133
29.544000,0.1424,-0.0446,-1.7816,1.788
29.545000,0.1101,0.0372,-1.5907,1.595
29.545000,0.0719,0.0564,-1.4573,1.460
29.545000,-0.0050,0.1347,-1.2352,1.242
29.546000,-0.1195,0.1762,-1.1299,1.150
29.546000,-0.1375,0.2456,-0.9883,1.028
29.552000,-0.0153,0.2641,-0.9901,1.025
29.556000,0.1228,0.3039,-1.1111,1.158
29.561000,0.2186,0.3361,-0.9998,1.077
29.566000,0.1985,0.3611,-0.9149,1.003
29.572000,0.2034,0.4079,-0.7680,0.893
29.579000,0.1686,0.4832,-0.5041,0.718
29.582000,0.0152,0.5704,-0.4414,0.721
29.585000,0.0017,0.7247,-0.4099,0.833
29.590000,0.0153,0.8099,-0.3788,0.894
29.656000,-0.0924,0.7618,-0.3313,0.836
29.658000,-0.1423,0.8223,-0.2581,0.874
29.658000,-0.2521,0.8906,-0.1449,0.937
29.658000,-0.3788,0.9764,-0.0801,1.050
29.659000,-0.5442,1.0175,0.0318,1.154
29.659000,-0.6760,1.0883,0.2219,1.300
29.660000,-0.8388,1.1289,0.1935,1.420
29.660000,-1.1312,1.1230,0.2768,1.618
29.661000,-1.2281,1.1473,0.3446,1.716
29.661000,-1.3642,1.1659,0.3420,1.827
29.662000,-1.4557,1.1551,0.4604,1.914
29.662000,-1.3188,1.2417,0.6564,1.927
29.662000,-1.1928,1.2411,0.9159,1.950
29.663000,-1.0580,1.2512,1.2389,2.054
29.666000,-0.9145,1.2909,1.5348,2.204
29.671000,-0.7452,1.2901,1.8133,2.347
29.675000,-0.4808,1.3180,1.9936,2.438
29.680000,-0.2070,1.3504,2.1044,2.509
29.685000,0.0309,1.3825,2.2513,2.642
29.690000,0.1979,1.4495,2.3506,2.769
29.695000,0.2375,1.5156,2.4648,2.903
29.700000,0.2078,1.5663,2.5745,3.021
29.705000,0.1792,1.6088,2.5652,3.033
29.759000,0.0991,1.6287,2.5015,2.987
29.760000,0.0130,1.6550,2.3020,2.835
29.760000,-0.0908,1.7122,2.2199,2.805
29.760000,-0.4294,1.7651,1.9631,2.675
29.761000,-0.7499,1.7811,1.6459,2.538
29.761000,-0.8615,1.7618,1.4541,2.441
29.761000,-0.8205,1.6386,1.4229,2.320
29.761000,-0.7455,1.4625,1.4658,2.201
29.762000,-0.6805,1.3509,1.6088,2.208
29.762000,-0.5792,1.2462,1.8808,2.329
29.762000,-0.4354,0.9973,2.1526,2.412
29.764000,-0.3971,0.7000,2.6203,2.741
29.770000,-1.7178,-0.2840,6.6665,6.890
29.776000,-2.7028,-0.8118,13.4950,13.787
29.780000,0.5571,0.7674,9.5055,9.553
29.786000,0.7918,0.5330,6.9089,6.974
29.791000,1.0623,-0.0908,6.2285,6.319
29.797000,1.9995,-0.1259,5.3233,5.688
29.799000,2.5019,-0.2325,4.2699,4.954
29.804000,2.3230,-0.4494,3.9975,4.645
29.875000,1.7826,-0.4634,3.9435,4.352
29.876000,1.0755,-0.5684,3.7499,3.942
29.876000,0.5039,-0.6546,3.4098,3.508
29.877000,0.1453,-0.6863,2.9571,3.039
29.877000,-0.0947,-0.7014,2.7073,2.798
29.877000,-0.2288,-0.6999,2.5262,2.631
29.878000,-0.4079,-0.7343,2.0742,2.238
29.879000,-0.5529,-0.7516,1.5235,1.786
29.879000,-0.6207,-0.7127,0.9503,1.340
29.879000,-0.5556,-0.7296,0.3258,0.973
29.879000,-0.3917,-0.7657,-0.3098,0.914
29.880000,-0.0177,-0.8080,-0.7130,1.078
29.880000,0.4138,-0.8324,-0.9035,1.296
29.880000,0.6701,-0.8839,-1.0301,1.514
29.881000,0.7164,-0.9581,-1.1666,1.671
29.885000,0.8341,-0.9928,-1.2799,1.822
29.889000,0.9864,-1.0067,-1.4417,2.016
29.893000,1.0492,-1.0191,-1.5565,2.136
29.898000,0.8960,-1.0916,-1.6652,2.183
29.903000,0.6835,-1.1621,-1.6961,2.167
29.912000,0.5506,-1.1494,-1.6706,2.101
29.914000,0.4807,-1.1569,-1.7775,2.175
29.918000,0.4621,-1.1534,-1.9115,2.280
29.923000,0.4550,-1.2678,-1.8765,2.310
29.983000,0.3289,-1.3783,-2.0480,2.490
29.984000,0.2177,-1.3726,-2.2655,2.658
29.985000,0.0569,-1.3154,-2.3638,2.706
29.985000,-0.2199,-1.3885,-2.4939,2.863
29.985000,-0.4426,-1.4028,-2.6341,3.017
29.985000,-0.5275,-1.3630,-2.7367,3.103
29.986000,-0.6646,-1.4032,-2.7682,3.174
29.986000,-0.7229,-1.3803,-2.9580,3.343
29.986000,-0.6771,-1.3446,-2.9927,3.350
29.987000,-0.6589,-1.3492,-3.0060,3.360
29.987000,-0.6826,-1.3246,-3.1677,3.501
29.987000,-0.6768,-1.3046,-3.3008,3.613
29.988000,-0.6412,-1.2699,-3.3598,3.649
29.998000,-0.4899,-1.3407,-3.3899,3.678
29.999000,-0.3019,-1.3423,-3.2954,3.571
30.004000,-0.1464,-1.3349,-3.1362,3.412
30.008000,0.0344,-1.3379,-2.9815,3.268
30.013000,0.1714,-1.2824,-2.8238,3.106
30.017000,0.2531,-1.2283,-2.7302,3.004
30.022000,0.2850,-1.2593,-2.5999,2.903
30.086000,0.3059,-1.2199,-2.4021,2.711
30.087000,0.2977,-1.1484,-2.1966,2.496
30.088000,0.4610,-1.4780,-1.7655,2.348
30.089000,1.1779,-1.5971,-1.3383,2.394
30.093000,1.7820,-0.9556,-1.3694,2.442
30.095000,0.7570,-0.9328,-1.9116,2.258
30.096000,0.6665,-1.2858,-1.7522,2.273
30.096000,0.9933,-1.4077,-1.6784,2.405
30.096000,1.2723,-1.3273,-1.7044,2.507
30.097000,1.4128,-1.2285,-1.6775,2.514
30.097000,1.4194,-1.1849,-1.7175,2.524
30.097000,1.3611,-1.1844,-1.7694,2.527
30.098000,1.3658,-1.1837,-1.7018,2.483
30.098000,1.3066,-1.1471,-1.7539,2.470
30.099000,0.8925,-1.1031,-1.7941,2.287
30.102000,0.6745,-0.9247,-1.6624,2.018
30.107000,0.4345,-0.7796,-1.5622,1.799
30.118000,0.2399,-0.7034,-1.4290,1.611
30.119000,0.2536,-0.6506,-1.1529,1.348
30.121000,0.3630,-0.6237,-0.7482,1.040
30.196000,0.4725,-0.5846,-0.5522,0.933
30.196000,0.5559,-0.5288,-0.4091,0.869
30.197000,0.5938,-0.3894,-0.1537,0.727
30.199000,0.5358,-0.2768,-0.1065,0.612
30.199000,0.3845,-0.1716,0.0052,0.421
30.201000,0.2954,-0.0929,0.1288,0.335
30.202000,0.2211,0.0859,0.2165,0.321
30.202000,0.1757,0.1546,0.2730,0.360
30.203000,0.0997,0.2662,0.3700,0.467
30.207000,0.0360,0.3636,0.4166,0.554
30.207000,0.0133,0.5187,0.5418,0.750
30.208000,0.0533,0.6049,0.6186,0.867
30.209000,0.1603,0.6701,0.5874,0.905
30.211000,0.2863,0.7146,0.7279,1.059
30.214000,0.3240,0.7842,0.8723,1.217
30.215000,0.1991,0.7972,1.0400,1.325
30.215000,0.2007,0.8706,1.2094,1.504
30.216000,0.2473,0.8992,1.4021,1.684
30.216000,0.2387,0.9071,1.4889,1.760
30.222000,0.1985,0.8633,1.5726,1.805
30.235000,0.2006,0.8993,1.6773,1.914
30.237000,0.1709,0.9981,1.8006,2.066
30.238000,0.0499,1.0257,2.0022,2.250
30.240000,-0.0450,1.0347,2.2153,2.445
30.286000,-0.1539,0.9914,2.4494,2.647
30.287000,-0.2836,1.0247,2.6187,2.826
30.287000,-0.2329,1.1199,2.7043,2.936
30.287000,-0.1643,1.1671,2.8257,3.062
30.288000,-0.2736,1.1493,2.9950,3.220
30.288000,-0.4243,1.1739,2.8250,3.088
30.288000,-0.4972,1.1501,2.7009,2.977
30.289000,-0.5207,1.1093,2.6729,2.940
30.289000,-0.5997,1.0755,2.5495,2.831
30.290000,-0.8017,1.0727,2.3307,2.688
30.296000,-0.9430,1.0389,2.0644,2.496
30.301000,-1.0536,0.9910,1.8199,2.325
30.306000,-1.1146,0.9366,1.6278,2.184
30.311000,-1.1050,0.8857,1.3637,1.966
30.315000,-1.1116,0.9056,1.0776,1.794
30.320000,-1.0725,0.9317,0.8795,1.671
30.325000,-1.0094,0.8975,0.8144,1.577
30.384000,-0.9959,0.8225,0.9108,1.580
30.384000,-0.9743,0.6754,1.0538,1.586
30.385000,-0.8774,0.6092,1.3630,1.732
30.385000,-0.6881,0.5519,1.7977,2.002
30.385000,-0.5183,0.5003,2.1932,2.309
30.386000,-0.4205,0.4017,2.7338,2.795
30.386000,-0.3178,0.2692,3.2860,3.312
30.386000,-0.1886,0.2285,3.5778,3.590
30.386000,-0.0665,0.1622,3.8272,3.831
30.386000,-0.0157,0.0600,3.9580,3.959
30.387000,0.0169,-0.0829,3.9705,3.971
30.387000,0.0214,-0.1829,3.8602,3.865
30.390000,0.0434,-0.2309,3.6655,3.673
30.395000,0.0114,-0.2962,3.3387,3.352
30.399000,-0.0631,-0.4360,2.8441,2.878
30.404000,-0.1177,-0.5448,2.3849,2.449
30.412000,-0.3359,-0.6629,1.9203,2.059
30.414000,-0.4621,-0.7993,1.4645,1.731
30.419000,-0.4653,-0.8508,0.9812,1.380
30.425000,-0.4582,-0.8960,0.4513,1.103
30.478000,-0.4823,-1.0107,-0.0827,1.123
30.479000,-0.5925,-1.0865,-0.5588,1.358
30.479000,-0.7698,-1.1395,-0.8867,1.636
30.479000,-0.8734,-1.1527,-1.0739,1.801
30.480000,-1.0281,-1.1714,-1.2068,1.971
30.480000,-1.0951,-1.1857,-1.2855,2.063
30.480000,-1.0363,-1.1956,-1.2720,2.030
30.480000,-1.0190,-1.2273,-1.1926,1.992
30.480000,-0.9838,-1.2620,-1.1454,1.968
30.481000,-0.8924,-1.2692,-1.0440,1.870
30.481000,-0.7373,-1.2609,-1.0054,1.773
30.484000,-0.6472,-1.2705,-0.9317,1.703
30.489000,-0.6050,-1.2580,-0.8990,1.660
30.494000,-0.5800,-1.2667,-0.9047,1.661
30.499000,-0.5558,-1.2536,-0.7289,1.553
30.503000,-0.5630,-1.2671,-0.6728,1.541
30.510000,-0.5521,-1.2736,-0.6023,1.513
30.514000,-0.5229,-1.2926,-0.4551,1.467
30.518000,-0.4631,-1.2506,-0.3865,1.388
30.524000,-0.3893,-1.2529,-0.4440,1.385
30.577000,-0.4163,-1.2446,-0.4291,1.381
30.578000,-0.4551,-1.2117,-0.4539,1.372
30.578000,-0.5438,-1.2187,-0.4971,1.424
30.578000,-0.5506,-1.2348,-0.6373,1.495
30.578000,-0.5545,-1.2001,-0.8481,1.571
30.578000,-0.5772,-1.1551,-1.0864,1.688
30.579000,-0.5303,-1.1140,-1.2712,1.771
30.579000,-0.5435,-1.0886,-1.5985,2.009
30.579000,-0.5289,-1.0905,-1.8915,2.247
30.580000,-0.5846,-1.0882,-2.0404,2.385
30.580000,-0.5360,-1.0623,-2.1006,2.414
30.583000,-0.4142,-1.0319,-2.0745,2.354
30.590000,-0.3222,-1.0257,-2.0937,2.354
30.594000,-0.2286,-0.9980,-2.1010,2.337
30.598000,-0.0950,-0.9849,-2.1081,2.329
30.603000,-0.0264,-0.9573,-2.0317,2.246
30.611000,0.0231,-0.9320,-1.9673,2.177
30.613000,0.0799,-0.8347,-1.9414,2.115
30.617000,0.1155,-0.7492,-1.9037,2.049
30.622000,0.1297,-0.6564,-1.7896,1.911
30.676000,0.1083,-0.6472,-1.6710,1.795
30.676000,0.0686,-0.6188,-1.6218,1.737
30.677000,0.0347,-0.5999,-1.6348,1.742
30.677000,0.0136,-0.5116,-1.7340,1.808
30.677000,-0.0167,-0.4375,-1.7685,1.822
30.678000,-0.0824,-0.3823,-1.7601,1.803
30.678000,-0.1595,-0.3531,-1.6706,1.715
30.678000,-0.2405,-0.3333,-1.5765,1.629
30.678000,-0.2823,-0.3203,-1.5543,1.612
30.678000,-0.2972,-0.2496,-1.5396,1.588
30.679000,-0.3642,-0.1927,-1.5467,1.601
30.683000,-0.3996,-0.1304,-1.5206,1.578
30.688000,-0.4038,-0.0912,-1.5357,1.591
30.693000,-0.4174,-0.1110,-1.6182,1.675
30.697000,-0.4459,-0.1011,-1.5289,1.596
30.704000,-0.4152,-0.0662,-1.3447,1.409
30.708000,-0.4210,-0.0520,-1.2473,1.317
30.714000,-0.4416,-0.0608,-1.1530,1.236
30.717000,-0.4487,-0.0784,-0.9300,1.036
30.722000,-0.4376,-0.0763,-0.7460,0.868
30.729000,-0.4368,-0.0523,-0.4715,0.645
30.733000,-0.4342,-0.0355,-0.0922,0.445
30.737000,-0.4244,-0.0213,0.1720,0.458
30.805000,-0.3907,-0.0147,0.3260,0.509
30.806000,-0.3574,0.0153,0.5088,0.622
30.806000,-0.3959,0.0160,0.6391,0.752
30.806000,-0.4322,0.0471,0.7409,0.859
30.807000,-0.5092,0.0559,0.9219,1.055
30.807000,-0.5381,0.1118,1.0265,1.164
30.807000,-0.5594,0.1955,1.0764,1.229
30.807000,-0.5951,0.2090,1.0765,1.248
30.808000,-0.5803,0.2435,1.0817,1.251
30.808000,-0.6372,0.2705,1.1085,1.307
30.808000,-0.6558,0.2830,1.0683,1.285
30.808000,-0.6121,0.2980,1.1932,1.374
30.809000,-0.5326,0.2987,1.2366,1.379
30.809000,-0.4393,0.3498,1.2822,1.400
30.814000,-0.3399,0.3792,1.4856,1.570
30.817000,-0.3348,0.3558,1.7031,1.772
30.822000,-0.1886,0.3726,1.7963,1.844
30.826000,-0.1652,0.4821,1.7630,1.835
30.831000,-0.2045,0.4830,1.8305,1.904
30.836000,-0.2933,0.3612,1.9726,2.027
30.844000,-0.2464,0.2918,2.0453,2.081
30.847000,-0.2309,0.2129,2.1827,2.205
30.851000,-0.2801,0.2127,2.4229,2.448
30.856000,-0.2886,0.1981,2.4811,2.506
30.916000,-0.2303,0.1621,2.5250,2.541
30.917000,-0.1513,0.1554,2.6498,2.659
30.917000,-0.0427,0.1684,2.6666,2.672
30.917000,0.0091,0.1822,2.5730,2.579
30.918000,0.0629,0.2237,2.3759,2.387
30.918000,0.0363,0.2694,2.1206,2.138
30.918000,0.0167,0.3054,1.9575,1.981
30.918000,-0.0010,0.3104,2.0921,2.115
30.919000,0.0333,0.3582,2.2372,2.266
30.919000,0.1055,0.3049,2.4457,2.467
30.919000,0.1468,0.2360,2.6748,2.689
30.919000,0.1963,0.1511,2.8387,2.849
30.921000,0.2600,0.0258,3.0836,3.095
30.926000,0.3095,-0.0588,3.2829,3.298
30.931000,0.4341,-0.1920,3.4585,3.491
30.937000,0.4669,-0.3261,3.5939,3.639
30.941000,0.4851,-0.4662,3.5864,3.649
30.945000,0.5222,-0.6530,3.5559,3.653
30.950000,0.5581,-0.7954,3.4782,3.611
30.955000,0.5467,-0.9414,3.4087,3.578
31.022000,0.5567,-1.0695,3.3494,3.560
31.024000,0.5493,-1.1604,3.2551,3.499
31.024000,0.5601,-1.2720,3.1593,3.452
31.025000,0.6630,-1.3685,3.1005,3.453
31.025000,0.7597,-1.4767,3.0764,3.496
31.025000,0.7930,-1.5374,3.0131,3.474
31.026000,0.7661,-1.5389,2.8464,3.325
31.026000,0.6799,-1.5866,2.5334,3.066
31.027000,0.6372,-1.6040,2.0910,2.711
31.027000,0.5968,-1.6267,1.5432,2.320
31.027000,0.5664,-1.6637,1.0644,2.055
31.027000,0.5338,-1.6616,0.6757,1.872
31.028000,0.5827,-1.6350,0.3722,1.775
31.028000,0.6534,-1.5974,0.1701,1.734
31.030000,0.7681,-1.6202,-0.0838,1.795
31.035000,0.8049,-1.5734,-0.2250,1.782
31.039000,0.8614,-1.5030,-0.4662,1.794
31.046000,0.9571,-1.5205,-0.7839,1.960
31.050000,0.9626,-1.4934,-1.0349,2.056
31.055000,0.9233,-1.4958,-1.2889,2.180
31.062000,0.9419,-1.4388,-1.3954,2.215
31.065000,0.9726,-1.4130,-1.4886,2.271
31.070000,1.0271,-1.4542,-1.5544,2.363
31.074000,1.0531,-1.4902,-1.5237,2.377
31.143000,1.0410,-1.5523,-1.5111,2.404
31.144000,0.9838,-1.5498,-1.4737,2.354
31.144000,0.8988,-1.6097,-1.3372,2.278
31.145000,0.7882,-1.6319,-1.2497,2.201
31.145000,0.6093,-1.6072,-1.1202,2.052
31.145000,0.4578,-1.5743,-0.9340,1.887
31.146000,0.3243,-1.5956,-0.8658,1.844
31.146000,0.1944,-1.6307,-1.1039,1.979
31.146000,-0.0047,-1.6198,-1.2584,2.051
31.146000,-0.2496,-1.6441,-0.9445,1.912
31.147000,-0.3965,-1.6636,-0.5089,1.784
31.147000,-0.4135,-1.5854,-0.1789,1.648
31.147000,-0.3526,-1.5894,-0.1693,1.637
31.147000,-0.2827,-1.6010,-0.3482,1.663
31.150000,-0.3395,-1.6678,-0.5817,1.799
31.155000,-0.3118,-1.6863,-0.8390,1.909
31.160000,-0.3241,-1.6417,-1.7373,2.412
31.164000,-0.7354,-1.4549,-3.5834,3.937
31.168000,-1.0016,-1.1734,-1.7590,2.340
31.183000,-1.0166,-1.3934,-0.1680,1.733
31.184000,-1.1452,-1.5605,-0.3974,1.976
31.184000,-0.6678,-1.5017,-0.4297,1.699
31.189000,-0.3883,-1.4794,-0.4665,1.599
31.272000,-0.6332,-1.5454,-0.7139,1.816
31.272000,-0.8959,-1.5770,-0.6315,1.921
31.273000,-0.9764,-1.5320,-0.1096,1.820
31.273000,-0.8145,-1.4685,0.4335,1.734
31.273000,-0.4517,-1.5016,0.5650,1.667
31.273000,-0.1111,-1.5640,0.2927,1.595
31.274000,0.0294,-1.5403,0.0829,1.543
31.274000,-0.0499,-1.4953,-0.1527,1.504
31.274000,-0.2421,-1.3426,-0.3356,1.405
31.274000,0.2745,-1.3663,-0.1337,1.400
31.274000,0.3121,-1.4944,0.0508,1.528
31.275000,0.3640,-1.4355,0.1439,1.488
31.275000,0.5353,-1.4004,0.2536,1.521
31.275000,0.5819,-1.3486,0.3320,1.506
31.275000,0.6651,-1.2828,0.4273,1.507
31.276000,0.7994,-1.1936,0.5658,1.544
31.276000,0.8705,-1.1144,0.6374,1.551
31.279000,0.8642,-1.0718,0.5324,1.476
31.283000,0.8588,-1.0484,0.3893,1.410
31.289000,0.7681,-0.9700,0.3659,1.290
31.294000,0.6035,-0.9179,0.4716,1.195
