time,ax,ay,az,aT
5.619000,1.7153,-2.7385,2.1080,3.858
5.621000,1.7363,-2.8024,2.3410,4.043
5.621000,1.7716,-2.8431,2.5715,4.223
5.622000,1.7611,-2.9083,2.7900,4.398
5.622000,1.7555,-2.9099,2.9583,4.506
5.623000,1.7811,-2.9528,3.2389,4.731
5.625000,1.7902,-3.0376,3.5193,4.982
5.625000,1.8375,-3.1329,3.7948,5.253
5.630000,1.8075,-3.2417,3.9699,5.435
5.634000,1.6565,-3.4528,4.1743,5.665
5.640000,1.3994,-3.6415,4.3598,5.850
5.645000,1.1299,-3.7917,4.3351,5.869
5.650000,0.8625,-3.8723,4.4351,5.951
5.656000,0.6820,-3.9812,4.3890,5.965
5.660000,0.5093,-4.0540,4.1995,5.859
5.665000,0.4089,-4.0638,3.9385,5.674
5.669000,0.3568,-3.9505,3.6134,5.366
5.674000,0.3261,-3.7405,3.2986,4.998
5.680000,0.2564,-3.5142,3.0208,4.641
5.684000,0.1811,-3.2479,2.7824,4.281
5.697000,0.0787,-2.9845,2.6002,3.959
5.699000,0.0088,-2.6982,2.4765,3.662
5.700000,-0.0307,-2.3396,2.3009,3.282
5.706000,-0.0304,-1.9042,2.1167,2.847
5.744000,-0.0359,-1.4843,1.9906,2.483
5.746000,-0.0592,-1.1399,1.7670,2.104
5.747000,-0.1553,-0.8791,1.5296,1.771
5.747000,-0.2647,-0.6259,1.2402,1.414
5.747000,-0.3660,-0.4520,0.9370,1.103
5.748000,-0.4757,-0.2648,0.6869,0.876
5.748000,-0.5912,-0.2007,0.4178,0.751
5.748000,-0.7028,-0.1997,0.0939,0.737
5.749000,-0.8265,-0.2856,-0.1536,0.888
5.757000,-0.9401,-0.3932,-0.4420,1.111
5.758000,-0.9764,-0.4838,-0.7524,1.324
5.764000,-1.0357,-0.5879,-1.1013,1.622
5.769000,-1.1014,-0.7360,-1.4215,1.943
5.774000,-1.1252,-0.8509,-1.6774,2.192
5.779000,-1.1407,-0.8937,-1.9023,2.391
5.784000,-1.2115,-0.9262,-2.0606,2.563
5.796000,-1.2966,-0.9358,-2.2146,2.732
5.798000,-1.3405,-0.8743,-2.2521,2.763
5.799000,-1.3884,-0.7679,-2.2593,2.761
5.803000,-1.4450,-0.6356,-2.1311,2.652
5.826000,-1.5706,-0.4895,-1.9247,2.532
5.826000,-1.7437,-0.3157,-1.7049,2.459
5.827000,-1.8927,-0.1696,-1.3760,2.346
5.828000,-2.0279,-0.0278,-1.0074,2.264
5.828000,-2.1201,0.1498,-0.6113,2.212
5.834000,-2.1814,0.2597,-0.2716,2.213
5.838000,-2.2625,0.3800,-0.0074,2.294
5.842000,-2.2782,0.5295,0.2272,2.350
5.847000,-2.2938,0.5854,0.4251,2.405
5.853000,-2.3383,0.6246,0.4119,2.455
5.857000,-2.2756,0.6419,0.4127,2.400
5.862000,-2.2639,0.6948,0.3701,2.397
5.868000,-2.1977,0.7092,0.2674,2.325
5.876000,-2.1256,0.6757,0.1743,2.237
5.877000,-2.0766,0.6016,0.0072,2.162
5.883000,-1.9502,0.5063,-0.1572,2.021
5.888000,-1.8018,0.4498,-0.2829,1.878
5.893000,-1.6768,0.3822,-0.4823,1.786
5.897000,-1.5709,0.2846,-0.6689,1.731
5.903000,-1.4741,0.2458,-0.8501,1.719
5.907000,-1.3236,0.2064,-1.0882,1.726
5.913000,-1.1673,0.2287,-1.3089,1.769
5.917000,-0.9379,0.2361,-1.5411,1.819
5.928000,-0.7383,0.2745,-1.7656,1.933
5.929000,-0.5732,0.3057,-2.0252,2.127
5.936000,-0.3709,0.3419,-2.1169,2.176
5.938000,-0.1836,0.3545,-2.1770,2.213
5.972000,-0.0710,0.4582,-2.2297,2.277
5.973000,0.0384,0.5235,-2.3634,2.421
5.974000,0.1373,0.5339,-2.5157,2.575
5.974000,0.2043,0.5920,-2.6007,2.675
5.975000,0.2680,0.6022,-2.7187,2.797
5.975000,0.3500,0.6123,-2.8626,2.948
5.975000,0.3621,0.6536,-2.9654,3.058
5.978000,0.4312,0.6762,-3.0296,3.134
5.982000,0.4950,0.7133,-3.1198,3.238
5.988000,0.5515,0.7937,-3.2313,3.373
5.992000,0.5786,0.8485,-3.3064,3.462
5.996000,0.5526,0.8655,-3.4050,3.556
6.002000,0.5693,0.8809,-3.4793,3.634
6.007000,0.5641,0.8899,-3.5316,3.685
6.012000,0.5352,0.8712,-3.4689,3.616
6.016000,0.5689,0.8749,-3.3058,3.467
6.027000,0.5888,0.9440,-3.2123,3.399
6.028000,0.6091,0.9683,-3.1524,3.354
6.032000,0.5124,0.9525,-3.1236,3.306
6.036000,0.4495,0.9492,-3.0948,3.268
6.072000,0.3323,0.9630,-3.0876,3.251
6.074000,0.2780,0.9178,-3.0567,3.204
6.076000,0.2098,0.8830,-3.0113,3.145
6.076000,0.1369,0.8755,-2.9491,3.079
6.076000,0.0572,0.7997,-2.8367,2.948
6.077000,-0.0650,0.7369,-2.7458,2.844
6.077000,-0.1724,0.7042,-2.6668,2.764
6.079000,-0.2507,0.6559,-2.5304,2.626
6.081000,-0.2113,0.6376,-2.1955,2.296
6.087000,-0.1085,0.7184,-1.7561,1.900
6.091000,-0.0358,0.8449,-1.4898,1.713
6.097000,0.0090,0.8804,-1.2838,1.557
6.101000,-0.0178,0.9057,-1.1166,1.438
6.106000,-0.0160,0.8756,-0.9784,1.313
6.111000,-0.0740,0.8211,-0.9743,1.276
6.117000,-0.1415,0.7832,-0.9965,1.275
6.121000,-0.2042,0.7433,-1.0258,1.283
6.126000,-0.2361,0.7566,-1.1122,1.366
6.131000,-0.2829,0.7540,-1.0617,1.333
6.136000,-0.3280,0.7503,-0.9772,1.275
6.145000,-0.3239,0.7404,-0.8323,1.160
6.147000,-0.3731,0.7460,-0.6823,1.078
6.150000,-0.3991,0.7454,-0.4841,0.974
6.182000,-0.4422,0.8171,-0.2165,0.954
6.183000,-0.4640,0.9177,-0.0280,1.029
6.184000,-0.4502,0.9770,0.1364,1.084
6.185000,-0.4560,1.0071,0.2146,1.126
6.185000,-0.5005,0.9695,0.2736,1.125
6.186000,-0.5141,0.9862,0.3134,1.155
6.186000,-0.5183,0.9738,0.3506,1.157
6.192000,-0.5345,0.8963,0.3615,1.104
6.195000,-0.5821,0.8546,0.4226,1.117
6.200000,-0.6009,0.8345,0.4478,1.122
6.205000,-0.5909,0.8121,0.4992,1.122
6.210000,-0.4994,0.8303,0.6175,1.149
6.215000,-0.4147,0.8675,0.6565,1.164
6.221000,-0.2965,0.8689,0.6644,1.133
6.225000,-0.1519,0.8247,0.6984,1.091
6.231000,-0.0119,0.7952,0.7324,1.081
6.236000,0.1881,0.7854,0.7831,1.125
6.241000,0.3955,0.7906,0.8169,1.204
6.245000,0.5743,0.8016,0.8054,1.273
6.250000,0.8338,0.8255,0.8256,1.435
6.263000,1.0379,0.8961,0.9919,1.692
6.264000,1.2390,0.9127,1.1967,1.949
6.265000,1.4519,0.9540,1.3872,2.223
6.270000,1.6121,0.9938,1.6805,2.532
6.301000,1.8247,1.0149,1.9736,2.873
6.304000,1.9537,1.0583,2.2282,3.147
6.305000,2.0566,1.0588,2.4992,3.405
6.305000,2.1505,1.0838,2.7794,3.678
6.306000,2.1375,1.1256,3.0877,3.920
6.306000,2.0824,1.0839,3.4217,4.150
6.307000,1.9736,0.9731,3.7979,4.389
6.310000,1.9302,0.9053,4.0849,4.608
6.314000,1.8998,0.8046,4.3284,4.795
6.320000,1.8412,0.7829,4.6072,5.023
6.324000,1.7949,0.7326,4.8593,5.232
6.329000,1.7321,0.6894,5.0394,5.373
6.334000,1.6285,0.6289,5.2431,5.526
6.339000,1.5080,0.5705,5.3772,5.614
6.345000,1.4399,0.5141,5.3702,5.584
6.350000,1.4309,0.5390,5.3706,5.584
6.362000,1.4683,0.5634,5.3619,5.588
6.363000,1.5423,0.5540,5.4184,5.661
6.364000,1.5971,0.5009,5.4779,5.728
6.370000,1.6662,0.4879,5.4831,5.751
6.409000,1.7276,0.4957,5.3433,5.638
6.410000,1.8170,0.5721,5.1545,5.495
6.411000,1.9297,0.7147,4.9501,5.361
6.411000,2.0849,0.9116,4.7015,5.223
6.412000,2.2330,1.1698,4.4730,5.134
6.412000,2.3670,1.4032,4.2335,5.049
6.413000,2.5138,1.6856,3.9946,5.012
6.413000,2.5733,1.9453,3.7419,4.940
6.414000,2.5527,2.1841,3.4991,4.851
6.419000,2.4476,2.3683,3.2756,4.725
6.424000,2.3204,2.5841,2.9756,4.573
6.429000,2.2099,2.7690,2.7425,4.480
6.433000,2.0737,2.9178,2.5709,4.407
6.439000,1.9622,3.0735,2.4774,4.408
6.443000,1.8422,3.1782,2.3253,4.348
6.448000,1.7587,3.2721,2.1217,4.278
6.455000,1.6209,3.2066,1.9122,4.070
6.459000,1.4861,3.1422,1.6537,3.849
6.463000,1.3204,2.9833,1.3943,3.548
6.468000,1.1576,2.7874,1.1722,3.238
6.480000,0.9812,2.5647,0.9109,2.893
6.481000,0.8128,2.3132,0.6632,2.540
6.484000,0.6670,2.1030,0.4126,2.244
6.536000,0.5815,1.9084,0.1259,1.999
6.538000,0.4699,1.7107,-0.1033,1.777
6.539000,0.3920,1.5727,-0.3346,1.655
6.539000,0.2855,1.4512,-0.5344,1.573
6.540000,0.1269,1.3254,-0.6718,1.491
6.540000,-0.0480,1.2093,-0.7587,1.428
6.540000,-0.1953,1.1488,-0.7884,1.407
6.541000,-0.3338,1.0651,-0.8016,1.374
6.541000,-0.4203,0.9865,-0.7460,1.306
6.542000,-0.5383,0.9276,-0.6719,1.266
6.543000,-0.6594,0.8760,-0.6393,1.269
6.543000,-0.7573,0.7910,-0.5976,1.248
6.547000,-0.8509,0.6633,-0.4969,1.188
6.555000,-0.9523,0.5738,-0.4879,1.214
6.558000,-1.0398,0.5179,-0.4725,1.254
6.562000,-1.0734,0.4694,-0.5173,1.281
6.567000,-1.0984,0.4113,-0.4909,1.271
6.575000,-1.0624,0.3823,-0.5557,1.258
6.577000,-1.0565,0.3414,-0.6495,1.286
6.583000,-1.0119,0.2915,-0.7384,1.286
6.597000,-0.9456,0.2925,-0.7840,1.263
6.598000,-0.9271,0.2412,-0.8557,1.285
6.599000,-0.8800,0.2430,-0.9534,1.320
6.603000,-0.8427,0.2092,-1.0173,1.337
6.641000,-0.8413,0.1496,-1.1024,1.395
6.644000,-0.8689,0.1170,-1.1847,1.474
6.644000,-0.8582,0.1111,-1.2715,1.538
6.645000,-0.8520,0.1537,-1.3581,1.611
6.646000,-0.8720,0.1685,-1.4658,1.714
6.647000,-0.9204,0.1599,-1.4969,1.764
6.647000,-0.8845,0.1932,-1.4680,1.725
6.647000,-0.7904,0.2606,-1.3796,1.611
6.648000,-0.6668,0.3525,-1.3154,1.516
6.652000,-0.5590,0.5068,-1.2946,1.498
6.657000,-0.5082,0.6535,-1.3101,1.550
6.662000,-0.4525,0.7231,-1.3734,1.617
6.667000,-0.4348,0.8181,-1.4178,1.694
6.678000,-0.4099,0.8188,-1.5627,1.811
6.680000,-0.4353,0.7992,-1.7075,1.935
6.682000,-0.4535,0.8076,-1.9073,2.120
6.686000,-0.4242,0.7821,-2.0780,2.260
6.714000,-0.3644,0.8160,-2.2577,2.428
6.718000,-0.2696,0.8116,-2.4679,2.612
6.719000,-0.1974,0.8168,-2.5769,2.710
6.720000,-0.1571,0.8412,-2.7069,2.839
6.722000,-0.0699,0.8253,-2.7787,2.900
6.723000,0.0212,0.8141,-2.7354,2.854
6.724000,0.1500,0.7959,-2.6966,2.816
6.726000,0.2688,0.7345,-2.7413,2.851
6.731000,0.3870,0.6707,-2.7284,2.836
6.737000,0.4522,0.6332,-2.8157,2.921
6.741000,0.4623,0.5642,-2.8695,2.961
6.746000,0.5084,0.5096,-2.9112,2.999
6.752000,0.5882,0.4674,-2.8740,2.971
6.757000,0.6545,0.4826,-2.8061,2.922
6.762000,0.7456,0.4599,-2.8078,2.941
6.766000,0.8042,0.4420,-2.7383,2.888
6.772000,0.8209,0.3907,-2.6597,2.811
6.777000,0.8293,0.3063,-2.5410,2.690
6.782000,0.8296,0.2316,-2.4398,2.587
6.786000,0.7596,0.1021,-2.3919,2.512
6.796000,0.7220,-0.0389,-2.2870,2.399
6.798000,0.7143,-0.1723,-2.0654,2.192
6.801000,0.7100,-0.2929,-1.9305,2.078
6.845000,0.7282,-0.4055,-1.7673,1.954
6.846000,0.7519,-0.5245,-1.5590,1.809
6.846000,0.7808,-0.5923,-1.4180,1.724
6.847000,0.7697,-0.6812,-1.2318,1.604
6.847000,0.7636,-0.7573,-1.0219,1.484
6.847000,0.8106,-0.8140,-0.8339,1.420
6.848000,0.8486,-0.8321,-0.6678,1.363
6.848000,0.8800,-0.8069,-0.4781,1.286
6.848000,0.8759,-0.8822,-0.3701,1.297
6.850000,0.8599,-0.9643,-0.2597,1.318
6.856000,0.8006,-1.0464,-0.1684,1.328
6.861000,0.7868,-1.1474,-0.1010,1.395
6.867000,0.7247,-1.1832,0.0144,1.388
6.872000,0.6289,-1.2644,0.1179,1.417
6.880000,0.6114,-1.3116,0.1883,1.459
6.880000,0.5692,-1.3611,0.2996,1.505
6.885000,0.5402,-1.4080,0.4328,1.569
6.890000,0.5887,-1.5000,0.5760,1.711
6.895000,0.5856,-1.6112,0.7579,1.874
6.900000,0.6697,-1.7632,0.9425,2.108
6.915000,0.7520,-1.9009,1.1609,2.351
6.917000,0.7942,-2.0655,1.2674,2.550
6.917000,0.9254,-2.2206,1.3195,2.744
6.961000,1.0401,-2.3282,1.3220,2.872
6.963000,1.1430,-2.4357,1.3301,3.001
6.965000,1.2849,-2.6121,1.3724,3.218
6.965000,1.4541,-2.6921,1.5370,3.424
6.966000,1.6151,-2.8002,1.6684,3.638
6.966000,1.7729,-2.9266,1.7617,3.849
6.966000,1.8822,-3.0328,1.8337,4.013
6.967000,1.9818,-3.1381,1.8912,4.166
6.967000,2.0696,-3.2689,1.8578,4.292
6.968000,2.1864,-3.4342,1.8435,4.469
6.970000,2.2724,-3.5553,1.8651,4.613
6.975000,2.3513,-3.6532,1.9129,4.747
6.980000,2.4233,-3.6775,1.9559,4.819
6.985000,2.5195,-3.7025,1.9916,4.901
6.991000,2.5156,-3.7091,2.0033,4.909
6.995000,2.5168,-3.7979,2.0987,5.016
7.000000,2.4703,-3.9015,2.2562,5.139
7.008000,2.4193,-4.0678,2.3681,5.292
7.009000,2.3500,-4.2970,2.5370,5.516
7.014000,2.2433,-4.4691,2.7032,5.684
7.019000,2.1617,-4.5769,2.8282,5.798
7.054000,2.1619,-4.6969,2.8599,5.909
7.055000,2.1526,-4.8433,2.8772,6.031
7.056000,2.1024,-5.0041,2.9450,6.175
7.056000,2.0232,-5.1340,3.0705,6.315
7.057000,1.9347,-5.2541,3.0669,6.384
7.057000,1.8125,-5.3573,3.0707,6.435
7.058000,1.7045,-5.3861,3.1299,6.459
7.059000,1.5676,-5.3716,3.1871,6.440
7.064000,1.4327,-5.3018,3.1013,6.307
7.069000,1.2562,-5.1508,3.0379,6.110
7.075000,1.1048,-4.8923,3.0471,5.869
7.079000,0.9619,-4.5679,3.0738,5.589
7.084000,0.8730,-4.1707,2.9243,5.168
7.089000,0.8094,-3.7663,2.7876,4.755
7.093000,0.7107,-3.3703,2.5944,4.312
7.099000,0.6583,-3.0260,2.3543,3.890
7.105000,0.5233,-2.7365,1.9953,3.427
7.108000,0.3845,-2.4807,1.6253,2.991
7.114000,0.1933,-2.2654,1.1609,2.553
7.118000,-0.0095,-2.0285,0.7529,2.164
7.127000,-0.2528,-1.8150,0.3654,1.869
7.129000,-0.4883,-1.5986,-0.0281,1.672
7.135000,-0.7279,-1.5010,-0.3367,1.702
7.172000,-0.8941,-1.3759,-0.6087,1.750
7.173000,-0.9575,-1.3382,-0.8420,1.848
7.174000,-0.9752,-1.2798,-1.0584,1.926
7.175000,-0.9465,-1.1838,-1.3681,2.042
7.175000,-0.8374,-1.1239,-1.5751,2.108
7.176000,-0.7748,-1.0423,-1.7825,2.205
7.176000,-0.7340,-0.9510,-1.9879,2.323
7.177000,-0.7532,-0.8494,-2.1413,2.424
7.178000,-0.8007,-0.7042,-2.2548,2.494
7.183000,-0.9168,-0.5632,-2.3167,2.554
7.190000,-1.1441,-0.4334,-2.2675,2.576
7.193000,-1.4153,-0.3153,-2.1360,2.582
7.198000,-1.7162,-0.2589,-2.0204,2.664
7.204000,-2.0372,-0.1951,-1.8203,2.739
7.209000,-2.2544,-0.0768,-1.6672,2.805
7.212000,-2.4951,-0.0068,-1.5464,2.935
7.217000,-2.8127,0.0023,-1.4195,3.151
7.253000,-3.1834,-0.0228,-1.3030,3.440
7.254000,-3.5573,-0.1016,-1.1920,3.753
7.255000,-3.9014,-0.1765,-1.1844,4.081
7.256000,-4.0799,-0.2379,-1.2033,4.260
7.258000,-4.2225,-0.3310,-1.2365,4.412
7.259000,-4.2453,-0.4028,-1.2650,4.448
7.261000,-4.2397,-0.4558,-1.2861,4.454
7.261000,-4.1916,-0.5496,-1.3428,4.436
7.262000,-4.0437,-0.6575,-1.3919,4.327
7.268000,-3.8393,-0.7290,-1.4358,4.163
7.273000,-3.6075,-0.7305,-1.4815,3.968
7.277000,-3.3552,-0.7096,-1.5672,3.771
7.282000,-3.1163,-0.6399,-1.5923,3.558
7.288000,-2.9117,-0.5786,-1.6505,3.397
7.293000,-2.6621,-0.4444,-1.6674,3.173
7.297000,-2.3532,-0.3116,-1.6004,2.863
7.302000,-2.0633,-0.1155,-1.5500,2.583
7.307000,-1.7227,0.0931,-1.4903,2.280
7.312000,-1.3743,0.3163,-1.5050,2.062
7.317000,-0.9658,0.5488,-1.4672,1.840
7.327000,-0.6026,0.7158,-1.4586,1.733
7.329000,-0.3040,0.8863,-1.4024,1.687
7.331000,-0.0317,1.0167,-1.3468,1.688
7.373000,0.1593,1.1618,-1.4304,1.850
7.374000,0.2736,1.2901,-1.5909,2.066
7.375000,0.3849,1.3181,-1.7898,2.256
7.375000,0.4526,1.3370,-1.9886,2.439
7.376000,0.5409,1.3684,-2.1992,2.646
7.376000,0.6257,1.3721,-2.4477,2.875
7.377000,0.7044,1.3414,-2.7841,3.170
7.377000,0.7294,1.3173,-3.0145,3.370
7.378000,0.7820,1.3099,-3.1941,3.540
7.381000,0.8741,1.3028,-3.3921,3.737
7.386000,1.0009,1.2961,-3.5034,3.867
7.396000,1.1650,1.3379,-3.5972,4.011
7.399000,1.2754,1.4088,-3.7168,4.174
7.402000,1.3373,1.4614,-3.7928,4.279
7.406000,1.3933,1.4791,-3.8632,4.365
7.416000,1.4199,1.5193,-3.8351,4.363
7.417000,1.4392,1.5320,-3.7636,4.311
7.423000,1.4199,1.5720,-3.6177,4.192
7.426000,1.4415,1.6346,-3.4861,4.111
7.432000,1.4801,1.6933,-3.2780,3.975
7.437000,1.4807,1.7356,-3.0845,3.837
7.446000,1.5010,1.7619,-2.9056,3.715
7.447000,1.5576,1.7503,-2.6409,3.530
7.451000,1.5668,1.7318,-2.4412,3.378
7.483000,1.4854,1.7018,-2.1651,3.129
7.485000,1.4353,1.6624,-1.9157,2.914
7.485000,1.3494,1.6570,-1.6689,2.711
7.486000,1.2950,1.6757,-1.3483,2.511
7.487000,1.2335,1.7184,-1.0853,2.377
7.487000,1.1435,1.7181,-0.8921,2.248
7.487000,1.0437,1.7511,-0.6798,2.149
7.492000,0.8863,1.7648,-0.3768,2.010
7.496000,0.6953,1.7400,-0.1100,1.877
7.500000,0.4641,1.6599,0.1683,1.732
7.506000,0.2408,1.6372,0.3601,1.694
7.512000,0.0517,1.6549,0.5370,1.741
7.517000,-0.1270,1.6966,0.7997,1.880
7.521000,-0.2933,1.7043,1.0068,2.001
7.526000,-0.5600,1.6971,1.2184,2.163
7.531000,-0.8124,1.6175,1.4345,2.310
7.535000,-1.0363,1.5538,1.6503,2.492
7.540000,-1.1267,1.4725,1.8516,2.620
7.545000,-1.1701,1.4668,2.0263,2.762
7.553000,-1.1574,1.4337,2.2034,2.872
7.590000,-1.0268,1.4137,2.3949,2.965
7.591000,-0.8238,1.3946,2.5935,3.058
7.592000,-0.5511,1.4196,2.8136,3.199
7.592000,-0.2210,1.4069,2.9979,3.319
7.592000,0.1303,1.4832,3.2038,3.533
7.593000,0.4140,1.5690,3.5699,3.921
7.593000,0.6538,1.6690,3.9360,4.325
7.593000,0.8164,1.6654,4.2612,4.647
7.595000,0.9467,1.6344,4.4404,4.825
7.599000,1.0263,1.5450,4.4713,4.841
7.604000,1.0911,1.4906,4.4473,4.816
7.609000,1.1636,1.4310,4.4234,4.792
7.614000,1.1676,1.3783,4.2296,4.599
7.620000,1.2565,1.4317,3.9311,4.368
7.624000,1.3615,1.4987,3.6259,4.153
7.631000,1.4756,1.6183,3.3525,4.004
7.635000,1.6976,1.6691,3.1155,3.921
7.641000,1.9254,1.6565,3.0007,3.931
7.644000,2.1659,1.6307,2.9076,3.975
7.650000,2.3454,1.5441,2.8431,3.996
7.657000,2.5351,1.4157,2.7549,4.003
7.659000,2.6898,1.3222,2.6620,4.009
7.665000,2.8499,1.2084,2.5597,4.017
7.670000,2.9388,1.0625,2.4695,3.983
7.700000,2.9924,0.9421,2.4298,3.968
7.700000,3.0416,0.8473,2.3258,3.922
7.701000,3.0886,0.7542,2.2368,3.887
7.702000,3.1377,0.6777,2.1676,3.873
7.702000,3.1098,0.6128,2.0897,3.796
7.703000,3.0959,0.5787,2.1035,3.787
7.709000,3.1702,0.5276,2.1897,3.889
7.710000,3.1947,0.5666,2.2832,3.967
7.713000,3.2077,0.5830,2.3625,4.026
7.719000,3.1949,0.6838,2.3532,4.027
7.725000,3.1782,0.8017,2.2169,3.957
7.730000,3.1689,0.9220,2.0522,3.886
7.733000,3.0931,1.0684,1.8492,3.759
7.739000,2.9846,1.2194,1.6343,3.615
7.744000,2.8150,1.3845,1.4885,3.472
7.749000,2.6753,1.5540,1.2947,3.354
7.754000,2.4911,1.7252,1.1509,3.241
7.760000,2.2815,1.8287,1.0450,3.105
7.763000,2.0518,1.8593,1.0175,2.950
7.769000,1.8066,1.8982,0.9055,2.773
7.779000,1.5581,1.8540,0.8071,2.553
7.780000,1.3324,1.7557,0.6721,2.304
7.783000,1.1414,1.6892,0.5411,2.109
7.828000,1.0038,1.5875,0.4168,1.924
7.830000,0.8621,1.5345,0.3517,1.795
7.830000,0.8500,1.4490,0.2527,1.699
7.831000,0.7876,1.3284,0.0794,1.546
7.831000,0.7680,1.2325,-0.0437,1.453
7.831000,0.7052,1.1523,-0.2098,1.367
7.832000,0.6494,1.0063,-0.4166,1.268
7.832000,0.5672,0.8597,-0.6303,1.207
7.832000,0.5307,0.7465,-0.8319,1.237
7.833000,0.4970,0.6648,-0.9736,1.279
7.840000,0.4446,0.5889,-1.1270,1.347
7.842000,0.3948,0.5353,-1.2299,1.398
7.848000,0.3932,0.5452,-1.2177,1.391
7.853000,0.3876,0.5585,-1.1434,1.330
7.859000,0.3735,0.6062,-0.9595,1.195
7.864000,0.4086,0.6471,-0.8363,1.134
7.869000,0.4236,0.7144,-0.7163,1.097
7.878000,0.4470,0.7405,-0.6067,1.057
7.881000,0.4379,0.6987,-0.5290,0.980
7.882000,0.3891,0.6774,-0.5359,0.947
7.889000,0.2816,0.5977,-0.5506,0.860
7.914000,0.1440,0.4908,-0.6353,0.816
7.915000,0.0120,0.4502,-0.7562,0.880
7.916000,-0.1528,0.4190,-0.8628,0.971
7.916000,-0.2862,0.4164,-1.0053,1.125
7.916000,-0.4002,0.4164,-1.1261,1.266
7.917000,-0.4877,0.4194,-1.1652,1.331
7.923000,-0.5323,0.4014,-1.2327,1.401
7.927000,-0.5510,0.3960,-1.2640,1.435
7.932000,-0.5579,0.4197,-1.1897,1.379
7.938000,-0.5511,0.4269,-1.1032,1.305
7.942000,-0.5287,0.4055,-1.1166,1.300
7.947000,-0.5718,0.4553,-1.0889,1.312
7.952000,-0.6326,0.5209,-1.0849,1.360
7.958000,-0.7275,0.5783,-1.1308,1.464
7.963000,-0.7748,0.6964,-1.1816,1.575
7.968000,-0.8197,0.8058,-1.2636,1.708
7.974000,-0.8074,0.8225,-1.3432,1.770
7.977000,-0.8337,0.8591,-1.5352,1.947
7.981000,-0.8963,0.8514,-1.7053,2.106
8.015000,-0.9352,0.8351,-1.8777,2.258
8.017000,-0.9290,0.7413,-2.0330,2.355
8.018000,-0.9448,0.6871,-2.2120,2.502
8.019000,-0.9560,0.6035,-2.3236,2.584
8.019000,-0.9314,0.5528,-2.4065,2.639
8.020000,-0.9355,0.5039,-2.5395,2.753
8.020000,-0.9632,0.4452,-2.6843,2.886
8.024000,-0.9644,0.3982,-2.7932,2.982
8.026000,-0.9606,0.3488,-2.9187,3.092
8.031000,-0.9348,0.2426,-3.0082,3.159
8.037000,-0.9107,0.1750,-3.0739,3.211
8.042000,-0.8957,0.0940,-3.1229,3.250
8.046000,-0.8827,-0.0127,-3.1885,3.308
8.051000,-0.8166,-0.0850,-3.1824,3.287
8.056000,-0.7645,-0.1394,-3.1668,3.261
8.061000,-0.7045,-0.1689,-3.1753,3.257
8.067000,-0.6417,-0.1734,-3.1814,3.250
8.073000,-0.5882,-0.2009,-3.1350,3.196
8.076000,-0.5488,-0.2947,-3.1125,3.174
8.081000,-0.5042,-0.3539,-3.0757,3.137
8.086000,-0.4592,-0.4410,-2.9411,3.009
8.091000,-0.4019,-0.4795,-2.7901,2.859
8.096000,-0.3390,-0.4955,-2.6059,2.674
8.101000,-0.2586,-0.5253,-2.4392,2.508
8.113000,-0.1922,-0.5285,-2.2584,2.327
8.116000,-0.1512,-0.5865,-2.0830,2.169
8.116000,-0.1474,-0.6539,-1.9659,2.077
8.156000,-0.1400,-0.7521,-1.8279,1.982
8.158000,-0.1579,-0.8856,-1.7454,1.964
8.159000,-0.0750,-0.9895,-1.6297,1.908
8.160000,0.0038,-1.0993,-1.4570,1.825
8.160000,0.0641,-1.1815,-1.3086,1.764
8.160000,0.1321,-1.2216,-1.0888,1.642
8.160000,0.2343,-1.2749,-0.7859,1.516
8.161000,0.3900,-1.2792,-0.5147,1.433
8.161000,0.4844,-1.3472,-0.2946,1.462
8.165000,0.4717,-1.4193,-0.1371,1.502
8.171000,0.4570,-1.4739,0.0368,1.544
8.176000,0.4523,-1.5997,0.2606,1.683
8.180000,0.4003,-1.7292,0.4098,1.822
8.185000,0.4304,-1.8289,0.5778,1.966
8.191000,0.4589,-1.8483,0.7525,2.048
8.196000,0.5048,-1.8757,0.9053,2.143
8.201000,0.5680,-1.9233,1.0936,2.284
8.210000,0.6817,-1.9840,1.2673,2.451
8.212000,0.8475,-1.9979,1.4985,2.637
8.214000,0.9838,-2.0298,1.6916,2.820
8.219000,1.1069,-2.0655,1.9186,3.029
8.256000,1.2245,-2.0955,2.1911,3.270
8.258000,1.3342,-2.0723,2.4230,3.456
8.259000,1.4190,-2.0080,2.6263,3.598
8.259000,1.4814,-1.9318,2.8417,3.742
8.260000,1.5593,-1.9038,3.0359,3.908
8.260000,1.6408,-1.8979,3.2351,4.094
8.261000,1.7188,-1.9310,3.3364,4.221
8.261000,1.7360,-1.9892,3.3590,4.272
8.266000,1.7039,-2.1347,3.4659,4.413
8.270000,1.6247,-2.3577,3.4967,4.519
8.275000,1.4987,-2.5673,3.4897,4.584
8.280000,1.3645,-2.7395,3.4403,4.605
8.285000,1.3564,-2.8833,3.3553,4.627
8.289000,1.3095,-3.0775,3.2491,4.663
8.295000,1.2452,-3.2829,3.1195,4.697
8.300000,1.2208,-3.4945,3.0168,4.775
8.304000,1.2265,-3.7358,3.0081,4.951
8.310000,1.2502,-3.9992,3.0310,5.171
8.314000,1.2731,-4.2774,3.0784,5.422
8.320000,1.2884,-4.5272,3.0879,5.629
8.349000,1.3015,-4.8059,3.0615,5.845
8.350000,1.3347,-4.9674,2.9942,5.952
8.350000,1.3906,-5.0615,2.8814,5.988
8.351000,1.4258,-5.1501,2.8116,6.038
8.351000,1.4931,-5.1422,2.7968,6.041
8.352000,1.6547,-5.0569,2.8441,6.033
8.354000,1.8338,-4.8325,2.9032,5.928
8.359000,2.0158,-4.5242,2.9886,5.785
8.363000,2.1457,-4.1662,3.0859,5.611
8.369000,2.1943,-3.6733,3.1426,5.309
8.373000,2.1423,-3.2619,3.1349,5.006
8.379000,1.9704,-2.9017,3.0987,4.680
8.385000,1.7194,-2.5721,2.9885,4.302
8.389000,1.4546,-2.2854,2.7157,3.836
8.393000,1.2303,-2.0132,2.4359,3.391
8.398000,0.9553,-1.7511,2.0824,2.884
8.407000,0.7320,-1.5033,1.7369,2.411
8.410000,0.5622,-1.2580,1.4066,1.969
8.413000,0.3645,-1.0722,1.0607,1.552
8.419000,0.1197,-0.8885,0.7994,1.201
8.465000,-0.1024,-0.7837,0.6010,0.993
8.466000,-0.2677,-0.7170,0.4843,0.906
8.466000,-0.4239,-0.6575,0.2960,0.836
8.466000,-0.4988,-0.6004,0.1267,0.791
8.467000,-0.5423,-0.5435,-0.0859,0.773
8.467000,-0.5902,-0.5130,-0.2293,0.815
8.468000,-0.6139,-0.5037,-0.3945,0.887
8.468000,-0.6921,-0.5368,-0.5982,1.061
8.469000,-0.7576,-0.5472,-0.8213,1.244
8.469000,-0.8985,-0.5704,-0.9395,1.420
8.475000,-1.0639,-0.5651,-1.0200,1.578
8.478000,-1.2941,-0.5024,-1.1013,1.772
8.483000,-1.6537,-0.4539,-1.1235,2.050
8.489000,-2.0540,-0.4791,-1.1034,2.380
8.493000,-2.4281,-0.5058,-1.0697,2.701
8.498000,-2.7543,-0.5126,-1.0176,2.981
8.504000,-3.0375,-0.5352,-0.9855,3.238
8.508000,-3.1868,-0.5401,-0.9303,3.363
8.520000,-3.2890,-0.5130,-0.8565,3.437
8.521000,-3.3468,-0.4591,-0.7641,3.463
8.528000,-3.3103,-0.4002,-0.6841,3.404
8.529000,-3.2303,-0.3268,-0.6929,3.320
8.533000,-3.1431,-0.2347,-0.7328,3.236
8.543000,-3.0825,-0.2147,-0.7343,3.176
8.547000,-2.9890,-0.1906,-0.8121,3.103
8.549000,-2.9011,-0.1837,-0.8466,3.028
8.552000,-2.7663,-0.1440,-1.0026,2.946
8.601000,-2.6397,-0.1669,-1.1366,2.879
8.602000,-2.5189,-0.1374,-1.3442,2.858
8.602000,-2.3990,-0.1103,-1.4771,2.819
8.602000,-2.2560,-0.0736,-1.6669,2.806
8.603000,-2.0924,0.0159,-1.8537,2.795
8.603000,-1.9318,0.0888,-2.0711,2.834
8.603000,-1.7770,0.1741,-2.1946,2.829
8.603000,-1.5415,0.2762,-2.2460,2.738
8.604000,-1.3115,0.4167,-2.2995,2.680
8.604000,-1.1109,0.5664,-2.4221,2.724
8.608000,-0.9775,0.6557,-2.5087,2.771
8.613000,-0.8733,0.7441,-2.6168,2.857
8.617000,-0.6977,0.8122,-2.7606,2.961
8.625000,-0.5989,0.8983,-2.8971,3.092
8.628000,-0.4956,0.9568,-3.0623,3.246
8.632000,-0.4311,0.9254,-3.2918,3.446
8.636000,-0.3981,0.9026,-3.5090,3.645
8.648000,-0.3898,0.8744,-3.6708,3.794
8.649000,-0.3943,0.8361,-3.9206,4.028
8.651000,-0.3992,0.8024,-4.1101,4.207
8.683000,-0.3378,0.7450,-4.2728,4.350
8.684000,-0.2672,0.7288,-4.4255,4.493
8.684000,-0.2211,0.7182,-4.4223,4.486
8.685000,-0.1393,0.6699,-4.6102,4.661
8.685000,-0.1255,0.6824,-4.7400,4.791
8.685000,-0.0840,0.7556,-4.6396,4.701
8.687000,-0.0783,0.7268,-4.6492,4.706
8.692000,-0.0944,0.6872,-4.6754,4.727
8.697000,-0.1129,0.6561,-4.6845,4.732
8.701000,-0.1959,0.6147,-4.6027,4.648
8.707000,-0.2091,0.6706,-4.4061,4.462
8.711000,-0.2171,0.6779,-4.1834,4.244
8.717000,-0.2629,0.7248,-4.0208,4.094
8.722000,-0.2816,0.7921,-3.8130,3.905
8.726000,-0.3235,0.7982,-3.5722,3.675
8.731000,-0.2883,0.7715,-3.2721,3.374
8.735000,-0.2356,0.7958,-2.9822,3.096
8.740000,-0.1654,0.8110,-2.6952,2.819
8.745000,-0.1305,0.8027,-2.4399,2.572
8.750000,-0.1023,0.8088,-2.2114,2.357
8.760000,-0.0881,0.8009,-2.0479,2.201
8.761000,-0.0857,0.7431,-1.8080,1.957
8.765000,-0.1166,0.6640,-1.4921,1.637
8.798000,-0.1158,0.6689,-1.2196,1.396
8.799000,-0.1387,0.6333,-1.0146,1.204
8.800000,-0.2017,0.5742,-0.7909,0.998
8.802000,-0.2497,0.5034,-0.5508,0.787
8.802000,-0.2613,0.4306,-0.3375,0.606
8.802000,-0.2818,0.4229,-0.1868,0.541
8.803000,-0.3858,0.3536,-0.0961,0.532
8.808000,-0.4495,0.2564,-0.0075,0.518
8.810000,-0.5279,0.2415,0.1673,0.604
8.816000,-0.6307,0.1965,0.3806,0.762
8.822000,-0.6788,0.1550,0.5844,0.909
8.825000,-0.6821,0.0907,0.7214,0.997
8.830000,-0.6217,0.0295,0.8634,1.064
8.836000,-0.5360,0.0147,1.0034,1.138
8.841000,-0.4249,0.0004,1.1939,1.267
8.845000,-0.2834,0.0297,1.3964,1.425
8.850000,-0.1473,0.0761,1.4530,1.462
8.859000,0.0527,0.1036,1.4405,1.445
8.860000,0.2854,0.1628,1.5360,1.571
8.865000,0.5511,0.2843,1.5908,1.707
8.870000,0.8116,0.4468,1.6051,1.853
8.894000,1.1021,0.5760,1.6125,2.036
8.895000,1.3340,0.7172,1.6562,2.244
8.896000,1.5266,0.8583,1.7313,2.463
8.896000,1.7133,0.9944,1.8018,2.678
8.896000,1.7990,1.1210,1.9227,2.862
8.899000,1.8768,1.2494,2.0580,3.053
8.904000,1.9234,1.3744,2.2313,3.251
8.910000,1.9149,1.4151,2.4115,3.389
8.915000,1.8678,1.3662,2.6465,3.516
8.919000,1.7344,1.1752,2.8859,3.566
8.925000,1.6800,0.9429,3.1345,3.679
8.930000,1.5968,0.7457,3.3204,3.759
8.935000,1.6146,0.5674,3.4821,3.880
8.940000,1.6257,0.4415,3.5810,3.957
8.945000,1.6660,0.3295,3.6749,4.048
8.950000,1.7158,0.1843,3.6849,4.069
8.964000,1.8008,0.0609,3.6880,4.105
8.965000,1.8869,-0.0478,3.6820,4.138
8.965000,1.9190,-0.1345,3.7699,4.232
8.969000,1.9330,-0.1750,3.8680,4.328
8.995000,1.9913,-0.2531,4.0095,4.484
8.996000,1.9916,-0.3117,4.1798,4.640
8.996000,1.9794,-0.3579,4.2976,4.745
8.997000,1.9974,-0.3704,4.3583,4.808
8.997000,2.0574,-0.4044,4.4456,4.915
9.000000,2.1665,-0.4215,4.5477,5.055
9.005000,2.3271,-0.3695,4.6261,5.192
9.009000,2.5321,-0.2986,4.6331,5.288
9.013000,2.7214,-0.2684,4.6070,5.357
9.019000,2.8526,-0.2646,4.5692,5.393
9.024000,2.9565,-0.1840,4.4626,5.356
9.029000,3.0309,-0.0553,4.2537,5.223
9.034000,3.0712,0.1217,4.0694,5.100
9.038000,3.1299,0.4212,3.8572,4.985
9.044000,3.1763,0.8095,3.6503,4.906
9.048000,3.2512,1.2363,3.4607,4.907
9.054000,3.3024,1.7200,3.2427,4.938
9.059000,3.3418,2.2839,3.1323,5.118
9.064000,3.3863,2.7695,3.0027,5.306
9.068000,3.3904,3.1735,2.9229,5.487
9.078000,3.3202,3.5309,2.9694,5.684
9.080000,3.1707,3.7692,3.0009,5.768
9.083000,2.9009,3.8897,3.0722,5.743
9.133000,2.5896,3.8797,3.0877,5.594
9.136000,2.2989,3.8058,2.9875,5.357
9.139000,1.8872,3.5838,2.8078,4.928
9.142000,1.5406,3.2951,2.5369,4.435
9.142000,1.1729,3.0023,2.2040,3.905
9.143000,0.7577,2.6768,1.8212,3.325
9.143000,0.4654,2.3102,1.3552,2.718
9.143000,0.2448,1.9051,0.7754,2.071
9.144000,0.1008,1.5852,0.1757,1.598
9.144000,-0.0169,1.2513,-0.3431,1.298
9.144000,-0.1231,0.9542,-0.8000,1.251
9.145000,-0.2248,0.6784,-1.1659,1.368
9.147000,-0.3118,0.4180,-1.4747,1.564
9.154000,-0.3049,0.1518,-1.6762,1.710
9.158000,-0.3188,-0.0602,-1.7873,1.817
9.163000,-0.2783,-0.2269,-1.7870,1.823
9.168000,-0.1923,-0.3604,-1.7047,1.753
9.173000,-0.0955,-0.4363,-1.6101,1.671
9.179000,-0.0309,-0.5037,-1.4583,1.543
9.183000,0.0672,-0.4640,-1.3957,1.472
9.191000,0.0694,-0.4449,-1.4199,1.490
9.192000,0.0245,-0.3507,-1.4140,1.457
9.197000,-0.0813,-0.2673,-1.3235,1.353
9.202000,-0.2791,-0.2003,-1.2728,1.318
9.226000,-0.5566,-0.1038,-1.1545,1.286
9.227000,-0.7853,-0.0051,-1.0282,1.294
9.227000,-0.9842,0.1363,-0.8845,1.330
9.227000,-1.1511,0.1889,-0.8500,1.443
9.227000,-1.3010,0.2520,-0.9556,1.634
9.232000,-1.4444,0.2876,-1.0785,1.825
9.237000,-1.5794,0.2649,-1.1777,1.988
9.243000,-1.8267,0.2505,-1.2743,2.241
9.247000,-2.0237,0.2595,-1.4397,2.497
9.252000,-2.2310,0.2439,-1.5133,2.707
9.258000,-2.4227,0.2311,-1.5498,2.885
9.262000,-2.5032,0.1782,-1.6807,3.020
9.266000,-2.5474,0.1281,-1.7599,3.099
9.272000,-2.6053,0.0191,-1.7753,3.153
9.277000,-2.6509,-0.0700,-1.8178,3.215
9.282000,-2.6480,-0.2064,-1.8255,3.223
9.287000,-2.5840,-0.3085,-1.8154,3.173
9.291000,-2.4615,-0.3408,-1.9239,3.143
9.296000,-2.3227,-0.3843,-2.0269,3.107
9.301000,-2.1319,-0.3988,-2.1196,3.033
9.349000,-1.8238,-0.4128,-2.2169,2.900
9.350000,-1.5484,-0.3973,-2.2594,2.768
9.350000,-1.3105,-0.4005,-2.2856,2.665
9.350000,-1.0591,-0.3165,-2.3245,2.574
9.350000,-0.8350,-0.2367,-2.3618,2.516
9.350000,-0.6690,-0.1823,-2.3833,2.482
9.351000,-0.5180,-0.1696,-2.3053,2.369
9.351000,-0.3867,-0.1704,-2.0683,2.111
9.351000,-0.2489,-0.1673,-1.8088,1.833
9.351000,-0.1169,-0.1396,-1.4691,1.480
9.360000,-0.0360,-0.1377,-1.0973,1.106
9.363000,0.0030,-0.1619,-0.7147,0.733
9.367000,-0.0360,-0.2202,-0.3952,0.454
9.373000,-0.1529,-0.2984,-0.0503,0.339
9.377000,-0.3570,-0.4153,0.2530,0.603
9.382000,-0.6172,-0.5330,0.5005,0.957
9.386000,-0.8473,-0.6127,0.6562,1.234
9.393000,-0.9616,-0.6855,0.7397,1.393
9.396000,-0.9674,-0.7032,0.8083,1.444
9.402000,-0.9652,-0.6633,0.8143,1.426
9.408000,-0.9982,-0.6377,0.8104,1.435
9.411000,-1.1099,-0.6404,0.7443,1.482
9.416000,-1.2668,-0.7074,0.7287,1.624
9.460000,-1.3857,-0.7095,0.6943,1.705
9.462000,-1.5121,-0.7346,0.5982,1.784
9.462000,-1.5869,-0.7019,0.4888,1.803
9.463000,-1.7011,-0.6662,0.3875,1.868
9.463000,-1.8147,-0.6853,0.2399,1.955
9.463000,-1.8251,-0.6993,0.0701,1.956
9.465000,-1.8785,-0.7367,-0.0380,2.018
9.466000,-1.9629,-0.7857,-0.2016,2.124
9.466000,-1.9753,-0.8414,-0.3491,2.175
9.466000,-1.9687,-0.8992,-0.5663,2.237
9.471000,-1.9233,-0.9806,-0.6956,2.268
9.476000,-1.8865,-1.0423,-0.7784,2.292
9.481000,-1.8412,-1.0678,-0.9342,2.324
9.485000,-1.7009,-1.1264,-1.1563,2.345
9.491000,-1.5584,-1.1367,-1.3372,2.347
9.495000,-1.4109,-1.1422,-1.4510,2.324
9.500000,-1.3198,-1.1401,-1.5917,2.361
9.507000,-1.2991,-1.1236,-1.7281,2.437
9.510000,-1.2864,-1.1025,-1.8057,2.476
9.515000,-1.2740,-1.1097,-1.7673,2.445
9.557000,-1.3550,-1.0933,-1.7782,2.489
9.559000,-1.4478,-1.0744,-1.7119,2.486
9.560000,-1.5975,-1.0743,-1.6858,2.559
9.560000,-1.7133,-1.0169,-1.6544,2.590
9.560000,-1.8527,-0.9378,-1.6942,2.680
9.561000,-1.9467,-0.8871,-1.6303,2.690
9.562000,-2.0599,-0.8720,-1.5609,2.728
9.562000,-2.2164,-0.8471,-1.4737,2.793
9.562000,-2.3473,-0.8503,-1.3975,2.861
9.566000,-2.4766,-0.8310,-1.3297,2.931
9.572000,-2.5810,-0.8038,-1.2268,2.969
9.575000,-2.6200,-0.7564,-1.1078,2.943
9.581000,-2.6730,-0.7179,-0.9989,2.942
9.585000,-2.6853,-0.6811,-0.9285,2.922
9.591000,-2.7143,-0.6768,-0.8655,2.928
9.596000,-2.7555,-0.6813,-0.8407,2.960
9.601000,-2.6535,-0.6727,-0.7800,2.846
9.607000,-2.5590,-0.6053,-0.6908,2.719
9.610000,-2.4960,-0.5821,-0.6328,2.640
9.614000,-2.4380,-0.5120,-0.5296,2.547
9.619000,-2.3489,-0.4717,-0.3407,2.420
9.658000,-2.2502,-0.4202,-0.1335,2.293
9.659000,-2.1054,-0.3649,0.0775,2.138
9.659000,-1.9266,-0.2842,0.3615,1.981
9.660000,-1.7858,-0.2023,0.6253,1.903
9.660000,-1.6401,-0.1165,0.8669,1.859
9.660000,-1.4850,-0.0487,1.1580,1.884
9.660000,-1.2392,0.0588,1.4532,1.911
9.661000,-1.0466,0.0718,1.6428,1.949
9.663000,-0.9074,0.0837,1.7821,2.002
9.668000,-0.7023,0.0517,1.9359,2.060
9.674000,-0.4407,-0.0218,2.0465,2.094
9.680000,-0.1992,-0.0146,2.2097,2.219
9.684000,0.0726,0.0110,2.3823,2.383
9.689000,0.3628,-0.0308,2.5450,2.571
9.694000,0.7459,-0.0542,3.4364,3.517
9.699000,0.1089,-0.4136,5.0843,5.102
9.705000,-1.3793,-1.0651,5.3821,5.657
9.709000,-2.7456,-1.8208,4.5278,5.599
9.714000,-2.2454,-2.3331,4.1103,5.233
9.718000,0.4121,-2.2912,3.3854,4.109
9.728000,4.0642,-1.4863,2.2325,4.869
9.735000,6.8458,-0.4616,1.5173,7.027
9.736000,7.7403,0.1099,0.9732,7.802
9.774000,6.7076,0.0977,0.9322,6.773
9.776000,4.8887,-0.3279,1.6718,5.177
9.777000,3.4454,-0.7625,2.7476,4.472
9.777000,2.8839,-0.8821,3.7138,4.784
9.778000,3.1642,-0.7086,4.5411,5.580
9.779000,3.7530,-0.4478,4.9864,6.257
9.779000,4.1626,-0.2675,5.2510,6.706
9.779000,4.3037,-0.2046,5.4963,6.984
9.780000,4.1595,-0.2268,5.8018,7.142
9.784000,3.9491,-0.2757,5.9249,7.126
9.789000,3.7827,-0.1783,5.8060,6.932
9.793000,3.6424,0.0895,5.6640,6.735
9.798000,3.5002,0.4713,5.5692,6.595
9.804000,3.2368,0.8349,5.5352,6.466
9.808000,2.9724,1.1509,5.7187,6.547
9.813000,2.8682,1.5029,5.9723,6.794
9.818000,2.7778,1.7717,6.1661,6.991
9.823000,2.6593,1.8874,6.2294,7.031
9.828000,2.5997,1.9801,6.1823,6.993
9.833000,2.6222,2.0241,5.9870,6.842
9.844000,2.7125,1.9971,5.6078,6.542
9.845000,2.7954,1.9215,5.0621,6.094
9.847000,2.8681,1.7184,4.4172,5.540
9.853000,2.8995,1.5289,3.7092,4.950
9.890000,2.8858,1.3581,2.9399,4.338
9.891000,2.8614,1.1662,2.2139,3.801
9.891000,2.7755,0.9419,1.4728,3.280
9.892000,2.6149,0.6979,0.7589,2.811
9.892000,2.4361,0.4114,0.1980,2.479
9.892000,2.2129,0.1195,-0.2641,2.232
9.892000,2.0285,-0.1219,-0.7701,2.173
9.893000,1.7864,-0.3641,-1.2374,2.203
9.898000,1.4955,-0.5866,-1.6217,2.283
9.902000,1.2113,-0.7140,-1.9189,2.379
9.907000,0.9171,-0.7544,-2.0934,2.407
9.913000,0.6170,-0.7624,-2.0852,2.304
9.918000,0.4077,-0.6824,-1.8339,1.999
9.924000,0.3621,-0.5824,-1.2003,1.382
9.928000,0.3666,-0.4585,-0.4735,0.754
9.931000,0.3189,-0.3407,0.2520,0.530
9.937000,0.2911,-0.1633,0.9586,1.015
9.970000,0.2165,-0.0595,1.6885,1.703
9.972000,0.0245,-0.0618,2.2897,2.291
9.972000,-0.3357,-0.1855,2.6073,2.635
9.973000,-0.7543,-0.3283,2.9434,3.056
9.973000,-1.1178,-0.4863,3.5104,3.716
9.973000,-1.5056,-0.7889,3.6276,4.006
9.974000,-1.9147,-1.1549,3.5152,4.166
9.978000,-2.2675,-1.5477,3.2209,4.232
9.981000,-2.4694,-1.8402,2.6410,4.057
9.986000,-2.6411,-2.0357,1.8586,3.818
9.993000,-2.7229,-2.1576,0.9720,3.608
9.997000,-2.6694,-2.2588,0.2417,3.505
10.002000,-2.6070,-2.3199,-0.3737,3.510
10.007000,-2.4709,-2.3398,-0.9079,3.522
10.012000,-2.4071,-2.4064,-1.3517,3.662
10.016000,-2.3559,-2.4794,-1.6787,3.810
10.023000,-2.3243,-2.5940,-1.9898,4.011
10.026000,-2.3100,-2.7219,-2.2801,4.236
10.031000,-2.3322,-2.8722,-2.4850,4.457
10.037000,-2.3143,-3.0061,-2.6813,4.646
10.042000,-2.3762,-3.1407,-2.8235,4.846
10.046000,-2.3788,-3.1934,-2.9479,4.954
10.052000,-2.3650,-3.1954,-3.0380,5.003
10.063000,-2.3205,-3.2251,-3.0845,5.030
10.067000,-2.2261,-3.1535,-3.1162,4.961
10.067000,-2.1202,-3.0377,-3.0997,4.830
10.114000,-2.0984,-2.9376,-3.0494,4.726
10.117000,-2.1344,-2.8873,-2.8385,4.577
10.118000,-2.1323,-2.7796,-2.5367,4.325
10.123000,-2.0920,-2.6628,-2.2539,4.068
10.124000,-2.0520,-2.5260,-1.9085,3.773
10.124000,-2.0417,-2.4243,-1.6673,3.581
10.125000,-1.9942,-2.2963,-1.2886,3.303
10.126000,-1.9767,-2.1211,-0.9277,3.044
10.126000,-1.9822,-1.9138,-0.6894,2.840
10.127000,-2.0297,-1.6995,-0.4608,2.687
10.127000,-2.1007,-1.5695,-0.2894,2.638
10.128000,-2.2377,-1.4814,-0.2180,2.692
10.132000,-2.4701,-1.4136,-0.2820,2.860
10.136000,-2.7941,-1.3964,-0.4949,3.163
10.141000,-3.1121,-1.3243,-0.8564,3.489
10.146000,-3.3196,-1.2635,-1.2128,3.753
10.151000,-3.4477,-1.1996,-1.6265,3.996
10.159000,-3.5155,-1.1939,-2.0331,4.233
10.161000,-3.5304,-1.2336,-2.3778,4.432
10.165000,-3.5571,-1.2538,-2.6727,4.623
10.207000,-3.5913,-1.2585,-3.0111,4.853
10.208000,-3.6088,-1.2667,-3.3356,5.075
10.208000,-3.6865,-1.2922,-3.6129,5.321
10.209000,-3.9034,-1.2766,-3.9030,5.666
10.209000,-4.2040,-1.2679,-4.0579,5.979
10.210000,-4.3916,-1.2291,-4.1118,6.140
10.210000,-4.4561,-1.0984,-3.9936,6.084
10.211000,-4.4252,-0.8616,-3.7448,5.861
10.211000,-4.3604,-0.6150,-3.4784,5.612
10.215000,-4.2564,-0.3695,-3.1512,5.309
10.220000,-4.1944,-0.1185,-2.7991,5.044
10.225000,-4.1380,0.0533,-2.4127,4.790
10.231000,-4.2191,0.1259,-2.1084,4.718
10.235000,-4.2989,0.1157,-1.8813,4.694
10.240000,-4.4251,0.0796,-1.7143,4.746
10.245000,-4.4807,0.0512,-1.6527,4.776
10.249000,-4.5376,-0.0123,-1.6892,4.842
10.257000,-4.5284,-0.0868,-1.8335,4.886
10.260000,-4.4818,-0.0926,-2.1050,4.952
10.264000,-4.3501,-0.0915,-2.3792,4.959
10.321000,-4.0884,-0.0397,-2.5701,4.829
10.322000,-3.8240,0.0416,-2.6155,4.633
10.323000,-3.6290,0.0978,-2.6565,4.498
10.323000,-3.5707,0.1312,-2.5687,4.401
10.324000,-3.5108,0.1777,-2.3422,4.224
10.325000,-3.5572,0.2637,-2.1778,4.179
10.327000,-3.7293,0.2979,-1.9797,4.233
10.328000,-3.9007,0.2582,-1.6922,4.260
10.328000,-4.0906,0.2190,-1.4254,4.337
10.329000,-4.2728,0.1223,-1.1122,4.417
10.330000,-4.3944,-0.0056,-0.8269,4.472
10.331000,-4.5340,-0.1313,-0.6891,4.588
10.332000,-4.6842,-0.2958,-0.6270,4.735
10.334000,-4.7565,-0.3887,-0.6452,4.816
10.340000,-4.7557,-0.4817,-0.6532,4.824
10.344000,-4.6860,-0.5840,-0.7253,4.778
10.349000,-4.6953,-0.6761,-0.7855,4.808
10.365000,-4.6418,-0.7699,-0.8319,4.778
10.366000,-4.6238,-0.8769,-0.9147,4.794
10.366000,-4.5859,-0.9774,-0.8765,4.770
10.369000,-4.4322,-1.0359,-0.7726,4.617
10.426000,-4.1694,-1.0304,-0.6490,4.344
10.427000,-3.8565,-0.9927,-0.5347,4.018
10.428000,-3.5529,-0.9252,-0.4492,3.699
10.429000,-3.2846,-0.8811,-0.4282,3.428
10.429000,-3.0375,-0.8919,-0.3971,3.191
10.430000,-2.8628,-0.9434,-0.3337,3.033
10.430000,-2.7484,-1.0907,-0.2428,2.967
10.430000,-2.7021,-1.1489,-0.0932,2.938
10.431000,-2.7819,-1.1972,0.0797,3.030
10.431000,-2.9664,-1.2397,0.2542,3.225
10.432000,-3.1842,-1.2259,0.4185,3.438
10.432000,-3.2678,-1.2007,0.5938,3.532
10.433000,-3.2790,-1.1352,0.7653,3.553
10.438000,-3.1585,-1.1058,0.8854,3.462
10.443000,-3.0760,-1.0817,1.0474,3.425
10.448000,-2.9692,-1.0660,1.3090,3.416
10.454000,-2.6158,-1.0331,1.6941,3.283
10.458000,-2.3305,-1.0081,2.2577,3.398
10.464000,-2.1626,-0.9325,2.8320,3.683
10.469000,-1.9677,-0.8579,3.2451,3.891
10.474000,-1.8265,-0.7827,3.4663,3.996
10.478000,-1.8374,-0.8224,3.4389,3.985
10.482000,-2.0196,-1.0797,3.2663,3.989
10.530000,-2.2477,-1.4504,3.0831,4.082
10.533000,-2.4330,-1.8142,2.7453,4.092
10.534000,-2.5641,-2.1524,2.3412,4.085
10.534000,-2.6670,-2.4326,1.9154,4.086
10.534000,-2.7235,-2.7448,1.5124,4.152
10.535000,-2.7431,-3.0255,1.1077,4.231
10.535000,-2.5364,-3.3200,0.8922,4.272
10.539000,-2.3695,-3.6063,0.8228,4.393
10.540000,-2.3795,-3.9558,0.8349,4.691
10.540000,-2.2191,-4.1961,1.0217,4.855
10.541000,-1.7633,-4.1861,1.5150,4.788
10.544000,-1.2618,-4.0148,2.1155,4.710
10.548000,-0.9229,-3.8461,2.5725,4.718
10.553000,-0.6972,-3.8001,2.8512,4.802
10.558000,-0.6346,-3.9871,3.1529,5.123
10.562000,-0.7055,-4.2132,3.3370,5.421
10.568000,-0.8285,-4.4087,3.3226,5.582
10.574000,-0.9752,-4.6045,3.1560,5.667
10.579000,-1.2413,-4.8647,2.9696,5.833
10.582000,-1.5061,-5.0183,2.9666,6.021
10.617000,-1.5676,-5.1082,3.3023,6.281
10.618000,-1.5299,-5.0409,3.7780,6.483
10.619000,-1.3882,-4.8909,4.2521,6.628
10.619000,-1.1363,-4.8170,4.6129,6.766
10.619000,-0.7025,-4.7834,4.8701,6.862
10.620000,-0.0688,-4.8202,5.0667,6.994
10.620000,0.8571,-4.7848,5.0713,7.025
10.622000,1.7477,-4.7925,4.9200,7.087
10.627000,2.4884,-4.8468,4.7518,7.229
10.631000,3.2094,-4.8489,4.5019,7.354
10.636000,3.9021,-4.7247,4.1198,7.384
10.642000,4.5725,-4.5073,3.6122,7.367
10.648000,5.1924,-4.2674,3.2227,7.454
10.652000,5.7698,-3.9857,3.0393,7.643
10.659000,6.2670,-3.7645,2.9466,7.882
10.661000,6.6398,-3.5373,2.9588,8.084
10.666000,6.8220,-3.4768,2.9753,8.215
10.672000,6.8050,-3.4443,2.9408,8.174
10.677000,6.6708,-3.4761,2.9201,8.069
10.681000,6.4847,-3.5130,2.9132,7.930
10.686000,6.2974,-3.5857,2.9389,7.820
10.692000,6.1003,-3.6111,2.9541,7.680
10.696000,5.9867,-3.6080,3.0517,7.627
10.701000,5.9659,-3.5266,3.1267,7.603
10.753000,5.8841,-3.4201,3.1532,7.501
10.755000,5.7429,-3.3791,3.2032,7.393
10.756000,5.5221,-3.3349,3.2030,7.202
10.756000,5.3027,-3.3661,3.1672,7.034
10.757000,5.0219,-3.4536,3.0839,6.831
10.758000,4.6485,-3.5777,3.0466,6.610
10.759000,4.2716,-3.6064,3.0356,6.361
10.759000,3.8475,-3.5297,3.0175,6.031
10.760000,3.3754,-3.4697,3.0715,5.733
10.762000,2.8881,-3.4115,3.2359,5.518
10.762000,2.4128,-3.4492,3.4490,5.442
10.763000,1.9299,-3.4655,3.7395,5.451
10.766000,1.6040,-3.4419,3.9929,5.510
10.773000,1.3624,-3.4029,4.1976,5.573
10.777000,1.1236,-3.4185,4.3130,5.617
10.782000,0.9186,-3.4846,4.3587,5.655
10.787000,0.7842,-3.5602,4.2961,5.634
10.794000,0.7280,-3.5763,3.9723,5.394
10.796000,0.7604,-3.5612,3.5592,5.092
10.801000,0.8505,-3.5430,3.0568,4.756
10.807000,0.9658,-3.5138,2.5245,4.433
10.810000,1.0637,-3.4847,2.0027,4.158
10.815000,1.1899,-3.4334,1.4863,3.926
10.819000,1.4568,-3.3331,1.1116,3.804
10.859000,1.8089,-3.1885,0.9596,3.789
10.860000,2.2598,-2.9664,0.9753,3.854
10.861000,2.5816,-2.7580,0.9987,3.908
10.861000,2.7461,-2.6214,1.0919,3.950
10.861000,2.7775,-2.5776,1.1783,3.968
10.862000,2.7937,-2.5286,1.2338,3.965
10.862000,2.7503,-2.4865,1.3633,3.950
10.862000,2.7071,-2.4632,1.4975,3.954
10.866000,2.5211,-2.4971,1.5643,3.878
10.871000,2.2151,-2.6386,1.5064,3.760
10.875000,1.8779,-2.7699,1.4502,3.647
10.880000,1.5632,-2.8719,1.3669,3.544
10.890000,1.3887,-2.9681,1.2322,3.501
10.891000,1.2837,-2.9773,1.1246,3.432
10.896000,1.2414,-2.9930,0.9891,3.388
10.901000,1.1562,-3.0383,0.8757,3.367
10.907000,1.1068,-2.9985,0.7608,3.286
10.910000,1.0690,-2.9308,0.6060,3.178
10.914000,1.1186,-2.8827,0.4069,3.119
10.919000,1.1740,-2.7706,0.2426,3.019
10.965000,1.3374,-2.6687,0.0654,2.986
10.966000,1.5012,-2.5885,-0.0267,2.992
10.967000,1.7294,-2.5066,-0.1003,3.047
10.967000,2.0481,-2.3679,-0.1556,3.135
10.968000,2.3462,-2.2305,-0.1489,3.241
10.968000,2.6332,-2.0922,-0.1569,3.367
10.968000,2.8698,-1.9248,-0.1097,3.457
10.969000,3.1102,-1.7865,-0.1241,3.589
10.969000,3.3398,-1.6078,-0.0830,3.708
10.970000,3.4528,-1.4542,-0.1080,3.748
10.975000,3.4206,-1.3207,-0.2038,3.672
10.979000,3.3576,-1.1741,-0.2746,3.567
10.985000,3.2973,-1.0647,-0.3419,3.482
10.988000,3.1973,-0.9109,-0.3677,3.345
10.995000,3.1223,-0.7414,-0.3904,3.233
11.000000,3.0412,-0.5687,-0.4123,3.121
11.005000,2.9494,-0.4022,-0.4671,3.013
11.009000,2.8278,-0.2633,-0.4758,2.880
11.014000,2.7126,-0.1903,-0.5007,2.765
11.020000,2.5564,-0.1140,-0.6136,2.632
11.025000,2.4286,-0.0943,-0.6974,2.528
11.029000,2.3244,-0.0781,-0.8716,2.484
11.033000,2.2273,-0.0752,-1.0071,2.446
11.072000,2.1281,-0.0799,-1.1542,2.422
11.074000,2.1081,-0.0159,-1.3777,2.518
11.074000,2.0549,-0.0006,-1.5482,2.573
11.075000,2.0782,0.0192,-1.7185,2.697
11.075000,2.1014,0.0697,-1.8596,2.807
11.075000,2.1748,0.1272,-1.9479,2.922
11.076000,2.2839,0.1842,-2.0336,3.064
11.076000,2.3470,0.2237,-2.1645,3.201
11.078000,2.4190,0.1911,-2.3164,3.355
11.084000,2.4896,0.1963,-2.4485,3.497
11.090000,2.5183,0.2227,-2.5108,3.563
11.094000,2.5171,0.3130,-2.6084,3.638
11.098000,2.4816,0.3787,-2.6769,3.670
11.103000,2.4139,0.4006,-2.7258,3.663
11.112000,2.2353,0.4052,-2.7983,3.604
11.113000,2.1492,0.3998,-2.9061,3.637
11.118000,2.0241,0.3723,-2.9036,3.559
11.124000,1.9083,0.3109,-2.8626,3.454
11.128000,1.7830,0.3019,-2.9197,3.434
11.133000,1.6599,0.2736,-2.9526,3.398
11.149000,1.5793,0.2185,-3.0283,3.422
11.149000,1.4932,0.1634,-3.1634,3.502
11.150000,1.3681,0.0843,-3.2288,3.508
11.154000,1.2927,-0.0018,-3.3225,3.565
11.160000,1.2500,-0.0825,-3.4182,3.641
11.163000,1.2425,-0.1674,-3.4515,3.672
11.169000,1.1959,-0.2439,-3.4724,3.681
11.174000,1.1580,-0.2810,-3.4524,3.652
11.178000,1.1671,-0.3145,-3.4321,3.639
11.183000,1.2085,-0.3226,-3.3756,3.600
11.188000,1.3039,-0.3370,-3.2041,3.476
11.194000,1.3771,-0.3094,-3.1114,3.417
11.197000,1.4117,-0.2665,-3.0067,3.332
11.202000,1.4698,-0.2274,-2.9044,3.263
11.207000,1.4684,-0.1636,-2.7544,3.126
11.213000,1.4626,-0.0730,-2.6572,3.034
