SensorId, TimeStamp (s), FrameNumber, AccX (g), AccY (g), AccZ (g), GyroX (deg/s), GyroY (deg/s), GyroZ (deg/s), MagX (uT), MagY (uT), MagZ (uT), EulerX (deg), EulerY (deg), EulerZ (deg), QuatW, QuatX, QuatY, QuatZ, LinAccX (g), LinAccY (g), LinAccZ (g), Pressure (kPa), Altitude (m), Temperature (degC), HeaveMotion (m)
1, 0.0002, 0, 0.52758789, -0.71282959, 0.27301025, 26.97953987, -35.42110825, -0.21109290, -16.07716942, -1.66617942, -106.75241089, 146.72586060, 33.44269180, -130.29901123, -0.13491321, -0.46038172, 0.79803914, 0.36466527, 0.02296213, 0.25460994, 0.42479271, 100.34900665, 81.56245422, 32.21999741, 0.00000000
1, -0.0001, 0, -0.15646091, -0.95697641, 0.19067210, -2.15765142, -5.21262312, -116.64857483, -41.33294296, 0.32154340, -109.61707306, 104.76952362, -4.54615307, -147.74681091, 0.19958101, -0.19659342, 0.76708245, 0.57715082, 0.07425039, -0.00703299, 0.06154545, 100.36200714, 80.47180176, 32.25999832, 0.00000000
1, 0.0052, 1, 0.50231934, -0.71777344, 0.26086426, 26.66453934, -38.74610519, 1.15390766, -16.07716942, -1.66617942, -106.75241089, 146.78562927, 33.60155487, -130.43218994, -0.13677940, -0.45956710, 0.79825675, 0.36452115, 0.05050853, 0.26114357, 0.43617952, 100.34900665, 81.56245422, 32.21999741, 0.00000000
1, 0.0102, 2, 0.47729492, -0.72680664, 0.25097656, 25.26453972, -41.16110229, 2.37890792, -16.86641312, -1.37386727, -106.43087006, 146.83021545, 33.76727295, -130.57954407, -0.13868152, -0.45867777, 0.79845881, 0.36447993, 0.07791823, 0.27163535, 0.44512472, 100.34900665, 81.56245422, 32.21999741, 0.00000000
1, 0.0152, 3, 0.44677734, -0.73345947, 0.23522949, 23.58453941, -42.49110794, 3.56890845, -16.86641312, -1.37386727, -106.43087006, 146.86018372, 33.93538284, -130.73744202, -0.14057684, -0.45773399, 0.79864639, 0.36452946, 0.11087282, 0.27958810, 0.45977166, 100.34900665, 81.56245422, 32.21999741, 0.00000000
1, 0.0202, 4, 0.41784668, -0.73992920, 0.22515869, 22.14953995, -42.63110733, 5.00390911, -16.98333740, -1.14001751, -106.48932648, 146.87815857, 34.10021591, -130.90327454, -0.14242490, -0.45674464, 0.79883528, 0.36463892, 0.14220667, 0.28719938, 0.46865362, 100.34900665, 81.56245422, 32.21999741, 0.00000000
1, 0.0252, 5, 0.37896729, -0.73590088, 0.21307373, 20.39953804, -40.95110703, 6.85891008, -16.98333740, -1.14001751, -106.48932648, 146.88468933, 34.25296783, -131.07322693, -0.14414941, -0.45572639, 0.79904050, 0.36478594, 0.18335223, 0.28412119, 0.47952393, 100.34900665, 81.56245422, 32.21999741, 0.00000000
1, 0.0049, 1, -0.13491113, -0.94256520, 0.18985374, -3.24521017, -5.93885851, -114.33860016, -40.66062546, 0.23384975, -109.73399353, 104.74321747, -3.98560500, -147.63050842, 0.19652489, -0.20023230, 0.76605666, 0.57830977, 0.06249920, -0.02228447, 0.06220999, 100.36200714, 80.47180176, 32.25999832, 0.00000000
1, 0.0099, 2, -0.11940370, -0.92033517, 0.17013584, -4.50199986, -7.39599180, -112.11399078, -40.66062546, 0.23384975, -109.73399353, 104.71246338, -3.43393135, -147.52445984, 0.19348253, -0.20374432, 0.76501256, 0.57949007, 0.05668645, -0.04524147, 0.08166689, 100.36200714, 80.47180176, 32.25999832, 0.00000000
1, 0.0149, 3, -0.12546428, -0.90035129, 0.13367862, -5.07775688, -9.26731968, -109.80278015, -39.34521866, 0.17538731, -108.74013519, 104.68051910, -2.89103556, -147.43075562, 0.19043690, -0.20712210, 0.76397216, 0.58067274, 0.07233465, -0.06583725, 0.11773937, 100.36200714, 80.47180176, 32.25999832, 0.00000000
1, 0.0452, 6, 0.35839844, -0.75231934, 0.22521973, 17.10953522, -26.42610168, 11.30391026, -17.10026360, -1.95849168, -106.40163422, 146.89053345, 34.68441010, -131.70556641, -0.14945860, -0.45180017, 0.80016690, 0.36506408, 0.21038747, 0.30303180, 0.46370944, 100.34900665, 81.56245422, 32.21999741, 0.00000000
1, 0.0502, 7, 0.37316895, -0.75994873, 0.22576904, 16.72453499, -22.50610161, 12.00391102, -17.10026360, -1.95849168, -106.40163422, 146.89674377, 34.74588013, -131.84150696, -0.15038270, -0.45091313, 0.80052251, 0.36500180, 0.19656202, 0.31108409, 0.46265459, 100.34900665, 81.56245422, 32.21999741, 0.00000000
1, 0.0199, 4, -0.14071475, -0.89161456, 0.11057537, -4.80597496, -10.67436028, -107.66652679, -39.34521866, 0.17538731, -108.74013519, 104.65131378, -2.35665083, -147.34690857, 0.18739179, -0.21039072, 0.76295251, 0.58182788, 0.09699620, -0.07510376, 0.14043015, 100.36200714, 80.47180176, 32.25999832, 0.00000000
1, 0.0249, 5, -0.15018705, -0.88168514, 0.11299009, -4.66618633, -12.91974735, -105.47849274, -39.34521866, 0.17538731, -108.74013519, 104.62089539, -1.83385050, -147.27713013, 0.18435283, -0.21349989, 0.76194757, 0.58298188, 0.11564630, -0.08551136, 0.13760591, 100.36200714, 80.47180176, 32.25999832, 0.00000000
1, 0.0552, 8, 0.38909912, -0.76416016, 0.22277832, 16.30453873, -18.93610001, 12.38891220, -17.10026360, -1.95849168, -106.40163422, 146.90634155, 34.79137802, -131.96762085, -0.15116748, -0.45007148, 0.80090100, 0.36488593, 0.18133904, 0.31566900, 0.46530309, 100.34900665, 81.56245422, 32.21999741, 0.00000000
1, 0.0602, 9, 0.41607666, -0.77239990, 0.22906494, 16.30453682, -15.96109867, 12.63391113, -16.92487526, -1.95849168, -106.19701385, 146.92077637, 34.82375717, -132.08515930, -0.15184420, -0.44926798, 0.80130285, 0.36471272, 0.15487240, 0.32426083, 0.45882210, 100.34900665, 81.56245422, 32.21999741, 0.00000000
1, 0.0652, 10, 0.43603516, -0.77752686, 0.23693848, 15.98953629, -13.37109756, 12.87891197, -16.92487526, -1.95849168, -106.19701385, 146.93777466, 34.84465027, -132.19534302, -0.15242010, -0.44849873, 0.80172074, 0.36450097, 0.13527325, 0.32971844, 0.45086563, 100.34900665, 81.56245422, 32.21999741, 0.00000000
1, 0.0699, 6, -0.10494968, -0.89405894, 0.09206369, -5.23743582, -31.91754532, -72.93994141, -36.33440399, -0.87693655, -108.91551971, 104.35286713, 2.31541848, -147.40930176, 0.15671282, -0.23348524, 0.75453943, 0.59295541, 0.14342305, -0.07412215, 0.15403910, 100.36200714, 80.47180176, 32.25999832, 0.00000000
1, 0.0749, 7, -0.07745789, -0.91753566, 0.09709678, -4.74399281, -33.67183685, -69.30755615, -35.92516708, -0.70154923, -109.06167603, 104.32017517, 2.68847299, -147.48811340, 0.15389164, -0.23482278, 0.75391775, 0.59395593, 0.12252459, -0.05051719, 0.14844915, 100.36200714, 80.47180176, 32.25999832, 0.00000000
1, 0.0702, 11, 0.45281982, -0.78021240, 0.24078369, 15.32453537, -9.38109684, 13.19391251, -16.92487526, -2.54311609, -106.72318268, 146.95808411, 34.84798813, -132.29388428, -0.15283826, -0.44778585, 0.80215979, 0.36423609, 0.11857858, 0.33267713, 0.44712323, 100.34900665, 81.56245422, 32.21999741, 0.00000000
1, 0.0752, 12, 0.46984863, -0.78552246, 0.24639893, 15.11453724, -6.72109652, 13.43891239, -16.92487526, -2.54311609, -106.72318268, 146.98168945, 34.83953857, -132.38484192, -0.15315518, -0.44710773, 0.80261749, 0.36392790, 0.10147131, 0.33822697, 0.44172916, 100.34900665, 81.56245422, 32.21999741, 0.00000000
1, 0.0802, 13, 0.48211670, -0.78869629, 0.24981689, 14.58953667, -4.30609560, 13.54391193, -16.92487526, -2.54311609, -106.72318268, 147.00694275, 34.82070541, -132.46830750, -0.15337546, -0.44646734, 0.80308419, 0.36359134, 0.08897049, 0.34161425, 0.43864313, 100.34900665, 81.56245422, 32.21999741, 0.00000000
1, 0.0799, 8, -0.06063028, -0.94623041, 0.12666392, -4.91085625, -36.75070190, -65.87359619, -35.92516708, -0.70154923, -109.06167603, 104.28992462, 3.05281520, -147.58552551, 0.15102500, -0.23599677, 0.75335538, 0.59493917, 0.11199452, -0.02170721, 0.11826724, 100.36200714, 80.47180176, 32.25999832, 0.00000000
1, 0.0849, 9, -0.05108307, -0.94480288, 0.16395886, -7.05687618, -40.66959000, -61.52310181, -35.92516708, -0.70154923, -109.06167603, 104.24699402, 3.40077281, -147.70755005, 0.14816347, -0.23690927, 0.75280029, 0.59599781, 0.10850632, -0.02303750, 0.08025359, 100.36200714, 80.47180176, 32.25999832, 0.00000000
1, 0.0899, 10, -0.05673905, -0.93080711, 0.16334347, -9.20635605, -44.46654129, -57.90576553, -35.01900101, -1.57848585, -109.32476044, 104.19118500, 3.73569679, -147.85279846, 0.14529236, -0.23758771, 0.75224358, 0.59713632, 0.12005041, -0.03690496, 0.07992165, 100.36200714, 80.47180176, 32.25999832, 0.00000000
1, 0.0949, 11, -0.07691187, -0.90515625, 0.14727350, -11.13731575, -48.36540604, -52.85649872, -35.01900101, -1.57848585, -109.32476044, 104.12323761, 4.05068302, -148.02359009, 0.14244381, -0.23798406, 0.75170654, 0.59833992, 0.14583167, -0.06245483, 0.09476404, 100.36200714, 80.47180176, 32.25999832, 0.00000000
1, 0.0999, 12, -0.09249698, -0.89317548, 0.14768364, -11.41151810, -48.26084518, -48.57415390, -35.22361755, -1.95849168, -109.38321686, 104.05269623, 4.34456110, -148.19950867, 0.13971204, -0.23823892, 0.75119913, 0.59951866, 0.16662467, -0.07436910, 0.09306152, 100.36200714, 80.47180176, 32.25999832, 0.00000000
1, 0.1049, 13, -0.09017914, -0.94517004, 0.16693558, -10.76297092, -48.00714111, -44.37009430, -35.22361755, -1.95849168, -109.38321686, 103.98424530, 4.61752272, -148.37968445, 0.13709068, -0.23836476, 0.75074452, 0.60064226, 0.16909735, -0.02233696, 0.07246795, 100.36200714, 80.47180176, 32.25999832, 0.00000000
1, 0.0852, 14, 0.49444580, -0.79107666, 0.25994873, 14.34453583, -1.85609436, 13.64891148, -17.48026848, -2.63080978, -105.78778076, 147.03536987, 34.79134750, -132.54418945, -0.15350336, -0.44586352, 0.80356497, 0.36321610, 0.07625733, 0.34417877, 0.42894906, 100.34900665, 81.56245422, 32.21999741, 0.00000000
1, 0.0902, 15, 0.51019287, -0.79461670, 0.26562500, 14.34453583, 0.13890627, 13.89391232, -17.48026848, -2.63080978, -105.78778076, 147.06687927, 34.75297928, -132.61470032, -0.15355730, -0.44528234, 0.80406326, 0.36280340, 0.05999029, 0.34789443, 0.42381719, 100.34900665, 81.56245422, 32.21999741, 0.00000000
1, 0.1099, 14, -0.10328764, -0.98851657, 0.19606830, -10.87733841, -49.45769501, -40.54747772, -35.22361755, -1.95849168, -109.38321686, 103.91343689, 4.87344837, -148.57191467, 0.13452226, -0.23832494, 0.75032932, 0.60175645, 0.18665616, 0.02103063, 0.04197555, 100.36200714, 80.47180176, 32.25999832, 0.00000000
1, 0.1152, 16, 0.62683105, -0.83203125, 0.27453613, 13.39953613, -2.20609474, 15.50391293, -17.97719955, -2.10464764, -106.02162933, 147.20951843, 34.54670334, -132.98693848, -0.15371385, -0.44223535, 0.80662090, 0.36078092, -0.05964311, 0.38595343, 0.41778782, 100.34900665, 81.56245422, 32.21999741, 0.00000000
1, 0.1202, 17, 0.63934326, -0.83837891, 0.27392578, 12.66453648, -5.14609575, 16.02891159, -17.53873062, -2.19234133, -105.46623993, 147.21687317, 34.52494049, -133.08563232, -0.15388697, -0.44150504, 0.80709457, 0.36054185, -0.07250930, 0.39229292, 0.41868272, 100.34900665, 81.56245422, 32.21999741, 0.00000000
1, 0.1149, 15, -0.11413947, -0.93650389, 0.18225126, -13.38874722, -49.58778000, -35.99687195, -34.72668839, -4.47237635, -109.35398865, 103.82876587, 5.10713863, -148.77066040, 0.13209437, -0.23811616, 0.74989098, 0.60292238, 0.20171654, -0.03094821, 0.05439597, 100.36200714, 80.47180176, 32.25999832, 0.00000000
1, 0.1499, 16, -0.45594412, -0.81918240, 0.18734178, -0.71955204, -32.48236084, 16.68763161, -35.28208160, -1.90002918, -109.29552460, 103.39208221, 5.67864418, -150.30432129, 0.12106545, -0.23052210, 0.74973172, 0.60836262, 0.55465162, -0.14912066, 0.04072499, 100.36200714, 80.47180176, 32.25999832, 0.00000000
1, 0.1549, 17, -0.46636081, -0.81698072, 0.18723750, 1.81046724, -28.47077560, 23.20064545, -35.28208160, -1.90002918, -109.29552460, 103.38507843, 5.59850454, -150.47033691, 0.12073343, -0.22901654, 0.75016421, 0.60846412, 0.56383419, -0.15148261, 0.04066110, 100.36200714, 80.47180176, 32.25999832, 0.00000000
1, 0.1599, 18, -0.50253528, -0.82715249, 0.18976745, 4.32419014, -25.93482590, 30.23952675, -35.28208160, -1.90002918, -109.29552460, 103.39147186, 5.48122692, -150.63203430, 0.12064573, -0.22736132, 0.75071877, 0.60841835, 0.59812874, -0.14147994, 0.03811959, 100.36200714, 80.47180176, 32.25999832, 0.00000000
1, 0.1649, 19, -0.56141442, -0.84429026, 0.18895403, 6.54954386, -22.92993355, 37.95925140, -35.66208649, -1.66617942, -109.14936829, 103.41000366, 5.32299471, -150.78796387, 0.12083881, -0.22554466, 0.75139076, 0.60822654, 0.65444481, -0.12451559, 0.03907837, 100.36200714, 80.47180176, 32.25999832, 0.00000000
1, 0.1699, 20, -0.61686891, -0.85857880, 0.20956837, 8.42772484, -17.57173157, 46.19516373, -35.66208649, -1.66617942, -109.14936829, 103.44003296, 5.11859751, -150.92727661, 0.12140706, -0.22361004, 0.75216269, 0.60787362, 0.70650154, -0.11045196, 0.01883125, 100.36200714, 80.47180176, 32.25999832, 0.00000000
1, 0.1749, 21, -0.66207868, -0.85921299, 0.24773200, 10.58057213, -11.34578419, 54.65857697, -36.27594376, -1.28617358, -109.23706055, 103.48541260, 4.83607388, -151.04197693, 0.12259950, -0.22144905, 0.75308955, 0.60727739, 0.74717426, -0.11009568, -0.01866268, 100.36200714, 80.47180176, 32.25999832, 0.00000000
1, 0.1799, 22, -0.67628086, -0.85791194, 0.28485978, 13.08109093, -4.45529938, 63.13339615, -36.27594376, -1.28617358, -109.23706055, 103.54383087, 4.53435278, -151.13720703, 0.12400033, -0.21932997, 0.75407046, 0.60654449, 0.75598937, -0.11166071, -0.05477902, 100.36200714, 80.47180176, 32.25999832, 0.00000000
1, 0.1252, 18, 0.64703369, -0.84741211, 0.26849365, 12.20953560, -8.92609596, 16.62391090, -17.53873062, -2.19234133, -105.46623993, 147.21324158, 34.51745605, -133.19979858, -0.15417497, -0.44069701, 0.80754668, 0.36039534, -0.08036397, 0.40125480, 0.42420340, 100.34900665, 81.56245422, 32.21999741, 0.00000000
1, 0.1302, 19, 0.63781738, -0.85882568, 0.26153564, 11.43953609, -13.75609779, 17.39391327, -17.53873062, -2.19234133, -105.78778076, 147.19450378, 34.52817154, -133.33375549, -0.15460606, -0.43979061, 0.80796796, 0.36037362, -0.07106042, 0.41252160, 0.43099529, 100.34900665, 81.56245422, 32.21999741, 0.00000000
1, 0.1352, 20, 0.61712646, -0.87072754, 0.25488281, 10.21453476, -18.62109947, 18.33891487, -18.35720444, -2.60157847, -105.78778076, 147.15780640, 34.55671310, -133.48857117, -0.15517008, -0.43878201, 0.80835426, 0.36049423, -0.05002166, 0.42416641, 0.43719766, 100.34900665, 81.56245422, 32.21999741, 0.00000000
1, 0.1849, 23, -0.62784100, -0.86861920, 0.31832364, 15.19958496, 4.24730396, 69.97377777, -36.27594376, -1.28617358, -109.23706055, 103.61602783, 4.18936062, -151.19827271, 0.12584688, -0.21722664, 0.75511903, 0.60561568, 0.70163810, -0.10116725, -0.08686786, 100.36200714, 80.47180176, 32.25999832, 0.00000000
1, 0.2299, 24, 0.40281838, -1.17753208, 0.10804158, 9.40440369, -6.99272680, 33.81610107, -38.08827972, -1.14001751, -108.44782257, 104.18272400, 1.71685922, -151.08723450, 0.14191847, -0.20585778, 0.76162642, 0.59783518, -0.37246361, 0.20824170, 0.13574202, 100.36200714, 80.47180176, 32.25999832, 0.00000000
1, 0.2349, 25, 0.31418690, -1.14750838, 0.16590834, 8.50775242, -12.19696808, 34.08904266, -38.08827972, -1.14001751, -108.44782257, 104.22282410, 1.56652224, -151.18794250, 0.14232680, -0.20446122, 0.76223099, 0.59744668, -0.28661105, 0.17822608, 0.07842647, 100.36200714, 80.47180176, 32.25999832, 0.00000000
1, 0.1402, 21, 0.60021973, -0.87390137, 0.24822998, 9.19953442, -22.43610191, 19.38891220, -18.35720444, -2.60157847, -105.78778076, 147.10571289, 34.59832764, -133.66140747, -0.15583250, -0.43768254, 0.80871755, 0.36073020, -0.03258267, 0.42697531, 0.44317815, 100.34900665, 81.56245422, 32.21999741, 0.00000000
1, 0.1452, 22, 0.57269287, -0.87591553, 0.24621582, 7.69453335, -26.70610428, 20.82391357, -18.32797432, -2.48465347, -105.14469147, 147.03372192, 34.65380478, -133.85581970, -0.15659387, -0.43647456, 0.80905378, 0.36110988, -0.00428076, 0.42844781, 0.44420454, 100.34900665, 81.56245422, 32.21999741, 0.00000000
1, 0.1502, 23, 0.55139160, -0.87878418, 0.24938965, 7.02953339, -28.21110153, 21.83891296, -18.32797432, -2.48465347, -105.14469147, 146.95231628, 34.71261215, -134.06062317, -0.15737933, -0.43521050, 0.80938661, 0.36154777, 0.01785823, 0.43067831, 0.43992573, 100.34900665, 81.56245422, 32.21999741, 0.00000000
1, 0.2399, 26, 0.20821479, -1.08801758, 0.23401366, 7.44987488, -21.24898338, 36.44555664, -38.17597198, -1.22771120, -108.33089447, 104.25668335, 1.41587949, -151.33552551, 0.14250502, -0.20274268, 0.76288319, 0.59715748, -0.18343168, 0.11870766, 0.01077113, 100.36200714, 80.47180176, 32.25999832, 0.00000000
1, 0.2449, 27, 0.07376684, -1.00477672, 0.26350191, 7.65572500, -28.80449867, 39.31238937, -38.17597198, -1.22771120, -108.33089447, 104.29107666, 1.26067841, -151.52334595, 0.14250448, -0.20073205, 0.76361018, 0.59690756, -0.05173692, 0.03549987, -0.01833293, 100.36200714, 80.47180176, 32.25999832, 0.00000000
1, 0.2499, 28, -0.06225518, -0.92009616, 0.27589348, 9.83156586, -28.83689308, 41.45715332, -39.02367783, -0.52616191, -108.47705078, 104.33683014, 1.09528100, -151.71403503, 0.14253893, -0.19866201, 0.76440924, 0.59656912, 0.08141277, -0.04907614, -0.03019042, 100.36200714, 80.47180176, 32.25999832, 0.00000000
1, 0.2549, 29, -0.18162808, -0.88094676, 0.30057111, 11.92724133, -25.39850998, 42.63410568, -39.02367783, -0.52616191, -108.47705078, 104.39389801, 0.92013735, -151.88964844, 0.14269955, -0.19665459, 0.76524764, 0.59612066, 0.19769949, -0.08808161, -0.05415607, 100.36200714, 80.47180176, 32.25999832, 0.00000000
1, 0.2599, 30, -0.25045317, -0.87765479, 0.30748460, 13.69653606, -18.63913345, 43.19331741, -39.02367783, -0.52616191, -108.47705078, 104.46083832, 0.73412979, -152.03338623, 0.14308421, -0.19481504, 0.76609117, 0.59554881, 0.26331419, -0.09115231, -0.06013480, 100.36200714, 80.47180176, 32.25999832, 0.00000000
1, 0.2649, 31, -0.26905593, -0.90513492, 0.30469340, 13.33679867, -15.33598042, 43.31168365, -38.81905746, -0.90616781, -108.21397400, 104.52661896, 0.54360431, -152.16148376, 0.14358462, -0.19305432, 0.76690221, 0.59495759, 0.27861726, -0.06341609, -0.05630312, 100.36200714, 80.47180176, 32.25999832, 0.00000000
1, 0.2699, 32, -0.25765157, -0.94854367, 0.30756247, 12.51631355, -12.20681667, 43.25650406, -38.81905746, -0.90616781, -108.21397400, 104.58885193, 0.34957471, -152.27455139, 0.14419453, -0.19137087, 0.76766860, 0.59436530, 0.26383251, -0.01976365, -0.05814119, 100.36200714, 80.47180176, 32.25999832, 0.00000000
1, 0.2749, 33, -0.22607097, -0.97502565, 0.29824719, 11.64584351, -10.88334179, 42.94860840, -39.87138367, -0.46769950, -108.21397400, 104.64934540, 0.14268793, -152.37927246, 0.14493887, -0.18967427, 0.76842332, 0.59375262, 0.22877200, 0.00698172, -0.04776659, 100.36200714, 80.47180176, 32.25999832, 0.00000000
1, 0.1552, 24, 0.52392578, -0.88934326, 0.25793457, 5.90953302, -28.87610245, 23.13391304, -17.45103836, -3.12774038, -104.85237885, 146.85998535, 34.77041245, -134.27447510, -0.15814619, -0.43389684, 0.80971980, 0.36204582, 0.04615557, 0.44047797, 0.43019837, 100.34900665, 81.56245422, 32.21999741, 0.00000000
1, 0.1602, 25, 0.48931885, -0.89685059, 0.26129150, 4.12453222, -29.64610481, 24.18391609, -17.45103836, -3.12774038, -104.85237885, 146.75389099, 34.82825851, -134.49652100, -0.15888944, -0.43254507, 0.81003720, 0.36262777, 0.08159340, 0.44707322, 0.42555591, 100.34900665, 81.56245422, 32.21999741, 0.00000000
1, 0.1802, 26, 0.35540771, -0.96264648, 0.36633301, -1.61546922, -23.41610336, 31.25391769, -19.17568016, -3.47851491, -105.17392731, 146.21643066, 34.97196579, -135.43827820, -0.16096574, -0.42681307, 0.81139618, 0.36545441, 0.21774268, 0.50741911, 0.31503800, 100.34900665, 81.56245422, 32.21999741, 0.00000000
1, 0.1852, 27, 0.30914307, -0.99932861, 0.37896729, -2.00046945, -21.42110062, 33.24891663, -19.17568016, -3.47851491, -105.17392731, 146.06813049, 34.96829224, -135.67958069, -0.16115643, -0.42530775, 0.81183177, 0.36615720, 0.26400727, 0.54234791, 0.30122906, 100.34900665, 81.56245422, 32.21999741, 0.00000000
1, 0.3299, 34, -0.14539981, -0.96235549, 0.24331753, 9.75959301, -21.84265518, 46.11146545, -41.39140701, 0.20461853, -107.16164398, 105.28617859, -1.92657781, -154.03982544, 0.14929271, -0.16857263, 0.77674228, 0.58818901, 0.11202052, -0.00221072, 0.01801068, 100.36200714, 80.47180176, 32.25999832, 0.00000000
1, 0.3349, 35, -0.11794446, -0.96997213, 0.23621187, 10.32238293, -18.60899925, 45.09475327, -41.39140701, 0.20461853, -107.16164398, 105.34362030, -2.11959362, -154.18885803, 0.14974493, -0.16663605, 0.77746081, 0.58767653, 0.08120816, 0.00579086, 0.02609610, 100.36200714, 80.47180176, 32.25999832, 0.00000000
1, 0.3399, 36, -0.10385343, -0.97628200, 0.23197046, 10.70864487, -18.34600639, 44.43011475, -42.09295654, -0.29231218, -107.42472839, 105.40338898, -2.30958867, -154.33596802, 0.15018538, -0.16473043, 0.77817887, 0.58715069, 0.06379790, 0.01250271, 0.03132454, 100.36200714, 80.47180176, 32.25999832, 0.00000000
1, 0.3449, 37, -0.11291161, -0.99182212, 0.23709901, 10.49379730, -18.36770439, 43.80139542, -42.09295654, -0.29231218, -107.42472839, 105.46255493, -2.49637151, -154.48257446, 0.15060985, -0.16284345, 0.77888352, 0.58663380, 0.06957401, 0.02844030, 0.02711422, 100.36200714, 80.47180176, 32.25999832, 0.00000000
1, 0.3499, 38, -0.14796399, -1.00273275, 0.24295165, 10.43498898, -16.60922813, 43.07290649, -42.03449249, 0.14615609, -107.04472351, 105.52147675, -2.68183255, -154.61991882, 0.15107512, -0.16102517, 0.77956647, 0.58610868, 0.10137229, 0.03975275, 0.02210314, 100.36200714, 80.47180176, 32.25999832, 0.00000000
1, 0.1902, 28, 0.26239014, -1.04010010, 0.38806152, -2.14046955, -18.51609993, 34.89391708, -19.17568016, -3.47851491, -105.17392731, 145.92012024, 34.94746399, -135.91921997, -0.16121487, -0.42379037, 0.81231374, 0.36682150, 0.31052414, 0.58126789, 0.29108641, 100.34900665, 81.56245422, 32.21999741, 0.00000000
1, 0.1952, 29, 0.21820068, -1.06640625, 0.37176514, -1.96546936, -14.59609890, 36.04891968, -19.02952385, -3.33235884, -105.46623993, 145.77749634, 34.90666962, -136.15112305, -0.16111863, -0.42229223, 0.81284499, 0.36741418, 0.35420546, 0.60565972, 0.30651477, 100.34900665, 81.56245422, 32.21999741, 0.00000000
1, 0.2002, 30, 0.18743896, -1.09350586, 0.34783936, -0.77546901, -8.64609718, 36.71391678, -19.02952385, -3.33235884, -105.46623993, 145.65095520, 34.83898544, -136.36567688, -0.16082217, -0.42085639, 0.81344712, 0.36785865, 0.38410217, 0.63087308, 0.32988584, 100.34900665, 81.56245422, 32.21999741, 0.00000000
1, 0.3549, 39, -0.18239853, -1.00858283, 0.24106623, 11.24651146, -13.27727318, 42.40589905, -42.03449249, 0.14615609, -107.04472351, 105.58406830, -2.86836123, -154.74050903, 0.15163013, -0.15931967, 0.78024012, 0.58553475, 0.13256857, 0.04604294, 0.02488807, 100.36200714, 80.47180176, 32.25999832, 0.00000000
1, 0.3599, 40, -0.21489483, -1.01525307, 0.23630309, 11.13842869, -10.33978558, 41.88140488, -42.91143036, 0.20461853, -107.27857208, 105.64575195, -3.05616260, -154.84646606, 0.15227178, -0.15770589, 0.78088480, 0.58494532, 0.16180608, 0.05317352, 0.03056167, 100.36200714, 80.47180176, 32.25999832, 0.00000000
1, 0.3649, 41, -0.23495099, -0.99031103, 0.23911075, 10.21061516, -7.42687464, 40.63066864, -42.91143036, 0.20461853, -107.27857208, 105.70227814, -3.24175525, -154.93690491, 0.15298642, -0.15620233, 0.78147513, 0.58437371, 0.17860213, 0.02866918, 0.02866898, 100.36200714, 80.47180176, 32.25999832, 0.00000000
1, 0.3699, 42, -0.22001457, -0.97069049, 0.24109018, 10.24205399, -4.43496180, 39.33454514, -42.91143036, 0.20461853, -107.27857208, 105.75830078, -3.42505646, -155.01136780, 0.15376924, -0.15481903, 0.78203464, 0.58378756, 0.16046543, 0.00948466, 0.02764232, 100.36200714, 80.47180176, 32.25999832, 0.00000000
1, 0.3749, 43, -0.18093760, -0.94896066, 0.24187760, 10.91184139, -1.29727912, 37.99871826, -42.94065857, -0.99386144, -107.22010803, 105.81477356, -3.61535859, -155.06858826, 0.15468776, -0.15351781, 0.78257591, 0.58316296, 0.11813949, -0.01178652, 0.02789082, 100.36200714, 80.47180176, 32.25999832, 0.00000000
1, 0.2052, 31, 0.18444824, -1.11718750, 0.33850098, -0.14546880, -1.57609439, 37.09892273, -20.14031029, -3.27389646, -105.70008850, 145.54080200, 34.74067688, -136.55744934, -0.16027972, -0.41951481, 0.81411380, 0.36815265, 0.38579711, 0.65269727, 0.33904517, 100.34900665, 81.56245422, 32.21999741, 0.00000000
1, 0.2102, 32, 0.21728516, -1.12451172, 0.31658936, -1.72046936, 7.17390919, 36.08392334, -20.14031029, -3.27389646, -105.70008850, 145.44338989, 34.60890961, -136.71353149, -0.15941352, -0.41835979, 0.81479579, 0.36833447, 0.35119960, 0.65814030, 0.36114377, 100.34900665, 81.56245422, 32.21999741, 0.00000000
1, 0.2152, 33, 0.25811768, -1.09210205, 0.28485107, -3.92547035, 13.99891090, 34.19392014, -20.14031029, -3.27389646, -105.70008850, 145.35424805, 34.45421219, -136.83610535, -0.15829439, -0.41739589, 0.81545323, 0.36845592, 0.30819908, 0.62380981, 0.39337254, 100.34900665, 81.56245422, 32.21999741, 0.00000000
1, 0.4149, 44, -0.29533452, -0.95608807, 0.29660302, 13.29958916, -0.12032457, 31.86224174, -44.28529739, 0.02923122, -106.81087494, 106.35820007, -4.94473267, -155.40028381, 0.16129196, -0.14511359, 0.78691703, 0.57765788, 0.20905784, -0.00048849, -0.01858735, 100.36200714, 80.47180176, 32.25999832, 0.00000000
1, 0.4199, 45, -0.33293554, -0.95978808, 0.25558931, 12.74593449, 1.32627547, 30.88725662, -44.28529739, 0.02923122, -106.81087494, 106.42556763, -5.09467363, -155.43736267, 0.16203550, -0.14417900, 0.78742510, 0.57699102, 0.24414268, 0.00383241, 0.02340183, 100.36200714, 80.47180176, 32.25999832, 0.00000000
1, 0.2202, 34, 0.29589844, -1.04113770, 0.25097656, -4.62547064, 17.74391174, 32.54891586, -19.64337921, -2.80619693, -105.64162445, 145.27412415, 34.28863907, -136.93707275, -0.15705527, -0.41655442, 0.81609309, 0.36852166, 0.26806659, 0.57094789, 0.42789343, 100.34900665, 81.56245422, 32.21999741, 0.00000000
1, 0.2252, 35, 0.32806396, -0.98675537, 0.22210693, -4.13547039, 19.91391373, 31.39391708, -19.64337921, -2.80619693, -105.64162445, 145.20437622, 34.11735153, -137.02435303, -0.15576600, -0.41578454, 0.81673259, 0.36852166, 0.23344664, 0.51476014, 0.45754442, 100.34900665, 81.56245422, 32.21999741, 0.00000000
1, 0.4249, 46, -0.34377941, -0.95869458, 0.26323998, 12.96314335, 3.68987656, 29.71400452, -45.16223145, 0.49693072, -106.19701385, 106.49222565, -5.26242876, -155.45996094, 0.16297445, -0.14325154, 0.78792322, 0.57627702, 0.25221166, 0.00329172, 0.01676633, 100.36200714, 80.47180176, 32.25999832, 0.00000000
1, 0.4299, 47, -0.33987990, -0.95717359, 0.27959797, 13.27426147, 6.91152620, 27.64864922, -45.16223145, 0.49693072, -106.19701385, 106.55950165, -5.40464067, -155.46589661, 0.16382417, -0.14257219, 0.78838116, 0.57557803, 0.24560255, 0.00231393, 0.00147334, 100.36200714, 80.47180176, 32.25999832, 0.00000000
1, 0.4349, 48, -0.32826516, -0.95492709, 0.28713667, 12.53608227, 8.69317532, 25.70253944, -45.19146347, 0.32154340, -107.07395172, 106.62198639, -5.54005861, -155.46063232, 0.16469054, -0.14199895, 0.78879404, 0.57490641, 0.23158649, 0.00058864, -0.00503513, 100.36200714, 80.47180176, 32.25999832, 0.00000000
1, 0.2702, 36, 0.20025635, -0.87634277, 0.25848389, 8.67453480, 9.06391048, 42.41892624, -20.98801422, -3.82928967, -105.61239624, 144.72340393, 32.79548264, -138.18881226, -0.14759725, -0.40613168, 0.82351846, 0.36754546, 0.34197658, 0.39124393, 0.42756438, 100.34900665, 81.56245422, 32.21999741, 0.00000000
1, 0.2752, 37, 0.18847656, -0.91412354, 0.28210449, 9.51453495, 8.25890923, 44.93892288, -20.98801422, -3.82928967, -105.61239624, 144.66851807, 32.63192368, -138.37840271, -0.14674810, -0.40458721, 0.82451880, 0.36734587, 0.35136643, 0.42749560, 0.40474504, 100.34900665, 81.56245422, 32.21999741, 0.00000000
1, 0.2802, 38, 0.19073486, -0.93176270, 0.29919434, 9.65453529, 6.82390833, 46.68892670, -21.22186470, -3.82928967, -105.67085266, 144.60787964, 32.46899414, -138.58081055, -0.14592436, -0.40295422, 0.82553965, 0.36717620, 0.34670371, 0.44353271, 0.38840339, 100.34900665, 81.56245422, 32.21999741, 0.00000000
1, 0.2852, 39, 0.21112061, -0.94787598, 0.31506348, 9.79453373, 4.75890779, 48.50893021, -21.22186470, -3.82928967, -105.67085266, 144.54020691, 32.30902100, -138.79853821, -0.14514762, -0.40121979, 0.82657772, 0.36704770, 0.32395533, 0.45798665, 0.37319639, 100.34900665, 81.56245422, 32.21999741, 0.00000000
1, 0.2902, 40, 0.22766113, -0.95208740, 0.31829834, 10.77453518, 4.30390787, 49.97892761, -21.22186470, -3.82928967, -105.67085266, 144.47369385, 32.14640427, -139.02429199, -0.14438021, -0.39941692, 0.82765049, 0.36689937, 0.30502710, 0.46051031, 0.37061000, 100.34900665, 81.56245422, 32.21999741, 0.00000000
1, 0.4399, 49, -0.31306949, -0.94782305, 0.28412920, 12.11210823, 10.96499920, 23.76411057, -45.19146347, 0.32154340, -107.07395172, 106.68099976, -5.66943026, -155.44183350, 0.16558863, -0.14154604, 0.78916657, 0.57424855, 0.21412548, -0.00600150, -0.00104883, 100.36200714, 80.47180176, 32.25999832, 0.00000000
1, 0.4449, 50, -0.29205623, -0.95422602, 0.27925566, 12.54865742, 12.74792576, 22.18865013, -45.19146347, 0.32154340, -107.07395172, 106.74105072, -5.79382324, -155.41227722, 0.16650556, -0.14119504, 0.78952599, 0.57357520, 0.19094443, 0.00091509, 0.00479460, 100.36200714, 80.47180176, 32.25999832, 0.00000000
1, 0.4499, 51, -0.27205205, -0.96905088, 0.28023255, 12.83908653, 14.93811512, 21.01033020, -44.84069061, -2.66004086, -106.19701385, 106.80126190, -5.91573954, -155.37062073, 0.16746625, -0.14094146, 0.78986835, 0.57288623, 0.16881242, 0.01624786, 0.00478366, 100.36200714, 80.47180176, 32.25999832, 0.00000000
1, 0.2952, 41, 0.25103760, -0.96130371, 0.32434082, 11.40453434, 3.88390732, 50.46892548, -22.09880066, -4.23852682, -104.94007111, 144.40919495, 31.98386002, -139.25318909, -0.14363039, -0.39758360, 0.82873499, 0.36673680, 0.27924183, 0.46807086, 0.36524203, 100.34900665, 81.56245422, 32.21999741, 0.00000000
1, 0.3002, 42, 0.27764893, -0.96661377, 0.32287598, 10.56453514, 3.28890705, 50.08392334, -22.09880066, -4.23852682, -104.94007111, 144.34126282, 31.82462883, -139.48168945, -0.14289294, -0.39575800, 0.82979149, 0.36661074, 0.25025976, 0.47171593, 0.36733276, 100.34900665, 81.56245422, 32.21999741, 0.00000000
1, 0.3052, 43, 0.29895020, -0.96545410, 0.31414795, 9.16453457, 3.49890733, 49.20892334, -22.42034531, -4.41391420, -105.32008362, 144.26976013, 31.66686440, -139.70466614, -0.14213699, -0.39397416, 0.83080757, 0.36652443, 0.22661343, 0.46885628, 0.37662917, 100.34900665, 81.56245422, 32.21999741, 0.00000000
1, 0.4549, 52, -0.24698193, -0.97540081, 0.29460320, 12.84993362, 16.74037552, 19.93148041, -44.84069061, -2.66004086, -106.19701385, 106.86035156, -6.03512573, -155.31883240, 0.16846161, -0.14076999, 0.79018980, 0.57219291, 0.14162058, 0.02308027, -0.00861147, 100.36200714, 80.47180176, 32.25999832, 0.00000000
1, 0.4599, 53, -0.22509035, -0.98327208, 0.31259903, 12.70379639, 16.76996803, 18.63711739, -45.83454895, 0.58462435, -106.25547791, 106.91841125, -6.14841652, -155.26513672, 0.16942629, -0.14064252, 0.79049814, 0.57151312, 0.11768818, 0.03141892, -0.02565824, 100.36200714, 80.47180176, 32.25999832, 0.00000000
1, 0.3102, 44, 0.31445313, -0.95916748, 0.30291748, 8.04453468, 4.30390787, 48.01892471, -22.42034531, -4.41391420, -105.32008362, 144.19792175, 31.50906944, -139.91860962, -0.14135100, -0.39225149, 0.83178657, 0.36645582, 0.20876572, 0.46085903, 0.38840756, 100.34900665, 81.56245422, 32.21999741, 0.00000000
1, 0.4699, 54, -0.21309116, -0.97939718, 0.30607560, 11.67904949, 15.73258686, 16.48725128, -45.83454895, 0.58462435, -106.25547791, 107.02674866, -6.35610056, -155.16250610, 0.17121267, -0.14044304, 0.79106545, 0.57024330, 0.10205297, 0.02849082, -0.01739443, 100.36200714, 80.47180176, 32.25999832, 0.00000000
1, 0.4749, 55, -0.22120547, -0.96563601, 0.32125765, 11.24841022, 15.79112148, 15.33740425, -45.39608383, 0.40923706, -106.54779053, 107.08035278, -6.46275902, -155.10783386, 0.17214200, -0.14035231, 0.79134315, 0.56960022, 0.10834609, 0.01516313, -0.03175937, 100.36200714, 80.47180176, 32.25999832, 0.00000000
1, 0.3152, 45, 0.32049561, -0.95910645, 0.29290771, 7.48453426, 4.37390757, 46.93392563, -22.42034531, -4.41391420, -105.32008362, 144.12692261, 31.35394287, -140.12655640, -0.14056957, -0.39057097, 0.83273470, 0.36639795, 0.20039880, 0.45910448, 0.39894971, 100.34900665, 81.56245422, 32.21999741, 0.00000000
1, 0.4799, 56, -0.23289967, -0.95895720, 0.33126938, 11.42254639, 15.75895309, 13.82717609, -45.39608383, 0.40923706, -106.54779053, 107.13133240, -6.55178928, -155.05230713, 0.17295898, -0.14035492, 0.79159319, 0.56900430, 0.11835639, 0.00891460, -0.04097793, 100.36200714, 80.47180176, 32.25999832, 0.00000000
1, 0.4849, 57, -0.25762841, -0.95486808, 0.33963263, 10.81576538, 15.61372185, 12.39430046, -45.51300812, 0.58462435, -106.31394196, 107.17903900, -6.63380432, -154.99545288, 0.17373887, -0.14039861, 0.79181981, 0.56844056, 0.14160655, 0.00522134, -0.04863768, 100.36200714, 80.47180176, 32.25999832, 0.00000000
1, 0.4899, 58, -0.27868551, -0.95866847, 0.33434188, 10.38512707, 15.67225361, 11.24445438, -45.51300812, 0.58462435, -106.31394196, 107.22428131, -6.71047068, -154.93664551, 0.17449473, -0.14047994, 0.79202735, 0.56789953, 0.16132396, 0.00941578, -0.04269358, 100.36200714, 80.47180176, 32.25999832, 0.00000000
1, 0.4302, 46, 0.05114746, -1.05163574, 0.31555176, -5.81547117, 20.26391220, 53.72392273, -26.45425224, -5.64162540, -105.08622742, 141.85656738, 27.52573013, -144.67044067, -0.11793814, -0.35262769, 0.85110182, 0.37063465, 0.41195321, 0.50455314, 0.38175526, 100.34900665, 81.56245422, 32.21999741, 0.00000000
1, 0.4352, 47, 0.03405762, -1.04943848, 0.32336426, -6.97047138, 20.57891464, 54.00392532, -26.45425224, -5.64162540, -105.08622742, 141.74468994, 27.27789116, -144.83778381, -0.11619294, -0.35098970, 0.85192323, 0.37085360, 0.42520985, 0.49977326, 0.37444684, 100.34900665, 81.56245422, 32.21999741, 0.00000000
1, 0.4402, 48, 0.02160645, -1.04174805, 0.33233643, -8.12547207, 22.29391479, 53.75892639, -26.86348915, -5.61239386, -104.67699432, 141.63134766, 27.02378845, -144.99713135, -0.11436951, -0.34939215, 0.85272527, 0.37108555, 0.43374392, 0.48946065, 0.36597100, 100.34900665, 81.56245422, 32.21999741, 0.00000000
1, 0.4949, 59, -0.28921083, -0.95749784, 0.33409604, 10.11335564, 17.26812935, 9.95396996, -45.51300812, 0.58462435, -106.31394196, 107.26692963, -6.78337383, -154.86831665, 0.17527519, -0.14064316, 0.79220712, 0.56736755, 0.17057261, 0.00861151, -0.04180094, 100.36200714, 80.47180176, 32.25999832, 0.00000000
1, 0.4999, 60, -0.27110186, -0.94922590, 0.34410176, 9.87641144, 18.93310738, 8.69974136, -45.71762466, 1.31540489, -106.02162933, 107.30714417, -6.85279703, -154.79016113, 0.17608333, -0.14088905, 0.79236001, 0.56684279, 0.15121880, 0.00067197, -0.05111681, 100.36200714, 80.47180176, 32.25999832, 0.00000000
1, 0.5049, 61, -0.24584737, -0.95125294, 0.35825372, 9.36606503, 19.68885040, 7.49742460, -45.71762466, 1.31540489, -106.02162933, 107.34403229, -6.91765022, -154.70660400, 0.17689072, -0.14119105, 0.79248601, 0.56633979, 0.12478565, 0.00300350, -0.06462058, 100.36200714, 80.47180176, 32.25999832, 0.00000000
1, 0.5099, 62, -0.21567275, -0.94901252, 0.33961025, 8.25732517, 19.91791344, 6.25511980, -45.30838776, -2.83542824, -106.40163422, 107.37494659, -6.97697926, -154.62011719, 0.17768204, -0.14153284, 0.79257452, 0.56588280, 0.09360418, 0.00108308, -0.04540149, 100.36200714, 80.47180176, 32.25999832, 0.00000000
1, 0.5149, 63, -0.19229455, -0.94385946, 0.31825250, 8.14120483, 20.46411705, 5.21805096, -45.30838776, -2.83542824, -106.40163422, 107.40465546, -7.03222084, -154.52946472, 0.17846715, -0.14192283, 0.79264861, 0.56543410, 0.06930760, -0.00376834, -0.02352490, 100.36200714, 80.47180176, 32.25999832, 0.00000000
1, 0.4452, 49, 0.01159668, -1.02661133, 0.33691406, -8.89547253, 23.69391441, 53.44392776, -26.86348915, -5.61239386, -104.67699432, 141.51802063, 26.76490021, -145.14932251, -0.11248657, -0.34783047, 0.85351133, 0.37132078, 0.43974924, 0.47167468, 0.36189252, 100.34900665, 81.56245422, 32.21999741, 0.00000000
1, 0.4502, 50, 0.01098633, -1.01623535, 0.34613037, -9.52547264, 26.07391548, 53.47892380, -26.86348915, -5.61239386, -104.67699432, 141.40623474, 26.49633026, -145.29244995, -0.11050414, -0.34630686, 0.85429370, 0.37154108, 0.43621311, 0.45863304, 0.35321984, 100.34900665, 81.56245422, 32.21999741, 0.00000000
1, 0.4552, 51, 0.01373291, -1.00805664, 0.35351563, -9.73547173, 28.55891800, 53.79392624, -26.19117165, -5.96316862, -104.64776611, 141.29765320, 26.21682930, -145.42733765, -0.10842002, -0.34481034, 0.85508335, 0.37173054, 0.42914069, 0.44777289, 0.34644413, 100.34900665, 81.56245422, 32.21999741, 0.00000000
1, 0.5399, 64, -0.21638516, -0.93956268, 0.31112748, 7.35414791, 14.45065975, 2.94655418, -45.04530716, 1.37386727, -105.78778076, 107.56118011, -7.25347376, -154.13887024, 0.18169506, -0.14373860, 0.79309118, 0.56332272, 0.08950133, -0.00677023, -0.01400740, 100.36200714, 80.47180176, 32.25999832, 0.00000000
1, 0.5449, 65, -0.22964537, -0.94446361, 0.27505171, 7.08971548, 15.73636913, 2.98056579, -45.04530716, 1.37386727, -105.78778076, 107.58766174, -7.29123878, -154.06770325, 0.18226743, -0.14408010, 0.79315907, 0.56295496, 0.10221162, -0.00159082, 0.02244980, 100.36200714, 80.47180176, 32.25999832, 0.00000000
1, 0.5499, 66, -0.21436740, -0.93530130, 0.26995856, 7.50691032, 19.37311745, 2.53615546, -45.48377609, 1.19848001, -105.40777588, 107.61386108, -7.33238554, -153.97837830, 0.18295181, -0.14452974, 0.79320484, 0.56255311, 0.08624707, -0.01052253, 0.02800037, 100.36200714, 80.47180176, 32.25999832, 0.00000000
1, 0.5549, 67, -0.17953174, -0.92927349, 0.28940186, 7.30805159, 21.01839066, 2.12222409, -45.48377609, 1.19848001, -105.40777588, 107.63790131, -7.37407541, -153.88052368, 0.18368399, -0.14503241, 0.79322916, 0.56215066, 0.05064055, -0.01636311, 0.00903589, 100.36200714, 80.47180176, 32.25999832, 0.00000000
1, 0.5599, 68, -0.14061405, -0.92633808, 0.29309791, 6.63120222, 20.99007416, 1.60438275, -45.30838776, 0.76001167, -106.22624969, 107.65839386, -7.41330194, -153.78204346, 0.18440662, -0.14554664, 0.79323310, 0.56177551, 0.01102370, -0.01910777, 0.00576571, 100.36200714, 80.47180176, 32.25999832, 0.00000000
1, 0.4602, 52, 0.00354004, -1.00262451, 0.35131836, -9.87547207, 30.69391823, 54.07392883, -26.19117165, -5.96316862, -104.64776611, 141.19210815, 25.92790794, -145.55513000, -0.10624876, -0.34333611, 0.85587859, 0.37189165, 0.43484193, 0.43966377, 0.34932050, 100.34900665, 81.56245422, 32.21999741, 0.00000000
1, 0.4652, 53, 0.01770020, -0.99664307, 0.34094238, -9.77047157, 33.38891602, 54.56392670, -27.53580856, -5.05700064, -104.64776611, 141.09123230, 25.62673569, -145.67472839, -0.10396965, -0.34188414, 0.85668886, 0.37200785, 0.41600296, 0.43101037, 0.36045584, 100.34900665, 81.56245422, 32.21999741, 0.00000000
1, 0.5649, 69, -0.12467393, -0.93222260, 0.29456896, 6.70337200, 20.85647774, 1.38996661, -45.30838776, 0.76001167, -106.22624969, 107.67922974, -7.45133018, -153.68388367, 0.18511866, -0.14606549, 0.79323775, 0.56139988, -0.00558162, -0.01303642, 0.00463488, 100.36200714, 80.47180176, 32.25999832, 0.00000000
1, 0.5699, 70, -0.12120406, -0.95045757, 0.29607955, 7.12583256, 21.20920181, 1.35794413, -45.30838776, 0.76001167, -106.22624969, 107.70187378, -7.48977900, -153.58396912, 0.18583930, -0.14659739, 0.79324895, 0.56100720, -0.00971713, 0.00539608, 0.00344451, 100.36200714, 80.47180176, 32.25999832, 0.00000000
1, 0.5749, 71, -0.12811689, -0.96910143, 0.29737332, 7.01496029, 21.61928558, 1.64954746, -44.51914597, 0.11692487, -106.34317017, 107.72206879, -7.52948856, -153.48271179, 0.18657780, -0.14712851, 0.79324687, 0.56062591, -0.00349365, 0.02423609, 0.00242714, 100.36200714, 80.47180176, 32.25999832, 0.00000000
1, 0.5352, 54, 0.06805420, -0.95257568, 0.29516602, -14.49547291, 29.43391800, 54.14392471, -29.08506203, -4.53083897, -105.34931183, 139.65394592, 21.35796165, -147.30635071, -0.07152774, -0.32093117, 0.86712527, 0.37414008, 0.29730195, 0.35029063, 0.41459876, 100.34900665, 81.56245422, 32.21999741, 0.00000000
1, 0.5402, 55, 0.06018066, -0.95031738, 0.28692627, -14.49547291, 29.08391762, 53.61892700, -29.87430573, -4.70622635, -105.29084778, 139.53880310, 21.07345200, -147.42424011, -0.06934876, -0.31942129, 0.86772692, 0.37444723, 0.30054092, 0.34542739, 0.42299354, 100.34900665, 81.56245422, 32.21999741, 0.00000000
1, 0.5799, 72, -0.13254002, -0.97633684, 0.29311386, 6.87585020, 21.37268829, 1.71554482, -44.51914597, 0.11692487, -106.34317017, 107.74330139, -7.56995487, -153.38258362, 0.18731402, -0.14764975, 0.79325145, 0.56023687, 0.00024526, 0.03167493, 0.00697624, 100.36200714, 80.47180176, 32.25999832, 0.00000000
1, 0.5849, 73, -0.12729909, -0.96938157, 0.30167806, 6.54981661, 21.82652283, 1.55525148, -44.89915085, 0.84770536, -106.08009338, 107.76252747, -7.61040354, -153.28001404, 0.18806410, -0.14818481, 0.79324257, 0.55985677, -0.00571566, 0.02489906, -0.00126390, 100.36200714, 80.47180176, 32.25999832, 0.00000000
1, 0.5452, 56, 0.09277344, -0.95068359, 0.30102539, -14.14547348, 28.73391533, 52.81392670, -29.87430573, -4.70622635, -105.29084778, 139.42700195, 20.79267883, -147.53924561, -0.06720056, -0.31793281, 0.86831576, 0.37474081, 0.26334840, 0.34325591, 0.40905020, 100.34900665, 81.56245422, 32.21999741, 0.00000000
1, 0.5502, 57, 0.08520508, -0.95239258, 0.30584717, -14.67047310, 27.33391380, 51.90392685, -29.87430573, -4.70622635, -105.29084778, 139.31294250, 20.51996613, -147.65461731, -0.06511252, -0.31645516, 0.86887294, 0.37506834, 0.26643300, 0.34245390, 0.40431044, 100.34900665, 81.56245422, 32.21999741, 0.00000000
1, 0.5552, 58, 0.09283447, -0.94848633, 0.29986572, -15.19547367, 26.03891563, 51.34392548, -30.80970383, -4.96930695, -105.26161957, 139.19627380, 20.25376701, -147.77145386, -0.06307505, -0.31497684, 0.86940432, 0.37542945, 0.25442433, 0.33604518, 0.41029319, 100.34900665, 81.56245422, 32.21999741, 0.00000000
1, 0.6149, 74, -0.06975406, -0.93535221, 0.33162403, 4.17221308, 24.37730408, 1.82157767, -44.89915085, 0.55539316, -105.87547302, 107.80802155, -7.86994410, -152.59861755, 0.19308177, -0.15165229, 0.79276443, 0.55789399, -0.06780066, -0.00834535, -0.03039531, 100.36200714, 80.47180176, 32.25999832, 0.00000000
1, 0.6199, 75, -0.07437238, -0.94663596, 0.32631317, 4.06950760, 24.15582466, 2.30833650, -44.89915085, 0.55539316, -105.87547302, 107.81294250, -7.91764688, -152.48599243, 0.19394538, -0.15219653, 0.79267466, 0.55757380, -0.06398475, 0.00308188, -0.02506428, 100.36200714, 80.47180176, 32.25999832, 0.00000000
1, 0.5602, 59, 0.11187744, -0.94036865, 0.29327393, -14.91547489, 24.56891632, 50.71392441, -30.80970383, -4.96930695, -105.26161957, 139.08087158, 19.99496460, -147.89010620, -0.06110709, -0.31349549, 0.86992186, 0.37579596, 0.23111278, 0.32546452, 0.41683134, 100.34900665, 81.56245422, 32.21999741, 0.00000000
1, 0.5652, 60, 0.10028076, -0.93994141, 0.29956055, -14.63547516, 23.06391335, 50.04892349, -30.60508537, -5.58316278, -106.31394196, 138.96675110, 19.74380302, -148.01057434, -0.05921059, -0.31201199, 0.87042522, 0.37616822, 0.23855810, 0.32262912, 0.41044828, 100.34900665, 81.56245422, 32.21999741, 0.00000000
1, 0.5702, 61, 0.07855225, -0.94427490, 0.30377197, -14.32047367, 22.74891472, 49.41893005, -30.60508537, -5.58316278, -106.31394196, 138.85540771, 19.49567223, -148.12895203, -0.05734032, -0.31054446, 0.87091917, 0.37652892, 0.25620139, 0.32461509, 0.40612981, 100.34900665, 81.56245422, 32.21999741, 0.00000000
1, 0.6249, 76, -0.07883683, -0.94718826, 0.31969562, 3.68889427, 23.37570381, 2.75026536, -44.95761490, 0.52616191, -106.10932159, 107.81892395, -7.95759296, -152.37847900, 0.19472994, -0.15274675, 0.79259050, 0.55726922, -0.06026715, 0.00377320, -0.01840694, 100.36200714, 80.47180176, 32.25999832, 0.00000000
1, 0.6299, 77, -0.09028117, -0.95118582, 0.31667763, 3.30911636, 22.49449158, 3.04956579, -44.95761490, 0.52616191, -106.10932159, 107.82113647, -8.00632191, -152.27497864, 0.19555891, -0.15321803, 0.79249966, 0.55697876, -0.04958023, 0.00789769, -0.01539496, 100.36200714, 80.47180176, 32.25999832, 0.00000000
1, 0.6349, 78, -0.09863193, -0.94770217, 0.31968993, 3.06677723, 22.06205940, 3.56812620, -44.25606537, 1.31540489, -106.51856232, 107.82244110, -8.05686665, -152.17434692, 0.19638699, -0.15365863, 0.79240924, 0.55669463, -0.04210249, 0.00453258, -0.01843670, 100.36200714, 80.47180176, 32.25999832, 0.00000000
1, 0.5752, 62, 0.07202148, -0.94128418, 0.31182861, -13.86547279, 23.02891541, 48.78892517, -30.60508537, -5.58316278, -106.31394196, 138.74821472, 19.24835014, -148.24311829, -0.05547559, -0.30910257, 0.87140751, 0.37686470, 0.25866130, 0.31933829, 0.39798188, 100.34900665, 81.56245422, 32.21999741, 0.00000000
1, 0.5802, 63, 0.07550049, -0.94055176, 0.31158447, -13.48047256, 22.71391487, 48.15892410, -31.33586693, -5.72931862, -105.70008850, 138.64407349, 19.00409698, -148.35522461, -0.05363806, -0.30767667, 0.87188792, 0.37718639, 0.25113869, 0.31637922, 0.39814392, 100.34900665, 81.56245422, 32.21999741, 0.00000000
1, 0.5902, 64, 0.03137207, -0.95831299, 0.32452393, -13.16547298, 21.24391365, 46.37392807, -31.16047859, -5.17392588, -105.93393707, 138.44113159, 18.53149223, -148.57521057, -0.05009323, -0.30487877, 0.87280399, 0.37782675, 0.28741705, 0.32984644, 0.38498446, 100.34900665, 81.56245422, 32.21999741, 0.00000000
1, 0.5952, 65, 0.02117920, -0.96325684, 0.32159424, -13.30547237, 21.59391403, 45.60392380, -31.16047859, -5.17392588, -105.93393707, 138.34172058, 18.29935265, -148.67933655, -0.04834191, -0.30352634, 0.87323612, 0.37814483, 0.29376575, 0.33270064, 0.38777694, 100.34900665, 81.56245422, 32.21999741, 0.00000000
1, 0.6399, 79, -0.10675642, -0.94305587, 0.32248157, 3.03938460, 21.49312401, 4.04564428, -44.25606537, 1.31540489, -106.51856232, 107.82402802, -8.10882568, -152.07716370, 0.19720706, -0.15406853, 0.79232550, 0.55641049, -0.03487621, 0.00000969, -0.02125525, 100.36200714, 80.47180176, 32.25999832, 0.00000000
1, 0.6449, 80, -0.12718728, -0.94650495, 0.31063515, 2.82768679, 21.44640160, 4.46785212, -44.25606537, 1.31540489, -106.51856232, 107.82458496, -8.16272640, -151.98085022, 0.19803700, -0.15446071, 0.79223919, 0.55612975, -0.01534007, 0.00360862, -0.00949067, 100.36200714, 80.47180176, 32.25999832, 0.00000000
1, 0.6499, 81, -0.14079288, -0.95020676, 0.30210227, 2.90540838, 20.92240334, 4.55952883, -44.31452560, 1.43232965, -106.08009338, 107.82581329, -8.21627140, -151.88717651, 0.19885047, -0.15483753, 0.79215914, 0.55584866, -0.00264379, 0.00745605, -0.00102530, 100.36200714, 80.47180176, 32.25999832, 0.00000000
1, 0.6549, 82, -0.15485382, -0.94277334, 0.29288015, 3.11857772, 20.98891640, 4.76871395, -44.31452560, 1.43232965, -106.08009338, 107.82803345, -8.27090359, -151.79350281, 0.19966955, -0.15521049, 0.79208452, 0.55555743, 0.01050594, 0.00017791, 0.00816863, 100.36200714, 80.47180176, 32.25999832, 0.00000000
1, 0.6002, 66, 0.02484131, -0.96520996, 0.32128906, -12.85047245, 21.97891426, 45.28892517, -31.16047859, -5.17392588, -105.93393707, 138.24595642, 18.06665230, -148.78031921, -0.04658690, -0.30218974, 0.87366802, 0.37843794, 0.28624642, 0.33261070, 0.38796511, 100.34900665, 81.56245422, 32.21999741, 0.00000000
1, 0.6052, 67, 0.02117920, -0.97625732, 0.31469727, -12.71047306, 22.50391388, 44.93892288, -32.09587860, -4.94007587, -106.08009338, 138.15242004, 17.83300591, -148.87754822, -0.04481927, -0.30087331, 0.87409419, 0.37871614, 0.28603709, 0.34165666, 0.39445651, 100.34900665, 81.56245422, 32.21999741, 0.00000000
1, 0.6102, 68, 0.02233887, -0.98242188, 0.31329346, -12.32547283, 22.78391457, 44.58892441, -32.09587860, -4.94007587, -106.08009338, 138.06208801, 17.59933662, -148.97190857, -0.04305157, -0.29957256, 0.87451822, 0.37897336, 0.28099072, 0.34586349, 0.39577878, 100.34900665, 81.56245422, 32.21999741, 0.00000000
1, 0.6152, 69, 0.00762939, -0.99407959, 0.31506348, -12.22047234, 22.53891373, 44.02892303, -32.68050385, -4.91084480, -106.02162933, 137.97319031, 17.36831284, -149.06445313, -0.04130363, -0.29828745, 0.87493181, 0.37922683, 0.29184398, 0.35560325, 0.39392349, 100.34900665, 81.56245422, 32.21999741, 0.00000000
1, 0.6202, 70, 0.00781250, -1.00524902, 0.32263184, -12.29047203, 22.67891502, 43.36392212, -32.68050385, -4.91084480, -106.02162933, 137.88534546, 17.13886261, -149.15341187, -0.03956025, -0.29702875, 0.87533164, 0.37947813, 0.28783256, 0.36488160, 0.38625646, 100.34900665, 81.56245422, 32.21999741, 0.00000000
1, 0.6252, 71, -0.01287842, -1.01318359, 0.31280518, -13.93547344, 23.41391373, 42.69892120, -32.68050385, -4.91084480, -106.02162933, 137.79125977, 16.90878105, -149.23675537, -0.03777829, -0.29580891, 0.87569255, 0.37977970, 0.30468887, 0.37088352, 0.39592341, 100.34900665, 81.56245422, 32.21999741, 0.00000000
1, 0.6599, 83, -0.15371324, -0.93933296, 0.27715051, 3.10853004, 21.85580254, 4.92971325, -45.01607513, 0.78924292, -105.99240112, 107.82955170, -8.32763290, -151.69589233, 0.20052241, -0.15559873, 0.79200232, 0.55525857, 0.00843351, -0.00309276, 0.02389251, 100.36200714, 80.47180176, 32.25999832, 0.00000000
1, 0.6302, 72, -0.02532959, -1.00653076, 0.30615234, -14.49547291, 24.63891602, 41.89392090, -33.11896896, -4.47237635, -105.75855255, 137.69700623, 16.67674255, -149.31214905, -0.03595545, -0.29463962, 0.87603152, 0.38008365, 0.31327015, 0.36227462, 0.40238363, 100.34900665, 81.56245422, 32.21999741, 0.00000000
1, 0.6352, 73, -0.04254150, -1.00659180, 0.29272461, -15.02047253, 25.75891495, 40.84392548, -33.11896896, -4.47237635, -105.75855255, 137.60282898, 16.44398308, -149.37908936, -0.03410029, -0.29352847, 0.87634581, 0.38038978, 0.32659253, 0.36039004, 0.41560951, 100.34900665, 81.56245422, 32.21999741, 0.00000000
1, 0.7199, 84, -0.13356417, -0.95339406, 0.31610841, 2.30616379, 27.29617882, 8.75008011, -44.75299454, 0.29231218, -106.89856720, 107.79721832, -9.16425610, -150.38002014, 0.21253420, -0.16036284, 0.79066896, 0.55132180, -0.02613040, 0.01283878, -0.01620427, 100.36200714, 80.47180176, 32.25999832, 0.00000000
1, 0.7249, 85, -0.12716353, -0.94715691, 0.30260369, 1.77754247, 27.00127792, 9.24051094, -44.75299454, 0.29231218, -106.89856720, 107.78707886, -9.24476719, -150.26438904, 0.21364300, -0.16073120, 0.79051989, 0.55099970, -0.03391609, 0.00679303, -0.00289679, 100.36200714, 80.47180176, 32.25999832, 0.00000000
1, 0.7299, 86, -0.12242477, -0.94806957, 0.28993475, 1.60088813, 27.08493805, 10.05095387, -44.75299454, 0.29231218, -106.89856720, 107.77659607, -9.33377552, -150.14910889, 0.21480671, -0.16105273, 0.79037577, 0.55065989, -0.04009806, 0.00789964, 0.00953461, 100.36200714, 80.47180176, 32.25999832, 0.00000000
1, 0.7202, 74, 0.09185791, -0.96112061, 0.31805420, -10.85547256, 31.56891632, 35.55891800, -34.14206314, -4.26775789, -106.46009827, 136.18302917, 12.40849590, -150.00079346, -0.00084769, -0.27766594, 0.88048369, 0.38425195, 0.12403024, 0.28526923, 0.38665590, 100.34900665, 81.56245422, 32.21999741, 0.00000000
1, 0.7252, 75, 0.09112549, -0.95941162, 0.31005859, -10.22547150, 31.21891785, 35.69892120, -34.28821945, -4.18006420, -106.34317017, 136.12742615, 12.17227364, -150.02189636, 0.00107411, -0.27681759, 0.88074386, 0.38426697, 0.12073620, 0.28225642, 0.39462182, 100.34900665, 81.56245422, 32.21999741, 0.00000000
1, 0.7302, 76, 0.09002686, -0.95788574, 0.29956055, -9.59547138, 31.35891914, 35.69892502, -34.28821945, -4.18006420, -106.34317017, 136.07518005, 11.93552303, -150.04225159, 0.00299368, -0.27597040, 0.88101077, 0.38425446, 0.11779814, 0.27947244, 0.40511185, 100.34900665, 81.56245422, 32.21999741, 0.00000000
1, 0.7352, 77, 0.08276367, -0.95599365, 0.29840088, -8.33547115, 32.37392044, 35.59392166, -34.28821945, -4.18006420, -106.34317017, 136.03019714, 11.69547367, -150.05838013, 0.00493532, -0.27514324, 0.88129336, 0.38417956, 0.12097549, 0.27641040, 0.40633735, 100.34900665, 81.56245422, 32.21999741, 0.00000000
1, 0.7402, 78, 0.08679199, -0.94805908, 0.29772949, -7.60047150, 34.29891968, 35.41892242, -34.55130005, -5.23238802, -107.01548767, 135.99049377, 11.44909286, -150.06684875, 0.00693921, -0.27435392, 0.88158166, 0.38405153, 0.11276666, 0.26737583, 0.40714318, 100.34900665, 81.56245422, 32.21999741, 0.00000000
1, 0.7349, 87, -0.11296034, -0.94735324, 0.28961402, 1.37977290, 27.90010071, 10.84434605, -44.48991394, -1.14001751, -107.24934387, 107.76439667, -9.42777538, -150.03106689, 0.21601880, -0.16136432, 0.79022306, 0.55031347, -0.05115800, 0.00737326, 0.00960863, 100.36200714, 80.47180176, 32.25999832, 0.00000000
1, 0.7399, 88, -0.09342802, -0.94438744, 0.31323859, 1.44305360, 28.68715858, 11.45818710, -44.48991394, -1.14001751, -107.24934387, 107.75183105, -9.52587128, -149.91014099, 0.21727194, -0.16167396, 0.79006737, 0.54995269, -0.07242216, 0.00456736, -0.01425534, 100.36200714, 80.47180176, 32.25999832, 0.00000000
1, 0.7449, 89, -0.06819763, -0.95150721, 0.32194409, 1.37905467, 28.28360939, 12.29063606, -44.37298965, 0.40923706, -106.75241089, 107.73929596, -9.62729645, -149.79235840, 0.21853125, -0.16194445, 0.78991860, 0.54958779, -0.09940670, 0.01188497, -0.02320275, 100.36200714, 80.47180176, 32.25999832, 0.00000000
1, 0.7499, 90, -0.06705864, -0.95589519, 0.29834470, 1.15315425, 26.58721352, 13.23453808, -44.37298965, 0.40923706, -106.75241089, 107.72704315, -9.73063087, -149.68417358, 0.21975610, -0.16213915, 0.78978592, 0.54923272, -0.10225537, 0.01653344, 0.00009765, 100.36200714, 80.47180176, 32.25999832, 0.00000000
1, 0.7549, 91, -0.06294142, -0.95505238, 0.29798332, 1.05003405, 26.49496269, 14.14500904, -44.37298965, 0.40923706, -106.75241089, 107.71437073, -9.83813381, -149.57778931, 0.22099991, -0.16229902, 0.78965664, 0.54887211, -0.10820277, 0.01592604, 0.00017079, 100.36200714, 80.47180176, 32.25999832, 0.00000000
1, 0.7452, 79, 0.09637451, -0.94586182, 0.29675293, -6.76047134, 36.15391922, 34.75392151, -34.55130005, -5.23238802, -107.01548767, 135.95683289, 11.19835091, -150.06614685, 0.00899322, -0.27362025, 0.88187128, 0.38386735, 0.09891053, 0.26414433, 0.40831718, 100.34900665, 81.56245422, 32.21999741, 0.00000000
1, 0.7502, 80, 0.09783936, -0.95251465, 0.29113770, -6.27047110, 37.79892349, 34.05392075, -35.22361755, -4.20929527, -107.45395660, 135.92726135, 10.94412899, -150.05690002, 0.01109290, -0.27293992, 0.88215584, 0.38364303, 0.09310551, 0.26982906, 0.41418454, 100.34900665, 81.56245422, 32.21999741, 0.00000000
1, 0.7552, 81, 0.11407471, -0.95831299, 0.29278564, -5.57047129, 39.05892181, 33.35392380, -35.22361755, -4.20929527, -107.45395660, 135.90248108, 10.68782234, -150.04052734, 0.01322098, -0.27230653, 0.88243860, 0.38337517, 0.07248291, 0.27472112, 0.41283271, 100.34900665, 81.56245422, 32.21999741, 0.00000000
1, 0.7602, 82, 0.10845947, -0.96582031, 0.29772949, -5.15047073, 39.86392212, 32.51391602, -35.22361755, -4.20929527, -107.45395660, 135.88081360, 10.43155670, -150.01814270, 0.01536094, -0.27171782, 0.88271356, 0.38308015, 0.07370037, 0.28138009, 0.40821552, 100.34900665, 81.56245422, 32.21999741, 0.00000000
1, 0.7652, 83, 0.10723877, -0.97393799, 0.29968262, -5.18547106, 41.33392334, 31.56891632, -35.16515732, -3.91698337, -106.95703125, 135.86045837, 10.17331314, -149.98704529, 0.01754205, -0.27118868, 0.88297105, 0.38276765, 0.07049754, 0.28867784, 0.40659428, 100.34900665, 81.56245422, 32.21999741, 0.00000000
1, 0.7849, 92, -0.04080134, -0.97370625, 0.27038735, 2.99754024, 31.52177238, 20.23396111, -44.92838287, 0.70154923, -107.07395172, 107.66062164, -10.59688377, -148.89451599, 0.22938284, -0.16302209, 0.78900301, 0.54615182, -0.14314753, 0.03654012, 0.02618396, 100.36200714, 80.47180176, 32.25999832, 0.00000000
1, 0.7899, 93, -0.03162972, -0.96644676, 0.26588416, 3.01866817, 32.95904160, 21.31951141, -44.92838287, 0.70154923, -107.07395172, 107.65242767, -10.74820709, -148.76733398, 0.23100317, -0.16310704, 0.78889596, 0.54559779, -0.15487210, 0.02970612, 0.03044748, 100.36200714, 80.47180176, 32.25999832, 0.00000000
1, 0.8052, 84, 0.14636230, -1.04406738, 0.33825684, -3.33046961, 41.22891998, 24.74391365, -35.45746994, -3.94621444, -107.39550018, 135.72854614, 8.21044445, -149.57928467, 0.03461691, -0.26843238, 0.88447410, 0.38006744, -0.00254273, 0.35329232, 0.37036484, 100.34900665, 81.56245422, 32.21999741, 0.00000000
1, 0.8102, 85, 0.13378906, -1.05639648, 0.34326172, -2.24546933, 40.38891983, 23.69391441, -35.45746994, -3.94621444, -107.39550018, 135.72531128, 7.98314905, -149.52256775, 0.03659477, -0.26818386, 0.88465154, 0.37964448, 0.00606940, 0.36516711, 0.36570981, 100.34900665, 81.56245422, 32.21999741, 0.00000000
1, 0.8152, 86, 0.12414551, -1.06298828, 0.34826660, -2.17546964, 39.40892029, 23.41391373, -34.87284470, -4.99853849, -107.48319244, 135.72186279, 7.76033974, -149.46830750, 0.03852919, -0.26792893, 0.88482487, 0.37922916, 0.01184302, 0.37134317, 0.36105216, 100.34900665, 81.56245422, 32.21999741, 0.00000000
1, 0.8202, 87, 0.11956787, -1.06652832, 0.34649658, -2.38546968, 38.00891495, 23.09891319, -34.87284470, -4.99853849, -107.48319244, 135.71665955, 7.54364777, -149.41786194, 0.04040666, -0.26766154, 0.88498980, 0.37883732, 0.01264263, 0.37446719, 0.36313072, 100.34900665, 81.56245422, 32.21999741, 0.00000000
1, 0.8252, 88, 0.11987305, -1.06805420, 0.35278320, -2.87546968, 36.22391891, 22.53891563, -35.51593018, -3.77082729, -107.39550018, 135.70825195, 7.33530283, -149.37167358, 0.04221152, -0.26738441, 0.88514006, 0.37848487, 0.00869444, 0.37556669, 0.35709751, 100.34900665, 81.56245422, 32.21999741, 0.00000000
1, 0.7949, 94, -0.00669961, -0.96745229, 0.26809040, 3.64771414, 34.15469360, 22.53177834, -45.16223145, 0.49693072, -107.01548767, 107.64630127, -10.90708923, -148.63615417, 0.23268823, -0.16318472, 0.78879809, 0.54499954, -0.18249944, 0.03116100, 0.02803357, 100.36200714, 80.47180176, 32.25999832, 0.00000000
1, 0.7999, 95, 0.00755119, -0.97761583, 0.27227664, 4.17572594, 34.92668533, 23.94554520, -45.16223145, 0.49693072, -107.01548767, 107.64214325, -11.07385254, -148.50331116, 0.23442891, -0.16323708, 0.78871244, 0.54436147, -0.19958183, 0.04181414, 0.02362629, 100.36200714, 80.47180176, 32.25999832, 0.00000000
1, 0.8049, 96, 0.01531199, -0.99420404, 0.26311433, 4.34381914, 36.04442978, 25.33708191, -45.16223145, 0.49693072, -107.01548767, 107.63781738, -11.24891853, -148.36706543, 0.23623908, -0.16326946, 0.78862655, 0.54369336, -0.21028447, 0.05895042, 0.03253417, 100.36200714, 80.47180176, 32.25999832, 0.00000000
1, 0.8099, 97, 0.01953915, -1.01297081, 0.27906951, 4.49048328, 36.04213333, 26.94756126, -44.54837799, 1.22771120, -107.54165649, 107.63429260, -11.43165588, -148.23321533, 0.23808548, -0.16324735, 0.78855258, 0.54300123, -0.21764722, 0.07826141, 0.01631196, 100.36200714, 80.47180176, 32.25999832, 0.00000000
1, 0.8149, 98, 0.00190249, -1.01829171, 0.29493779, 4.39511204, 35.35312653, 28.05402374, -44.54837799, 1.22771120, -107.54165649, 107.63085938, -11.61861420, -148.10432434, 0.23993421, -0.16316928, 0.78848845, 0.54230368, -0.20323673, 0.08415540, 0.00013986, 100.36200714, 80.47180176, 32.25999832, 0.00000000
1, 0.8199, 99, -0.01047384, -1.02665758, 0.28873831, 4.02188206, 31.64996910, 31.30046272, -45.30838776, 1.08155513, -107.36626434, 107.62986755, -11.81547832, -147.99836731, 0.24173436, -0.16288732, 0.78847462, 0.54160875, -0.19416186, 0.09317486, 0.00605833, 100.36200714, 80.47180176, 32.25999832, 0.00000000
1, 0.8302, 89, 0.11230469, -1.07183838, 0.35632324, -3.54046988, 34.68391800, 22.15391350, -35.51593018, -3.77082729, -107.39550018, 135.69587708, 7.13382387, -149.32949829, 0.04395816, -0.26709467, 0.88527483, 0.37817553, 0.01274986, 0.37889540, 0.35374063, 100.34900665, 81.56245422, 32.21999741, 0.00000000
1, 0.8352, 90, 0.10137939, -1.06982422, 0.36517334, -4.52047062, 34.78891754, 21.55891418, -35.51593018, -3.77082729, -107.39550018, 135.67875671, 6.93405581, -149.28477478, 0.04571032, -0.26682684, 0.88538337, 0.37790275, 0.02021758, 0.37638435, 0.34500587, 100.34900665, 81.56245422, 32.21999741, 0.00000000
1, 0.8402, 91, 0.09613037, -1.06323242, 0.35717773, -5.22047091, 37.41391754, 20.57891273, -35.60362244, -3.82928967, -106.84010315, 135.65948486, 6.72834015, -149.22724915, 0.04755573, -0.26663789, 0.88546062, 0.37762710, 0.02192955, 0.36925900, 0.35307714, 100.34900665, 81.56245422, 32.21999741, 0.00000000
1, 0.8249, 100, 0.00040913, -1.04103315, 0.26764256, 3.81260371, 31.67848969, 32.95126343, -45.30838776, 1.08155513, -107.36626434, 107.62422180, -12.00649357, -147.89593506, 0.24348408, -0.16260077, 0.78843862, 0.54096311, -0.20833322, 0.10823672, 0.02689113, 100.36200714, 80.47180176, 32.25999832, 0.00000000
1, 0.8299, 101, 0.00722157, -1.05979943, 0.28960305, 4.14857054, 33.72681046, 34.81852341, -45.30838776, 1.08155513, -107.36626434, 107.62214661, -12.22324467, -147.78507996, 0.24543604, -0.16224727, 0.78842449, 0.54020727, -0.21873209, 0.12766632, 0.00462423, 100.36200714, 80.47180176, 32.25999832, 0.00000000
1, 0.8452, 92, 0.09783936, -1.05645752, 0.33886719, -6.02547073, 40.42392349, 19.56391144, -35.60362244, -3.82928967, -106.84010315, 135.63764954, 6.51542807, -149.15542603, 0.04950991, -0.26653504, 0.88550335, 0.37734830, 0.01657880, 0.36193034, 0.37144226, 100.34900665, 81.56245422, 32.21999741, 0.00000000
1, 0.8502, 93, 0.10174561, -1.04394531, 0.31372070, -6.48047113, 43.22392273, 18.58391380, -35.42823792, -4.41391420, -106.78163910, 135.61474609, 6.29596329, -149.07017517, 0.05156121, -0.26651415, 0.88551760, 0.37705502, 0.00887094, 0.34882694, 0.39661276, 100.34900665, 81.56245422, 32.21999741, 0.00000000
1, 0.8599, 102, -0.02333013, -1.02773821, 0.32198748, 5.77933550, 33.05856705, 42.98404312, -45.57146835, 0.49693072, -107.16164398, 107.63538361, -13.63764954, -147.24699402, 0.25721702, -0.15871345, 0.78868133, 0.53537953, -0.21216176, 0.10081360, -0.02925971, 100.36200714, 80.47180176, 32.25999832, 0.00000000
1, 0.8649, 103, -0.02197677, -1.03845179, 0.37480229, 6.17630529, 33.07912445, 45.18777084, -45.57146835, 0.49693072, -107.16164398, 107.64486694, -13.90286064, -147.15472412, 0.25936756, -0.15800542, 0.78876626, 0.53442562, -0.21810436, 0.11251895, -0.08228483, 100.36200714, 80.47180176, 32.25999832, 0.00000000
1, 0.8702, 94, 0.10064697, -1.05578613, 0.31378174, -4.59047031, 41.64892197, 18.19891357, -35.45746994, -3.94621444, -107.19087982, 135.54483032, 5.43645668, -148.72781372, 0.05956831, -0.26649326, 0.88559300, 0.37570983, -0.00498558, 0.35869110, 0.39678594, 100.34900665, 81.56245422, 32.21999741, 0.00000000
1, 0.8752, 95, 0.09368896, -1.06628418, 0.31213379, -4.06547022, 39.96892166, 18.51391411, -35.60362244, -4.15083313, -107.24934387, 135.53140259, 5.22898579, -148.65357971, 0.06146343, -0.26642206, 0.88563621, 0.37535340, -0.00165450, 0.36877960, 0.39851117, 100.34900665, 81.56245422, 32.21999741, 0.00000000
1, 0.8699, 104, -0.04195164, -1.08162379, 0.37182635, 7.30498409, 28.72539520, 48.50474167, -46.30224991, 1.81233561, -107.36626434, 107.66605377, -14.17733002, -147.08897400, 0.26143640, -0.15709355, 0.78894496, 0.53342152, -0.20271805, 0.15687895, -0.07948226, 100.36200714, 80.47180176, 32.25999832, 0.00000000
1, 0.8749, 105, -0.06724861, -1.09947956, 0.33583742, 6.39914036, 24.72756195, 50.76947403, -46.30224991, 1.81233561, -107.36626434, 107.68649292, -14.44777775, -147.04719543, 0.26336667, -0.15603569, 0.78914696, 0.53248280, -0.18198356, 0.17603193, -0.04358871, 100.36200714, 80.47180176, 32.25999832, 0.00000000
1, 0.8799, 106, -0.10247268, -1.07420146, 0.28907210, 4.34310198, 24.34192276, 51.59265900, -46.30224991, 1.81233561, -107.36626434, 107.69894409, -14.73041916, -147.00788879, 0.26537409, -0.15487936, 0.78931862, 0.53156865, -0.15132058, 0.15205537, 0.00298319, 100.36200714, 80.47180176, 32.25999832, 0.00000000
1, 0.8802, 96, 0.09582520, -1.07189941, 0.30749512, -3.47046971, 38.35891724, 18.86391258, -35.60362244, -4.15083313, -107.24934387, 135.52008057, 5.02604914, -148.58624268, 0.06329493, -0.26631162, 0.88569427, 0.37499034, -0.00733458, 0.37402388, 0.40323582, 100.34900665, 81.56245422, 32.21999741, 0.00000000
1, 0.8852, 97, 0.09313965, -1.08923340, 0.30926514, -1.44046926, 34.85892105, 18.75891304, -35.60362244, -4.15083313, -107.24934387, 135.51763916, 4.83597803, -148.53083801, 0.06496565, -0.26615265, 0.88579100, 0.37458861, -0.00801357, 0.39109144, 0.40161508, 100.34900665, 81.56245422, 32.21999741, 0.00000000
1, 0.8902, 98, 0.09881592, -1.10711670, 0.31762695, -0.56546891, 34.22891617, 18.30391312, -35.63285446, -4.12160206, -107.01548767, 135.51933289, 4.64974546, -148.47602844, 0.06659424, -0.26600271, 0.88589603, 0.37416059, -0.01694389, 0.40879098, 0.39345494, 100.34900665, 81.56245422, 32.21999741, 0.00000000
1, 0.8849, 107, -0.11426202, -1.03956759, 0.32624453, 5.58958721, 24.40177155, 52.45452881, -46.59456253, 1.87079799, -108.03858185, 107.71774292, -15.01724625, -146.96966553, 0.26739332, -0.15370840, 0.78951937, 0.53059769, -0.14445144, 0.11866048, -0.03428486, 100.36200714, 80.47180176, 32.25999832, 0.00000000
1, 0.8899, 108, -0.09810736, -1.00732768, 0.36898756, 6.55649614, 24.16810989, 53.83873749, -46.59456253, 1.87079799, -108.03858185, 107.74208069, -15.31031513, -146.93482971, 0.26942825, -0.15249476, 0.78974926, 0.52957523, -0.16561741, 0.08772852, -0.07696822, 100.36200714, 80.47180176, 32.25999832, 0.00000000
1, 0.8949, 109, -0.08285146, -1.04672325, 0.41766527, 7.77757978, 23.54875755, 55.42082596, -46.44840622, 1.75387311, -107.68781281, 107.77388000, -15.60999489, -146.90562439, 0.27146855, -0.15122578, 0.79001993, 0.52849245, -0.18601654, 0.12851843, -0.12560050, 100.36200714, 80.47180176, 32.25999832, 0.00000000
1, 0.8999, 110, -0.08143540, -1.06810522, 0.37107009, 5.68098736, 20.74732971, 56.74777985, -46.44840622, 1.75387311, -107.68781281, 107.79942322, -15.91176605, -146.89251709, 0.27345499, -0.14982030, 0.79027867, 0.52748078, -0.19237804, 0.15146795, -0.07904133, 100.36200714, 80.47180176, 32.25999832, 0.00000000
1, 0.9049, 111, -0.09197966, -1.09563434, 0.38598925, 5.65601206, 20.19068146, 58.17196655, -46.44840622, 1.75387311, -107.68781281, 107.82621002, -16.21948814, -146.88453674, 0.27545339, -0.14835155, 0.79054719, 0.52645278, -0.18700269, 0.18051030, -0.09405217, 100.36200714, 80.47180176, 32.25999832, 0.00000000
1, 0.8952, 99, 0.10736084, -1.12579346, 0.33184814, 0.09953128, 34.54391861, 17.39391327, -35.63285446, -4.12160206, -107.01548767, 135.52452087, 4.46557522, -148.41688538, 0.06821224, -0.26589423, 0.88599777, 0.37370473, -0.02870121, 0.42734149, 0.37947249, 100.34900665, 81.56245422, 32.21999741, 0.00000000
1, 0.9002, 100, 0.11932373, -1.14337158, 0.34783936, 0.20453131, 35.69891739, 15.81891155, -35.63285446, -3.88775206, -107.45395660, 135.53079224, 4.28279305, -148.34805298, 0.06984781, -0.26586506, 0.88607711, 0.37323505, -0.04385076, 0.44482407, 0.36373252, 100.34900665, 81.56245422, 32.21999741, 0.00000000
1, 0.9052, 101, 0.13238525, -1.15551758, 0.36309814, -0.35546887, 37.16891861, 13.85891247, -35.63285446, -3.88775206, -107.45395660, 135.53492737, 4.10162687, -148.26710510, 0.07151458, -0.26593313, 0.88611752, 0.37277490, -0.06007364, 0.45686597, 0.34869981, 100.34900665, 81.56245422, 32.21999741, 0.00000000
1, 0.9549, 112, -0.03290596, -1.26224458, 0.10950176, 1.65254986, 34.54622269, 75.53035736, -47.99766159, 3.12774038, -107.42472839, 107.88170624, -19.82277489, -146.58169556, 0.29998279, -0.13192174, 0.79184961, 0.51534587, -0.30477801, 0.36618978, 0.17742226, 100.36200714, 80.47180176, 32.25999832, 0.00000000
1, 0.9599, 113, -0.03572662, -1.27672493, 0.11378028, 1.45340681, 36.88639832, 78.11242676, -48.99152374, 1.46156096, -107.74626923, 107.86936188, -20.25098038, -146.52171326, 0.30300507, -0.13007806, 0.79184562, 0.51405078, -0.30892023, 0.38300928, 0.17217496, 100.36200714, 80.47180176, 32.25999832, 0.00000000
1, 0.9102, 102, 0.14392090, -1.16668701, 0.36798096, -1.23046911, 38.70892334, 11.40891075, -35.63285446, -3.88775206, -107.45395660, 135.53543091, 3.92353868, -148.17201233, 0.07321097, -0.26611733, 0.88610768, 0.37233713, -0.07472312, 0.46789980, 0.34399348, 100.34900665, 81.56245422, 32.21999741, 0.00000000
1, 0.9152, 103, 0.16625977, -1.17791748, 0.37316895, -2.56046987, 40.45891953, 7.90891027, -35.86670685, -4.20929527, -107.83396912, 135.53022766, 3.75147200, -148.05827332, 0.07493337, -0.26646024, 0.88602716, 0.37194055, -0.10009840, 0.47894305, 0.33891025, 100.34900665, 81.56245422, 32.21999741, 0.00000000
1, 0.9649, 114, 0.00978193, -1.28783309, 0.10077503, 1.17895246, 39.60549927, 80.84469604, -48.99152374, 1.46156096, -107.74626923, 107.85190582, -20.69634056, -146.45207214, 0.30617964, -0.12819570, 0.79180354, 0.51270556, -0.36162165, 0.39660725, 0.18419079, 100.36200714, 80.47180176, 32.25999832, 0.00000000
1, 0.9699, 115, 0.04418212, -1.30856764, 0.09867159, 0.46754548, 37.33415985, 83.81409454, -49.40076065, 3.91698337, -107.77550507, 107.83617401, -21.15235901, -146.39851379, 0.30934161, -0.12614848, 0.79178029, 0.51134968, -0.40341267, 0.41994101, 0.18523526, 100.36200714, 80.47180176, 32.25999832, 0.00000000
1, 0.9749, 116, 0.07213707, -1.32622004, 0.12398624, 0.35491842, 38.45081329, 86.61128235, -49.40076065, 3.91698337, -107.77550507, 107.81332397, -21.61291504, -146.34335327, 0.31254038, -0.12406655, 0.79171431, 0.51001412, -0.43894136, 0.44023708, 0.15876208, 100.36200714, 80.47180176, 32.25999832, 0.00000000
1, 0.9402, 104, 0.24938965, -1.24389648, 0.37176514, -12.36047268, 43.11891937, -6.37109518, -35.25284958, -4.20929527, -107.65857697, 135.37208557, 3.01607871, -147.29869080, 0.08348750, -0.26993272, 0.88458192, 0.37105402, -0.19620708, 0.54256153, 0.33907986, 100.34900665, 81.56245422, 32.21999741, 0.00000000
1, 0.9452, 105, 0.26513672, -1.25164795, 0.37805176, -14.46047306, 43.88892365, -8.96109486, -35.25284958, -4.20929527, -107.65857697, 135.30938721, 2.89148188, -147.11231995, 0.08520655, -0.27093592, 0.88408047, 0.37112713, -0.21415758, 0.54948330, 0.33213508, 100.34900665, 81.56245422, 32.21999741, 0.00000000
1, 0.9799, 117, 0.12692708, -1.37430453, 0.20425327, -0.12439983, 37.63783264, 89.85785675, -49.40076065, 3.91698337, -107.77550507, 107.79676056, -22.09816551, -146.29747009, 0.31584054, -0.12180565, 0.79168034, 0.50857681, -0.50165713, 0.49102497, 0.07730414, 100.36200714, 80.47180176, 32.25999832, 0.00000000
1, 0.9849, 118, 0.14434578, -1.42675877, 0.22891349, -2.27645588, 31.40622520, 94.78422546, -49.66384125, 3.30312777, -107.68781281, 107.78427887, -22.59741783, -146.29148865, 0.31904095, -0.11920417, 0.79169607, 0.50716919, -0.52716082, 0.54649460, 0.05139469, 100.36200714, 80.47180176, 32.25999832, 0.00000000
1, 0.9899, 119, 0.12031537, -1.46491575, 0.24014336, -5.37981892, 24.21394348, 98.75340271, -49.66384125, 3.30312777, -107.68781281, 107.77323151, -23.10468292, -146.32911682, 0.32209119, -0.11626050, 0.79174888, 0.50584036, -0.51128584, 0.58781904, 0.03883087, 100.36200714, 80.47180176, 32.25999832, 0.00000000
1, 0.9502, 106, 0.30462646, -1.26202393, 0.38476563, -16.28047562, 45.00891876, -12.04109669, -35.19438553, -3.74159598, -107.71704102, 135.23793030, 2.77396178, -146.91094971, 0.08694006, -0.27206808, 0.88350511, 0.37126702, -0.25572678, 0.55892795, 0.32464576, 100.34900665, 81.56245422, 32.21999741, 0.00000000
1, 0.9552, 107, 0.35510254, -1.27111816, 0.38964844, -18.27547455, 45.88392258, -16.73109818, -35.19438553, -3.74159598, -107.71704102, 135.15705872, 2.67012858, -146.68966675, 0.08865460, -0.27338636, 0.88283414, 0.37148941, -0.30807763, 0.56698471, 0.31886008, 100.34900665, 81.56245422, 32.21999741, 0.00000000
1, 0.9602, 108, 0.40704346, -1.27008057, 0.39031982, -18.83547592, 44.62392426, -19.46110153, -35.16515732, -3.91698337, -107.62934875, 135.07325745, 2.58071017, -146.46302795, 0.09028254, -0.27478573, 0.88212162, 0.37175697, -0.36164686, 0.56486553, 0.31721857, 100.34900665, 81.56245422, 32.21999741, 0.00000000
1, 0.9949, 120, 0.09352422, -1.45183098, 0.20586549, -7.32452106, 20.80201530, 100.90513611, -50.30692673, 3.94621444, -108.18473816, 107.76123810, -23.61706161, -146.38804626, 0.32507488, -0.11313737, 0.79180187, 0.50455528, -0.49261063, 0.57808453, 0.07180518, 100.36200714, 80.47180176, 32.25999832, 0.00000000
1, 0.9999, 121, 0.07563467, -1.40902269, 0.18271671, -7.81820154, 20.70127296, 102.03067780, -50.30692673, 3.94621444, -108.18473816, 107.74827576, -24.13466072, -146.44946289, 0.32807580, -0.10996381, 0.79183471, 0.50326145, -0.48290658, 0.53870678, 0.09368317, 100.36200714, 80.47180176, 32.25999832, 0.00000000
1, 1.0399, 122, 0.18929471, -1.27660513, 0.23744884, 8.13959503, 62.34650803, 112.77499390, -52.58696365, 6.46009922, -108.65244293, 107.63038635, -28.69113541, -146.12756348, 0.35792854, -0.08785094, 0.79064918, 0.48892045, -0.66755658, 0.43897361, 0.02711620, 100.43100739, 74.68510437, 32.82999802, 0.00000000
1, 1.0449, 123, 0.26827073, -1.29316127, 0.26492530, 9.86867714, 67.28556061, 116.62129211, -53.14235687, 6.78164291, -109.26629639, 107.60058594, -29.34835243, -145.96141052, 0.36269623, -0.08542904, 0.79024506, 0.48648360, -0.75653255, 0.46056563, -0.00227607, 100.43100739, 74.68510437, 32.82999802, 0.00000000
1, 0.9652, 109, 0.45306396, -1.26037598, 0.38476563, -19.46547508, 41.36891937, -21.77110100, -35.16515732, -3.91698337, -107.62934875, 134.98583984, 2.51130605, -146.23962402, 0.09175487, -0.27621737, 0.88137984, 0.37209517, -0.40897071, 0.55405128, 0.32174757, 100.34900665, 81.56245422, 32.21999741, 0.00000000
1, 0.9702, 110, 0.48779297, -1.24139404, 0.37121582, -19.71047592, 36.78392029, -23.76610184, -35.16515732, -3.91698337, -107.62934875, 134.89657593, 2.46550107, -146.02529907, 0.09302098, -0.27764902, 0.88062412, 0.37250420, -0.44460344, 0.53394902, 0.33423162, 100.34900665, 81.56245422, 32.21999741, 0.00000000
1, 0.9752, 111, 0.51086426, -1.21154785, 0.35729980, -19.67547607, 31.04391670, -25.69110298, -34.17129517, -4.15083313, -107.98011780, 134.80680847, 2.44709587, -145.82447815, 0.09403445, -0.27906033, 0.87986529, 0.37298775, -0.46811882, 0.50298476, 0.34705174, 100.34900665, 81.56245422, 32.21999741, 0.00000000
1, 1.0499, 124, 0.31184730, -1.30907273, 0.28554541, 11.27419090, 66.61524200, 120.40811157, -53.14235687, 6.78164291, -109.26629639, 107.58052063, -30.02254105, -145.80403137, 0.36750323, -0.08288193, 0.78986734, 0.48392326, -0.81033552, 0.48182902, -0.02488928, 100.43100739, 74.68510437, 32.82999802, 0.00000000
1, 1.0549, 125, 0.32279494, -1.32479167, 0.32614097, 11.62832069, 64.74191284, 124.60026550, -54.25314331, 7.54165459, -109.50014496, 107.56894684, -30.71386909, -145.66302490, 0.37231946, -0.08015361, 0.78951317, 0.48127180, -0.83174658, 0.50316983, -0.06749593, 100.43100739, 74.68510437, 32.82999802, 0.00000000
1, 1.0599, 126, 0.31844658, -1.33946562, 0.38181198, 12.39667606, 61.14644241, 129.58735657, -54.25314331, 7.54165459, -109.50014496, 107.57407379, -31.42355919, -145.54969788, 0.37709981, -0.07718769, 0.78922075, 0.47850639, -0.83809513, 0.52377421, -0.12511222, 100.43100739, 74.68510437, 32.82999802, 0.00000000
1, 0.9802, 112, 0.52026367, -1.17340088, 0.33953857, -19.85047722, 24.98891449, -27.61610413, -34.17129517, -4.15083313, -107.98011780, 134.71551514, 2.45715809, -145.63835144, 0.09478593, -0.28044531, 0.87910193, 0.37355828, -0.47746789, 0.46372405, 0.36368763, 100.34900665, 81.56245422, 32.21999741, 0.00000000
1, 0.9852, 113, 0.51977539, -1.12915039, 0.32379150, -19.92047501, 18.96891403, -29.96110344, -33.29435730, -3.56620860, -108.06781769, 134.62338257, 2.49701977, -145.46543884, 0.09526882, -0.28182089, 0.87833077, 0.37421367, -0.47641280, 0.41836450, 0.37827891, 100.34900665, 81.56245422, 32.21999741, 0.00000000
1, 1.0649, 127, 0.32314435, -1.38679004, 0.42459658, 12.43678093, 53.27310562, 135.49826050, -54.25314331, 7.54165459, -109.50014496, 107.60675812, -32.14962769, -145.49041748, 0.38171768, -0.07385142, 0.78904748, 0.47564888, -0.85363424, 0.57744139, -0.16959253, 100.43100739, 74.68510437, 32.82999802, 0.00000000
1, 1.0699, 128, 0.30683947, -1.42537236, 0.40475127, 10.00134277, 41.42721939, 142.04702759, -53.75621033, 6.98626137, -110.08477020, 107.66912842, -32.88914490, -145.51004028, 0.38605660, -0.06999981, 0.78900951, 0.47278357, -0.84813762, 0.62285149, -0.15116258, 100.43100739, 74.68510437, 32.82999802, 0.00000000
1, 1.0749, 129, 0.25804624, -1.42697394, 0.35519007, 7.87045002, 33.83117294, 148.69323730, -53.75621033, 6.98626137, -110.08477020, 107.75089264, -33.63831329, -145.58674622, 0.39019752, -0.06577212, 0.78904223, 0.46992812, -0.81017071, 0.63167441, -0.10280967, 100.43100739, 74.68510437, 32.82999802, 0.00000000
1, 1.0799, 130, 0.22795367, -1.40376186, 0.36218804, 8.73755455, 31.24419785, 155.24537659, -55.59777832, 9.14937115, -109.88014984, 107.85545349, -34.42516708, -145.69203186, 0.39442813, -0.06122955, 0.78911936, 0.46687043, -0.79132509, 0.61605489, -0.11078936, 100.43100739, 74.68510437, 32.82999802, 0.00000000
1, 1.0849, 131, 0.22865728, -1.38421178, 0.42477700, 10.27671432, 25.98514748, 161.62014771, -55.59777832, 9.14937115, -109.88014984, 107.99496460, -35.23410797, -145.84274292, 0.39858428, -0.05638429, 0.78929669, 0.46364009, -0.80373144, 0.60456240, -0.17402628, 100.43100739, 74.68510437, 32.82999802, 0.00000000
1, 1.0202, 114, 0.50921631, -0.81628418, 0.27667236, -18.10047531, -16.87109947, -71.19111633, -33.44051361, -3.36159015, -108.38935852, 133.98995972, 3.88548207, -144.29219055, 0.09004890, -0.29465678, 0.87157619, 0.38134438, -0.44286323, 0.09863980, 0.41656768, 100.34900665, 81.56245422, 32.21999741, 0.00000000
1, 1.0252, 115, 0.53674316, -0.78131104, 0.28350830, -16.24547386, -19.88109970, -78.19111633, -32.76819611, -3.56620860, -108.50628662, 133.92291260, 4.23591900, -144.09188843, 0.08820003, -0.29723376, 0.87037313, 0.38252261, -0.46444690, 0.06311644, 0.40856633, 100.34900665, 81.56245422, 32.21999741, 0.00000000
1, 1.1049, 132, 0.07583538, -1.22199631, 0.55861151, 12.12735271, -25.47332001, 181.75189209, -58.31628036, 9.09090900, -108.97398376, 109.15558624, -38.51941681, -147.37481689, 0.41166040, -0.03259397, 0.79202473, 0.44963348, -0.69720966, 0.47946423, -0.30426663, 100.43100739, 74.68510437, 32.82999802, 0.00000000
1, 1.1099, 133, -0.02295869, -1.15607178, 0.56874728, 13.74889946, -32.67869568, 183.59252930, -58.31628036, 9.09090900, -108.97398376, 109.59597778, -39.33178711, -147.96261597, 0.41410989, -0.02586779, 0.79311991, 0.44587535, -0.60952890, 0.42383391, -0.31198609, 100.43100739, 74.68510437, 32.82999802, 0.00000000
1, 1.0302, 116, 0.57812500, -0.74383545, 0.31103516, -14.46047306, -24.64110184, -88.76111603, -32.76819611, -3.56620860, -108.50628662, 133.86759949, 4.64115715, -143.87231445, 0.08596953, -0.30013523, 0.86906821, 0.38372979, -0.49901146, 0.02531231, 0.37995124, 100.34900665, 81.56245422, 32.21999741, 0.00000000
1, 1.0352, 117, 0.61004639, -0.70104980, 0.31945801, -13.09547329, -27.19610214, -95.16612244, -31.30663490, -3.88775206, -108.97398376, 133.82180786, 5.07853222, -143.63995361, 0.08351550, -0.30323657, 0.86769646, 0.38493589, -0.52346098, -0.01760745, 0.37049189, 100.34900665, 81.56245422, 32.21999741, 0.00000000
1, 1.0402, 118, 0.62237549, -0.65820313, 0.33544922, -11.03047276, -29.89110374, -100.90612030, -31.30663490, -3.88775206, -108.97398376, 133.78909302, 5.54610586, -143.39755249, 0.08083402, -0.30651134, 0.86627585, 0.38611266, -0.52779245, -0.06036479, 0.35354272, 100.34900665, 81.56245422, 32.21999741, 0.00000000
1, 1.0452, 119, 0.60357666, -0.63555908, 0.33587646, -6.90047121, -32.90110397, -106.40112305, -31.30663490, -3.88775206, -108.97398376, 133.77990723, 6.04402208, -143.14692688, 0.07788909, -0.30995074, 0.86484236, 0.38718426, -0.50047922, -0.08259079, 0.35232911, 100.34900665, 81.56245422, 32.21999741, 0.00000000
1, 1.0502, 120, 0.56524658, -0.65301514, 0.33612061, 0.23953140, -37.69610596, -111.40613556, -32.09587860, -3.56620860, -108.50628662, 133.80867004, 6.57655334, -142.89598083, 0.07458013, -0.31351441, 0.86345637, 0.38805866, -0.45306498, -0.06420313, 0.35163489, 100.34900665, 81.56245422, 32.21999741, 0.00000000
1, 1.0552, 121, 0.54504395, -0.69268799, 0.33746338, 8.88453484, -43.85610580, -116.41113281, -32.09587860, -3.56620860, -108.50628662, 133.88256836, 7.14824867, -142.64918518, 0.07083399, -0.31718177, 0.86214435, 0.38869712, -0.42312846, -0.02295202, 0.35027894, 100.34900665, 81.56245422, 32.21999741, 0.00000000
1, 1.1149, 134, -0.18523486, -1.08556199, 0.54565126, 14.42478943, -41.33040619, 184.39422607, -58.31628036, 9.09090900, -108.97398376, 110.09098816, -40.12952042, -148.62052917, 0.41624695, -0.01895568, 0.79433203, 0.44205874, -0.45799071, 0.36393392, -0.28608605, 100.43100739, 74.68510437, 32.82999802, 0.00000000
1, 1.1199, 135, -0.52815223, -0.99436796, 0.42217505, 14.87046337, -51.92756653, 183.43492126, -59.57322311, 12.74481106, -108.65244293, 110.64732361, -40.89973831, -149.35882568, 0.41796955, -0.01187859, 0.79568952, 0.43822205, -0.12512176, 0.28367469, -0.15960479, 100.43100739, 74.68510437, 32.82999802, 0.00000000
1, 1.1249, 136, -0.79685622, -0.95227957, 0.28855205, 16.47316933, -56.27635574, 177.94786072, -59.57322311, 12.74481106, -108.65244293, 111.23843384, -41.63054276, -150.12881470, 0.41940880, -0.00493805, 0.79709238, 0.43441433, 0.13416375, 0.25248975, -0.02238657, 100.43100739, 74.68510437, 32.82999802, 0.00000000
1, 1.0602, 122, 0.54797363, -0.76403809, 0.34167480, 16.23453712, -52.36111069, -121.62612152, -31.24817276, -4.20929527, -108.91551971, 133.99427795, 7.76782656, -142.41375732, 0.06657559, -0.32091379, 0.86088365, 0.38918066, -0.41555220, 0.05060900, 0.34642082, 100.34900665, 81.56245422, 32.21999741, 0.00000000
1, 1.0652, 123, 0.52941895, -0.91003418, 0.31860352, 19.20953560, -60.20111847, -125.61612701, -31.24817276, -4.20929527, -108.91551971, 134.12168884, 8.42850304, -142.19108582, 0.06191096, -0.32465976, 0.85960954, 0.38965961, -0.38569617, 0.19924161, 0.36995223, 100.34900665, 81.56245422, 32.21999741, 0.00000000
1, 1.0952, 124, 0.19561768, -1.30163574, 0.26171875, 5.41953325, -123.76113129, -132.68614197, -29.69891739, -4.06313944, -108.62320709, 134.51214600, 13.52940178, -141.61524963, 0.02361607, -0.34407732, 0.84994906, 0.39829582, 0.03449036, 0.60757482, 0.42042056, 100.34900665, 81.56245422, 32.21999741, 0.00000000
1, 1.1002, 125, 0.02008057, -1.33813477, 0.24700928, 8.46453381, -120.08613586, -128.55613708, -27.74042702, -4.15083313, -109.44168091, 134.56013489, 14.40869331, -141.59173584, 0.01680065, -0.34675643, 0.84826493, 0.39990550, 0.22509059, 0.64721668, 0.43307090, 100.34900665, 81.56245422, 32.21999741, 0.00000000
1, 1.1052, 126, -0.09918213, -1.36560059, 0.21691895, 11.85953522, -109.13113403, -125.37113190, -27.74042702, -4.15083313, -109.44168091, 134.63317871, 15.23816204, -141.53843689, 0.01039356, -0.34949154, 0.84663308, 0.40119839, 0.35867497, 0.67808414, 0.46129382, 100.34900665, 81.56245422, 32.21999741, 0.00000000
1, 1.1299, 137, -0.93255597, -0.91940439, 0.16184059, 19.66400719, -57.20888519, 169.99829102, -61.00555420, 14.35252857, -108.82782745, 111.85797119, -42.31681824, -150.90490723, 0.42063475, 0.00168735, 0.79852688, 0.43060249, 0.26109678, 0.23027125, 0.10845442, 100.43100739, 74.68510437, 32.82999802, 0.00000000
1, 1.1349, 138, -0.99819052, -0.89609337, 0.33874333, 22.81167793, -68.62590027, 164.95404053, -61.00555420, 14.35252857, -108.82782745, 112.55252075, -42.95150757, -151.75881958, 0.42134207, 0.00829419, 0.80018115, 0.42674622, 0.31795573, 0.21700230, -0.06338406, 100.43100739, 74.68510437, 32.82999802, 0.00000000
1, 1.1399, 139, -1.00070691, -0.86072338, 0.53438658, 19.79304123, -84.23602295, 162.62242126, -61.00555420, 14.35252857, -108.82782745, 113.31542969, -43.53714371, -152.72483826, 0.42143357, 0.01516666, 0.80201650, 0.42300501, 0.31236541, 0.19156525, -0.25295910, 100.43100739, 74.68510437, 32.82999802, 0.00000000
1, 1.1449, 140, -1.05555260, -0.83042264, 0.47764081, 20.10372734, -93.25561523, 158.26731873, -62.49634552, 14.00175381, -107.42472839, 114.13183594, -44.07502365, -153.75611877, 0.42110220, 0.02204755, 0.80397403, 0.41930011, 0.36041504, 0.17148657, -0.18962020, 100.43100739, 74.68510437, 32.82999802, 0.00000000
1, 1.1499, 141, -1.06222022, -0.85387290, 0.39324719, 22.44873238, -80.84775543, 147.10621643, -62.49634552, 14.00175381, -107.42472839, 114.90232086, -44.57737732, -154.69557190, 0.42097798, 0.02826580, 0.80570877, 0.41570687, 0.36089009, 0.20483045, -0.09881049, 100.43100739, 74.68510437, 32.82999802, 0.00000000
1, 1.1102, 127, -0.22351074, -1.37780762, 0.19848633, 18.71953583, -89.04112244, -122.43112946, -28.12043190, -3.47851491, -109.32476044, 134.75869751, 15.98644257, -141.42001343, 0.00467520, -0.35245612, 0.84511566, 0.40191102, 0.49584296, 0.69416833, 0.47861192, 100.34900665, 81.56245422, 32.21999741, 0.00000000
1, 1.1152, 128, -0.28295898, -1.39544678, 0.19970703, 23.79454041, -73.11611176, -120.92613983, -28.12043190, -3.47851491, -109.32476044, 134.92669678, 16.67294121, -141.24588013, -0.00050778, -0.35563082, 0.84367186, 0.40217453, 0.56705809, 0.71608579, 0.47686318, 100.34900665, 81.56245422, 32.21999741, 0.00000000
1, 1.1202, 129, -0.29785156, -1.42517090, 0.23199463, 29.25453949, -59.22111511, -119.28112793, -28.12043190, -3.47851491, -109.32476044, 135.13796997, 17.30392647, -141.02349854, -0.00523509, -0.35897541, 0.84231824, 0.40200660, 0.59271407, 0.75047976, 0.44464403, 100.34900665, 81.56245422, 32.21999741, 0.00000000
1, 1.1799, 142, -0.38940892, -0.74125528, 0.27711201, 3.69360900, 21.60976791, 62.22672272, -64.42560577, 17.15872574, -106.89856720, 116.78792572, -47.27925110, -156.80934143, 0.43103498, 0.04903670, 0.80652034, 0.40165830, -0.34505415, 0.13425098, 0.02677518, 100.43100739, 74.68510437, 32.82999802, 0.00000000
1, 1.1849, 143, -0.22413179, -0.77200937, 0.33324161, -4.09579182, 16.95293236, 41.42893982, -64.42560577, 17.15872574, -106.89856720, 116.78683472, -47.50244904, -156.83496094, 0.43235037, 0.05027077, 0.80604011, 0.40105560, -0.51342976, 0.16785935, -0.03027921, 100.43100739, 74.68510437, 32.82999802, 0.00000000
1, 1.1252, 130, -0.21490479, -1.45886230, 0.27368164, 32.96454620, -50.64611053, -116.62112427, -26.86348915, -3.82928967, -107.80473328, 135.37763977, 17.89424896, -140.77601624, -0.00965842, -0.36235967, 0.84104449, 0.40155503, 0.51974666, 0.78914380, 0.40347493, 100.34900665, 81.56245422, 32.21999741, 0.00000000
1, 1.1302, 131, -0.17071533, -1.49090576, 0.35406494, 34.60954285, -48.02111053, -112.77113342, -26.86348915, -3.82928967, -107.80473328, 135.62748718, 18.46070671, -140.52983093, -0.01394359, -0.36563647, 0.83983463, 0.40099052, 0.48504105, 0.82629400, 0.32378706, 100.34900665, 81.56245422, 32.21999741, 0.00000000
1, 1.1902, 132, -0.08428955, -1.23577881, 0.17401123, 2.26953220, 6.96390820, -111.05612946, -23.50189972, -2.66004086, -107.39550018, 138.31594849, 23.67022896, -135.88894653, -0.04688653, -0.41110557, 0.82035911, 0.39472130, 0.48439902, 0.62570214, 0.50988656, 100.34900665, 81.56245422, 32.21999741, 0.00000000
1, 1.1899, 144, -0.13148795, -0.76777351, 0.30252543, -13.47756577, 11.52605915, 20.21244240, -64.42560577, 17.15872574, -106.89856720, 116.71305847, -47.61876678, -156.82597351, 0.43308097, 0.05103324, 0.80554223, 0.40117133, -0.60767537, 0.16502161, -0.00072395, 100.43100739, 74.68510437, 32.82999802, 0.00000000
1, 1.1949, 145, -0.08364626, -0.72178459, 0.21343477, -20.52153778, 10.00314522, -0.27477139, -65.01023102, 18.47413063, -107.39550018, 116.56085205, -47.64012527, -156.75885010, 0.43338239, 0.05123755, 0.80499411, 0.40191925, -0.65581441, 0.11898491, 0.08690725, 100.43100739, 74.68510437, 32.82999802, 0.00000000
1, 1.1999, 146, -0.06825738, -0.65187919, 0.15590528, -24.42351913, 11.02171421, -18.11248779, -65.01023102, 18.47413063, -107.39550018, 116.34049988, -47.58372116, -156.62617493, 0.43339649, 0.05087280, 0.80439669, 0.40314463, -0.67061490, 0.04766392, 0.14265373, 100.43100739, 74.68510437, 32.82999802, 0.00000000
1, 1.1952, 133, -0.07055664, -1.20123291, 0.12249756, 2.30453205, 9.44890881, -109.93612671, -22.21572685, -3.06927800, -107.19087982, 138.52296448, 23.99969482, -135.40516663, -0.04848253, -0.41519392, 0.81843656, 0.39423975, 0.47598469, 0.59516788, 0.56183457, 100.34900665, 81.56245422, 32.21999741, 0.00000000
1, 1.2002, 134, -0.03057861, -1.16271973, 0.07971191, 2.68953228, 9.83390999, -108.53612518, -22.21572685, -3.06927800, -107.19087982, 138.73367310, 24.32148170, -134.92318726, -0.05004654, -0.41922861, 0.81652814, 0.39373156, 0.44115382, 0.56068385, 0.60510796, 100.34900665, 81.56245422, 32.21999741, 0.00000000
1, 1.2049, 147, -0.07881577, -0.54711962, 0.16724803, -26.60464478, 8.07361603, -35.50582504, -64.33791351, 16.22332573, -107.36626434, 116.08229828, -47.44237900, -156.45704651, 0.43299392, 0.04999235, 0.80385268, 0.40476900, -0.65870643, -0.05976932, 0.12947886, 100.43100739, 74.68510437, 32.82999802, 0.00000000
1, 1.2099, 148, -0.10775036, -0.51835513, 0.16651589, -26.98846245, -1.05447412, -47.25067902, -64.33791351, 16.22332573, -107.36626434, 115.84020996, -47.22781754, -156.31219482, 0.43206060, 0.04886980, 0.80349582, 0.40660769, -0.62748623, -0.09208058, 0.12857673, 100.43100739, 74.68510437, 32.82999802, 0.00000000
1, 1.2149, 149, -0.17636040, -0.50040531, 0.17068161, -25.78521538, -15.41401577, -61.06829834, -64.33791351, 16.22332573, -107.36626434, 115.64331055, -46.91949081, -156.22038269, 0.43037751, 0.04749609, 0.80345470, 0.40863168, -0.55542815, -0.11444726, 0.12371130, 100.43100739, 74.68510437, 32.82999802, 0.00000000
1, 1.2052, 135, 0.00207520, -1.12951660, 0.04528809, 3.70453238, 7.83890820, -107.06612396, -22.21572685, -3.06927800, -107.19087982, 138.94747925, 24.64431000, -134.45199585, -0.05167386, -0.42316505, 0.81464142, 0.39321816, 0.41362596, 0.53155738, 0.64001089, 100.34900665, 81.56245422, 32.21999741, 0.00000000
1, 1.2102, 136, 0.04046631, -1.09259033, 0.01812744, 4.99953270, 3.81390715, -105.24612427, -21.33878899, -3.59543991, -106.78163910, 139.16198730, 24.97477150, -134.00032043, -0.05343578, -0.42695582, 0.81278396, 0.39272872, 0.38043645, 0.49877292, 0.66759777, 100.34900665, 81.56245422, 32.21999741, 0.00000000
1, 1.2152, 137, 0.08966064, -1.04113770, -0.01208496, 7.13453388, -4.90109587, -102.13112640, -21.33878899, -3.59543991, -106.78163910, 139.37181091, 25.32657051, -133.59051514, -0.05549203, -0.43047288, 0.81098378, 0.39232504, 0.33670866, 0.45151716, 0.69805413, 100.34900665, 81.56245422, 32.21999741, 0.00000000
1, 1.2199, 150, -0.24359061, -0.52086222, 0.19971712, -22.57575035, -21.56272888, -72.29715729, -63.63636398, 17.86027527, -107.77550507, 115.46797943, -46.54702759, -156.13586426, 0.42828029, 0.04577845, 0.80360103, 0.41073799, -0.48400909, -0.09906100, 0.09449969, 100.43100739, 74.68510437, 32.82999802, 0.00000000
1, 1.2202, 138, 0.13879395, -1.00524902, -0.04791260, 9.86453438, -12.18109798, -99.64612579, -19.64337921, -2.95235300, -106.78163910, 139.58296204, 25.69660187, -133.21473694, -0.05781360, -0.43376240, 0.80924374, 0.39195997, 0.29333746, 0.41992608, 0.73395652, 100.34900665, 81.56245422, 32.21999741, 0.00000000
1, 1.2252, 139, 0.19781494, -0.99316406, -0.05358887, 14.20453548, -20.89610100, -96.60112000, -19.64337921, -2.95235300, -106.78163910, 139.79992676, 26.08874321, -132.88043213, -0.06047182, -0.43677598, 0.80759776, 0.39160666, 0.24038781, 0.41232508, 0.73959225, 100.34900665, 81.56245422, 32.21999741, 0.00000000
1, 1.2302, 140, 0.25189209, -0.98608398, -0.04534912, 18.89453697, -29.71610069, -92.75112152, -19.64337921, -2.95235300, -106.78163910, 140.02239990, 26.50107002, -132.59143066, -0.06346332, -0.43948263, 0.80606699, 0.39125907, 0.19269182, 0.40991268, 0.73118281, 100.34900665, 81.56245422, 32.21999741, 0.00000000
1, 1.2249, 151, -0.30302906, -0.56374657, 0.25416067, -20.68329048, -24.78639221, -83.96530151, -63.63636398, 17.86027527, -107.77550507, 115.29302979, -46.10512161, -156.03906250, 0.42579648, 0.04363182, 0.80387163, 0.41301817, -0.41962662, -0.06198360, 0.04024672, 100.43100739, 74.68510437, 32.82999802, 0.00000000
1, 1.2352, 141, 0.27709961, -0.95275879, -0.02880859, 22.81453705, -37.90610886, -89.74111938, -19.87722778, -2.45542240, -106.86933899, 140.24865723, 26.93416977, -132.34187317, -0.06676546, -0.44192436, 0.80462271, 0.39093146, 0.17416176, 0.38142923, 0.71433127, 100.34900665, 81.56245422, 32.21999741, 0.00000000
1, 1.2402, 142, 0.29309082, -0.91247559, -0.00610352, 27.36454010, -44.34611130, -87.74611664, -19.87722778, -2.45542240, -106.86933899, 140.48625183, 27.38479614, -132.12106323, -0.07034610, -0.44416445, 0.80326033, 0.39056656, 0.16511010, 0.34621567, 0.69122899, 100.34900665, 81.56245422, 32.21999741, 0.00000000
1, 1.2499, 152, -0.51097614, -0.60317993, 0.27490145, -31.14637566, -27.27652359, -136.71511841, -63.16866302, 16.69102669, -107.10318756, 114.04907990, -43.17241287, -155.21821594, 0.41004464, 0.02818942, 0.80486435, 0.42809138, -0.17609972, -0.06097328, 0.02009593, 100.43100739, 74.68510437, 32.82999802, 0.00000000
1, 1.2549, 153, -0.53297955, -0.59397054, 0.26173148, -33.35580444, -26.31630135, -147.10964966, -62.84711838, 16.10640144, -107.01548767, 113.71733093, -42.44666290, -154.97813416, 0.40631586, 0.02412626, 0.80487251, 0.43186301, -0.14494357, -0.07961050, 0.03289451, 100.43100739, 74.68510437, 32.82999802, 0.00000000
1, 1.2599, 154, -0.50770223, -0.57461417, 0.27636752, -36.11500168, -24.06623077, -157.74687195, -62.84711838, 16.10640144, -107.01548767, 113.35147858, -41.67555237, -154.70448303, 0.40244269, 0.01969583, 0.80476135, 0.43590271, -0.16044328, -0.10900776, 0.01769408, 100.43100739, 74.68510437, 32.82999802, 0.00000000
1, 1.2902, 143, 0.25836182, -0.83856201, 0.31329346, 41.29454422, -39.76110458, -69.37111664, -18.41566849, -1.54925454, -106.34317017, 143.39775085, 31.59565353, -130.28308105, -0.10750781, -0.46160725, 0.79297870, 0.38281280, 0.26420072, 0.32929531, 0.37049893, 100.34900665, 81.56245422, 32.21999741, 0.00000000
1, 1.2952, 144, 0.22656250, -0.83135986, 0.31842041, 39.40454483, -38.81610870, -67.58611298, -17.65565681, -3.18620276, -105.87547302, 143.69169617, 31.95254707, -130.09899902, -0.11077264, -0.46310920, 0.79208779, 0.38191140, 0.30134192, 0.32758957, 0.36534047, 100.34900665, 81.56245422, 32.21999741, 0.00000000
1, 1.2649, 155, -0.45960778, -0.56250727, 0.29163522, -38.76177216, -22.83673286, -170.82843018, -62.84711838, 16.10640144, -107.01548767, 112.95436859, -40.84539032, -154.39944458, 0.39833891, 0.01482923, 0.80454469, 0.44024318, -0.19787350, -0.13184983, 0.00158799, 100.43100739, 74.68510437, 32.82999802, 0.00000000
1, 1.2699, 156, -0.38829991, -0.55039728, 0.28726617, -41.44272995, -21.36661148, -182.32647705, -61.88248825, 15.31715870, -106.78163910, 112.53018951, -39.96337891, -154.06819153, 0.39403808, 0.00957745, 0.80420732, 0.44485146, -0.25768834, -0.15516444, 0.00490261, 100.43100739, 74.68510437, 32.82999802, 0.00000000
1, 1.2749, 157, -0.33866301, -0.54233468, 0.26521125, -42.52312469, -19.16003990, -190.53245544, -61.88248825, 15.31715870, -106.78163910, 112.09287262, -39.04263306, -153.71740723, 0.38960427, 0.00399931, 0.80376714, 0.44961217, -0.29504734, -0.17480789, 0.02557041, 100.43100739, 74.68510437, 32.82999802, 0.00000000
1, 1.2799, 158, -0.30828950, -0.55332255, 0.25067893, -42.08569336, -18.73794174, -197.85385132, -60.74247360, 14.44022179, -107.16164398, 111.65682220, -38.08972168, -153.35946655, 0.38503420, -0.00183703, 0.80325884, 0.45444551, -0.31252462, -0.17561087, 0.03851546, 100.43100739, 74.68510437, 32.82999802, 0.00000000
1, 1.2849, 159, -0.29791057, -0.60029340, 0.22511236, -41.80093765, -20.24859238, -204.51834106, -60.74247360, 14.44022179, -107.16164398, 111.23136902, -37.10092926, -153.00886536, 0.38024738, -0.00788116, 0.80271566, 0.45934451, -0.30933321, -0.14052154, 0.06240167, 100.43100739, 74.68510437, 32.82999802, 0.00000000
1, 1.3002, 145, 0.18218994, -0.81011963, 0.32244873, 37.33954239, -37.55610657, -66.32611847, -17.65565681, -3.18620276, -105.87547302, 143.97692871, 32.29985046, -129.91371155, -0.11392962, -0.46459204, 0.79118282, 0.38105658, 0.35088822, 0.31169355, 0.36121476, 100.34900665, 81.56245422, 32.21999741, 0.00000000
1, 1.3052, 146, 0.16497803, -0.79412842, 0.31463623, 35.72954559, -36.85610580, -65.17111206, -17.65565681, -3.18620276, -105.87547302, 144.25485229, 32.64015198, -129.72882080, -0.11700908, -0.46604845, 0.79026741, 0.38024384, 0.37313324, 0.30091292, 0.36886340, 100.34900665, 81.56245422, 32.21999741, 0.00000000
1, 1.3102, 147, 0.13677979, -0.78662109, 0.30871582, 34.22454453, -37.27610397, -64.05110931, -17.30488205, -1.98772287, -105.17392731, 144.52384949, 32.97816467, -129.54815674, -0.12005234, -0.46746093, 0.78933734, 0.37949234, 0.40630153, 0.29850417, 0.37451306, 100.34900665, 81.56245422, 32.21999741, 0.00000000
1, 1.3599, 160, -0.44969624, -0.87685573, 0.27565822, -42.78899002, -90.01050568, -237.32995605, -52.06079865, 6.08009338, -106.13855743, 107.23188782, -19.50618553, -151.40916443, 0.27651209, -0.09853642, 0.79366803, 0.53284407, 0.10989784, -0.02187454, 0.00120258, 100.43100739, 74.68510437, 32.82999802, 0.00000000
1, 1.3649, 161, -0.47391081, -0.88107765, 0.29096252, -42.82431030, -92.90859985, -237.04808044, -49.78076553, 4.82315111, -105.58316040, 107.04792023, -18.23736191, -151.51152039, 0.26794529, -0.10403708, 0.79271585, 0.53757155, 0.15497628, -0.02552903, -0.01493546, 100.43100739, 74.68510437, 32.82999802, 0.00000000
1, 1.3152, 148, 0.12072754, -0.78485107, 0.30285645, 32.78954315, -38.18610382, -62.61611557, -17.30488205, -1.98772287, -105.17392731, 144.78244019, 33.31502914, -129.37507629, -0.12307239, -0.46881062, 0.78839821, 0.37881160, 0.42728522, 0.30171400, 0.37997422, 100.34900665, 81.56245422, 32.21999741, 0.00000000
1, 1.3202, 149, 0.08209229, -0.78295898, 0.29144287, 30.12953949, -39.79610825, -61.00611115, -16.48640823, -3.56620860, -105.52469635, 145.02249146, 33.65320587, -129.21302795, -0.12606530, -0.47008687, 0.78742987, 0.37825930, 0.47083822, 0.30460721, 0.39079216, 100.34900665, 81.56245422, 32.21999741, 0.00000000
1, 1.3252, 150, 0.02282715, -0.77722168, 0.27343750, 28.02954102, -40.95110703, -59.81611252, -16.48640823, -3.56620860, -105.52469635, 145.24862671, 33.99217606, -129.05853271, -0.12903373, -0.47130924, 0.78643578, 0.37780502, 0.53502530, 0.30346781, 0.40799844, 100.34900665, 81.56245422, 32.21999741, 0.00000000
1, 1.3302, 151, 0.00543213, -0.78161621, 0.24981689, 22.88454056, -39.55110550, -57.33111191, -16.48640823, -3.56620860, -105.52469635, 145.44676208, 34.31783295, -128.90943909, -0.13180594, -0.47249332, 0.78540742, 0.37750837, 0.55718362, 0.31214863, 0.43066919, 100.34900665, 81.56245422, 32.21999741, 0.00000000
1, 1.3352, 152, 0.02191162, -0.78509521, 0.23272705, 19.69953728, -38.36110687, -56.03611374, -16.86641312, -1.66617942, -105.29084778, 145.62934875, 34.63452530, -128.76086426, -0.13444908, -0.47366628, 0.78435224, 0.37730005, 0.54529667, 0.31962532, 0.44669223, 100.34900665, 81.56245422, 32.21999741, 0.00000000
1, 1.3699, 162, -0.51763427, -0.89715648, 0.29807782, -42.47859955, -94.99845886, -236.92704773, -49.78076553, 4.82315111, -105.58316040, 106.86781311, -16.96640015, -151.62802124, 0.25927350, -0.10947531, 0.79169607, 0.54222667, 0.21978180, -0.01686423, -0.02306082, 100.43100739, 74.68510437, 32.82999802, 0.00000000
1, 1.3749, 163, -0.58748311, -0.91550326, 0.30948663, -41.98972321, -94.22990417, -236.84481812, -49.78076553, 4.82315111, -105.58316040, 106.68806458, -15.70105457, -151.74398804, 0.25062007, -0.11490331, 0.79058212, 0.54677868, 0.31079972, -0.00547474, -0.03571605, 100.43100739, 74.68510437, 32.82999802, 0.00000000
1, 1.3799, 164, -0.64124292, -0.93730032, 0.35424519, -40.79174805, -87.52017212, -237.33111572, -48.43613052, 3.88775206, -105.29084778, 106.50344849, -14.43947220, -151.82958984, 0.24212322, -0.12052464, 0.78931826, 0.55120486, 0.38568306, 0.00976855, -0.08192074, 100.43100739, 74.68510437, 32.82999802, 0.00000000
1, 1.3849, 165, -0.67527497, -0.94255960, 0.39252335, -40.35092163, -82.87533569, -237.68167114, -48.43613052, 3.88775206, -105.29084778, 106.31449890, -13.18300343, -151.89547729, 0.23374529, -0.12625973, 0.78791595, 0.55552685, 0.44090453, 0.00892696, -0.12182462, 100.43100739, 74.68510437, 32.82999802, 0.00000000
1, 1.3899, 166, -0.71331900, -0.92257369, 0.40367517, -40.74280930, -77.14451599, -238.59165955, -47.26688004, 3.18620276, -106.13855743, 106.11666107, -11.93034840, -151.93588257, 0.22551546, -0.13214573, 0.78634357, 0.55977154, 0.50025147, -0.01668616, -0.13486215, 100.43100739, 74.68510437, 32.82999802, 0.00000000
1, 1.3949, 167, -0.72983253, -0.90198660, 0.39976355, -40.60421371, -68.33209229, -239.99577332, -47.26688004, 3.18620276, -106.13855743, 105.91063690, -10.68316841, -151.93542480, 0.21752475, -0.13828076, 0.78458345, 0.56390619, 0.53811908, -0.04245009, -0.13309740, 100.43100739, 74.68510437, 32.82999802, 0.00000000
1, 1.3852, 153, 0.06658936, -0.67687988, 0.12359619, 30.09454155, 1.36390638, -32.02610397, -14.32329750, -1.52002335, -104.88161469, 147.43997192, 36.83480835, -127.21555328, -0.15343083, -0.48417142, 0.77644312, 0.37305915, 0.53267103, 0.24527186, 0.55064458, 100.34900665, 81.56245422, 32.21999741, 0.00000000
1, 1.3902, 154, 0.11395264, -0.68365479, 0.12475586, 33.06954193, 7.48890877, -28.45610428, -14.32329750, -1.52002335, -104.88161469, 147.71038818, 36.87949371, -127.04039001, -0.15433872, -0.48503500, 0.77642900, 0.37158936, 0.48605490, 0.25549224, 0.55101544, 100.34900665, 81.56245422, 32.21999741, 0.00000000
1, 1.3952, 155, 0.16687012, -0.69158936, 0.13354492, 34.32954407, 13.12391090, -25.30610275, -15.20023346, -1.05232382, -104.70622253, 147.98863220, 36.89126968, -126.86280060, -0.15503070, -0.48587298, 0.77653706, 0.36997747, 0.43341529, 0.26680762, 0.54411066, 100.34900665, 81.56245422, 32.21999741, 0.00000000
1, 1.3999, 168, -0.73600328, -0.86950660, 0.41585660, -40.59116364, -58.14307404, -242.20672607, -47.26688004, 3.18620276, -106.13855743, 105.69622803, -9.43914604, -151.88677979, 0.20980145, -0.14472592, 0.78261822, 0.56793189, 0.56561303, -0.07971393, -0.15159118, 100.43100739, 74.68510437, 32.82999802, 0.00000000
1, 1.4049, 169, -0.74959689, -0.83590162, 0.43242165, -40.10355377, -49.18054199, -245.39938354, -45.19146347, -0.29231218, -106.02162933, 105.47866058, -8.19153309, -151.79504395, 0.20227595, -0.15148938, 0.78046721, 0.57184482, 0.60064399, -0.11767736, -0.17080653, 100.43100739, 74.68510437, 32.82999802, 0.00000000
1, 1.4002, 156, 0.28234863, -0.70458984, 0.14904785, 34.18954468, 17.00891304, -21.45610046, -15.20023346, -1.05232382, -104.70622253, 148.26164246, 36.87570190, -126.69274139, -0.15552528, -0.48664239, 0.77674770, 0.36831266, 0.31778717, 0.28300035, 0.53073049, 100.34900665, 81.56245422, 32.21999741, 0.00000000
1, 1.4052, 157, 0.37384033, -0.71697998, 0.15521240, 30.40954208, 21.80391502, -17.85109901, -15.20023346, -1.05232382, -104.70622253, 148.51348877, 36.82964706, -126.52634430, -0.15571862, -0.48739058, 0.77700400, 0.36669728, 0.22576502, 0.29825127, 0.52679861, 100.34900665, 81.56245422, 32.21999741, 0.00000000
1, 1.4102, 158, 0.43853760, -0.71893311, 0.15466309, 27.04953957, 21.27891350, -15.75109768, -14.29406548, -2.01695418, -104.06314087, 148.74049377, 36.77980423, -126.37318420, -0.15582426, -0.48808065, 0.77724546, 0.36522022, 0.16037706, 0.30271921, 0.52949095, 100.34900665, 81.56245422, 32.21999741, 0.00000000
1, 1.4152, 159, 0.48071289, -0.71978760, 0.15631104, 23.44453812, 19.38891220, -14.17609787, -14.29406548, -2.01695418, -104.06314087, 148.94049072, 36.73351288, -126.23487854, -0.15589173, -0.48871043, 0.77744818, 0.36391541, 0.11753902, 0.30579054, 0.52976519, 100.34900665, 81.56245422, 32.21999741, 0.00000000
1, 1.4202, 160, 0.52398682, -0.70941162, 0.16662598, 20.18953705, 17.81391335, -13.02109718, -14.55714703, -0.67231804, -104.18006134, 149.11723328, 36.69065094, -126.10806274, -0.15592457, -0.48929718, 0.77761149, 0.36276180, 0.07365650, 0.29736626, 0.52115351, 100.34900665, 81.56245422, 32.21999741, 0.00000000
1, 1.4449, 170, -0.64434671, -0.89891315, 0.34663260, -34.14917374, 41.05687332, -257.31011963, -38.90675354, 1.11078632, -106.69394684, 103.78697968, 1.78824067, -149.33047485, 0.15134275, -0.21735512, 0.75621080, 0.59832877, 0.66947341, -0.07233871, -0.11080852, 100.43100739, 74.68510437, 32.82999802, 0.00000000
1, 1.4499, 171, -0.58655989, -0.91524267, 0.36567894, -32.34529495, 45.68411636, -253.50727844, -38.90675354, 1.11078632, -106.69394684, 103.64374542, 2.96593261, -148.80961609, 0.14652137, -0.22666951, 0.75259870, 0.60062283, 0.63228023, -0.05592545, -0.13242084, 100.43100739, 74.68510437, 32.82999802, 0.00000000
1, 1.4452, 161, 0.61450195, -0.65240479, 0.31781006, 14.86953735, 5.52890778, -3.71109414, -14.26483440, -1.54925454, -103.39082336, 149.79261780, 36.52733994, -125.67081451, -0.15622234, -0.49122515, 0.77841234, 0.35828322, -0.01925632, 0.24783967, 0.37645912, 100.34900665, 81.56245422, 32.21999741, 0.00000000
1, 1.4502, 162, 0.61810303, -0.65197754, 0.34289551, 13.43453598, 1.74890685, -0.70109308, -14.26483440, -1.54925454, -103.39082336, 149.86529541, 36.52154541, -125.66156006, -0.15646183, -0.49118465, 0.77861911, 0.35778460, -0.02296410, 0.24832979, 0.35199884, 100.34900665, 81.56245422, 32.21999741, 0.00000000
1, 1.4549, 172, -0.51670933, -0.91077471, 0.36492965, -31.78001022, 47.07253265, -248.71429443, -36.33440399, -0.35077462, -107.77550507, 103.51387024, 4.11994743, -148.28987122, 0.14184725, -0.23583829, 0.74894494, 0.60277796, 0.58264589, -0.05982145, -0.13401297, 100.43100739, 74.68510437, 32.82999802, 0.00000000
1, 1.4599, 173, -0.43516713, -0.87391174, 0.35943758, -30.61284065, 46.06398010, -242.51390076, -36.33440399, -0.35077462, -107.77550507, 103.39907837, 5.24608421, -147.78396606, 0.13727419, -0.24475697, 0.74530166, 0.60479361, 0.52083802, -0.09568341, -0.13062473, 100.43100739, 74.68510437, 32.82999802, 0.00000000
1, 1.4649, 174, -0.35873923, -0.83099759, 0.35529721, -28.99322319, 40.35366058, -234.71377563, -33.84975052, -1.08155513, -107.51242065, 103.29837036, 6.34176493, -147.31620789, 0.13268885, -0.25325346, 0.74173427, 0.60670155, 0.46359253, -0.13720709, -0.12840886, 100.43100739, 74.68510437, 32.82999802, 0.00000000
1, 1.4552, 163, 0.62738037, -0.65319824, 0.35894775, 12.10453510, -1.68109441, 2.30890799, -12.97866154, -1.54925454, -104.23852539, 149.91528320, 36.52302933, -125.67923737, -0.15674230, -0.49099725, 0.77884585, 0.35742512, -0.03224557, 0.25022078, 0.33633900, 100.34900665, 81.56245422, 32.21999741, 0.00000000
1, 1.4602, 164, 0.63970947, -0.65985107, 0.36474609, 10.73953533, -4.93609571, 5.70390892, -12.97866154, -1.52002335, -104.23852539, 149.94154358, 36.53010941, -125.72534180, -0.15705119, -0.49065289, 0.77910161, 0.35720485, -0.04449422, 0.25729483, 0.33071589, 100.34900665, 81.56245422, 32.21999741, 0.00000000
1, 1.4652, 165, 0.65447998, -0.66522217, 0.37036133, 9.79453564, -8.26109600, 8.78390980, -12.97866154, -1.52002335, -104.23852539, 149.94703674, 36.54386520, -125.79840088, -0.15740480, -0.49015835, 0.77938563, 0.35710889, -0.05909533, 0.26285696, 0.32506615, 100.34900665, 81.56245422, 32.21999741, 0.00000000
1, 1.4699, 175, -0.33486515, -0.80254471, 0.32595554, -26.74176788, 30.05653000, -224.22685242, -33.84975052, -1.08155513, -107.51242065, 103.21018982, 7.39890051, -146.91180420, 0.12800972, -0.26112479, 0.73832530, 0.60852545, 0.45829856, -0.16389076, -0.10099317, 100.43100739, 74.68510437, 32.82999802, 0.00000000
1, 1.4749, 176, -0.37610340, -0.79808807, 0.24113512, -23.38721085, 20.26777267, -211.28817749, -33.84975052, -1.08155513, -107.51242065, 103.13818359, 8.39256668, -146.56962585, 0.12339474, -0.26826212, 0.73516548, 0.61019748, 0.51727766, -0.16622195, -0.01809568, 100.43100739, 74.68510437, 32.82999802, 0.00000000
1, 1.4799, 177, -0.43185306, -0.80077434, 0.15136139, -17.87652779, 14.94728661, -196.51788330, -31.89126015, -1.31540489, -107.07395172, 103.09219360, 9.33283901, -146.27194214, 0.11884248, -0.27484554, 0.73227030, 0.61165082, 0.58966696, -0.16117187, 0.07007726, 100.43100739, 74.68510437, 32.82999802, 0.00000000
1, 1.4849, 178, -0.48147848, -0.81561029, 0.19168821, -10.92966652, 9.71987438, -176.36560059, -31.89126015, -1.31540489, -107.07395172, 103.07754517, 10.18103695, -146.02281189, 0.11456998, -0.28066453, 0.72978115, 0.61279738, 0.65427434, -0.14402163, 0.02865675, 100.43100739, 74.68510437, 32.82999802, 0.00000000
1, 1.4899, 179, -0.50549871, -0.82860065, 0.24211174, -5.49369955, -0.89220840, -160.28330994, -30.48816109, -1.05232382, -107.48319244, 103.08071136, 10.96289444, -145.84413147, 0.11031735, -0.28570005, 0.72764814, 0.61378646, 0.69183564, -0.12868452, -0.02244581, 100.43100739, 74.68510437, 32.82999802, 0.00000000
1, 1.4702, 166, 0.68487549, -0.66247559, 0.36407471, 9.58453465, -10.53609657, 11.68891144, -14.11867905, -1.69541073, -103.80005646, 149.93788147, 36.56018448, -125.89422607, -0.15778591, -0.48953062, 0.77971226, 0.35708845, -0.08926500, 0.26011771, 0.33116359, 100.34900665, 81.56245422, 32.21999741, 0.00000000
1, 1.4752, 167, 0.71685791, -0.66296387, 0.35760498, 11.47453594, -9.94109726, 15.88891220, -14.11867905, -1.69541073, -103.80005646, 149.92579651, 36.56339645, -126.01083374, -0.15812160, -0.48875597, 0.78016168, 0.35701972, -0.12114184, 0.26049742, 0.33748004, 100.34900665, 81.56245422, 32.21999741, 0.00000000
1, 1.5299, 180, -0.55267197, -0.84979129, 0.31431788, -3.81594682, -21.76025200, -54.31352997, -27.88658333, -2.33849740, -107.86319733, 103.11609650, 14.80634022, -145.73696899, 0.08516885, -0.30534720, 0.71865004, 0.61891168, 0.80627704, -0.09256384, -0.09748492, 100.43100739, 74.68510437, 32.82999802, 0.00000000
1, 1.4802, 168, 0.74737549, -0.68188477, 0.36004639, 14.20453644, -7.00109673, 18.93391228, -14.11867905, -3.68313360, -103.47851563, 149.92306519, 36.54624939, -126.13466644, -0.15836778, -0.48790407, 0.78073800, 0.35681593, -0.15182288, 0.27929440, 0.33510694, 100.34900665, 81.56245422, 32.21999741, 0.00000000
1, 1.5349, 181, -0.54307520, -0.80538046, 0.32172626, -5.32503700, -20.86311150, -42.81087112, -27.88658333, -2.33849740, -107.86319733, 103.07467651, 15.03830910, -145.79234314, 0.08342983, -0.30610192, 0.71800971, 0.61951846, 0.80081904, -0.13606147, -0.10568608, 100.43100739, 74.68510437, 32.82999802, 0.00000000
1, 1.5399, 182, -0.54596370, -0.76263928, 0.26596671, -6.57481718, -20.61283684, -30.38052368, -27.38965225, -2.22157264, -108.12627411, 103.02346039, 15.20936966, -145.86112976, 0.08205137, -0.30646896, 0.71749908, 0.62011242, 0.80699086, -0.17807207, -0.05085663, 100.43100739, 74.68510437, 32.82999802, 0.00000000
1, 1.4852, 169, 0.76373291, -0.70703125, 0.35290527, 16.47953606, -4.09609509, 22.29391479, -14.11867905, -3.68313360, -103.47851563, 149.92639160, 36.50810623, -126.26747131, -0.15851091, -0.48696655, 0.78144020, 0.35649553, -0.16864379, 0.30429125, 0.34255823, 100.34900665, 81.56245422, 32.21999741, 0.00000000
1, 1.4902, 170, 0.77215576, -0.74029541, 0.35638428, 18.15953636, -0.38609394, 25.19891548, -14.11867905, -3.68313360, -103.47851563, 149.93585205, 36.44665527, -126.40428162, -0.15851781, -0.48597533, 0.78225476, 0.35605860, -0.17784768, 0.33736545, 0.33963686, 100.34900665, 81.56245422, 32.21999741, 0.00000000
1, 1.5449, 183, -0.55597216, -0.73351943, 0.22952120, -7.35815763, -19.82446671, -14.05249596, -27.38965225, -2.22157264, -108.12627411, 102.96441650, 15.29989338, -145.94503784, 0.08115003, -0.30634367, 0.71718246, 0.62065905, 0.81888735, -0.20687434, -0.01544439, 100.43100739, 74.68510437, 32.82999802, 0.00000000
1, 1.5552, 171, 0.26428223, -0.69348145, 0.47662354, 1.39453173, -37.45110703, 73.95393372, -16.07716942, -3.01081562, -103.30312347, 148.69462585, 35.19844437, -129.74114990, -0.15437306, -0.46363297, 0.79632878, 0.35647443, 0.31223908, 0.26981041, 0.22203591, 100.34900665, 81.56245422, 32.21999741, 0.00000000
1, 1.5499, 184, -0.58909786, -0.70774484, 0.20043595, -6.06767845, -16.84029961, 2.96746302, -27.38965225, -2.22157264, -108.12627411, 102.91074371, 15.30407238, -146.03358459, 0.08078571, -0.30577198, 0.71711785, 0.62106293, 0.85258877, -0.23267649, 0.01265950, 100.43100739, 74.68510437, 32.82999802, 0.00000000
1, 1.5549, 185, -0.60978752, -0.70576739, 0.18778665, -4.07558060, -16.79508018, 16.40322304, -26.74656487, -1.92926037, -108.15550995, 102.86322784, 15.24263954, -146.13729858, 0.08076041, -0.30478880, 0.71728653, 0.62135470, 0.87255120, -0.23501891, 0.02450436, 100.43100739, 74.68510437, 32.82999802, 0.00000000
1, 1.5602, 172, 0.25177002, -0.74041748, 0.47869873, -0.74046898, -39.83110809, 77.97892761, -16.07716942, -3.01081562, -103.30312347, 148.38320923, 35.16483688, -130.27523804, -0.15452808, -0.46030560, 0.79762059, 0.35782859, 0.32428262, 0.31286806, 0.21798176, 100.34900665, 81.56245422, 32.21999741, 0.00000000
1, 1.5652, 173, 0.25317383, -0.78527832, 0.46911621, -4.41547060, -41.40610886, 80.81394196, -16.07716942, -3.01081562, -103.30312347, 148.04252625, 35.12797546, -130.82864380, -0.15461755, -0.45687273, 0.79888922, 0.35935599, 0.32236469, 0.35349417, 0.22537377, 100.34900665, 81.56245422, 32.21999741, 0.00000000
1, 1.5599, 186, -0.61735713, -0.70749009, 0.18783824, -2.72965550, -19.19416237, 29.85904694, -26.74656487, -1.92926037, -108.15550995, 102.81562805, 15.11815548, -146.26844788, 0.08100700, -0.30332425, 0.71767879, 0.62158626, 0.87828428, -0.23395902, 0.02377016, 100.43100739, 74.68510437, 32.82999802, 0.00000000
1, 1.5702, 174, 0.25390625, -0.84289551, 0.43341064, -7.63547087, -42.24610901, 83.26393890, -17.56796265, -3.18620276, -104.23852539, 147.67753601, 35.08536911, -131.39691162, -0.15463114, -0.45335561, 0.80013764, 0.36102307, 0.32105047, 0.40654281, 0.25870162, 100.34900665, 81.56245422, 32.21999741, 0.00000000
1, 1.5649, 187, -0.62006670, -0.70839930, 0.17920321, -1.84654558, -24.58373260, 42.93401337, -26.68810272, -2.57234716, -107.80473328, 102.76205444, 14.93572998, -146.44143677, 0.08142789, -0.30130672, 0.71828532, 0.62181193, 0.87818015, -0.23397373, 0.03171260, 100.43100739, 74.68510437, 32.82999802, 0.00000000
1, 1.5699, 188, -0.61043465, -0.76407826, 0.15152277, 0.64033425, -30.45866203, 55.03059387, -26.68810272, -2.57234716, -107.80473328, 102.71070862, 14.70058346, -146.65745544, 0.08195999, -0.29875818, 0.71913576, 0.62198871, 0.86486226, -0.17941882, 0.05867488, 100.43100739, 74.68510437, 32.82999802, 0.00000000
1, 1.5752, 175, 0.26849365, -0.93170166, 0.39685059, -9.38547230, -40.00610352, 85.22393036, -17.56796265, -3.18620276, -104.23852539, 147.30303955, 35.02503586, -131.96722412, -0.15449835, -0.44980955, 0.80139893, 0.36271417, 0.30567843, 0.49054864, 0.29286569, 100.34900665, 81.56245422, 32.21999741, 0.00000000
1, 1.5749, 189, -0.62874430, -0.81176496, 0.17451209, 3.80518675, -37.03832245, 64.78829193, -26.68810272, -2.57234716, -107.80473328, 102.66578674, 14.38491631, -146.91354370, 0.08279347, -0.29555959, 0.72030479, 0.62205380, 0.87827981, -0.13317011, 0.03508163, 100.43100739, 74.68510437, 32.82999802, 0.00000000
1, 1.5802, 176, 0.28405762, -1.10028076, 0.31402588, -9.28047276, -32.48110580, 86.16894531, -18.15258598, -3.24466538, -103.56620789, 146.94178772, 34.92753983, -132.51640320, -0.15408687, -0.44634134, 0.80271763, 0.36425424, 0.28887728, 0.65426028, 0.37358567, 100.34900665, 81.56245422, 32.21999741, 0.00000000
1, 1.6449, 190, -0.45381629, -0.27528754, 0.78436673, -8.28617001, -321.75872803, 120.37339783, -31.80356598, -0.70154923, -107.62934875, 102.38619232, 8.56399059, -151.22746277, 0.09891422, -0.23839897, 0.74109370, 0.61980814, 0.60189986, -0.69137311, -0.57254606, 100.43100739, 74.68510437, 32.82999802, 0.00000000
1, 1.5852, 177, 0.35034180, -1.42980957, 0.24841309, -8.58047104, -22.26110077, 85.85394287, -18.15258598, -3.24466538, -103.56620789, 146.60630798, 34.78543472, -133.02833557, -0.15333377, -0.44303480, 0.80409753, 0.36556280, 0.22067405, 0.97897583, 0.43765393, 100.34900665, 81.56245422, 32.21999741, 0.00000000
1, 1.5902, 178, 0.55902100, -1.91217041, 0.14953613, -7.95047092, 11.82890987, 76.78893280, -18.15258598, -3.24466538, -103.56620789, 146.36779785, 34.52413940, -133.37777710, -0.15153919, -0.44058001, 0.80552942, 0.36612496, 0.00871883, 1.45689547, 0.53631675, 100.34900665, 81.56245422, 32.21999741, 0.00000000
1, 1.6499, 191, -0.87548250, -0.00786950, 0.31929788, -10.79926586, -262.06881714, 128.76846313, -34.08359909, -0.93539900, -106.75241089, 102.12454987, 8.21042824, -152.65933228, 0.09404410, -0.22707400, 0.74322236, 0.62226498, 1.01917148, -0.95988119, -0.11269909, 100.43100739, 74.68510437, 32.82999802, 0.00000000
1, 1.6549, 192, -1.09762847, -0.09544629, 0.20883156, 6.27554035, -179.35806274, 131.22358704, -34.08359909, -0.93539900, -106.75241089, 102.01544189, 7.75474834, -153.68264771, 0.09173527, -0.21796212, 0.74540460, 0.62325692, 1.23401034, -0.87367976, -0.00504859, 100.43100739, 74.68510437, 32.82999802, 0.00000000
1, 1.5952, 179, 0.78509521, -2.27471924, 0.15863037, -6.58547068, 27.71891594, 67.12892914, -19.11721611, -3.85852075, -104.12159729, 146.19650269, 34.22253799, -133.62281799, -0.14936505, -0.43870479, 0.80689383, 0.36626580, -0.22157182, 1.81558144, 0.52812397, 100.34900665, 81.56245422, 32.21999741, 0.00000000
1, 1.6599, 193, -1.08911550, -0.59954250, 0.54057908, 60.92508316, -23.13431549, 126.08442688, -34.08359909, -0.93539900, -106.75241089, 102.28943634, 7.16304302, -153.92933655, 0.09383237, -0.21348211, 0.74834460, 0.62096798, 1.21504879, -0.37075719, -0.33443552, 100.43100739, 74.68510437, 32.82999802, 0.00000000
1, 1.6002, 180, 1.01733398, -2.43731689, 0.30053711, -2.10546947, 36.11891937, 56.27892685, -19.11721611, -3.85852075, -104.12159729, 146.09596252, 33.91580582, -133.78346252, -0.14715298, -0.43731248, 0.80816936, 0.36601380, -0.45826900, 1.97508407, 0.38778350, 100.34900665, 81.56245422, 32.21999741, 0.00000000
1, 1.6302, 181, -0.08703613, -0.51361084, -0.08276367, 6.32953358, -87.53612518, -2.31109357, -18.62028694, -4.29698896, -103.53697968, 145.27046204, 34.57078171, -135.04446411, -0.15309109, -0.43036327, 0.80817926, 0.37174845, 0.65315390, 0.04437810, 0.76050162, 100.34900665, 81.56245422, 32.21999741, 0.00000000
1, 1.6649, 194, -1.03996146, -0.99426866, 0.59401476, 65.07687378, 8.67194557, 120.09472656, -35.57439423, -0.52616191, -106.16778564, 102.60592651, 6.56795979, -154.01591492, 0.09676063, -0.21007033, 0.75118315, 0.61824900, 1.15542126, 0.02380914, -0.38278499, 100.43100739, 74.68510437, 32.82999802, 0.00000000
1, 1.6352, 182, -0.36242676, -0.39727783, 0.04736328, 9.09453487, -82.14612579, 3.04390788, -18.62028694, -4.29698896, -103.53697968, 145.14474487, 34.89939880, -135.34486389, -0.15610816, -0.42885989, 0.80782992, 0.37298834, 0.93344355, -0.07152516, 0.62655199, 100.34900665, 81.56245422, 32.21999741, 0.00000000
1, 1.6402, 183, -0.54364014, -0.35198975, 0.19854736, 6.50453329, -67.69111633, 11.79391193, -18.62028694, -4.29698896, -103.53697968, 145.00756836, 35.14315796, -135.64050293, -0.15842319, -0.42729640, 0.80769163, 0.37410459, 1.11848414, -0.11683580, 0.47209147, 100.34900665, 81.56245422, 32.21999741, 0.00000000
1, 1.6452, 184, -0.61657715, -0.34271240, 0.30181885, -2.00046992, -46.51610947, 21.83891296, -20.08184814, -3.85852075, -103.74159241, 144.84017944, 35.27075577, -135.91343689, -0.15966833, -0.42578027, 0.80774242, 0.37519255, 1.19367623, -0.12706697, 0.36621097, 100.34900665, 81.56245422, 32.21999741, 0.00000000
1, 1.6502, 185, -0.65228271, -0.29284668, 0.33190918, -11.48547268, -19.56609917, 32.05891800, -20.08184814, -3.85852075, -103.74159241, 144.65025330, 35.25813675, -136.14289856, -0.15961944, -0.42440963, 0.80801243, 0.37618387, 1.22972465, -0.17895694, 0.33439571, 100.34900665, 81.56245422, 32.21999741, 0.00000000
