SensorId, TimeStamp (s), FrameNumber, AccX (g), AccY (g), AccZ (g), GyroX (deg/s), GyroY (deg/s), GyroZ (deg/s), MagX (uT), MagY (uT), MagZ (uT), EulerX (deg), EulerY (deg), EulerZ (deg), QuatW, QuatX, QuatY, QuatZ, LinAccX (g), LinAccY (g), LinAccZ (g), Pressure (kPa), Altitude (m), Temperature (degC), HeaveMotion (m)
1, -0.0000, 0, -0.06461185, -0.99080312, 0.24121216, -4.03860617, 9.17521000, 13.26296520, -33.90821457, -1.16924870, -107.68781281, 103.69307709, -6.04542017, 2.98116398, -0.61562324, 0.78584635, -0.01213829, 0.05749951, -0.04098116, 0.02422255, -0.00748356, 100.05900574, 105.92120361, 34.16999817, 0.00000000
1, 0.0650, 1, -0.03856750, -0.96971071, 0.18110150, -15.97549057, 39.63010788, 9.93456173, -33.79129028, 0.23384975, -108.59397888, 102.83820343, -7.16397285, 4.57204676, -0.61995751, 0.78113431, -0.00780998, 0.07362729, -0.08619568, 0.00206980, 0.03810987, 100.05900574, 105.92120361, 34.16999817, 0.00000000
1, 0.0700, 2, -0.04543074, -0.97399700, 0.18188970, -14.57866573, 36.03847885, 10.60232067, -33.79129028, 0.23384975, -108.59397888, 102.74468231, -7.25546741, 4.73744440, -0.62043089, 0.78062004, -0.00724198, 0.07513727, -0.08092328, 0.00618312, 0.03564001, 100.05900574, 105.92120361, 34.16999817, 0.00000000
1, 0.0750, 3, -0.05063543, -0.97347569, 0.17578182, -13.72763729, 33.42174911, 11.08995152, -34.02513885, 0.35077462, -108.62320709, 102.65685272, -7.34622002, 4.88962460, -0.62087089, 0.78013492, -0.00675860, 0.07657152, -0.07727899, 0.00552870, 0.04018790, 100.05900574, 105.92120361, 34.16999817, 0.00000000
1, 0.0800, 4, -0.05488917, -0.96887362, 0.16483116, -12.91405773, 30.94561958, 11.51130581, -34.02513885, 0.35077462, -108.62320709, 102.57447052, -7.43610907, 5.02932119, -0.62127942, 0.77967823, -0.00635397, 0.07793301, -0.07455637, 0.00082331, 0.04967371, 100.05900574, 105.92120361, 34.16999817, 0.00000000
1, 0.0850, 5, -0.06537309, -0.97473097, 0.16614692, -11.85237312, 28.57278633, 12.07217312, -33.26512527, 0.35077462, -109.23706055, 102.49875641, -7.52598333, 5.15687656, -0.62164778, 0.77925634, -0.00602920, 0.07922917, -0.06562959, 0.00658633, 0.04697250, 100.05900574, 105.92120361, 34.16999817, 0.00000000
1, 0.0900, 6, -0.06554825, -0.98389816, 0.14598046, -10.93377876, 26.26830864, 12.63649082, -33.26512527, 0.35077462, -109.23706055, 102.42003632, -7.60724688, 5.27392673, -0.62204713, 0.77881891, -0.00573260, 0.08041012, -0.06688669, 0.01569478, 0.06580012, 100.05900574, 105.92120361, 34.16999817, 0.00000000
1, 0.0950, 7, -0.06407291, -0.99861133, 0.14677766, -10.57644176, 23.29906273, 13.12200451, -33.26512527, 0.35077462, -109.23706055, 102.35391235, -7.69627857, 5.37465572, -0.62236470, 0.77844703, -0.00558206, 0.08155573, -0.06983672, 0.03033474, 0.06373676, 100.05900574, 105.92120361, 34.16999817, 0.00000000
1, 0.1000, 8, -0.06661623, -1.00439835, 0.15602638, -10.42882252, 19.92105293, 13.14476395, -34.02513885, 0.40923706, -109.32476044, 102.29061127, -7.78173876, 5.45882225, -0.62267548, 0.77809012, -0.00552374, 0.08258733, -0.06881267, 0.03606711, 0.05334318, 100.05900574, 105.92120361, 34.16999817, 0.00000000
1, 0.1050, 9, -0.08137938, -1.00804317, 0.17908642, -9.50563049, 17.04484367, 12.85414410, -34.02513885, 0.40923706, -109.32476044, 102.23364258, -7.86264753, 5.52921200, -0.62295467, 0.77776766, -0.00553051, 0.08351353, -0.05552322, 0.03964867, 0.02921078, 100.05900574, 105.92120361, 34.16999817, 0.00000000
1, 0.1100, 10, -0.10150060, -1.01141906, 0.17914666, -9.20134354, 15.41052723, 12.84636688, -34.28821945, 0.61385560, -109.79245758, 102.17921448, -7.94172764, 5.59164238, -0.62322247, 0.77745873, -0.00558031, 0.08438409, -0.03677689, 0.04300901, 0.02812520, 100.05900574, 105.92120361, 34.16999817, 0.00000000
1, 0.1450, 11, -0.13507308, -1.03340101, 0.17371939, -8.57824993, 10.26349640, 9.80642319, -34.52206802, -0.32154340, -109.29552460, 101.83282471, -8.41456699, 5.90997648, -0.62498301, 0.77549011, -0.00628397, 0.08928531, -0.01144542, 0.06490794, 0.02731642, 100.05900574, 105.92120361, 34.16999817, 0.00000000
1, 0.1500, 12, -0.13185872, -1.03237140, 0.17524783, -8.98305225, 11.31262016, 9.48605919, -34.52206802, -0.32154340, -109.29552460, 101.78125000, -8.47259712, 5.95621109, -0.62525207, 0.77519894, -0.00633103, 0.08992490, -0.01566990, 0.06384199, 0.02490802, 100.05900574, 105.92120361, 34.16999817, 0.00000000
1, 0.1550, 13, -0.11782781, -1.02763176, 0.18622975, -9.41180038, 11.32466698, 8.82581425, -34.52206802, -0.32154340, -109.29552460, 101.72734070, -8.52737331, 6.00323772, -0.62553799, 0.77489555, -0.00635722, 0.09054672, -0.03068910, 0.05903657, 0.01303660, 100.05900574, 105.92120361, 34.16999817, 0.00000000
1, 0.1600, 14, -0.13544640, -1.01494026, 0.19388945, -9.41787910, 11.68776989, 8.20360661, -34.37591171, 0.20461853, -110.08477020, 101.67298126, -8.57942390, 6.05275679, -0.62582642, 0.77459031, -0.00635248, 0.09116373, -0.01399833, 0.04627627, 0.00441040, 100.05900574, 105.92120361, 34.16999817, 0.00000000
1, 0.1650, 15, -0.15608677, -1.01280022, 0.17960304, -9.50251102, 12.73890686, 7.91426802, -34.37591171, 0.20461853, -110.08477020, 101.61734772, -8.63106728, 6.10783720, -0.62611872, 0.77427834, -0.00630955, 0.09180830, 0.00578802, 0.04409868, 0.01768860, 100.05900574, 105.92120361, 34.16999817, 0.00000000
1, 0.1700, 16, -0.17601267, -1.01082337, 0.16239524, -9.52596092, 14.62525749, 7.67911148, -33.87898254, -0.61385560, -109.67552948, 101.56005859, -8.68337154, 6.17256355, -0.62641299, 0.77395755, -0.00620708, 0.09250993, 0.02485811, 0.04208598, 0.03385857, 100.05900574, 105.92120361, 34.16999817, 0.00000000
1, 0.1750, 17, -0.17031327, -1.00652874, 0.17060149, -9.09075642, 16.89111328, 7.76263189, -33.87898254, -0.61385560, -109.67552948, 101.50321960, -8.73827362, 6.24849701, -0.62669224, 0.77363896, -0.00604366, 0.09329031, 0.01820428, 0.03772136, 0.02468224, 100.05900574, 105.92120361, 34.16999817, 0.00000000
1, 0.1800, 18, -0.14932764, -0.99931490, 0.19266523, -9.30133438, 19.63692474, 7.93591499, -33.87898254, -0.61385560, -109.67552948, 101.44316101, -8.79665947, 6.33794594, -0.62697828, 0.77330267, -0.00581171, 0.09416789, -0.00382877, 0.03041828, 0.00165452, 100.05900574, 105.92120361, 34.16999817, 0.00000000
1, 0.1850, 19, -0.12114952, -0.98868060, 0.19503053, -9.96899605, 21.89630127, 7.89311218, -34.20052719, 0.55539316, -110.34784698, 101.37796021, -8.85696507, 6.43871784, -0.62728673, 0.77293807, -0.00551920, 0.09512018, -0.03304769, 0.01971864, -0.00173735, 100.05900574, 105.92120361, 34.16999817, 0.00000000
1, 0.1900, 20, -0.09943093, -0.97823465, 0.18259130, -10.36332607, 22.16962242, 7.97475052, -34.20052719, 0.55539316, -110.34784698, 101.30838013, -8.90827560, 6.54127073, -0.62762886, 0.77255106, -0.00516966, 0.09602198, -0.05569994, 0.00920931, 0.00959099, 100.05900574, 105.92120361, 34.16999817, 0.00000000
1, 0.2100, 21, -0.07234028, -0.97192800, 0.19726668, -9.45730591, 24.18319702, 10.04423904, -33.61590195, 0.20461853, -109.61707306, 101.05023193, -9.17792702, 6.97056723, -0.62877572, 0.77109772, -0.00399430, 0.10016747, -0.08733927, 0.00271229, -0.00953971, 100.05900574, 105.92120361, 34.16999817, 0.00000000
1, 0.2150, 22, -0.07610697, -0.96943152, 0.17090395, -9.78186417, 24.71977615, 10.79725552, -33.61590195, 0.20461853, -109.61707306, 100.98343658, -9.25447559, 7.08312416, -0.62906057, 0.77071953, -0.00372098, 0.10129376, -0.08480720, 0.00024728, 0.01565759, 100.05900574, 105.92120361, 34.16999817, 0.00000000
1, 0.2200, 23, -0.07435209, -0.97176278, 0.17498274, -9.71198845, 24.98219681, 11.50366497, -33.99590683, 1.02309263, -110.43554688, 100.91674042, -9.33460808, 7.19643164, -0.62933892, 0.77034086, -0.00346382, 0.10244815, -0.08793092, 0.00257028, 0.01040567, 100.05900574, 105.92120361, 34.16999817, 0.00000000
1, 0.2250, 24, -0.06712165, -0.98072362, 0.18650547, -9.81479359, 24.85596848, 12.37826920, -33.99590683, 1.02309263, -110.43554688, 100.84957123, -9.41878605, 7.30840492, -0.62961578, 0.76995850, -0.00323993, 0.10362220, -0.09663063, 0.01152727, -0.00229124, 100.05900574, 105.92120361, 34.16999817, 0.00000000
1, 0.2300, 25, -0.06700376, -0.98779559, 0.18004744, -9.94657230, 24.11037064, 12.92300987, -33.99590683, 1.02309263, -110.43554688, 100.78227234, -9.50482750, 7.41627216, -0.62989336, 0.76957452, -0.00305551, 0.10478605, -0.09820560, 0.01863333, 0.00297491, 100.05900574, 105.92120361, 34.16999817, 0.00000000
1, 0.2350, 26, -0.07721084, -0.99449611, 0.16397215, -10.25354767, 23.15350533, 13.49999619, -33.90821457, -0.02923122, -109.93861389, 100.71413422, -9.59269714, 7.51896238, -0.63017750, 0.76918530, -0.00291821, 0.10593355, -0.08946377, 0.02538958, 0.01781579, 100.05900574, 105.92120361, 34.16999817, 0.00000000
1, 0.2400, 27, -0.09400604, -1.00417602, 0.15739675, -9.96024704, 22.51946831, 13.90177822, -33.90821457, -0.02923122, -109.93861389, 100.64398193, -9.67185307, 7.61901379, -0.63048333, 0.76878631, -0.00275329, 0.10700846, -0.07409605, 0.03510065, 0.02312436, 100.05900574, 105.92120361, 34.16999817, 0.00000000
1, 0.2450, 28, -0.11340661, -1.01143825, 0.15762065, -9.74498081, 22.47488403, 14.38870621, -33.87898254, 1.60771704, -110.28939056, 100.57878113, -9.76321793, 7.71776390, -0.63074416, 0.76841193, -0.00266190, 0.10815741, -0.05617269, 0.04239682, 0.02165526, 100.05900574, 105.92120361, 34.16999817, 0.00000000
1, 0.2500, 29, -0.12661590, -1.02020884, 0.14285070, -9.80542469, 21.69677544, 14.86165810, -33.87898254, 1.60771704, -110.28939056, 100.51381683, -9.85608959, 7.81232882, -0.63100362, 0.76803815, -0.00260809, 0.10929313, -0.04451676, 0.05125641, 0.03522918, 100.05900574, 105.92120361, 34.16999817, 0.00000000
1, 0.2550, 30, -0.13649225, -1.02458382, 0.12627368, -10.04022789, 20.63778496, 15.36518860, -33.87898254, 1.60771704, -110.28939056, 100.44852448, -9.95038223, 7.90127468, -0.63126737, 0.76766205, -0.00260149, 0.11040716, -0.03621311, 0.05573101, 0.05062333, 100.05900574, 105.92120361, 34.16999817, 0.00000000
1, 0.3150, 31, 0.00246953, -0.99494660, 0.18198510, -14.32002354, 36.87666321, 17.90986061, -33.99590683, 1.49079216, -111.19555664, 99.54074860, -11.24282646, 9.37740231, -0.63448280, 0.76241922, -0.00094593, 0.12707390, -0.19738239, 0.02737659, -0.02059297, 100.05900574, 105.92120361, 34.16999817, 0.00000000
1, 0.3200, 32, -0.00305784, -1.00289845, 0.20620508, -12.89572334, 36.90662003, 18.62854004, -34.02513885, 1.87079799, -110.75708771, 99.44316101, -11.36501122, 9.54752254, -0.63480753, 0.76185656, -0.00061335, 0.12881684, -0.19399203, 0.03541670, -0.04657982, 100.05900574, 105.92120361, 34.16999817, 0.00000000
1, 0.3250, 33, -0.00353791, -1.01729906, 0.23775250, -12.59436035, 35.70480347, 19.47236252, -34.02513885, 1.87079799, -110.75708771, 99.34800720, -11.49010181, 9.71118832, -0.63511509, 0.76130629, -0.00034036, 0.13054289, -0.19571656, 0.04992120, -0.07983342, 100.05900574, 105.92120361, 34.16999817, 0.00000000
1, 0.3300, 34, -0.03028037, -1.02129447, 0.22561231, -13.10800838, 34.25204086, 20.32057762, -34.02513885, 1.87079799, -110.75708771, 99.25148773, -11.61795044, 9.86712074, -0.63543266, 0.76074761, -0.00013882, 0.13224381, -0.17112328, 0.05410837, -0.06946106, 100.05900574, 105.92120361, 34.16999817, 0.00000000
1, 0.3350, 35, -0.06051246, -1.01932418, 0.14775293, -14.07896709, 35.55683136, 22.22180367, -34.17129517, 0.61385560, -110.93247223, 99.14869690, -11.75596905, 10.02839184, -0.63576919, 0.76015192, 0.00003025, 0.13404043, -0.14300722, 0.05245895, 0.00654406, 100.05900574, 105.92120361, 34.16999817, 0.00000000
1, 0.3400, 36, -0.07031998, -1.01597130, 0.11857197, -13.72898102, 36.26595688, 23.28581619, -34.17129517, 0.61385560, -110.93247223, 99.04312134, -11.88711834, 10.19364738, -0.63612211, 0.75954151, 0.00025809, 0.13581382, -0.13544963, 0.04934991, 0.03387064, 100.05900574, 105.92120361, 34.16999817, 0.00000000
1, 0.3450, 37, -0.05614432, -1.01119065, 0.12305438, -13.86305714, 35.82196426, 24.32850456, -33.03127670, 0.55539316, -111.40017700, 98.94060516, -12.03516865, 10.35526657, -0.63643396, 0.75894463, 0.00036618, 0.13767678, -0.15204221, 0.04478592, 0.02759920, 100.05900574, 105.92120361, 34.16999817, 0.00000000
1, 0.3500, 38, -0.03189748, -0.99769449, 0.11370452, -14.20516777, 34.98733902, 25.60989571, -33.03127670, 0.55539316, -111.40017700, 98.83700562, -12.18863201, 10.51203537, -0.63674670, 0.75834030, 0.00040667, 0.13954730, -0.17885864, 0.03157968, 0.03520268, 100.05900574, 105.92120361, 34.16999817, 0.00000000
1, 0.3550, 39, -0.00547754, -0.98613167, 0.09744491, -14.15943527, 34.49760437, 27.17499352, -33.03127670, 0.55539316, -111.40017700, 98.73394012, -12.34919071, 10.66549110, -0.63704568, 0.75773752, 0.00038210, 0.14144468, -0.20794493, 0.02035269, 0.04971140, 100.05900574, 105.92120361, 34.16999817, 0.00000000
1, 0.3600, 40, 0.00792937, -0.98684621, 0.09276985, -14.21149063, 33.33805084, 29.04083252, -33.64513397, 1.90002918, -111.63402557, 98.63169861, -12.51783276, 10.81203651, -0.63733220, 0.75713742, 0.00026332, 0.14335513, -0.22418115, 0.02142831, 0.05260285, 100.05900574, 105.92120361, 34.16999817, 0.00000000
1, 0.4000, 41, -0.18337724, -1.13796651, 0.11944478, -14.74263668, 23.36869431, 37.92353821, -34.96053696, 2.19234133, -112.13095093, 97.87002563, -14.05259418, 11.61430740, -0.63930386, 0.75259298, -0.00423101, 0.15772311, -0.05887534, 0.17667617, 0.01149890, 100.05900574, 105.92120361, 34.16999817, 0.00000000
1, 0.4050, 42, -0.19879569, -1.14571023, 0.11381438, -15.04159069, 24.42544174, 37.32159424, -34.96053696, 2.19234133, -112.42326355, 97.77108765, -14.25411797, 11.71321011, -0.63954115, 0.75199890, -0.00487637, 0.15956512, -0.04686445, 0.18505353, 0.01531301, 100.05900574, 105.92120361, 34.16999817, 0.00000000
1, 0.4100, 43, -0.20402910, -1.14917088, 0.10404372, -15.06012440, 25.83197594, 36.75946426, -35.01900101, 2.36772871, -112.42326355, 97.66972351, -14.45361233, 11.82014942, -0.63978064, 0.75139153, -0.00546402, 0.16143681, -0.04498938, 0.18915533, 0.02326000, 100.05900574, 105.92120361, 34.16999817, 0.00000000
1, 0.4150, 44, -0.20053396, -1.15085983, 0.09519055, -15.08179760, 27.51530838, 36.27408218, -35.01900101, 2.36772871, -112.42326355, 97.56552124, -14.65162277, 11.93649960, -0.64002186, 0.75076836, -0.00598889, 0.16334933, -0.05181429, 0.19148551, 0.03027137, 100.05900574, 105.92120361, 34.16999817, 0.00000000
1, 0.4200, 45, -0.18573956, -1.14851260, 0.08528661, -15.13191319, 28.66952324, 36.05686569, -34.78514862, 0.73078048, -112.92019653, 97.45902252, -14.84909058, 12.05939674, -0.64026380, 0.75013250, -0.00647464, 0.16529281, -0.06991916, 0.18978730, 0.03832780, 100.05900574, 105.92120361, 34.16999817, 0.00000000
1, 0.4250, 46, -0.15903588, -1.14479768, 0.07925825, -15.11351776, 30.09699821, 36.09065628, -34.78514862, 0.73078048, -112.92019653, 97.35020447, -15.04741192, 12.19009686, -0.64050227, 0.74948335, -0.00692139, 0.16728312, -0.09994972, 0.18672784, 0.04250299, 100.05900574, 105.92120361, 34.16999817, 0.00000000
1, 0.4300, 47, -0.12448237, -1.13757384, 0.06252142, -15.65146160, 30.47431374, 36.14154816, -35.07746124, 1.63694823, -112.65711975, 97.23760223, -15.24598122, 12.32321644, -0.64075524, 0.74881291, -0.00736319, 0.16928628, -0.13780513, 0.18018624, 0.05735718, 100.05900574, 105.92120361, 34.16999817, 0.00000000
1, 0.4350, 48, -0.09455038, -1.12945580, 0.04697170, -16.07015038, 29.90272713, 36.58893585, -35.07746124, 1.63694823, -112.65711975, 97.12319183, -15.44617748, 12.45364475, -0.64101517, 0.74813133, -0.00783870, 0.17128247, -0.17105898, 0.17276457, 0.07097264, 100.05900574, 105.92120361, 34.16999817, 0.00000000
1, 0.4400, 49, -0.05380763, -1.11574495, 0.03356247, -16.37492371, 28.83392906, 37.47869492, -35.07746124, 1.63694823, -112.65711975, 97.00117493, -15.63321590, 12.58083439, -0.64134288, 0.74740988, -0.00827469, 0.17317420, -0.21503511, 0.15972850, 0.08241913, 100.05900574, 105.92120361, 34.16999817, 0.00000000
1, 0.4450, 50, -0.04458213, -1.11064017, 0.02282031, -16.56379509, 27.00028229, 38.34875107, -35.36977386, 3.01081562, -112.77404022, 96.88751984, -15.83990383, 12.69630623, -0.64159840, 0.74672896, -0.00889233, 0.17512354, -0.22755635, 0.15532702, 0.09111169, 100.05900574, 105.92120361, 34.16999817, 0.00000000
1, 0.5250, 51, 0.10586190, -1.01023984, 0.07309160, -12.59731388, 10.01416397, 74.34766388, -37.64981079, 4.23852682, -113.47559357, 95.41456604, -20.28509903, 13.39259815, -0.64269459, 0.73700714, -0.03278324, 0.20661426, -0.45118818, 0.07578267, 0.01434830, 100.05900574, 105.92120361, 34.16999817, 0.00000000
1, 0.5300, 52, 0.11277462, -1.02380061, 0.07140309, -11.65568733, 9.41518974, 77.89671326, -37.59134674, 2.22157264, -113.56328583, 95.35315704, -20.67740250, 13.40429306, -0.64237070, 0.73648381, -0.03512417, 0.20908830, -0.46443981, 0.09159547, 0.01478117, 100.05900574, 105.92120361, 34.16999817, 0.00000000
1, 0.5350, 53, 0.11766037, -1.03633249, 0.07885358, -10.78194237, 8.56941700, 81.54592133, -37.59134674, 2.22157264, -113.56328583, 95.29817200, -21.08746910, 13.41015434, -0.64197570, 0.73597807, -0.03759738, 0.21163635, -0.47596526, 0.10653155, 0.00617415, 100.05900574, 105.92120361, 34.16999817, 0.00000000
1, 0.5400, 54, 0.13188785, -1.03871751, 0.07572214, -9.94019794, 7.41171694, 85.11798096, -37.59134674, 2.22157264, -113.56328583, 95.24851227, -21.48324776, 13.41030025, -0.64157456, 0.73549896, -0.04001534, 0.21406108, -0.49681157, 0.11140275, 0.00827521, 100.05900574, 105.92120361, 34.16999817, 0.00000000
1, 0.5450, 55, 0.14446084, -1.04427755, 0.06263164, -8.28082752, 6.26380444, 88.57472229, -38.32212830, 4.35545158, -113.70944214, 95.21157837, -21.92723465, 13.40119839, -0.64101219, 0.73505324, -0.04275366, 0.21673088, -0.51623297, 0.11963786, 0.02048096, 100.05900574, 105.92120361, 34.16999817, 0.00000000
1, 0.5500, 56, 0.15736775, -1.06936646, 0.06269971, -6.40556574, 4.94041014, 92.16473389, -38.32212830, 4.35545158, -113.70944214, 95.18736267, -22.38851738, 13.38349342, -0.64034301, 0.73465437, -0.04562551, 0.21945901, -0.53653300, 0.14766762, 0.01968900, 100.05900574, 105.92120361, 34.16999817, 0.00000000
1, 0.5550, 57, 0.16268887, -1.09649706, 0.08061174, -5.19677639, 3.03404093, 96.59057617, -38.90675354, 2.80619693, -113.65097809, 95.17412567, -22.87097359, 13.35346031, -0.63957757, 0.73428637, -0.04867987, 0.22224844, -0.54960912, 0.17792943, 0.00121445, 100.05900574, 105.92120361, 34.16999817, 0.00000000
1, 0.5600, 58, 0.14448397, -1.12370872, 0.08432440, -4.28838539, -0.79444796, 99.71257782, -38.90675354, 2.80619693, -113.65097809, 95.17447662, -23.36727715, 13.30115509, -0.63873249, 0.73396105, -0.05193123, 0.22500055, -0.53932285, 0.20847268, -0.00294984, 100.05900574, 105.92120361, 34.16999817, 0.00000000
1, 0.6050, 59, 0.01940463, -1.32348990, 0.24649628, 0.17352799, -23.14041901, 110.86561584, -42.41449738, 5.08623219, -113.91406250, 95.69192505, -28.06574249, 12.17054844, -0.62837291, 0.73241752, -0.08557337, 0.24776867, -0.48842376, 0.44389334, -0.16133428, 100.05900574, 105.92120361, 34.16999817, 0.00000000
1, 0.6100, 60, 0.02916509, -1.29317725, 0.23910660, -2.53916550, -25.41486931, 110.32015991, -42.41449738, 5.08623219, -113.91406250, 95.77803802, -28.60220718, 11.96527767, -0.62715018, 0.73220724, -0.08981571, 0.24997680, -0.50643283, 0.41813612, -0.15298344, 100.05900574, 105.92120361, 34.16999817, 0.00000000
1, 0.6150, 61, -0.00054505, -1.22773409, 0.25167781, -6.97111034, -30.06243706, 107.88224792, -42.41449738, 5.08623219, -113.91406250, 95.85661316, -29.12402153, 11.73306561, -0.62606227, 0.73191798, -0.09415434, 0.25194669, -0.48480475, 0.35718781, -0.16474022, 100.05900574, 105.92120361, 34.16999817, 0.00000000
1, 0.6200, 62, -0.04194022, -1.18390703, 0.26325202, -7.72377539, -32.82408524, 106.56413269, -43.75913239, 6.37240553, -114.14791107, 95.94162750, -29.63759422, 11.48382378, -0.62498647, 0.73162651, -0.09853253, 0.25378332, -0.45128861, 0.31784481, -0.17554018, 100.05900574, 105.92120361, 34.16999817, 0.00000000
1, 0.6250, 63, -0.11519530, -1.15605998, 0.28548846, -7.79802465, -35.75876236, 105.44355774, -43.75913239, 6.37240553, -114.14791107, 96.03731537, -30.14376259, 11.21621227, -0.62389815, 0.73135275, -0.10295382, 0.25548944, -0.38578558, 0.29448497, -0.19697171, 100.05900574, 105.92120361, 34.16999817, 0.00000000
1, 0.6300, 64, -0.18954681, -1.14618289, 0.31867141, -7.22683334, -36.21182251, 104.19866180, -44.89915085, 7.48319197, -113.53404999, 96.14002991, -30.64307976, 10.94436359, -0.62278885, 0.73108798, -0.10733896, 0.25714374, -0.31906569, 0.28909659, -0.22926137, 100.05900574, 105.92120361, 34.16999817, 0.00000000
1, 0.6350, 65, -0.25505346, -1.16436040, 0.35704052, -7.90968370, -32.91880798, 103.16416931, -44.89915085, 7.48319197, -113.53404999, 96.23239899, -31.13860703, 10.68983936, -0.62171453, 0.73075557, -0.11160682, 0.25886559, -0.26109990, 0.31177282, -0.26686591, 100.05900574, 105.92120361, 34.16999817, 0.00000000
1, 0.6400, 66, -0.28025937, -1.18483436, 0.36303583, -10.77547550, -28.59249878, 101.83158112, -44.89915085, 7.48319197, -113.53404999, 96.30783844, -31.61770058, 10.45540905, -0.62073743, 0.73034114, -0.11568277, 0.26058477, -0.24316186, 0.33673948, -0.27228051, 100.05900574, 105.92120361, 34.16999817, 0.00000000
1, 0.6450, 67, -0.27930653, -1.18955290, 0.33797255, -13.95490646, -27.46782112, 101.72360992, -45.95147705, 7.57088566, -113.62174988, 96.35858917, -32.10853577, 10.22954369, -0.61987197, 0.72975886, -0.11982088, 0.26240003, -0.25124675, 0.34601736, -0.24686092, 100.05900574, 105.92120361, 34.16999817, 0.00000000
1, 0.6500, 68, -0.29875442, -1.17676997, 0.30184209, -15.74023724, -29.78719330, 101.93640900, -45.95147705, 7.57088566, -113.62174988, 96.41033173, -32.59901810, 9.98817444, -0.61903530, 0.72913778, -0.12404652, 0.26413247, -0.23895355, 0.33791605, -0.21052036, 100.05900574, 105.92120361, 34.16999817, 0.00000000
1, 0.6950, 69, -0.56096923, -1.15942156, 0.15142784, -22.98453903, 8.52914906, 93.44277954, -49.02075195, 8.27243519, -113.65097809, 96.93364716, -36.83726120, 8.05560207, -0.61092097, 0.72318590, -0.15909281, 0.28012007, -0.03732450, 0.36352247, -0.05756201, 100.05900574, 105.92120361, 34.16999817, 0.00000000
1, 0.7000, 70, -0.30462596, -1.13988948, 0.01738845, -25.74089432, 6.16124535, 89.49558258, -49.02075195, 8.27243519, -113.65097809, 96.82294464, -37.28556061, 8.02761841, -0.61067021, 0.72180110, -0.16206105, 0.28252664, -0.29968125, 0.34875989, 0.07500915, 100.05900574, 105.92120361, 34.16999817, 0.00000000
1, 0.7050, 71, -0.12570006, -1.05081594, -0.03471208, -27.07143593, -6.13564157, 81.75330353, -49.75153351, 9.61707115, -113.79713440, 96.74857330, -37.68830872, 7.92914200, -0.61046064, 0.72057563, -0.16512816, 0.28432611, -0.48424023, 0.26400417, 0.12600777, 100.05900574, 105.92120361, 34.16999817, 0.00000000
1, 0.7100, 72, -0.01621147, -0.89953578, 0.02478106, -23.01963806, -14.26534653, 70.64176941, -49.75153351, 9.61707115, -113.79713440, 96.72119141, -38.03118896, 7.78763771, -0.61019623, 0.71962917, -0.16801113, 0.28559899, -0.59881616, 0.11636408, 0.06604567, 100.05900574, 105.92120361, 34.16999817, 0.00000000
1, 0.7150, 73, 0.07476236, -0.76652467, 0.16124262, -14.21616077, -18.21421814, 59.74466324, -50.24846649, 10.49400711, -113.79713440, 96.74915314, -38.31755829, 7.62860775, -0.60975736, 0.71903908, -0.17054607, 0.28651842, -0.69424933, -0.01364047, -0.07016784, 100.05900574, 105.92120361, 34.16999817, 0.00000000
1, 0.7200, 74, 0.14423522, -0.66971040, 0.24554552, -6.39247608, -25.82430840, 51.57693481, -50.24846649, 10.49400711, -113.79713440, 96.84352112, -38.55869293, 7.42646551, -0.60911477, 0.71880776, -0.17292854, 0.28703722, -0.76737279, -0.10776204, -0.15341088, 100.05900574, 105.92120361, 34.16999817, 0.00000000
1, 0.7250, 75, 0.14158589, -0.63842595, 0.18372670, -0.69338638, -36.32766724, 47.11787796, -50.24846649, 10.49400711, -113.79713440, 97.00738525, -38.77103043, 7.15963745, -0.60826612, 0.71888816, -0.17537816, 0.28714919, -0.76759666, -0.13631940, -0.08996794, 100.05900574, 105.92120361, 34.16999817, 0.00000000
1, 0.7300, 76, 0.07947111, -0.67843294, 0.08388001, 6.51339102, -51.05304337, 42.04826355, -51.00847626, 11.02016926, -113.70944214, 97.26538849, -38.94831467, 6.80120325, -0.60713798, 0.71937746, -0.17796867, 0.28671724, -0.70771742, -0.09375764, 0.01270460, 100.05900574, 105.92120361, 34.16999817, 0.00000000
1, 0.7350, 77, 0.02767872, -0.74838912, 0.07379653, 7.22658157, -60.82015610, 38.51147842, -51.00847626, 11.02016926, -113.70944214, 97.56634521, -39.10044098, 6.38139153, -0.60595047, 0.72002828, -0.18069696, 0.28588796, -0.65805537, -0.02154993, 0.02624113, 100.05900574, 105.92120361, 34.16999817, 0.00000000
1, 0.7400, 78, -0.00938554, -0.79640210, 0.10929418, 5.67442226, -71.69973755, 34.06565857, -51.50540543, 10.72785759, -113.38789368, 97.90386200, -39.18855286, 5.89496517, -0.60484046, 0.72087044, -0.18340158, 0.28439012, -0.62260592, 0.02822668, -0.00518899, 100.05900574, 105.92120361, 34.16999817, 0.00000000
1, 0.7950, 79, -0.22784214, -0.74740636, 0.13321792, 3.28849530, -114.88542938, -41.59447479, -53.14235687, 10.99093819, -110.99093628, 102.40734863, -37.87176132, -1.28465521, -0.59544456, 0.73487425, -0.21157449, 0.24625599, -0.38753563, -0.02319556, 0.03300621, 100.05900574, 105.92120361, 34.16999817, 0.00000000
1, 0.8000, 80, -0.24760088, -0.76600409, 0.16152623, 2.61762500, -113.89140320, -48.46752167, -53.14235687, 10.99093819, -110.99093628, 102.80883026, -37.51174164, -1.92081845, -0.59482235, 0.73659897, -0.21295716, 0.24136646, -0.36300361, -0.00709446, 0.01090834, 100.05900574, 105.92120361, 34.16999817, 0.00000000
1, 0.8050, 81, -0.26777613, -0.77592468, 0.19025075, 1.33004355, -111.92477417, -55.44974899, -53.37620544, 10.43554497, -110.55246735, 103.18341064, -37.11651611, -2.52885032, -0.59431618, 0.73831236, -0.21407221, 0.23633939, -0.33754170, -0.00003350, -0.01180672, 100.05900574, 105.92120361, 34.16999817, 0.00000000
1, 0.8100, 82, -0.27084461, -0.78339732, 0.22072896, 0.12685455, -108.08002472, -62.28312683, -53.37620544, 10.43554497, -110.55246735, 103.52462769, -36.68944931, -3.09729218, -0.59393811, 0.73999655, -0.21487388, 0.23124014, -0.32870430, 0.00422031, -0.03654801, 100.05900574, 105.92120361, 34.16999817, 0.00000000
1, 0.8150, 83, -0.27573082, -0.79128885, 0.24033131, -1.39880633, -104.03010559, -69.07244873, -53.69775009, 10.28938866, -110.08477020, 103.83044434, -36.23159409, -3.62508583, -0.59369862, 0.74164164, -0.21536076, 0.22607392, -0.31755733, 0.00856694, -0.05078714, 100.05900574, 105.92120361, 34.16999817, 0.00000000
1, 0.8200, 84, -0.29069164, -0.79502118, 0.21770917, -2.90732956, -98.47975922, -75.96643829, -53.69775009, 10.28938866, -110.08477020, 104.09604645, -35.74483871, -4.10336447, -0.59361106, 0.74323559, -0.21548955, 0.22088724, -0.29577589, 0.00848147, -0.02324500, 100.05900574, 105.92120361, 34.16999817, 0.00000000
1, 0.8250, 85, -0.30391562, -0.79677534, 0.18467210, -3.84758210, -92.88702393, -82.97180176, -53.69775009, 10.28938866, -110.08477020, 104.32480621, -35.22928619, -4.53228092, -0.59365696, 0.74479491, -0.21524929, 0.21568435, -0.27525827, 0.00610367, 0.01428103, 100.05900574, 105.92120361, 34.16999817, 0.00000000
1, 0.8300, 86, -0.33155861, -0.81043935, 0.16250254, -3.45086908, -89.08763885, -90.24725342, -53.05466080, 9.32475853, -109.79245758, 104.53004456, -34.68185806, -4.92254972, -0.59377706, 0.74637431, -0.21466421, 0.21041301, -0.23985803, 0.01530997, 0.04062004, 100.05900574, 105.92120361, 34.16999817, 0.00000000
1, 0.8350, 87, -0.34963700, -0.82688451, 0.17086247, -3.29567504, -86.19944000, -98.83828735, -53.05466080, 9.32475853, -109.79245758, 104.71308899, -34.09538651, -5.27793217, -0.59397954, 0.74798769, -0.21371672, 0.20500703, -0.21348065, 0.02687910, 0.03623637, 100.05900574, 105.92120361, 34.16999817, 0.00000000
1, 0.8400, 88, -0.37267229, -0.84763563, 0.18407391, -4.25446510, -79.29459381, -106.82865143, -52.85004425, 8.91552162, -109.47091675, 104.85473633, -33.47170258, -5.57532692, -0.59434772, 0.74957126, -0.21229471, 0.19956160, -0.18162720, 0.04241673, 0.02660581, 100.05900574, 105.92120361, 34.16999817, 0.00000000
1, 0.8700, 89, -0.35699052, -0.89521682, 0.10684348, -7.02525377, -46.57815933, -143.27404785, -51.27155685, 7.80473518, -108.38935852, 105.12130737, -29.28654289, -6.43766260, -0.59851795, 0.75836581, -0.19657472, 0.16738005, -0.13533458, 0.05464339, 0.11796753, 100.05900574, 105.92120361, 34.16999817, 0.00000000
1, 0.8750, 90, -0.33689070, -0.89123583, 0.10442619, -6.84064293, -42.47595215, -148.71684265, -51.27155685, 7.80473518, -108.38935852, 105.09217834, -28.51341820, -6.45198441, -0.59946185, 0.75974703, -0.19282041, 0.16201940, -0.14371599, 0.04427295, 0.12176113, 100.05900574, 105.92120361, 34.16999817, 0.00000000
1, 0.8800, 91, -0.31077442, -0.89119196, 0.10403720, -6.38981533, -39.70510483, -153.73912048, -50.42385101, 7.45396090, -108.24320221, 105.05464172, -27.71961594, -6.44417620, -0.60042202, 0.76112682, -0.18881506, 0.15661488, -0.15771349, 0.03778276, 0.12338006, 100.05900574, 105.92120361, 34.16999817, 0.00000000
1, 0.8850, 92, -0.28967649, -0.90319204, 0.11168776, -5.81324577, -38.46990204, -158.58927917, -50.42385101, 7.45396090, -108.24320221, 105.01405334, -26.90395927, -6.42329168, -0.60137689, 0.76251566, -0.18460321, 0.15112087, -0.16629103, 0.04330242, 0.11686042, 100.05900574, 105.92120361, 34.16999817, 0.00000000
1, 0.8900, 93, -0.25530213, -0.92914736, 0.11421922, -6.09071684, -37.39549255, -164.30867004, -49.63460922, 6.02163124, -108.65244293, 104.96132660, -26.05546761, -6.38686752, -0.60239238, 0.76388502, -0.18012249, 0.14546178, -0.18761392, 0.06272072, 0.11535184, 100.05900574, 105.92120361, 34.16999817, 0.00000000
1, 0.8950, 94, -0.24251337, -0.94137692, 0.11284145, -6.78707552, -36.67069244, -168.66406250, -49.63460922, 6.02163124, -108.65244293, 104.90671539, -25.19341087, -6.34389734, -0.60339504, 0.76523334, -0.17551516, 0.13973856, -0.18688232, 0.06840390, 0.11759166, 100.05900574, 105.92120361, 34.16999817, 0.00000000
1, 0.9000, 95, -0.23516253, -0.95799482, 0.11698335, -7.19956684, -36.06423950, -173.79702759, -49.63460922, 6.02163124, -108.65244293, 104.84674835, -24.30727768, -6.29175997, -0.60441244, 0.76656151, -0.17071307, 0.13388868, -0.18029998, 0.07849793, 0.11419908, 100.05900574, 105.92120361, 34.16999817, 0.00000000
1, 0.9050, 96, -0.23244244, -0.97207165, 0.12453189, -7.24647522, -36.03742218, -177.86183167, -47.99766159, 5.49546909, -108.44782257, 104.78542328, -23.40145683, -6.23522711, -0.60541868, 0.76787120, -0.16576433, 0.12792352, -0.16868490, 0.08611234, 0.10733427, 100.05900574, 105.92120361, 34.16999817, 0.00000000
1, 0.9100, 97, -0.23847602, -0.99406350, 0.13377494, -7.42485046, -36.85311890, -181.69970703, -47.99766159, 5.49546909, -108.44782257, 104.72418213, -22.47600174, -6.17914057, -0.60640776, 0.76915890, -0.16069920, 0.12182003, -0.14790280, 0.10172672, 0.09870415, 100.05900574, 105.92120361, 34.16999817, 0.00000000
1, 0.9150, 98, -0.23988608, -1.01713002, 0.14176652, -7.95058393, -38.33585739, -185.44387817, -46.88687515, 5.14469433, -107.77550507, 104.66263580, -21.53050995, -6.12714291, -0.60738367, 0.77041507, -0.15553994, 0.11555569, -0.13131884, 0.11851968, 0.09128745, 100.05900574, 105.92120361, 34.16999817, 0.00000000
1, 0.9550, 99, -0.37252966, -1.09598100, 0.25994796, -14.72724342, -45.07006073, -196.17401123, -42.50219345, 1.90002918, -108.18473816, 104.14987946, -13.56364822, -6.00793171, -0.61437291, 0.77841598, -0.11353000, 0.06103797, 0.13309358, 0.15403998, -0.02494088, 100.05900574, 105.92120361, 34.16999817, 0.00000000
1, 0.9600, 100, -0.41441724, -1.08828533, 0.28222859, -16.09876442, -40.60956955, -196.75128174, -42.50219345, 1.90002918, -108.18473816, 104.05743408, -12.56020164, -5.96574163, -0.61523324, 0.77902442, -0.10798813, 0.05429190, 0.19197869, 0.14202359, -0.04780160, 100.05900574, 105.92120361, 34.16999817, 0.00000000
1, 0.9650, 101, -0.45666066, -1.07470667, 0.28767872, -17.72571373, -35.65895844, -197.52389526, -41.39140701, 2.16311026, -108.15550995, 103.95263672, -11.55890751, -5.89996195, -0.61612666, 0.77952099, -0.10228252, 0.04768140, 0.25128987, 0.12439911, -0.05411410, 100.05900574, 105.92120361, 34.16999817, 0.00000000
1, 0.9700, 102, -0.49423987, -1.05202365, 0.29074240, -19.17045593, -31.05652809, -198.23707581, -41.39140701, 2.16311026, -108.15550995, 103.83760834, -10.55954075, -5.81275034, -0.61704361, 0.77991176, -0.09642398, 0.04119796, 0.30597413, 0.09792548, -0.05828177, 100.05900574, 105.92120361, 34.16999817, 0.00000000
1, 0.9750, 103, -0.53387183, -1.02456570, 0.29645875, -20.09647942, -28.06337929, -198.46942139, -41.39140701, 2.16311026, -108.15550995, 103.71721649, -9.56241512, -5.71285820, -0.61795753, 0.78021300, -0.09047103, 0.03480291, 0.36272299, 0.06694265, -0.06529769, 100.05900574, 105.92120361, 34.16999817, 0.00000000
1, 0.9800, 104, -0.55973506, -0.99554610, 0.29165155, -20.45255280, -25.04120255, -198.25262451, -39.46214676, 1.28617358, -108.21397400, 103.59484100, -8.56968975, -5.60078526, -0.61884755, 0.78043914, -0.08443744, 0.02851242, 0.40571880, 0.03470493, -0.06188668, 100.05900574, 105.92120361, 34.16999817, 0.00000000
1, 0.9850, 105, -0.55939144, -0.97221589, 0.26763171, -20.31167984, -21.78676605, -197.37066650, -39.46214676, 1.28617358, -108.21397400, 103.47332764, -7.58479881, -5.47618628, -0.61969638, 0.78060222, -0.07833914, 0.02235480, 0.42248011, 0.00849608, -0.03928783, 100.05900574, 105.92120361, 34.16999817, 0.00000000
1, 0.9900, 106, -0.54184902, -0.97361660, 0.24087858, -19.26445580, -19.66916466, -195.23039246, -37.88365936, 1.31540489, -108.50628662, 103.35868835, -6.62354612, -5.34584999, -0.62046677, 0.78071982, -0.07230753, 0.01640568, 0.42179906, 0.00736367, -0.01395898, 100.05900574, 105.92120361, 34.16999817, 0.00000000
1, 0.9950, 107, -0.52679491, -0.98350000, 0.22672234, -18.08530045, -19.32524872, -191.69691467, -37.88365936, 1.31540489, -108.50628662, 103.25242615, -5.66857243, -5.22020054, -0.62115216, 0.78080821, -0.06632254, 0.01048987, 0.42332822, 0.01503644, -0.00118047, 100.05900574, 105.92120361, 34.16999817, 0.00000000
1, 1.0000, 108, -0.49134511, -0.99902499, 0.21840100, -17.18342018, -19.48203468, -187.71618652, -36.30517197, 0.84770536, -107.92166138, 103.15342712, -4.73257685, -5.10176659, -0.62176096, 0.78085512, -0.06047209, 0.00467870, 0.40424293, 0.02866025, 0.00585654, 100.05900574, 105.92120361, 34.16999817, 0.00000000
1, 1.0250, 109, -0.54515594, -0.99963272, 0.23952384, -14.06549072, -31.32152176, -153.12609863, -33.64513397, -2.22157264, -108.56474304, 102.73971558, -0.48648861, -4.81004858, -0.62387455, 0.78038561, -0.03542909, -0.02288349, 0.53269988, 0.02399978, -0.02170655, 100.05900574, 105.92120361, 34.16999817, 0.00000000
1, 1.0300, 110, -0.59194028, -0.99344110, 0.25170699, -14.53010082, -32.15686417, -144.55230713, -33.64513397, -2.22157264, -108.56474304, 102.66525269, 0.25375819, -4.80920935, -0.62417424, 0.78015482, -0.03137617, -0.02794144, 0.59255409, 0.01743743, -0.03523141, 100.05900574, 105.92120361, 34.16999817, 0.00000000
1, 1.0350, 111, -0.63922590, -0.98180687, 0.25251848, -15.28695107, -32.20914841, -135.32522583, -33.64513397, -2.22157264, -108.56474304, 102.58702850, 0.94901925, -4.81963634, -0.62448508, 0.77986038, -0.02763633, -0.03274926, 0.65217328, 0.00559499, -0.03747856, 100.05900574, 105.92120361, 34.16999817, 0.00000000
1, 1.0400, 112, -0.68679512, -0.96608031, 0.24502905, -15.84298801, -31.18379593, -125.93477631, -32.53434753, 0.17538731, -108.59397888, 102.50682831, 1.57468045, -4.83534765, -0.62480903, 0.77951664, -0.02430430, -0.03710696, 0.71108222, -0.01021147, -0.03149174, 100.05900574, 105.92120361, 34.16999817, 0.00000000
1, 1.0450, 113, -0.71989590, -0.94487298, 0.23103982, -16.01369476, -29.66763687, -116.53752136, -32.53434753, 0.17538731, -108.59397888, 102.42464447, 2.17542028, -4.85545301, -0.62513465, 0.77913636, -0.02113087, -0.04131395, 0.75470573, -0.03139448, -0.01900636, 100.05900574, 105.92120361, 34.16999817, 0.00000000
1, 1.0500, 114, -0.75089401, -0.92253482, 0.22629948, -16.10542107, -28.74843025, -106.91014862, -31.65740967, -2.66004086, -108.85705566, 102.34165192, 2.72812152, -4.88218641, -0.62546450, 0.77872688, -0.01825845, -0.04522557, 0.79556483, -0.05364743, -0.01580243, 100.05900574, 105.92120361, 34.16999817, 0.00000000
1, 1.0550, 115, -0.77853793, -0.89318740, 0.22958389, -15.77175522, -27.65722275, -97.03871918, -31.65740967, -2.66004086, -108.85705566, 102.25988007, 3.23138857, -4.91484308, -0.62578899, 0.77830446, -0.01569150, -0.04882897, 0.83219361, -0.08286892, -0.02060299, 100.05900574, 105.92120361, 34.16999817, 0.00000000
1, 1.0600, 116, -0.79493672, -0.86728466, 0.23689371, -14.64247799, -26.82149887, -83.46797943, -31.65740967, -2.66004086, -108.85705566, 102.18302917, 3.66741681, -4.95838976, -0.62609231, 0.77789283, -0.01356394, -0.05203117, 0.85640800, -0.10862614, -0.02933502, 100.05900574, 105.92120361, 34.16999817, 0.00000000
1, 1.0650, 117, -0.79514092, -0.82161963, 0.24344806, -13.23026657, -25.75042725, -69.43955994, -30.83893585, 0.23384975, -109.17860413, 102.11240387, 4.03368187, -5.01195049, -0.62637109, 0.77750474, -0.01188566, -0.05481158, 0.86333787, -0.15413690, -0.03714456, 100.05900574, 105.92120361, 34.16999817, 0.00000000
1, 1.0700, 118, -0.80146503, -0.78454542, 0.24329190, -11.80123138, -26.73346329, -58.36964035, -30.83893585, 0.23384975, -109.17860413, 102.04752350, 4.34677935, -5.08231258, -0.62662059, 0.77714115, -0.01061259, -0.05732097, 0.87534219, -0.19105425, -0.03815778, 100.05900574, 105.92120361, 34.16999817, 0.00000000
1, 1.1000, 119, -0.90930527, -0.57969844, 0.25790936, -2.22680593, -47.35792923, 9.54391384, -30.02046204, -0.81847411, -109.09090424, 101.79174805, 5.01596403, -6.05665207, -0.62745392, 0.77563304, -0.01339521, -0.06719868, 0.99614131, -0.39584118, -0.05741356, 100.05900574, 105.92120361, 34.16999817, 0.00000000
1, 1.1050, 120, -0.93902946, -0.55222332, 0.23279507, -0.56900978, -49.72057724, 20.12235641, -30.02046204, -0.81847411, -109.09090424, 101.76610565, 4.96777821, -6.32148552, -0.62750000, 0.77545911, -0.01543779, -0.06832720, 1.02530527, -0.42342681, -0.03278913, 100.05900574, 105.92120361, 34.16999817, 0.00000000
1, 1.1100, 121, -0.95327359, -0.53603339, 0.23316266, 2.00493932, -51.37798309, 30.67089653, -30.02046204, -0.81847411, -109.09090424, 101.75216675, 4.86954927, -6.60511398, -0.62748468, 0.77533960, -0.01788975, -0.06922028, 1.03805757, -0.43980339, -0.03342760, 100.05900574, 105.92120361, 34.16999817, 0.00000000
1, 1.1150, 122, -0.92630267, -0.53707314, 0.25237042, 3.85378551, -52.55395126, 38.29576492, -30.75124168, 0.38000584, -109.03244781, 101.74704742, 4.73515749, -6.90218353, -0.62742347, 0.77525616, -0.02063690, -0.06994216, 1.00880480, -0.43900353, -0.05264476, 100.05900574, 105.92120361, 34.16999817, 0.00000000
1, 1.1200, 123, -0.85832542, -0.61348033, 0.32103801, 5.67104769, -55.27242661, 53.63079834, -30.75124168, 0.38000584, -109.03244781, 101.74975586, 4.52843189, -7.22806454, -0.62733781, 0.77519387, -0.02398196, -0.07033295, 0.93741584, -0.36296496, -0.12119907, 100.05900574, 105.92120361, 34.16999817, 0.00000000
1, 1.1250, 124, -0.88662404, -0.67901492, 0.38307035, 4.97759104, -57.90669632, 61.60377884, -31.21894073, -1.14001751, -108.79859924, 101.74874878, 4.28531551, -7.57487535, -0.62728888, 0.77508706, -0.02766638, -0.07059385, 0.96148813, -0.29784405, -0.18334703, 100.05900574, 105.92120361, 34.16999817, 0.00000000
1, 1.1300, 125, -0.98337239, -0.70100868, 0.45171854, 6.52044773, -62.75432205, 71.17805481, -31.21894073, -1.14001751, -108.79859924, 101.75476074, 4.00023508, -7.95505667, -0.62720090, 0.77498460, -0.03181133, -0.07075284, 1.05329633, -0.27629563, -0.25214794, 100.05900574, 105.92120361, 34.16999817, 0.00000000
1, 1.1350, 126, -0.92888284, -0.71119893, 0.56760526, 12.86806774, -67.43186951, 82.65813446, -31.21894073, -1.14001751, -108.79859924, 101.79239655, 3.66389871, -8.36978149, -0.62691402, 0.77501130, -0.03649072, -0.07074516, 0.99289393, -0.26657200, -0.36735880, 100.05900574, 105.92120361, 34.16999817, 0.00000000
1, 1.1400, 127, -0.69507849, -0.82215416, 0.61997682, 23.07620239, -67.73097229, 94.50890350, -31.97895241, 0.23384975, -108.47705078, 101.89493561, 3.25183582, -8.79670525, -0.62623471, 0.77534068, -0.04170754, -0.07026729, 0.75219679, -0.15581776, -0.41783294, 100.05900574, 105.92120361, 34.16999817, 0.00000000
1, 1.1450, 128, -0.34208456, -1.04279089, 0.58965927, 30.12069893, -60.04332733, 103.33046722, -31.97895241, 0.23384975, -108.47705078, 102.02561188, 2.80830741, -9.19722557, -0.62540621, 0.77578765, -0.04693265, -0.06941237, 0.39158499, 0.06491811, -0.38472033, 100.05900574, 105.92120361, 34.16999817, 0.00000000
1, 1.1750, 129, 0.92082810, -2.09501457, -0.68732095, 27.90561485, 16.78928375, 75.08016968, -34.58053207, -0.46769950, -108.06781769, 102.87784576, 0.17583071, -9.81970882, -0.62095809, 0.77915567, -0.06597218, -0.05454670, -0.91442847, 1.12117553, 0.90848345, 100.05900574, 105.92120361, 34.16999817, 0.00000000
1, 1.1800, 130, 0.36751089, -1.54491484, -0.61385673, 27.18079185, -13.54719830, 79.09836578, -34.58053207, -0.46769950, -108.06781769, 103.01481628, -0.19433597, -9.97363091, -0.62017214, 0.77963287, -0.06908780, -0.05278181, -0.36777347, 0.57146972, 0.83682930, 100.05900574, 105.92120361, 34.16999817, 0.00000000
1, 1.1850, 131, -0.08341255, -1.07420003, -0.34396598, 34.99098587, -37.76364899, 83.71460724, -34.58053207, -0.46769950, -108.06781769, 103.19269562, -0.55922693, -10.25171661, -0.61904806, 0.78023958, -0.07303317, -0.05169047, 0.07608983, 0.10099830, 0.56940281, 100.05900574, 105.92120361, 34.16999817, 0.00000000
1, 1.1900, 132, -0.44196469, -0.77653420, 0.06397502, 42.96885300, -52.48621750, 87.57355499, -35.42823792, 0.81847411, -107.60011292, 103.41310120, -0.94699484, -10.60647678, -0.61761540, 0.78098756, -0.07763764, -0.05081578, 0.42706925, -0.19641617, 0.16463554, 100.05900574, 105.92120361, 34.16999817, 0.00000000
1, 1.1950, 133, -0.68177575, -0.62882948, 0.43004176, 43.33989716, -53.04627228, 90.74523163, -35.42823792, 0.81847411, -107.60011292, 103.63812256, -1.32617879, -10.96980286, -0.61614525, 0.78172719, -0.08225045, -0.05002534, 0.65923584, -0.34368154, -0.19796748, 100.05900574, 105.92120361, 34.16999817, 0.00000000
1, 1.2000, 134, -0.79993987, -0.55958378, 0.64155924, 38.48690414, -36.52732086, 93.02346802, -36.97749329, 1.02309263, -107.71704102, 103.83932495, -1.73463035, -11.25701714, -0.61489069, 0.78234607, -0.08648387, -0.04862674, 0.76989037, -0.41224632, -0.40618300, 100.05900574, 105.92120361, 34.16999817, 0.00000000
1, 1.2050, 135, -0.76376212, -0.59284198, 0.67716825, 32.97236252, -12.63540459, 94.08375549, -36.97749329, 1.02309263, -107.71704102, 104.01124573, -2.17591262, -11.43083477, -0.61390400, 0.78284794, -0.09009800, -0.04640451, 0.72606134, -0.37805831, -0.43877494, 100.05900574, 105.92120361, 34.16999817, 0.00000000
1, 1.2100, 136, -0.63907045, -0.67352867, 0.57219452, 25.91250992, 0.79480499, 95.08963776, -36.97749329, 1.02309263, -107.71704102, 104.14665222, -2.63791537, -11.54191780, -0.61320126, 0.78316951, -0.09337062, -0.04372357, 0.59364563, -0.29627639, -0.33124924, 100.05900574, 105.92120361, 34.16999817, 0.00000000
1, 1.2850, 137, -0.38710025, -1.37588024, 0.18489890, 24.10497475, -24.89494514, 48.44174576, -40.45600510, 1.34463608, -105.72931671, 106.33082581, -7.15281200, -14.18293095, -0.59992623, 0.78808331, -0.13572697, -0.02432247, 0.26297313, 0.42311174, 0.09030847, 100.06400299, 105.50096893, 34.25000000, 0.00000000
1, 1.2900, 138, -0.37771076, -1.25580394, 0.33255062, 20.73961830, -12.24986267, 44.26425552, -41.12832642, 0.76001167, -105.72931671, 106.45072937, -7.35649538, -14.30472755, -0.59918523, 0.78834426, -0.13763307, -0.02339896, 0.24974680, 0.30383593, -0.05512913, 100.06400299, 105.50096893, 34.25000000, 0.00000000
1, 1.2950, 139, -0.36328626, -1.12376916, 0.45351201, 16.81980896, -9.26307583, 41.75642395, -41.12832642, 0.76001167, -105.72931671, 106.54885864, -7.54348993, -14.40895367, -0.59858930, 0.78852516, -0.13932590, -0.02252264, 0.23167585, 0.17252728, -0.17424440, 100.06400299, 105.50096893, 34.25000000, 0.00000000
1, 1.3000, 140, -0.34896463, -0.99228227, 0.49093688, 14.12902737, -7.80878639, 39.68716049, -40.98217010, 1.81233561, -105.84624481, 106.63256073, -7.72249889, -14.50352192, -0.59809065, 0.78864664, -0.14090654, -0.02166655, 0.21412840, 0.04180577, -0.21010289, 100.06400299, 105.50096893, 34.25000000, 0.00000000
1, 1.3050, 141, -0.33807009, -0.90305674, 0.44656149, 14.19416332, -7.82355642, 37.40758896, -40.98217010, 1.81233561, -105.84624481, 106.71643829, -7.89043188, -14.59518909, -0.59758574, 0.78878099, -0.14240891, -0.02087016, 0.20038986, -0.04654882, -0.16429183, 100.06400299, 105.50096893, 34.25000000, 0.00000000
1, 1.3100, 142, -0.34044543, -0.87294841, 0.36606941, 15.61455727, -8.17187786, 34.99765778, -41.06986237, 1.72464192, -104.88161469, 106.80746460, -8.04615211, -14.68533325, -0.59702575, 0.78896469, -0.14383814, -0.02013998, 0.20022015, -0.07571553, -0.08239204, 100.06400299, 105.50096893, 34.25000000, 0.00000000
1, 1.3150, 143, -0.34739146, -0.87700319, 0.28868210, 17.08984947, -7.16285419, 32.65442657, -41.06986237, 1.72464192, -104.88161469, 106.90491486, -8.19195747, -14.76747513, -0.59641790, 0.78919989, -0.14516133, -0.01942707, 0.20479855, -0.07070608, -0.00354828, 100.06400299, 105.50096893, 34.25000000, 0.00000000
1, 1.3200, 144, -0.33924508, -0.91127789, 0.25262225, 17.74374771, -5.85033894, 30.43404961, -41.06986237, 1.72464192, -104.88161469, 107.00445557, -8.32889175, -14.84029484, -0.59579271, 0.78946513, -0.14637402, -0.01872282, 0.19433898, -0.03554009, 0.03401721, 100.06400299, 105.50096893, 34.25000000, 0.00000000
1, 1.3250, 145, -0.31344351, -0.95504451, 0.24419869, 16.65998840, -5.00168562, 28.04947281, -42.32680511, 1.98772287, -104.96930695, 107.09767151, -8.45554638, -14.90575600, -0.59520704, 0.78971636, -0.14748138, -0.01805833, 0.16632172, 0.00903801, 0.04391534, 100.06400299, 105.50096893, 34.25000000, 0.00000000
1, 1.3300, 146, -0.27395308, -0.99031711, 0.25946772, 13.86690331, -4.14988279, 24.91558456, -42.32680511, 1.98772287, -104.96930695, 107.17574310, -8.56841183, -14.96268368, -0.59471971, 0.78991407, -0.14845657, -0.01746388, 0.12478464, 0.04498921, 0.02995405, 100.06400299, 105.50096893, 34.25000000, 0.00000000
1, 1.3900, 147, -0.21625552, -0.97551799, 0.32481194, 2.47313714, 8.60516071, 11.76439857, -42.79450226, 1.46156096, -104.47237396, 107.56408691, -9.50003624, -15.25666904, -0.59248692, 0.79039371, -0.15522388, -0.01194848, 0.05079285, 0.03459004, -0.02937557, 100.06400299, 105.50096893, 34.25000000, 0.00000000
1, 1.3950, 148, -0.18844070, -0.97071588, 0.32445082, 1.60465312, 9.66100883, 10.99441910, -42.79450226, 1.46156096, -104.47237396, 107.56726837, -9.56695271, -15.22666740, -0.59250182, 0.79036635, -0.15535286, -0.01131990, 0.02171767, 0.03002845, -0.02888003, 100.06400299, 105.50096893, 34.25000000, 0.00000000
1, 1.4000, 149, -0.16805010, -0.96441770, 0.31448516, 0.26002413, 11.60965157, 9.13011265, -43.08681488, 1.31540489, -105.55393219, 107.56165314, -9.62792969, -15.18441010, -0.59257519, 0.79031760, -0.15536667, -0.01068150, 0.00027272, 0.02390332, -0.01896192, 100.06400299, 105.50096893, 34.25000000, 0.00000000
1, 1.4050, 150, -0.16948149, -0.95915651, 0.31003812, 0.11053994, 11.98066044, 8.12434578, -43.08681488, 1.31540489, -105.55393219, 107.55463409, -9.68465424, -15.13882065, -0.59265572, 0.79027134, -0.15533610, -0.01005752, 0.00072063, 0.01877558, -0.01467114, 100.06400299, 105.50096893, 34.25000000, 0.00000000
1, 1.4100, 151, -0.18542224, -0.96014762, 0.31377655, 0.17704982, 12.14388275, 7.14592838, -42.53142166, 1.49079216, -105.37854004, 107.54752350, -9.73694897, -15.09092522, -0.59273446, 0.79023319, -0.15526748, -0.00945279, 0.01573182, 0.01987358, -0.01861506, 100.06400299, 105.50096893, 34.25000000, 0.00000000
1, 1.4150, 152, -0.20583218, -0.96287823, 0.30728996, 0.21061417, 12.09710312, 6.19797802, -42.53142166, 1.49079216, -105.37854004, 107.54034424, -9.78464985, -15.04180431, -0.59281105, 0.79020214, -0.15516745, -0.00887400, 0.03531964, 0.02271417, -0.01234701, 100.06400299, 105.50096893, 34.25000000, 0.00000000
1, 1.4200, 153, -0.22570688, -0.96613097, 0.29757169, 0.38674763, 12.11203003, 5.63525581, -42.53142166, 1.49079216, -105.37854004, 107.53383636, -9.82967567, -14.99174118, -0.59288126, 0.79017913, -0.15504760, -0.00830814, 0.05443493, 0.02607751, -0.00283274, 100.06400299, 105.50096893, 34.25000000, 0.00000000
1, 1.4250, 154, -0.23641624, -0.97476351, 0.29549217, 0.48746482, 12.50672245, 5.18770313, -43.55451584, 0.93539900, -105.14469147, 107.52732849, -9.87315941, -14.93908024, -0.59295040, 0.79016155, -0.15490216, -0.00773959, 0.06439511, 0.03480542, -0.00093751, 100.06400299, 105.50096893, 34.25000000, 0.00000000
1, 1.4300, 155, -0.22450560, -0.97690630, 0.29140121, -0.26867327, 13.20375443, 4.89847326, -43.55451584, 0.93539900, -105.14469147, 107.51633453, -9.91629887, -14.88258648, -0.59305018, 0.79012626, -0.15472837, -0.00715965, 0.05175305, 0.03702752, 0.00298055, 100.06400299, 105.50096893, 34.25000000, 0.00000000
1, 1.4350, 156, -0.19946268, -0.97756743, 0.28219363, -1.12783349, 13.65033722, 4.84995031, -42.88219833, 1.25694239, -104.96930695, 107.50061798, -9.95987892, -14.82383919, -0.59318227, 0.79006892, -0.15454108, -0.00657128, 0.02598552, 0.03775376, 0.01197292, 100.06400299, 105.50096893, 34.25000000, 0.00000000
1, 1.4700, 157, -0.12822068, -0.94269300, 0.24456145, -2.10035062, 11.75678921, 5.02750921, -43.26220322, 1.46156096, -105.64162445, 107.34439850, -10.24375534, -14.43175602, -0.59440005, 0.78942567, -0.15325877, -0.00276008, -0.05004776, 0.00296883, 0.04702481, 100.06400299, 105.50096893, 34.25000000, 0.00000000
1, 1.4750, 158, -0.12139603, -0.94874656, 0.23421371, -2.03916764, 12.62347126, 5.22264957, -43.23297119, 1.81233561, -105.52469635, 107.32474518, -10.28743362, -14.37836933, -0.59455490, 0.78933966, -0.15311030, -0.00220345, -0.05758683, 0.00906800, 0.05702192, 100.06400299, 105.50096893, 34.25000000, 0.00000000
1, 1.4800, 159, -0.11651880, -0.95152938, 0.23086224, -2.00862813, 13.07296753, 5.37318373, -43.23297119, 1.81233561, -105.52469635, 107.30487061, -10.33246803, -14.32300758, -0.59471130, 0.78925323, -0.15295519, -0.00162730, -0.06322303, 0.01188819, 0.06001537, 100.06400299, 105.50096893, 34.25000000, 0.00000000
1, 1.4850, 160, -0.10596125, -0.94974661, 0.22229752, -1.94399190, 13.62887287, 5.45571470, -43.23297119, 1.54925454, -106.08009338, 107.28479004, -10.37870884, -14.26504612, -0.59486908, 0.78916752, -0.15278849, -0.00102939, -0.07454847, 0.01015385, 0.06823497, 100.06400299, 105.50096893, 34.25000000, 0.00000000
1, 1.4900, 161, -0.09796364, -0.94960284, 0.22974578, -1.91962934, 14.56819630, 5.51284599, -43.23297119, 1.54925454, -106.08009338, 107.24346161, -10.39711094, -14.19853592, -0.59516162, 0.78901821, -0.15242286, -0.00061020, -0.08312791, 0.00994032, 0.06027399, 100.06400299, 105.50096893, 34.25000000, 0.00000000
1, 1.4950, 162, -0.09190998, -0.94261956, 0.24243857, -2.21920586, 15.81877899, 5.54646778, -43.23297119, 1.54925454, -106.08009338, 107.22003174, -10.44694710, -14.13000679, -0.59534281, 0.78892434, -0.15220200, 0.00006352, -0.08980630, 0.00287154, 0.04703159, 100.06400299, 105.50096893, 34.25000000, 0.00000000
1, 1.5000, 163, -0.09081928, -0.93321121, 0.25325182, -1.73933256, 17.28852081, 5.43518257, -43.37912750, 1.14001751, -106.37240601, 107.19760895, -10.49838161, -14.05412579, -0.59551686, 0.78884327, -0.15193886, 0.00078811, -0.09179832, -0.00651629, 0.03581399, 100.06400299, 105.50096893, 34.25000000, 0.00000000
1, 1.5050, 164, -0.08597925, -0.93605089, 0.23252596, -0.96501178, 17.95768738, 5.40622377, -43.37912750, 1.14001751, -106.37240601, 107.17839050, -10.55062389, -13.97492218, -0.59566832, 0.78878206, -0.15165716, 0.00153999, -0.09748363, -0.00358587, 0.05616806, 100.06400299, 105.50096893, 34.25000000, 0.00000000
1, 1.5100, 165, -0.08419802, -0.94188046, 0.23307285, -0.35426459, 17.53619003, 5.77397633, -42.94065857, -1.52002335, -105.96316528, 107.16262054, -10.60397434, -13.89827824, -0.59579563, 0.78873372, -0.15139887, 0.00229098, -0.10017046, 0.00231784, 0.05528716, 100.06400299, 105.50096893, 34.25000000, 0.00000000
1, 1.5150, 166, -0.07924595, -0.94339883, 0.23515259, 0.04572602, 16.96605301, 6.45633841, -42.94065857, -1.52002335, -105.96316528, 107.14949036, -10.65972137, -13.82540703, -0.59590477, 0.78869098, -0.15117873, 0.00304271, -0.10607888, 0.00393678, 0.05295008, 100.06400299, 105.50096893, 34.25000000, 0.00000000
1, 1.5550, 167, -0.01236759, -0.96978045, 0.19516757, 1.88712895, 4.17123175, 11.98164177, -43.02835464, 1.84156680, -105.58316040, 107.10964203, -11.08738613, -13.55284977, -0.59631419, 0.78829813, -0.15146203, 0.00740074, -0.18015292, 0.03149221, 0.09190265, 100.06400299, 105.50096893, 34.25000000, 0.00000000
1, 1.5600, 168, -0.01690628, -0.94706035, 0.20844990, 1.33017051, 3.34637833, 12.77527332, -42.67757797, 0.02923122, -105.90470886, 107.11696625, -11.15334225, -13.55559063, -0.59628546, 0.78824788, -0.15181302, 0.00785769, -0.17676669, 0.00899900, 0.07870754, 100.06400299, 105.50096893, 34.25000000, 0.00000000
1, 1.5650, 169, -0.03155676, -0.93503189, 0.20241882, 1.70287037, 2.14352489, 13.68826675, -42.67757797, 0.02923122, -105.90470886, 107.12759399, -11.22190189, -13.56556988, -0.59623522, 0.78820163, -0.15222658, 0.00829965, -0.16326612, -0.00275029, 0.08481422, 100.06400299, 105.50096893, 34.25000000, 0.00000000
1, 1.5700, 170, -0.05425938, -0.93489861, 0.19466005, 2.63961172, -4.42880058, 15.02693081, -43.14527893, 0.81847411, -105.49546814, 107.14958954, -11.28721142, -13.60959816, -0.59610826, 0.78817296, -0.15285693, 0.00855692, -0.14167506, -0.00256168, 0.09275718, 100.06400299, 105.50096893, 34.25000000, 0.00000000
1, 1.5750, 171, -0.07301902, -0.94399917, 0.21786822, 3.30676222, -6.36928034, 16.30417061, -43.14527893, 0.81847411, -105.49546814, 107.17719269, -11.35575390, -13.66503620, -0.59594464, 0.78815341, -0.15358140, 0.00878523, -0.12412799, 0.00685505, 0.06985220, 100.06400299, 105.50096893, 34.25000000, 0.00000000
1, 1.5800, 172, -0.09180095, -0.96751177, 0.24625827, 3.05605388, -5.97964811, 17.40326691, -43.14527893, 0.81847411, -105.49546814, 107.20362091, -11.43009758, -13.72027111, -0.59579122, 0.78811944, -0.15433346, 0.00905395, -0.10666274, 0.03069762, 0.04174605, 100.06400299, 105.50096893, 34.25000000, 0.00000000
1, 1.5850, 173, -0.10998522, -0.97892523, 0.24773236, 2.01992583, -5.41543198, 18.20105171, -42.99912262, 1.75387311, -105.43700409, 107.22461700, -11.50907326, -13.77400208, -0.59567660, 0.78805232, -0.15509860, 0.00935590, -0.08981784, 0.04248064, 0.04049462, 100.06400299, 105.50096893, 34.25000000, 0.00000000
1, 1.5900, 174, -0.13005364, -0.97847211, 0.22326604, 1.70384359, -5.63881159, 18.69048119, -42.99912262, 1.75387311, -105.43700409, 107.21970367, -11.56958103, -13.82434559, -0.59573406, 0.78787863, -0.15574947, 0.00951116, -0.07088958, 0.04233843, 0.06495847, 100.06400299, 105.50096893, 34.25000000, 0.00000000
1, 1.5950, 175, -0.14934969, -0.98363221, 0.21472301, 2.48068070, -5.08407784, 19.07938576, -43.96375275, 2.13387895, -105.90470886, 107.24311066, -11.65322590, -13.87783432, -0.59560460, 0.78781646, -0.15653569, 0.00985065, -0.05281676, 0.04780741, 0.07353432, 100.06400299, 105.50096893, 34.25000000, 0.00000000
1, 1.6000, 176, -0.14874490, -0.99633765, 0.22734761, 2.82280612, -3.93472195, 19.20758438, -43.96375275, 2.13387895, -105.90470886, 107.26722717, -11.73914433, -13.92596245, -0.59547079, 0.78776133, -0.15729609, 0.01023519, -0.05490990, 0.06090222, 0.06119554, 100.06400299, 105.50096893, 34.25000000, 0.00000000
1, 1.6300, 177, -0.18113968, -1.02053428, 0.25297463, 1.02104700, 7.25444365, 21.14467049, -43.99298477, 2.07541656, -105.43700409, 107.33593750, -12.34330559, -14.01164818, -0.59519595, 0.78717935, -0.16090809, 0.01411691, -0.03278091, 0.08750536, 0.03600744, 100.06400299, 105.50096893, 34.25000000, 0.00000000
1, 1.6350, 178, -0.18448171, -1.01351202, 0.24777906, 0.32693210, 8.81148911, 21.33082962, -44.16837311, 3.01081562, -105.46623993, 107.33554077, -12.45822239, -14.00093651, -0.59523153, 0.78703374, -0.16141018, 0.01497699, -0.03137396, 0.08090308, 0.04109018, 100.06400299, 105.50096893, 34.25000000, 0.00000000
1, 1.6400, 179, -0.18858427, -0.99734271, 0.22630490, 0.10465876, 9.57288074, 21.45696449, -44.16837311, 3.01081562, -105.46623993, 107.31254578, -12.56676102, -13.98201942, -0.59541851, 0.78679043, -0.16182698, 0.01580308, -0.02913005, 0.06510955, 0.06225119, 100.06400299, 105.50096893, 34.25000000, 0.00000000
1, 1.6450, 180, -0.20510741, -0.98384106, 0.20415066, 0.87573475, 10.51968575, 21.46971703, -44.51914597, 1.98772287, -105.84624481, 107.31304932, -12.68485355, -13.96308613, -0.59544605, 0.78665543, -0.16228835, 0.01672928, -0.01448842, 0.05200310, 0.08408264, 100.06400299, 105.50096893, 34.25000000, 0.00000000
1, 1.6500, 181, -0.21754974, -0.98873842, 0.20512740, 1.95399940, 12.51610947, 21.39841843, -44.51914597, 1.98772287, -105.84624481, 107.31671906, -12.80555344, -13.93426895, -0.59545022, 0.78654659, -0.16269432, 0.01772958, -0.00409144, 0.05735524, 0.08298241, 100.06400299, 105.50096893, 34.25000000, 0.00000000
1, 1.6550, 182, -0.20902012, -1.00707495, 0.22028719, 2.11003709, 14.26480675, 21.15769577, -44.51914597, 1.98772287, -105.84624481, 107.31912231, -12.92769527, -13.89651585, -0.59546077, 0.78644121, -0.16304618, 0.01878463, -0.01473194, 0.07613288, 0.06772083, 100.06400299, 105.50096893, 34.25000000, 0.00000000
1, 1.6600, 183, -0.19140132, -1.01731670, 0.22907746, 1.12031937, 16.63159943, 20.87618828, -44.48991394, 3.27389646, -105.61239624, 107.31377411, -13.05200195, -13.84670734, -0.59552169, 0.78630906, -0.16332740, 0.01990645, -0.03447720, 0.08680636, 0.05876188, 100.06400299, 105.50096893, 34.25000000, 0.00000000
1, 1.6650, 184, -0.17623799, -1.02496564, 0.21800242, 0.63036507, 18.86191940, 20.65516663, -44.48991394, 3.27389646, -105.61239624, 107.30332184, -13.17855358, -13.78559399, -0.59561461, 0.78616285, -0.16354325, 0.02109545, -0.05175491, 0.09490079, 0.06956029, 100.06400299, 105.50096893, 34.25000000, 0.00000000
1, 1.6700, 185, -0.17236158, -1.02877152, 0.22854486, 0.54898030, 19.69836235, 20.60603333, -44.54837799, 2.33849740, -105.72931671, 107.29134369, -13.30609417, -13.72023678, -0.59571540, 0.78601283, -0.16373539, 0.02231122, -0.05782194, 0.09911472, 0.05867852, 100.06400299, 105.50096893, 34.25000000, 0.00000000
1, 1.6750, 186, -0.17248502, -1.02489769, 0.25863057, 0.60754448, 20.74326134, 20.63019371, -44.54837799, 2.33849740, -105.72931671, 107.27832794, -13.43529034, -13.64973068, -0.59582078, 0.78586185, -0.16390091, 0.02356381, -0.05995694, 0.09562251, 0.02824068, 100.06400299, 105.50096893, 34.25000000, 0.00000000
1, 1.7100, 187, -0.16767596, -1.02795506, 0.23194736, 3.06071615, 35.65904236, 21.19985580, -43.81759644, 2.10464764, -105.52469635, 107.15213776, -14.43614292, -12.83194447, -0.59665805, 0.78493273, -0.16333908, 0.03464348, -0.08155198, 0.10208157, 0.05167789, 100.06400299, 105.50096893, 34.25000000, 0.00000000
1, 1.7150, 188, -0.17005293, -1.03654778, 0.23184578, 3.58893299, 36.30347443, 22.11984825, -43.81759644, 2.10464764, -105.52469635, 107.13382721, -14.59505177, -12.68615913, -0.59675789, 0.78481424, -0.16314241, 0.03648807, -0.08183678, 0.11123934, 0.05125838, 100.06400299, 105.50096893, 34.25000000, 0.00000000
1, 1.7200, 189, -0.17163719, -1.03210187, 0.26273736, 2.88958645, 38.34283447, 22.52788353, -44.16837311, 3.06927800, -105.75855255, 107.10918427, -14.75886250, -12.53075504, -0.59689331, 0.78466851, -0.16290715, 0.03840803, -0.08307554, 0.10731627, 0.01979643, 100.06400299, 105.50096893, 34.25000000, 0.00000000
1, 1.7250, 190, -0.15693752, -1.01591980, 0.26847649, 1.49779260, 41.64264297, 22.41394043, -44.16837311, 3.06927800, -105.75855255, 107.07284546, -14.92689133, -12.35865116, -0.59709775, 0.78447843, -0.16258365, 0.04042786, -0.10061040, 0.09167117, 0.01336078, 100.06400299, 105.50096893, 34.25000000, 0.00000000
1, 1.7300, 191, -0.15030532, -1.00716257, 0.25884789, 0.79425162, 43.87273788, 22.12553024, -44.16837311, 3.06927800, -105.75855255, 107.02947998, -15.09668541, -12.17481899, -0.59733993, 0.78426492, -0.16219270, 0.04251130, -0.11007501, 0.08345261, 0.02212109, 100.06400299, 105.50096893, 34.25000000, 0.00000000
1, 1.7350, 192, -0.13736923, -1.00941777, 0.24254136, 0.47541347, 46.69305420, 22.05660439, -44.08067703, 3.12774038, -105.84624481, 106.98020935, -15.27010345, -11.97660446, -0.59761024, 0.78403449, -0.16172545, 0.04468687, -0.12586284, 0.08625081, 0.03746898, 100.06400299, 105.50096893, 34.25000000, 0.00000000
1, 1.7400, 193, -0.10365128, -1.01252866, 0.19358937, 0.65927434, 49.22765350, 22.46519661, -44.08067703, 3.12774038, -105.84624481, 106.91486359, -15.42986012, -11.76225758, -0.59797627, 0.78376174, -0.16108772, 0.04682881, -0.16229823, 0.08989446, 0.08531907, 100.06400299, 105.50096893, 34.25000000, 0.00000000
1, 1.7450, 194, -0.10384950, -1.02041459, 0.18304628, 1.06062758, 48.58372879, 23.32104301, -44.57761002, 3.12774038, -106.16778564, 106.86523438, -15.61167622, -11.55587006, -0.59823060, 0.78352600, -0.16061111, 0.04910563, -0.16495669, 0.09828416, 0.09470342, 100.06400299, 105.50096893, 34.25000000, 0.00000000
1, 1.7500, 195, -0.10183706, -1.02485168, 0.17408282, 1.56228364, 48.46371460, 24.15304947, -44.57761002, 3.12774038, -106.16778564, 106.81789398, -15.79712105, -11.35097599, -0.59846175, 0.78329360, -0.16016398, 0.05140336, -0.17004976, 0.10333359, 0.10263744, 100.06400299, 105.50096893, 34.25000000, 0.00000000
1, 1.7550, 196, -0.09912337, -1.02813351, 0.16295308, 2.41132712, 46.11462021, 25.10276413, -44.57761002, 3.12774038, -106.16778564, 106.77764130, -15.98358536, -11.15885258, -0.59864211, 0.78307766, -0.15980789, 0.05365139, -0.17586589, 0.10727853, 0.11283174, 100.06400299, 105.50096893, 34.25000000, 0.00000000
1, 1.8200, 197, -0.15100218, -1.02955925, 0.22287017, 5.21543169, 35.32340622, 40.44312668, -45.42531204, 2.66004086, -106.72318268, 106.49789429, -18.76967812, -9.38846874, -0.59904337, 0.77988189, -0.16193545, 0.08190463, -0.17030713, 0.12103700, 0.04408739, 100.06400299, 105.50096893, 34.25000000, 0.00000000
1, 1.8250, 198, -0.16031565, -1.03025997, 0.21772358, 5.81948614, 35.61621475, 41.52904129, -45.42531204, 2.66004086, -106.72318268, 106.48908234, -19.01908302, -9.26984310, -0.59894413, 0.77961391, -0.16239177, 0.08424410, -0.16507861, 0.12304141, 0.04866121, 100.06400299, 105.50096893, 34.25000000, 0.00000000
1, 1.8300, 199, -0.16414441, -1.03484988, 0.21734159, 6.03182697, 35.94118118, 42.58563995, -45.57146835, 2.66004086, -106.72318268, 106.48076630, -19.27400208, -9.15092182, -0.59883243, 0.77933830, -0.16287373, 0.08662338, -0.16543078, 0.12898090, 0.04848631, 100.06400299, 105.50096893, 34.25000000, 0.00000000
1, 1.8350, 200, -0.17205323, -1.04371047, 0.21585578, 5.82358789, 35.70957565, 43.45907974, -45.57146835, 3.42005253, -106.72318268, 106.47168732, -19.53276062, -9.03426647, -0.59871912, 0.77904749, -0.16339123, 0.08901560, -0.16176626, 0.13923183, 0.04937398, 100.06400299, 105.50096893, 34.25000000, 0.00000000
1, 1.8400, 201, -0.18728486, -1.05106890, 0.21193327, 5.40469217, 35.20260620, 44.11832047, -45.57146835, 3.42005253, -106.72318268, 106.45217896, -19.77870750, -8.91768360, -0.59867388, 0.77872038, -0.16385323, 0.09130289, -0.15068418, 0.14794800, 0.05259541, 100.06400299, 105.50096893, 34.25000000, 0.00000000
1, 1.8450, 202, -0.19889802, -1.06046736, 0.19866429, 5.51484489, 35.14455795, 45.13204575, -45.77608871, 4.15083313, -107.48319244, 106.44225311, -20.04465103, -8.80590725, -0.59855312, 0.77840257, -0.16444141, 0.09371658, -0.14326248, 0.15876317, 0.06515884, 100.06400299, 105.50096893, 34.25000000, 0.00000000
1, 1.8500, 203, -0.21170886, -1.06167090, 0.17547765, 4.65914822, 35.50066757, 45.95762634, -45.77608871, 4.15083313, -107.48319244, 106.42727661, -20.31504059, -8.69329643, -0.59845662, 0.77804995, -0.16505076, 0.09615727, -0.13480535, 0.16149084, 0.08763975, 100.06400299, 105.50096893, 34.25000000, 0.00000000
1, 1.8550, 204, -0.22306406, -1.06436503, 0.15912102, 4.34201956, 35.38005447, 46.51962662, -45.48377609, 3.94621444, -107.42472839, 106.41063690, -20.58794022, -8.58186722, -0.59836382, 0.77768052, -0.16568263, 0.09860574, -0.12786239, 0.16572312, 0.10323912, 100.06400299, 105.50096893, 34.25000000, 0.00000000
1, 1.9350, 205, -0.02199603, -1.10322618, 0.20944420, 8.44023514, 27.79540443, 68.08913422, -48.37766647, 5.46623802, -108.38935852, 106.27729034, -25.43401337, -7.61929893, -0.59557474, 0.76996392, -0.18361884, 0.13685949, -0.40654463, 0.23530968, 0.04191194, 100.06400299, 105.50096893, 34.25000000, 0.00000000
1, 1.9400, 206, -0.01270222, -1.13930392, 0.20007315, 10.60034180, 31.91725922, 69.84238434, -48.37766647, 5.46623802, -108.38935852, 106.29635620, -25.78618813, -7.55306292, -0.59511769, 0.76950681, -0.18490849, 0.13965397, -0.42152494, 0.27411851, 0.05082278, 100.06400299, 105.50096893, 34.25000000, 0.00000000
1, 1.9450, 207, 0.00800342, -1.18334067, 0.20283835, 12.48934555, 34.92268753, 71.57248688, -48.49459076, 5.87547493, -108.18473816, 106.32666779, -26.17842102, -7.47766972, -0.59453583, 0.76904070, -0.18632035, 0.14278805, -0.44813153, 0.32100999, 0.04761896, 100.06400299, 105.50096893, 34.25000000, 0.00000000
1, 1.9500, 208, 0.03991297, -1.22829390, 0.17620805, 13.87858486, 38.03311920, 73.10112000, -48.49459076, 5.87547493, -108.18473816, 106.35709381, -26.58237839, -7.38797474, -0.59391558, 0.76856899, -0.18769149, 0.14607549, -0.48625219, 0.36911553, 0.07384064, 100.06400299, 105.50096893, 34.25000000, 0.00000000
1, 1.9550, 209, 0.09292381, -1.28240478, 0.14306997, 15.09555721, 40.68862534, 74.65616608, -49.28383636, 5.81701231, -108.12627411, 106.38768005, -26.99753380, -7.28635025, -0.59325802, 0.76808870, -0.18903519, 0.14950013, -0.54560900, 0.42651397, 0.10656440, 100.06400299, 105.50096893, 34.25000000, 0.00000000
1, 1.9600, 210, 0.13086039, -1.28857756, 0.12386980, 15.12463856, 41.43304443, 75.58490753, -49.28383636, 5.81701231, -108.12627411, 106.41657257, -27.41825485, -7.18207264, -0.59259081, 0.76758587, -0.19038799, 0.15297188, -0.59001541, 0.43605033, 0.12535560, 100.06400299, 105.50096893, 34.25000000, 0.00000000
1, 1.9650, 211, 0.19355810, -1.28435373, 0.09306988, 14.70868301, 40.90271378, 77.22501373, -49.28383636, 5.81701231, -108.12627411, 106.44515991, -27.84613419, -7.08307362, -0.59191346, 0.76705104, -0.19180909, 0.15646282, -0.65923566, 0.43529749, 0.15575880, 100.06400299, 105.50096893, 34.25000000, 0.00000000
1, 1.9700, 212, 0.22811043, -1.28055561, 0.08950788, 14.73434734, 39.15621185, 78.90061188, -49.95615387, 5.72931862, -108.06781769, 106.47891235, -28.27964783, -6.99612713, -0.59120011, 0.76650316, -0.19332843, 0.15993659, -0.70043898, 0.43503624, 0.15888962, 100.06400299, 105.50096893, 34.25000000, 0.00000000
1, 1.9750, 213, 0.25198546, -1.29420173, 0.10100442, 15.09389496, 36.29534912, 80.68560028, -49.95615387, 5.72931862, -108.06781769, 106.52272034, -28.71772194, -6.92763901, -0.59042883, 0.76595777, -0.19497573, 0.16336150, -0.73105448, 0.45232099, 0.14700562, 100.06400299, 105.50096893, 34.25000000, 0.00000000
1, 1.9800, 214, 0.25273508, -1.31587112, 0.10749790, 14.63685703, 33.29045868, 82.37241364, -50.04384613, 3.18620276, -108.15550995, 106.57314301, -29.15968513, -6.87847042, -0.58962607, 0.76539600, -0.19675723, 0.16672337, -0.73856258, 0.47775072, 0.14014140, 100.06400299, 105.50096893, 34.25000000, 0.00000000
1, 1.9850, 215, 0.22101864, -1.32657278, 0.09159656, 14.36283398, 32.66947937, 83.48276520, -50.04384613, 3.18620276, -108.15550995, 106.62457275, -29.60613441, -6.83477497, -0.58880973, 0.76481032, -0.19859077, 0.17008823, -0.71358466, 0.49234402, 0.15561539, 100.06400299, 105.50096893, 34.25000000, 0.00000000
1, 2.0150, 216, 0.02344961, -1.33000970, 0.19484104, 13.63171291, 63.60574341, 83.00262451, -50.89155197, 7.74627304, -108.24320221, 106.70637512, -32.38758469, -6.13608122, -0.58435339, 0.76048285, -0.20746204, 0.19275995, -0.55774844, 0.51985598, 0.04637749, 100.06400299, 105.50096893, 34.25000000, 0.00000000
1, 2.0200, 217, 0.06140052, -1.30597615, 0.22732657, 12.36878872, 76.80265808, 82.73737335, -50.71616364, 5.93393755, -108.09704590, 106.60899353, -32.89342880, -5.83897352, -0.58393097, 0.75939953, -0.20813225, 0.19752993, -0.60318363, 0.49991232, 0.01140994, 100.06400299, 105.50096893, 34.25000000, 0.00000000
1, 2.0250, 218, 0.09319221, -1.29286277, 0.25141540, 12.03443050, 83.86997223, 82.76987457, -50.71616364, 5.93393755, -108.09704590, 106.48400879, -33.40895844, -5.49856186, -0.58356869, 0.75822699, -0.20862076, 0.20252651, -0.64254200, 0.49094296, -0.01562630, 100.06400299, 105.50096893, 34.25000000, 0.00000000
1, 2.0300, 219, 0.09859067, -1.27178049, 0.25655329, 10.88017082, 88.23856354, 83.20416260, -51.94387436, 8.00935364, -108.33089447, 106.33519745, -33.93203735, -5.13016605, -0.58326441, 0.75696176, -0.20901655, 0.20766257, -0.65554273, 0.47408700, -0.02414200, 100.06400299, 105.50096893, 34.25000000, 0.00000000
1, 2.0350, 220, 0.05999203, -1.26211095, 0.24223223, 10.01672268, 89.12847900, 83.55184174, -51.94387436, 8.00935364, -108.33089447, 106.17449188, -34.45719528, -4.75322151, -0.58297682, 0.75564200, -0.20940302, 0.21282305, -0.62449628, 0.46872169, -0.01354149, 100.06400299, 105.50096893, 34.25000000, 0.00000000
1, 2.0400, 221, -0.02967843, -1.25468779, 0.20343287, 9.80160522, 86.55936432, 84.57995605, -51.94387436, 8.00935364, -108.33089447, 106.01110077, -34.96237183, -4.38476086, -0.58270514, 0.75433409, -0.20976809, 0.21778969, -0.54213488, 0.46561930, 0.02139251, 100.06400299, 105.50096893, 34.25000000, 0.00000000
1, 2.0450, 222, -0.13117638, -1.26413822, 0.13894649, 10.46627998, 82.08897400, 86.77838135, -51.30078888, 7.83396673, -108.65244293, 105.86935425, -35.49171448, -4.04638290, -0.58227497, 0.75302124, -0.21042372, 0.22279328, -0.44787204, 0.47958240, 0.08211937, 100.06400299, 105.50096893, 34.25000000, 0.00000000
1, 2.0500, 223, -0.22126156, -1.24208629, 0.09339163, 13.31947517, 73.17288971, 89.22857666, -51.30078888, 7.83396673, -108.65244293, 105.77051544, -36.02016068, -3.76135540, -0.58162981, 0.75182503, -0.21135324, 0.22758691, -0.36518174, 0.46235168, 0.12450721, 100.06400299, 105.50096893, 34.25000000, 0.00000000
1, 2.0550, 224, -0.27082610, -1.22469378, 0.09140889, 16.31470680, 64.25973511, 91.60690308, -51.88541412, 8.74013424, -109.12014008, 105.71679688, -36.54768372, -3.53075004, -0.58076560, 0.75075281, -0.21255195, 0.23217073, -0.32304341, 0.44994020, 0.12404441, 100.06400299, 105.50096893, 34.25000000, 0.00000000
1, 2.0600, 225, -0.29925331, -1.20590234, 0.13530828, 19.68084145, 57.33728409, 95.35994720, -51.88541412, 8.74013424, -109.12014008, 105.70575714, -37.08381271, -3.34611249, -0.57967460, 0.74978304, -0.21400961, 0.23664886, -0.30218953, 0.43634883, 0.07831337, 100.06400299, 105.50096893, 34.25000000, 0.00000000
1, 2.0650, 226, -0.31182078, -1.17424035, 0.22102137, 19.94828033, 53.91890717, 100.04216766, -51.88541412, 8.74013424, -109.12014008, 105.71125793, -37.63789749, -3.18876362, -0.57847995, 0.74879307, -0.21569893, 0.24113068, -0.29746938, 0.41014186, -0.00890608, 100.06400299, 105.50096893, 34.25000000, 0.00000000
1, 2.1100, 227, -0.52906466, -1.02910244, 0.20183203, -3.08950257, 6.28524160, 88.08851624, -54.45775986, 9.93861389, -109.50014496, 105.76537323, -42.41803741, -2.98323321, -0.56989443, 0.73745632, -0.23758754, 0.27373487, -0.14461273, 0.31704590, -0.00411584, 100.06400299, 105.50096893, 34.25000000, 0.00000000
1, 2.1150, 228, -0.53818595, -1.03989804, 0.17485926, -9.07150078, 2.82862878, 83.35023499, -54.80853653, 10.08477020, -109.41245270, 105.81232452, -42.82316589, -3.11800480, -0.56921071, 0.73633146, -0.24030074, 0.27580953, -0.14070891, 0.33273453, 0.02215812, 100.06400299, 105.50096893, 34.25000000, 0.00000000
1, 2.1200, 229, -0.58645380, -1.01942265, 0.21588086, -17.24593925, 1.83452404, 81.18725586, -54.80853653, 10.08477020, -109.41245270, 105.82157898, -43.21662140, -3.25648880, -0.56879771, 0.73502791, -0.24306524, 0.27770951, -0.09759803, 0.31678218, -0.01999184, 100.06400299, 105.50096893, 34.25000000, 0.00000000
1, 2.1250, 230, -0.61391395, -0.96348894, 0.22807409, -22.99591064, 0.87568837, 81.34275055, -54.80853653, 10.08477020, -109.41245270, 105.80796051, -43.60956955, -3.40250254, -0.56854922, 0.73358172, -0.24592534, 0.27951840, -0.07515567, 0.26531631, -0.03357332, 100.06400299, 105.50096893, 34.25000000, 0.00000000
1, 2.1300, 231, -0.64200938, -0.89588749, 0.16639014, -23.87003326, -5.67236280, 83.93187714, -55.77316666, 11.22478771, -110.49400330, 105.82501221, -44.00612640, -3.59802198, -0.56821841, 0.73215568, -0.24903809, 0.28116921, -0.05189546, 0.20242974, 0.02694107, 100.06400299, 105.50096893, 34.25000000, 0.00000000
1, 2.1350, 232, -0.68753397, -0.85230887, 0.10270853, -23.86932564, -11.12341499, 86.11537933, -55.77316666, 11.22478771, -110.49400330, 105.87262726, -44.40572357, -3.83591080, -0.56779277, 0.73076177, -0.25235221, 0.28269616, -0.01121209, 0.16375571, 0.08974524, 100.06400299, 105.50096893, 34.25000000, 0.00000000
1, 2.1400, 233, -0.75496161, -0.80424976, 0.09665377, -24.31579208, -15.06230354, 87.53443146, -55.48085403, 11.75094986, -109.88014984, 105.93207550, -44.80619049, -4.09877062, -0.56735486, 0.72934806, -0.25579005, 0.28413266, 0.05124580, 0.12062233, 0.09508444, 100.06400299, 105.50096893, 34.25000000, 0.00000000
1, 2.1450, 234, -0.80615109, -0.75515962, 0.17135833, -22.89806366, -17.49824715, 87.94904327, -55.48085403, 11.75094986, -109.88014984, 106.02328491, -45.20547485, -4.38809776, -0.56678694, 0.72801322, -0.25930023, 0.28550434, 0.09730975, 0.07641593, 0.01993062, 100.06400299, 105.50096893, 34.25000000, 0.00000000
1, 2.1750, 235, -0.79387581, -0.64126682, 0.06410859, -51.63737869, -18.06464958, 72.10727692, -57.43934631, 14.06021595, -110.02630615, 106.55935669, -47.36654663, -6.51801443, -0.56497222, 0.71921510, -0.28151101, 0.29032329, 0.05892820, -0.00895333, 0.12637016, 100.06400299, 105.50096893, 34.25000000, 0.00000000
1, 2.1800, 236, -0.49118015, -0.60477948, 0.10975711, -53.11553192, -18.20157814, 64.16599274, -57.52703857, 13.53405380, -110.52323914, 106.48915100, -47.64916229, -6.78186798, -0.56559294, 0.71734381, -0.28464469, 0.29068863, -0.24729815, -0.04217900, 0.07969658, 100.06400299, 105.50096893, 34.25000000, 0.00000000
1, 2.1850, 237, -0.16441165, -0.57907939, 0.27253500, -47.71714401, -39.78519058, 43.67316818, -57.52703857, 13.53405380, -110.52323914, 106.52911377, -47.80300903, -7.15754032, -0.56603020, 0.71612412, -0.28759989, 0.28993526, -0.57672238, -0.06575635, -0.08286291, 100.06400299, 105.50096893, 34.25000000, 0.00000000
1, 2.1900, 238, 0.06341739, -0.50740838, 0.36256063, -47.33944321, -64.82502747, 31.92493248, -58.43320465, 15.20023346, -110.84477997, 106.70606232, -47.83413315, -7.70099068, -0.56624234, 0.71552932, -0.29069096, 0.28789985, -0.80559254, -0.13625279, -0.17092852, 100.06400299, 105.50096893, 34.25000000, 0.00000000
1, 2.1950, 239, 0.20885937, -0.41968700, 0.35810801, -47.96650314, -89.01519012, 20.70046806, -58.43320465, 15.20023346, -110.84477997, 106.97001648, -47.80559921, -8.38042259, -0.56634015, 0.71519029, -0.29414290, 0.28502917, -0.95076561, -0.22339389, -0.16308701, 100.06400299, 105.50096893, 34.25000000, 0.00000000
1, 2.2000, 240, 0.30383861, -0.34081736, 0.28196600, -48.69918823, -104.52710724, 9.22851944, -58.43320465, 15.20023346, -110.84477997, 107.29193878, -47.69718170, -9.14404488, -0.56639183, 0.71515614, -0.29762432, 0.28137478, -1.04451084, -0.30216902, -0.08275799, 100.06400299, 105.50096893, 34.25000000, 0.00000000
1, 2.2050, 241, 0.35320547, -0.27340412, 0.21200441, -48.71255112, -112.13324738, -3.39613199, -59.19321823, 15.34638977, -110.72785950, 107.62917328, -47.51420212, -9.93047619, -0.56648552, 0.71535897, -0.30089316, 0.27716255, -1.09177113, -0.37031370, -0.00817117, 100.06400299, 105.50096893, 34.25000000, 0.00000000
1, 2.2100, 242, 0.34405643, -0.20302583, 0.16659294, -45.88721085, -116.45316315, -16.96005058, -59.19321823, 15.34638977, -110.72785950, 107.97463989, -47.25687408, -10.71191692, -0.56658238, 0.71584040, -0.30380341, 0.27250803, -1.07968950, -0.44230857, 0.04212882, 100.06400299, 105.50096893, 34.25000000, 0.00000000
1, 2.2150, 243, 0.27861443, -0.16665189, 0.16200113, -39.26450348, -119.98423767, -30.09783173, -59.07629395, 14.58637810, -109.99707794, 108.34162140, -46.92825317, -11.48139954, -0.56656468, 0.71667886, -0.30630302, 0.26749635, -1.01054478, -0.48113590, 0.05191170, 100.06400299, 105.50096893, 34.25000000, 0.00000000
1, 2.2200, 244, 0.17834699, -0.18873116, 0.18837988, -30.12955666, -125.02828979, -41.69124985, -59.07629395, 14.58637810, -109.99707794, 108.75050354, -46.53303528, -12.25050831, -0.56631142, 0.71793264, -0.30844840, 0.26215225, -0.90581799, -0.46217108, 0.03127933, 100.06400299, 105.50096893, 34.25000000, 0.00000000
1, 2.2950, 245, -0.29755962, -0.62261415, 0.06369179, -28.63575745, -21.33572388, -143.30863953, -57.90704346, 13.06635475, -107.48319244, 110.20608521, -37.75110245, -16.38211632, -0.57361865, 0.74178886, -0.29376575, 0.18550652, -0.31731030, -0.11737861, 0.20784263, 100.06400299, 105.50096893, 34.25000000, 0.00000000
1, 2.3000, 246, -0.26965982, -0.64963937, 0.08948921, -24.74775314, -15.31930923, -151.73239136, -57.90704346, 13.06635475, -107.48319244, 109.93753052, -37.01221085, -16.14666557, -0.57544655, 0.74321312, -0.28944394, 0.18088087, -0.33514172, -0.09899043, 0.18126716, 100.06400299, 105.50096893, 34.25000000, 0.00000000
1, 2.3050, 247, -0.25497627, -0.68464243, 0.12252253, -22.61784172, -13.38127899, -157.74230957, -56.56240845, 11.83864307, -107.07395172, 109.67163086, -36.24740601, -15.89381790, -0.57725060, 0.74471617, -0.28484821, 0.17618480, -0.33931237, -0.07276754, 0.14740351, 100.06400299, 105.50096893, 34.25000000, 0.00000000
1, 2.3100, 248, -0.25807300, -0.73088980, 0.14299957, -21.86545372, -12.16011620, -163.40121460, -56.56240845, 11.83864307, -107.07395172, 109.40525055, -35.45702362, -15.62911892, -0.57906032, 0.74626136, -0.28001794, 0.17138593, -0.32520276, -0.03539629, 0.12601526, 100.06400299, 105.50096893, 34.25000000, 0.00000000
1, 2.3150, 249, -0.26655835, -0.76691699, 0.15835112, -22.34928703, -11.67852402, -169.16720581, -55.74393463, 10.08477020, -107.10318756, 109.13523865, -34.63920593, -15.35722637, -0.58090407, 0.74782056, -0.27497664, 0.16644141, -0.30520058, -0.00837138, 0.10966429, 100.06400299, 105.50096893, 34.25000000, 0.00000000
1, 2.3200, 250, -0.26682270, -0.78984261, 0.17587887, -22.50154114, -12.10411453, -174.74868774, -55.74393463, 10.08477020, -107.10318756, 108.86702728, -33.79326248, -15.08419609, -0.58275509, 0.74940276, -0.26974967, 0.16132969, -0.29290158, 0.00543663, 0.09114130, 100.06400299, 105.50096893, 34.25000000, 0.00000000
1, 2.3250, 251, -0.26211375, -0.80944932, 0.18914297, -22.08655930, -12.29014969, -179.94612122, -55.74393463, 10.08477020, -107.10318756, 108.60343170, -32.92135620, -14.80970955, -0.58459157, 0.75101191, -0.26433837, 0.15607427, -0.28505683, 0.01587240, 0.07690373, 100.06400299, 105.50096893, 34.25000000, 0.00000000
1, 2.3300, 252, -0.24906343, -0.82545054, 0.19291382, -21.88893890, -12.10019302, -184.92155457, -54.28237152, 9.20783424, -107.30780029, 108.34275818, -32.02509308, -14.53232193, -0.58642018, 0.75263351, -0.25874108, 0.15068993, -0.28503972, 0.02268992, 0.07217090, 100.06400299, 105.50096893, 34.25000000, 0.00000000
1, 2.3350, 253, -0.22653857, -0.83610237, 0.19827799, -21.36862946, -12.08559990, -189.72996521, -54.28237152, 9.20783424, -107.30780029, 108.08761597, -31.10496902, -14.25354767, -0.58822399, 0.75427103, -0.25296479, 0.14517830, -0.29401702, 0.02415633, 0.06586272, 100.06400299, 105.50096893, 34.25000000, 0.00000000
1, 2.3400, 254, -0.20571294, -0.84802139, 0.19025853, -20.44759560, -12.67845726, -193.75177002, -53.49312973, 9.03244686, -107.77550507, 107.83871460, -30.15255356, -13.97603416, -0.59000391, 0.75593805, -0.24698520, 0.13946880, -0.30071399, 0.02691367, 0.07296722, 100.06400299, 105.50096893, 34.25000000, 0.00000000
1, 2.3750, 255, -0.19831002, -1.00639558, 0.21461593, -15.06271362, -24.93191338, -216.96643066, -50.68693161, 6.60625553, -107.57088470, 106.51219940, -22.97702599, -12.30384064, -0.59998107, 0.76797163, -0.20261876, 0.09585452, -0.19691278, 0.12531069, 0.04499272, 100.06400299, 105.50096893, 34.25000000, 0.00000000
1, 2.3800, 256, -0.21288849, -1.02297747, 0.20789653, -15.52337742, -25.57882309, -219.21928406, -48.99152374, 3.24466538, -107.60011292, 106.35523224, -21.88942146, -12.10305977, -0.60117871, 0.76956099, -0.19601259, 0.08910222, -0.16485724, 0.13417897, 0.05128726, 100.06400299, 105.50096893, 34.25000000, 0.00000000
1, 2.3850, 257, -0.23138192, -1.03366184, 0.19942372, -16.77333069, -25.61115265, -221.23719788, -48.99152374, 3.24466538, -107.60011292, 106.19623566, -20.79158020, -11.90418530, -0.60236955, 0.77106237, -0.18932611, 0.08227671, -0.12856808, 0.13739753, 0.05921262, 100.06400299, 105.50096893, 34.25000000, 0.00000000
1, 2.3900, 258, -0.25571063, -1.04799116, 0.20310794, -17.16674232, -25.91184425, -223.37751770, -47.23764801, 2.10464764, -107.54165649, 106.03701782, -19.67916298, -11.70737934, -0.60354048, 0.77249038, -0.18253717, 0.07535087, -0.08613920, 0.14449067, 0.05483538, 100.06400299, 105.50096893, 34.25000000, 0.00000000
1, 2.3950, 259, -0.28255844, -1.06058133, 0.21649355, -17.85134888, -25.59518433, -225.21903992, -47.23764801, 2.10464764, -107.54165649, 105.88093567, -18.56120110, -11.51190853, -0.60466462, 0.77384597, -0.17568420, 0.06839687, -0.04092614, 0.15011778, 0.04066131, 100.06400299, 105.50096893, 34.25000000, 0.00000000
1, 2.4000, 260, -0.33039120, -1.08266985, 0.22398938, -18.77812004, -22.84797859, -226.82426453, -45.19146347, 0.29231218, -107.80473328, 105.72022247, -17.43873405, -11.30478287, -0.60578620, 0.77510458, -0.16868992, 0.06147923, 0.02547570, 0.16556655, 0.03214741, 100.06400299, 105.50096893, 34.25000000, 0.00000000
1, 2.4050, 261, -0.36817062, -1.10279047, 0.22013149, -19.75469971, -19.07494926, -229.10545349, -45.19146347, 0.29231218, -107.80473328, 105.55339050, -16.30978775, -11.08010960, -0.60691404, 0.77626604, -0.16150448, 0.05461524, 0.08206575, 0.17935717, 0.03478019, 100.06400299, 105.50096893, 34.25000000, 0.00000000
1, 2.4100, 262, -0.40315214, -1.12632596, 0.19827664, -22.02435303, -8.16041851, -230.42880249, -45.19146347, 0.29231218, -107.80473328, 105.36545563, -15.18828964, -10.80388165, -0.60813695, 0.77727181, -0.15397392, 0.04806392, 0.13594931, 0.19689357, 0.05501370, 100.06400299, 105.50096893, 34.25000000, 0.00000000
1, 2.4150, 263, -0.42592722, -1.15478766, 0.19651243, -22.19919014, -2.55130816, -230.53825378, -43.72990417, 2.92312193, -107.74626923, 105.17608643, -14.07273769, -10.50479317, -0.60934156, 0.77818257, -0.14627500, 0.04169365, 0.17757358, 0.21967578, 0.05492353, 100.06400299, 105.50096893, 34.25000000, 0.00000000
1, 2.4200, 264, -0.45511454, -1.17997479, 0.20704423, -22.62934494, 3.73591518, -229.96229553, -43.72990417, 2.92312193, -107.74626923, 104.98429871, -12.96714306, -10.18051338, -0.61053783, 0.77898765, -0.13841407, 0.03554495, 0.22551700, 0.23954821, 0.04235695, 100.06400299, 105.50096893, 34.25000000, 0.00000000
1, 2.4600, 265, -0.44322148, -1.16698742, 0.20313145, -22.65428162, 22.00308609, -210.14271545, -37.73750305, 1.63694823, -108.79859924, 103.52636719, -4.57190990, -7.14763069, -0.61917126, 0.78176910, -0.07356066, -0.00728033, 0.35871691, 0.19797939, 0.02751622, 100.06400299, 105.50096893, 34.25000000, 0.00000000
1, 2.4650, 266, -0.45174479, -1.18433249, 0.21265696, -21.26745605, 20.31694031, -204.66230774, -35.60362244, 1.19848001, -108.91551971, 103.39351654, -3.60006237, -6.81146717, -0.61988807, 0.78181201, -0.06603060, -0.01219703, 0.38424706, 0.21350098, 0.01593440, 100.06400299, 105.50096893, 34.25000000, 0.00000000
1, 2.4700, 267, -0.46611828, -1.20439947, 0.23387188, -19.48355293, 18.83934975, -196.09739685, -35.60362244, 1.19848001, -108.91551971, 103.27635193, -2.66746092, -6.49478436, -0.62049520, 0.78181756, -0.05882795, -0.01692580, 0.41496867, 0.23210803, -0.00716756, 100.06400299, 105.50096893, 34.25000000, 0.00000000
1, 2.4750, 268, -0.48450732, -1.21465063, 0.24478532, -18.59300613, 17.67128944, -187.68899536, -33.61590195, -0.05846244, -109.06167603, 103.16944885, -1.77384377, -6.19540501, -0.62103015, 0.78176928, -0.05193976, -0.02146277, 0.44908553, 0.24124888, -0.01984341, 100.06400299, 105.50096893, 34.25000000, 0.00000000
1, 2.4800, 269, -0.51301837, -1.20947802, 0.24212669, -17.63248444, 16.73334694, -178.68009949, -33.61590195, -0.05846244, -109.06167603, 103.07241821, -0.92251408, -5.91248655, -0.62149739, 0.78167570, -0.04538146, -0.02578352, 0.49264467, 0.23528495, -0.01884456, 100.06400299, 105.50096893, 34.25000000, 0.00000000
1, 2.4850, 270, -0.54840201, -1.19397163, 0.21928467, -16.57762337, 16.90189743, -169.29554749, -33.61590195, -0.05846244, -109.06167603, 102.98495483, -0.11663647, -5.64068651, -0.62190241, 0.78154683, -0.03913666, -0.02983998, 0.54234850, 0.21928492, 0.00244526, 100.06400299, 105.50096893, 34.25000000, 0.00000000
1, 2.4900, 271, -0.57090122, -1.17848051, 0.19767550, -15.24495411, 17.66139221, -159.76020813, -32.50511551, 0.32154340, -109.00321198, 102.90600586, 0.62611699, -5.37667799, -0.62226111, 0.78138447, -0.03328116, -0.03349614, 0.57821429, 0.20352805, 0.02265275, 100.06400299, 105.50096893, 34.25000000, 0.00000000
1, 2.4950, 272, -0.58118212, -1.16154516, 0.19172716, -13.93821239, 17.77733231, -149.53883362, -32.50511551, 0.32154340, -109.00321198, 102.83877563, 1.33546364, -5.12462378, -0.62254232, 0.78122169, -0.02768534, -0.03697844, 0.60096574, 0.18649760, 0.02736159, 100.06400299, 105.50096893, 34.25000000, 0.00000000
1, 2.5000, 273, -0.58182269, -1.14082050, 0.19153221, -12.47424316, 16.83108711, -138.53860474, -30.63431740, -0.26308095, -109.29552460, 102.78149414, 1.99248767, -4.88999701, -0.62276411, 0.78105295, -0.02249093, -0.04019032, 0.61330044, 0.16583890, 0.02650362, 100.06400299, 105.50096893, 34.25000000, 0.00000000
1, 2.5050, 274, -0.59492582, -1.11146069, 0.18826906, -10.79312325, 15.63641167, -127.26662445, -30.63431740, -0.26308095, -109.29552460, 102.73458099, 2.59606409, -4.67407560, -0.62292498, 0.78089064, -0.01771480, -0.04313301, 0.63717306, 0.13668519, 0.02885217, 100.06400299, 105.50096893, 34.25000000, 0.00000000
1, 2.5600, 275, -0.95857674, -0.89504814, 0.16119379, 11.80194950, -8.99713612, 28.78723145, -27.85735130, 0.23384975, -109.26629639, 102.91941071, 4.86072731, -3.71295404, -0.62110347, 0.78191221, 0.00109093, -0.05331723, 1.04352927, -0.07639277, 0.05751345, 100.06400299, 105.50096893, 34.25000000, 0.00000000
1, 2.5650, 276, -1.01271427, -0.83788109, 0.19561103, 11.40766239, -17.37969208, 42.75352859, -27.71119499, 0.14615609, -108.91551971, 102.96595001, 4.67177343, -3.84564447, -0.62080961, 0.78218430, -0.00086363, -0.05274959, 1.09456038, -0.13368118, 0.02390781, 100.06400299, 105.50096893, 34.25000000, 0.00000000
1, 2.5700, 277, -1.06430912, -0.79002953, 0.12122124, 13.87600899, -18.22810173, 57.31864548, -27.71119499, 0.14615609, -108.91551971, 103.02389526, 4.41293573, -3.99891925, -0.62046015, 0.78251725, -0.00334319, -0.05181532, 1.14215147, -0.18152620, 0.09924564, 100.06400299, 105.50096893, 34.25000000, 0.00000000
1, 2.5750, 278, -1.11664212, -0.78401339, 0.08652314, 15.26357269, -21.05291176, 71.11431885, -28.64659500, -0.05846244, -109.00321198, 103.08753967, 4.09022856, -4.18173027, -0.62008739, 0.78287327, -0.00637291, -0.05060260, 1.18935061, -0.18762404, 0.13497560, 100.06400299, 105.50096893, 34.25000000, 0.00000000
1, 2.5800, 279, -1.22060966, -0.74202836, 0.11375751, 16.77655983, -30.19515610, 89.87542725, -28.64659500, -0.05846244, -109.00321198, 103.15567017, 3.68665743, -4.43064213, -0.61969125, 0.78323507, -0.01029368, -0.04919194, 1.28643179, -0.22985163, 0.10879527, 100.06400299, 105.50096893, 34.25000000, 0.00000000
1, 2.5850, 280, -1.32182217, -0.69453120, 0.15767565, 20.35686302, -32.24265671, 102.54004669, -28.64659500, -0.05846244, -109.00321198, 103.24221039, 3.22410393, -4.70434046, -0.61918557, 0.78366840, -0.01470943, -0.04750559, 1.37975621, -0.27757156, 0.06618388, 100.06400299, 105.50096893, 34.25000000, 0.00000000
1, 2.5900, 281, -1.41323960, -0.69182587, 0.16386230, 25.17002296, -29.93538284, 117.08042908, -29.61122513, 0.40923706, -108.94475555, 103.35514832, 2.66660428, -4.98284006, -0.61853904, 0.78420699, -0.01967947, -0.04518530, 1.46195447, -0.28034210, 0.06169307, 100.06400299, 105.50096893, 34.25000000, 0.00000000
1, 2.5950, 282, -1.39737463, -0.69666433, 0.25076345, 28.16737556, -27.78494263, 130.23811340, -29.61122513, 0.40923706, -108.94475555, 103.48579407, 2.06530762, -5.26829100, -0.61778641, 0.78479576, -0.02493502, -0.04258920, 1.43546915, -0.27557752, -0.02291332, 100.06400299, 105.50096893, 34.25000000, 0.00000000
1, 2.6650, 283, -1.51157308, -1.56031072, 0.33931071, 55.16163635, -6.81918240, 105.05146790, -34.98976898, -0.08769365, -107.71704102, 105.78979492, -4.48017931, -7.31271219, -0.60357922, 0.79379475, -0.07435368, -0.00733343, 1.43483615, 0.59995449, -0.07539584, 100.06400299, 105.50096893, 34.25000000, 0.00000000
1, 2.6700, 284, -1.38388467, -1.47151542, 0.19540390, 33.34077072, 24.78738785, 108.29088593, -34.98976898, -0.08769365, -107.71704102, 105.96006775, -5.03455830, -7.34075069, -0.60252368, 0.79432619, -0.07745305, -0.00351116, 1.29809225, 0.51307672, 0.07211432, 100.06400299, 105.50096893, 34.25000000, 0.00000000
1, 2.6750, 285, -1.05513060, -1.23919904, 0.04626513, 17.98329926, 52.90333557, 105.40594482, -36.15901566, 0.40923706, -107.42472839, 106.04097748, -5.61370707, -7.23029327, -0.60207915, 0.79444706, -0.07970838, 0.00115770, 0.95970112, 0.28235754, 0.22387734, 100.06400299, 105.50096893, 34.25000000, 0.00000000
1, 2.6800, 286, -0.72724319, -0.89865148, 0.04008215, 11.62947273, 64.55533600, 96.51078796, -36.15901566, 0.40923706, -107.42472839, 106.08196259, -6.16629601, -7.05173588, -0.60188025, 0.79440987, -0.08134747, 0.00597401, 0.62206721, -0.05700516, 0.23196052, 100.06400299, 105.50096893, 34.25000000, 0.00000000
1, 2.6850, 287, -0.40704292, -0.66464591, 0.08921985, 11.35899925, 65.88840485, 81.40345764, -36.15901566, 0.40923706, -107.42472839, 106.11679840, -6.64823055, -6.84596205, -0.60168642, 0.79439944, -0.08242661, 0.01043767, 0.29313329, -0.29001018, 0.18433174, 100.06400299, 105.50096893, 34.25000000, 0.00000000
1, 2.6900, 288, -0.17102362, -0.53171718, 0.17089440, 21.53171730, 63.09997177, 69.07946014, -36.18824768, 0.52616191, -107.36626434, 106.20271301, -7.07109642, -6.63704157, -0.60110873, 0.79469502, -0.08316718, 0.01454383, 0.04929580, -0.42187089, 0.10437521, 100.06400299, 105.50096893, 34.25000000, 0.00000000
1, 2.6950, 289, -0.04939986, -0.55176711, 0.24487488, 29.39154053, 53.06199265, 63.41220856, -36.18824768, 0.52616191, -107.36626434, 106.32924652, -7.44913244, -6.46907139, -0.60023242, 0.79520100, -0.08394639, 0.01815341, -0.07925971, -0.40056318, 0.03236828, 100.06400299, 105.50096893, 34.25000000, 0.00000000
1, 2.7000, 290, -0.00270670, -0.63631189, 0.27955514, 35.93511581, 38.01103210, 61.53302002, -36.65594864, 0.00000000, -107.51242065, 106.49685669, -7.79736185, -6.37211990, -0.59906727, 0.79588640, -0.08504866, 0.02121545, -0.13217804, -0.31452683, 0.00005536, 100.06400299, 105.50096893, 34.25000000, 0.00000000
1, 2.7050, 291, -0.01893922, -0.74941015, 0.26947200, 40.65338516, 24.45277023, 62.13125229, -36.65594864, 0.00000000, -107.51242065, 106.69684601, -8.12945271, -6.34270668, -0.59768021, 0.79669571, -0.08652117, 0.02383978, -0.12172200, -0.19969477, 0.01287376, 100.06400299, 105.50096893, 34.25000000, 0.00000000
1, 2.7100, 292, -0.06187816, -0.87811005, 0.26925188, 43.05223465, 11.62887573, 63.23219299, -37.32826614, 0.05846244, -107.24934387, 106.91801453, -8.44844723, -6.37815571, -0.59615332, 0.79756773, -0.08836336, 0.02605623, -0.08435405, -0.06914511, 0.01613262, 100.06400299, 105.50096893, 34.25000000, 0.00000000
1, 2.7600, 293, -0.51904750, -1.07842946, 0.40644801, 22.94305801, -28.68091393, 49.03228378, -39.87138367, 0.20461853, -105.52469635, 108.85222626, -10.87650394, -8.98615646, -0.58339304, 0.80289727, -0.11839612, 0.03147959, 0.33012569, 0.14805652, -0.09274134, 100.06400299, 105.50096893, 34.25000000, 0.00000000
1, 2.7650, 294, -0.54124206, -1.07464671, 0.41109133, 20.17621994, -18.62641335, 44.15448380, -39.87138367, 0.20461853, -105.52469635, 108.98452759, -11.05517960, -9.14842606, -0.58252436, 0.80320913, -0.12038644, 0.03205778, 0.34922075, 0.14559740, -0.09538279, 100.06400299, 105.50096893, 34.25000000, 0.00000000
1, 2.7700, 295, -0.53050244, -1.04979622, 0.41361338, 17.18858147, -7.79072618, 40.03422165, -39.87138367, 0.20461853, -105.52469635, 109.09100342, -11.23166466, -9.25213814, -0.58182091, 0.80344766, -0.12196040, 0.03289460, 0.33544779, 0.12193380, -0.09620320, 100.06400299, 105.50096893, 34.25000000, 0.00000000
1, 2.7750, 296, -0.47524837, -1.01802099, 0.39857015, 14.74904919, 2.05171013, 36.86475754, -40.33908081, 1.02309263, -104.58930206, 109.17529297, -11.40907860, -9.30351448, -0.58125818, 0.80362415, -0.12317629, 0.03398239, 0.27720052, 0.09125558, -0.07972138, 100.06400299, 105.50096893, 34.25000000, 0.00000000
1, 2.7800, 297, -0.39013445, -0.99430895, 0.37093729, 13.02322483, 9.11106396, 35.26732635, -40.33908081, 1.02309263, -104.58930206, 109.24382019, -11.59046078, -9.31846142, -0.58079475, 0.80375266, -0.12415913, 0.03526761, 0.18907191, 0.06858444, -0.05087880, 100.06400299, 105.50096893, 34.25000000, 0.00000000
1, 2.7850, 298, -0.29367927, -0.97778642, 0.33413422, 11.63205338, 12.24850655, 34.65877533, -39.95907593, -0.35077462, -105.72931671, 109.30220795, -11.77411842, -9.31748772, -0.58039635, 0.80384201, -0.12504289, 0.03663963, 0.08957631, 0.05307274, -0.01304440, 100.06400299, 105.50096893, 34.25000000, 0.00000000
1, 2.7900, 299, -0.18720601, -0.96794927, 0.32371184, 10.56485462, 12.24150753, 34.56703949, -39.95907593, -0.35077462, -105.72931671, 109.35350037, -11.94855022, -9.31614590, -0.58004570, 0.80390418, -0.12587915, 0.03794101, -0.01993081, 0.04415729, -0.00169585, 100.06400299, 105.50096893, 34.25000000, 0.00000000
1, 2.7950, 300, -0.06998663, -0.96009183, 0.32913029, 9.92946625, 8.95595360, 34.81228638, -39.95907593, -0.35077462, -105.72931671, 109.40681458, -12.12751579, -9.33167553, -0.57968569, 0.80395073, -0.12685406, 0.03919214, -0.14016685, 0.03718808, -0.00618250, 100.06400299, 105.50096893, 34.25000000, 0.00000000
1, 2.8000, 301, -0.03898340, -0.96637583, 0.31881973, 9.28395271, 3.54757857, 34.97200394, -40.39754486, -0.52616191, -105.23238373, 109.46258545, -12.29827118, -9.37375546, -0.57931626, 0.80398721, -0.12797239, 0.04025431, -0.17411411, 0.04440413, 0.00486453, 100.06400299, 105.50096893, 34.25000000, 0.00000000
1, 2.8050, 302, -0.00906439, -0.97657847, 0.31165475, 7.96580744, -5.10184956, 34.95788193, -40.39754486, -0.52616191, -105.23238373, 109.52087402, -12.45456791, -9.45778465, -0.57894343, 0.80400354, -0.12931147, 0.04100561, -0.20672551, 0.05550710, 0.01282203, 100.06400299, 105.50096893, 34.25000000, 0.00000000
1, 2.8400, 303, -0.33129811, -1.00376892, 0.27002102, 2.53248024, -36.18582153, 30.64072418, -41.50833130, 1.63694823, -104.76468658, 109.98252869, -13.21903706, -10.84667301, -0.57624787, 0.80373734, -0.14263703, 0.03999173, 0.10239032, 0.08827081, 0.06005586, 100.06400299, 105.50096893, 34.25000000, 0.00000000
1, 2.8450, 304, -0.37214828, -0.98738217, 0.27066246, 1.80446064, -35.14600372, 29.13247681, -41.50833130, 1.63694823, -104.76468658, 110.04254150, -13.29609394, -11.06739044, -0.57591152, 0.80366266, -0.14453948, 0.03950628, 0.14181042, 0.07252431, 0.06011975, 100.06400299, 105.50096893, 34.25000000, 0.00000000
1, 2.8500, 305, -0.38465610, -0.97237563, 0.28521550, 0.70709908, -32.99296188, 27.55031204, -41.82987213, 1.57848585, -104.53083801, 110.09430695, -13.36919689, -11.27508259, -0.57562798, 0.80356342, -0.14633375, 0.03904934, 0.15302220, 0.05808870, 0.04631981, 100.06400299, 105.50096893, 34.25000000, 0.00000000
1, 2.8550, 306, -0.37499562, -0.95977950, 0.29369453, -0.65847111, -29.42976761, 25.16392136, -41.82987213, 1.57848585, -104.53083801, 110.13452148, -13.43704700, -11.46149063, -0.57541758, 0.80343634, -0.14795674, 0.03864837, 0.14217162, 0.04598765, 0.03846692, 100.06400299, 105.50096893, 34.25000000, 0.00000000
1, 2.8600, 307, -0.36215329, -0.95669091, 0.29474601, -1.17608428, -25.43709755, 22.60170937, -42.53142166, 1.46156096, -104.47237396, 110.16683197, -13.49959755, -11.62419891, -0.57525390, 0.80330390, -0.14939007, 0.03831926, 0.12823841, 0.04334466, 0.03791593, 100.06400299, 105.50096893, 34.25000000, 0.00000000
1, 2.8650, 308, -0.34203914, -0.96169555, 0.28455746, -1.29706073, -21.83050919, 20.30566978, -42.53142166, 1.46156096, -104.47237396, 110.19363403, -13.55748749, -11.76551056, -0.57512116, 0.80317569, -0.15065230, 0.03805776, 0.10714629, 0.04875705, 0.04851170, 100.06400299, 105.50096893, 34.25000000, 0.00000000
1, 2.8700, 309, -0.32058159, -0.97047138, 0.27750936, -1.64572167, -19.87467003, 18.49896049, -42.53142166, 1.46156096, -104.47237396, 110.21587372, -13.61019039, -11.89423752, -0.57501560, 0.80304605, -0.15180242, 0.03781688, 0.08478948, 0.05788875, 0.05589401, 100.06400299, 105.50096893, 34.25000000, 0.00000000
1, 2.8750, 310, -0.31679967, -0.97218549, 0.28700009, -2.62383342, -18.76494598, 16.89040947, -42.79450226, 1.22771120, -104.56006622, 110.23139191, -13.65722179, -12.01479912, -0.57495362, 0.80289972, -0.15286981, 0.03756795, 0.08016333, 0.05987514, 0.04661533, 100.06400299, 105.50096893, 34.25000000, 0.00000000
1, 2.8800, 311, -0.31730703, -0.96706605, 0.30587372, -3.18838191, -16.57067680, 15.23233891, -42.79450226, 1.22771120, -104.56006622, 110.24095154, -13.70023632, -12.12187099, -0.57492834, 0.80274552, -0.15382493, 0.03735025, 0.07987881, 0.05495918, 0.02786161, 100.06400299, 105.50096893, 34.25000000, 0.00000000
1, 2.8850, 312, -0.31550080, -0.96330428, 0.31183463, -3.51613474, -13.39621162, 13.45441055, -42.50219345, -1.69541073, -104.94007111, 110.24456024, -13.74036217, -12.21046829, -0.57493830, 0.80258918, -0.15463836, 0.03719673, 0.07736647, 0.05137588, 0.02193430, 100.06400299, 105.50096893, 34.25000000, 0.00000000
1, 2.9100, 313, -0.26992318, -0.96541822, 0.25715315, -2.73832893, -2.68242621, 7.03996181, -42.67757797, 0.46769950, -104.53083801, 110.20433807, -13.93430233, -12.42487240, -0.57532167, 0.80182636, -0.15708993, 0.03744866, 0.02859079, 0.05412801, 0.07584023, 100.06400299, 105.50096893, 34.25000000, 0.00000000
1, 2.9150, 314, -0.22158545, -0.97534096, 0.26378310, -3.15235400, -1.11928988, 5.61029863, -42.67757797, 0.46769950, -104.53083801, 110.19235229, -13.95874977, -12.44022942, -0.57541460, 0.80171090, -0.15731946, 0.03752938, -0.02019845, 0.06407857, 0.06910659, 100.06400299, 105.50096893, 34.25000000, 0.00000000
1, 2.9200, 315, -0.19060038, -0.98019147, 0.26431382, -3.37767458, -0.36518231, 4.57957602, -42.67757797, 0.46769950, -104.53083801, 110.17790985, -13.97967529, -12.45012093, -0.57552236, 0.80159539, -0.15749452, 0.03760900, -0.05155488, 0.06893362, 0.06839271, 100.06400299, 105.50096893, 34.25000000, 0.00000000
1, 2.9250, 316, -0.17598554, -0.97592378, 0.27006027, -3.49096870, -0.06180531, 3.50163174, -43.02835464, 1.60771704, -104.15083313, 110.16208649, -13.99605274, -12.45662880, -0.57563788, 0.80148393, -0.15762439, 0.03767126, -0.06647906, 0.06463498, 0.06241813, 100.06400299, 105.50096893, 34.25000000, 0.00000000
1, 2.9300, 317, -0.17855096, -0.96539247, 0.27076325, -3.52560043, -0.38435397, 2.40776658, -43.02835464, 1.60771704, -104.15083313, 110.14596558, -14.00674248, -12.46275711, -0.57575446, 0.80137950, -0.15772425, 0.03769447, -0.06412472, 0.05405669, 0.06144970, 100.06400299, 105.50096893, 34.25000000, 0.00000000
1, 2.9350, 318, -0.20105949, -0.96867931, 0.27848715, -3.05638433, -1.15915406, 1.47196925, -42.96989059, 1.16924870, -104.38468170, 110.13267517, -14.01170635, -12.47098160, -0.57585084, 0.80129451, -0.15781012, 0.03767022, -0.04174159, 0.05727352, 0.05343138, 100.06400299, 105.50096893, 34.25000000, 0.00000000
1, 2.9400, 319, -0.23172745, -0.97497404, 0.28636062, -2.88203216, -1.03562868, 0.73659831, -42.96989059, 1.16924870, -104.38468170, 110.01566315, -13.99008942, -12.45167828, -0.57665896, 0.80076295, -0.15760893, 0.03745228, -0.01093407, 0.06314170, 0.04445527, 100.06400299, 105.50096893, 34.25000000, 0.00000000
1, 2.9450, 320, -0.25719413, -0.98556840, 0.29091227, -3.07021165, -0.23077036, 0.51281261, -42.96989059, 1.16924870, -104.38468170, 110.00082397, -13.99214745, -12.45371437, -0.57676369, 0.80068260, -0.15763800, 0.03743628, 0.01468742, 0.07330482, 0.03878347, 100.06400299, 105.50096893, 34.25000000, 0.00000000
1, 2.9500, 321, -0.26685438, -0.99939263, 0.29030588, -4.16253328, 1.85076082, 0.47117519, -42.73604202, -1.92926037, -104.35545349, 109.97803497, -13.99756336, -12.44559097, -0.57692105, 0.80057144, -0.15761490, 0.03748437, 0.02427395, 0.08702908, 0.03901107, 100.06400299, 105.50096893, 34.25000000, 0.00000000
1, 2.9550, 322, -0.25965059, -1.00071347, 0.28290570, -5.25987911, 4.34999847, 0.43955803, -42.73604202, -1.92926037, -104.35545349, 109.94683838, -14.00708389, -12.42530727, -0.57713395, 0.80042893, -0.15752959, 0.03761138, 0.01694589, 0.08822675, 0.04595062, 100.06400299, 105.50096893, 34.25000000, 0.00000000
1, 2.9900, 323, -0.15327828, -0.96964037, 0.29361859, -6.89194202, 18.50109100, -0.53435171, -43.02835464, 1.66617942, -104.73545837, 109.55307770, -14.11536217, -11.91770363, -0.57972425, 0.79898143, -0.15464769, 0.04040706, -0.09150214, 0.05545109, 0.02934511, 100.06400299, 105.50096893, 34.25000000, 0.00000000
1, 2.9950, 324, -0.14742139, -0.97899592, 0.27628359, -6.55221891, 19.98435783, 0.19772169, -42.44372940, 1.49079216, -105.46623993, 109.49668884, -14.14960957, -11.82089615, -0.58008683, 0.79877889, -0.15415993, 0.04106412, -0.09757017, 0.06452399, 0.04561188, 100.06400299, 105.50096893, 34.25000000, 0.00000000
1, 3.0000, 325, -0.13562366, -0.98667133, 0.25009334, -6.18572092, 22.29334641, 1.36976182, -42.44372940, 1.49079216, -105.46623993, 109.43979645, -14.19312477, -11.71481323, -0.58044964, 0.79857290, -0.15365365, 0.04183373, -0.10999784, 0.07208659, 0.07085297, 100.06400299, 105.50096893, 34.25000000, 0.00000000
1, 3.0050, 326, -0.12378833, -0.99080324, 0.22810386, -5.57960033, 25.37117577, 2.52202511, -42.44372940, 1.49079216, -105.46623993, 109.38265228, -14.24705696, -11.59564018, -0.58080912, 0.79836828, -0.15310799, 0.04274373, -0.12264907, 0.07614145, 0.09188074, 100.06400299, 105.50096893, 34.25000000, 0.00000000
1, 3.0100, 327, -0.10994283, -0.99683785, 0.23474227, -5.30495834, 29.32388115, 3.38389158, -42.94065857, 2.04618526, -105.26161957, 109.32235718, -14.31145000, -11.45858288, -0.58118284, 0.79815614, -0.15249100, 0.04381489, -0.13755402, 0.08208312, 0.08423431, 100.06400299, 105.50096893, 34.25000000, 0.00000000
1, 3.0150, 328, -0.07464684, -1.00234771, 0.24411465, -5.66175842, 32.54074097, 4.20120430, -42.94065857, 2.04618526, -105.26161957, 109.25655365, -14.38485622, -11.30713558, -0.58158773, 0.79792213, -0.15182130, 0.04501632, -0.17408022, 0.08750850, 0.07381113, 100.06400299, 105.50096893, 34.25000000, 0.00000000
1, 3.0200, 329, -0.03403489, -1.00356317, 0.23697089, -5.84960794, 33.65781784, 5.49210072, -42.88219833, 2.28003502, -105.72931671, 109.18879700, -14.46601772, -11.15227318, -0.58200258, 0.79767078, -0.15116800, 0.04628810, -0.21601272, 0.08868337, 0.07986076, 100.06400299, 105.50096893, 34.25000000, 0.00000000
1, 3.0250, 330, -0.01659998, -1.00489008, 0.23421429, -5.99436140, 34.08571243, 6.48560333, -42.88219833, 2.28003502, -105.72931671, 109.11996460, -14.55238914, -10.99684525, -0.58242190, 0.79740667, -0.15053831, 0.04759897, -0.23487264, 0.08998606, 0.08144850, 100.06400299, 105.50096893, 34.25000000, 0.00000000
1, 3.0300, 331, 0.01078259, -0.99719024, 0.23937914, -5.92248964, 34.33229065, 7.85760117, -42.88219833, 2.28003502, -105.72931671, 109.05150604, -14.64547443, -10.84234428, -0.58283597, 0.79713309, -0.14994952, 0.04895379, -0.26382154, 0.08227748, 0.07512958, 100.06400299, 105.50096893, 34.25000000, 0.00000000
1, 3.0350, 332, 0.02054575, -0.98775351, 0.24785604, -5.43796730, 32.80625916, 9.21714592, -42.67757797, 2.13387895, -105.40777588, 108.98766327, -14.74233532, -10.69741440, -0.58321881, 0.79686427, -0.14944544, 0.05029322, -0.27522555, 0.07286912, 0.06551479, 100.06400299, 105.50096893, 34.25000000, 0.00000000
1, 3.0800, 333, -0.24821366, -1.06519520, 0.28505361, -3.61003804, 25.40707207, 20.72494316, -42.50219345, 1.72464192, -106.31394196, 108.56346893, -15.75528431, -9.81592846, -0.58569109, 0.79444104, -0.14852780, 0.06139308, -0.02342535, 0.15227085, 0.01921735, 100.06400299, 105.50096893, 34.25000000, 0.00000000
1, 3.0850, 334, -0.27168480, -1.08657587, 0.28422165, -4.12971210, 30.29765129, 21.40896225, -42.82373428, 0.87693655, -106.13855743, 108.51194000, -15.90480804, -9.70177269, -0.58597100, 0.79411602, -0.14850411, 0.06296416, -0.00243186, 0.17405285, 0.01894341, 100.06400299, 105.50096893, 34.25000000, 0.00000000
1, 3.0900, 335, -0.30441979, -1.09315109, 0.28043312, -4.59247732, 33.22446823, 21.20419884, -42.82373428, 0.87693655, -106.13855743, 108.44499207, -16.05664063, -9.57017708, -0.58634371, 0.79373068, -0.14838117, 0.06462058, 0.02776309, 0.18099904, 0.02143428, 100.06400299, 105.50096893, 34.25000000, 0.00000000
1, 3.0950, 336, -0.32534224, -1.08711767, 0.26835084, -4.92660809, 37.11074066, 20.24951935, -42.79450226, 1.49079216, -106.22624969, 108.37885284, -16.21113777, -9.41994953, -0.58669519, 0.79336894, -0.14814402, 0.06639213, 0.04614100, 0.17532733, 0.03215072, 100.06400299, 105.50096893, 34.25000000, 0.00000000
1, 3.1000, 337, -0.32476231, -1.07663536, 0.27730396, -4.94988298, 41.79711914, 19.45016098, -42.79450226, 1.49079216, -106.22624969, 108.30525208, -16.36898804, -9.24491501, -0.58707786, 0.79299539, -0.14775842, 0.06830476, 0.04291163, 0.16517955, 0.02183710, 100.06400299, 105.50096893, 34.25000000, 0.00000000
1, 3.1050, 338, -0.31734434, -1.05843067, 0.28906029, -5.12503910, 47.31431961, 18.81274414, -42.79450226, 1.49079216, -106.22624969, 108.22214508, -16.53219414, -9.04115295, -0.58750153, 0.79260123, -0.14720911, 0.07039026, 0.03275632, 0.14728832, 0.00859384, 100.06400299, 105.50096893, 34.25000000, 0.00000000
1, 3.1100, 339, -0.30530232, -1.04773843, 0.28461561, -4.80870104, 53.39038849, 18.28755379, -42.41449738, 0.76001167, -106.60625458, 108.13107300, -16.70202637, -8.80595875, -0.58795166, 0.79219562, -0.14648366, 0.07267376, 0.01791228, 0.13693368, 0.01140926, 100.06400299, 105.50096893, 34.25000000, 0.00000000
1, 3.1150, 340, -0.28637034, -1.03967023, 0.27863833, -4.62739134, 58.84113312, 17.64401817, -42.41449738, 0.76001167, -106.60625458, 108.03192139, -16.87685013, -8.54214954, -0.58842874, 0.79177618, -0.14559440, 0.07512957, -0.00390782, 0.12919983, 0.01562888, 100.06400299, 105.50096893, 34.25000000, 0.00000000
1, 3.1200, 341, -0.27517095, -1.03258431, 0.29921317, -4.25769377, 63.45387268, 17.15337181, -42.47296143, 2.45542240, -106.86933899, 107.92677307, -17.05596542, -8.25403118, -0.58891934, 0.79134822, -0.14456716, 0.07773368, -0.01813235, 0.12240717, -0.00682803, 100.06400299, 105.50096893, 34.25000000, 0.00000000
1, 3.1250, 342, -0.24860813, -1.02540064, 0.29787070, -5.08006668, 66.66098785, 16.74955368, -42.47296143, 2.45542240, -106.86933899, 107.81153870, -17.23752975, -7.94865227, -0.58945483, 0.79088384, -0.14344496, 0.08043214, -0.04771235, 0.11553173, -0.00748417, 100.06400299, 105.50096893, 34.25000000, 0.00000000
1, 3.1700, 343, -0.07215688, -1.07316971, 0.26038113, -3.07310319, 73.92199707, 28.49934387, -42.70681000, -0.49693072, -108.09704590, 106.64990234, -19.14873123, -4.91320133, -0.59413314, 0.78587884, -0.13315067, 0.10803379, -0.25550622, 0.16748846, 0.00893680, 100.06400299, 105.50096893, 34.25000000, 0.00000000
1, 3.1750, 344, -0.05558345, -1.08884192, 0.20078860, -2.71923518, 74.50585175, 30.43662643, -42.70681000, -0.49693072, -108.09704590, 106.52690125, -19.40045738, -4.58057690, -0.59451020, 0.78527784, -0.13226926, 0.11136037, -0.27604461, 0.18405235, 0.06619313, 100.06400299, 105.50096893, 34.25000000, 0.00000000
1, 3.1800, 345, -0.03268050, -1.09722412, 0.17108521, -3.35044622, 74.24041748, 32.57651901, -42.70681000, -0.49693072, -108.09704590, 106.40048218, -19.66139793, -4.25139427, -0.59488970, 0.78463972, -0.13146943, 0.11472854, -0.30312777, 0.19333932, 0.09353434, 100.06400299, 105.50096893, 34.25000000, 0.00000000
1, 3.1850, 346, -0.01078149, -1.08236492, 0.17932573, -4.38656425, 75.02494049, 34.36101913, -42.53142166, 2.48465347, -107.74626923, 106.26665497, -19.93129921, -3.91969490, -0.59529227, 0.78395075, -0.13071375, 0.11816262, -0.32944798, 0.17937198, 0.08285463, 100.06400299, 105.50096893, 34.25000000, 0.00000000
1, 3.1900, 347, 0.01442631, -1.05555427, 0.14569493, -5.64963865, 73.99551392, 36.17527390, -42.53142166, 2.48465347, -107.74626923, 106.11481476, -20.17851257, -3.58973789, -0.59581584, 0.78319478, -0.12988138, 0.12141004, -0.35884678, 0.15344611, 0.11387736, 100.06400299, 105.50096893, 34.25000000, 0.00000000
1, 3.1950, 348, 0.02282382, -1.03782773, 0.12560755, -5.52791882, 70.57192993, 39.56228638, -42.70681000, -0.43846828, -107.80473328, 105.98213959, -20.46577263, -3.28594947, -0.59618902, 0.78245080, -0.12942147, 0.12481830, -0.37159771, 0.13667640, 0.13135135, 100.06400299, 105.50096893, 34.25000000, 0.00000000
1, 3.2000, 349, 0.04700065, -1.04400980, 0.13281643, -5.56481409, 71.33780670, 42.49034119, -42.70681000, -0.43846828, -107.80473328, 105.84755707, -20.76748466, -2.98120236, -0.59654373, 0.78167552, -0.12903994, 0.12832718, -0.40066662, 0.14400122, 0.12158474, 100.06400299, 105.50096893, 34.25000000, 0.00000000
1, 3.2050, 350, 0.07676905, -1.05913377, 0.13041416, -6.25101852, 69.96763611, 45.65616989, -42.70681000, -0.43846828, -107.80473328, 105.71168518, -21.08191299, -2.68670487, -0.59688842, 0.78086179, -0.12880404, 0.13186646, -0.43550634, 0.16038576, 0.12137835, 100.06400299, 105.50096893, 34.25000000, 0.00000000
1, 3.2700, 351, 0.13899313, -1.29416752, 0.02410855, -9.52865791, 31.86825371, 83.62759399, -44.34375763, 3.56620860, -110.08477020, 104.31143951, -26.10749435, -0.53084719, -0.59848356, 0.76862437, -0.14213432, 0.17559063, -0.57736397, 0.42326415, 0.19656357, 100.06400299, 105.50096893, 34.25000000, 0.00000000
1, 3.2750, 352, 0.15061721, -1.25789857, 0.05929227, -8.82415771, 29.94537926, 85.64086914, -44.34375763, 3.56620860, -110.08477020, 104.24849701, -26.55944061, -0.48599496, -0.59829819, 0.76763195, -0.14428473, 0.17878053, -0.59612077, 0.39004701, 0.15961844, 100.06400299, 105.50096893, 34.25000000, 0.00000000
1, 3.2800, 353, 0.15829898, -1.24581349, 0.09249143, -7.15244246, 27.59751129, 88.29769897, -45.01607513, 4.41391420, -110.02630615, 104.20071411, -27.02133369, -0.45685336, -0.59801143, 0.76667261, -0.14656982, 0.18196896, -0.61104703, 0.38119680, 0.12479039, 100.06400299, 105.50096893, 34.25000000, 0.00000000
1, 3.2850, 354, 0.14496715, -1.25828195, 0.11166652, -5.83875895, 25.51743507, 91.28095245, -45.01607513, 4.41391420, -110.02630615, 104.16616821, -27.49514008, -0.44265673, -0.59763360, 0.76573241, -0.14899606, 0.18517123, -0.60507518, 0.39712447, 0.10407577, 100.06400299, 105.50096893, 34.25000000, 0.00000000
1, 3.2900, 355, 0.12385411, -1.29371619, 0.12956205, -4.40668869, 25.48567200, 94.59191132, -45.01607513, 4.41391420, -110.02630615, 104.13191986, -27.95563316, -0.42779607, -0.59725797, 0.76480466, -0.15134773, 0.18828359, -0.59128708, 0.43610078, 0.08466183, 100.06400299, 105.50096893, 34.25000000, 0.00000000
1, 3.2950, 356, 0.10120550, -1.36221993, 0.14206956, -2.38784838, 26.89146042, 97.71936798, -45.27915955, 2.54311609, -110.17246246, 104.11475372, -28.46227455, -0.41417950, -0.59669989, 0.76387388, -0.15391853, 0.19171588, -0.57618362, 0.50838441, 0.07065180, 100.06400299, 105.50096893, 34.25000000, 0.00000000
1, 3.3000, 357, 0.06941820, -1.48904216, 0.17392382, -0.67246020, 29.79900551, 100.57100677, -45.27915955, 2.54311609, -110.17246246, 104.10012817, -28.98625374, -0.38818714, -0.59606814, 0.76292908, -0.15649080, 0.19532695, -0.55242974, 0.63930476, 0.03723828, 100.06400299, 105.50096893, 34.25000000, 0.00000000
1, 3.3050, 358, 0.06438251, -1.53003907, 0.17543693, -0.33170831, 34.35888672, 102.28775024, -46.15609360, 5.84624386, -110.43554688, 104.07563019, -29.52405357, -0.33887935, -0.59542876, 0.76192629, -0.15899497, 0.19913244, -0.55554020, 0.68462467, 0.03424549, 100.06400299, 105.50096893, 34.25000000, 0.00000000
1, 3.3100, 359, 0.10272393, -1.55961192, 0.15145908, -1.09155571, 41.50680542, 103.16884613, -46.15609360, 5.84624386, -110.43554688, 104.02735138, -30.07473373, -0.25016522, -0.59484291, 0.76081806, -0.16134526, 0.20318843, -0.60214591, 0.71867514, 0.05647881, 100.06400299, 105.50096893, 34.25000000, 0.00000000
1, 3.3150, 360, 0.17516269, -1.54340672, 0.10980848, -2.38722539, 45.86746216, 103.88516235, -46.15609360, 5.84624386, -110.43554688, 103.95938873, -30.63406754, -0.13678426, -0.59431010, 0.75961435, -0.16361362, 0.20739371, -0.68288124, 0.70705485, 0.09622918, 100.06400299, 105.50096893, 34.25000000, 0.00000000
1, 3.3550, 361, 0.63691044, -1.41111708, 0.24539761, 0.26130441, 59.51270294, 118.37282562, -48.20227814, 6.75241137, -111.02017212, 103.20983124, -35.44551468, 1.15884113, -0.58916181, 0.74842423, -0.18150479, 0.24455179, -1.21515274, 0.61610389, -0.05921929, 100.06400299, 105.50096893, 34.25000000, 0.00000000
1, 3.3600, 362, 0.71098024, -1.40954065, 0.27488947, 0.28892282, 60.42617035, 119.51591492, -48.20227814, 6.75241137, -111.02017212, 103.09799194, -36.09590530, 1.35515118, -0.58833855, 0.74683386, -0.18383671, 0.24960174, -1.29849100, 0.62053692, -0.09153976, 100.06400299, 105.50096893, 34.25000000, 0.00000000
1, 3.3650, 363, 0.88947481, -1.39518905, 0.28242135, 0.81023735, 61.78657532, 121.08399200, -48.20227814, 6.75241137, -111.02017212, 102.98145294, -36.75513840, 1.56078291, -0.58747160, 0.74520379, -0.18617243, 0.25473183, -1.48626304, 0.61241770, -0.10174041, 100.06400299, 105.50096893, 34.25000000, 0.00000000
1, 3.3700, 364, 0.91384530, -1.32860386, 0.18361057, 3.09303069, 55.77236938, 122.87451172, -49.07921600, 7.27857351, -111.42940521, 102.89620209, -37.41607666, 1.73041403, -0.58644080, 0.74365878, -0.18868852, 0.25972220, -1.51960588, 0.55244434, -0.00561595, 100.06400299, 105.50096893, 34.25000000, 0.00000000
1, 3.3750, 365, 0.73164380, -1.20825827, 0.10549837, 9.00012684, 47.35999680, 125.75349426, -49.07921600, 7.27857351, -111.42940521, 102.87171936, -38.08154678, 1.84649599, -0.58509606, 0.74231076, -0.19143946, 0.26455319, -1.34639525, 0.43899170, 0.07011165, 100.06400299, 105.50096893, 34.25000000, 0.00000000
1, 3.3800, 366, 0.49005970, -1.15679264, 0.07372151, 19.30712891, 42.49645615, 127.46929169, -49.75153351, 5.99239969, -111.60478973, 102.91743469, -38.74989319, 1.93083131, -0.58333695, 0.74124199, -0.19424392, 0.26934707, -1.11388922, 0.39470142, 0.10014233, 100.06400299, 105.50096893, 34.25000000, 0.00000000
1, 3.3850, 367, 0.28193820, -1.20070159, 0.06400114, 28.49911880, 38.54146576, 128.66009521, -49.75153351, 5.99239969, -111.60478973, 103.02532959, -39.41959763, 1.98829353, -0.58121234, 0.74041748, -0.19707192, 0.27411124, -0.91483080, 0.44605798, 0.10885458, 100.06400299, 105.50096893, 34.25000000, 0.00000000
1, 3.3900, 368, 0.09383007, -1.30391300, 0.17750937, 33.77251053, 35.45477295, 131.46379089, -49.75153351, 5.99239969, -111.60478973, 103.17215729, -40.07526398, 2.02344370, -0.57889616, 0.73975712, -0.19986294, 0.27873570, -0.73594183, 0.55670726, -0.00511784, 100.06400299, 105.50096893, 34.25000000, 0.00000000
1, 3.3950, 369, -0.10152292, -1.44827390, 0.40582660, 31.88479042, 36.40552521, 134.73529053, -50.65770340, 8.03858471, -112.42326355, 103.31273651, -40.77229691, 2.05507517, -0.57652730, 0.73893732, -0.20288664, 0.28359306, -0.55022645, 0.70860887, -0.23404457, 100.06400299, 105.50096893, 34.25000000, 0.00000000
1, 3.4000, 370, -0.21161602, -1.56186676, 0.52039063, 23.84732628, 33.66063690, 135.92889404, -50.65770340, 8.03858471, -112.42326355, 103.42691040, -41.47213364, 2.06538033, -0.57435554, 0.73791015, -0.20611016, 0.28831050, -0.44964939, 0.83017212, -0.34937650, 100.06400299, 105.50096893, 34.25000000, 0.00000000
1, 3.4300, 371, -0.44877848, -1.46806324, 0.12556794, 0.66152775, 40.18140411, 140.41044617, -53.31774139, 9.73399544, -112.04325867, 103.68297577, -45.84106064, 1.88963187, -0.56393164, 0.72809166, -0.22864524, 0.31557101, -0.26673687, 0.78879350, 0.03631843, 100.06400299, 105.50096893, 34.25000000, 0.00000000
1, 3.4350, 372, -0.38701898, -1.42930436, 0.22411542, 0.25903705, 34.06661606, 135.22232056, -53.31774139, 9.73399544, -112.04325867, 103.67898560, -46.53824234, 1.89934206, -0.56238300, 0.72627246, -0.23208307, 0.31998625, -0.33732027, 0.75847238, -0.06426156, 100.06400299, 105.50096893, 34.25000000, 0.00000000
1, 3.4400, 373, -0.36649773, -1.39012372, 0.35670358, -3.02363348, 15.61530972, 127.77881622, -53.31774139, 9.73399544, -112.04325867, 103.74678802, -47.15734482, 1.78963256, -0.56087267, 0.72474128, -0.23567596, 0.32346392, -0.36588067, 0.72715008, -0.19813082, 100.06400299, 105.50096893, 34.25000000, 0.00000000
1, 3.4450, 374, -0.37197632, -1.33572793, 0.42820367, -6.15886974, -5.64582729, 122.82527924, -54.22391129, 11.51710033, -112.21865082, 103.90631104, -47.74729156, 1.53344393, -0.55925947, 0.72340137, -0.23977315, 0.32623339, -0.36757237, 0.68038714, -0.26977894, 100.06400299, 105.50096893, 34.25000000, 0.00000000
1, 3.4500, 375, -0.37970904, -1.28281820, 0.46299103, -9.39205360, -18.00635719, 121.45015717, -54.22391129, 11.51710033, -112.21865082, 104.12052917, -48.31516266, 1.18426263, -0.55762219, 0.72215164, -0.24416868, 0.32853642, -0.36661893, 0.63517916, -0.30397922, 100.06400299, 105.50096893, 34.25000000, 0.00000000
1, 3.4550, 376, -0.43501183, -1.22298729, 0.44819972, -13.33057022, -24.75440788, 121.09407806, -55.21777344, 12.21864891, -112.01403046, 104.35936737, -48.87217712, 0.77899283, -0.55602586, 0.72088528, -0.24876730, 0.33056712, -0.31775841, 0.58312529, -0.28838968, 100.06400299, 105.50096893, 34.25000000, 0.00000000
1, 3.4600, 377, -0.54002863, -1.16633320, 0.34639940, -16.46833801, -27.07747459, 120.97349548, -55.21777344, 12.21864891, -112.01403046, 104.60405731, -49.42462540, 0.34863228, -0.55448830, 0.71955597, -0.25345680, 0.33247817, -0.21881562, 0.53438729, -0.18585771, 100.06400299, 105.50096893, 34.25000000, 0.00000000
1, 3.4650, 378, -0.64924604, -1.08584297, 0.18099773, -16.61114502, -24.14697647, 120.72969818, -55.21777344, 12.21864891, -112.01403046, 104.84007263, -49.97842407, -0.06776012, -0.55297482, 0.71816206, -0.25806203, 0.33446386, -0.11545634, 0.46196640, -0.01985642, 100.06400299, 105.50096893, 34.25000000, 0.00000000
1, 3.4700, 379, -0.71744031, -1.02132428, 0.08913334, -13.93782520, -22.53521538, 116.91338348, -56.03624725, 9.93861389, -112.42326355, 105.08312988, -50.51467514, -0.47268197, -0.55143619, 0.71683180, -0.26246262, 0.33642808, -0.05308364, 0.40528589, 0.07268667, 100.06400299, 105.50096893, 34.25000000, 0.00000000
