SensorId, TimeStamp (s), FrameNumber, AccX (g), AccY (g), AccZ (g), GyroX (deg/s), GyroY (deg/s), GyroZ (deg/s), MagX (uT), MagY (uT), MagZ (uT), EulerX (deg), EulerY (deg), EulerZ (deg), QuatW, QuatX, QuatY, QuatZ, LinAccX (g), LinAccY (g), LinAccZ (g), Pressure (kPa), Altitude (m), Temperature (degC), HeaveMotion (m)
1, 0.0001, 0, -0.13220215, -1.00738525, 0.20086670, -1.61218834, 1.77734470, 2.01304841, -34.49283981, -4.15083313, -105.55393219, 103.24546814, -13.83977318, 57.33543396, 0.49545428, -0.71871465, -0.30770901, -0.37853616, -0.10695484, 0.06224446, 0.02164792, 100.37400818, 79.46511078, 30.03999901, 0.00000000
1, -0.0002, 0, -0.06950892, -0.98087525, 0.10808701, -2.13076687, 0.27245590, 1.40886950, -25.84039688, 1.31540489, -113.00788879, 96.62899017, -4.93964767, 15.25745964, -0.65427089, 0.74331331, 0.07064382, 0.12010193, -0.01683907, -0.00892611, 0.00518825, 100.63200378, 57.84687805, 29.81999969, 0.00000000
1, 0.0048, 1, -0.07607322, -0.98833966, 0.12199321, -2.11652923, -0.87957186, 1.52143788, -25.84039688, 1.31540489, -113.00788879, 96.61886597, -4.94672585, 15.25220680, -0.65433419, 0.74326223, 0.07055819, 0.12012361, -0.01043304, -0.00149424, -0.00892323, 100.63200378, 57.84687805, 29.81999969, 0.00000000
1, 0.0098, 2, -0.08448018, -0.98824537, 0.10720073, -2.61095309, -1.16331041, 1.55602086, -25.60654831, 0.78924292, -113.18328094, 96.60641479, -4.95382690, 15.24551201, -0.65441406, 0.74319869, 0.07046064, 0.12013863, -0.00211201, -0.00157723, 0.00564489, 100.63200378, 57.84687805, 29.81999969, 0.00000000
1, 0.0148, 3, -0.09093737, -0.97462928, 0.08228198, -2.51965094, 0.15620507, 1.76157081, -25.60654831, 0.78924292, -113.18328094, 96.59386444, -4.96270132, 15.24528790, -0.65448576, 0.74313152, 0.07039469, 0.12020202, 0.00426170, -0.01516548, 0.03034676, 100.63200378, 57.84687805, 29.81999969, 0.00000000
1, 0.0198, 4, -0.09357385, -0.97260094, 0.08269532, -2.10409594, 1.13048232, 1.95476437, -25.60654831, 0.78924292, -113.18328094, 96.56690979, -4.97767162, 15.25148964, -0.65463740, 0.74298108, 0.07031997, 0.12035008, 0.00668070, -0.01721430, 0.02959522, 100.63200378, 57.84687805, 29.81999969, 0.00000000
1, 0.0251, 1, -0.12402344, -1.00207520, 0.19470215, -1.96218836, 0.37734422, 2.04804826, -35.25284958, -3.80005836, -105.43700409, 103.19419098, -13.89591789, 57.35570145, 0.49549368, -0.71854287, -0.30737936, -0.37907821, -0.11609271, 0.05696604, 0.02691184, 100.37400818, 79.46511078, 30.03999901, 0.00000000
1, 0.0301, 2, -0.12622070, -1.00274658, 0.19110107, -1.92718828, -0.21765590, 1.97804844, -35.25284958, -3.80005836, -105.43700409, 103.18537903, -13.90529156, 57.35228348, 0.49552432, -0.71853125, -0.30728078, -0.37913999, -0.11405879, 0.05764151, 0.03035375, 100.37400818, 79.46511078, 30.03999901, 0.00000000
1, 0.0351, 3, -0.13146973, -1.00360107, 0.18975830, -2.03218842, -0.70765609, 2.18804836, -35.39900589, -3.88775206, -105.34931183, 103.17668152, -13.91513538, 57.34616470, 0.49556136, -0.71852833, -0.30716327, -0.37919235, -0.10897566, 0.05850293, 0.03154583, 100.37400818, 79.46511078, 30.03999901, 0.00000000
1, 0.0401, 4, -0.13732910, -0.99987793, 0.18719482, -2.20718837, -1.26765633, 2.15304828, -35.39900589, -3.88775206, -105.34931183, 103.16778564, -13.92417431, 57.33728027, 0.49561191, -0.71853048, -0.30703181, -0.37922874, -0.10327032, 0.05478238, 0.03395276, 100.37400818, 79.46511078, 30.03999901, 0.00000000
1, 0.0451, 5, -0.13891602, -0.99340820, 0.18353271, -2.13718820, -1.51265633, 2.22304821, -35.39900589, -3.88775206, -105.34931183, 103.15956879, -13.93327904, 57.32707977, 0.49566230, -0.71853906, -0.30689400, -0.37925798, -0.10183573, 0.04831666, 0.03746650, 100.37400818, 79.46511078, 30.03999901, 0.00000000
1, 0.0248, 5, -0.08178006, -0.97984397, 0.11027401, -1.60747302, 1.23934245, 1.95103717, -25.72347260, 0.64308679, -113.03712463, 96.55843353, -4.98807526, 15.25656319, -0.65467542, 0.74293464, 0.07028374, 0.12045100, -0.00540206, -0.01003169, 0.00173418, 100.63200378, 57.84687805, 29.81999969, 0.00000000
1, 0.0298, 6, -0.07821058, -0.98327470, 0.11043729, -1.63476515, 0.57515579, 2.04070973, -25.72347260, 0.64308679, -113.03712463, 96.55014801, -4.99855757, 15.25827599, -0.65471566, 0.74289137, 0.07022545, 0.12053312, -0.00915249, -0.00660147, 0.00143453, 100.63200378, 57.84687805, 29.81999969, 0.00000000
1, 0.0348, 7, -0.08110082, -0.98331022, 0.09343717, -2.09163690, 0.14999646, 2.17660046, -25.84039688, 0.87693655, -113.47559357, 96.53976440, -5.00948572, 15.25779533, -0.65477133, 0.74283767, 0.07014816, 0.12060687, -0.00640983, -0.00654147, 0.01825211, 100.63200378, 57.84687805, 29.81999969, 0.00000000
1, 0.0501, 6, -0.14019775, -0.99322510, 0.18481445, -1.99718857, -1.65265644, 2.15304852, -35.07746124, -3.80005836, -105.55393219, 103.15218353, -13.94188213, 57.31626892, 0.49571142, -0.71855199, -0.30675772, -0.37927949, -0.10070474, 0.04814184, 0.03605547, 100.37400818, 79.46511078, 30.03999901, 0.00000000
1, 0.0551, 7, -0.14117432, -0.99505615, 0.18420410, -2.17218828, -1.61765635, 2.29304838, -35.07746124, -3.80005836, -105.55393219, 103.14392090, -13.95121098, 57.30546951, 0.49576324, -0.71856248, -0.30661491, -0.37930751, -0.09988151, 0.04997842, 0.03652241, 100.37400818, 79.46511078, 30.03999901, 0.00000000
1, 0.0601, 8, -0.14263916, -0.99670410, 0.18621826, -1.99718833, -1.96765649, 2.29304838, -35.42823792, -3.88775206, -105.37854004, 103.13696289, -13.96013832, 57.29291153, 0.49581423, -0.71858251, -0.30646735, -0.37932214, -0.09856993, 0.05163512, 0.03437837, 100.37400818, 79.46511078, 30.03999901, 0.00000000
1, 0.0398, 8, -0.08662751, -0.98174000, 0.08656143, -1.84918678, 0.70748639, 2.25690627, -25.84039688, 0.87693655, -113.47559357, 96.53034210, -5.02111721, 15.26005363, -0.65481704, 0.74278814, 0.07008553, 0.12070014, -0.00106336, -0.00810268, 0.02494427, 100.63200378, 57.84687805, 29.81999969, 0.00000000
1, 0.0448, 9, -0.08987099, -0.98157847, 0.09337889, -1.52995944, 0.77995431, 2.25457001, -25.84039688, 0.87693655, -113.47559357, 96.52249146, -5.03276920, 15.26267052, -0.65485215, 0.74274737, 0.07002675, 0.12079462, 0.00196067, -0.00827352, 0.01797853, 100.63200378, 57.84687805, 29.81999969, 0.00000000
1, 0.0651, 9, -0.14514160, -0.99902344, 0.18444824, -2.17218828, -1.79265654, 2.39804840, -35.42823792, -3.88775206, -105.37854004, 103.12894440, -13.96978092, 57.28111267, 0.49586660, -0.71859723, -0.30631745, -0.37934688, -0.09622546, 0.05396314, 0.03601242, 100.37400818, 79.46511078, 30.03999901, 0.00000000
1, 0.0701, 10, -0.14581299, -1.00030518, 0.18646240, -2.10218835, -1.72265649, 2.43304849, -35.42823792, -3.88775206, -105.37854004, 103.12121582, -13.97967339, 57.26962662, 0.49591523, -0.71861279, -0.30616912, -0.37937361, -0.09572418, 0.05525579, 0.03385870, 100.37400818, 79.46511078, 30.03999901, 0.00000000
1, 0.0951, 11, -0.15527344, -1.00170898, 0.19622803, -2.10218835, -1.40765631, 2.60804844, -35.54516220, -3.82928967, -105.64162445, 103.07944489, -14.03419304, 57.21857071, 0.49613741, -0.71866900, -0.30543110, -0.37957141, -0.08717947, 0.05672196, 0.02335383, 100.37400818, 79.46511078, 30.03999901, 0.00000000
1, 0.1001, 12, -0.15454102, -0.99957275, 0.19238281, -2.34718847, -1.26765633, 2.60804844, -34.49283981, -3.91698337, -105.64162445, 103.06999207, -14.04545689, 57.20916367, 0.49618474, -0.71867394, -0.30528301, -0.37961939, -0.08810341, 0.05459771, 0.02703879, 100.37400818, 79.46511078, 30.03999901, 0.00000000
1, 0.0698, 10, -0.09041109, -0.98965883, 0.10773901, -2.29653430, -0.54891443, 2.19760203, -26.22040367, 0.87693655, -113.79713440, 96.47051239, -5.09230709, 15.25314426, -0.65513253, 0.74248505, 0.06956530, 0.12115362, 0.00144630, -0.00022263, 0.00275534, 100.63200378, 57.84687805, 29.81999969, 0.00000000
1, 0.0748, 11, -0.10274333, -0.97711110, 0.09399579, -2.58647990, -0.09893307, 2.21201849, -25.89885902, -2.68927217, -113.53404999, 96.45776367, -5.10327196, 15.25141430, -0.65520471, 0.74241847, 0.06947705, 0.12122177, 0.01360231, -0.01275865, 0.01622803, 100.63200378, 57.84687805, 29.81999969, 0.00000000
1, 0.0798, 12, -0.11644191, -0.97610438, 0.10147192, -2.12918997, 0.29141727, 2.07529306, -25.89885902, -2.68927217, -113.53404999, 96.44712067, -5.11377573, 15.25171375, -0.65526158, 0.74236250, 0.06940685, 0.12129724, 0.02709417, -0.01378286, 0.00852359, 100.63200378, 57.84687805, 29.81999969, 0.00000000
1, 0.0848, 13, -0.12470852, -0.97831023, 0.10601146, -1.84929478, 0.64537537, 1.93995798, -26.27886581, 0.87693655, -113.18328094, 96.43771362, -5.12379646, 15.25385666, -0.65530896, 0.74231225, 0.06935271, 0.12137941, 0.03517712, -0.01158853, 0.00378641, 100.63200378, 57.84687805, 29.81999969, 0.00000000
1, 0.0898, 14, -0.12286711, -0.98417413, 0.09568392, -1.78727567, 1.41096902, 1.99246895, -26.27886581, 0.87693655, -113.18328094, 96.42826080, -5.13449574, 15.25978470, -0.65535194, 0.74225974, 0.06931907, 0.12148760, 0.03317686, -0.00570892, 0.01395113, 100.63200378, 57.84687805, 29.81999969, 0.00000000
1, 0.1051, 13, -0.14971924, -0.99847412, 0.19598389, -2.41718864, -1.19765627, 2.67804861, -34.49283981, -3.91698337, -105.64162445, 103.06012726, -14.05714798, 57.20003128, 0.49623212, -0.71867710, -0.30513307, -0.37967202, -0.09312134, 0.05350988, 0.02326704, 100.37400818, 79.46511078, 30.03999901, 0.00000000
1, 0.1101, 14, -0.15087891, -0.99719238, 0.18475342, -2.55718875, -1.19765639, 2.64304852, -35.83747482, -3.06927800, -105.29084778, 103.04955292, -14.06866932, 57.19093704, 0.49628446, -0.71867681, -0.30498189, -0.37972572, -0.09215886, 0.05223591, 0.03431277, 100.37400818, 79.46511078, 30.03999901, 0.00000000
1, 0.1151, 15, -0.16217041, -1.00073242, 0.18688965, -2.48718858, -1.68765640, 2.74804854, -35.83747482, -3.06927800, -105.29084778, 103.03996277, -14.08014965, 57.17926407, 0.49633929, -0.71868747, -0.30481794, -0.37976533, -0.08106036, 0.05578569, 0.03200404, 100.37400818, 79.46511078, 30.03999901, 0.00000000
1, 0.0948, 15, -0.12325819, -0.98243928, 0.08436003, -2.00441980, 1.75382078, 2.14361382, -26.27886581, 0.87693655, -112.56941986, 96.41760254, -5.14614344, 15.26734924, -0.65539986, 0.74219984, 0.06928926, 0.12161195, 0.03339946, -0.00742759, 0.02509608, 100.63200378, 57.84687805, 29.81999969, 0.00000000
1, 0.0998, 16, -0.12121189, -0.97323835, 0.05975103, -1.98225689, 2.83654809, 2.02892995, -25.92809105, 0.61385560, -112.56941986, 96.40653229, -5.15780830, 15.28037643, -0.65544462, 0.74213427, 0.06929424, 0.12176789, 0.03120757, -0.01659129, 0.04953022, 100.63200378, 57.84687805, 29.81999969, 0.00000000
1, 0.1048, 17, -0.12190772, -0.96916664, 0.06438992, -1.21223128, 3.79169393, 1.69137239, -25.92809105, 0.61385560, -112.56941986, 96.39888763, -5.16831255, 15.29836750, -0.65546322, 0.74208474, 0.06934171, 0.12194271, 0.03170498, -0.02067091, 0.04474233, 100.63200378, 57.84687805, 29.81999969, 0.00000000
1, 0.1201, 16, -0.17193604, -1.00183105, 0.18524170, -2.76718879, -2.24765658, 2.92304873, -35.01900101, -3.36159015, -105.08622742, 103.02970123, -14.09185982, 57.16457748, 0.49640748, -0.71870369, -0.30463174, -0.37979496, -0.07149017, 0.05689402, 0.03347697, 100.37400818, 79.46511078, 30.03999901, 0.00000000
1, 0.1251, 17, -0.17340088, -0.99627686, 0.18121338, -3.18718863, -2.63265681, 2.92304850, -35.01900101, -3.36159015, -105.08622742, 103.01782227, -14.10312939, 57.14795303, 0.49649391, -0.71871710, -0.30443022, -0.37981802, -0.07021902, 0.05134297, 0.03730283, 100.37400818, 79.46511078, 30.03999901, 0.00000000
1, 0.1301, 18, -0.16717529, -0.99060059, 0.17712402, -3.43218875, -2.42265654, 3.02804875, -35.01900101, -3.36159015, -105.08622742, 103.00449371, -14.11515808, 57.13226700, 0.49658349, -0.71872318, -0.30422586, -0.37985322, -0.07664496, 0.04566634, 0.04116692, 100.37400818, 79.46511078, 30.03999901, 0.00000000
1, 0.1098, 18, -0.11777668, -0.98175526, 0.08854697, -0.61028421, 3.94382000, 1.37186611, -26.07424736, 1.19848001, -113.27097321, 96.39416504, -5.17730808, 15.31728840, -0.65546358, 0.74205059, 0.06940706, 0.12211144, 0.02734997, -0.00811699, 0.02048551, 100.63200378, 57.84687805, 29.81999969, 0.00000000
1, 0.1148, 19, -0.09817300, -0.99224114, 0.09331661, -1.06872666, 3.62558937, 1.40516889, -26.07424736, 1.19848001, -113.27097321, 96.38726044, -5.18628788, 15.33460140, -0.65547967, 0.74200499, 0.06945974, 0.12227216, 0.00758327, 0.00236268, 0.01563976, 100.63200378, 57.84687805, 29.81999969, 0.00000000
1, 0.1351, 19, -0.16851807, -0.99066162, 0.17675781, -3.18718886, -2.73765683, 3.30804873, -35.83747482, -3.47851491, -105.90470886, 102.99284363, -14.12819958, 57.11468124, 0.49666500, -0.71874338, -0.30400997, -0.37988141, -0.07551910, 0.04573397, 0.04131902, 100.37400818, 79.46511078, 30.03999901, 0.00000000
1, 0.1401, 20, -0.16540527, -0.99157715, 0.18420410, -3.15218878, -3.08765697, 3.62304854, -35.83747482, -3.47851491, -105.90470886, 102.98190308, -14.14238071, 57.09495926, 0.49674469, -0.71877432, -0.30377716, -0.37990484, -0.07886461, 0.04666454, 0.03367726, 100.37400818, 79.46511078, 30.03999901, 0.00000000
1, 0.1698, 20, -0.13212986, -0.99069750, 0.10724854, -0.01065183, 4.01987743, -0.14119798, -26.13270950, -0.76001167, -113.59251404, 96.28980255, -5.25829124, 15.41647339, -0.65594131, 0.74143249, 0.06946754, 0.12326068, 0.04042042, 0.00070088, -0.00012980, 100.63200378, 57.84687805, 29.81999969, 0.00000000
1, 0.1748, 21, -0.09295534, -0.99406290, 0.12005240, -1.18098044, 3.70031786, -0.30917782, -26.13270950, -0.76001167, -113.59251404, 96.28217316, -5.25876188, 15.43511105, -0.65597004, 0.74137777, 0.06957719, 0.12337500, 0.00099999, 0.00405759, -0.01291073, 100.63200378, 57.84687805, 29.81999969, 0.00000000
1, 0.2001, 21, -0.17193604, -0.99554443, 0.22216797, -3.18718863, -4.90765762, 6.87805033, -35.74977875, -3.88775206, -105.29084778, 102.91381836, -14.41004753, 56.70839691, 0.49743098, -0.71998507, -0.29974720, -0.37991536, -0.07680422, 0.05148025, -0.00567089, 100.37400818, 79.46511078, 30.03999901, 0.00000000
1, 0.2051, 22, -0.16772461, -0.99841309, 0.22894287, -3.60718894, -5.01265764, 7.15805006, -35.74977875, -3.88775206, -105.29084778, 102.90411377, -14.43933201, 56.67491913, 0.49749115, -0.72008342, -0.29935372, -0.37996039, -0.08150560, 0.05443572, -0.01263045, 100.37400818, 79.46511078, 30.03999901, 0.00000000
1, 0.1798, 22, -0.06612914, -0.99220991, 0.12054736, -1.05838072, 2.37853193, -0.34224379, -26.13270950, -0.76001167, -113.59251404, 96.27576447, -5.25835037, 15.44716930, -0.65599900, 0.74133360, 0.06965068, 0.12344530, -0.02582445, 0.00218964, -0.01346191, 100.63200378, 57.84687805, 29.81999969, 0.00000000
1, 0.1848, 23, -0.05012814, -1.00012577, 0.12799186, -0.64960426, 0.92004502, -0.38221109, -26.01578522, 0.29231218, -113.53404999, 96.27207947, -5.25695419, 15.45196915, -0.65601921, 0.74130893, 0.06968588, 0.12346607, -0.04182275, 0.01008354, -0.02095127, 100.63200378, 57.84687805, 29.81999969, 0.00000000
1, 0.1898, 24, -0.04949777, -1.00617301, 0.13929032, -0.91337669, -0.72684443, -0.06758589, -26.01578522, 0.29231218, -113.53404999, 96.26782990, -5.25624514, 15.44837856, -0.65605146, 0.74128640, 0.06966217, 0.12344357, -0.04246570, 0.01610336, -0.03232415, 100.63200378, 57.84687805, 29.81999969, 0.00000000
1, 0.1948, 25, -0.06286905, -1.00079513, 0.13974464, -1.57378447, -1.95617509, 0.12183245, -25.75270271, -0.55539316, -113.09558105, 96.26086426, -5.25581932, 15.43853664, -0.65610754, 0.74125230, 0.06959350, 0.12338874, -0.02908718, 0.01071174, -0.03291437, 100.63200378, 57.84687805, 29.81999969, 0.00000000
1, 0.1998, 26, -0.07941970, -0.98913741, 0.14051604, -1.62931097, -3.21409678, 0.26781702, -25.75270271, -0.55539316, -113.09558105, 96.25419617, -5.25544453, 15.42235184, -0.65616858, 0.74122375, 0.06948379, 0.12329772, -0.01253098, -0.00096068, -0.03382418, 100.63200378, 57.84687805, 29.81999969, 0.00000000
1, 0.2048, 27, -0.09616261, -0.98437619, 0.14479627, -1.91642928, -2.97547054, 0.38231632, -25.75270271, -0.55539316, -113.09558105, 96.24599457, -5.25577402, 15.40728951, -0.65623736, 0.74118608, 0.06937565, 0.12321854, 0.00419817, -0.00574320, -0.03827140, 100.63200378, 57.84687805, 29.81999969, 0.00000000
1, 0.2101, 23, -0.16430664, -1.00207520, 0.23345947, -3.67718911, -5.29265785, 7.29805040, -36.27594376, -3.94621444, -105.75855255, 102.89447784, -14.46899414, 56.63986969, 0.49755481, -0.72018659, -0.29894859, -0.38000053, -0.08542475, 0.05818696, -0.01733630, 100.37400818, 79.46511078, 30.03999901, 0.00000000
1, 0.2151, 24, -0.15979004, -1.00872803, 0.23767090, -3.78218865, -5.15265751, 7.36805010, -36.27594376, -3.94621444, -105.75855255, 102.88417816, -14.49915123, 56.60544586, 0.49761868, -0.72028595, -0.29854244, -0.38004783, -0.09044851, 0.06492991, -0.02174132, 100.37400818, 79.46511078, 30.03999901, 0.00000000
1, 0.2201, 25, -0.15545654, -1.01232910, 0.23803711, -4.02718830, -4.94265747, 7.15805006, -36.12978745, -3.94621444, -105.78778076, 102.87234497, -14.52853107, 56.57232285, 0.49769086, -0.72037357, -0.29814336, -0.38010031, -0.09528419, 0.06861410, -0.02232688, 100.37400818, 79.46511078, 30.03999901, 0.00000000
1, 0.2251, 26, -0.15570068, -1.00836182, 0.23394775, -4.34218931, -4.97765732, 6.91305017, -36.12978745, -3.94621444, -105.78778076, 102.85892487, -14.55668831, 56.53929901, 0.49777737, -0.72045177, -0.29774597, -0.38015044, -0.09552114, 0.06471965, -0.01847838, 100.37400818, 79.46511078, 30.03999901, 0.00000000
1, 0.2301, 27, -0.16003418, -1.00561523, 0.23876953, -4.58718872, -4.80265713, 6.42305040, -36.12978745, -3.94621444, -105.78778076, 102.84393311, -14.58266163, 56.50773239, 0.49787739, -0.72051519, -0.29736361, -0.38019854, -0.09163256, 0.06203066, -0.02356707, 100.37400818, 79.46511078, 30.03999901, 0.00000000
1, 0.2351, 28, -0.16290283, -1.00372314, 0.23522949, -4.97218895, -3.57765698, 5.47804928, -36.24671173, -4.15083313, -105.70008850, 102.82521057, -14.60539341, 56.48342133, 0.49798921, -0.72053760, -0.29703119, -0.38026956, -0.08916512, 0.06017454, -0.02033917, 100.37400818, 79.46511078, 30.03999901, 0.00000000
1, 0.2098, 28, -0.11443608, -0.98302877, 0.13899083, -2.21265554, -2.00335693, 0.40925795, -26.27886581, 0.05846244, -113.62174988, 96.23588562, -5.25676298, 15.39706707, -0.65631270, 0.74113482, 0.06929290, 0.12317243, 0.02247249, -0.00709806, -0.03267530, 100.63200378, 57.84687805, 29.81999969, 0.00000000
1, 0.2148, 29, -0.12456570, -0.98334157, 0.13008836, -2.23652387, -0.05072611, 0.31589481, -26.27886581, 0.05846244, -113.62174988, 96.22473907, -5.25833082, 15.39663792, -0.65638340, 0.74107206, 0.06926905, 0.12318674, 0.03259826, -0.00678915, -0.02398948, 100.63200378, 57.84687805, 29.81999969, 0.00000000
1, 0.2401, 29, -0.15673828, -1.00231934, 0.23376465, -5.14718866, -2.38765645, 4.70804882, -36.24671173, -4.15083313, -105.70008850, 102.80387115, -14.62569714, 56.46599197, 0.49810377, -0.72052634, -0.29674584, -0.38036343, -0.09567994, 0.05878175, -0.01923759, 100.37400818, 79.46511078, 30.03999901, 0.00000000
1, 0.2451, 30, -0.15087891, -1.00177002, 0.23315430, -5.46218967, -1.09265625, 4.04304886, -36.27594376, -3.88775206, -105.84624481, 102.77911377, -14.64420223, 56.45586014, 0.49822259, -0.72047806, -0.29650432, -0.38048768, -0.10186209, 0.05822486, -0.01904057, 100.37400818, 79.46511078, 30.03999901, 0.00000000
1, 0.2701, 31, -0.10662842, -1.00744629, 0.22106934, -5.21718884, 0.97234434, 1.27804804, -36.33440399, -3.50774622, -106.51856232, 102.64444733, -14.70243835, 56.46006012, 0.49883312, -0.71998560, -0.29578188, -0.38118169, -0.14714101, 0.06366472, -0.00922638, 100.37400818, 79.46511078, 30.03999901, 0.00000000
1, 0.2751, 32, -0.09790039, -1.00665283, 0.22009277, -5.11218929, 1.07734454, 0.92804790, -36.33440399, -3.50774622, -106.51856232, 102.61777496, -14.70813942, 56.46444702, 0.49896440, -0.71986836, -0.29569113, -0.38130170, -0.15597124, 0.06279907, -0.00869465, 100.37400818, 79.46511078, 30.03999901, 0.00000000
1, 0.2398, 30, -0.02055070, -0.99270785, 0.15531628, -2.50631189, 4.86603975, 1.45303571, -26.39579010, -1.98772287, -113.88482666, 96.17361450, -5.30101871, 15.51066685, -0.65654230, 0.74073076, 0.06970315, 0.12414388, -0.07218182, 0.00250581, -0.04985084, 100.63200378, 57.84687805, 29.81999969, 0.00000000
1, 0.2448, 31, -0.00843064, -0.99235451, 0.15115255, -2.23726749, 3.35479546, 2.11463356, -25.95732307, 0.46769950, -113.82636261, 96.16102600, -5.31333923, 15.52629280, -0.65659267, 0.74065506, 0.06971890, 0.12431982, -0.08449566, 0.00215348, -0.04588658, 100.63200378, 57.84687805, 29.81999969, 0.00000000
1, 0.2498, 32, -0.01365574, -0.99146199, 0.14231852, -2.04259396, 2.08908153, 2.67787313, -25.95732307, 0.46769950, -113.82636261, 96.15000153, -5.32777882, 15.53530502, -0.65663761, 0.74059349, 0.06968126, 0.12447043, -0.07949273, 0.00127717, -0.03726023, 100.63200378, 57.84687805, 29.81999969, 0.00000000
1, 0.2548, 33, -0.01518648, -0.98709738, 0.13967642, -1.99163973, 0.89672297, 3.03437853, -25.95732307, 0.46769950, -113.82636261, 96.13983154, -5.34336281, 15.53817368, -0.65668237, 0.74054104, 0.06959818, 0.12459263, -0.07821937, -0.00307795, -0.03479659, 100.63200378, 57.84687805, 29.81999969, 0.00000000
1, 0.2598, 34, -0.01590250, -0.98374724, 0.13907690, -2.27467132, 0.88251233, 3.52837348, -26.33732796, 0.93539900, -113.27097321, 96.12825775, -5.36139536, 15.54071236, -0.65673375, 0.74048197, 0.06949718, 0.12472941, -0.07780418, -0.00641959, -0.03438836, 100.63200378, 57.84687805, 29.81999969, 0.00000000
1, 0.2801, 33, -0.09039307, -1.00573730, 0.21417236, -5.04218912, 1.14734459, 0.68304783, -36.33440399, -3.50774622, -106.51856232, 102.59128571, -14.71272945, 56.46946335, 0.49909654, -0.71974826, -0.29561073, -0.38141760, -0.16356030, 0.06180626, -0.00321782, 100.37400818, 79.46511078, 30.03999901, 0.00000000
1, 0.2851, 34, -0.08276367, -1.00347900, 0.21057129, -4.93718910, 1.21734464, 0.43804777, -36.33440399, -3.36159015, -106.54779053, 102.56517029, -14.71619225, 56.47510910, 0.49922860, -0.71962613, -0.29554132, -0.38152903, -0.17125508, 0.05946911, -0.00004855, 100.37400818, 79.46511078, 30.03999901, 0.00000000
1, 0.2901, 35, -0.07781982, -1.00305176, 0.20458984, -5.00718927, 1.46234465, 0.15804772, -36.33440399, -3.36159015, -106.54779053, 102.53830719, -14.71854877, 56.48231125, 0.49936435, -0.71949476, -0.29548484, -0.38164297, -0.17624325, 0.05895472, 0.00548802, 100.37400818, 79.46511078, 30.03999901, 0.00000000
1, 0.2951, 36, -0.07159424, -1.00854492, 0.20117188, -4.97218895, 1.46234465, -0.08695237, -35.95439911, -3.47851491, -106.02162933, 102.51153564, -14.71971035, 56.48979187, 0.49950302, -0.71936089, -0.29543665, -0.38175109, -0.18249387, 0.06435744, 0.00846858, 100.37400818, 79.46511078, 30.03999901, 0.00000000
1, 0.3001, 37, -0.06188965, -1.01269531, 0.19354248, -5.18218946, 1.56734478, -0.54195255, -35.95439911, -3.47851491, -106.02162933, 102.48345947, -14.71875572, 56.49831390, 0.49965450, -0.71921480, -0.29540151, -0.38185525, -0.19219218, 0.06840471, 0.01564091, 100.37400818, 79.46511078, 30.03999901, 0.00000000
1, 0.3051, 38, -0.04626465, -1.01708984, 0.18395996, -5.42718887, 1.74234474, -1.24195290, -35.95439911, -3.47851491, -106.02162933, 102.45373535, -14.71457005, 56.50849152, 0.49982309, -0.71905142, -0.29538804, -0.38195279, -0.20775889, 0.07267717, 0.02474258, 100.37400818, 79.46511078, 30.03999901, 0.00000000
1, 0.2648, 35, -0.01993191, -0.98247659, 0.12775582, -2.48866987, 1.07445192, 4.16661167, -26.33732796, 0.93539900, -113.27097321, 96.11557770, -5.38271284, 15.54388046, -0.65678781, 0.74041784, 0.06937990, 0.12489142, -0.07410090, -0.00766188, -0.02329585, 100.63200378, 57.84687805, 29.81999969, 0.00000000
1, 0.2698, 36, -0.02731003, -0.98519206, 0.11642758, -2.38857055, 1.75739908, 4.77750301, -26.01578522, -1.66617942, -114.11867523, 96.10743713, -5.38268185, 15.54913235, -0.65683460, 0.74036795, 0.06940515, 0.12492624, -0.06689468, -0.00492796, -0.01217028, 100.63200378, 57.84687805, 29.81999969, 0.00000000
1, 0.2748, 37, -0.02307019, -0.99393177, 0.11526860, -2.43616486, 2.89159513, 5.40102959, -26.01578522, -1.66617942, -114.11867523, 96.09424591, -5.41107893, 15.56072712, -0.65687460, 0.74029905, 0.06930052, 0.12518205, -0.07139353, 0.00381827, -0.01120294, 100.63200378, 57.84687805, 29.81999969, 0.00000000
1, 0.3101, 39, -0.03729248, -1.01989746, 0.17486572, -5.53218985, 1.88234484, -1.66195297, -36.56825638, -4.32622051, -106.98625946, 102.42319489, -14.70848083, 56.51983643, 0.50000012, -0.71887797, -0.29538903, -0.38204688, -0.21663631, 0.07534961, 0.03333990, 100.37400818, 79.46511078, 30.03999901, 0.00000000
1, 0.2798, 38, -0.01040820, -0.99922514, 0.11846305, -2.86804104, 3.46369720, 6.08615541, -26.01578522, -1.66617942, -114.11867523, 96.07864380, -5.44318771, 15.57483959, -0.65692294, 0.74021667, 0.06918790, 0.12547739, -0.08460666, 0.00912971, -0.01464131, 100.63200378, 57.84687805, 29.81999969, 0.00000000
1, 0.2848, 39, 0.00143969, -1.00189781, 0.12347374, -3.25566483, 3.33743763, 6.85922813, -26.42502213, 0.58462435, -113.76790619, 96.06120300, -5.47907877, 15.58791924, -0.65697986, 0.74012619, 0.06904449, 0.12579203, -0.09707265, 0.01182071, -0.01992419, 100.63200378, 57.84687805, 29.81999969, 0.00000000
1, 0.3151, 40, -0.02447510, -1.02423096, 0.17309570, -5.35718918, 2.12734461, -2.01195312, -36.56825638, -4.32622051, -106.98625946, 102.39311218, -14.70093918, 56.53281403, 0.50017422, -0.71869963, -0.29540923, -0.38213870, -0.22933370, 0.07954267, 0.03461838, 100.37400818, 79.46511078, 30.03999901, 0.00000000
1, 0.3501, 41, 0.05578613, -1.02056885, 0.17010498, -3.36218858, 1.70734477, -5.37195396, -36.27594376, -3.53697753, -106.72318268, 102.21214294, -14.58934498, 56.64945984, 0.50134420, -0.71740574, -0.29611576, -0.38249010, -0.30777976, 0.07475652, 0.03468347, 100.37400818, 79.46511078, 30.03999901, 0.00000000
1, 0.3551, 42, 0.06225586, -1.01989746, 0.17218018, -3.08218884, 1.25234461, -5.75695419, -35.86670685, -3.39082146, -106.81087494, 102.19355774, -14.56253910, 56.66207886, 0.50152051, -0.71724296, -0.29627189, -0.38244319, -0.31380782, 0.07390402, 0.03231462, 100.37400818, 79.46511078, 30.03999901, 0.00000000
1, 0.3601, 43, 0.06738281, -1.02313232, 0.17645264, -2.80218863, 0.44734418, -6.07195425, -35.86670685, -3.39082146, -106.81087494, 102.17732239, -14.53333473, 56.67095947, 0.50170374, -0.71709567, -0.29642493, -0.38236055, -0.31845069, 0.07695634, 0.02779241, 100.37400818, 79.46511078, 30.03999901, 0.00000000
1, 0.3198, 40, 0.04799688, -1.00685561, 0.12765652, -6.67660809, 2.48103762, 13.78764343, -25.95732307, 0.29231218, -114.00175476, 95.88548279, -5.84337807, 15.65693474, -0.65761280, 0.73925048, 0.06717360, 0.12861533, -0.15002015, 0.01708586, -0.02706353, 100.63200378, 57.84687805, 29.81999969, 0.00000000
1, 0.3248, 41, 0.05246265, -1.00740063, 0.13194397, -7.20501900, 2.18447161, 14.34813595, -25.95732307, 0.29231218, -114.00175476, 95.84925842, -5.91594219, 15.66059971, -0.65775681, 0.73907429, 0.06673346, 0.12911966, -0.15554681, 0.01767128, -0.03193334, 100.63200378, 57.84687805, 29.81999969, 0.00000000
1, 0.3298, 42, 0.06022636, -1.00673878, 0.12081493, -7.47705603, 1.35881460, 15.27832794, -25.95732307, 0.29231218, -114.00175476, 95.81216431, -5.99272108, 15.65970993, -0.65790629, 0.73889738, 0.06623804, 0.12962487, -0.16459399, 0.01709813, -0.02143669, 100.63200378, 57.84687805, 29.81999969, 0.00000000
1, 0.3348, 43, 0.07002221, -1.00818169, 0.10963749, -7.75013685, 0.66738886, 16.42204475, -26.71733475, 1.37386727, -114.23560333, 95.77412415, -6.07485580, 15.65484142, -0.65805966, 0.73871934, 0.06568429, 0.13014147, -0.17576352, 0.01863978, -0.01090487, 100.63200378, 57.84687805, 29.81999969, 0.00000000
1, 0.3398, 44, 0.07549090, -1.00801969, 0.11035163, -7.99152517, 0.35333833, 17.81972122, -26.71733475, 1.37386727, -114.23560333, 95.73514557, -6.16378975, 15.64775848, -0.65821314, 0.73853987, 0.06507514, 0.13068870, -0.18274623, 0.01856982, -0.01229098, 100.63200378, 57.84687805, 29.81999969, 0.00000000
1, 0.3651, 44, 0.07324219, -1.02636719, 0.17840576, -2.76718855, -0.49765602, -6.42195415, -35.86670685, -3.39082146, -106.81087494, 102.16236115, -14.50142384, 56.67543411, 0.50190383, -0.71696025, -0.29656875, -0.38224012, -0.32378280, 0.08000364, 0.02561739, 100.37400818, 79.46511078, 30.03999901, 0.00000000
1, 0.3701, 45, 0.08306885, -1.02996826, 0.17614746, -3.01218867, -1.51265621, -6.63195467, -36.39286804, -3.59543991, -107.33703613, 102.14740753, -14.46741581, 56.67500687, 0.50212824, -0.71683371, -0.29669285, -0.38208655, -0.33304268, 0.08340798, 0.02765812, 100.37400818, 79.46511078, 30.03999901, 0.00000000
1, 0.3751, 46, 0.10052490, -1.03070068, 0.16735840, -3.39718866, -2.63265681, -6.80695486, -36.39286804, -3.59543991, -107.33703613, 102.13189697, -14.43137360, 56.66911697, 0.50238204, -0.71671498, -0.29679143, -0.38189903, -0.34990066, 0.08393503, 0.03622613, 100.37400818, 79.46511078, 30.03999901, 0.00000000
1, 0.3448, 45, 0.07580543, -1.01049459, 0.11716589, -8.05049419, -0.31055346, 19.34694481, -27.06810760, 1.49079216, -113.27097321, 95.69634247, -6.26000738, 15.63666439, -0.65836108, 0.73836643, 0.06439739, 0.13125864, -0.18471599, 0.02114306, -0.01979736, 100.63200378, 57.84687805, 29.81999969, 0.00000000
1, 0.3498, 46, 0.07393444, -1.01922262, 0.12027953, -8.13486862, -1.81100774, 20.88960266, -27.06810760, 1.49079216, -113.27097321, 95.65803528, -6.36317825, 15.61736584, -0.65850645, 0.73820275, 0.06362629, 0.13182481, -0.18461230, 0.02999251, -0.02361389, 100.63200378, 57.84687805, 29.81999969, 0.00000000
1, 0.3548, 47, 0.07116963, -1.02895021, 0.12410527, -8.36264706, -3.20913649, 22.47157669, -27.06810760, 1.49079216, -113.27097321, 95.61952209, -6.47356558, 15.59035587, -0.65865302, 0.73804432, 0.06276263, 0.13239202, -0.18374003, 0.03985829, -0.02814445, 100.63200378, 57.84687805, 29.81999969, 0.00000000
1, 0.3801, 47, 0.11682129, -1.02691650, 0.16192627, -3.18718863, -4.38265705, -6.91195488, -36.30517197, -3.62467122, -107.22010803, 102.11958313, -14.39297771, 56.65448761, 0.50265366, -0.71662855, -0.29685837, -0.38165170, -0.36556134, 0.07994256, 0.04146690, 100.37400818, 79.46511078, 30.03999901, 0.00000000
1, 0.3851, 48, 0.13317871, -1.02227783, 0.15924072, -2.62718868, -6.79765797, -7.12195492, -36.30517197, -3.62467122, -107.22010803, 102.11306000, -14.35102654, 56.62789917, 0.50294238, -0.71659178, -0.29688820, -0.38131696, -0.38121974, 0.07510225, 0.04406675, 100.37400818, 79.46511078, 30.03999901, 0.00000000
1, 0.4351, 49, 0.34118652, -1.02197266, 0.11669922, -4.62218857, -35.67266846, -17.65695953, -36.48056030, -3.91698337, -106.43087006, 102.17259216, -13.57627392, 55.72351074, 0.50845921, -0.71777064, -0.29544508, -0.37280926, -0.57646346, 0.07188207, 0.08817232, 100.37400818, 79.46511078, 30.03999901, 0.00000000
1, 0.4401, 50, 0.37554932, -1.02221680, 0.10992432, -4.62218904, -39.55767059, -19.33695793, -36.48056030, -3.91698337, -106.43087006, 102.19102478, -13.44003582, 55.54565430, 0.50942755, -0.71806097, -0.29509729, -0.37120026, -0.60856682, 0.07165656, 0.09535099, 100.37400818, 79.46511078, 30.03999901, 0.00000000
1, 0.4451, 51, 0.41113281, -1.02239990, 0.10565186, -4.55218840, -43.40766907, -21.19195938, -36.39286804, -4.03390837, -106.37240601, 102.21334839, -13.29059792, 55.35063171, 0.51047117, -0.71838838, -0.29472199, -0.36942700, -0.64167106, 0.07133947, 0.10010460, 100.37400818, 79.46511078, 30.03999901, 0.00000000
1, 0.4501, 52, 0.46887207, -1.02355957, 0.10156250, -4.76218891, -47.18767166, -23.60696030, -36.39286804, -4.03390837, -106.37240601, 102.23778534, -13.12527752, 55.13945007, 0.51160645, -0.71873748, -0.29433337, -0.36748233, -0.69668019, 0.07195804, 0.10473208, 100.37400818, 79.46511078, 30.03999901, 0.00000000
1, 0.4551, 53, 0.49377441, -1.02435303, 0.09936523, -5.07718945, -51.03767776, -25.56696129, -36.33440399, -3.88775206, -106.78163910, 102.26384735, -12.94620419, 54.91131973, 0.51282954, -0.71911186, -0.29391351, -0.36537510, -0.71860540, 0.07216594, 0.10749242, 100.37400818, 79.46511078, 30.03999901, 0.00000000
1, 0.3598, 48, 0.07433107, -1.02067268, 0.12255787, -8.87555218, -4.47890472, 24.41076279, -26.27886581, 0.90616781, -113.94329071, 95.57936096, -6.59301853, 15.55612469, -0.65880734, 0.73788315, 0.06179708, 0.13297553, -0.18892221, 0.03174586, -0.02728377, 100.63200378, 57.84687805, 29.81999969, 0.00000000
1, 0.3648, 49, 0.08047619, -1.00909996, 0.11930423, -8.96715069, -5.35530186, 26.07354355, -26.27886581, 0.90616781, -113.94329071, 95.53941345, -6.72035360, 15.51677322, -0.65895629, 0.73772794, 0.06075218, 0.13357875, -0.19723003, 0.02036169, -0.02471503, 100.63200378, 57.84687805, 29.81999969, 0.00000000
1, 0.4098, 50, 0.20934607, -1.02065372, 0.09866499, -5.86525679, -10.23735619, 46.42321777, -28.03273773, 0.52616191, -113.38789368, 95.28841400, -8.31139088, 15.02672577, -0.65918988, 0.73708844, 0.04796822, 0.14095542, -0.35315371, 0.03506897, -0.00852570, 100.63200378, 57.84687805, 29.81999969, 0.00000000
1, 0.4148, 51, 0.21661207, -1.02730668, 0.10045316, -5.53186035, -10.52926922, 50.02239609, -28.03273773, 0.52616191, -113.38789368, 95.27251434, -8.55578518, 14.95085907, -0.65907609, 0.73710018, 0.04602459, 0.14207001, -0.36455140, 0.04229771, -0.01064764, 100.63200378, 57.84687805, 29.81999969, 0.00000000
1, 0.4601, 54, 0.52880859, -1.02392578, 0.10186768, -5.84718943, -57.02267456, -28.29696083, -36.33440399, -3.88775206, -106.78163910, 102.29128265, -12.74732590, 54.65644073, 0.51419342, -0.71952438, -0.29343110, -0.36302629, -0.75032365, 0.07109661, 0.10561000, 100.37400818, 79.46511078, 30.03999901, 0.00000000
1, 0.4651, 55, 0.55059814, -1.02471924, 0.10839844, -6.75718975, -61.08267593, -30.46696472, -36.33440399, -3.88775206, -106.78163910, 102.31713867, -12.53340530, 54.38389969, 0.51566792, -0.71994698, -0.29290882, -0.36050993, -0.76853257, 0.07119817, 0.09969130, 100.37400818, 79.46511078, 30.03999901, 0.00000000
1, 0.4701, 56, 0.56585693, -1.03112793, 0.11975098, -8.05218983, -64.58267975, -32.98696136, -35.66208649, -3.50774622, -106.75241089, 102.33858490, -12.30332565, 54.09692764, 0.51726258, -0.72035646, -0.29236376, -0.35784000, -0.77994204, 0.07685736, 0.08889729, 100.37400818, 79.46511078, 30.03999901, 0.00000000
1, 0.4198, 52, 0.22910710, -1.02728021, 0.09737518, -4.91972542, -10.45804882, 53.10089111, -28.82198143, 1.11078632, -113.97251892, 95.26015472, -8.79621315, 14.87376785, -0.65894485, 0.73712605, 0.04410021, 0.14315033, -0.38128507, 0.04289503, -0.00783499, 100.63200378, 57.84687805, 29.81999969, 0.00000000
1, 0.4248, 53, 0.24702625, -1.02415061, 0.09403702, -3.37865639, -10.50720978, 57.18120575, -28.82198143, 1.11078632, -113.97251892, 95.25624084, -9.07626820, 14.79474831, -0.65870965, 0.73720574, 0.04194052, 0.14446595, -0.40378731, 0.04047574, -0.00461168, 100.63200378, 57.84687805, 29.81999969, 0.00000000
1, 0.4298, 54, 0.24968545, -1.03470218, 0.09910422, -2.55376911, -10.30319405, 60.61068344, -28.82198143, 1.11078632, -113.97251892, 95.25699615, -9.37348747, 14.71513844, -0.65842104, 0.73730934, 0.03968155, 0.14588434, -0.41150725, 0.05182878, -0.00976461, 100.63200378, 57.84687805, 29.81999969, 0.00000000
1, 0.4751, 57, 0.57543945, -1.03985596, 0.13507080, -10.01219177, -67.69767761, -35.68196487, -35.66208649, -3.50774622, -106.75241089, 102.35164642, -12.05666828, 53.79767990, 0.51899511, -0.72072816, -0.29179940, -0.35503250, -0.78538841, 0.08476580, 0.07402989, 100.37400818, 79.46511078, 30.03999901, 0.00000000
1, 0.4801, 58, 0.56597900, -1.04785156, 0.14276123, -12.49719143, -70.74268341, -38.51696396, -35.48669815, -4.18006420, -106.66471863, 102.35343933, -11.79287434, 53.48664474, 0.52088219, -0.72104615, -0.29121330, -0.35209250, -0.77149701, 0.09185919, 0.06661811, 100.37400818, 79.46511078, 30.03999901, 0.00000000
1, 0.4348, 55, 0.25506818, -1.03595138, 0.10276725, -2.31421614, -8.74670124, 64.07984924, -29.08506203, 1.43232965, -114.23560333, 95.25836945, -9.68867683, 14.64172935, -0.65809464, 0.73741043, 0.03735726, 0.14745097, -0.42224559, 0.05396041, -0.01347780, 100.63200378, 57.84687805, 29.81999969, 0.00000000
1, 0.4398, 56, 0.27087638, -1.03367198, 0.11077876, -1.58431971, -6.52774429, 67.69877625, -29.08506203, 1.43232965, -114.23560333, 95.26222992, -10.02287197, 14.57780075, -0.65771210, 0.73751813, 0.03498504, 0.14919052, -0.44374043, 0.05264475, -0.02148451, 100.63200378, 57.84687805, 29.81999969, 0.00000000
1, 0.4448, 57, 0.28989732, -1.04750335, 0.12277361, -0.30779281, -5.41625071, 71.21422577, -29.26045036, -2.01695418, -114.17713928, 95.27220154, -10.37506104, 14.51777840, -0.65725762, 0.73765403, 0.03253993, 0.15106350, -0.46876594, 0.06753111, -0.03340771, 100.63200378, 57.84687805, 29.81999969, 0.00000000
1, 0.5001, 59, 0.47113037, -1.11895752, 0.17749023, -27.96719551, -74.83768463, -51.74697113, -36.56825638, -3.56620860, -106.66471863, 102.15500641, -10.55520248, 52.20482254, 0.53031415, -0.72111189, -0.28895426, -0.33951443, -0.65575057, 0.15825880, 0.02980452, 100.37400818, 79.46511078, 30.03999901, 0.00000000
1, 0.5051, 60, 0.45220947, -1.13201904, 0.18164063, -30.69719887, -74.20767975, -54.47697067, -35.83747482, -3.94621444, -106.78163910, 102.05753326, -10.21105003, 51.89407349, 0.53301787, -0.72080761, -0.28849393, -0.33630288, -0.63097656, 0.16992560, 0.02431116, 100.37400818, 79.46511078, 30.03999901, 0.00000000
1, 0.4498, 58, 0.29589656, -1.06631279, 0.11910105, 0.36594531, -4.48168182, 74.62799072, -29.26045036, -2.01695418, -114.17713928, 95.28538513, -10.74463940, 14.46077919, -0.65675074, 0.73780054, 0.03001621, 0.15306197, -0.48102498, 0.08751966, -0.02964315, 100.63200378, 57.84687805, 29.81999969, 0.00000000
1, 0.5101, 61, 0.44567871, -1.14208984, 0.19903564, -31.88719940, -72.91268158, -57.06697083, -35.83747482, -3.94621444, -106.78163910, 101.95069885, -9.85612774, 51.59220505, 0.53577107, -0.72041100, -0.28812248, -0.33308074, -0.61839169, 0.17856358, 0.00537709, 100.37400818, 79.46511078, 30.03999901, 0.00000000
1, 0.5151, 62, 0.46234131, -1.17218018, 0.21002197, -31.88719559, -71.30268097, -59.44696808, -35.83747482, -3.94621444, -106.78163910, 101.84029388, -9.49178696, 51.30046463, 0.53852886, -0.71994793, -0.28785822, -0.32984751, -0.62882555, 0.20721513, -0.00723469, 100.37400818, 79.46511078, 30.03999901, 0.00000000
1, 0.5201, 63, 0.49279785, -1.21673584, 0.20758057, -32.06219864, -69.23767853, -62.63196945, -36.24671173, -3.53697753, -107.24934387, 101.72502899, -9.11452961, 51.02185822, 0.54130203, -0.71939766, -0.28773469, -0.32660040, -0.65284610, 0.25032797, -0.00649029, 100.37400818, 79.46511078, 30.03999901, 0.00000000
1, 0.4548, 59, 0.29055277, -1.08428335, 0.09877732, 0.77650619, -2.39730358, 77.93228912, -29.26045036, -2.01695418, -114.17713928, 95.29935455, -11.13160706, 14.41266251, -0.65619826, 0.73794121, 0.02744853, 0.15522006, -0.48218918, 0.10679655, -0.00924091, 100.63200378, 57.84687805, 29.81999969, 0.00000000
1, 0.4848, 60, 0.16495615, -1.34737098, 0.22519344, 4.92842627, 14.42599201, 96.99830627, -31.59894753, 2.10464764, -114.29406738, 95.42922974, -13.80147839, 14.37848377, -0.65157479, 0.73878610, 0.01170930, 0.17178006, -0.40198576, 0.37971389, -0.13513610, 100.63200378, 57.84687805, 29.81999969, 0.00000000
1, 0.4898, 61, 0.17940640, -1.42757344, 0.27197227, 3.47237825, 15.08955574, 100.78323364, -31.59894753, 2.10464764, -114.29406738, 95.44078827, -14.31018734, 14.40756702, -0.65068537, 0.73882180, 0.00892302, 0.17513251, -0.42508444, 0.46196908, -0.18197230, 100.63200378, 57.84687805, 29.81999969, 0.00000000
1, 0.4948, 62, 0.19291022, -1.49454618, 0.22583158, 0.54967493, 16.50092316, 104.81497955, -32.32972717, -0.26308095, -114.14791107, 95.43617249, -14.83965874, 14.44199944, -0.64984506, 0.73875028, 0.00602446, 0.17864275, -0.44733590, 0.53128934, -0.13613220, 100.63200378, 57.84687805, 29.81999969, 0.00000000
1, 0.5251, 64, 0.55249023, -1.28887939, 0.21533203, -31.78219986, -66.50767517, -67.32197571, -36.24671173, -3.53697753, -107.24934387, 101.60655975, -8.71763229, 50.76109695, 0.54408878, -0.71874291, -0.28782147, -0.32331854, -0.70580405, 0.32101220, -0.01602179, 100.37400818, 79.46511078, 30.03999901, 0.00000000
1, 0.5301, 65, 0.56878662, -1.34240723, 0.22619629, -29.99719620, -64.93267822, -71.69696808, -34.93130493, -3.15697169, -107.10318756, 101.49343872, -8.30140305, 50.51203537, 0.54685104, -0.71803945, -0.28810245, -0.31995362, -0.71497548, 0.37308481, -0.02861297, 100.37400818, 79.46511078, 30.03999901, 0.00000000
1, 0.5351, 66, 0.56091309, -1.39147949, 0.26184082, -27.47719574, -64.16268158, -74.35697937, -34.93130493, -3.15697169, -107.10318756, 101.39025879, -7.87336493, 50.26892853, 0.54955107, -0.71733779, -0.28851464, -0.31651133, -0.69975984, 0.42075935, -0.06582998, 100.37400818, 79.46511078, 30.03999901, 0.00000000
1, 0.5401, 67, 0.54516602, -1.45062256, 0.27026367, -26.88219643, -62.69267654, -76.66697693, -34.93130493, -3.15697169, -107.10318756, 101.28702545, -7.43588018, 50.03486633, 0.55223501, -0.71658671, -0.28903690, -0.31304595, -0.67648524, 0.47854653, -0.07579158, 100.37400818, 79.46511078, 30.03999901, 0.00000000
1, 0.5451, 68, 0.52490234, -1.50842285, 0.24291992, -29.29719734, -61.01268005, -79.22197723, -35.95439911, -3.09850907, -107.54165649, 101.16865540, -6.98795176, 49.81101227, 0.55499679, -0.71570766, -0.28964072, -0.30959564, -0.64851350, 0.53499222, -0.05017943, 100.37400818, 79.46511078, 30.03999901, 0.00000000
1, 0.4998, 63, 0.18158622, -1.55037117, 0.13364415, -0.19200806, 19.79014206, 108.30287933, -32.32972717, -0.26308095, -114.14791107, 95.42354584, -15.38802910, 14.49189758, -0.64898586, 0.73861676, 0.00310126, 0.18235432, -0.44495383, 0.58968961, -0.04449177, 100.63200378, 57.84687805, 29.81999969, 0.00000000
1, 0.5048, 64, 0.11085801, -1.55347145, 0.13278329, 0.06058522, 22.84812355, 110.16022491, -32.32972717, -0.26308095, -114.14791107, 95.40763092, -15.94704914, 14.55697346, -0.64808804, 0.73844886, 0.00020689, 0.18621258, -0.38359115, 0.59535897, -0.04430446, 100.63200378, 57.84687805, 29.81999969, 0.00000000
1, 0.5098, 65, 0.11728259, -1.52809286, 0.26441568, -1.03546822, 22.47270012, 110.90131378, -33.23589706, 1.98772287, -114.38175964, 95.38617706, -16.50957298, 14.62012196, -0.64720368, 0.73823535, -0.00273085, 0.19007534, -0.39976102, 0.57243681, -0.17647243, 100.63200378, 57.84687805, 29.81999969, 0.00000000
1, 0.5701, 69, 0.47631836, -1.43432617, 0.19763184, -47.84720612, -61.88767624, -90.42198181, -34.49283981, -3.15697169, -107.39550018, 100.20707703, -4.57204771, 48.68253326, 0.57130766, -0.70899403, -0.29265746, -0.29203877, -0.55820638, 0.45362955, -0.02008524, 100.37400818, 79.46511078, 30.03999901, 0.00000000
1, 0.5751, 70, 0.46710205, -1.40368652, 0.22180176, -46.09720230, -59.43767929, -90.45697784, -34.49283981, -3.15697169, -107.39550018, 99.99272156, -4.07464933, 48.46865463, 0.57463783, -0.70743793, -0.29338291, -0.28852987, -0.54031694, 0.42166346, -0.04783436, 100.37400818, 79.46511078, 30.03999901, 0.00000000
1, 0.5148, 66, 0.18539685, -1.52989364, 0.43521667, -2.86612034, 15.63512802, 113.60086823, -33.23589706, 1.98772287, -114.38175964, 95.36558533, -17.08239937, 14.64680099, -0.64633846, 0.73800856, -0.00596413, 0.19378972, -0.47782731, 0.57676232, -0.34772757, 100.63200378, 57.84687805, 29.81999969, 0.00000000
1, 0.5198, 67, 0.17370680, -1.54236662, 0.40123335, -4.62532902, 8.85862923, 116.68655396, -33.76205826, 0.64308679, -114.17713928, 95.34849548, -17.66293526, 14.63640499, -0.64548343, 0.73778009, -0.00947668, 0.19733696, -0.47571594, 0.59224606, -0.31437281, 100.63200378, 57.84687805, 29.81999969, 0.00000000
1, 0.5848, 68, -0.28431761, -1.15034223, 0.17833489, -8.16728115, 10.91641617, 118.21781921, -38.76059723, 3.65390229, -114.67407227, 94.63471222, -25.50447083, 15.63623142, -0.63299602, 0.73067868, -0.05072292, 0.25070298, -0.14437196, 0.24935600, -0.10773938, 100.63200378, 57.84687805, 29.81999969, 0.00000000
1, 0.5898, 69, -0.43010452, -1.12740421, 0.10254741, -0.84753937, 11.12528324, 116.48217773, -38.76059723, 3.65390229, -114.67407227, 94.62738037, -26.08947372, 15.64666939, -0.63175660, 0.73027217, -0.05412885, 0.25427610, -0.00764178, 0.23094410, -0.03291617, 100.63200378, 57.84687805, 29.81999969, 0.00000000
1, 0.5801, 71, 0.42846680, -1.38812256, 0.21942139, -44.38220215, -54.46767426, -90.00198364, -34.31745148, -2.71850324, -107.98011780, 99.78360748, -3.58455110, 48.27721405, 0.57783097, -0.70585001, -0.29423308, -0.28515646, -0.49311137, 0.40488452, -0.04895604, 100.37400818, 79.46511078, 30.03999901, 0.00000000
1, 0.5851, 72, 0.37335205, -1.36859131, 0.21209717, -43.99720383, -45.43767166, -88.91697693, -34.31745148, -2.71850324, -107.98011780, 99.57237244, -3.10808444, 48.12775421, 0.58086896, -0.70415658, -0.29527542, -0.28207672, -0.42962801, 0.38423476, -0.04515375, 100.37400818, 79.46511078, 30.03999901, 0.00000000
1, 0.5901, 73, 0.26953125, -1.31982422, 0.18188477, -44.83720016, -35.70766830, -87.37698364, -34.31745148, -2.71850324, -108.50628662, 99.35344696, -2.64778328, 48.02334595, 0.58377588, -0.70232666, -0.29650024, -0.27933970, -0.31772208, 0.33442453, -0.01860480, 100.37400818, 79.46511078, 30.03999901, 0.00000000
1, 0.5951, 74, 0.11596680, -1.26983643, 0.16802979, -43.26220322, -32.90766907, -87.62197876, -33.46974564, -2.92312193, -108.50628662, 99.14101410, -2.18893266, 47.93125153, 0.58658946, -0.70048511, -0.29781675, -0.27665621, -0.15617158, 0.28348172, -0.00839552, 100.37400818, 79.46511078, 30.03999901, 0.00000000
1, 0.6001, 75, -0.01806641, -1.28002930, 0.18481445, -40.49720383, -35.32266617, -92.76698303, -33.46974564, -2.92312193, -108.50628662, 98.94197845, -1.70310616, 47.82966995, 0.58939964, -0.69866186, -0.29925594, -0.27372548, -0.01377240, 0.29282188, -0.02860188, 100.37400818, 79.46511078, 30.03999901, 0.00000000
1, 0.6051, 76, -0.02105713, -1.32312012, 0.18457031, -40.25220490, -38.08766937, -98.96199036, -32.32972717, -3.44928384, -109.47091675, 98.74355316, -1.18489730, 47.71753311, 0.59229869, -0.69678080, -0.30080894, -0.27054158, -0.00189768, 0.33513936, -0.03172665, 100.37400818, 79.46511078, 30.03999901, 0.00000000
1, 0.5948, 70, -0.51317167, -1.10506427, 0.18101884, 3.27619267, 8.15251923, 115.55261230, -39.49137497, 3.68313360, -114.55714417, 94.64774323, -26.66860199, 15.64095592, -0.63037288, 0.72999561, -0.05753988, 0.25773180, 0.06614290, 0.21295586, -0.11171147, 100.63200378, 57.84687805, 29.81999969, 0.00000000
1, 0.5998, 71, -0.57223076, -1.06900144, 0.27280399, 5.02970648, 1.21898234, 114.80419922, -39.49137497, 3.68313360, -114.55714417, 94.69454956, -27.24121475, 15.59638405, -0.62890816, 0.72982883, -0.06109685, 0.26094401, 0.11602578, 0.18130109, -0.20332146, 100.63200378, 57.84687805, 29.81999969, 0.00000000
1, 0.6048, 72, -0.61560452, -1.03710377, 0.30383030, 6.29650879, -3.79334307, 113.65208435, -39.84215164, 3.18620276, -113.97251892, 94.76123047, -27.80599976, 15.52331257, -0.62738723, 0.72973847, -0.06473897, 0.26396194, 0.15053758, 0.15396619, -0.23381910, 100.63200378, 57.84687805, 29.81999969, 0.00000000
1, 0.6101, 77, 0.00140381, -1.31652832, 0.10925293, -43.22720337, -36.26766968, -101.48198700, -32.32972717, -3.44928384, -109.47091675, 98.52906799, -0.65601158, 47.61443710, 0.59527928, -0.69475091, -0.30244285, -0.26738018, -0.01516965, 0.32782483, 0.03997711, 100.37400818, 79.46511078, 30.03999901, 0.00000000
1, 0.6151, 78, 0.01416016, -1.27947998, 0.02563477, -42.56220245, -36.93267059, -102.91698456, -32.65127182, -2.48465347, -109.61707306, 98.31698608, -0.11993312, 47.50712585, 0.59824979, -0.69270909, -0.30410281, -0.26414558, -0.01859936, 0.29014221, 0.11991455, 100.37400818, 79.46511078, 30.03999901, 0.00000000
1, 0.6098, 73, -0.62919658, -1.01969182, 0.30421993, 8.14500713, -4.46343231, 110.28262329, -39.84215164, 3.18620276, -113.97251892, 94.83930969, -28.35361862, 15.44683838, -0.62582982, 0.72969824, -0.06826951, 0.26686487, 0.15560409, 0.14115673, -0.23342375, 100.63200378, 57.84687805, 29.81999969, 0.00000000
1, 0.6148, 74, -0.58320242, -1.00554156, 0.27531180, 9.20185471, -2.07655001, 104.05172729, -39.84215164, 3.18620276, -113.97251892, 94.91591644, -28.87108231, 15.38564301, -0.62430507, 0.72966129, -0.07152296, 0.26967040, 0.10161741, 0.13151407, -0.20356327, 100.63200378, 57.84687805, 29.81999969, 0.00000000
1, 0.6198, 75, -0.46207958, -0.99226558, 0.24273683, 9.50956154, 0.07025139, 95.93182373, -41.30371094, 4.29698896, -114.00175476, 94.99295044, -29.34477425, 15.33662796, -0.62284058, 0.72965199, -0.07443523, 0.27228126, -0.02684667, 0.12248750, -0.16986585, 100.63200378, 57.84687805, 29.81999969, 0.00000000
1, 0.6501, 79, -0.10675049, -1.19671631, 0.22198486, -12.77719116, -39.66267014, -101.13198090, -31.01432228, -1.87079799, -109.73399353, 97.42935944, 3.65109372, 46.70730972, 0.61493659, -0.68119013, -0.31701800, -0.23944232, 0.16813721, 0.20702404, -0.09261867, 100.37400818, 79.46511078, 30.03999901, 0.00000000
1, 0.6551, 80, -0.06939697, -1.20507813, 0.23419189, -12.98719215, -43.23266983, -100.85198212, -29.93276787, -2.33849740, -109.82168579, 97.35418701, 4.17896414, 46.55746460, 0.61696714, -0.67989039, -0.31871614, -0.23562825, 0.13996762, 0.21582261, -0.10617693, 100.37400818, 79.46511078, 30.03999901, 0.00000000
1, 0.6248, 76, -0.25595737, -0.94046557, 0.23974188, 7.67807722, -0.56028157, 86.65127563, -41.30371094, 4.29698896, -114.00175476, 95.05512238, -29.77609062, 15.29062366, -0.62155420, 0.72958487, -0.07711039, 0.27464598, -0.23966521, 0.07455246, -0.16558585, 100.63200378, 57.84687805, 29.81999969, 0.00000000
1, 0.6298, 77, -0.03523780, -0.88985920, 0.20526937, 4.24119806, -6.57877016, 77.78852844, -42.32680511, 4.47237635, -114.35252380, 95.11573792, -30.16063690, 15.21372604, -0.62045527, 0.72951669, -0.07970804, 0.27656353, -0.46629328, 0.02751211, -0.12988001, 100.63200378, 57.84687805, 29.81999969, 0.00000000
1, 0.6601, 81, -0.03594971, -1.20886230, 0.20953369, -13.40719223, -47.57267380, -101.23699188, -29.93276787, -2.33849740, -109.82168579, 97.27381134, 4.71131086, 46.38546371, 0.61905992, -0.67860246, -0.32029703, -0.23167533, 0.11576372, 0.22012198, -0.08297689, 100.37400818, 79.46511078, 30.03999901, 0.00000000
1, 0.6651, 82, 0.00378418, -1.21228027, 0.20489502, -12.88219166, -52.47267151, -101.97198486, -29.87430573, -2.04618526, -110.31861877, 97.19229889, 5.25013876, 46.18863678, 0.62119764, -0.67735118, -0.32176468, -0.22754438, 0.08536970, 0.22414729, -0.07983948, 100.37400818, 79.46511078, 30.03999901, 0.00000000
1, 0.6701, 83, 0.05749512, -1.21740723, 0.21575928, -13.51219177, -57.26767349, -102.18198395, -29.87430573, -2.04618526, -110.31861877, 97.10340881, 5.79270363, 45.96707535, 0.62340736, -0.67610991, -0.32309401, -0.22326902, 0.04107642, 0.22996703, -0.09231008, 100.37400818, 79.46511078, 30.03999901, 0.00000000
1, 0.6498, 78, 0.13762657, -0.67301834, 0.16513461, 16.83285713, -61.06876755, 44.85258865, -42.50219345, 4.44314528, -114.08944702, 95.73321533, -31.23320198, 14.33007145, -0.61614895, 0.73115683, -0.09010254, 0.27866066, -0.65588546, -0.17855933, -0.08156282, 100.63200378, 57.84687805, 29.81999969, 0.00000000
1, 0.6548, 79, 0.04675039, -0.67394590, 0.18327530, 19.36146164, -80.81182861, 36.70843887, -43.14527893, 4.91084480, -113.79713440, 96.08627319, -31.37461853, 13.83786869, -0.61475831, 0.73251152, -0.09320992, 0.27714798, -0.56736410, -0.17575587, -0.09507035, 100.63200378, 57.84687805, 29.81999969, 0.00000000
1, 0.6598, 80, -0.07048513, -0.66845703, 0.14203794, 20.99556351, -91.58010101, 27.28234863, -43.14527893, 4.91084480, -113.79713440, 96.47862244, -31.46061707, 13.28724289, -0.61337614, 0.73406547, -0.09628473, 0.27504003, -0.45151439, -0.17965710, -0.04851976, 100.63200378, 57.84687805, 29.81999969, 0.00000000
1, 0.6648, 81, -0.18168275, -0.64712870, 0.13140669, 22.84758377, -96.93712616, 17.42163086, -43.14527893, 4.91084480, -113.79713440, 96.89399719, -31.49123001, 12.71102047, -0.61201924, 0.73576057, -0.09916382, 0.27249873, -0.34095246, -0.19986591, -0.03211550, 100.63200378, 57.84687805, 29.81999969, 0.00000000
1, 0.6698, 82, -0.28433412, -0.62236667, 0.15762745, 24.65556335, -101.59747314, 7.54302883, -43.78836441, 4.88161373, -113.73867035, 97.33213043, -31.46425438, 12.11277103, -0.61067784, 0.73760474, -0.10181937, 0.26952696, -0.23818524, -0.22399661, -0.05215397, 100.63200378, 57.84687805, 29.81999969, 0.00000000
1, 0.6751, 84, 0.08325195, -1.24951172, 0.22546387, -12.98719215, -61.36267853, -102.98698425, -29.87430573, -2.04618526, -110.31861877, 97.01284027, 6.34143305, 45.72449875, 0.62565023, -0.67489320, -0.32433200, -0.21883740, 0.02482122, 0.26285744, -0.10369552, 100.37400818, 79.46511078, 30.03999901, 0.00000000
1, 0.6801, 85, 0.11853027, -1.20532227, 0.26068115, -14.70219231, -69.37768555, -103.12698364, -29.23121834, -1.52002335, -110.31861877, 96.90659332, 6.89530993, 45.44076157, 0.62804049, -0.67368466, -0.32532972, -0.21418400, -0.00087586, 0.21953431, -0.14079164, 100.37400818, 79.46511078, 30.03999901, 0.00000000
1, 0.6851, 86, 0.12182617, -1.18878174, 0.25024414, -15.40219307, -73.71768188, -102.60198212, -29.23121834, -1.52002335, -110.31861877, 96.79122162, 7.44860840, 45.13357925, 0.63048887, -0.67248464, -0.32617658, -0.20942083, 0.00541691, 0.20393234, -0.13245374, 100.37400818, 79.46511078, 30.03999901, 0.00000000
1, 0.6901, 87, 0.12634277, -1.17633057, 0.22869873, -14.42219162, -76.34267426, -102.32198334, -28.38351250, -1.52002335, -110.61093140, 96.67581940, 8.00144196, 44.81156158, 0.63292366, -0.67131865, -0.32694182, -0.20456785, 0.01046705, 0.19251043, -0.11304837, 100.37400818, 79.46511078, 30.03999901, 0.00000000
1, 0.6951, 88, 0.09960938, -1.18127441, 0.29821777, -13.96719170, -78.93268585, -102.46198273, -28.38351250, -1.52002335, -110.61093140, 96.55752563, 8.55581760, 44.47506332, 0.63536322, -0.67016494, -0.32763335, -0.19962217, 0.04676767, 0.19858021, -0.18472926, 100.37400818, 79.46511078, 30.03999901, 0.00000000
1, 0.7251, 89, -0.08850098, -0.95446777, 0.16406250, -22.99719429, -68.01268005, -94.93698120, -27.41888237, -1.66617942, -111.25402069, 95.54647064, 11.73561668, 42.53385162, 0.65047652, -0.66152686, -0.33120731, -0.17194256, 0.28974518, -0.02041316, -0.06865498, 100.37400818, 79.46511078, 30.03999901, 0.00000000
1, 0.7301, 90, -0.07855225, -0.91998291, 0.15539551, -21.03719521, -65.17767334, -93.85198212, -27.85735130, -2.25080395, -111.57556152, 95.38191223, 12.23377991, 42.24789429, 0.65272141, -0.66005397, -0.33190432, -0.16769929, 0.28834170, -0.05338550, -0.06299853, 100.37400818, 79.46511078, 30.03999901, 0.00000000
1, 0.6748, 83, -0.34559691, -0.59964430, 0.21525934, 26.59177017, -105.10617828, -2.37986326, -43.78836441, 4.88161373, -113.73867035, 97.78247833, -31.38385582, 11.50400066, -0.60937500, 0.73955119, -0.10423297, 0.26619861, -0.17605866, -0.24655773, -0.10319377, 100.63200378, 57.84687805, 29.81999969, 0.00000000
1, 0.6798, 84, -0.39007148, -0.59094787, 0.25494173, 28.15088654, -106.77902985, -12.00882912, -44.05144501, 2.57234716, -112.86173248, 98.23979187, -31.25050354, 10.89475918, -0.60811269, 0.74158502, -0.10636052, 0.26256073, -0.12989339, -0.25546557, -0.13609639, 100.63200378, 57.84687805, 29.81999969, 0.00000000
1, 0.6848, 85, -0.42502221, -0.58660269, 0.26085317, 29.33905602, -104.43002319, -22.44856644, -44.05144501, 2.57234716, -112.86173248, 98.68868256, -31.06309319, 10.31024742, -0.60692888, 0.74365413, -0.10807246, 0.25872034, -0.09236068, -0.26039523, -0.13517570, 100.63200378, 57.84687805, 29.81999969, 0.00000000
1, 0.7351, 91, -0.07836914, -0.89978027, 0.14556885, -19.11219406, -61.71268082, -91.61197662, -27.85735130, -2.25080395, -111.57556152, 95.22774506, 12.71840477, 41.97659302, 0.65482807, -0.65862668, -0.33264133, -0.16358757, 0.29647714, -0.07202372, -0.05600825, 100.37400818, 79.46511078, 30.03999901, 0.00000000
1, 0.7401, 92, -0.06970215, -0.88616943, 0.13732910, -16.76719284, -58.45767593, -89.93197632, -27.68196487, -0.40923706, -112.01403046, 95.08624268, 13.19251251, 41.71935272, 0.65679294, -0.65725231, -0.33343211, -0.15957958, 0.29591820, -0.08401725, -0.05038394, 100.37400818, 79.46511078, 30.03999901, 0.00000000
1, 0.7451, 93, -0.04547119, -0.87835693, 0.12115479, -14.87719154, -55.90267181, -88.91697693, -27.68196487, -0.40923706, -112.01403046, 94.95468140, 13.65985107, 41.47309113, 0.65864491, -0.65591455, -0.33427283, -0.15564296, 0.27965218, -0.09015339, -0.03664111, 100.37400818, 79.46511078, 30.03999901, 0.00000000
1, 0.6898, 86, -0.42963985, -0.58894241, 0.25517267, 30.24999428, -96.85324860, -33.11069107, -44.05144501, 2.57234716, -112.86173248, 99.11122894, -30.82498550, 9.78190613, -0.60585910, 0.74569482, -0.10922529, 0.25484085, -0.08435224, -0.25906801, -0.12284413, 100.63200378, 57.84687805, 29.81999969, 0.00000000
1, 0.6948, 87, -0.40335405, -0.60828996, 0.25002539, 30.46333885, -87.97517395, -46.01131058, -44.10990906, 4.82315111, -112.33557129, 99.49871063, -30.52713203, 9.31996250, -0.60495621, 0.74768776, -0.10971938, 0.25090373, -0.10642408, -0.24122636, -0.11138691, 100.63200378, 57.84687805, 29.81999969, 0.00000000
1, 0.7501, 94, -0.01110840, -0.86798096, 0.10986328, -11.83219051, -53.27767181, -88.21697998, -27.68196487, -0.40923706, -112.01403046, 94.83919525, 14.12206554, 41.23846054, 0.66035295, -0.65464294, -0.33518261, -0.15175389, 0.25314265, -0.09878543, -0.02753604, 100.37400818, 79.46511078, 30.03999901, 0.00000000
1, 0.7551, 95, 0.00628662, -0.84985352, 0.11663818, -10.32719135, -52.68267441, -87.13197327, -26.24963379, -0.11692487, -112.01403046, 94.72970581, 14.57817268, 41.00501251, 0.66198879, -0.65341336, -0.33608171, -0.14788803, 0.24349713, -0.11511074, -0.03633858, 100.37400818, 79.46511078, 30.03999901, 0.00000000
1, 0.7601, 96, 0.00811768, -0.84368896, 0.11108398, -8.99719048, -52.26267242, -85.69697571, -26.24963379, -0.11692487, -112.01403046, 94.62511444, 15.02653885, 40.77176285, 0.66355836, -0.65222776, -0.33695406, -0.14405321, 0.24926640, -0.11943643, -0.03273193, 100.37400818, 79.46511078, 30.03999901, 0.00000000
1, 0.7348, 88, -0.39055428, -0.69407046, 0.20709860, 24.37572479, -52.22377777, -111.61071777, -43.58374786, 3.74159598, -111.04940033, 101.52378082, -26.69023323, 7.27732468, -0.60287821, 0.76135629, -0.09788004, 0.21747181, -0.06149319, -0.18068348, -0.03168121, 100.63200378, 57.84687805, 29.81999969, 0.00000000
1, 0.7398, 89, -0.38749608, -0.68665338, 0.19605811, 22.93249512, -49.08159637, -118.28250885, -43.58374786, 3.74159598, -111.04940033, 101.69766235, -26.06144524, 7.14078760, -0.60302800, 0.76291239, -0.09503116, 0.21281728, -0.05481855, -0.19226855, -0.01690986, 100.63200378, 57.84687805, 29.81999969, 0.00000000
1, 0.7651, 97, 0.03338623, -0.83898926, 0.10754395, -7.21218967, -51.49267578, -84.61197662, -26.60040855, 0.87693655, -111.51709747, 94.52828979, 15.46879387, 40.54074097, 0.66504627, -0.65109241, -0.33782256, -0.14024268, 0.23147216, -0.12225454, -0.03101605, 100.37400818, 79.46511078, 30.03999901, 0.00000000
1, 0.7701, 98, 0.06481934, -0.83917236, 0.10699463, -4.76218891, -51.24767303, -83.31698608, -26.60040855, 0.87693655, -111.51709747, 94.44188690, 15.90413857, 40.30923843, 0.66644084, -0.65003377, -0.33867016, -0.13643801, 0.20738631, -0.12014723, -0.03211913, 100.37400818, 79.46511078, 30.03999901, 0.00000000
1, 0.8251, 99, 0.22784424, -0.77099609, 0.12628174, 12.31781673, -45.36767197, -69.21197510, -25.37269783, 0.96463019, -112.33557129, 93.97531891, 20.21186447, 37.78718948, 0.67693543, -0.64231771, -0.34634748, -0.09607190, 0.11617902, -0.16570212, -0.06114971, 100.37400818, 79.46511078, 30.03999901, 0.00000000
1, 0.8301, 100, 0.24682617, -0.77319336, 0.12017822, 13.05281734, -45.08767319, -68.02198029, -23.99883080, 0.35077462, -111.78018188, 93.96575165, 20.56676674, 37.57238388, 0.67753172, -0.64186013, -0.34697461, -0.09260123, 0.10302666, -0.16136420, -0.05534981, 100.37400818, 79.46511078, 30.03999901, 0.00000000
1, 0.7448, 90, -0.38503566, -0.69190669, 0.17851180, 22.28107071, -46.66843796, -124.77146149, -43.02835464, 3.12774038, -110.66939545, 101.85674286, -25.40300369, 7.02743292, -0.60325015, 0.76442969, -0.09190612, 0.20806204, -0.04701516, -0.19132580, 0.00413794, 100.63200378, 57.84687805, 29.81999969, 0.00000000
1, 0.7498, 91, -0.36473769, -0.70256746, 0.16608453, 21.62753677, -44.42742157, -132.80680847, -43.02835464, 3.12774038, -110.66939545, 102.00120544, -24.70726395, 6.93784380, -0.60355449, 0.76591361, -0.08845698, 0.20315926, -0.05647280, -0.18514407, 0.01994279, 100.63200378, 57.84687805, 29.81999969, 0.00000000
1, 0.7548, 92, -0.34630352, -0.71510744, 0.15265423, 20.41527748, -42.58794403, -138.81153870, -41.04063034, 2.92312193, -110.49400330, 102.13066101, -23.98388672, 6.86731672, -0.60393637, 0.76734185, -0.08476628, 0.19814686, -0.06349080, -0.17721654, 0.03656829, 100.63200378, 57.84687805, 29.81999969, 0.00000000
1, 0.8351, 101, 0.26428223, -0.77838135, 0.10485840, 13.47281742, -45.57767105, -67.04197693, -23.99883080, 0.35077462, -111.78018188, 93.95578766, 20.91691589, 37.35404205, 0.67811096, -0.64142346, -0.34755701, -0.08913825, 0.09130962, -0.15402935, -0.04034140, 100.37400818, 79.46511078, 30.03999901, 0.00000000
1, 0.8401, 102, 0.28070068, -0.77966309, 0.09039307, 13.89281750, -46.10267258, -66.23697662, -23.96959877, 0.35077462, -112.04325867, 93.94535065, 21.26319504, 37.13201904, 0.67867458, -0.64100522, -0.34809852, -0.08567689, 0.08054551, -0.15059347, -0.02619321, 100.37400818, 79.46511078, 30.03999901, 0.00000000
1, 0.8451, 103, 0.30780029, -0.77972412, 0.07696533, 14.73281860, -46.97767258, -65.39696503, -23.96959877, 0.35077462, -112.04325867, 93.93584442, 21.60555458, 36.90442276, 0.67921621, -0.64061970, -0.34858936, -0.08220208, 0.05902842, -0.14836654, -0.01307309, 100.37400818, 79.46511078, 30.03999901, 0.00000000
1, 0.7598, 93, -0.33322528, -0.73968709, 0.11992887, 18.91620445, -40.79560089, -145.86534119, -41.04063034, 2.92312193, -110.49400330, 102.24381256, -23.22778320, 6.81645966, -0.60441071, 0.76870799, -0.08080216, 0.19299400, -0.06451878, -0.15735357, 0.07219920, 100.63200378, 57.84687805, 29.81999969, 0.00000000
1, 0.7648, 94, -0.32659137, -0.76151252, 0.10331632, 18.46165657, -39.69713974, -151.19635010, -41.04063034, 2.92312193, -110.49400330, 102.34864044, -22.44670486, 6.77939081, -0.60492206, 0.77003622, -0.07663076, 0.18772657, -0.05866293, -0.14030743, 0.09159207, 100.63200378, 57.84687805, 29.81999969, 0.00000000
1, 0.7698, 95, -0.30950314, -0.78142512, 0.12443054, 17.95137596, -39.72904968, -155.88760376, -40.57293320, 2.22157264, -110.08477020, 102.44685364, -21.64237213, 6.74959183, -0.60546589, 0.77132499, -0.07230124, 0.18232274, -0.06290263, -0.12523627, 0.07319841, 100.63200378, 57.84687805, 29.81999969, 0.00000000
1, 0.8501, 104, 0.31970215, -0.77770996, 0.07318115, 15.50281906, -48.34267426, -64.45196533, -24.49576187, 1.37386727, -112.30634308, 93.92583466, 21.94362450, 36.66852951, 0.67974514, -0.64026809, -0.34901157, -0.07870436, 0.05262721, -0.14820887, -0.00959657, 100.37400818, 79.46511078, 30.03999901, 0.00000000
1, 0.8551, 105, 0.33544922, -0.77893066, 0.06195068, 16.16781807, -49.81267548, -62.98197556, -24.49576187, 1.37386727, -112.30634308, 93.91447449, 22.27482986, 36.42356873, 0.68026400, -0.63995540, -0.34934700, -0.07519805, 0.04226965, -0.14482521, 0.00130653, 100.37400818, 79.46511078, 30.03999901, 0.00000000
1, 0.8601, 106, 0.35400391, -0.78234863, 0.04699707, 16.34281731, -50.72267151, -61.05696869, -24.49576187, 1.37386727, -112.30634308, 93.90029144, 22.59669113, 36.17233658, 0.68077689, -0.63967216, -0.34959781, -0.07171983, 0.02894072, -0.13927817, 0.01589623, 100.37400818, 79.46511078, 30.03999901, 0.00000000
1, 0.7748, 96, -0.29696241, -0.80061257, 0.14867219, 16.50498772, -41.59790802, -159.83958435, -40.57293320, 2.22157264, -110.08477020, 102.53961945, -20.81697083, 6.71581459, -0.60604715, 0.77256739, -0.06789863, 0.17673811, -0.06217749, -0.11086740, 0.05157483, 100.63200378, 57.84687805, 29.81999969, 0.00000000
1, 0.7798, 97, -0.29263628, -0.82543409, 0.14652625, 15.09898281, -43.75659943, -163.30824280, -39.60830307, 1.57848585, -110.26015472, 102.62682343, -19.97225952, 6.67636919, -0.60666400, 0.77375782, -0.06344377, 0.17097531, -0.05277406, -0.09076399, 0.05622511, 100.63200378, 57.84687805, 29.81999969, 0.00000000
1, 0.8248, 98, -0.20282400, -0.98476744, 0.17624229, -2.15477276, -58.84784698, -179.39706421, -35.63285446, 0.23384975, -109.58783722, 102.99264526, -11.79649448, 6.21309328, -0.61400115, 0.78074825, -0.02169697, 0.11386013, -0.00606942, 0.03148733, 0.04150759, 100.63200378, 57.84687805, 29.81999969, 0.00000000
1, 0.8298, 99, -0.20769280, -0.99721265, 0.18828264, -4.37781572, -63.09832764, -178.69894409, -34.40514374, -0.05846244, -108.91551971, 102.99017334, -10.85517883, 6.10284424, -0.61497176, 0.78107631, -0.01733477, 0.10690787, 0.01486265, 0.04070435, 0.03017222, 100.63200378, 57.84687805, 29.81999969, 0.00000000
1, 0.8651, 107, 0.37438965, -0.78045654, 0.02764893, 16.72781944, -53.48767471, -58.74696732, -24.29114342, 1.19848001, -112.39403534, 93.88037872, 22.90789795, 35.90460968, 0.68130559, -0.63943624, -0.34969887, -0.06822630, 0.01361886, -0.13907976, 0.03480655, 100.37400818, 79.46511078, 30.03999901, 0.00000000
1, 0.8701, 108, 0.39044189, -0.78619385, 0.00988770, 16.51781845, -55.58767700, -56.61196899, -24.29114342, 1.19848001, -112.39403534, 93.85305023, 23.20905495, 35.62397385, 0.68185717, -0.63922489, -0.34967288, -0.06473999, 0.00244790, -0.13130407, 0.05202646, 100.37400818, 79.46511078, 30.03999901, 0.00000000
1, 0.9051, 109, 0.43475342, -0.77789307, -0.06097412, 15.92281914, -70.56768036, -41.42196274, -23.94036865, 1.37386727, -111.40017700, 93.43486786, 25.04157448, 33.23226547, 0.68647403, -0.63848913, -0.34564781, -0.04015796, -0.01237041, -0.12687668, 0.11559337, 100.37400818, 79.46511078, 30.03999901, 0.00000000
1, 0.9101, 110, 0.44482422, -0.78125000, -0.05889893, 15.46781921, -69.58768463, -39.39196396, -23.94036865, 1.37386727, -111.40017700, 93.35459900, 25.25879669, 32.86145020, 0.68715733, -0.63847613, -0.34468582, -0.03680587, -0.01896456, -0.12196952, 0.11216141, 100.37400818, 79.46511078, 30.03999901, 0.00000000
1, 0.9151, 111, 0.44592285, -0.78906250, -0.05493164, 14.62781811, -68.60767365, -37.15196228, -23.99883080, 1.08155513, -112.13095093, 93.27050781, 25.46406937, 32.49434280, 0.68783718, -0.63846236, -0.34368524, -0.03356041, -0.01677584, -0.11268136, 0.10679686, 100.37400818, 79.46511078, 30.03999901, 0.00000000
1, 0.8348, 100, -0.22357869, -0.99085796, 0.16537730, -6.62503910, -65.33072662, -177.91734314, -34.40514374, -0.05846244, -108.91551971, 102.97683716, -9.91522694, 5.98086596, -0.61597115, 0.78130054, -0.01306859, 0.09989184, 0.04693870, 0.03139829, 0.05354982, 100.63200378, 57.84687805, 29.81999969, 0.00000000
1, 0.8398, 101, -0.22305405, -0.99162388, 0.15971100, -7.72527742, -65.29512024, -176.88598633, -34.40514374, -0.05846244, -108.91551971, 102.95617676, -8.98039246, 5.85794544, -0.61696172, 0.78144121, -0.00884070, 0.09289739, 0.06253625, 0.02942197, 0.05951416, 100.63200378, 57.84687805, 29.81999969, 0.00000000
1, 0.8448, 102, -0.21810894, -0.99497259, 0.16697867, -8.66347790, -66.86362457, -175.71965027, -33.11896896, -1.05232382, -109.17860413, 102.93020630, -8.04956150, 5.72591877, -0.61793703, 0.78150964, -0.00469805, 0.08587442, 0.07364388, 0.03025357, 0.05239375, 100.63200378, 57.84687805, 29.81999969, 0.00000000
1, 0.9201, 112, 0.44226074, -0.78985596, -0.05010986, 13.64781761, -67.17267609, -35.29696274, -23.99883080, 1.08155513, -112.13095093, 93.18311310, 25.65917778, 32.13364792, 0.68851209, -0.63843745, -0.34267062, -0.03042491, -0.01000108, -0.11048217, 0.10052772, 100.37400818, 79.46511078, 30.03999901, 0.00000000
1, 0.9251, 113, 0.43127441, -0.78826904, -0.05114746, 12.56281757, -65.49267578, -33.61695862, -24.55422401, 0.49693072, -111.57556152, 93.09263611, 25.84493828, 31.78083420, 0.68918234, -0.63839579, -0.34165442, -0.02740256, 0.00393941, -0.11072710, 0.10007682, 100.37400818, 79.46511078, 30.03999901, 0.00000000
1, 0.9301, 114, 0.42254639, -0.78594971, -0.06445313, 11.72281647, -63.49768066, -32.46195984, -24.55422401, 0.49693072, -111.57556152, 93.00126648, 26.02389145, 31.43788338, 0.68983775, -0.63833714, -0.34066150, -0.02448275, 0.01550343, -0.11174870, 0.11187861, 100.37400818, 79.46511078, 30.03999901, 0.00000000
1, 0.8498, 103, -0.22708601, -1.00526893, 0.16656139, -10.19315815, -69.48593903, -174.39564514, -33.11896896, -1.05232382, -109.17860413, 102.89641571, -7.12235785, 5.57932329, -0.61891735, 0.78149396, -0.00067684, 0.07879194, 0.09867074, 0.03828006, 0.05273026, 100.63200378, 57.84687805, 29.81999969, 0.00000000
1, 0.8548, 104, -0.23401523, -1.02127671, 0.14974429, -11.77023506, -71.16456604, -173.22378540, -31.83279800, -2.01695418, -109.52937317, 102.85356140, -6.19913340, 5.42284775, -0.61990559, 0.78138894, 0.00325350, 0.07167879, 0.12165678, 0.05227125, 0.06924848, 100.63200378, 57.84687805, 29.81999969, 0.00000000
1, 0.8598, 105, -0.23942925, -1.03928685, 0.13834970, -12.81470203, -72.70587158, -171.77505493, -31.83279800, -2.01695418, -109.52937317, 102.80395508, -5.28140831, 5.25672913, -0.62088364, 0.78120869, 0.00708918, 0.06454779, 0.14305538, 0.06848773, 0.08015835, 100.63200378, 57.84687805, 29.81999969, 0.00000000
1, 0.9351, 115, 0.42669678, -0.77966309, -0.07507324, 10.49781609, -58.94767380, -31.41196251, -24.55422401, 0.49693072, -111.57556152, 92.91345978, 26.19595146, 31.11911011, 0.69045216, -0.63824636, -0.33977184, -0.02173926, 0.01407633, -0.11677752, 0.12103561, 100.37400818, 79.46511078, 30.03999901, 0.00000000
1, 0.9401, 116, 0.42761230, -0.77575684, -0.07989502, 10.53281593, -55.51767349, -31.13196564, -23.99883080, -1.16924870, -111.83864594, 92.83306885, 26.36533165, 30.81860542, 0.69100869, -0.63815224, -0.33897486, -0.01909902, 0.01582170, -0.11943932, 0.12449966, 100.37400818, 79.46511078, 30.03999901, 0.00000000
1, 0.8648, 106, -0.25218448, -1.05447531, 0.13505366, -13.46377945, -74.30853271, -169.07090759, -31.83279800, -2.01695418, -109.52937317, 102.74946594, -4.37527704, 5.07918930, -0.62183547, 0.78096485, 0.01078694, 0.05743164, 0.17161408, 0.08211282, 0.08280053, 100.63200378, 57.84687805, 29.81999969, 0.00000000
1, 0.8698, 107, -0.26546249, -1.05220163, 0.15537095, -15.00273514, -78.80857086, -166.42449951, -31.07278633, -1.43232965, -109.90938568, 102.68525696, -3.48029470, 4.87616634, -0.62280005, 0.78063548, 0.01425204, 0.05025238, 0.20049238, 0.07846256, 0.06166586, 100.63200378, 57.84687805, 29.81999969, 0.00000000
1, 0.9751, 117, 0.60430908, -0.76995850, -0.10119629, 13.22781658, -45.47266769, -30.04696274, -23.82344246, 0.90616781, -112.30634308, 92.44459534, 27.53049660, 29.04318047, 0.69360203, -0.63760900, -0.33521071, -0.00218406, -0.14270347, -0.11631097, 0.13922495, 100.37400818, 79.46511078, 30.03999901, 0.00000000
1, 0.9801, 118, 0.61016846, -0.77496338, -0.09429932, 12.87781715, -46.48767471, -29.03196144, -23.82344246, 0.90616781, -112.30634308, 92.39072418, 27.68533134, 28.78801727, 0.69392449, -0.63757658, -0.33461174, 0.00017625, -0.14614709, -0.11008038, 0.13146360, 100.37400818, 79.46511078, 30.03999901, 0.00000000
1, 0.9298, 108, -0.22878452, -1.03752053, 0.17716637, -24.07432938, -93.15283966, -112.98603821, -26.01578522, -2.33849740, -110.72785950, 101.34212494, 5.98084974, 1.57569635, -0.63340390, 0.77193916, 0.04368165, -0.03164743, 0.32977074, 0.06195457, 0.01689069, 100.63200378, 57.84687805, 29.81999969, 0.00000000
1, 0.9348, 109, -0.24010037, -1.02114391, 0.19089216, -24.81469727, -92.23472595, -106.47006226, -26.01578522, -2.33849740, -110.72785950, 101.17822266, 6.59212589, 1.22417581, -0.63426578, 0.77090079, 0.04474044, -0.03764814, 0.35181099, 0.04613705, 0.00017922, 100.63200378, 57.84687805, 29.81999969, 0.00000000
1, 0.9851, 119, 0.60040283, -0.77740479, -0.08850098, 12.35281754, -48.02767181, -27.66696358, -23.82344246, 0.90616781, -112.30634308, 92.32920837, 27.83344078, 28.52332115, 0.69427961, -0.63754433, -0.33392614, 0.00253041, -0.13406503, -0.10646085, 0.12469684, 100.37400818, 79.46511078, 30.03999901, 0.00000000
1, 0.9901, 120, 0.59008789, -0.78149414, -0.08416748, 11.86281681, -49.28767395, -25.95196152, -23.85267448, 0.26308095, -112.27710724, 92.26087189, 27.97296906, 28.25056648, 0.69466275, -0.63751811, -0.33315265, 0.00486051, -0.12156209, -0.10125700, 0.11928947, 100.37400818, 79.46511078, 30.03999901, 0.00000000
1, 0.9951, 121, 0.57519531, -0.78314209, -0.07849121, 10.95281601, -50.75767517, -24.13196182, -23.85267448, 0.26308095, -112.27710724, 92.18305206, 28.10338211, 27.96854401, 0.69508880, -0.63748646, -0.33228213, 0.00716308, -0.10462347, -0.09856714, 0.11241032, 100.37400818, 79.46511078, 30.03999901, 0.00000000
1, 0.9398, 110, -0.23508587, -0.99414420, 0.21710593, -25.51604271, -91.43821716, -99.22140503, -26.01578522, -2.33849740, -110.72785950, 101.00665283, 7.16603279, 0.86741543, -0.63513726, 0.76983005, 0.04557728, -0.04341825, 0.35684311, 0.01969807, -0.02909163, 100.63200378, 57.84687805, 29.81999969, 0.00000000
1, 0.9448, 111, -0.23159610, -0.96858823, 0.21747901, -26.10252571, -91.24088287, -91.63796234, -25.81116676, -1.08155513, -111.42940521, 100.82775116, 7.70141554, 0.50224543, -0.63601977, 0.76873261, 0.04616464, -0.04896851, 0.36278802, -0.00525619, -0.03265583, 100.63200378, 57.84687805, 29.81999969, 0.00000000
1, 0.9498, 112, -0.23657894, -0.95111811, 0.20447722, -25.67266464, -89.78205872, -84.00234222, -25.81116676, -1.08155513, -111.42940521, 100.64754486, 8.19680119, 0.13505088, -0.63688052, 0.76764184, 0.04653439, -0.05425703, 0.37654275, -0.02210928, -0.02292648, 100.63200378, 57.84687805, 29.81999969, 0.00000000
1, 0.9548, 113, -0.23911862, -0.94107449, 0.19788091, -24.64995384, -87.40614319, -76.63282013, -25.28500366, -2.68927217, -110.84477997, 100.46998596, 8.65266800, -0.22909722, -0.63770080, 0.76657879, 0.04672008, -0.05926152, 0.38714167, -0.03155448, -0.01956268, 100.63200378, 57.84687805, 29.81999969, 0.00000000
1, 0.9598, 114, -0.23997015, -0.93138433, 0.19892605, -23.37726784, -85.16226196, -69.47994995, -25.28500366, -2.68927217, -110.84477997, 100.29656982, 9.07025146, -0.59036672, -0.63847560, 0.76555252, 0.04672502, -0.06399284, 0.39535815, -0.04067524, -0.02375764, 100.63200378, 57.84687805, 29.81999969, 0.00000000
1, 0.9648, 115, -0.24505988, -0.91554713, 0.19536871, -22.56385803, -83.19844055, -62.43305588, -25.28500366, -2.68927217, -110.84477997, 100.12512207, 9.45035839, -0.94978917, -0.63922369, 0.76455176, 0.04654635, -0.06846227, 0.40716565, -0.05596947, -0.02329558, 100.63200378, 57.84687805, 29.81999969, 0.00000000
1, 1.0001, 122, 0.54876709, -0.78192139, -0.07073975, 10.18281651, -52.05266953, -22.06696129, -24.11575508, 1.19848001, -111.63402557, 92.09692383, 28.22336197, 27.67820549, 0.69555122, -0.63745701, -0.33131298, 0.00942784, -0.07630765, -0.09882821, 0.10332628, 100.37400818, 79.46511078, 30.03999901, 0.00000000
1, 1.0051, 123, 0.50720215, -0.77429199, -0.06359863, 9.27281570, -52.64767456, -19.93195915, -24.11575508, 1.19848001, -111.63402557, 92.00369263, 28.33237648, 27.38354111, 0.69604397, -0.63742661, -0.33026475, 0.01163113, -0.03302496, -0.10558616, 0.09474468, 100.37400818, 79.46511078, 30.03999901, 0.00000000
1, 1.0101, 124, 0.47247314, -0.76739502, -0.06799316, 8.53781509, -52.92767334, -17.51695824, -24.11575508, 1.19848001, -111.63402557, 91.90508270, 28.42894173, 27.08631706, 0.69655836, -0.63740462, -0.32913920, 0.01375819, 0.00326113, -0.11169463, 0.09762584, 100.37400818, 79.46511078, 30.03999901, 0.00000000
1, 0.9698, 116, -0.25857875, -0.89624906, 0.18097337, -21.64208603, -81.40440369, -55.53180313, -25.78193474, -0.87693655, -111.42940521, 99.95697021, 9.78155804, -1.30727565, -0.63994753, 0.76359034, 0.04611845, -0.07259487, 0.42668459, -0.07476817, -0.01194398, 100.63200378, 57.84687805, 29.81999969, 0.00000000
1, 0.9748, 117, -0.28985384, -0.86350489, 0.17315970, -20.04733086, -79.07908630, -47.29446793, -25.78193474, -0.87693655, -111.42940521, 99.79492188, 10.08152485, -1.66210186, -0.64062423, 0.76267529, 0.04554145, -0.07650656, 0.46325028, -0.10708344, -0.00709184, 100.63200378, 57.84687805, 29.81999969, 0.00000000
1, 1.0151, 125, 0.42517090, -0.75463867, -0.08593750, 7.48781443, -53.48767471, -14.01695728, -24.61268616, 0.64308679, -111.57556152, 91.79880524, 28.50763702, 26.78483009, 0.69710785, -0.63739687, -0.32789794, 0.01577930, 0.05181418, -0.12382644, 0.11393724, 100.37400818, 79.46511078, 30.03999901, 0.00000000
1, 1.0201, 126, 0.38696289, -0.74371338, -0.10180664, 7.76781559, -53.45267487, -11.95195675, -24.61268616, 0.64308679, -111.57556152, 91.69333649, 28.57551003, 26.48280716, 0.69764632, -0.63742346, -0.32659817, 0.01774053, 0.09110267, -0.13421525, 0.12815911, 100.37400818, 79.46511078, 30.03999901, 0.00000000
1, 1.0148, 118, -0.53554189, -0.69815004, 0.24096707, -7.53535795, -52.38130951, 3.30723524, -24.81730461, -0.46769950, -111.42940521, 98.82077789, 11.20779705, -4.16021824, -0.64440906, 0.75756794, 0.03606157, -0.09760907, 0.72924244, -0.27152914, -0.09265769, 100.63200378, 57.84687805, 29.81999969, 0.00000000
1, 1.0198, 119, -0.55190933, -0.67185605, 0.22264966, -5.42218304, -46.40639877, 9.13625526, -25.31423569, -1.49079216, -111.78018188, 98.75590515, 11.14613533, -4.39677954, -0.64468461, 0.75730228, 0.03420363, -0.09851474, 0.74518234, -0.29807806, -0.07556696, 100.63200378, 57.84687805, 29.81999969, 0.00000000
1, 1.0248, 120, -0.56313056, -0.65925455, 0.21212339, -2.82694244, -39.26251602, 14.32101059, -25.31423569, -1.49079216, -111.78018188, 98.70166016, 11.10478401, -4.60555172, -0.64489621, 0.75707537, 0.03263621, -0.09940221, 0.75541204, -0.31100315, -0.06594396, 100.63200378, 57.84687805, 29.81999969, 0.00000000
1, 1.0298, 121, -0.56626582, -0.65252388, 0.22125745, -0.68500912, -32.72951508, 20.12791443, -25.92809105, 0.02923122, -110.90324402, 98.66389465, 11.02970791, -4.78574562, -0.64505041, 0.75694335, 0.03105217, -0.09991334, 0.75740325, -0.31807351, -0.07574501, 100.63200378, 57.84687805, 29.81999969, 0.00000000
1, 1.0348, 122, -0.56916094, -0.64369047, 0.22411475, 1.05224478, -28.32760048, 24.59224701, -25.92809105, 0.02923122, -110.90324402, 98.63872528, 10.92920494, -4.94705868, -0.64515853, 0.75688362, 0.02943742, -0.10015561, 0.75868249, -0.32729721, -0.07904971, 100.63200378, 57.84687805, 29.81999969, 0.00000000
1, 1.0551, 127, 0.16137695, -0.66870117, -0.00360107, 16.65781784, -28.67266655, 1.10304797, -25.48962212, 0.49693072, -112.01403046, 91.29338837, 28.79401779, 24.74510002, 0.69949508, -0.63925838, -0.31818089, 0.02857229, 0.32030526, -0.20742244, 0.02334163, 100.37400818, 79.46511078, 30.03999901, 0.00000000
1, 1.0601, 128, 0.14050293, -0.65856934, 0.01300049, 18.16281891, -21.77766228, 3.48304892, -25.48962212, 0.49693072, -112.01403046, 91.32416534, 28.77909470, 24.62043190, 0.69929469, -0.63983339, -0.31739613, 0.02932554, 0.34100062, -0.21764416, 0.00710720, 100.37400818, 79.46511078, 30.03999901, 0.00000000
1, 1.0651, 129, 0.13049316, -0.65057373, 0.02252197, 20.08781815, -14.95266056, 5.82804966, -25.78193474, 1.11078632, -111.34171295, 91.38317108, 28.75172615, 24.53437805, 0.69894803, -0.64050746, -0.31675124, 0.02984331, 0.35063857, -0.22582516, -0.00161382, 100.37400818, 79.46511078, 30.03999901, 0.00000000
1, 1.0701, 130, 0.12738037, -0.64294434, 0.03472900, 22.15282059, -8.47765827, 8.20805073, -25.78193474, 1.11078632, -111.34171295, 91.47015381, 28.71174431, 24.48488426, 0.69845641, -0.64128512, -0.31623423, 0.03013604, 0.35318789, -0.23373345, -0.01258930, 100.37400818, 79.46511078, 30.03999901, 0.00000000
1, 1.0751, 131, 0.13464355, -0.63757324, 0.04071045, 24.25282097, -2.45765686, 10.79805088, -25.66501045, 0.90616781, -111.80941010, 91.58390045, 28.65809631, 24.46924210, 0.69782537, -0.64216954, -0.31582505, 0.03021033, 0.34515834, -0.23948091, -0.01692166, 100.37400818, 79.46511078, 30.03999901, 0.00000000
1, 1.0398, 123, -0.56631184, -0.63103402, 0.24197237, 3.48956537, -22.72857094, 30.23292160, -25.92809105, 0.02923122, -110.90324402, 98.63066864, 10.79663372, -5.08434439, -0.64520139, 0.75692266, 0.02778399, -0.10005713, 0.75362456, -0.34042260, -0.09700042, 100.63200378, 57.84687805, 29.81999969, 0.00000000
1, 1.0448, 124, -0.55955493, -0.62031806, 0.25886750, 5.00415516, -20.48951912, 34.75368500, -25.72347260, 0.05846244, -111.54633331, 98.63206482, 10.64005661, -5.21369839, -0.64520884, 0.75701767, 0.02603799, -0.09975894, 0.74424022, -0.35165387, -0.11380100, 100.63200378, 57.84687805, 29.81999969, 0.00000000
1, 1.0498, 125, -0.55810499, -0.60875869, 0.27379221, 6.55273628, -18.14323044, 39.17142487, -25.72347260, 0.05846244, -111.54633331, 98.64317322, 10.45993137, -5.33453798, -0.64517921, 0.75716931, 0.02420570, -0.09926035, 0.73976558, -0.36376792, -0.12847415, 100.63200378, 57.84687805, 29.81999969, 0.00000000
1, 1.0801, 132, 0.15057373, -0.63531494, 0.05773926, 26.59782028, 2.93234515, 14.43805122, -25.66501045, 0.90616781, -111.80941010, 91.72374725, 28.58550835, 24.48355675, 0.69705814, -0.64318162, -0.31547439, 0.03005505, 0.32820481, -0.24223983, -0.03188844, 100.37400818, 79.46511078, 30.03999901, 0.00000000
1, 1.0851, 133, 0.17181396, -0.64434814, 0.05334473, 28.76782417, 7.23734713, 17.37805367, -25.25577354, -0.05846244, -110.93247223, 91.88576508, 28.49751663, 24.52161598, 0.69617319, -0.64430457, -0.31516868, 0.02971929, 0.30567214, -0.23383728, -0.02511566, 100.37400818, 79.46511078, 30.03999901, 0.00000000
1, 1.0901, 134, 0.27655029, -0.70166016, 0.01556396, 30.90282249, 15.63734913, 19.40805435, -25.25577354, -0.05846244, -110.93247223, 92.08078003, 28.39781952, 24.60666466, 0.69511360, -0.64552951, -0.31505752, 0.02911502, 0.19942494, -0.17724563, 0.01560266, 100.37400818, 79.46511078, 30.03999901, 0.00000000
1, 1.0548, 126, -0.56084007, -0.60429716, 0.28391269, 8.19962978, -15.13128090, 43.46356201, -26.68810272, -0.70154923, -111.83864594, 98.66513062, 10.25640583, -5.44346476, -0.64510751, 0.75738227, 0.02230964, -0.09854288, 0.73908162, -0.36881244, -0.13817301, 100.63200378, 57.84687805, 29.81999969, 0.00000000
1, 1.0598, 127, -0.56400639, -0.59638441, 0.27964535, 9.94787216, -11.69817448, 47.65929794, -26.68810272, -0.70154923, -111.83864594, 98.69876099, 10.02963829, -5.53834915, -0.64498949, 0.75766033, 0.02036442, -0.09759512, 0.73846364, -0.37731379, -0.13327830, 100.63200378, 57.84687805, 29.81999969, 0.00000000
1, 1.0951, 135, 0.44512939, -0.77612305, -0.06994629, 29.88782120, 21.90235138, 18.60305214, -25.25577354, -0.05846244, -110.93247223, 92.28735352, 28.30069733, 24.72698784, 0.69399315, -0.64671850, -0.31515932, 0.02834465, 0.02933718, -0.10348047, 0.10427412, 100.37400818, 79.46511078, 30.03999901, 0.00000000
1, 1.1001, 136, 0.64965820, -0.86840820, -0.15942383, 30.48282433, 27.53735352, 16.85305405, -25.54808426, 0.87693655, -111.48786926, 92.51181030, 28.21074295, 24.87915993, 0.69277382, -0.64790612, -0.31547934, 0.02747635, -0.17660475, -0.01181668, 0.19715720, 100.37400818, 79.46511078, 30.03999901, 0.00000000
1, 1.1248, 128, -0.43322363, -0.67246318, -0.00403328, -28.97418594, -159.22538757, 80.88233948, -27.85735130, -1.72464192, -111.25402069, 98.53236389, 6.42263412, -5.86758041, -0.64849484, 0.75743860, -0.00221528, -0.07573859, 0.54633999, -0.30997559, 0.15020041, 100.63200378, 57.84687805, 29.81999969, 0.00000000
1, 1.1298, 129, -0.55649966, -0.39767808, 0.37576821, 5.75099325, -141.32098389, 86.08983612, -29.55276108, -0.64308679, -111.66325378, 98.47848511, 6.10004520, -6.63402605, -0.64855319, 0.75711221, -0.00908258, -0.07795801, 0.66329372, -0.58626008, -0.23127396, 100.63200378, 57.84687805, 29.81999969, 0.00000000
1, 1.1401, 137, 0.75665283, -1.55432129, -0.08233643, 9.20281601, -33.15266800, 8.52305031, -24.93422890, -0.87693655, -109.88014984, 94.04683685, 27.99365234, 24.95210838, 0.68406856, -0.65752631, -0.31435072, 0.02988379, -0.28715026, 0.67360830, 0.14488101, 100.37400818, 79.46511078, 30.03999901, 0.00000000
1, 1.1451, 138, 0.57562256, -1.21228027, -0.24444580, -1.54218805, -24.96266556, 10.79805088, -24.93422890, -0.87693655, -109.88014984, 93.97099304, 27.94852448, 24.80685997, 0.68446881, -0.65759534, -0.31329766, 0.03025651, -0.10675041, 0.33115482, 0.30589873, 100.37400818, 79.46511078, 30.03999901, 0.00000000
1, 1.1348, 130, -0.74359006, -0.50353825, 0.67291707, 52.71426010, -96.33587646, 95.04688263, -29.55276108, -0.64308679, -111.66325378, 98.68662262, 5.70157814, -7.18332291, -0.64707738, 0.75822985, -0.01512551, -0.07842075, 0.84307343, -0.48119485, -0.52647293, 100.63200378, 57.84687805, 29.81999969, 0.00000000
1, 1.1398, 131, -0.94690138, -0.98192346, 0.53788364, 73.93552399, -42.21222305, 95.64617157, -30.86816597, -1.11078632, -111.40017700, 99.03034210, 5.26187706, -7.46594000, -0.64491355, 0.76010442, -0.01972762, -0.07706392, 1.03917933, -0.00246375, -0.38709247, 100.63200378, 57.84687805, 29.81999969, 0.00000000
1, 1.1448, 132, -0.94336069, -1.10704017, 0.30225047, 60.53461075, 3.38544178, 79.02699280, -30.86816597, -1.11078632, -111.40017700, 99.32997131, 4.86977386, -7.51168346, -0.64316136, 0.76175010, -0.02244852, -0.07467495, 1.02919769, 0.12327095, -0.14618343, 100.63200378, 57.84687805, 29.81999969, 0.00000000
1, 1.1501, 139, 0.33502197, -0.98669434, -0.31390381, -5.49718904, -6.58765888, 15.80305386, -25.60654831, -0.67231804, -110.08477020, 93.92321014, 27.87196732, 24.76351547, 0.68473732, -0.65763825, -0.31265464, 0.02989840, 0.13280889, 0.10495732, 0.37451673, 100.37400818, 79.46511078, 30.03999901, 0.00000000
1, 1.1551, 140, 0.02795410, -0.76416016, -0.44207764, -5.84718943, 21.58735085, 24.37805748, -25.60654831, -0.67231804, -110.08477020, 93.94634247, 27.74297142, 24.87580872, 0.68464178, -0.65782344, -0.31260750, 0.02847078, 0.43813211, -0.11849630, 0.50274765, 100.37400818, 79.46511078, 30.03999901, 0.00000000
1, 1.1601, 141, -0.02978516, -0.64581299, -0.49157715, 3.42781353, 43.42735672, 32.39305878, -25.69424057, -0.84770536, -110.08477020, 94.07105255, 27.56622887, 25.10758018, 0.68398929, -0.65841973, -0.31297001, 0.02630329, 0.49327081, -0.23809567, 0.55391228, 100.37400818, 79.46511078, 30.03999901, 0.00000000
1, 1.1498, 133, -0.60569704, -0.87455678, 0.18212232, 38.44123840, 71.50102997, 65.89440918, -30.86816597, -1.11078632, -111.40017700, 99.54745483, 4.48706102, -7.21136379, -0.64215600, 0.76299429, -0.02274790, -0.07041294, 0.68510687, -0.10888118, -0.02057171, 100.63200378, 57.84687805, 29.81999969, 0.00000000
1, 1.1548, 134, -0.21859021, -0.70774078, 0.19714892, 21.49339104, 62.97859192, 60.75434113, -31.01432228, -0.90616781, -110.75708771, 99.67534637, 4.13566113, -6.95027781, -0.64167893, 0.76372874, -0.02306446, -0.06659313, 0.29170418, -0.27576005, -0.03168999, 100.63200378, 57.84687805, 29.81999969, 0.00000000
1, 1.1598, 135, 0.04752952, -0.67380404, 0.04276958, 5.77904510, 35.04064560, 56.64304352, -31.01432228, -0.90616781, -110.75708771, 99.71371460, 3.82726026, -6.82446718, -0.64167845, 0.76393652, -0.02398323, -0.06383229, 0.02040067, -0.30965891, 0.12449743, 100.63200378, 57.84687805, 29.81999969, 0.00000000
1, 1.1651, 142, 0.00286865, -0.60113525, -0.42913818, 17.98781776, 52.91236115, 36.03305817, -25.69424057, -0.84770536, -110.08477020, 94.29133606, 27.36726952, 25.39017296, 0.68278837, -0.65950656, -0.31349218, 0.02395332, 0.45760745, -0.28411713, 0.49462280, 100.37400818, 79.46511078, 30.03999901, 0.00000000
1, 1.1701, 143, 0.05255127, -0.62377930, -0.28448486, 29.71282196, 60.33236694, 38.27306366, -25.69424057, -0.84770536, -110.08477020, 94.58722687, 27.15313530, 25.71184731, 0.68114430, -0.66097456, -0.31415552, 0.02148323, 0.40466493, -0.26282158, 0.35441393, 100.37400818, 79.46511078, 30.03999901, 0.00000000
1, 1.1751, 144, 0.06768799, -0.64575195, -0.17028809, 34.89282227, 67.99736786, 41.21306610, -25.81116676, -1.19848001, -109.79245758, 94.92588043, 26.91958046, 26.07304382, 0.67923963, -0.66263551, -0.31495279, 0.01877541, 0.38598382, -0.24223840, 0.24546884, 100.37400818, 79.46511078, 30.03999901, 0.00000000
1, 1.1648, 136, 0.20945466, -0.69945669, -0.21188769, -3.88473392, 18.19740868, 51.03665924, -30.86816597, -3.59543991, -110.66939545, 99.69796753, 3.56041551, -6.77728462, -0.64196306, 0.76382673, -0.02516145, -0.06179832, -0.14570186, -0.28391743, 0.37947166, 100.63200378, 57.84687805, 29.81999969, 0.00000000
1, 1.1801, 145, 0.03765869, -0.64239502, -0.09674072, 36.18782425, 76.92237091, 45.30806732, -25.81116676, -1.19848001, -109.79245758, 95.29005432, 26.65969467, 26.47959137, 0.67716742, -0.66438782, -0.31589010, 0.01570567, 0.41207179, -0.24709505, 0.17765345, 100.37400818, 79.46511078, 30.03999901, 0.00000000
1, 1.1851, 146, 0.01110840, -0.62878418, -0.04229736, 36.60782623, 84.90237427, 49.47306442, -25.63577843, -1.31540489, -108.82782745, 95.67213440, 26.37290001, 26.92542267, 0.67496276, -0.66620255, -0.31693602, 0.01228704, 0.43424821, -0.26233071, 0.12929063, 100.37400818, 79.46511078, 30.03999901, 0.00000000
1, 1.1698, 137, 0.32561755, -0.73010206, -0.34336042, -3.27633262, 17.00745201, 47.10976028, -30.86816597, -3.59543991, -110.66939545, 99.65081787, 3.33618832, -6.73420668, -0.64242625, 0.76354277, -0.02611122, -0.06007759, -0.26570356, -0.25340882, 0.51063812, 100.63200378, 57.84687805, 29.81999969, 0.00000000
1, 1.2251, 147, 0.75292969, -1.06823730, 0.05505371, 47.14282990, 59.94736099, 60.77806854, -25.63577843, -2.60157847, -107.83396912, 98.69625092, 23.75053596, 30.47113037, 0.65613967, -0.68112093, -0.32445267, -0.01689672, -0.34877035, 0.16385740, 0.08186956, 100.37400818, 79.46511078, 30.03999901, 0.00000000
1, 1.2301, 148, 0.42346191, -1.12152100, 0.28497314, 49.31282806, 51.47736359, 67.11306763, -25.63577843, -2.60157847, -107.83396912, 99.03120422, 23.37932968, 30.69215202, 0.65388983, -0.68343884, -0.32396525, -0.01964951, -0.02513001, 0.21545100, -0.14226919, 100.37400818, 79.46511078, 30.03999901, 0.00000000
1, 1.2351, 149, 0.18988037, -1.11938477, 0.31414795, 44.86782837, 47.45235825, 69.49307251, -26.24963379, -2.80619693, -107.19087982, 99.33213043, 22.99845123, 30.88663483, 0.65181583, -0.68565470, -0.32328239, -0.02241287, 0.20235281, 0.21150491, -0.16615111, 100.37400818, 79.46511078, 30.03999901, 0.00000000
1, 1.2401, 150, 0.04315186, -1.11175537, 0.29205322, 40.77282333, 51.58236313, 68.23307037, -26.24963379, -2.80619693, -107.19087982, 99.61933136, 22.61947441, 31.10167694, 0.64979625, -0.68772036, -0.32274511, -0.02532144, 0.34298384, 0.20209301, -0.13905145, 100.37400818, 79.46511078, 30.03999901, 0.00000000
1, 1.2451, 151, 0.03021240, -1.11303711, 0.29949951, 37.65782547, 64.07736969, 67.74307251, -26.24963379, -2.80619693, -107.19087982, 99.91417694, 22.23129845, 31.38107681, 0.64768296, -0.68966454, -0.32256740, -0.02863453, 0.34971827, 0.20163140, -0.14142361, 100.37400818, 79.46511078, 30.03999901, 0.00000000
1, 1.2501, 152, 0.10052490, -1.12115479, 0.32684326, 33.59782028, 79.54737854, 69.03807068, -26.74656487, -2.89389062, -107.30780029, 100.21616364, 21.82189178, 31.73842812, 0.64545876, -0.69147813, -0.32277596, -0.03250624, 0.27288118, 0.20798099, -0.16351318, 100.37400818, 79.46511078, 30.03999901, 0.00000000
1, 1.2551, 153, 0.15838623, -1.11779785, 0.31054688, 28.52282143, 90.15237427, 71.97807312, -26.74656487, -2.89389062, -107.30780029, 100.50872040, 21.38677406, 32.14569473, 0.64321786, -0.69315803, -0.32317922, -0.03685128, 0.20806749, 0.20275855, -0.14199516, 100.37400818, 79.46511078, 30.03999901, 0.00000000
1, 1.2601, 154, 0.14709473, -1.08569336, 0.21972656, 23.34282112, 93.30236816, 75.44306946, -26.19117165, -3.50774622, -106.05085754, 100.77593231, 20.92988205, 32.56261063, 0.64106572, -0.69471723, -0.32354888, -0.04146079, 0.21200757, 0.16865773, -0.04627337, 100.37400818, 79.46511078, 30.03999901, 0.00000000
1, 1.1848, 138, 0.23247433, -1.16454840, -0.07957426, 18.76611900, 9.73246193, 50.47645187, -31.97895241, 0.08769365, -110.61093140, 99.85027313, 2.58284664, -6.62111044, -0.64155477, 0.76457065, -0.02969243, -0.05438513, -0.18608761, 0.18039924, 0.24871799, 100.63200378, 57.84687805, 29.81999969, 0.00000000
1, 1.1898, 139, 0.15718961, -1.29100096, -0.00516841, 20.76627922, -1.65007305, 55.26224899, -31.86202812, -0.64308679, -110.23092651, 99.95245361, 2.31224537, -6.67630196, -0.64098412, 0.76507819, -0.03162742, -0.05286432, -0.11563867, 0.30682915, 0.17567834, 100.63200378, 57.84687805, 29.81999969, 0.00000000
1, 1.1948, 140, -0.00070012, -1.34165394, 0.12938796, 22.33849716, -18.53539276, 61.32442093, -31.86202812, -0.64308679, -110.23092651, 100.05947876, 2.02643728, -6.82044029, -0.64034629, 0.76557684, -0.03424109, -0.05173415, 0.03699850, 0.35739315, 0.04250493, 100.63200378, 57.84687805, 29.81999969, 0.00000000
1, 1.1998, 141, -0.11900356, -1.24510324, 0.25184596, 21.79982948, -31.12050056, 68.88298798, -31.86202812, -0.64308679, -110.23092651, 100.16236877, 1.71460044, -7.03364086, -0.63971776, 0.76601326, -0.03745773, -0.05081224, 0.14965263, 0.26078051, -0.07827315, 100.63200378, 57.84687805, 29.81999969, 0.00000000
1, 1.2048, 142, -0.20621638, -0.95631421, 0.38329321, 23.74044037, -49.14300537, 74.56285095, -33.38205338, -0.90616781, -110.31861877, 100.27366638, 1.39106989, -7.34111357, -0.63899815, 0.76644433, -0.04137161, -0.05032925, 0.23095480, -0.02804867, -0.20759073, 100.63200378, 57.84687805, 29.81999969, 0.00000000
1, 1.2098, 143, -0.34307328, -0.77346826, 0.45661595, 31.70402336, -51.69638824, 74.96144867, -33.38205338, -0.90616781, -110.31861877, 100.42624664, 1.06864607, -7.66218472, -0.63799739, 0.76707816, -0.04538627, -0.04990557, 0.36198050, -0.21070121, -0.27850986, 100.63200378, 57.84687805, 29.81999969, 0.00000000
1, 1.2148, 144, -0.50152868, -0.74636924, 0.47006732, 40.41667938, -43.68494034, 70.80017090, -33.58666992, -0.29231218, -110.37708282, 100.62472534, 0.76050949, -7.94102478, -0.63670158, 0.76796669, -0.04905591, -0.04931266, 0.51495540, -0.23731840, -0.28906885, 100.63200378, 57.84687805, 29.81999969, 0.00000000
1, 1.2198, 145, -0.60886407, -0.85979176, 0.46100715, 42.64998245, -26.89412689, 64.23164368, -33.58666992, -0.29231218, -110.37708282, 100.84436798, 0.45273328, -8.13164616, -0.63530147, 0.76899248, -0.05213748, -0.04821090, 0.61701393, -0.12324701, -0.27675739, 100.63200378, 57.84687805, 29.81999969, 0.00000000
1, 1.2651, 155, 0.10052490, -0.98608398, 0.09014893, 22.99281883, 91.02736664, 77.92807007, -26.19117165, -3.50774622, -106.05085754, 101.03189850, 20.46119308, 32.96157074, 0.63893354, -0.69628596, -0.32376993, -0.04607458, 0.25097311, 0.06699805, 0.08796611, 100.37400818, 79.46511078, 30.03999901, 0.00000000
1, 1.2701, 156, 0.10290527, -0.93121338, 0.12524414, 28.17282295, 89.20736694, 79.25807190, -26.19117165, -3.50774622, -106.05085754, 101.30571747, 19.98604965, 33.34614944, 0.63664883, -0.69800168, -0.32390144, -0.05059565, 0.24084525, 0.01014316, 0.05767551, 100.37400818, 79.46511078, 30.03999901, 0.00000000
1, 1.2648, 146, -0.01783686, -0.97380698, 0.16394310, 12.61667824, -6.39908361, 45.50828934, -35.34054184, -2.36772871, -108.59397888, 101.56555176, -1.87301540, -7.98998451, -0.63152415, 0.77204859, -0.06427820, -0.03141125, -0.01433563, -0.00572083, 0.03452854, 100.63200378, 57.84687805, 29.81999969, 0.00000000
1, 1.2698, 147, -0.03715039, -0.96981943, 0.20575762, 12.35213184, -17.29417610, 43.63956451, -35.34054184, -2.36772871, -108.59397888, 101.63349915, -2.07008910, -8.11831570, -0.63110638, 0.77225059, -0.06624386, -0.03074899, 0.00135008, -0.00942850, -0.00621607, 100.63200378, 57.84687805, 29.81999969, 0.00000000
1, 1.3001, 157, 0.39086914, -1.03668213, 0.32946777, 28.27782249, 55.32736206, 95.70808411, -27.50657654, -4.20929527, -104.67699432, 102.79936981, 16.94440269, 34.98741913, 0.62314761, -0.70960766, -0.32002655, -0.07567843, -0.09722099, 0.10435343, -0.11845115, 100.37400818, 79.46511078, 30.03999901, 0.00000000
1, 1.3051, 158, 0.32250977, -1.05688477, 0.27172852, 27.19282150, 48.81735992, 98.47308350, -27.50657654, -4.20929527, -104.67699432, 102.97372437, 16.41000175, 35.12117767, 0.62129116, -0.71155214, -0.31839079, -0.07948675, -0.03776530, 0.12259142, -0.05722778, 100.37400818, 79.46511078, 30.03999901, 0.00000000
1, 1.2748, 148, -0.08909335, -0.97715008, 0.25128263, 13.97531033, -25.61443329, 41.10714340, -35.34054184, -2.36772871, -108.59397888, 101.71018982, -2.24556875, -8.28511143, -0.63061166, 0.77248341, -0.06835144, -0.03043684, 0.05002605, -0.00179639, -0.05063392, 100.63200378, 57.84687805, 29.81999969, 0.00000000
1, 1.2798, 149, -0.16776970, -0.99881899, 0.27279934, 15.60013866, -30.98897743, 39.20574570, -36.07132339, -0.49693072, -109.20783234, 101.79644775, -2.40605211, -8.47659206, -0.63004082, 0.77275532, -0.07054489, -0.03035317, 0.12579316, 0.02024750, -0.07096623, 100.63200378, 57.84687805, 29.81999969, 0.00000000
1, 1.2848, 150, -0.26034722, -1.00502765, 0.26781824, 15.35446453, -34.47967911, 37.96894836, -36.07132339, -0.49693072, -109.20783234, 101.88266754, -2.55663967, -8.68417931, -0.62946266, 0.77301532, -0.07279214, -0.03042172, 0.21571797, 0.02688579, -0.06476590, 100.63200378, 57.84687805, 29.81999969, 0.00000000
1, 1.3101, 159, 0.25128174, -1.06677246, 0.23150635, 27.36782265, 36.32235718, 99.10308838, -28.23735809, -4.64776373, -104.82315063, 103.12940979, 15.88628101, 35.18887329, 0.61958605, -0.71353692, -0.31639001, -0.08291987, 0.02463135, 0.13057099, -0.01380653, 100.37400818, 79.46511078, 30.03999901, 0.00000000
1, 1.3151, 160, 0.17822266, -1.09356689, 0.25042725, 28.03281975, 30.30235291, 98.33307648, -28.23735809, -4.64776373, -104.82315063, 103.27942657, 15.37301064, 35.22542191, 0.61793244, -0.71553499, -0.31424573, -0.08613373, 0.08903153, 0.15556689, -0.02968787, 100.37400818, 79.46511078, 30.03999901, 0.00000000
1, 1.3201, 161, 0.10290527, -1.10925293, 0.25775146, 27.08782196, 26.03235245, 97.94808197, -28.23735809, -4.64776373, -104.82315063, 103.41853333, 14.86645126, 35.23947144, 0.61635518, -0.71750301, -0.31198806, -0.08921500, 0.15579021, 0.16953361, -0.03414680, 100.37400818, 79.46511078, 30.03999901, 0.00000000
1, 1.3251, 162, 0.04187012, -1.11114502, 0.26495361, 26.00282097, 23.51235008, 97.28308868, -28.58813095, -5.55393171, -104.91084290, 103.54878998, 14.36603260, 35.24040604, 0.61483604, -0.71942776, -0.30967280, -0.09221246, 0.20835687, 0.16977754, -0.03866043, 100.37400818, 79.46511078, 30.03999901, 0.00000000
1, 1.3301, 163, -0.00079346, -1.10699463, 0.26739502, 25.26782227, 24.00235176, 96.58308411, -28.58813095, -5.55393171, -104.91084290, 103.67588043, 13.86843967, 35.24349213, 0.61332381, -0.72130686, -0.30738348, -0.09521465, 0.24259144, 0.16405296, -0.03850692, 100.37400818, 79.46511078, 30.03999901, 0.00000000
1, 1.3351, 164, -0.03546143, -1.10949707, 0.25585938, 25.12782288, 26.31235313, 95.74308014, -29.61122513, -4.96930695, -104.15083313, 103.80493164, 13.37217045, 35.25798416, 0.61177617, -0.72314692, -0.30517560, -0.09826703, 0.26884288, 0.16507176, -0.02436667, 100.37400818, 79.46511078, 30.03999901, 0.00000000
1, 1.2898, 151, -0.36041984, -0.99356961, 0.26782840, 13.87777615, -36.04435730, 37.31950760, -36.53902435, 0.02923122, -108.50628662, 101.96237946, -2.70215678, -8.89901161, -0.62892503, 0.77323055, -0.07505830, -0.03056529, 0.31323409, 0.01583456, -0.06363700, 100.63200378, 57.84687805, 29.81999969, 0.00000000
1, 1.2948, 152, -0.45152861, -0.98329675, 0.29257002, 11.54325676, -34.49748993, 35.87885666, -36.53902435, 0.02923122, -108.50628662, 102.03050995, -2.84198141, -9.10499954, -0.62846607, 0.77338433, -0.07723013, -0.03070365, 0.40181702, 0.00589420, -0.08739769, 100.63200378, 57.84687805, 29.81999969, 0.00000000
1, 1.2998, 153, -0.49878553, -0.97672510, 0.31867310, 9.09384346, -29.58125114, 33.32819366, -36.53902435, 0.02923122, -108.50628662, 102.08548737, -2.97422576, -9.28444672, -0.62810028, 0.77348244, -0.07917747, -0.03075446, 0.44666836, -0.00039365, -0.11263977, 100.63200378, 57.84687805, 29.81999969, 0.00000000
1, 1.3048, 154, -0.49786851, -0.96985877, 0.28229761, 7.02912331, -24.26361275, 30.15127563, -37.00672150, -1.11078632, -108.24320221, 102.12897491, -3.09634423, -9.43468380, -0.62781644, 0.77353930, -0.08086888, -0.03072019, 0.44366756, -0.00691994, -0.07548639, 100.63200378, 57.84687805, 29.81999969, 0.00000000
1, 1.3098, 155, -0.47549593, -0.98139286, 0.20533375, 6.10334969, -19.13218498, 26.42962837, -37.00672150, -1.11078632, -108.24320221, 102.16648865, -3.20552754, -9.55599785, -0.62757564, 0.77358860, -0.08229256, -0.03061822, 0.41951364, 0.00498589, 0.00214411, 100.63200378, 57.84687805, 29.81999969, 0.00000000
1, 1.3398, 156, -0.52466226, -1.01586032, 0.18440261, 9.39575481, 17.78073120, 14.85908031, -37.50365448, -1.05232382, -108.50628662, 102.45722961, -3.83881140, -9.58454609, -0.62585711, 0.77473694, -0.08599904, -0.02626470, 0.45764321, 0.04122659, 0.02768986, 100.63200378, 57.84687805, 29.81999969, 0.00000000
1, 1.3448, 157, -0.50693172, -1.02354932, 0.17605188, 8.01298904, 25.73015404, 12.57745361, -37.50365448, -1.05232382, -108.50628662, 102.48983002, -3.92772460, -9.47209358, -0.62569565, 0.77493846, -0.08572811, -0.02502224, 0.43837589, 0.04916395, 0.03664652, 100.63200378, 57.84687805, 29.81999969, 0.00000000
1, 1.3401, 165, -0.07611084, -1.12487793, 0.23162842, 25.02282143, 28.97235489, 94.27308655, -29.61122513, -4.96930695, -104.15083313, 103.93648529, 12.87981701, 35.28636551, 0.61019057, -0.72493887, -0.30307862, -0.10136355, 0.30110013, 0.17906627, 0.00249811, 100.37400818, 79.46511078, 30.03999901, 0.00000000
1, 1.3451, 166, -0.09960938, -1.13854980, 0.21990967, 24.63782310, 31.98235512, 92.80308533, -30.69277954, -4.99853849, -104.67699432, 104.06926727, 12.39089298, 35.33031082, 0.60857207, -0.72667342, -0.30110061, -0.10451933, 0.31626797, 0.19145092, 0.01685598, 100.37400818, 79.46511078, 30.03999901, 0.00000000
1, 1.3498, 158, -0.46739498, -1.01730263, 0.17883953, 7.10653877, 35.46092606, 10.26212120, -37.50365448, -1.05232382, -108.50628662, 102.51422882, -4.01585102, -9.30954552, -0.62559748, 0.77513272, -0.08511165, -0.02351780, 0.39729607, 0.04311463, 0.03438836, 100.63200378, 57.84687805, 29.81999969, 0.00000000
1, 1.3548, 159, -0.39336842, -1.00654459, 0.20079859, 6.96878767, 43.45040512, 8.21096706, -37.47442245, -0.17538731, -108.79859924, 102.53474426, -4.10261917, -9.10569572, -0.62552965, 0.77533650, -0.08420693, -0.02180011, 0.32169390, 0.03250674, 0.01297377, 100.63200378, 57.84687805, 29.81999969, 0.00000000
1, 1.3598, 160, -0.30825230, -0.98767519, 0.22640499, 6.03740740, 46.48609161, 6.19204950, -37.47442245, -0.17538731, -108.79859924, 102.54904938, -4.18288422, -8.88480854, -0.62550020, 0.77552187, -0.08314987, -0.02003829, 0.23508495, 0.01375617, -0.01214145, 100.63200378, 57.84687805, 29.81999969, 0.00000000
1, 1.3701, 167, -0.08770752, -1.14685059, 0.18591309, 20.12281990, 54.83736420, 86.92308044, -31.65740967, -5.32008171, -103.97544098, 104.72117615, 9.95171356, 35.90673828, 0.59993613, -0.73414546, -0.29355779, -0.12219223, 0.26263177, 0.19445091, 0.06374988, 100.37400818, 79.46511078, 30.03999901, 0.00000000
1, 1.3751, 168, -0.08361816, -1.12994385, 0.21697998, 20.15781784, 58.75736618, 86.46807861, -31.65740967, -5.32008171, -103.97544098, 104.85166931, 9.45870972, 36.08297348, 0.59807038, -0.73545945, -0.29243031, -0.12607840, 0.25007966, 0.17669554, 0.03521667, 100.37400818, 79.46511078, 30.03999901, 0.00000000
1, 1.3648, 161, -0.22887000, -0.97640622, 0.23001115, 5.37080050, 45.27449799, 4.17368174, -37.35749817, -0.23384975, -108.59397888, 102.55998230, -4.25203991, -8.66766644, -0.62548476, 0.77569193, -0.08205682, -0.01837495, 0.15443200, 0.00261440, -0.01536016, 100.63200378, 57.84687805, 29.81999969, 0.00000000
1, 1.3698, 162, -0.21958424, -0.98212504, 0.23667085, 5.96763802, 42.69726181, 2.91287994, -37.35749817, -0.23384975, -108.59397888, 102.57681274, -4.32529926, -8.46168327, -0.62542468, 0.77588195, -0.08106196, -0.01674049, 0.14392737, 0.00846313, -0.02178758, 100.63200378, 57.84687805, 29.81999969, 0.00000000
1, 1.3748, 163, -0.22068019, -1.00165176, 0.27613726, 7.10692120, 39.42359543, 1.83888710, -37.35749817, -0.23384975, -108.59397888, 102.59787750, -4.37682962, -8.27065372, -0.62532377, 0.77609742, -0.08005059, -0.01533265, 0.14389148, 0.02808177, -0.06094525, 100.63200378, 57.84687805, 29.81999969, 0.00000000
1, 1.3801, 169, -0.08489990, -1.11566162, 0.25097656, 19.00281906, 63.62236786, 85.62807465, -31.65740967, -5.32008171, -103.97544098, 104.97865295, 8.96310997, 36.28273773, 0.59617108, -0.73668969, -0.29144394, -0.13011071, 0.24283421, 0.16162552, 0.00371326, 100.37400818, 79.46511078, 30.03999901, 0.00000000
1, 1.3851, 170, -0.09197998, -1.10101318, 0.26611328, 17.70781708, 66.35236359, 84.75308228, -32.38819122, -5.05700064, -103.21543121, 105.09945679, 8.46776772, 36.49563217, 0.59427017, -0.73784310, -0.29054281, -0.13422157, 0.24137245, 0.14624053, -0.00904108, 100.37400818, 79.46511078, 30.03999901, 0.00000000
1, 1.3901, 171, -0.09112549, -1.07055664, 0.27978516, 17.07781792, 70.30736542, 84.12307739, -32.38819122, -5.05700064, -103.21543121, 105.21795654, 7.96985769, 36.72732162, 0.59232950, -0.73893195, -0.28975415, -0.13844833, 0.23193242, 0.11510393, -0.02040410, 100.37400818, 79.46511078, 30.03999901, 0.00000000
1, 1.3951, 172, -0.07397461, -1.05181885, 0.28668213, 17.07781792, 74.78736877, 83.49308014, -32.65127182, -5.08623219, -103.82929230, 105.33732605, 7.46861362, 36.98034668, 0.59032178, -0.73996806, -0.28909472, -0.14279993, 0.20612919, 0.09575727, -0.02500240, 100.37400818, 79.46511078, 30.03999901, 0.00000000
1, 1.4001, 173, -0.04565430, -1.03558350, 0.30554199, 16.97281837, 78.67237091, 83.03807831, -32.65127182, -5.08623219, -103.82929230, 105.45626068, 6.96388197, 37.25149536, 0.58825648, -0.74095309, -0.28854209, -0.14726298, 0.16908802, 0.07898588, -0.04157214, 100.37400818, 79.46511078, 30.03999901, 0.00000000
1, 1.4051, 174, -0.02380371, -1.02331543, 0.31658936, 16.65781784, 82.55737305, 82.51306915, -32.65127182, -5.08623219, -103.82929230, 105.57333374, 6.45593691, 37.54086685, 0.58614069, -0.74187911, -0.28809670, -0.15183832, 0.13844892, 0.06624550, -0.05037815, 100.37400818, 79.46511078, 30.03999901, 0.00000000
1, 1.4101, 175, 0.00378418, -1.01513672, 0.34747314, 16.41281700, 85.60237122, 82.40808105, -33.38205338, -5.26161957, -103.36158752, 105.68811798, 5.94381189, 37.84380341, 0.58397937, -0.74275744, -0.28772315, -0.15650849, 0.10199726, 0.05765966, -0.07906555, 100.37400818, 79.46511078, 30.03999901, 0.00000000
1, 1.4151, 176, 0.05084229, -0.99713135, 0.36389160, 15.64281845, 87.52737427, 82.26807404, -33.38205338, -5.26161957, -103.36158752, 105.79715729, 5.42916059, 38.15494919, 0.58180362, -0.74358076, -0.28739002, -0.16124284, 0.04600634, 0.03929795, -0.09339193, 100.37400818, 79.46511078, 30.03999901, 0.00000000
1, 1.3798, 164, -0.24299310, -1.02298367, 0.30822685, 7.23705149, 37.34936142, 1.22695529, -37.15287781, -0.11692487, -108.41858673, 102.62016296, -4.42319775, -8.08912086, -0.62520880, 0.77631491, -0.07907505, -0.01401116, 0.16529590, 0.04950748, -0.09276187, 100.63200378, 57.84687805, 29.81999969, 0.00000000
1, 1.3848, 165, -0.27015287, -1.04014003, 0.30949536, 6.20415306, 37.28974915, 0.43248266, -37.15287781, -0.11692487, -108.41858673, 102.63706970, -4.46569681, -7.90702009, -0.62512666, 0.77650464, -0.07807351, -0.01271690, 0.19170040, 0.06679046, -0.09381858, 100.63200378, 57.84687805, 29.81999969, 0.00000000
1, 1.4651, 177, 0.23388672, -0.89892578, 0.41528320, 17.35781860, 81.68237305, 78.59307098, -35.16515732, -5.64162540, -102.45542145, 106.75593567, 0.34794232, 41.25099945, 0.55915362, -0.75050288, -0.28441200, -0.20785215, -0.22566067, -0.05869386, -0.12737308, 100.37400818, 79.46511078, 30.03999901, 0.00000000
1, 1.4701, 178, 0.24145508, -0.91528320, 0.41802979, 17.00781822, 79.26737213, 79.01307678, -35.34054184, -4.73545742, -102.54311371, 106.84145355, -0.14480874, 41.51624298, 0.55688953, -0.75117040, -0.28390929, -0.21216200, -0.24183327, -0.04192970, -0.12865353, 100.37400818, 79.46511078, 30.03999901, 0.00000000
1, 1.4548, 166, 0.15905194, -0.94051063, 0.36071527, -5.39257765, 32.23923492, 3.54431677, -35.39900589, -1.08155513, -108.88629150, 102.38422394, -5.12403822, -4.51344776, -0.62697095, 0.77676570, -0.05864671, 0.01015273, -0.24903861, -0.03289022, -0.14806709, 100.63200378, 57.84687805, 29.81999969, 0.00000000
1, 1.4598, 167, 0.15174730, -0.91363525, 0.30313748, -6.36432457, 27.53814316, 4.60135651, -35.39900589, -1.08155513, -108.88629150, 102.34075928, -5.17585754, -4.38327646, -0.62725437, 0.77656740, -0.05805086, 0.01119518, -0.24249128, -0.05975318, -0.09121508, 100.63200378, 57.84687805, 29.81999969, 0.00000000
1, 1.4751, 179, 0.25488281, -0.91748047, 0.39746094, 16.16781807, 77.02736664, 78.87306976, -35.34054184, -4.73545742, -102.54311371, 106.92057037, -0.63401854, 41.77026749, 0.55466866, -0.75181836, -0.28334215, -0.21640034, -0.26381791, -0.03928668, -0.10675127, 100.37400818, 79.46511078, 30.03999901, 0.00000000
1, 1.4801, 180, 0.26391602, -0.92242432, 0.37255859, 14.87281704, 74.12237549, 79.18807983, -35.34054184, -4.73545742, -102.54311371, 106.99127960, -1.12083244, 42.00932693, 0.55251026, -0.75244898, -0.28267556, -0.22056198, -0.28135157, -0.03386480, -0.08066397, 100.37400818, 79.46511078, 30.03999901, 0.00000000
1, 1.4851, 181, 0.27685547, -0.92761230, 0.32446289, 13.71781731, 70.51737213, 80.02807617, -35.83747482, -6.63548660, -102.66004181, 107.05464935, -1.60666132, 42.22937775, 0.55041379, -0.75307983, -0.28187701, -0.22463478, -0.30277365, -0.02816901, -0.03153669, 100.37400818, 79.46511078, 30.03999901, 0.00000000
1, 1.4648, 168, 0.12088979, -0.89964533, 0.25018111, -5.77018881, 25.64351463, 5.38988638, -35.63285446, 0.00000000, -108.65244293, 102.30108643, -5.22941923, -4.26319027, -0.62751138, 0.77638310, -0.05753320, 0.01219657, -0.21242347, -0.07372630, -0.03902544, 100.63200378, 57.84687805, 29.81999969, 0.00000000
1, 1.4698, 169, 0.07958211, -0.90221059, 0.23295389, -4.57598925, 24.07339096, 5.93314648, -35.63285446, 0.00000000, -108.65244293, 102.27384949, -5.26068735, -4.15220070, -0.62768364, 0.77627331, -0.05695480, 0.01300324, -0.17181624, -0.07118411, -0.02245951, 100.63200378, 57.84687805, 29.81999969, 0.00000000
1, 1.4748, 170, 0.02677371, -0.92948771, 0.26132077, -4.38913298, 20.63503265, 7.04058743, -35.63285446, 0.00000000, -108.65244293, 102.24333954, -5.31689787, -4.05837011, -0.62787873, 0.77612412, -0.05662949, 0.01388393, -0.11984453, -0.04398710, -0.05149071, 100.63200378, 57.84687805, 29.81999969, 0.00000000
1, 1.4901, 182, 0.29882813, -0.92919922, 0.29553223, 12.63281631, 66.87736511, 80.83307648, -35.83747482, -6.63548660, -102.66004181, 107.11132050, -2.09122491, 42.43038940, 0.54837805, -0.75371397, -0.28094786, -0.22861587, -0.33320555, -0.02604095, -0.00171267, 100.37400818, 79.46511078, 30.03999901, 0.00000000
1, 1.4951, 183, 0.28955078, -0.93261719, 0.28759766, 10.84781647, 57.28736496, 82.05807495, -36.39286804, -5.17392588, -102.68927002, 107.15936279, -2.56769657, 42.58334351, 0.54649514, -0.75440079, -0.27972543, -0.23232804, -0.33227545, -0.02205646, 0.00696745, 100.37400818, 79.46511078, 30.03999901, 0.00000000
1, 1.5001, 184, 0.28527832, -0.93225098, 0.29205322, 9.76281643, 52.35236359, 83.03807831, -36.39286804, -5.17392588, -102.68927002, 107.20195007, -3.04168129, 42.71092987, 0.54468787, -0.75510949, -0.27833679, -0.23591000, -0.33627564, -0.02182511, 0.00313120, 100.37400818, 79.46511078, 30.03999901, 0.00000000
1, 1.4798, 171, -0.01194854, -0.95994866, 0.25981259, -6.05185127, 17.30859947, 8.62991905, -35.54516220, -2.57234716, -108.94475555, 102.20611572, -5.37734365, -3.98251605, -0.62812036, 0.77592683, -0.05645037, 0.01469170, -0.08215327, -0.01356042, -0.05075319, 100.63200378, 57.84687805, 29.81999969, 0.00000000
1, 1.4848, 172, -0.02929596, -0.96899605, 0.23235485, -7.16242552, 15.22305870, 9.50570297, -35.54516220, -2.57234716, -108.94475555, 102.16432953, -5.43984604, -3.91777945, -0.62839317, 0.77569783, -0.05635887, 0.01545033, -0.06581023, -0.00451764, -0.02406305, 100.63200378, 57.84687805, 29.81999969, 0.00000000
1, 1.4898, 173, -0.01973544, -0.96210051, 0.22061437, -7.53155136, 16.46049690, 10.06568050, -35.60362244, -0.70154923, -109.32476044, 102.12010193, -5.50632811, -3.84748793, -0.62868071, 0.77545583, -0.05625244, 0.01626529, -0.07648154, -0.01144732, -0.01305196, 100.63200378, 57.84687805, 29.81999969, 0.00000000
1, 1.5051, 185, 0.27789307, -0.91790771, 0.28350830, 8.39781570, 48.29235840, 83.87807465, -36.39286804, -5.17392588, -102.68927002, 107.23785400, -3.51375723, 42.81758499, 0.54295629, -0.75582391, -0.27680489, -0.23939049, -0.33712703, -0.03554112, 0.01216480, 100.37400818, 79.46511078, 30.03999901, 0.00000000
1, 1.5101, 186, 0.27270508, -0.90606689, 0.27502441, 7.27781487, 44.12736130, 84.40308380, -36.59748459, -5.49546909, -102.36772919, 107.26864624, -3.98222399, 42.90331650, 0.54129690, -0.75654829, -0.27514043, -0.24275534, -0.34011498, -0.04672239, 0.02102342, 100.37400818, 79.46511078, 30.03999901, 0.00000000
1, 1.4948, 174, -0.01548065, -0.95356202, 0.20898466, -7.62651110, 15.57931709, 10.46651173, -35.60362244, -0.70154923, -109.32476044, 102.07575989, -5.57381487, -3.78189039, -0.62896848, 0.77521026, -0.05618391, 0.01706131, -0.08187622, -0.02001838, -0.00217748, 100.63200378, 57.84687805, 29.81999969, 0.00000000
1, 1.4998, 175, -0.02898439, -0.94900215, 0.20559621, -7.28466940, 13.86652470, 10.84196186, -35.60362244, -0.70154923, -109.32476044, 102.03392029, -5.64130116, -3.72504687, -0.62923968, 0.77497399, -0.05617482, 0.01781052, -0.06953764, -0.02461529, 0.00043596, 100.63200378, 57.84687805, 29.81999969, 0.00000000
1, 1.5551, 187, 0.13671875, -0.92785645, 0.27600098, 8.11781597, 21.44735146, 85.69808197, -38.35136032, -5.72931862, -101.92926025, 107.61966705, -8.10671997, 42.97293472, 0.52716261, -0.76438320, -0.25603524, -0.26881915, -0.27584517, -0.01601756, 0.02356865, 100.37400818, 79.46511078, 30.03999901, 0.00000000
1, 1.5601, 188, 0.14837646, -0.92999268, 0.26812744, 7.73281479, 19.48734856, 83.77307892, -38.73136520, -5.78778124, -102.22157288, 107.66331482, -8.53541565, 42.93849564, 0.52570063, -0.76526302, -0.25377840, -0.27130777, -0.29496109, -0.01262665, 0.03183642, 100.37400818, 79.46511078, 30.03999901, 0.00000000
1, 1.5651, 189, 0.17248535, -0.92907715, 0.25549316, 7.80281496, 18.22735214, 80.55307007, -38.73136520, -5.78778124, -102.22157288, 107.70778656, -8.94683075, 42.90255737, 0.52428120, -0.76611310, -0.25159749, -0.27367595, -0.32622942, -0.01227404, 0.04486909, 100.37400818, 79.46511078, 30.03999901, 0.00000000
1, 1.5298, 176, 0.19412009, -0.94187427, 0.22207135, -4.49682903, -3.59477019, 16.66461563, -36.39286804, -1.90002918, -109.61707306, 101.84858704, -6.03116798, -3.62465715, -0.63045084, 0.77380204, -0.05766198, 0.02091190, -0.29940277, -0.03178671, -0.01885834, 100.63200378, 57.84687805, 29.81999969, 0.00000000
1, 1.5348, 177, 0.14390327, -0.93227375, 0.21538050, -4.52795219, -6.58918524, 18.06583023, -36.39286804, -1.90002918, -109.61707306, 101.83155060, -6.11295080, -3.67559457, -0.63056898, 0.77363884, -0.05845715, 0.02117671, -0.25057599, -0.04129186, -0.01260126, 100.63200378, 57.84687805, 29.81999969, 0.00000000
1, 1.5701, 190, 0.16601563, -0.94866943, 0.25115967, 8.11781502, 17.31735039, 77.68307495, -39.69599533, -5.49546909, -101.84156799, 107.75414276, -9.34316826, 42.86627579, 0.52288896, -0.76694024, -0.24949230, -0.27594119, -0.32666621, 0.00860620, 0.04962185, 100.37400818, 79.46511078, 30.03999901, 0.00000000
1, 1.5751, 191, 0.15148926, -0.96496582, 0.23657227, 7.90781498, 18.05234909, 75.44306946, -39.69599533, -5.49546909, -101.84156799, 107.79860687, -9.72993374, 42.83665848, 0.52151638, -0.76772022, -0.24747333, -0.27817890, -0.31884015, 0.02619934, 0.06460609, 100.37400818, 79.46511078, 30.03999901, 0.00000000
1, 1.5801, 192, 0.10546875, -0.98999023, 0.22460938, 7.69781542, 18.99735069, 73.41307068, -39.78368759, -5.43700647, -102.95235443, 107.84091187, -10.10846043, 42.81442642, 0.52015942, -0.76845312, -0.24553844, -0.28040117, -0.27936107, 0.05252859, 0.07692720, 100.37400818, 79.46511078, 30.03999901, 0.00000000
1, 1.5398, 178, 0.08620772, -0.95546329, 0.24840046, -2.08705902, -8.13260174, 19.40005875, -37.18210983, -0.58462435, -109.17860413, 101.82778168, -6.19967651, -3.73548627, -0.63059896, 0.77354044, -0.05933738, 0.02143233, -0.19444096, -0.01802718, -0.04595960, 100.63200378, 57.84687805, 29.81999969, 0.00000000
1, 1.5448, 179, 0.04864008, -0.98507285, 0.25966197, -2.69095397, -10.78733253, 20.95687103, -37.18210983, -0.58462435, -109.17860413, 101.82271576, -6.29133558, -3.81004524, -0.63064015, 0.77342325, -0.06034379, 0.02163987, -0.15847142, 0.01171654, -0.05746968, 100.63200378, 57.84687805, 29.81999969, 0.00000000
1, 1.5498, 180, -0.01264055, -0.99548972, 0.23675646, -3.79639268, -13.16552353, 22.42149925, -37.15287781, 0.38000584, -110.05553436, 101.81368256, -6.38777351, -3.89782763, -0.63071030, 0.77327293, -0.06146625, 0.02180475, -0.09878398, 0.02232079, -0.03490955, 100.63200378, 57.84687805, 29.81999969, 0.00000000
1, 1.5548, 181, -0.08145814, -0.99848878, 0.19822869, -3.57308960, -10.81882572, 23.42100143, -37.15287781, 0.38000584, -110.05553436, 101.80479431, -6.49149513, -3.97506213, -0.63077718, 0.77312326, -0.06255729, 0.02207687, -0.03163512, 0.02554442, 0.00324591, 100.63200378, 57.84687805, 29.81999969, 0.00000000
1, 1.5598, 182, -0.13275607, -1.00128353, 0.15405853, -2.99031663, -5.88695288, 24.23217964, -37.15287781, 0.38000584, -110.05553436, 101.79624939, -6.60420418, -4.02883720, -0.63083643, 0.77298141, -0.06353913, 0.02253897, 0.01785588, 0.02859595, 0.04709446, 100.63200378, 57.84687805, 29.81999969, 0.00000000
1, 1.5648, 183, -0.18058786, -0.99582207, 0.11915236, -2.97728586, -1.01725376, 24.52334595, -36.94826126, 0.08769365, -109.67552948, 101.78515625, -6.72327662, -4.05887413, -0.63090760, 0.77283359, -0.06439617, 0.02317323, 0.06373426, 0.02338709, 0.08166503, 100.63200378, 57.84687805, 29.81999969, 0.00000000
1, 1.5851, 193, 0.03765869, -1.01684570, 0.20721436, 7.03281498, 20.95734978, 71.52307129, -39.78368759, -5.43700647, -102.95235443, 107.87786102, -10.48097420, 42.80432510, 0.51882136, -0.76911837, -0.24370061, -0.28265032, -0.21797669, 0.08068731, 0.09459735, 100.37400818, 79.46511078, 30.03999901, 0.00000000
1, 1.5901, 194, -0.02111816, -1.03045654, 0.19451904, 6.08781481, 24.45735168, 68.89807129, -39.78368759, -5.43700647, -102.95235443, 107.90631104, -10.84637451, 42.81504059, 0.51750475, -0.76968330, -0.24201594, -0.28496465, -0.16549796, 0.09557886, 0.10743406, 100.37400818, 79.46511078, 30.03999901, 0.00000000
1, 1.5698, 184, -0.19199564, -0.99155724, 0.09910671, -2.30112648, 4.83978271, 24.54918671, -36.94826126, 0.08769365, -109.67552948, 101.75782776, -6.85873461, -4.05788231, -0.63107997, 0.77260309, -0.06513716, 0.02407980, 0.07296254, 0.01934521, 0.10130700, 100.63200378, 57.84687805, 29.81999969, 0.00000000
1, 1.5748, 185, -0.13787346, -0.99887323, 0.10358230, -1.37905943, 11.03794861, 24.96560097, -37.18210983, 0.26308095, -109.41245270, 101.74772644, -6.99215412, -4.02884960, -0.63112926, 0.77248353, -0.06567455, 0.02513654, 0.01646489, 0.02686853, 0.09658301, 100.63200378, 57.84687805, 29.81999969, 0.00000000
1, 1.6301, 195, 0.02270508, -1.06640625, 0.21478271, 3.32281351, 21.48235130, 55.42306900, -41.68371964, -5.08623219, -101.81233215, 107.94645691, -13.47365856, 43.29475021, 0.50790888, -0.77196527, -0.23214878, -0.30365297, -0.25445521, 0.14094190, 0.08489355, 100.37400818, 79.46511078, 30.03999901, 0.00000000
