SensorId, TimeStamp (s), FrameNumber, AccX (g), AccY (g), AccZ (g), GyroX (deg/s), GyroY (deg/s), GyroZ (deg/s), MagX (uT), MagY (uT), MagZ (uT), EulerX (deg), EulerY (deg), EulerZ (deg), QuatW, QuatX, QuatY, QuatZ, LinAccX (g), LinAccY (g), LinAccZ (g), Pressure (kPa), Altitude (m), Temperature (degC), HeaveMotion (m)
1, 0.0000, 0, -0.17926802, -1.08016777, 0.07963287, 47.43243790, -21.46982765, -120.42167664, -21.57263947, 2.33849740, -108.65244293, 101.85296631, -0.53362244, -27.82997513, -0.61268252, 0.75284094, -0.18954217, -0.14806914, 0.16709426, 0.10122366, 0.12254191, 100.07100677, 104.91204071, 32.27999878, 0.00000000
1, 0.0050, 1, -0.18449284, -1.08362651, 0.08207220, 45.11515045, -23.39648628, -117.87928772, -20.54954720, 2.42619109, -108.56474304, 102.07702637, 0.06777599, -27.82309341, -0.61024362, 0.75485039, -0.18658485, -0.15162431, 0.18285388, 0.10542704, 0.12397643, 100.07100677, 104.91204071, 32.27999878, 0.00000000
1, 0.0250, 2, -0.15684949, -1.04210258, 0.05176203, 35.13301086, -30.11961937, -103.92664337, -19.84799767, 2.42619109, -108.18473816, 102.84449005, 2.33044481, -27.89602280, -0.60123307, 0.76161182, -0.17609116, -0.16570541, 0.19508725, 0.06760207, 0.16758746, 100.07100677, 104.91204071, 32.27999878, 0.00000000
1, 0.0300, 3, -0.14948390, -1.03224432, 0.03480253, 34.37498093, -30.85512924, -98.18596649, -19.02952385, 2.28003502, -106.92779541, 103.01325226, 2.84379387, -27.93733978, -0.59914374, 0.76302892, -0.17388564, -0.16904876, 0.19679871, 0.05880076, 0.18734097, 100.07100677, 104.91204071, 32.27999878, 0.00000000
1, 0.0350, 4, -0.12936112, -1.04910767, 0.05189714, 33.83135986, -31.75443459, -92.80245209, -19.02952385, 2.28003502, -106.92779541, 103.17854309, 3.33203840, -27.98761559, -0.59709215, 0.76436841, -0.17187501, -0.17228125, 0.18524736, 0.07672678, 0.17299876, 100.07100677, 104.91204071, 32.27999878, 0.00000000
1, 0.0400, 5, -0.10550305, -1.05540347, 0.05618901, 31.42187119, -34.04892731, -86.55213165, -18.09412384, 2.48465347, -107.13241577, 103.33038330, 3.79258084, -28.05489540, -0.59513885, 0.76556671, -0.17011134, -0.17544155, 0.16954726, 0.08411390, 0.17128322, 100.07100677, 104.91204071, 32.27999878, 0.00000000
1, 0.0450, 6, -0.09870310, -1.05252361, 0.04097632, 28.76646614, -36.87338257, -81.53813171, -18.09412384, 2.48465347, -107.13241577, 103.46717072, 4.23211098, -28.14061165, -0.59328091, 0.76662385, -0.16856533, -0.17858191, 0.17052346, 0.08234420, 0.18880287, 100.07100677, 104.91204071, 32.27999878, 0.00000000
1, 0.0500, 7, -0.09009488, -1.05514169, 0.01046226, 25.27285194, -40.61402130, -74.92291260, -18.09412384, 2.48465347, -107.13241577, 103.58403015, 4.64395905, -28.25136948, -0.59155393, 0.76750106, -0.16730800, -0.18169816, 0.16926469, 0.08603528, 0.22123495, 100.07100677, 104.91204071, 32.27999878, 0.00000000
1, 0.0550, 8, -0.08264216, -1.05943525, 0.00786206, 22.75625229, -43.00054932, -69.23425293, -17.42180634, 1.40309846, -107.19087982, 103.68611908, 5.03113222, -28.37972069, -0.58993018, 0.76824224, -0.16628052, -0.18476255, 0.16865921, 0.09131861, 0.22550806, 100.07100677, 104.91204071, 32.27999878, 0.00000000
1, 0.0600, 9, -0.07502834, -1.05333447, 0.01512582, 20.24382973, -45.76662827, -63.69490051, -17.42180634, 1.40309846, -107.19087982, 103.77310181, 5.39481544, -28.52757072, -0.58840716, 0.76884645, -0.16548784, -0.18779215, 0.16745219, 0.08613846, 0.21966845, 100.07100677, 104.91204071, 32.27999878, 0.00000000
1, 0.0650, 10, -0.05868069, -1.04481411, 0.03644106, 17.74544144, -49.65159607, -57.97208023, -17.50950050, 2.01695418, -107.33703613, 103.84427643, 5.73548937, -28.70077515, -0.58697951, 0.76930451, -0.16496459, -0.19082022, 0.15706658, 0.07845554, 0.19954225, 100.07100677, 104.91204071, 32.27999878, 0.00000000
1, 0.0700, 11, -0.04832303, -1.03376698, 0.04640580, 13.66233253, -54.77663803, -51.94318390, -17.50950050, 2.01695418, -107.33703613, 103.89084625, 6.05311108, -28.90598106, -0.58569521, 0.76956338, -0.16473962, -0.19389221, 0.15229777, 0.06816748, 0.19037950, 100.07100677, 104.91204071, 32.27999878, 0.00000000
1, 0.0900, 12, -0.08905196, -0.93155921, -0.04121878, -0.30200124, -79.67213440, -26.70061874, -16.77871895, 0.81847411, -107.74626923, 103.82801819, 7.09427357, -30.11174011, -0.58187872, 0.76852483, -0.16720842, -0.20694992, 0.21170849, -0.03202026, 0.27688447, 100.07100677, 104.91204071, 32.27999878, 0.00000000
1, 0.0950, 13, -0.14563085, -0.89469266, -0.03489574, -2.49567366, -85.00591278, -19.99970627, -16.77871895, 0.81847411, -107.74626923, 103.76615143, 7.29207897, -30.50407219, -0.58116025, 0.76783156, -0.16867746, -0.21032266, 0.27181566, -0.06870490, 0.26940373, 100.07100677, 104.91204071, 32.27999878, 0.00000000
1, 0.1000, 14, -0.19613878, -0.86941957, -0.02414485, -4.92407703, -88.56636047, -13.25353336, -16.77871895, 0.81847411, -107.74626923, 103.68761444, 7.46080923, -30.92228508, -0.58055001, 0.76698303, -0.17043814, -0.21365772, 0.32540643, -0.09390453, 0.25725633, 100.07100677, 104.91204071, 32.27999878, 0.00000000
1, 0.1050, 15, -0.25411800, -0.83770823, -0.00905035, -9.07869816, -92.83892059, -3.55797720, -17.33411217, 1.98772287, -107.86319733, 103.58311462, 7.58669424, -31.37330055, -0.58012736, 0.76590610, -0.17259046, -0.21691632, 0.38564926, -0.12575433, 0.24032104, 100.07100677, 104.91204071, 32.27999878, 0.00000000
1, 0.1100, 16, -0.29886290, -0.81292105, -0.00075793, -11.98606873, -95.16931915, 2.55761862, -17.33411217, 1.98772287, -107.86319733, 103.46075439, 7.68462133, -31.84330940, -0.57983202, 0.76467478, -0.17497608, -0.22011554, 0.43218845, -0.15079796, 0.22991577, 100.07100677, 104.91204071, 32.27999878, 0.00000000
1, 0.1150, 17, -0.33967891, -0.79071581, -0.00188451, -14.50937176, -97.03037262, 8.11867714, -17.80181122, 2.28003502, -108.27243042, 103.32301331, 7.75653458, -32.32923126, -0.57964933, 0.76330584, -0.17756720, -0.22325084, 0.47435957, -0.17336118, 0.22868150, 100.07100677, 104.91204071, 32.27999878, 0.00000000
1, 0.1200, 18, -0.37331674, -0.76633584, -0.00675795, -17.07326508, -98.53697968, 13.40828514, -17.80181122, 2.28003502, -108.27243042, 103.17015076, 7.80316925, -32.82889557, -0.57958066, 0.76180226, -0.18034431, -0.22631758, 0.50892508, -0.19820461, 0.23097080, 100.07100677, 104.91204071, 32.27999878, 0.00000000
1, 0.1250, 19, -0.40646499, -0.74160075, -0.02085941, -19.26021004, -98.91955566, 18.43946838, -17.97719955, 1.81233561, -109.12014008, 102.99954224, 7.80928755, -33.33694458, -0.57968986, 0.76013976, -0.18334648, -0.22919755, 0.54245478, -0.22351813, 0.24224162, 100.07100677, 104.91204071, 32.27999878, 0.00000000
1, 0.1300, 20, -0.44785643, -0.73919117, 0.00155790, -20.08250046, -97.47554016, 23.32155418, -17.97719955, 1.81233561, -109.12014008, 102.83066559, 7.80348969, -33.84280014, -0.57980430, 0.75846273, -0.18638940, -0.23199202, 0.58368146, -0.22664449, 0.21683645, 100.07100677, 104.91204071, 32.27999878, 0.00000000
1, 0.1350, 21, -0.45292482, -0.76899040, 0.09829991, -18.48497772, -93.15785217, 28.34649277, -17.97719955, 1.81233561, -109.12014008, 102.67221832, 7.76704979, -34.33288193, -0.57993996, 0.75681525, -0.18950143, -0.23449889, 0.58801103, -0.19768861, 0.11732614, 100.07100677, 104.91204071, 32.27999878, 0.00000000
1, 0.1400, 22, -0.45518303, -0.75746608, 0.20885065, -17.21897125, -93.56787109, 34.31452179, -18.03566170, 1.05232382, -109.06167603, 102.51947021, 7.70060968, -34.83133698, -0.58008003, 0.75513208, -0.19283007, -0.23685288, 0.58897817, -0.21010937, 0.00423042, 100.07100677, 104.91204071, 32.27999878, 0.00000000
1, 0.1800, 23, 0.60927361, -1.75126946, -0.28159901, -31.25724411, 51.18729019, 41.27349091, -21.45571518, 1.37386727, -109.00321198, 101.63232422, 5.78323793, -37.15055084, -0.58567870, 0.74396098, -0.21638861, -0.23807272, -0.50673676, 0.77748495, 0.48142660, 100.07100677, 104.91204071, 32.27999878, 0.00000000
1, 0.1850, 24, 1.10141861, -1.61320329, -0.37379393, -32.89383698, 65.02805328, 37.24269867, -21.45571518, 1.37386727, -109.00321198, 101.49622345, 5.53568983, -36.86762238, -0.58774090, 0.74344277, -0.21559115, -0.23531684, -1.00294244, 0.63866293, 0.57279021, 100.07100677, 104.91204071, 32.27999878, 0.00000000
1, 0.1900, 25, 1.21968281, -1.43368888, -0.17915708, -25.61460495, 46.98822021, 44.11606598, -20.98801422, 1.69541073, -110.05553436, 101.38642883, 5.27286816, -36.67989349, -0.58946085, 0.74285388, -0.21555218, -0.23289788, -1.12617826, 0.45800740, 0.37685120, 100.07100677, 104.91204071, 32.27999878, 0.00000000
1, 0.1950, 26, 1.06387579, -1.23929560, 0.09242868, -20.70230484, 5.28854656, 56.34437561, -20.98801422, 1.69541073, -110.05553436, 101.28108978, 4.99111176, -36.70903015, -0.59074843, 0.74184716, -0.21703203, -0.23146537, -0.97586036, 0.26238269, 0.10350750, 100.07100677, 104.91204071, 32.27999878, 0.00000000
1, 0.2000, 27, 0.73590469, -1.03531265, 0.12610029, -19.74427605, -35.69966507, 69.44618225, -21.66033363, 1.78310430, -109.67552948, 101.16278076, 4.68460417, -36.95209122, -0.59174353, 0.74032027, -0.22000179, -0.23100810, -0.65318125, 0.05751202, 0.06746330, 100.07100677, 104.91204071, 32.27999878, 0.00000000
1, 0.2050, 28, 0.31254977, -0.88010931, -0.00021682, -12.75365734, -55.25147247, 81.19449615, -21.66033363, 1.78310430, -109.67552948, 101.07249451, 4.33876753, -37.30195999, -0.59243411, 0.73865312, -0.22392298, -0.23080701, -0.23534404, -0.09828124, 0.19135900, 100.07100677, 104.91204071, 32.27999878, 0.00000000
1, 0.2100, 29, -0.11971214, -0.88338256, -0.01167369, -4.19597387, -54.59945679, 92.00232697, -21.66033363, 1.78310430, -109.67552948, 101.02691650, 3.93896198, -37.65835190, -0.59295118, 0.73709422, -0.22825655, -0.23021731, 0.19017136, -0.09566037, 0.20091452, 100.07100677, 104.91204071, 32.27999878, 0.00000000
1, 0.2150, 30, -0.30075482, -0.94243228, 0.18700145, 5.55132294, -45.06252289, 95.82109070, -22.82958221, 1.54925454, -109.82168579, 101.03554535, 3.51137924, -37.97112656, -0.59327453, 0.73583013, -0.23255779, -0.22912081, 0.36338949, -0.03743169, 0.00171489, 100.07100677, 104.91204071, 32.27999878, 0.00000000
1, 0.2600, 31, -0.01836191, -0.85016549, 0.05024653, -10.94580841, -30.44888306, 58.38284683, -25.63577843, 0.67231804, -110.58170319, 100.53385162, 0.60194898, -40.66369247, -0.59797478, 0.72227359, -0.26405260, -0.22588351, 0.02986662, -0.13295354, 0.13135737, 100.07100677, 104.91204071, 32.27999878, 0.00000000
1, 0.2650, 32, -0.05707148, -0.89276540, 0.03331135, -8.70053577, -30.81349373, 58.41568756, -26.27886581, 0.29231218, -110.75708771, 100.48938751, 0.34243026, -40.86804962, -0.59846443, 0.72107071, -0.26661187, -0.22542308, 0.06410106, -0.09052405, 0.14729115, 100.07100677, 104.91204071, 32.27999878, 0.00000000
1, 0.2700, 33, -0.10810394, -0.91088378, 0.02145757, -4.73863316, -28.65824699, 60.02901840, -26.27886581, 0.29231218, -110.75708771, 100.46572113, 0.07296184, -41.06307983, -0.59886515, 0.71996784, -0.26920176, -0.22480485, 0.11053143, -0.07250413, 0.15847282, 100.07100677, 104.91204071, 32.27999878, 0.00000000
1, 0.2750, 34, -0.15179548, -0.96351695, 0.06642274, 4.41533375, -22.80446243, 64.71396637, -26.62964058, 1.84156680, -110.28939056, 100.48543549, -0.23123336, -41.23348618, -0.59912390, 0.71907055, -0.27189943, -0.22373821, 0.14898053, -0.01991268, 0.11348332, 100.07100677, 104.91204071, 32.27999878, 0.00000000
1, 0.2800, 35, -0.23058268, -1.05653203, 0.22253770, 12.24978828, -22.06369400, 71.53716278, -26.62964058, 1.84156680, -110.28939056, 100.54877472, -0.56291246, -41.40665817, -0.59916884, 0.71832854, -0.27483755, -0.22240776, 0.22168350, 0.07304508, -0.04208088, 100.07100677, 104.91204071, 32.27999878, 0.00000000
1, 0.2850, 36, -0.35698816, -1.10016394, 0.31284529, 15.73045444, -26.15163040, 77.70481873, -26.62964058, 1.84156680, -110.28939056, 100.63098907, -0.92092359, -41.60598755, -0.59910774, 0.71755570, -0.27810630, -0.22099945, 0.34171477, 0.11684921, -0.13144082, 100.07100677, 104.91204071, 32.27999878, 0.00000000
1, 0.2900, 37, -0.44970089, -1.07445383, 0.27308169, 17.91739655, -26.99630737, 80.32081604, -27.47734642, 1.54925454, -109.88014984, 100.72554779, -1.29068244, -41.81243515, -0.59898472, 0.71679044, -0.28149602, -0.21951945, 0.42810935, 0.09161291, -0.09030831, 100.07100677, 104.91204071, 32.27999878, 0.00000000
1, 0.2950, 38, -0.50612700, -1.02852809, 0.18846436, 17.47035980, -19.94534492, 78.07595825, -27.47734642, 1.54925454, -109.88014984, 100.81822205, -1.65561426, -41.98278809, -0.59893292, 0.71609867, -0.28462288, -0.21788070, 0.47833848, 0.04628461, -0.00416793, 100.07100677, 104.91204071, 32.27999878, 0.00000000
1, 0.3000, 39, -0.51246232, -0.99550092, 0.12341190, 14.00038242, -8.07323551, 71.21741486, -27.76965714, -0.11692487, -110.34784698, 100.89247894, -1.99773347, -42.08895493, -0.59906501, 0.71550560, -0.28718871, -0.21609157, 0.47874826, 0.01380670, 0.06225180, 100.07100677, 104.91204071, 32.27999878, 0.00000000
1, 0.3050, 40, -0.44606486, -0.98485947, 0.11732905, 8.62769032, 1.94129777, 62.69135284, -27.76965714, -0.11692487, -110.34784698, 100.93824005, -2.30732799, -42.13829041, -0.59940505, 0.71496636, -0.28917339, -0.21427891, 0.40682185, 0.00354786, 0.06939241, 100.07100677, 104.91204071, 32.27999878, 0.00000000
1, 0.3450, 41, -0.21422249, -0.93818521, 0.19251038, 2.91384649, -31.66406631, 48.60821152, -30.07892418, 1.81233561, -109.88014984, 101.09257507, -4.32484245, -42.93388748, -0.60161376, 0.70928746, -0.30468759, -0.20527463, 0.13922241, -0.04074772, -0.00285881, 100.07100677, 104.91204071, 32.27999878, 0.00000000
1, 0.3500, 42, -0.27811894, -0.96380210, 0.14410280, 4.71486759, -30.91753960, 47.16593552, -30.22508049, 1.34463608, -109.93861389, 101.13196564, -4.52672768, -43.13126755, -0.60147524, 0.70850837, -0.30700043, -0.20492503, 0.19970718, -0.01466214, 0.04592869, 100.07100677, 104.91204071, 32.27999878, 0.00000000
1, 0.3550, 43, -0.30668974, -0.98879075, 0.15670186, 6.46243048, -28.61244202, 46.07696915, -30.22508049, 1.34463608, -109.93861389, 101.17978668, -4.72531366, -43.31646347, -0.60130024, 0.70780617, -0.30923274, -0.20450842, 0.22477768, 0.01073304, 0.03394995, 100.07100677, 104.91204071, 32.27999878, 0.00000000
1, 0.3600, 44, -0.32180771, -1.00219309, 0.19074716, 7.22533178, -27.19143677, 45.18976974, -30.22508049, 1.34463608, -109.93861389, 101.23140717, -4.92072964, -43.49401474, -0.60110962, 0.70714474, -0.31140518, -0.20406002, 0.23639616, 0.02453065, 0.00065587, 100.07100677, 104.91204071, 32.27999878, 0.00000000
1, 0.3650, 45, -0.32216761, -0.99923062, 0.23053503, 7.67078209, -26.07738495, 43.91371918, -30.86816597, 1.19848001, -110.37708282, 101.28525543, -5.11080599, -43.66509247, -0.60090590, 0.70651835, -0.31351146, -0.20360379, 0.23332751, 0.02196743, -0.03827652, 100.07100677, 104.91204071, 32.27999878, 0.00000000
1, 0.3700, 46, -0.31782991, -0.99117100, 0.27514651, 7.86352205, -24.68374252, 42.50734711, -30.86816597, 1.19848001, -110.37708282, 101.33988953, -5.29516983, -43.82815552, -0.60069990, 0.70592523, -0.31553790, -0.20313805, 0.22564867, 0.01430753, -0.08198461, 100.07100677, 104.91204071, 32.27999878, 0.00000000
1, 0.3750, 47, -0.32254341, -0.96691453, 0.31470218, 7.09323883, -23.11876869, 40.87195206, -31.89126015, 0.81847411, -110.14323425, 101.39704132, -5.48519087, -43.98259735, -0.60050786, 0.70534986, -0.31754097, -0.20258263, 0.22703856, -0.00953025, -0.12063694, 100.07100677, 104.91204071, 32.27999878, 0.00000000
1, 0.3800, 48, -0.33482486, -0.94951892, 0.32122254, 6.29231262, -21.97098541, 39.19194794, -31.89126015, 0.81847411, -110.14323425, 101.44324493, -5.65568352, -44.12947464, -0.60035312, 0.70477897, -0.31937763, -0.20214044, 0.23618865, -0.02646546, -0.12634709, 100.07100677, 104.91204071, 32.27999878, 0.00000000
1, 0.3850, 49, -0.33786058, -0.94235206, 0.32750982, 5.31709242, -18.39763451, 36.52041245, -31.89126015, 0.81847411, -110.14323425, 101.48294830, -5.81652117, -44.25627899, -0.60025269, 0.70424849, -0.32102886, -0.20167151, 0.23639174, -0.03322694, -0.13199359, 100.07100677, 104.91204071, 32.27999878, 0.00000000
1, 0.3900, 50, -0.32273549, -0.96084261, 0.32715452, 4.35057259, -15.30265522, 34.92397690, -32.15433884, 1.05232382, -109.85092163, 101.51644135, -5.97249937, -44.36637497, -0.60020936, 0.70374018, -0.32254025, -0.20116252, 0.21853611, -0.01433836, -0.13108173, 100.07100677, 104.91204071, 32.27999878, 0.00000000
1, 0.4450, 51, -0.20280050, -0.97745144, 0.19746600, 6.35397005, -4.20567703, 23.10502243, -32.70973206, 1.40309846, -109.20783234, 101.83708191, -7.37695503, -45.01539230, -0.60031426, 0.70011121, -0.33400580, -0.19469778, 0.07437300, 0.00640144, 0.00371628, 100.07100677, 104.91204071, 32.27999878, 0.00000000
1, 0.4500, 52, -0.18342373, -0.98899961, 0.18119720, 5.09952688, -3.63563156, 22.11806870, -33.55743790, 2.01695418, -109.17860413, 101.86811066, -7.48145390, -45.05604172, -0.60029191, 0.69989312, -0.33481908, -0.19415334, 0.05321101, 0.01832519, 0.02052365, 100.07100677, 104.91204071, 32.27999878, 0.00000000
1, 0.4550, 53, -0.17354277, -0.98117244, 0.16388544, 4.71230793, -4.11142540, 21.48071480, -33.55743790, 2.01695418, -109.17860413, 101.89749908, -7.58233309, -45.09846878, -0.60026848, 0.69966930, -0.33562192, -0.19364564, 0.04161261, 0.01085668, 0.03831539, 100.07100677, 104.91204071, 32.27999878, 0.00000000
1, 0.4600, 54, -0.18783395, -0.97822154, 0.17850935, 6.25615835, -5.41053486, 21.00947189, -33.79129028, 1.25694239, -108.85705566, 101.93547058, -7.67953539, -45.14688110, -0.60017431, 0.69948119, -0.33645710, -0.19316718, 0.05417026, 0.00823089, 0.02421839, 100.07100677, 104.91204071, 32.27999878, 0.00000000
1, 0.4650, 55, -0.20875122, -0.98179185, 0.19837163, 7.32858467, -5.98027229, 20.45645714, -33.79129028, 1.25694239, -108.85705566, 101.97917938, -7.77339554, -45.19760895, -0.60003394, 0.69932377, -0.33729887, -0.19270478, 0.07340010, 0.01213781, 0.00497278, 100.07100677, 104.91204071, 32.27999878, 0.00000000
1, 0.4700, 56, -0.23178409, -0.98318172, 0.19307439, 6.69190216, -6.42264032, 19.78802681, -33.79129028, 1.25694239, -108.85705566, 102.02001953, -7.86349010, -45.24990463, -0.59990013, 0.69915521, -0.33812624, -0.19228253, 0.09487173, 0.01389845, 0.01087774, 100.07100677, 104.91204071, 32.27999878, 0.00000000
1, 0.4750, 57, -0.26914355, -0.97848415, 0.17142197, 6.67546368, -5.15867949, 19.36268616, -33.96667480, 0.96463019, -108.97398376, 102.05522156, -7.97082329, -45.29483414, -0.59985214, 0.69893408, -0.33898252, -0.19172768, 0.13058701, 0.00960058, 0.03302472, 100.07100677, 104.91204071, 32.27999878, 0.00000000
1, 0.4800, 58, -0.28251168, -0.98800802, 0.20177205, 8.20149136, -1.97213697, 19.20890045, -33.96667480, 0.96463019, -108.97398376, 102.10063171, -8.06262302, -45.32468796, -0.59973210, 0.69884962, -0.33968741, -0.19116244, 0.14215061, 0.01946274, 0.00328054, 100.07100677, 104.91204071, 32.27999878, 0.00000000
1, 0.4850, 59, -0.27172378, -1.00035357, 0.24352838, 8.52571583, 0.61021990, 19.12611389, -34.25898743, 0.55539316, -109.06167603, 102.14590454, -8.15668964, -45.34178543, -0.59963936, 0.69879586, -0.34032455, -0.19051582, 0.12964064, 0.03213111, -0.03774203, 100.07100677, 104.91204071, 32.27999878, 0.00000000
1, 0.4900, 60, -0.25873575, -0.99370265, 0.23578097, 7.65398693, 1.94370437, 18.39785004, -34.25898743, 0.55539316, -109.06167603, 102.18579865, -8.24857998, -45.35159683, -0.59958649, 0.69874060, -0.34089702, -0.18986048, 0.11507361, 0.02586616, -0.02930978, 100.07100677, 104.91204071, 32.27999878, 0.00000000
1, 0.5300, 61, -0.18723311, -0.97564960, 0.26888788, 4.11500502, 22.64339256, 12.34647369, -35.07746124, 1.19848001, -108.85705566, 102.37792206, -8.94454193, -44.89146805, -0.60070747, 0.69933218, -0.34177521, -0.18241367, 0.03144350, 0.01027043, -0.05920814, 100.07100677, 104.91204071, 32.27999878, 0.00000000
1, 0.5350, 62, -0.14000610, -0.97131574, 0.27367765, 4.04262209, 22.71571732, 12.20890999, -34.98976898, -1.57848585, -108.62320709, 102.38277435, -9.02830410, -44.79224396, -0.60101873, 0.69943810, -0.34158248, -0.18134029, -0.01724149, 0.00616946, -0.06384113, 100.07100677, 104.91204071, 32.27999878, 0.00000000
1, 0.5400, 63, -0.09607799, -0.97994721, 0.28763723, 3.85405278, 20.62778473, 12.05638599, -34.98976898, -1.57848585, -108.62320709, 102.38817596, -9.10910892, -44.70317841, -0.60130256, 0.69952399, -0.34143820, -0.18033715, -0.06261070, 0.01501666, -0.07766353, 100.07100677, 104.91204071, 32.27999878, 0.00000000
1, 0.5450, 64, -0.04440729, -0.98576176, 0.29178619, 3.29261565, 17.10004044, 12.25986481, -34.98976898, -1.57848585, -108.62320709, 102.39342499, -9.18717384, -44.63178253, -0.60155225, 0.69956338, -0.34138811, -0.17944434, -0.11564764, 0.02105683, -0.08165056, 100.07100677, 104.91204071, 32.27999878, 0.00000000
1, 0.5500, 65, -0.04280624, -0.98303664, 0.28059679, 2.70618892, 12.70091915, 12.47794533, -34.84361267, 0.70154923, -108.91551971, 102.39919281, -9.26162148, -44.58236694, -0.60175544, 0.69954926, -0.34145549, -0.17868838, -0.11853150, 0.01857724, -0.07040872, 100.07100677, 104.91204071, 32.27999878, 0.00000000
1, 0.5550, 66, -0.06885985, -0.97018981, 0.23659243, 1.60390234, 6.74066067, 12.24475574, -34.84361267, 0.70154923, -108.91551971, 102.40411377, -9.32860565, -44.56223297, -0.60190147, 0.69946247, -0.34166399, -0.17813654, -0.09354670, 0.00601070, -0.02639766, 100.07100677, 104.91204071, 32.27999878, 0.00000000
1, 0.5600, 67, -0.12206154, -0.95713341, 0.20440570, 1.12977934, 4.62706757, 11.60452557, -33.76205826, 1.02309263, -109.03244781, 102.40822601, -9.39020348, -44.55185699, -0.60202539, 0.69935620, -0.34190473, -0.17767297, -0.04134836, -0.00680318, 0.00571153, 100.07100677, 104.91204071, 32.27999878, 0.00000000
1, 0.5650, 68, -0.17359017, -0.95320058, 0.17810741, 1.31041217, 4.22846031, 10.85662842, -33.76205826, 1.02309263, -109.03244781, 102.41339874, -9.44772911, -44.54263687, -0.60213196, 0.69926232, -0.34213439, -0.17723848, 0.00923870, -0.01051163, 0.03193564, 100.07100677, 104.91204071, 32.27999878, 0.00000000
1, 0.5700, 69, -0.20500705, -0.95516503, 0.16049497, 1.28664207, 6.02289486, 10.09350300, -33.76205826, 1.02309263, -109.03244781, 102.41683960, -9.50345325, -44.52373886, -0.60225999, 0.69919282, -0.34229347, -0.17676979, 0.03973529, -0.00834693, 0.04949747, 100.07100677, 104.91204071, 32.27999878, 0.00000000
1, 0.5750, 70, -0.21413451, -0.96061158, 0.15561827, 1.06862319, 9.17412376, 9.33013630, -34.75592041, -0.61385560, -108.53551483, 102.40492249, -9.56905079, -44.48641205, -0.60253096, 0.69907200, -0.34236413, -0.17618637, 0.04783299, -0.00274078, 0.05421882, 100.07100677, 104.91204071, 32.27999878, 0.00000000
1, 0.5850, 71, -0.15284994, -0.96272063, 0.17135066, 1.36247742, 14.01260567, 8.10974026, -34.28821945, 0.32154340, -108.59397888, 102.39866638, -9.67885208, -44.37417984, -0.60297579, 0.69909018, -0.34220007, -0.17490676, -0.01547301, -0.00037166, 0.03837278, 100.07100677, 104.91204071, 32.27999878, 0.00000000
1, 0.5900, 72, -0.12068787, -0.96521997, 0.17070915, 0.93341595, 14.09009933, 7.62631798, -34.28821945, 0.32154340, -108.59397888, 102.39305115, -9.73110580, -44.31258774, -0.60321516, 0.69910920, -0.34206808, -0.17426236, -0.04854394, 0.00226178, 0.03897095, 100.07100677, 104.91204071, 32.27999878, 0.00000000
1, 0.5950, 73, -0.10796672, -0.96881950, 0.16689040, 1.00432885, 14.02945614, 7.27344799, -34.28821945, 0.32154340, -108.59397888, 102.38771057, -9.78155804, -44.25089645, -0.60344851, 0.69913459, -0.34192723, -0.17362799, -0.06212765, 0.00599299, 0.04268825, 100.07100677, 104.91204071, 32.27999878, 0.00000000
1, 0.6000, 74, -0.10614432, -0.98499227, 0.18260111, 1.71160877, 14.41368294, 7.48391581, -34.78514862, -0.38000584, -108.30166626, 102.38555908, -9.83344936, -44.18752289, -0.60366726, 0.69917792, -0.34178790, -0.17296575, -0.06487300, 0.02227820, 0.02687405, 100.07100677, 104.91204071, 32.27999878, 0.00000000
1, 0.6050, 75, -0.10818087, -0.99275601, 0.19089781, 1.84402204, 15.28016567, 7.71319628, -34.78514862, -0.38000584, -108.30166626, 102.38333893, -9.88735962, -44.12008286, -0.60389620, 0.69922769, -0.34163341, -0.17226902, -0.06377176, 0.03017642, 0.01849315, 100.07100677, 104.91204071, 32.27999878, 0.00000000
1, 0.6100, 76, -0.10950904, -1.00106037, 0.19432177, 1.01048934, 16.75047684, 8.56505203, -34.31745148, 1.95849168, -108.59397888, 102.37577820, -9.94701099, -44.04625320, -0.60417861, 0.69925344, -0.34145969, -0.17151722, -0.06345278, 0.03862364, 0.01491392, 100.07100677, 104.91204071, 32.27999878, 0.00000000
1, 0.6150, 77, -0.10389360, -0.98896813, 0.18458034, 0.47590619, 17.06962776, 9.59597874, -34.31745148, 1.95849168, -108.59397888, 102.36540222, -10.01204109, -43.97192764, -0.60448933, 0.69925171, -0.34130478, -0.17073616, -0.07014053, 0.02669756, 0.02447532, 100.07100677, 104.91204071, 32.27999878, 0.00000000
1, 0.6200, 78, -0.09439717, -0.96815038, 0.17269053, 1.13091564, 16.17007446, 11.03839111, -34.31745148, 1.95849168, -108.59397888, 102.35926819, -10.08313847, -43.90359879, -0.60477686, 0.69923866, -0.34122223, -0.16993459, -0.08080034, 0.00607864, 0.03625508, 100.07100677, 104.91204071, 32.27999878, 0.00000000
1, 0.6250, 79, -0.09639527, -0.94449925, 0.18628664, 2.14511347, 15.02502441, 12.68069172, -34.84361267, 1.49079216, -108.03858185, 102.35778809, -10.15028763, -43.84249878, -0.60501611, 0.69923872, -0.34117156, -0.16918249, -0.08005433, -0.01739099, 0.02260897, 100.07100677, 104.91204071, 32.27999878, 0.00000000
1, 0.6300, 80, -0.09990589, -0.93439472, 0.20138113, 2.68620992, 14.68563461, 13.96264553, -34.84361267, 1.49079216, -108.03858185, 102.36116028, -10.23407269, -43.78465271, -0.60525471, 0.69921142, -0.34122822, -0.16832536, -0.07790000, -0.02728139, 0.00750632, 100.07100677, 104.91204071, 32.27999878, 0.00000000
1, 0.6600, 81, -0.00912566, -0.95917344, 0.23460898, 1.43406284, 13.66388893, 19.84299660, -35.10669327, 1.05232382, -108.91551971, 102.34735107, -10.86016941, -43.41451263, -0.60715473, 0.69861192, -0.34197235, -0.16235591, -0.17939237, -0.00067827, -0.02618596, 100.07100677, 104.91204071, 32.27999878, 0.00000000
1, 0.6650, 82, -0.08477537, -0.95279574, 0.23425575, 2.72281170, 13.19858551, 20.83201599, -35.10669327, 1.05232382, -108.91551971, 102.35305023, -10.97593689, -43.37133789, -0.60741466, 0.69846839, -0.34227538, -0.16135986, -0.10570678, -0.00666921, -0.02601427, 100.07100677, 104.91204071, 32.27999878, 0.00000000
1, 0.6700, 83, -0.13896926, -0.96476567, 0.22557147, 3.13739634, 17.20238495, 21.06237984, -35.10669327, 1.05232382, -108.91551971, 102.35697174, -11.09706211, -43.30847549, -0.60772246, 0.69835979, -0.34248146, -0.16022956, -0.05354334, 0.00572285, -0.01748728, 100.07100677, 104.91204071, 32.27999878, 0.00000000
1, 0.6750, 84, -0.14534217, -0.97686291, 0.23027338, 3.17949486, 22.50178337, 20.87268448, -35.42823792, 1.84156680, -109.38321686, 102.35765839, -11.21775341, -43.21938705, -0.60808372, 0.69831336, -0.34252098, -0.15897204, -0.04927293, 0.01821809, -0.02229377, 100.07100677, 104.91204071, 32.27999878, 0.00000000
1, 0.6800, 85, -0.12699246, -0.97902048, 0.23691298, 2.88711381, 26.11884880, 20.99767685, -35.42823792, 1.84156680, -109.38321686, 102.35134888, -11.34805584, -43.11198044, -0.60852969, 0.69825894, -0.34248540, -0.15757518, -0.06980774, 0.02077092, -0.02905446, 100.07100677, 104.91204071, 32.27999878, 0.00000000
1, 0.6850, 86, -0.11903895, -0.97662699, 0.24185459, 3.39962530, 27.98992920, 21.59658623, -35.42823792, 1.22771120, -108.79859924, 102.34562683, -11.48324013, -42.99582672, -0.60899067, 0.69822061, -0.34242091, -0.15609753, -0.08006349, 0.01879657, -0.03417642, 100.07100677, 104.91204071, 32.27999878, 0.00000000
1, 0.6900, 87, -0.13652961, -0.97840703, 0.25961488, 4.39975595, 30.67105103, 21.99827957, -35.42823792, 1.22771120, -108.79859924, 102.34204102, -11.62321186, -42.86666870, -0.60946226, 0.69821942, -0.34230310, -0.15451229, -0.06499204, 0.02100558, -0.05215354, 100.07100677, 104.91204071, 32.27999878, 0.00000000
1, 0.6950, 88, -0.15913975, -0.97677767, 0.28231928, 5.02907562, 34.50854492, 21.97658157, -35.42823792, 1.22771120, -108.79859924, 102.33735657, -11.76713467, -42.71826553, -0.60997015, 0.69825906, -0.34208560, -0.15280113, -0.04488372, 0.01981706, -0.07508729, 100.07100677, 104.91204071, 32.27999878, 0.00000000
1, 0.7350, 89, -0.19468352, -0.99555981, 0.24743925, 2.34898043, 55.70833206, 20.09740448, -35.16515732, 1.52002335, -109.61707306, 102.08270264, -12.94140816, -40.97907639, -0.61590409, 0.69896269, -0.33682951, -0.13659878, -0.02922678, 0.04203600, -0.04532616, 100.07100677, 104.91204071, 32.27999878, 0.00000000
1, 0.7400, 90, -0.16508207, -0.99768114, 0.23533262, 1.78178656, 52.66707230, 20.34760475, -35.16515732, 1.52002335, -109.61707306, 102.03719330, -13.09549999, -40.73630905, -0.61674154, 0.69902635, -0.33604091, -0.13441983, -0.06142991, 0.04460847, -0.03403357, 100.07100677, 104.91204071, 32.27999878, 0.00000000
1, 0.7450, 91, -0.13100743, -1.00214195, 0.24600549, 1.96235359, 49.56201553, 20.62181473, -35.19438553, 1.52002335, -109.38321686, 101.99550629, -13.24755096, -40.50917053, -0.61752599, 0.69906837, -0.33534351, -0.13232465, -0.09812278, 0.04949088, -0.04547011, 100.07100677, 104.91204071, 32.27999878, 0.00000000
1, 0.7500, 92, -0.12098163, -1.01565981, 0.26848453, 1.06466615, 44.68083954, 21.95403671, -35.19438553, 1.84156680, -109.38321686, 101.95468903, -13.40096474, -40.30773163, -0.61827099, 0.69903493, -0.33481175, -0.13035443, -0.11080001, 0.06342871, -0.06874573, 100.07100677, 104.91204071, 32.27999878, 0.00000000
1, 0.7550, 93, -0.15913835, -1.01636374, 0.27564299, -0.24510886, 38.82933426, 24.39005089, -35.19438553, 1.84156680, -109.38321686, 101.91421509, -13.56016064, -40.13806915, -0.61898160, 0.69889432, -0.33450353, -0.12851505, -0.07533514, 0.06460184, -0.07681413, 100.07100677, 104.91204071, 32.27999878, 0.00000000
1, 0.7600, 94, -0.17563808, -1.02418494, 0.25057584, -1.17751491, 34.03558350, 26.42583847, -35.63285446, 2.16311026, -109.03244781, 101.87479401, -13.72431278, -39.99446869, -0.61965954, 0.69866920, -0.33438057, -0.12677953, -0.06154009, 0.07298214, -0.05258979, 100.07100677, 104.91204071, 32.27999878, 0.00000000
1, 0.7650, 95, -0.16469583, -1.00125182, 0.22013485, -2.94514871, 30.41077232, 27.34340286, -35.63285446, 2.16311026, -109.03244781, 101.83067322, -13.88918591, -39.86988068, -0.62034172, 0.69836044, -0.33437300, -0.12515473, -0.07520234, 0.05062004, -0.02293444, 100.07100677, 104.91204071, 32.27999878, 0.00000000
1, 0.7700, 96, -0.15828247, -0.97504687, 0.21273562, -3.95888329, 28.93961525, 27.32124138, -35.63285446, 2.16311026, -109.03244781, 101.78287506, -14.05235958, -39.75245285, -0.62103111, 0.69801438, -0.33439794, -0.12358959, -0.08436851, 0.02493618, -0.01640059, 100.07100677, 104.91204071, 32.27999878, 0.00000000
1, 0.7750, 97, -0.20607863, -0.96174788, 0.23447847, -3.54029131, 29.70086861, 27.68457985, -35.07746124, 1.19848001, -108.65244293, 101.73949432, -14.21568775, -39.63222885, -0.62169260, 0.69769901, -0.33441254, -0.12199450, -0.03939771, 0.01212409, -0.03914314, 100.07100677, 104.91204071, 32.27999878, 0.00000000
1, 0.7800, 98, -0.25951332, -0.98200083, 0.27592549, -2.56054950, 31.03330231, 27.66881561, -35.07746124, 1.19848001, -108.65244293, 101.69540405, -14.38248634, -39.50415802, -0.62236798, 0.69739264, -0.33439666, -0.12033521, 0.01113348, 0.03286017, -0.08160228, 100.07100677, 104.91204071, 32.27999878, 0.00000000
1, 0.8250, 99, -0.23087882, -1.04886961, 0.27383870, -6.67112684, 27.32275581, 29.87603760, -35.69131851, 2.54311609, -108.91551971, 101.20745850, -15.87625217, -38.39833450, -0.62873310, 0.69397640, -0.33447057, -0.10592932, -0.04265923, 0.10475621, -0.08891285, 100.07100677, 104.91204071, 32.27999878, 0.00000000
1, 0.8300, 100, -0.25187680, -1.03777707, 0.27096879, -6.98661089, 29.95902061, 30.22331238, -35.69131851, 2.54311609, -108.91551971, 101.13914490, -16.05343056, -38.27565765, -0.62951881, 0.69348353, -0.33452907, -0.10429310, -0.02458652, 0.09427880, -0.08730051, 100.07100677, 104.91204071, 32.27999878, 0.00000000
1, 0.8350, 101, -0.24017182, -1.02932703, 0.26611632, -5.39915800, 31.11445427, 30.54611015, -36.27594376, 2.57234716, -109.76322937, 101.07678986, -16.23312759, -38.14707184, -0.63027239, 0.69303262, -0.33457130, -0.10258961, -0.03928487, 0.08647627, -0.08364926, 100.07100677, 104.91204071, 32.27999878, 0.00000000
1, 0.8400, 102, -0.24481364, -1.05681956, 0.27226931, -5.32216692, 30.72218323, 30.95640564, -36.27594376, 2.57234716, -109.76322937, 101.01501465, -16.41433716, -38.02058029, -0.63101745, 0.69257349, -0.33463588, -0.10088516, -0.03769030, 0.11463352, -0.09102228, 100.07100677, 104.91204071, 32.27999878, 0.00000000
1, 0.8450, 103, -0.25940007, -1.04871476, 0.28972983, -6.34963989, 33.38941956, 31.20832253, -36.01286316, 2.33849740, -110.26015472, 100.94379425, -16.59917641, -37.88035583, -0.63183123, 0.69209141, -0.33462888, -0.09910788, -0.02621887, 0.10717035, -0.10981324, 100.07100677, 104.91204071, 32.27999878, 0.00000000
1, 0.8500, 104, -0.24224301, -1.04072738, 0.31327945, -5.41898251, 39.01564026, 32.24193573, -36.01286316, 2.33849740, -110.26015472, 100.86870575, -16.79417992, -37.71189499, -0.63270050, 0.69164145, -0.33450001, -0.09711838, -0.04664893, 0.09985167, -0.13471553, 100.07100677, 104.91204071, 32.27999878, 0.00000000
1, 0.8550, 105, -0.21018757, -1.06683755, 0.34564188, -4.73943329, 41.91838455, 33.45919418, -36.01286316, 2.33849740, -110.26015472, 100.79234314, -16.99764061, -37.52926636, -0.63359344, 0.69120139, -0.33432859, -0.09499730, -0.08215339, 0.12667242, -0.16847517, 100.07100677, 104.91204071, 32.27999878, 0.00000000
1, 0.8600, 106, -0.19940385, -1.09921992, 0.33986238, -7.35714817, 40.93426132, 34.34536362, -36.45132828, 1.90002918, -109.55860901, 100.70388794, -17.20433807, -37.35205841, -0.63455105, 0.69066805, -0.33419871, -0.09291873, -0.09636547, 0.15983707, -0.16430759, 100.07100677, 104.91204071, 32.27999878, 0.00000000
1, 0.8650, 107, -0.18984322, -1.11559951, 0.30585310, -9.42017365, 38.11752701, 34.86532593, -36.45132828, 1.90002918, -109.55860901, 100.60879517, -17.41076469, -37.18930817, -0.63552856, 0.69005477, -0.33415258, -0.09093989, -0.10928216, 0.17702967, -0.13205406, 100.07100677, 104.91204071, 32.27999878, 0.00000000
1, 0.8700, 108, -0.16200434, -1.15598965, 0.25764018, -8.71370029, 35.70671844, 35.42980576, -36.53902435, 2.63080978, -109.44168091, 100.52042389, -17.61750984, -37.03898621, -0.63644862, 0.68943977, -0.33419135, -0.08900715, -0.14044312, 0.21828848, -0.08550675, 100.07100677, 104.91204071, 32.27999878, 0.00000000
1, 0.8900, 109, -0.06265160, -1.31272662, 0.02683581, -15.40092564, 40.31744385, 42.70537186, -36.86056519, 0.49693072, -110.14323425, 100.10077667, -18.51361465, -36.42880249, -0.64054233, 0.68642825, -0.33461607, -0.08095647, -0.25392404, 0.37888980, 0.13776536, 100.07100677, 104.91204071, 32.27999878, 0.00000000
1, 0.8950, 110, -0.04911612, -1.26825750, 0.04340503, -15.66829872, 45.18355942, 44.50726700, -37.15287781, 3.42005253, -110.69862366, 99.96086884, -18.77198219, -36.23451996, -0.64182359, 0.68550116, -0.33462685, -0.07858494, -0.27171630, 0.33539027, 0.11880934, 100.07100677, 104.91204071, 32.27999878, 0.00000000
1, 0.9000, 111, -0.04175840, -1.23909712, 0.05944850, -14.41724968, 51.09336853, 46.91059875, -37.15287781, 3.42005253, -110.69862366, 99.81680298, -19.04675484, -36.01062393, -0.64315611, 0.68458861, -0.33454487, -0.07595044, -0.28358364, 0.30729744, 0.10023186, 100.07100677, 104.91204071, 32.27999878, 0.00000000
1, 0.9050, 112, -0.02556204, -1.26314700, 0.14912693, -13.46811962, 52.70100784, 49.95132065, -37.15287781, 3.42005253, -110.69862366, 99.67426300, -19.33733749, -35.77994156, -0.64448714, 0.68365711, -0.33450833, -0.07316782, -0.30473435, 0.33241749, 0.00795921, 100.07100677, 104.91204071, 32.27999878, 0.00000000
1, 0.9100, 113, 0.03766992, -1.28822541, 0.19738324, -16.54978561, 49.17619324, 52.04471588, -37.70827103, 3.65390229, -110.61093140, 99.52158356, -19.63479424, -35.56832504, -0.64585859, 0.68259013, -0.33462033, -0.07047517, -0.37296128, 0.35869819, -0.04289597, 100.07100677, 104.91204071, 32.27999878, 0.00000000
1, 0.9150, 114, 0.04297387, -1.29610717, 0.20377026, -20.31126595, 40.29561234, 55.00057220, -37.70827103, 3.65390229, -110.61093140, 99.36528015, -19.93912697, -35.40456772, -0.64721501, 0.68133974, -0.33505622, -0.06801697, -0.38324827, 0.36790150, -0.05210991, 100.07100677, 104.91204071, 32.27999878, 0.00000000
1, 0.9200, 115, -0.03941980, -1.31816590, 0.22225420, -22.25184250, 33.92355347, 58.58892441, -38.05904770, 3.53697753, -110.84477997, 99.21063232, -20.25568199, -35.27616119, -0.64854026, 0.67995661, -0.33577004, -0.06567388, -0.30603802, 0.39136505, -0.07364666, 100.07100677, 104.91204071, 32.27999878, 0.00000000
1, 0.9250, 116, -0.10127259, -1.35550010, 0.22821870, -23.76947212, 30.63881302, 61.40423584, -38.05904770, 3.53697753, -110.84477997, 99.05430603, -20.57663727, -35.16633224, -0.64985669, 0.67849219, -0.33662069, -0.06341309, -0.24946585, 0.43021089, -0.08264591, 100.07100677, 104.91204071, 32.27999878, 0.00000000
1, 0.9300, 117, -0.09327696, -1.37021041, 0.18993467, -26.06439209, 29.60438347, 63.05624008, -38.05904770, 3.53697753, -110.84477997, 98.88782501, -20.91128731, -35.06201553, -0.65123111, 0.67690992, -0.33757201, -0.06112541, -0.26275200, 0.44657147, -0.04732390, 100.07100677, 104.91204071, 32.27999878, 0.00000000
1, 0.9350, 118, -0.12853295, -1.33655035, 0.19989017, -27.37101746, 32.10066223, 64.53446960, -38.43905258, 3.56620860, -111.13709259, 98.70946503, -21.25486374, -34.94438171, -0.65267754, 0.67526805, -0.33848891, -0.05874047, -0.23307875, 0.41456330, -0.06046739, 100.07100677, 104.91204071, 32.27999878, 0.00000000
1, 0.9750, 119, 0.07681254, -1.36731088, 0.24155143, -37.89611435, 17.95710373, 81.26153564, -40.04676819, 4.56007004, -111.57556152, 97.10368347, -24.33279610, -33.97650528, -0.66499454, 0.65998709, -0.34750068, -0.03798273, -0.48787108, 0.46213308, -0.13003221, 100.07100677, 104.91204071, 32.27999878, 0.00000000
1, 0.9800, 120, 0.04935279, -1.36633849, 0.20029309, -35.94372940, 21.68581390, 83.35858154, -40.04676819, 4.56007004, -111.57556152, 96.89875793, -24.76003647, -33.91332626, -0.66648728, 0.65771616, -0.34920734, -0.03547561, -0.46696675, 0.46383339, -0.09243250, 100.07100677, 104.91204071, 32.27999878, 0.00000000
1, 0.9850, 121, 0.05403952, -1.37297618, 0.17578697, -34.03792572, 29.21619797, 85.23136902, -40.19292450, 4.64776373, -112.24787903, 96.68518066, -25.20073509, -33.80815125, -0.66803157, 0.65547276, -0.35074511, -0.03266868, -0.47851741, 0.47330052, -0.07162625, 100.07100677, 104.91204071, 32.27999878, 0.00000000
1, 0.9900, 122, 0.10830269, -1.41850114, 0.23344807, -31.77805710, 37.04550934, 87.84286499, -40.19292450, 4.64776373, -112.24787903, 96.46345520, -25.65842056, -33.65928650, -0.66962218, 0.65325499, -0.35212544, -0.02952677, -0.54007411, 0.52169079, -0.13305752, 100.07100677, 104.91204071, 32.27999878, 0.00000000
1, 0.9950, 123, 0.19023827, -1.46768081, 0.25662395, -31.25497627, 41.53963852, 90.92276764, -40.98217010, 4.73545742, -113.76790619, 96.23211670, -26.13332748, -33.48485947, -0.67125744, 0.65099812, -0.35345548, -0.02615817, -0.62948149, 0.57398885, -0.16009332, 100.07100677, 104.91204071, 32.27999878, 0.00000000
1, 1.0000, 124, 0.30609688, -1.52307153, 0.23831837, -34.71327591, 36.98269653, 93.80255127, -40.98217010, 4.73545742, -113.76790619, 95.99296570, -26.61957741, -33.33454514, -0.67290920, 0.64857668, -0.35498983, -0.02288653, -0.75285226, 0.63271749, -0.14567614, 100.07100677, 104.91204071, 32.27999878, 0.00000000
1, 1.0050, 125, 0.37583029, -1.52578199, 0.17880720, -39.34881592, 32.57037735, 96.03477478, -40.98217010, 4.73545742, -113.76790619, 95.73982239, -27.11418343, -33.20710373, -0.67461127, 0.64596558, -0.35670480, -0.01974487, -0.83011460, 0.63897210, -0.09026325, 100.07100677, 104.91204071, 32.27999878, 0.00000000
1, 1.0100, 126, 0.43494475, -1.47699666, 0.15594809, -40.16705704, 33.00621033, 97.91336060, -41.36217499, 5.26161957, -113.65097809, 95.47953796, -27.61783600, -33.07515717, -0.67632937, 0.64328671, -0.35845083, -0.01654775, -0.89694935, 0.59381109, -0.07157534, 100.07100677, 104.91204071, 32.27999878, 0.00000000
1, 1.0150, 127, 0.46660280, -1.43992722, 0.20177294, -37.96436691, 36.69482803, 100.32173157, -41.36217499, 5.26161957, -113.65097809, 95.21863556, -28.13460922, -32.92048645, -0.67802870, 0.64062285, -0.36014825, -0.01314130, -0.93665016, 0.56043947, -0.12166486, 100.07100677, 104.91204071, 32.27999878, 0.00000000
1, 1.0200, 128, 0.45224905, -1.41141939, 0.28645748, -36.47666931, 37.76279068, 102.81695557, -42.41449738, 5.29085064, -114.20636749, 94.96003723, -28.66362953, -32.75757217, -0.67968768, 0.63794875, -0.36187539, -0.00960738, -0.93059134, 0.53576422, -0.21070081, 100.07100677, 104.91204071, 32.27999878, 0.00000000
1, 1.0900, 129, 0.02102952, -1.33157313, 0.43877476, -28.46718597, 98.36595154, 126.38258362, -45.24992752, 9.06167793, -115.08330536, 90.30101013, -36.90107346, -28.66064453, -0.70371538, 0.59634876, -0.38271213, 0.05181051, -0.62034643, 0.52955031, -0.43489945, 100.07100677, 104.91204071, 32.27999878, 0.00000000
1, 1.0950, 130, 0.01580401, -1.31388640, 0.52254677, -30.94353485, 99.90822601, 125.08383179, -46.24378967, 9.58784008, -116.01870728, 89.76801300, -37.52636719, -28.03258514, -0.70588374, 0.59307963, -0.38295022, 0.05774071, -0.62407738, 0.51831090, -0.52601910, 100.07100677, 104.91204071, 32.27999878, 0.00000000
1, 1.1000, 131, 0.03420192, -1.32996488, 0.59068936, -34.15499115, 91.84459686, 124.65209198, -46.24378967, 9.58784008, -116.01870728, 89.23716736, -38.14530182, -27.44302559, -0.70796663, 0.58970946, -0.38341543, 0.06339318, -0.65120590, 0.54093623, -0.60145330, 100.07100677, 104.91204071, 32.27999878, 0.00000000
1, 1.1050, 132, -0.01600515, -1.28078687, 0.60330981, -39.96722412, 72.62087250, 125.31943512, -46.24378967, 9.96784592, -116.54486847, 88.74111176, -38.76533127, -26.96402168, -0.70984286, 0.58617479, -0.38449162, 0.06847349, -0.60951275, 0.49854350, -0.62098950, 100.07100677, 104.91204071, 32.27999878, 0.00000000
1, 1.1100, 133, -0.11355329, -1.24248791, 0.60785246, -43.86516190, 56.89379501, 126.11586761, -46.24378967, 9.96784592, -116.54486847, 88.27841187, -39.38839722, -26.57527924, -0.71152294, 0.58252805, -0.38607174, 0.07310897, -0.52042109, 0.46720734, -0.63193393, 100.07100677, 104.91204071, 32.27999878, 0.00000000
1, 1.1150, 134, -0.25341025, -1.20917189, 0.58437115, -46.24166870, 44.83056641, 127.19056702, -46.24378967, 9.96784592, -116.54486847, 87.84403229, -40.01657867, -26.25477791, -0.71302927, 0.57880396, -0.38804647, 0.07742874, -0.38895023, 0.44108647, -0.61440498, 100.07100677, 104.91204071, 32.27999878, 0.00000000
1, 1.1200, 135, -0.26456517, -1.20974827, 0.51198703, -46.63303375, 42.08999252, 128.04159546, -47.17918777, 11.02016926, -116.13563538, 87.41056824, -40.64772797, -25.94280624, -0.71446842, 0.57504034, -0.39011437, 0.08169641, -0.38602349, 0.44910309, -0.54754543, 100.07100677, 104.91204071, 32.27999878, 0.00000000
1, 1.1250, 136, -0.25249064, -1.21635032, 0.46218687, -45.84444427, 38.71100998, 128.33659363, -47.17918777, 11.02016926, -116.13563538, 86.99666595, -41.27110291, -25.65029907, -0.71576595, 0.57135266, -0.39225805, 0.08584239, -0.40626541, 0.46319795, -0.50296044, 100.07100677, 104.91204071, 32.27999878, 0.00000000
1, 1.1300, 137, -0.25859469, -1.22918010, 0.43765447, -48.02492905, 33.49225616, 127.29354858, -47.99766159, 11.54633141, -116.92487335, 86.57720947, -41.89746094, -25.37768745, -0.71704155, 0.56754613, -0.39455211, 0.08984197, -0.40826881, 0.48356044, -0.48348537, 100.07100677, 104.91204071, 32.27999878, 0.00000000
1, 1.1350, 138, -0.20336381, -1.18670046, 0.27247646, -54.69501114, 25.50112152, 124.03328705, -47.99766159, 11.54633141, -116.92487335, 86.15332794, -42.50871277, -25.15146065, -0.71833104, 0.56359673, -0.39702803, 0.09342416, -0.47106341, 0.44886822, -0.32313937, 100.07100677, 104.91204071, 32.27999878, 0.00000000
1, 1.1750, 139, -1.02537358, -0.60737741, 0.03462324, 0.19439386, -84.11975861, 97.23672485, -50.65770340, 13.59251690, -117.65565491, 86.26734924, -47.00804901, -26.81318474, -0.71419865, 0.54241163, -0.42847809, 0.11007544, 0.29538006, -0.07469113, -0.08396322, 100.07100677, 104.91204071, 32.27999878, 0.00000000
1, 1.1800, 140, -0.94948125, -0.63809001, 0.11704781, 15.29953671, -75.69797516, 91.32136536, -51.73925781, 13.97252274, -117.48027039, 86.72251892, -47.48735046, -27.32737541, -0.71197027, 0.54154164, -0.43291527, 0.11142501, 0.21343997, -0.03817099, -0.16051534, 100.07100677, 104.91204071, 32.27999878, 0.00000000
1, 1.1850, 141, -0.83398080, -0.69393194, 0.29123908, 23.42051315, -55.14097977, 82.31398773, -51.73925781, 13.97252274, -117.48027039, 87.11811066, -47.91328430, -27.70255089, -0.70996577, 0.54098183, -0.43645066, 0.11312859, 0.09232372, 0.02277713, -0.32929486, 100.07100677, 104.91204071, 32.27999878, 0.00000000
1, 1.1900, 142, -0.65295076, -0.69419563, 0.41152185, 18.89557838, -39.62775421, 69.91224670, -51.73925781, 13.97252274, -117.48027039, 87.41477203, -48.27196121, -27.97305298, -0.70841336, 0.54043245, -0.43922848, 0.11472455, -0.09339768, 0.02753197, -0.44516319, 100.07100677, 104.91204071, 32.27999878, 0.00000000
1, 1.1950, 143, -0.47866431, -0.62797344, 0.40891746, 11.11427498, -40.53999329, 55.68826675, -52.87927628, 14.93715286, -117.48027039, 87.68534088, -48.55897903, -28.25953674, -0.70709050, 0.53991234, -0.44173446, 0.11570844, -0.27121574, -0.03485132, -0.43869781, 100.07100677, 104.91204071, 32.27999878, 0.00000000
1, 1.2000, 144, -0.38805255, -0.54110420, 0.30974323, 4.45619631, -49.19373322, 40.77474213, -52.87927628, 14.93715286, -117.48027039, 87.97843170, -48.77233124, -28.61949539, -0.70582718, 0.53951186, -0.44418758, 0.11589867, -0.36425573, -0.11865513, -0.33571547, 100.07100677, 104.91204071, 32.27999878, 0.00000000
1, 1.2050, 145, -0.35619545, -0.44241068, 0.14964324, 0.18192306, -51.91730499, 26.35778427, -52.96696854, 14.70330334, -117.18795776, 88.27133179, -48.91295624, -29.00683212, -0.70467979, 0.53926778, -0.44640496, 0.11549631, -0.39753956, -0.21511774, -0.17192397, 100.07100677, 104.91204071, 32.27999878, 0.00000000
1, 1.2100, 146, -0.32720652, -0.35988477, 0.03497442, 0.82039183, -49.00315475, 12.46834564, -52.96696854, 14.70330334, -117.18795776, 88.55472565, -48.98246002, -29.37696838, -0.70364064, 0.53929514, -0.44820094, 0.11474591, -0.42724222, -0.29640469, -0.05374043, 100.07100677, 104.91204071, 32.27999878, 0.00000000
1, 1.2150, 147, -0.28556836, -0.30655065, -0.04902990, 3.96885490, -44.68834686, -0.82376933, -52.96696854, 14.70330334, -117.18795776, 88.83151245, -48.98375320, -29.71748734, -0.70267570, 0.53965473, -0.44953436, 0.11374843, -0.46887982, -0.34943789, 0.03364453, 100.07100677, 104.91204071, 32.27999878, 0.00000000
1, 1.2200, 148, -0.25935608, -0.29019359, -0.04788123, 8.45304298, -41.74772263, -12.97386932, -53.96083069, 15.55100822, -116.63256073, 89.11480713, -48.92290497, -30.03723145, -0.70172065, 0.54037291, -0.45046800, 0.11253385, -0.49465567, -0.36636263, 0.03578283, 100.07100677, 104.91204071, 32.27999878, 0.00000000
1, 1.2550, 149, -0.35208201, -0.37614948, -0.00863842, 36.00922012, -22.86336517, -89.46355438, -52.90850449, 14.03098488, -115.66793060, 91.16394806, -46.79437256, -31.62085724, -0.69531560, 0.55500007, -0.44601363, 0.09789255, -0.37817317, -0.30686408, 0.02014980, 100.07100677, 104.91204071, 32.27999878, 0.00000000
1, 1.2600, 150, -0.37378335, -0.39189178, -0.03761154, 40.52607346, -18.89195061, -98.08427429, -52.90850449, 14.03098488, -115.66793060, 91.45406342, -46.30158234, -31.74304581, -0.69438088, 0.55820757, -0.44403788, 0.09523623, -0.35062721, -0.29711628, 0.05266161, 100.07100677, 104.91204071, 32.27999878, 0.00000000
1, 1.2650, 151, -0.37614286, -0.40787438, -0.04120056, 45.82792664, -15.02883816, -106.26190948, -52.90850449, 14.03098488, -115.66793060, 91.74530792, -45.76791763, -31.83113098, -0.69340932, 0.56170458, -0.44171321, 0.09252538, -0.34192723, -0.28762588, 0.05990572, 100.07100677, 104.91204071, 32.27999878, 0.00000000
1, 1.2700, 152, -0.39414781, -0.44456333, -0.03512489, 50.90681458, -13.16872406, -113.78338623, -53.23004913, 14.08944702, -115.55101013, 92.04714966, -45.19659424, -31.89945030, -0.69236052, 0.56547678, -0.43911505, 0.08972669, -0.31707734, -0.25783768, 0.05759342, 100.07100677, 104.91204071, 32.27999878, 0.00000000
1, 1.2750, 153, -0.41429937, -0.48107412, -0.03225817, 55.67221832, -12.18229771, -122.75885010, -53.23004913, 14.08944702, -115.55101013, 92.35990143, -44.57900238, -31.95191193, -0.69123662, 0.56953984, -0.43622109, 0.08676117, -0.28943402, -0.22869217, 0.05873447, 100.07100677, 104.91204071, 32.27999878, 0.00000000
1, 1.2800, 154, -0.43090773, -0.53221035, -0.03862245, 58.42350006, -9.23950958, -131.24142456, -52.44080734, 10.49400711, -115.14176941, 92.66831970, -43.92071152, -31.97760773, -0.69009662, 0.57381713, -0.43301302, 0.08366817, -0.26475155, -0.18526816, 0.06916075, 100.07100677, 104.91204071, 32.27999878, 0.00000000
1, 1.2850, 155, -0.42177466, -0.57073402, -0.04992453, 59.93731308, -6.55419350, -138.13700867, -52.44080734, 10.49400711, -115.14176941, 92.96617126, -43.22851944, -31.97742653, -0.68896639, 0.57823640, -0.42952824, 0.08045907, -0.26523650, -0.15478541, 0.08460334, 100.07100677, 104.91204071, 32.27999878, 0.00000000
1, 1.2900, 156, -0.40471655, -0.60220778, -0.05042180, 61.73280716, -3.65498662, -145.13624573, -52.44080734, 10.49400711, -115.14176941, 93.25453186, -42.50211334, -31.95018387, -0.68783855, 0.58280426, -0.42575419, 0.07714178, -0.27313638, -0.13165422, 0.08924247, 100.07100677, 104.91204071, 32.27999878, 0.00000000
1, 1.2950, 157, -0.38879064, -0.63424289, -0.04837511, 63.64670944, -1.72947776, -152.16021729, -51.59310150, 12.33557415, -114.17713928, 93.53898621, -41.74131012, -31.90264702, -0.68668783, 0.58752412, -0.42171627, 0.07369358, -0.27935931, -0.10823023, 0.09137163, 100.07100677, 104.91204071, 32.27999878, 0.00000000
1, 1.3000, 158, -0.37177661, -0.66076636, -0.04506870, 65.50382996, -1.02040970, -159.31759644, -51.59310150, 12.33557415, -114.17713928, 93.82510376, -40.94515610, -31.84294701, -0.68548852, 0.59239697, -0.41744506, 0.07007845, -0.28609389, -0.09057304, 0.09236239, 100.07100677, 104.91204071, 32.27999878, 0.00000000
1, 1.3300, 159, -0.18282798, -0.75438559, -0.06406862, 64.65699768, -13.04410267, -197.34460449, -47.70534897, 6.25548077, -113.56328583, 95.57904053, -35.46590424, -31.47297287, -0.67713392, 0.62354732, -0.38830280, 0.04358323, -0.40073970, -0.05370745, 0.14025632, 100.07100677, 104.91204071, 32.27999878, 0.00000000
1, 1.3350, 160, -0.20301676, -0.79417729, -0.02196397, 65.60420227, -19.03909683, -202.68730164, -47.70534897, 6.25548077, -113.56328583, 95.90099335, -34.44721985, -31.46679115, -0.67539084, 0.62891656, -0.38321626, 0.03816497, -0.36625317, -0.02365218, 0.10352710, 100.07100677, 104.91204071, 32.27999878, 0.00000000
1, 1.3400, 161, -0.23968014, -0.82520628, -0.00453740, 65.27670288, -22.22504807, -206.50964355, -47.70534897, 6.25548077, -113.56328583, 96.22685242, -33.40791702, -31.47045517, -0.67355007, 0.63428921, -0.37808576, 0.03253765, -0.31470308, -0.00224869, 0.09167840, 100.07100677, 104.91204071, 32.27999878, 0.00000000
1, 1.3450, 162, -0.27236336, -0.85759091, 0.01533979, 64.85569763, -26.52416229, -210.42744446, -45.65916443, 7.24934244, -113.09558105, 96.55902863, -32.34678268, -31.48984718, -0.67159390, 0.63966155, -0.37293938, 0.02666613, -0.26664251, 0.02062352, 0.07757780, 100.07100677, 104.91204071, 32.27999878, 0.00000000
1, 1.3500, 163, -0.30413899, -0.88263106, 0.00899558, 62.71105576, -32.40602493, -214.32597351, -45.65916443, 7.24934244, -113.09558105, 96.89286804, -31.26283836, -31.53345108, -0.66954273, 0.64497966, -0.36782393, 0.02047893, -0.21890409, 0.03631960, 0.08986532, 100.07100677, 104.91204071, 32.27999878, 0.00000000
1, 1.3550, 164, -0.34123680, -0.87919402, -0.02300950, 61.22075653, -36.56956863, -218.47229004, -44.08067703, 6.43086815, -112.13095093, 97.22531128, -30.15561676, -31.59035683, -0.66740423, 0.65026051, -0.36267909, 0.01402747, -0.16524693, 0.02371722, 0.12792473, 100.07100677, 104.91204071, 32.27999878, 0.00000000
1, 1.3600, 165, -0.36508384, -0.87520480, -0.02005755, 61.44194412, -38.14091110, -222.61366272, -44.08067703, 6.43086815, -112.13095093, 97.55685425, -29.02660370, -31.64520264, -0.66516882, 0.65554744, -0.35742575, 0.00741263, -0.12440250, 0.01067448, 0.13114166, 100.07100677, 104.91204071, 32.27999878, 0.00000000
1, 1.3650, 166, -0.37321070, -0.88244641, -0.01337058, 61.47119141, -38.49968719, -226.54841614, -42.56065369, 6.43086815, -112.21865082, 97.88327026, -27.87758064, -31.69110489, -0.66285795, 0.66082686, -0.35203233, 0.00067264, -0.09878522, 0.00905740, 0.13066873, 100.07100677, 104.91204071, 32.27999878, 0.00000000
1, 1.4350, 167, -0.48152721, -1.14136112, 0.10657132, 45.57670593, -16.18523598, -269.73461914, -33.58666992, 0.58462435, -109.38321686, 101.46820831, -9.91211987, -31.29161453, -0.62522882, 0.72799635, -0.26067072, -0.10564630, 0.30336994, 0.17663628, 0.08521481, 100.07100677, 104.91204071, 32.27999878, 0.00000000
1, 1.4400, 168, -0.47387016, -1.14200854, 0.11637414, 43.94668198, -16.62418556, -269.44387817, -31.33586693, 0.78924292, -108.74013519, 101.65423584, -8.57474899, -31.10266113, -0.62237328, 0.73211181, -0.25275591, -0.11304116, 0.31871593, 0.17410481, 0.07936941, 100.07100677, 104.91204071, 32.27999878, 0.00000000
1, 1.4450, 169, -0.47582448, -1.13763452, 0.10334603, 42.63246918, -19.45011520, -268.26770020, -31.33586693, 0.78924292, -108.74013519, 101.83956146, -7.24091148, -30.92517853, -0.61944652, 0.73606050, -0.24491334, -0.12049272, 0.34375882, 0.16712856, 0.09619857, 100.07100677, 104.91204071, 32.27999878, 0.00000000
1, 1.4500, 170, -0.47281808, -1.13824189, 0.07513786, 42.22911453, -23.66904831, -265.31359863, -31.33586693, 0.78924292, -108.74013519, 102.02935028, -5.91779232, -30.76768112, -0.61641592, 0.73984206, -0.23724365, -0.12798688, 0.36379832, 0.16572836, 0.12817705, 100.07100677, 104.91204071, 32.27999878, 0.00000000
1, 1.4550, 171, -0.45750782, -1.15551245, 0.03538184, 42.38075638, -26.51224518, -261.42236328, -28.88044357, 0.20461853, -107.74626923, 102.22482300, -4.61126280, -30.62412643, -0.61328828, 0.74347067, -0.22974445, -0.13544874, 0.37135673, 0.18158862, 0.17170411, 100.07100677, 104.91204071, 32.27999878, 0.00000000
1, 1.4600, 172, -0.42563790, -1.21214318, 0.00657654, 43.46228409, -32.59976578, -256.98937988, -28.88044357, 0.20461853, -107.74626923, 102.43103790, -3.32043910, -30.51076889, -0.61000919, 0.74694884, -0.22252780, -0.14296018, 0.36208963, 0.23736772, 0.20431542, 100.07100677, 104.91204071, 32.27999878, 0.00000000
1, 1.4650, 173, -0.41107249, -1.25986004, 0.01050403, 43.81892395, -43.24358368, -251.63932800, -26.33732796, -1.34463608, -107.80473328, 102.64409637, -2.04468155, -30.45060921, -0.60656941, 0.75022167, -0.21574247, -0.15065329, 0.36982062, 0.28473473, 0.20420955, 100.07100677, 104.91204071, 32.27999878, 0.00000000
1, 1.4700, 174, -0.43563956, -1.27886832, 0.03614726, 42.65214920, -57.03184128, -244.97773743, -26.33732796, -1.34463608, -107.80473328, 102.85446930, -0.78656894, -30.46038246, -0.60300517, 0.75321597, -0.20950598, -0.15861228, 0.41634443, 0.30386150, 0.18221599, 100.07100677, 104.91204071, 32.27999878, 0.00000000
1, 1.4750, 175, -0.47670516, -1.27457261, 0.05617099, 41.12472916, -70.40557098, -238.30166626, -26.33732796, -1.34463608, -107.80473328, 103.05511475, 0.44914341, -30.53820610, -0.59936392, 0.75590682, -0.20382683, -0.16680087, 0.47904858, 0.30015028, 0.16560671, 100.07100677, 104.91204071, 32.27999878, 0.00000000
1, 1.4800, 176, -0.51945353, -1.24396634, 0.06596921, 39.26560593, -79.81780243, -231.35169983, -24.78807259, -0.78924292, -107.33703613, 103.24617767, 1.66663241, -30.66555214, -0.59565634, 0.75834769, -0.19856437, -0.17514153, 0.54308629, 0.27056396, 0.15896851, 100.07100677, 104.91204071, 32.27999878, 0.00000000
1, 1.4850, 177, -0.55080503, -1.20507085, 0.10183264, 37.76375961, -86.15525818, -223.21133423, -24.78807259, -0.78924292, -107.33703613, 103.42572784, 2.85214424, -30.82923317, -0.59193730, 0.76054448, -0.19370204, -0.18347229, 0.59517610, 0.23303446, 0.12602456, 100.07100677, 104.91204071, 32.27999878, 0.00000000
1, 1.5100, 178, -0.89615035, -1.16082573, 0.15766872, 25.74861336, -83.43508148, -156.07893372, -21.71879578, -0.05846244, -107.01548767, 104.04642487, 7.89626598, -32.00008774, -0.57514119, 0.76760405, -0.17603163, -0.22138108, 1.02949810, 0.19908872, 0.07832673, 100.07100677, 104.91204071, 32.27999878, 0.00000000
1, 1.5150, 179, -0.85362524, -1.12420142, 0.23351827, 22.25207329, -79.62914276, -143.11459351, -20.57877731, 0.20461853, -106.89856720, 104.12482452, 8.68714333, -32.21556854, -0.57239783, 0.76846075, -0.17345181, -0.22747150, 1.00073242, 0.16461684, 0.00357725, 100.07100677, 104.91204071, 32.27999878, 0.00000000
1, 1.5200, 180, -0.80928165, -1.09544957, 0.24754857, 16.52232742, -79.48922729, -130.59478760, -20.57877731, 0.20461853, -106.89856720, 104.16962433, 9.41728783, -32.44535446, -0.56994355, 0.76904458, -0.17122321, -0.23327565, 0.96920240, 0.13800985, -0.00989048, 100.07100677, 104.91204071, 32.27999878, 0.00000000
1, 1.5250, 181, -0.78965557, -1.08140397, 0.20663680, 11.63771629, -78.61404419, -117.92800903, -20.57877731, 0.20461853, -106.89856720, 104.18436432, 10.07040405, -32.68666458, -0.56780595, 0.76937079, -0.16941683, -0.23866898, 0.96131945, 0.12602660, 0.03097721, 100.07100677, 104.91204071, 32.27999878, 0.00000000
1, 1.5300, 182, -0.79147708, -1.07165062, 0.16540706, 8.99478912, -74.76988220, -104.79837799, -19.70184135, 0.00000000, -106.89856720, 104.18501282, 10.66975594, -32.92556000, -0.56585968, 0.76956844, -0.16784702, -0.24371034, 0.97371101, 0.11818242, 0.07180546, 100.07100677, 104.91204071, 32.27999878, 0.00000000
1, 1.5350, 183, -0.78693569, -1.06275475, 0.18367063, 8.55456066, -70.63674927, -91.30433655, -19.70184135, 0.00000000, -106.89856720, 104.18192291, 11.19861507, -33.16124344, -0.56408465, 0.76967943, -0.16661853, -0.24827513, 0.97849333, 0.11097826, 0.05309038, 100.07100677, 104.91204071, 32.27999878, 0.00000000
1, 1.5400, 184, -0.75731641, -1.04631448, 0.23942053, 6.93116426, -68.57813263, -77.42403412, -18.97106171, -0.58462435, -107.27857208, 104.16739655, 11.65760231, -33.40444183, -0.56251556, 0.76965511, -0.16578379, -0.25243416, 0.95688927, 0.09598227, -0.00313386, 100.07100677, 104.91204071, 32.27999878, 0.00000000
1, 1.5450, 185, -0.71555459, -1.01639116, 0.26150098, 2.82636023, -70.06771851, -63.17609787, -18.97106171, -0.58462435, -107.27857208, 104.12548065, 12.04913998, -33.67332077, -0.56121910, 0.76939732, -0.16541596, -0.25631729, 0.92204821, 0.06728607, -0.02598439, 100.07100677, 104.91204071, 32.27999878, 0.00000000
1, 1.5500, 186, -0.70098013, -0.98045564, 0.20579211, -1.27527130, -74.66725922, -48.51160049, -18.97106171, -0.58462435, -107.27857208, 104.05277252, 12.37477398, -33.98394012, -0.56018132, 0.76887047, -0.16560498, -0.26001966, 0.91344965, 0.03238579, 0.02843073, 100.07100677, 104.91204071, 32.27999878, 0.00000000
1, 1.5550, 187, -0.72346514, -0.95408165, 0.16933335, -4.31646824, -77.82081604, -29.83019066, -18.50336075, 0.76001167, -106.81087494, 103.95508575, 12.61304379, -34.33406830, -0.55942523, 0.76808923, -0.16646121, -0.26338774, 0.94038939, 0.00662002, 0.06310607, 100.07100677, 104.91204071, 32.27999878, 0.00000000
1, 1.5750, 188, -0.68275094, -0.88573313, 0.19296792, -21.06638527, -81.87145233, 31.76800919, -19.17568016, 0.49693072, -107.42472839, 103.46099091, 12.74246979, -35.88938141, -0.55875057, 0.76347673, -0.17500904, -0.27253091, 0.90343064, -0.06281705, 0.03178723, 100.07100677, 104.91204071, 32.27999878, 0.00000000
1, 1.5800, 189, -0.69565564, -0.78198647, 0.16317318, -14.08525467, -84.28684235, 50.86522293, -19.05875397, -0.49693072, -107.86319733, 103.28582764, 12.59154510, -36.36968231, -0.55917460, 0.76173794, -0.17859450, -0.27419549, 0.91399229, -0.16778982, 0.05872438, 100.07100677, 104.91204071, 32.27999878, 0.00000000
1, 1.5850, 190, -0.95075607, -0.94270480, 0.13276699, -8.27612209, -86.63076019, 70.92546082, -19.05875397, -0.49693072, -107.86319733, 103.13421631, 12.34436607, -36.88416290, -0.55961370, 0.75994205, -0.18296887, -0.27539641, 1.16536236, -0.00844260, 0.08588558, 100.07100677, 104.91204071, 32.27999878, 0.00000000
1, 1.5900, 191, -1.19477665, -1.14156139, 0.13528317, -11.06555462, -86.43640137, 92.45259094, -20.43262100, 0.52616191, -107.71704102, 102.96679688, 11.99064827, -37.42108154, -0.56038892, 0.75788915, -0.18801372, -0.27607837, 1.40381908, 0.18860567, 0.08000054, 100.07100677, 104.91204071, 32.27999878, 0.00000000
1, 1.5950, 192, -1.20269251, -1.31892776, 0.31634384, -16.14504242, -81.77521515, 115.72775269, -20.43262100, 0.52616191, -107.71704102, 102.77783203, 11.51659298, -37.95914841, -0.56162971, 0.75555277, -0.19364645, -0.27606732, 1.40370381, 0.36342752, -0.10404980, 100.07100677, 104.91204071, 32.27999878, 0.00000000
1, 1.6000, 193, -1.10884321, -1.49274468, 0.37060496, -24.66682625, -83.27777863, 140.61735535, -20.43262100, 0.52616191, -107.71704102, 102.54524231, 10.92068481, -38.52950668, -0.56341141, 0.75274694, -0.20002560, -0.27555296, 1.30004370, 0.53442746, -0.16162661, 100.07100677, 104.91204071, 32.27999878, 0.00000000
1, 1.6050, 194, -0.85347575, -1.67282701, 0.34700099, -26.47411919, -82.21079254, 160.96098328, -21.36802101, 0.61385560, -107.98011780, 102.30779266, 10.22191048, -39.11291122, -0.56547272, 0.74969006, -0.20701325, -0.27450126, 1.03314459, 0.71150744, -0.14125341, 100.07100677, 104.91204071, 32.27999878, 0.00000000
1, 1.6100, 195, -0.46003744, -1.80558264, 0.34914935, -20.41561699, -68.62952423, 160.36633301, -21.36802101, 0.61385560, -107.98011780, 102.12006378, 9.50974941, -39.62436295, -0.56741613, 0.74690539, -0.21370527, -0.27294958, 0.62744105, 0.84141457, -0.14550370, 100.07100677, 104.91204071, 32.27999878, 0.00000000
1, 1.6150, 196, 0.44821787, -1.88120222, -0.13037829, -42.99379349, 0.66737956, 131.10903931, -23.18035698, 0.38000584, -108.50628662, 101.88520050, 8.86718178, -39.75833130, -0.57036781, 0.74462157, -0.21744767, -0.27006653, -0.29108396, 0.91519529, 0.33291280, 100.07100677, 104.91204071, 32.27999878, 0.00000000
1, 1.6200, 197, 1.06295466, -1.71568644, -0.53011334, -75.33680725, 28.96459961, 108.64016724, -23.18035698, 0.38000584, -108.50628662, 101.51467896, 8.30506420, -39.72569656, -0.57435524, 0.74205112, -0.21936880, -0.26712099, -0.91484076, 0.74765325, 0.72912407, 100.07100677, 104.91204071, 32.27999878, 0.00000000
1, 1.6500, 198, -0.78409749, -0.38778564, 0.15341164, 24.57132149, -97.78662109, 146.02423096, -25.28500366, -0.02923122, -109.99707794, 100.31370544, 5.19708776, -43.16582108, -0.58234984, 0.72391850, -0.25513235, -0.26780257, 0.87713516, -0.59208548, 0.02179730, 100.07100677, 104.91204071, 32.27999878, 0.00000000
1, 1.6550, 199, -0.67577469, -0.57779396, 0.60051441, 38.35625839, -49.08223724, 147.71069336, -26.77579689, -0.61385560, -109.09090424, 100.47550964, 4.51477242, -43.54059219, -0.58229518, 0.72266942, -0.26148462, -0.26515484, 0.75596374, -0.40336210, -0.42263150, 100.07100677, 104.91204071, 32.27999878, 0.00000000
1, 1.6600, 200, -0.36829203, -0.77575338, 0.90909147, 18.97317314, -60.10396576, 138.40589905, -26.77579689, -0.61385560, -109.09090424, 100.54136658, 3.88879728, -43.96245575, -0.58259034, 0.72087264, -0.26759008, -0.26329961, 0.43645683, -0.20643064, -0.72886205, 100.07100677, 104.91204071, 32.27999878, 0.00000000
1, 1.6650, 201, -0.22765708, -0.79937565, 0.53621107, -11.60326767, -98.96487427, 126.86248016, -28.90967560, 0.08769365, -109.41245270, 100.44687653, 3.35409784, -44.56488800, -0.58323753, 0.71794987, -0.27396044, -0.26330155, 0.28715694, -0.18303001, -0.35669929, 100.07100677, 104.91204071, 32.27999878, 0.00000000
1, 1.6700, 202, -0.43270537, -0.66663289, -0.18785898, -37.56277847, -149.19334412, 101.42414093, -28.90967560, 0.08769365, -109.41245270, 100.21470642, 2.98712349, -45.39043045, -0.58377498, 0.71404886, -0.28050336, -0.26581737, 0.48682809, -0.31562221, 0.36370447, 100.07100677, 104.91204071, 32.27999878, 0.00000000
1, 1.6750, 203, -0.76828349, -0.65930271, -0.40213475, -19.10751915, -133.15043640, 92.63328552, -29.87430573, 0.08769365, -109.38321686, 100.07347107, 2.62902641, -46.12812424, -0.58391231, 0.71077830, -0.28663102, -0.26773736, 0.81677610, -0.32342041, 0.57436335, 100.07100677, 104.91204071, 32.27999878, 0.00000000
1, 1.6800, 204, -1.11082375, -0.74012518, -0.29435602, 4.86813688, -93.73584747, 85.87153625, -29.87430573, 0.40923706, -109.38321686, 100.07579041, 2.28739142, -46.66456985, -0.58358079, 0.70872730, -0.29173797, -0.26838055, 1.15296340, -0.24314903, 0.46504396, 100.07100677, 104.91204071, 32.27999878, 0.00000000
1, 1.6850, 205, -1.24233508, -0.87296844, 0.10018038, 19.13138390, -50.50594330, 82.12854004, -29.87430573, 0.40923706, -109.38321686, 100.16060638, 1.92717862, -46.98488235, -0.58329910, 0.70757693, -0.29578507, -0.26759747, 1.27730083, -0.11097516, 0.07119018, 100.07100677, 104.91204071, 32.27999878, 0.00000000
1, 1.7350, 206, -0.56713182, -0.96237874, -0.09887268, 24.09564972, 26.89795113, 67.57598877, -33.49897766, -0.02923122, -108.71089935, 100.60880280, -1.96631825, -47.30544662, -0.59026420, 0.70030963, -0.31868973, -0.24411367, 0.53463531, -0.01994576, 0.27931994, 100.07100677, 104.91204071, 32.27999878, 0.00000000
1, 1.7400, 207, -0.48901558, -1.08372903, 0.20608538, 27.85537338, 44.92085648, 65.39890289, -33.61590195, 0.02923122, -108.94475555, 100.74285126, -2.32866335, -47.14454269, -0.59072542, 0.70059866, -0.31982040, -0.24066591, 0.44943798, 0.10156307, -0.02336708, 100.07100677, 104.91204071, 32.27999878, 0.00000000
1, 1.7450, 208, -0.34611914, -1.08299673, 0.39503527, 19.06113243, 39.03771210, 62.07571793, -33.61590195, 0.02923122, -108.94475555, 100.83308411, -2.66964054, -47.01018143, -0.59133154, 0.70063645, -0.32090595, -0.23760289, 0.30000612, 0.10110801, -0.21023874, 100.07100677, 104.91204071, 32.27999878, 0.00000000
1, 1.7500, 209, -0.32038841, -0.99126446, 0.29501709, 9.38452816, 20.84869194, 58.85601425, -34.52206802, 0.40923706, -108.85705566, 100.87842560, -2.97808123, -46.96265411, -0.59194052, 0.70027369, -0.32226071, -0.23531115, 0.26900780, 0.00997809, -0.10912258, 100.07100677, 104.91204071, 32.27999878, 0.00000000
1, 1.7550, 210, -0.39572436, -0.92838800, 0.09695942, 8.55167675, 12.68145657, 56.32345200, -34.52206802, 0.40923706, -108.85705566, 100.92137909, -3.26648474, -46.95312881, -0.59243041, 0.69983572, -0.32373863, -0.23334420, 0.33974332, -0.05217185, 0.08950208, 100.07100677, 104.91204071, 32.27999878, 0.00000000
1, 1.7600, 211, -0.41558510, -0.95694399, 0.04130189, 12.12556934, 16.69636726, 54.30558014, -34.52206802, 0.40923706, -108.85705566, 100.98081970, -3.54874086, -46.92220306, -0.59284371, 0.69955492, -0.32508507, -0.23125538, 0.35480306, -0.02305819, 0.14596026, 100.07100677, 104.91204071, 32.27999878, 0.00000000
1, 1.7650, 212, -0.33750239, -1.01404488, 0.07344557, 11.41991425, 18.65988159, 52.04792404, -34.49283981, 1.19848001, -109.32476044, 101.03585052, -3.82179642, -46.87975311, -0.59327984, 0.69930327, -0.32630262, -0.22917387, 0.27183616, 0.03448032, 0.11484885, 100.07100677, 104.91204071, 32.27999878, 0.00000000
1, 1.7700, 213, -0.25165394, -1.01246119, 0.08066562, 7.74756289, 13.06745052, 50.06855392, -34.49283981, 1.19848001, -109.32476044, 101.07407379, -4.07990074, -46.86314774, -0.59372550, 0.69892454, -0.32756662, -0.22736487, 0.18140635, 0.03332910, 0.10850406, 100.07100677, 104.91204071, 32.27999878, 0.00000000
1, 1.7750, 214, -0.19835860, -0.94355118, 0.04279467, 7.57408094, 6.42114019, 48.26488495, -34.93130493, -1.69541073, -109.03244781, 101.09965515, -4.33438540, -46.87664413, -0.59417683, 0.69839978, -0.32896844, -0.22576874, 0.12381113, -0.03510370, 0.14708278, 100.07100677, 104.91204071, 32.27999878, 0.00000000
1, 1.7800, 215, -0.18974584, -0.93061590, 0.04940077, 12.18427849, 4.33053589, 47.03470230, -34.93130493, -1.69541073, -109.03244781, 101.16300964, -4.56920099, -46.90043640, -0.59432685, 0.69808602, -0.33040658, -0.22423878, 0.11095868, -0.04757666, 0.14124607, 100.07100677, 104.91204071, 32.27999878, 0.00000000
1, 1.8100, 216, -0.48048094, -0.99591565, 0.26690218, 20.12981224, 15.42390442, 36.05138016, -35.80824280, 0.96463019, -108.94475555, 101.77874756, -5.79349709, -47.03098679, -0.59333843, 0.69786125, -0.33842957, -0.21541759, 0.37969863, 0.02136906, -0.06701989, 100.07100677, 104.91204071, 32.27999878, 0.00000000
1, 1.8150, 217, -0.46470574, -0.98934329, 0.26843825, 18.21821404, 23.01715469, 33.90820313, -35.83747482, 1.25694239, -108.68167114, 101.86216736, -5.98268461, -46.95231247, -0.59343874, 0.69805092, -0.33903369, -0.21356866, 0.36062425, 0.01543278, -0.06709753, 100.07100677, 104.91204071, 32.27999878, 0.00000000
1, 1.8200, 218, -0.43026197, -0.97270489, 0.25437880, 16.84476280, 30.23142052, 31.78420067, -35.83747482, 1.25694239, -108.68167114, 101.93448639, -6.16895580, -46.83615494, -0.59366542, 0.69830108, -0.33937177, -0.21157484, 0.32296842, -0.00057970, -0.05172541, 100.07100677, 104.91204071, 32.27999878, 0.00000000
1, 1.8250, 219, -0.37561387, -0.95908558, 0.25064126, 16.73119354, 36.26576614, 29.93150330, -36.33440399, 1.08155513, -108.65244293, 102.00574493, -6.36892557, -46.68890762, -0.59398359, 0.69860321, -0.33958253, -0.20933414, 0.26499084, -0.01358482, -0.04671438, 100.07100677, 104.91204071, 32.27999878, 0.00000000
1, 1.8300, 220, -0.30618677, -0.95501447, 0.27066070, 17.41330528, 41.22550201, 28.14821815, -36.33440399, 1.08155513, -108.65244293, 102.07361603, -6.54907227, -46.51522446, -0.59431678, 0.69901603, -0.33952630, -0.20708984, 0.19223252, -0.01707833, -0.06545670, 100.07100677, 104.91204071, 32.27999878, 0.00000000
1, 1.8350, 221, -0.26853785, -0.95503318, 0.29003569, 18.39068794, 45.06326675, 25.31791878, -36.33440399, 1.08155513, -108.65244293, 102.14331055, -6.71957016, -46.31983948, -0.59464818, 0.69952679, -0.33929098, -0.20478670, 0.15154143, -0.01650054, -0.08363175, 100.07100677, 104.91204071, 32.27999878, 0.00000000
1, 1.8400, 222, -0.22761363, -0.96151626, 0.33624321, 18.32967567, 55.30648422, 22.26794624, -36.15901566, 0.73078048, -108.59397888, 102.20574188, -6.88610029, -46.07091522, -0.59510195, 0.70016807, -0.33869347, -0.20225024, 0.10759217, -0.00951991, -0.12872502, 100.07100677, 104.91204071, 32.27999878, 0.00000000
1, 1.8450, 223, -0.18888249, -0.96119106, 0.35446727, 17.93131828, 58.41320038, 20.38414383, -36.15901566, 0.73078048, -108.59397888, 102.26336670, -7.04693747, -45.80480957, -0.59559262, 0.70084882, -0.33795157, -0.19967255, 0.06600507, -0.00932644, -0.14593273, 100.07100677, 104.91204071, 32.27999878, 0.00000000
1, 1.8500, 224, -0.16428886, -0.96788883, 0.34830040, 18.07596397, 57.98614883, 19.35560989, -36.10055542, 1.28617358, -108.47705078, 102.32112885, -7.20257616, -45.53977203, -0.59605902, 0.70153922, -0.33718804, -0.19713092, 0.03870926, -0.00207675, -0.13881409, 100.07100677, 104.91204071, 32.27999878, 0.00000000
1, 1.8550, 225, -0.15521672, -0.97596836, 0.32253635, 18.09092712, 56.60796356, 18.72668076, -36.10055542, 1.28617358, -108.47705078, 102.37902832, -7.35393047, -45.28091812, -0.59649473, 0.70222217, -0.33643869, -0.19464613, 0.02706280, 0.00658685, -0.11213237, 100.07100677, 104.91204071, 32.27999878, 0.00000000
1, 1.8700, 226, -0.15285203, -0.96741319, 0.24555035, 15.63457489, 52.95467377, 14.74502754, -36.04209137, 0.61385560, -107.95088959, 102.53019714, -7.76381969, -44.53616333, -0.59773588, 0.70416534, -0.33411613, -0.18769494, 0.01769877, -0.00033898, -0.03272171, 100.07100677, 104.91204071, 32.27999878, 0.00000000
1, 1.8750, 227, -0.15849258, -0.96232998, 0.22683828, 15.69951344, 53.25629425, 13.80498219, -36.07132339, 0.99386144, -107.83396912, 102.57594299, -7.89009142, -44.28879166, -0.59813809, 0.70481020, -0.33328438, -0.18545912, 0.02120081, -0.00493013, -0.01331864, 100.07100677, 104.91204071, 32.27999878, 0.00000000
1, 1.8800, 228, -0.16316015, -0.97412133, 0.22236793, 16.09300232, 52.98965073, 13.44309616, -36.07132339, 0.99386144, -107.83396912, 102.62247467, -8.01287556, -44.04227066, -0.59851891, 0.70546424, -0.33243978, -0.18324627, 0.02373515, 0.00733471, -0.00816029, 100.07100677, 104.91204071, 32.27999878, 0.00000000
1, 1.8850, 229, -0.15481241, -0.98891568, 0.22447728, 15.83854294, 50.41876602, 13.06958771, -36.07132339, 0.99386144, -107.83396912, 102.66892242, -8.13126659, -43.80804062, -0.59886396, 0.70609218, -0.33164707, -0.18112475, 0.01331474, 0.02258769, -0.00954692, 100.07100677, 104.91204071, 32.27999878, 0.00000000
1, 1.8900, 230, -0.14910465, -0.99680007, 0.21640532, 14.97835255, 47.78873444, 12.03638840, -35.63285446, -0.64308679, -107.77550507, 102.71230316, -8.24193096, -43.58566284, -0.59918612, 0.70668787, -0.33088288, -0.17912266, 0.00568711, 0.03092336, -0.00079369, 100.07100677, 104.91204071, 32.27999878, 0.00000000
1, 1.8950, 231, -0.14020297, -0.98943222, 0.20740995, 11.69405937, 42.60247803, 10.69270039, -35.63285446, -0.64308679, -107.77550507, 102.74230957, -8.34054565, -43.38740540, -0.59952164, 0.70717299, -0.33018622, -0.17736197, -0.00495500, 0.02394815, 0.00874700, 100.07100677, 104.91204071, 32.27999878, 0.00000000
1, 1.9000, 232, -0.13158624, -0.97367740, 0.21060933, 10.86430931, 40.51718903, 10.19788074, -36.21747971, 0.67231804, -108.30166626, 102.76925659, -8.43456841, -43.19885635, -0.59984678, 0.70762473, -0.32952127, -0.17568968, -0.01521689, 0.00852756, 0.00600439, 100.07100677, 104.91204071, 32.27999878, 0.00000000
1, 1.9050, 233, -0.13132265, -0.96079051, 0.22295214, 10.99727535, 38.42044067, 10.53178596, -36.21747971, 0.67231804, -108.30166626, 102.79813385, -8.52802181, -43.02104950, -0.60013825, 0.70805645, -0.32892168, -0.17407081, -0.01712610, -0.00403812, -0.00589640, 100.07100677, 104.91204071, 32.27999878, 0.00000000
1, 1.9100, 234, -0.14089862, -0.94967127, 0.23128316, 10.54462624, 34.84548569, 11.29359055, -36.21747971, 0.67231804, -108.30166626, 102.82723999, -8.62133408, -42.86172104, -0.60039628, 0.70843631, -0.32843491, -0.17254815, -0.00918246, -0.01482262, -0.01379468, 100.07100677, 104.91204071, 32.27999878, 0.00000000
1, 1.9150, 235, -0.16891244, -0.94338763, 0.20112689, 9.41690731, 31.13361931, 11.71020031, -36.24671173, -2.19234133, -107.77550507, 102.85329437, -8.71267128, -42.72117615, -0.60063767, 0.70875078, -0.32804921, -0.17114481, 0.01732129, -0.02071809, 0.01670518, 100.07100677, 104.91204071, 32.27999878, 0.00000000
1, 1.9300, 236, -0.15050071, -0.98202717, 0.20831949, 10.47937107, 34.54636002, 12.12854195, -35.74977875, -1.69541073, -107.45395660, 102.92974091, -9.00143909, -42.27896118, -0.60141557, 0.70970601, -0.32682925, -0.16673183, -0.00606175, 0.01895180, 0.01059883, 100.07100677, 104.91204071, 32.27999878, 0.00000000
1, 1.9350, 237, -0.10009376, -0.99325025, 0.23399116, 9.02328014, 34.23427963, 11.54375172, -35.74977875, -1.69541073, -107.45395660, 102.95046234, -9.09567070, -42.12294769, -0.60170639, 0.71002823, -0.32635096, -0.16524094, -0.05817386, 0.03047493, -0.01464035, 100.07100677, 104.91204071, 32.27999878, 0.00000000
1, 1.9400, 238, -0.06125800, -0.98256576, 0.24136421, 7.58341694, 32.65990067, 11.31424236, -36.21747971, 0.20461853, -107.77550507, 102.96492004, -9.18709087, -41.97442627, -0.60201627, 0.71030271, -0.32589576, -0.16382477, -0.09861235, 0.02008593, -0.02169699, 100.07100677, 104.91204071, 32.27999878, 0.00000000
1, 1.9450, 239, -0.02905823, -0.97809482, 0.26364040, 7.62871885, 31.92172241, 11.61153984, -36.21747971, 0.20461853, -107.77550507, 102.98000336, -9.27917004, -41.82988358, -0.60231495, 0.71056724, -0.32546875, -0.16242263, -0.13244957, 0.01588640, -0.04369188, 100.07100677, 104.91204071, 32.27999878, 0.00000000
1, 1.9500, 240, -0.02089431, -0.98319376, 0.29880604, 7.20891714, 28.71497345, 13.01264286, -36.56825638, 0.20461853, -107.45395660, 102.99560547, -9.37454414, -41.70273209, -0.60258973, 0.71077669, -0.32516593, -0.16108835, -0.14233148, 0.02124774, -0.07864663, 100.07100677, 104.91204071, 32.27999878, 0.00000000
1, 1.9550, 241, -0.04153106, -0.98570907, 0.32773948, 6.45389223, 23.64289093, 13.63745403, -36.56825638, 0.20461853, -107.45395660, 103.01144409, -9.46734619, -41.60135651, -0.60281932, 0.71092027, -0.32501030, -0.15990509, -0.12337621, 0.02403682, -0.10742820, 100.07100677, 104.91204071, 32.27999878, 0.00000000
1, 1.9600, 242, -0.06884871, -0.98110855, 0.34134555, 5.25264454, 20.20135880, 14.37691498, -36.56825638, 0.20461853, -107.45395660, 103.02408600, -9.55993271, -41.51782227, -0.60304171, 0.71099687, -0.32495952, -0.15882568, -0.09768403, 0.01972489, -0.12093128, 100.07100677, 104.91204071, 32.27999878, 0.00000000
1, 1.9650, 243, -0.10530226, -0.96948504, 0.33495313, 5.75495720, 17.08580208, 15.20761681, -35.95439911, -0.26308095, -107.98011780, 103.04182434, -9.65310574, -41.45062637, -0.60320944, 0.71105242, -0.32501978, -0.15781358, -0.06281649, 0.00843759, -0.11440253, 100.07100677, 104.91204071, 32.27999878, 0.00000000
1, 1.9700, 244, -0.15598564, -0.97111654, 0.30544379, 6.03101444, 14.98364258, 15.81998920, -35.95439911, -0.26308095, -107.98011780, 103.06274414, -9.74691772, -41.39453888, -0.60334224, 0.71109140, -0.32515600, -0.15684639, -0.01367007, 0.01046479, -0.08473924, 100.07100677, 104.91204071, 32.27999878, 0.00000000
1, 1.9750, 245, -0.18111113, -0.97467279, 0.26888704, 5.95936966, 15.11306953, 16.20956039, -36.18824768, 0.78924292, -107.62934875, 103.08927155, -9.84421062, -41.33930588, -0.60344476, 0.71114892, -0.32532161, -0.15584463, 0.00989526, 0.01444943, -0.04792122, 100.07100677, 104.91204071, 32.27999878, 0.00000000
1, 2.0000, 246, -0.15067039, -0.96695125, 0.26711717, 3.96842909, 21.03993988, 16.72669411, -36.01286316, 0.17538731, -107.62934875, 103.13619995, -10.34760857, -40.95103073, -0.60465157, 0.71125931, -0.32541534, -0.15037145, -0.02915921, 0.00843160, -0.04550665, 100.07100677, 104.91204071, 32.27999878, 0.00000000
1, 2.0050, 247, -0.14029446, -0.96739352, 0.24277574, 3.82199860, 21.54412079, 17.44161987, -36.01286316, 0.17538731, -107.62934875, 103.13987732, -10.45682335, -40.86433411, -0.60495162, 0.71125531, -0.32541114, -0.14918801, -0.04132869, 0.00926093, -0.02114690, 100.07100677, 104.91204071, 32.27999878, 0.00000000
1, 2.0100, 248, -0.09323090, -0.96487951, 0.22523618, 3.73130822, 23.39897537, 18.50349998, -36.53902435, 0.52616191, -107.65857697, 103.14149475, -10.57330894, -40.76963806, -0.60528660, 0.71124500, -0.32538977, -0.14792000, -0.09032018, 0.00713880, -0.00353620, 100.07100677, 104.91204071, 32.27999878, 0.00000000
1, 2.0150, 249, -0.04343113, -0.97011340, 0.25424796, 3.52537417, 23.02313423, 19.58377838, -36.53902435, 0.52616191, -107.65857697, 103.14244080, -10.69465065, -40.67802811, -0.60562861, 0.71121007, -0.32540998, -0.14663766, -0.14225462, 0.01270557, -0.03250191, 100.07100677, 104.91204071, 32.27999878, 0.00000000
1, 2.0200, 250, -0.02517626, -0.97337878, 0.27368337, 2.99783802, 19.91819000, 21.05878258, -36.53902435, 0.52616191, -107.65857697, 103.14378357, -10.81967354, -40.60345840, -0.60595131, 0.71111935, -0.32555422, -0.14541964, -0.16268922, 0.01633601, -0.05197246, 100.07100677, 104.91204071, 32.27999878, 0.00000000
1, 2.0250, 251, -0.03320993, -0.97471619, 0.26779100, 2.40744400, 16.08579826, 22.34198761, -36.42210007, 0.84770536, -107.89242554, 103.15155029, -10.92302799, -40.55049133, -0.60616416, 0.71105468, -0.32573554, -0.14443922, -0.15660521, 0.01806808, -0.04610858, 100.07100677, 104.91204071, 32.27999878, 0.00000000
1, 2.0300, 252, -0.05285816, -0.97988975, 0.23999235, 2.47473669, 13.72472954, 23.51167870, -36.42210007, 0.84770536, -107.89242554, 103.15638733, -11.05302048, -40.50944519, -0.60642874, 0.71087414, -0.32611582, -0.14335501, -0.13889973, 0.02369325, -0.01834214, 100.07100677, 104.91204071, 32.27999878, 0.00000000
1, 2.0350, 253, -0.07567515, -0.98543835, 0.23090653, 2.56890130, 12.03118515, 24.45157433, -37.12364578, 0.90616781, -107.95088959, 103.16345215, -11.18568039, -40.47788239, -0.60667127, 0.71067119, -0.32657021, -0.14229678, -0.11832121, 0.02971480, -0.00930914, 100.07100677, 104.91204071, 32.27999878, 0.00000000
1, 2.0400, 254, -0.10007817, -0.98572600, 0.22223383, 2.65322256, 11.07696724, 25.05869865, -37.12364578, 0.90616781, -107.95088959, 103.17193604, -11.32021809, -40.45176315, -0.60690051, 0.71045488, -0.32706878, -0.14125055, -0.09619388, 0.03049193, -0.00066658, 100.07100677, 104.91204071, 32.27999878, 0.00000000
1, 2.0450, 255, -0.13011754, -0.98347926, 0.22170918, 2.87100029, 10.82352734, 25.54061699, -37.12364578, 0.90616781, -107.95088959, 103.18180084, -11.45681953, -40.42746735, -0.60712147, 0.71023494, -0.32758981, -0.14019607, -0.06848258, 0.02873808, -0.00016270, 100.07100677, 104.91204071, 32.27999878, 0.00000000
1, 2.0750, 256, -0.18366247, -0.97735798, 0.24120277, 4.31186485, 22.05357933, 29.85599709, -37.21134186, 0.20461853, -108.41858673, 103.23949432, -12.38703346, -40.16520309, -0.60876435, 0.70894659, -0.33051440, -0.13251811, -0.03075983, 0.02604233, -0.01957661, 100.07100677, 104.91204071, 32.27999878, 0.00000000
1, 2.0800, 257, -0.18064724, -0.98553538, 0.26101637, 4.30150604, 23.01738358, 30.33478355, -37.21134186, 0.20461853, -108.41858673, 103.24423218, -12.56085873, -40.08575439, -0.60913581, 0.70875847, -0.33086348, -0.13093679, -0.03673998, 0.03483658, -0.03944295, 100.07100677, 104.91204071, 32.27999878, 0.00000000
1, 2.0850, 258, -0.16947322, -0.99677336, 0.25571504, 4.12286139, 23.21130943, 30.90251541, -37.82519531, 0.20461853, -108.09704590, 103.24772644, -12.73768139, -40.00594330, -0.60951728, 0.70855647, -0.33122283, -0.12933651, -0.05089803, 0.04675033, -0.03422318, 100.07100677, 104.91204071, 32.27999878, 0.00000000
1, 2.0900, 259, -0.14646736, -0.99917984, 0.24739082, 4.57136917, 24.58442307, 31.91099358, -37.82519531, 0.20461853, -108.09704590, 103.25199890, -12.92097569, -39.92042542, -0.60990834, 0.70835757, -0.33157843, -0.12766011, -0.07697172, 0.04986808, -0.02594058, 100.07100677, 104.91204071, 32.27999878, 0.00000000
1, 2.0950, 260, -0.11249536, -1.00126874, 0.27761048, 4.86862087, 26.62598228, 32.58681107, -37.82519531, 0.20461853, -108.09704590, 103.25534058, -13.10988426, -39.82542419, -0.61032164, 0.70816600, -0.33190084, -0.12589794, -0.11421076, 0.05263856, -0.05618181, 100.07100677, 104.91204071, 32.27999878, 0.00000000
1, 2.1000, 261, -0.07216212, -0.99050593, 0.32422221, 4.05214643, 26.60702324, 33.08748627, -37.70827103, 0.35077462, -107.92166138, 103.25444031, -13.30122757, -39.73103714, -0.61076051, 0.70794290, -0.33223370, -0.12413426, -0.15790495, 0.04253771, -0.10284936, 100.07100677, 104.91204071, 32.27999878, 0.00000000
1, 2.1050, 262, -0.06562385, -0.98347509, 0.34748417, 3.73986673, 23.23718262, 34.06270218, -37.70827103, 0.35077462, -107.92166138, 103.25585938, -13.49347782, -39.65459442, -0.61116320, 0.70767671, -0.33268389, -0.12245260, -0.16776165, 0.03622396, -0.12625265, 100.07100677, 104.91204071, 32.27999878, 0.00000000
1, 2.1100, 263, -0.09573010, -0.99851966, 0.31618351, 2.96495724, 19.92867661, 35.22053146, -37.85442734, 0.00000000, -107.98011780, 103.25735474, -13.68761635, -39.59602356, -0.61154610, 0.70735312, -0.33325306, -0.12085275, -0.14086202, 0.05209687, -0.09520266, 100.07100677, 104.91204071, 32.27999878, 0.00000000
1, 2.1150, 264, -0.13064648, -1.00643992, 0.29949731, 1.73513377, 18.88645172, 36.12270355, -37.85442734, 0.00000000, -107.98011780, 103.25399017, -13.88496876, -39.54368210, -0.61195469, 0.70697576, -0.33387038, -0.11927836, -0.10923962, 0.06082933, -0.07884081, 100.07100677, 104.91204071, 32.27999878, 0.00000000
1, 2.1200, 265, -0.15966976, -0.99286640, 0.26906347, 1.09124517, 19.41433716, 37.12493896, -37.85442734, 0.00000000, -107.98011780, 103.24687958, -14.08780384, -39.48980331, -0.61239398, 0.70656717, -0.33450010, -0.11766979, -0.08354813, 0.04810452, -0.04875331, 100.07100677, 104.91204071, 32.27999878, 0.00000000
1, 2.1400, 266, -0.18858123, -0.99762535, 0.24756046, -0.48322895, 20.73687553, 39.52500916, -38.46828461, 1.28617358, -107.74626923, 103.19882202, -14.93001461, -39.24197388, -0.61431926, 0.70482612, -0.33694392, -0.11090916, -0.06875999, 0.05628105, -0.02891348, 100.07100677, 104.91204071, 32.27999878, 0.00000000
1, 2.1450, 267, -0.21661198, -1.01219451, 0.22986947, -0.48646101, 21.29776382, 40.83535004, -38.46828461, 1.28617358, -107.74626923, 103.18145752, -15.15302277, -39.18248749, -0.61484140, 0.70431787, -0.33762357, -0.10916387, -0.04441591, 0.07178430, -0.01183047, 100.07100677, 104.91204071, 32.27999878, 0.00000000
1, 2.1500, 268, -0.23348418, -1.03315163, 0.23686041, 0.26015726, 21.52639008, 41.74264908, -38.90675354, 1.34463608, -107.39550018, 103.16755676, -15.38066387, -39.12278366, -0.61534566, 0.70381469, -0.33832699, -0.10737585, -0.03137868, 0.09368374, -0.01937703, 100.07100677, 104.91204071, 32.27999878, 0.00000000
1, 2.1550, 269, -0.22381793, -1.04858947, 0.25571859, -0.23586325, 24.37158966, 42.02709579, -38.90675354, 1.34463608, -107.39550018, 103.14714813, -15.61290455, -39.04888535, -0.61590588, 0.70330423, -0.33895877, -0.10549968, -0.04497912, 0.11006661, -0.03877778, 100.07100677, 104.91204071, 32.27999878, 0.00000000
1, 2.1600, 270, -0.21046323, -1.04108536, 0.28242999, -0.20922644, 28.06279564, 42.07968140, -39.37445068, 2.28003502, -107.62934875, 103.12149811, -15.84954453, -38.95621109, -0.61651713, 0.70280749, -0.33949155, -0.10350812, -0.06236003, 0.10350546, -0.06610442, 100.07100677, 104.91204071, 32.27999878, 0.00000000
1, 2.1650, 271, -0.20357713, -1.04845238, 0.35467085, 0.03615755, 28.43956757, 42.43606186, -39.37445068, 2.28003502, -107.62934875, 103.09624481, -16.08828735, -38.86181259, -0.61712497, 0.70231044, -0.34002429, -0.10149126, -0.07342539, 0.11176907, -0.13900720, 100.07100677, 104.91204071, 32.27999878, 0.00000000
1, 2.1700, 272, -0.21569565, -1.05427396, 0.37840804, -1.11825144, 26.98610687, 43.08210373, -39.37445068, 2.28003502, -107.62934875, 103.06704712, -16.32851601, -38.77531052, -0.61774641, 0.70176280, -0.34060931, -0.09951798, -0.06538802, 0.11857788, -0.16351330, 100.07100677, 104.91204071, 32.27999878, 0.00000000
1, 2.1750, 273, -0.24209732, -1.07989514, 0.37574011, -2.18174887, 23.92790413, 43.86400223, -39.69599533, 2.28003502, -108.30166626, 103.04455566, -16.56378555, -38.70725632, -0.61829787, 0.70120776, -0.34128973, -0.09765643, -0.04295854, 0.14524500, -0.16164041, 100.07100677, 104.91204071, 32.27999878, 0.00000000
1, 2.2050, 274, -0.23309404, -1.30605996, 0.17064787, -5.43680143, 37.52122498, 45.24595642, -40.10523224, 2.25080395, -107.60011292, 102.73487854, -18.09007072, -37.94658279, -0.62299103, 0.69762778, -0.34363800, -0.08432513, -0.07675524, 0.37831283, 0.03655081, 100.07100677, 104.91204071, 32.27999878, 0.00000000
1, 2.2100, 275, -0.17802048, -1.31607115, 0.09038679, -6.51752281, 41.77684784, 46.06219101, -40.36831284, -0.58462435, -108.00935364, 102.65229797, -18.36048317, -37.78490067, -0.62398034, 0.69691521, -0.34387615, -0.08189623, -0.13607132, 0.38958663, 0.11532573, 100.07100677, 104.91204071, 32.27999878, 0.00000000
1, 2.2150, 276, -0.07683879, -1.28874624, 0.06611352, -7.03721857, 49.78385544, 47.52153397, -40.36831284, -0.58462435, -108.00935364, 102.55359650, -18.64645767, -37.58293533, -0.62510574, 0.69618970, -0.34393549, -0.07919137, -0.24185866, 0.36347675, 0.13802648, 100.07100677, 104.91204071, 32.27999878, 0.00000000
1, 2.2200, 277, 0.03336770, -1.26606107, 0.12269329, -6.92292118, 55.57911301, 49.93660355, -40.36831284, -0.58462435, -108.00935364, 102.44548798, -18.95009422, -37.35291672, -0.62631643, 0.69544458, -0.34390664, -0.07624214, -0.35715306, 0.34195483, 0.07967783, 100.07100677, 104.91204071, 32.27999878, 0.00000000
1, 2.2250, 278, 0.13503511, -1.25839520, 0.18076545, -7.55738115, 55.49690247, 51.69532776, -40.74831772, 2.45542240, -108.27243042, 102.33045959, -19.24448395, -37.12332535, -0.62754124, 0.69468260, -0.34383747, -0.07337505, -0.46394750, 0.33547187, 0.01968634, 100.07100677, 104.91204071, 32.27999878, 0.00000000
1, 2.2300, 279, 0.14311753, -1.26752973, 0.22423442, -11.15064716, 36.08663177, 56.60634995, -40.74831772, 2.45542240, -108.27243042, 102.23437500, -19.55937386, -36.99974442, -0.62859601, 0.69364524, -0.34452507, -0.07089411, -0.47716701, 0.34589982, -0.02579852, 100.07100677, 104.91204071, 32.27999878, 0.00000000
1, 2.2350, 280, 0.08713969, -1.27241504, 0.22814928, -14.15516090, 26.28204346, 59.14497375, -40.51446915, 1.63694823, -108.79859924, 102.14054108, -19.87623596, -36.92911530, -0.62959659, 0.69245088, -0.34554672, -0.06868401, -0.42639694, 0.35226598, -0.03175652, 100.07100677, 104.91204071, 32.27999878, 0.00000000
1, 2.2400, 281, 0.02660035, -1.26168585, 0.20335171, -16.60378265, 20.49002266, 61.59689331, -40.51446915, 1.63694823, -108.79859924, 102.04512787, -20.19898796, -36.89064789, -0.63058591, 0.69112903, -0.34679163, -0.06661725, -0.37106246, 0.34311843, -0.00902582, 100.07100677, 104.91204071, 32.27999878, 0.00000000
1, 2.2450, 282, -0.06420474, -1.27441800, 0.21712765, -17.02974510, 18.02487564, 64.03226471, -40.51446915, 1.63694823, -108.79859924, 101.95258331, -20.53105164, -36.86707306, -0.63155216, 0.68974543, -0.34817344, -0.06456333, -0.28568852, 0.35746151, -0.02495242, 100.07100677, 104.91204071, 32.27999878, 0.00000000
1, 2.2500, 283, -0.14806560, -1.29143345, 0.23504812, -18.04558945, 20.03303146, 65.63535309, -41.30371094, 0.84770536, -108.62320709, 101.85151672, -20.87300301, -36.83411407, -0.63257825, 0.68830878, -0.34954220, -0.06241957, -0.20741779, 0.37615758, -0.04510967, 100.07100677, 104.91204071, 32.27999878, 0.00000000
1, 2.2650, 284, -0.26438040, -1.29803455, 0.28486979, -20.93583107, 27.38703918, 68.79181671, -41.42063522, 3.15697169, -108.71089935, 101.49031067, -21.94798279, -36.65877914, -0.63603908, 0.68372989, -0.35340557, -0.05542756, -0.10861753, 0.38815704, -0.10224167, 100.07100677, 104.91204071, 32.27999878, 0.00000000
1, 2.2700, 285, -0.23434065, -1.28947699, 0.27862260, -22.04290962, 30.78213310, 69.16725159, -41.42063522, 3.15697169, -108.71089935, 101.34719849, -22.31756973, -36.56923294, -0.63733160, 0.68212694, -0.35455674, -0.05292316, -0.14459985, 0.38152462, -0.09860212, 100.07100677, 104.91204071, 32.27999878, 0.00000000
1, 2.2750, 286, -0.19514471, -1.28583908, 0.26878527, -23.17622948, 33.44175339, 69.70075226, -42.03449249, 3.80005836, -108.97398376, 101.19275665, -22.68336105, -36.46508408, -0.63868004, 0.68051040, -0.35560280, -0.05039953, -0.18972433, 0.37982970, -0.09154552, 100.07100677, 104.91204071, 32.27999878, 0.00000000
1, 2.2800, 287, -0.12545976, -1.29171324, 0.30027017, -23.89714050, 37.32098007, 70.36322021, -42.03449249, 3.80005836, -108.97398376, 101.02526093, -23.06463242, -36.33930588, -0.64011580, 0.67883545, -0.35659426, -0.04769494, -0.26551691, 0.38762721, -0.12594157, 100.07100677, 104.91204071, 32.27999878, 0.00000000
1, 2.2850, 288, -0.05219740, -1.30348074, 0.30617389, -24.41639137, 42.23969650, 71.32832336, -42.56065369, 3.77082729, -109.55860901, 100.84372711, -23.45491791, -36.18660355, -0.64163685, 0.67713195, -0.35747066, -0.04482539, -0.34500906, 0.40145528, -0.13497347, 100.07100677, 104.91204071, 32.27999878, 0.00000000
1, 2.2900, 289, 0.05203588, -1.34056091, 0.32647854, -25.22115898, 44.48841095, 73.14478302, -42.56065369, 3.77082729, -109.55860901, 100.65240479, -23.85577583, -36.02182007, -0.64321065, 0.67537230, -0.35833088, -0.04185006, -0.45568371, 0.44066668, -0.15860474, 100.07100677, 104.91204071, 32.27999878, 0.00000000
1, 2.2950, 290, 0.05532072, -1.36624241, 0.36356106, -28.15995026, 40.73954010, 74.45986938, -43.08681488, 3.65390229, -110.14323425, 100.45332336, -24.25920677, -35.87654114, -0.64480484, 0.67349249, -0.35932460, -0.03899319, -0.46548644, 0.46851778, -0.19932361, 100.07100677, 104.91204071, 32.27999878, 0.00000000
1, 2.3000, 291, 0.03503219, -1.35939252, 0.35805348, -32.26383972, 36.28321075, 75.80797577, -43.08681488, 3.65390229, -110.14323425, 100.24246216, -24.66489601, -35.75463104, -0.64644229, 0.67145789, -0.36047143, -0.03629240, -0.45162517, 0.46394676, -0.19764350, 100.07100677, 104.91204071, 32.27999878, 0.00000000
1, 2.3050, 292, 0.04447044, -1.36550128, 0.32649559, -34.58466339, 31.52026558, 77.51165771, -43.08681488, 3.65390229, -110.14323425, 100.02993774, -25.07443047, -35.65816498, -0.64806533, 0.66931301, -0.36179349, -0.03371857, -0.46745741, 0.47245145, -0.16991019, 100.07100677, 104.91204071, 32.27999878, 0.00000000
1, 2.3100, 293, 0.09671461, -1.38712418, 0.27705520, -35.98569870, 30.14065933, 79.35437012, -43.90528870, 3.18620276, -110.11399841, 99.81288147, -25.49154091, -35.56892014, -0.64969999, 0.66708684, -0.36320060, -0.03115416, -0.52613437, 0.49660057, -0.12426496, 100.07100677, 104.91204071, 32.27999878, 0.00000000
1, 2.3500, 294, 0.23194215, -1.37602925, 0.34850949, -31.88414955, 38.64548492, 95.20825958, -45.48377609, 5.34931278, -111.42940521, 98.00543976, -29.17070580, -34.80285263, -0.66266572, 0.64758313, -0.37608236, -0.00850899, -0.71831656, 0.50986636, -0.22756758, 100.07100677, 104.91204071, 32.27999878, 0.00000000
1, 2.3550, 295, 0.26567322, -1.41140544, 0.36549634, -33.21440887, 40.03924561, 96.16976929, -45.48377609, 5.34931278, -111.42940521, 97.76549530, -29.67466545, -34.65005112, -0.66428524, 0.64505887, -0.37762147, -0.00513312, -0.75974494, 0.54897171, -0.24868569, 100.07100677, 104.91204071, 32.27999878, 0.00000000
1, 2.3600, 296, 0.31740987, -1.41124129, 0.34175947, -34.33704758, 41.85844421, 96.89341736, -45.19146347, 5.96316862, -112.07249451, 97.51220703, -30.18284225, -34.48411179, -0.66595119, 0.64247555, -0.37911916, -0.00170337, -0.81910086, 0.55269647, -0.22916666, 100.07100677, 104.91204071, 32.27999878, 0.00000000
1, 2.3650, 297, 0.35886505, -1.39800978, 0.31363782, -33.68888474, 44.34984970, 97.82085419, -45.19146347, 5.96316862, -112.07249451, 97.25220490, -30.69654465, -34.30100632, -0.66762435, 0.63988090, -0.38056117, 0.00183392, -0.86820495, 0.54348093, -0.20536703, 100.07100677, 104.91204071, 32.27999878, 0.00000000
1, 2.3700, 298, 0.39585739, -1.37779260, 0.31816843, -32.12559891, 47.64925385, 98.79094696, -46.65302658, 7.10318613, -111.78018188, 96.98722076, -31.21631813, -34.09579086, -0.66929221, 0.63729990, -0.38192451, 0.00551720, -0.91297501, 0.52736044, -0.21427444, 100.07100677, 104.91204071, 32.27999878, 0.00000000
1, 2.3750, 299, 0.39621007, -1.36042464, 0.34596848, -30.75646591, 52.30462646, 99.79584503, -46.65302658, 7.10318613, -111.78018188, 96.71501160, -31.72683716, -33.86197662, -0.67095864, 0.63479257, -0.38310161, 0.00927806, -0.92110193, 0.51411891, -0.24662060, 100.07100677, 104.91204071, 32.27999878, 0.00000000
1, 2.3800, 300, 0.41203904, -1.33650696, 0.37609479, -29.88225365, 53.78429031, 100.87154388, -46.65302658, 7.10318613, -111.78018188, 96.43553162, -32.25869370, -33.61409378, -0.67263144, 0.63220900, -0.38432258, 0.01322964, -0.94475031, 0.49445790, -0.28131080, 100.07100677, 104.91204071, 32.27999878, 0.00000000
1, 2.3850, 301, 0.42082956, -1.31830239, 0.38353360, -29.36833954, 52.84283066, 102.56011963, -47.03303146, 7.30780458, -112.94943237, 96.15784454, -32.79740143, -33.36833954, -0.67425495, 0.62959594, -0.38560724, 0.01721318, -0.96147066, 0.48077518, -0.29333067, 100.07100677, 104.91204071, 32.27999878, 0.00000000
1, 2.3900, 302, 0.35907468, -1.31530917, 0.41538453, -27.79172325, 52.41631317, 104.94848633, -47.03303146, 7.30780458, -112.94943237, 95.88573456, -33.34674072, -33.12195969, -0.67580801, 0.62697232, -0.38695791, 0.02128146, -0.90779817, 0.48245949, -0.32986724, 100.07100677, 104.91204071, 32.27999878, 0.00000000
1, 2.3950, 303, 0.26460302, -1.35498023, 0.41582164, -25.29978180, 53.07939148, 108.71820068, -47.90996552, 7.80473518, -113.62174988, 95.62059784, -33.91416168, -32.86918640, -0.67728114, 0.62434053, -0.38837862, 0.02552059, -0.82153428, 0.52713883, -0.33500773, 100.07100677, 104.91204071, 32.27999878, 0.00000000
1, 2.4000, 304, 0.17344226, -1.41213560, 0.37015975, -27.34269714, 52.40065384, 113.07450867, -47.90996552, 7.80473518, -113.62174988, 95.34407043, -34.50197983, -32.61800766, -0.67877311, 0.62155670, -0.38992852, 0.02983519, -0.73866880, 0.58964515, -0.29415339, 100.07100677, 104.91204071, 32.27999878, 0.00000000
1, 2.4050, 305, 0.17593981, -1.44725513, 0.35354054, -25.83930588, 55.61017227, 117.79380035, -47.90996552, 7.80473518, -113.62174988, 95.06025696, -35.11367416, -32.34460449, -0.68025076, 0.61871338, -0.39149630, 0.03440127, -0.74981296, 0.63040090, -0.28216535, 100.07100677, 104.91204071, 32.27999878, 0.00000000
1, 2.4100, 306, 0.18458100, -1.48949754, 0.36458179, -24.39195824, 57.78625488, 123.47065735, -48.28997421, 8.44782257, -113.79713440, 94.77190399, -35.75342178, -32.05495453, -0.68169385, 0.61579162, -0.39313632, 0.03921845, -0.76749706, 0.67862231, -0.29789430, 100.07100677, 104.91204071, 32.27999878, 0.00000000
1, 2.4150, 307, 0.14640734, -1.53193617, 0.37820339, -23.76378632, 56.91157913, 128.24395752, -48.28997421, 8.44782257, -113.79713440, 94.48490906, -36.41542435, -31.76670074, -0.68307108, 0.61278540, -0.39491457, 0.04416388, -0.73864466, 0.72741163, -0.31627536, 100.07100677, 104.91204071, 32.27999878, 0.00000000
1, 2.4200, 308, 0.11043012, -1.53768218, 0.36162451, -26.32107925, 51.41770554, 131.30026245, -48.93305969, 9.35398960, -114.20636749, 94.19985962, -37.08951187, -31.50747490, -0.68438923, 0.60963726, -0.39692840, 0.04900850, -0.71203828, 0.73984122, -0.30433547, 100.07100677, 104.91204071, 32.27999878, 0.00000000
1, 2.4250, 309, 0.07282044, -1.50667405, 0.35738140, -29.45814323, 43.61211395, 133.22219849, -48.93305969, 9.35398960, -114.20636749, 93.92692566, -37.75804138, -31.29402161, -0.68560791, 0.60640955, -0.39917311, 0.05357404, -0.68376780, 0.71565568, -0.30447990, 100.07100677, 104.91204071, 32.27999878, 0.00000000
1, 2.4300, 310, 0.02572060, -1.48129916, 0.38021156, -30.92308426, 41.48193359, 134.38185120, -48.93305969, 9.35398960, -114.20636749, 93.64562225, -38.44228363, -31.08601570, -0.68681598, 0.60304433, -0.40154505, 0.05816383, -0.64604807, 0.69723761, -0.33167589, 100.07100677, 104.91204071, 32.27999878, 0.00000000
1, 2.4350, 311, -0.06115137, -1.43097949, 0.43167084, -33.63150406, 42.16382217, 135.48414612, -49.31306458, 9.99707699, -114.32329559, 93.34236145, -39.13143921, -30.86763763, -0.68807673, 0.59955287, -0.40391669, 0.06275517, -0.56868911, 0.65406299, -0.38778245, 100.07100677, 104.91204071, 32.27999878, 0.00000000
1, 2.4400, 312, -0.13428694, -1.36387062, 0.48110890, -38.39646149, 39.25340271, 136.03628540, -49.31306458, 9.99707699, -114.32329559, 93.02088165, -39.82168961, -30.66126251, -0.68938112, 0.59589195, -0.40638709, 0.06720102, -0.50499403, 0.59424359, -0.44201824, 100.07100677, 104.91204071, 32.27999878, 0.00000000
1, 2.4450, 313, -0.26697654, -1.28230572, 0.52750635, -42.64298630, 31.96596527, 137.73936462, -50.04384613, 10.87401295, -114.41098785, 92.70274353, -40.51782608, -30.49591446, -0.69063336, 0.59206963, -0.40911716, 0.07143138, -0.38170332, 0.52016264, -0.49327374, 100.07100677, 104.91204071, 32.27999878, 0.00000000
1, 2.4600, 314, -0.54782945, -1.23174584, 0.30667743, -47.04449463, 15.77592564, 134.39500427, -51.18386459, 11.80941200, -114.76176453, 91.84066010, -42.58438492, -30.22152519, -0.69376379, 0.58034235, -0.41836268, 0.08286954, -0.12745930, 0.49340352, -0.28539288, 100.07100677, 104.91204071, 32.27999878, 0.00000000
1, 2.4650, 315, -0.52807242, -1.20071673, 0.17880933, -48.62675476, 21.72416496, 128.31764221, -51.18386459, 11.80941200, -114.76176453, 91.51465607, -43.22931671, -30.09751511, -0.69491059, 0.57644594, -0.42111704, 0.08642829, -0.15527195, 0.47019425, -0.16171482, 100.07100677, 104.91204071, 32.27999878, 0.00000000
1, 2.4700, 316, -0.43601394, -1.12714481, 0.12146410, -45.82538986, 26.53475189, 120.40473938, -51.88541412, 12.33557415, -115.49254608, 91.17349243, -43.83464813, -29.93269539, -0.69608116, 0.57274163, -0.42350137, 0.08991550, -0.25499693, 0.40398568, -0.10850192, 100.07100677, 104.91204071, 32.27999878, 0.00000000
1, 2.4750, 317, -0.31617224, -1.02682614, 0.12013967, -43.39277649, 26.47330856, 112.17010498, -51.88541412, 12.33557415, -115.49254608, 90.84381104, -44.38009644, -29.76473427, -0.69719005, 0.56933147, -0.42558694, 0.09307844, -0.38193083, 0.31043205, -0.11106008, 100.07100677, 104.91204071, 32.27999878, 0.00000000
1, 2.4800, 318, -0.18724976, -0.92278564, 0.12213930, -39.16355133, 19.13533783, 104.44018555, -51.88541412, 12.33557415, -115.49254608, 90.56030273, -44.90377426, -29.63806152, -0.69808191, 0.56612206, -0.42774850, 0.09601378, -0.51738358, 0.21275333, -0.11635867, 100.07100677, 104.91204071, 32.27999878, 0.00000000
1, 2.4850, 319, -0.09302153, -0.79874265, 0.12622884, -33.33442688, 3.22183681, 97.57213593, -52.64542389, 13.47559166, -115.66793060, 90.38191986, -45.39216232, -29.61976433, -0.69854611, 0.56327194, -0.43019187, 0.09845340, -0.61774975, 0.09481280, -0.12262792, 100.07100677, 104.91204071, 32.27999878, 0.00000000
1, 2.4900, 320, -0.06517960, -0.69180560, 0.14465614, -28.74448013, -18.72719765, 92.11828613, -52.64542389, 13.47559166, -115.66793060, 90.33728790, -45.85268402, -29.75670242, -0.69849533, 0.56074673, -0.43314317, 0.10027190, -0.65135157, -0.00634485, -0.14181268, 100.07100677, 104.91204071, 32.27999878, 0.00000000
1, 2.4950, 321, -0.10907649, -0.57754779, 0.12628829, -28.03736687, -40.09253311, 87.07830048, -53.25928116, 13.27097321, -115.40485382, 90.40852356, -46.28745270, -30.04870415, -0.69803250, 0.55842030, -0.43661216, 0.10142596, -0.61276197, -0.11503368, -0.12285364, 100.07100677, 104.91204071, 32.27999878, 0.00000000
1, 2.5000, 322, -0.28828263, -0.44435558, 0.03876197, -28.28307343, -56.14253235, 82.28228760, -53.25928116, 13.27097321, -115.40485382, 90.56684875, -46.69729233, -30.46052933, -0.69727767, 0.55623674, -0.44044662, 0.10203663, -0.43834421, -0.24281472, -0.03394692, 100.07100677, 104.91204071, 32.27999878, 0.00000000
1, 2.5050, 323, -0.66235405, -0.41707638, -0.00830426, -26.28971100, -65.58269501, 80.10404205, -53.25928116, 13.27097321, -115.40485382, 90.79113770, -47.09476852, -30.94638252, -0.69628799, 0.55418563, -0.44449764, 0.10238795, -0.06892768, -0.26490945, 0.01471812, 100.07100677, 104.91204071, 32.27999878, 0.00000000
1, 2.5900, 324, -0.10694120, -0.31066379, 0.05630172, 23.00057983, 18.60607147, -97.87877655, -54.72084045, 14.67407131, -115.28792572, 92.05811310, -45.97586441, -32.02363968, -0.69188976, 0.56204367, -0.44338009, 0.09385987, -0.61374748, -0.38238525, -0.03219745, 100.07100677, 104.91204071, 32.27999878, 0.00000000
1, 2.5950, 325, -0.14478506, -0.36757177, 0.04072050, 24.83004379, 12.70468330, -105.36862946, -53.81467438, 12.59865570, -115.43408203, 92.09714508, -45.45120621, -31.90658379, -0.69195378, 0.56476772, -0.44030997, 0.09145779, -0.56960177, -0.33188474, -0.01622239, 100.07100677, 104.91204071, 32.27999878, 0.00000000
1, 2.6000, 326, -0.19401777, -0.41412398, 0.01195700, 25.24013901, 6.63971424, -112.35358429, -53.81467438, 12.59865570, -115.43408203, 92.16842651, -44.89067078, -31.83114815, -0.69190276, 0.56764823, -0.43723941, 0.08870085, -0.51352632, -0.29209602, 0.01338446, 100.07100677, 104.91204071, 32.27999878, 0.00000000
1, 2.6050, 327, -0.24262172, -0.43924052, -0.03782750, 25.98189545, 2.59432197, -119.18946838, -52.70388794, 12.59865570, -115.28792572, 92.26232147, -44.29529190, -31.78195953, -0.69176412, 0.57068157, -0.43410763, 0.08564858, -0.45752645, -0.27405703, 0.06437509, 100.07100677, 104.91204071, 32.27999878, 0.00000000
1, 2.6100, 328, -0.27153358, -0.45380685, -0.06092193, 29.00654602, 0.90671057, -126.20851898, -52.70388794, 13.82636642, -115.28792572, 92.37774658, -43.66453171, -31.74157715, -0.69152379, 0.57392782, -0.43082786, 0.08239646, -0.42076641, -0.26694989, 0.08905972, 100.07100677, 104.91204071, 32.27999878, 0.00000000
1, 2.6150, 329, -0.29634780, -0.48136202, -0.05597936, 32.29924774, 0.10792343, -135.34799194, -52.70388794, 13.82636642, -115.28792572, 92.51085663, -42.98800659, -31.70267296, -0.69119537, 0.57742786, -0.42731714, 0.07890667, -0.38756907, -0.24729133, 0.08597419, 100.07100677, 104.91204071, 32.27999878, 0.00000000
1, 2.6200, 330, -0.30593082, -0.49780175, -0.04910526, 35.25800705, -1.90527809, -141.88323975, -52.38234329, 10.23092651, -115.17099762, 92.66571045, -42.27838898, -31.67364693, -0.69075078, 0.58112305, -0.42367595, 0.07522018, -0.36901873, -0.23909360, 0.08128485, 100.07100677, 104.91204071, 32.27999878, 0.00000000
1, 2.6250, 331, -0.31822875, -0.52794623, -0.04960090, 38.99926758, -7.15466547, -149.73243713, -52.38234329, 10.23092651, -115.17099762, 92.85533905, -41.52405167, -31.67202187, -0.69013250, 0.58506835, -0.41993144, 0.07120331, -0.34708238, -0.21752870, 0.08450662, 100.07100677, 104.91204071, 32.27999878, 0.00000000
1, 2.6300, 332, -0.32943627, -0.54425347, -0.06106416, 40.60050964, -11.58619690, -156.13278198, -51.50540543, 10.84478188, -114.44022369, 93.07275391, -40.74095154, -31.69689369, -0.68935722, 0.58916360, -0.41616470, 0.06693197, -0.32566306, -0.21000563, 0.09911792, 100.07100677, 104.91204071, 32.27999878, 0.00000000
1, 2.6350, 333, -0.33347660, -0.55217218, -0.07438958, 42.56372452, -13.57846069, -162.44453430, -51.50540543, 10.84478188, -114.44022369, 93.30384827, -39.92573547, -31.72827530, -0.68847811, 0.59340739, -0.41226876, 0.06245123, -0.31088176, -0.21104221, 0.11594158, 100.07100677, 104.91204071, 32.27999878, 0.00000000
1, 2.6600, 334, -0.37379915, -0.69897413, -0.01988002, 51.95409012, -28.71387863, -190.44082642, -49.07921600, 9.47091484, -114.29406738, 94.70790100, -35.40316010, -32.07017136, -0.68205959, 0.61656338, -0.39153457, 0.03667603, -0.20891467, -0.11097468, 0.08341289, 100.07100677, 104.91204071, 32.27999878, 0.00000000
1, 2.6650, 335, -0.38391191, -0.73458946, -0.01204748, 52.70148087, -30.00260925, -196.01928711, -49.07921600, 9.47091484, -114.29406738, 95.01641846, -34.41333771, -32.15304565, -0.68042326, 0.62149125, -0.38706213, 0.03091490, -0.18480006, -0.08484360, 0.08071382, 100.07100677, 104.91204071, 32.27999878, 0.00000000
1, 2.6700, 336, -0.37541881, -0.76586354, 0.01992591, 52.51796341, -30.74596024, -201.43270874, -47.73458099, 6.72318029, -113.09558105, 95.31948853, -33.39588165, -32.23012161, -0.67873120, 0.62645447, -0.38243371, 0.02496685, -0.17877440, -0.06309706, 0.05396807, 100.07100677, 104.91204071, 32.27999878, 0.00000000
1, 2.6750, 337, -0.35380247, -0.79190087, 0.03258169, 51.77265930, -32.21286774, -207.38200378, -47.73458099, 6.72318029, -113.09558105, 95.61525726, -32.34445572, -32.30464935, -0.67698961, 0.63144708, -0.37763429, 0.01876563, -0.18516804, -0.04658180, 0.04659531, 100.07100677, 104.91204071, 32.27999878, 0.00000000
1, 2.6800, 338, -0.31449991, -0.80827820, 0.01615152, 50.63440704, -36.43930054, -213.14671326, -46.74071884, 4.50160789, -112.51096344, 95.91287231, -31.26533127, -32.39400864, -0.67514580, 0.63644058, -0.37278792, 0.01227876, -0.20858337, -0.03962284, 0.06844364, 100.07100677, 104.91204071, 32.27999878, 0.00000000
1, 2.6850, 339, -0.27107117, -0.81294882, 0.00492077, 49.94048691, -38.85011292, -217.47171021, -46.74071884, 4.50160789, -112.51096344, 96.20745850, -30.16306114, -32.48717117, -0.67321998, 0.64142394, -0.36785740, 0.00558491, -0.23557423, -0.04427360, 0.08520380, 100.07100677, 104.91204071, 32.27999878, 0.00000000
1, 2.6900, 340, -0.24006006, -0.82235110, 0.01009947, 49.52887344, -40.95762253, -221.26728821, -46.74071884, 4.50160789, -112.51096344, 96.49941254, -29.04039001, -32.58247757, -0.67120606, 0.64639252, -0.36284649, -0.00128679, -0.24968773, -0.04405398, 0.08554241, 100.07100677, 104.91204071, 32.27999878, 0.00000000
1, 2.6950, 341, -0.22581892, -0.84778321, 0.01969350, 48.00668335, -45.27656555, -224.75090027, -44.81145859, 5.96316862, -111.86787415, 96.78901672, -27.89756393, -32.69239044, -0.66909772, 0.65130448, -0.35782680, -0.00840630, -0.24654000, -0.02762009, 0.08145023, 100.07100677, 104.91204071, 32.27999878, 0.00000000
1, 2.7150, 342, -0.40253615, -0.93052649, 0.07974836, 37.28372574, -58.76004028, -238.71130371, -43.17451096, 5.29085064, -111.34171295, 97.85427094, -23.13021660, -33.25861359, -0.66001076, 0.66998392, -0.33757341, -0.03939056, 0.00459877, 0.02138795, 0.04216583, 100.07100677, 104.91204071, 32.27999878, 0.00000000
1, 2.7200, 343, -0.44490522, -0.94247150, 0.09969778, 36.08437347, -57.43230438, -242.23968506, -40.80678177, 2.63080978, -111.37094116, 98.08081055, -21.89067078, -33.38685226, -0.65766555, 0.67443401, -0.33219823, -0.04753175, 0.06679270, 0.02552711, 0.02690758, 100.07100677, 104.91204071, 32.27999878, 0.00000000
1, 2.7250, 344, -0.50786644, -0.96234071, 0.11172192, 35.42180634, -56.31533051, -245.49954224, -40.80678177, 2.63080978, -111.37094116, 98.29578400, -20.63813782, -33.50033188, -0.65527368, 0.67882299, -0.32666662, -0.05571966, 0.15000731, 0.03793560, 0.01932251, 100.07100677, 104.91204071, 32.27999878, 0.00000000
1, 2.7300, 345, -0.54576379, -0.98385942, 0.13729863, 35.21955872, -55.30428696, -249.99461365, -39.66676331, 2.68927217, -110.64015961, 98.50263214, -19.36091042, -33.59930420, -0.65280545, 0.68319678, -0.32091865, -0.06402060, 0.20865163, 0.05228557, -0.00188637, 100.07100677, 104.91204071, 32.27999878, 0.00000000
1, 2.7350, 346, -0.56618047, -1.01208210, 0.13425575, 33.07532501, -49.54289246, -254.28163147, -39.66676331, 2.68927217, -110.64015961, 98.68422699, -18.06646347, -33.65948486, -0.65038574, 0.68749779, -0.31483141, -0.07229389, 0.25034863, 0.07371919, 0.00523585, 100.07100677, 104.91204071, 32.27999878, 0.00000000
1, 2.7400, 347, -0.54821312, -1.03459156, 0.13296105, 32.02821732, -43.06821442, -257.40887451, -39.66676331, 2.68927217, -110.64015961, 98.84711456, -16.76129341, -33.67914963, -0.64799172, 0.69174248, -0.30842218, -0.08046714, 0.25403938, 0.08980488, 0.01033294, 100.07100677, 104.91204071, 32.27999878, 0.00000000
1, 2.7450, 348, -0.52841592, -1.05136502, 0.11433975, 31.75385857, -35.69155121, -260.10375977, -37.70827103, 2.57234716, -110.40631104, 98.99597931, -15.44843197, -33.65490341, -0.64561009, 0.69594979, -0.30168110, -0.08848760, 0.25623709, 0.10060598, 0.03248925, 100.07100677, 104.91204071, 32.27999878, 0.00000000
1, 2.7500, 349, -0.49351609, -1.06732130, 0.09374095, 32.86404800, -27.90567780, -261.93032837, -37.70827103, 2.57234716, -110.40631104, 99.13955688, -14.13266182, -33.58611298, -0.64320374, 0.70014977, -0.29462886, -0.09629723, 0.24354878, 0.11106478, 0.05649086, 100.07100677, 104.91204071, 32.27999878, 0.00000000
1, 2.7550, 350, -0.45530048, -1.09517384, 0.08370847, 34.66690826, -21.31897545, -262.88293457, -35.60362244, 1.19848001, -109.67552948, 99.28495026, -12.81756306, -33.48009109, -0.64073682, 0.70434594, -0.28733018, -0.10389691, 0.22765195, 0.13391651, 0.06986223, 100.07100677, 104.91204071, 32.27999878, 0.00000000
1, 2.7600, 351, -0.43312865, -1.12946188, 0.11071736, 35.99189758, -19.33429337, -263.83392334, -35.60362244, 1.19848001, -109.67552948, 99.43641663, -11.49962425, -33.36032104, -0.63816333, 0.70850474, -0.27991366, -0.11143175, 0.22785410, 0.16367090, 0.04618426, 100.07100677, 104.91204071, 32.27999878, 0.00000000
1, 2.7750, 352, -0.42405254, -1.23684263, 0.15308799, 38.32979202, -12.31473541, -262.29425049, -33.44051361, 1.05232382, -109.90938568, 99.92656708, -7.56739902, -32.93808746, -0.62986565, 0.72058582, -0.25728980, -0.13351893, 0.28638631, 0.26078060, 0.01388420, 100.07100677, 104.91204071, 32.27999878, 0.00000000
1, 2.7800, 353, -0.41694725, -1.26234186, 0.15741929, 38.51177597, -9.35597610, -260.68377686, -31.01432228, 0.49693072, -108.94475555, 100.09423065, -6.27494955, -32.75832748, -0.62700462, 0.72444910, -0.24956380, -0.14055896, 0.30166292, 0.28396887, 0.01286411, 100.07100677, 104.91204071, 32.27999878, 0.00000000
1, 2.7850, 354, -0.43714622, -1.27187443, 0.15079729, 38.88969040, -7.89324617, -259.07638550, -31.01432228, 0.49693072, -108.94475555, 100.26692200, -4.99221897, -32.56932068, -0.62407464, 0.72821903, -0.24181785, -0.14748609, 0.34417218, 0.29174620, 0.02275532, 100.07100677, 104.91204071, 32.27999878, 0.00000000
1, 2.7900, 355, -0.42875409, -1.25468338, 0.14989513, 38.07846832, -4.36539412, -253.93444824, -31.01432228, 0.49693072, -108.94475555, 100.43852997, -3.73850489, -32.36400223, -0.62116057, 0.73184240, -0.23410271, -0.15415055, 0.35773844, 0.27332193, 0.02697032, 100.07100677, 104.91204071, 32.27999878, 0.00000000
1, 2.7950, 356, -0.41069409, -1.24323940, 0.13730548, 37.28684616, -5.49473238, -249.21925354, -28.58813095, -0.73078048, -108.62320709, 100.61102295, -2.50759339, -32.16505051, -0.61821514, 0.73529845, -0.22653455, -0.16071188, 0.36125320, 0.26117414, 0.04281274, 100.07100677, 104.91204071, 32.27999878, 0.00000000
1, 2.8000, 357, -0.38878337, -1.23507035, 0.08922327, 36.96051407, -9.53943348, -243.31759644, -28.58813095, -0.73078048, -108.62320709, 100.78686523, -1.30256486, -31.98785210, -0.61520839, 0.73857248, -0.21923573, -0.16722748, 0.36059940, 0.25284585, 0.09410929, 100.07100677, 104.91204071, 32.27999878, 0.00000000
1, 2.8050, 358, -0.38416806, -1.24102950, 0.03235310, 38.05691528, -13.32135391, -236.23600769, -26.36655998, -0.40923706, -108.47705078, 100.97226715, -0.12932125, -31.83216858, -0.61211193, 0.74169827, -0.21225002, -0.17364505, 0.37674212, 0.25913808, 0.15417388, 100.07100677, 104.91204071, 32.27999878, 0.00000000
1, 2.8100, 359, -0.38476634, -1.25827420, 0.00437408, 40.45347595, -18.54072189, -228.29385376, -26.36655998, -0.40923706, -108.47705078, 101.17263031, 1.00939727, -31.70571518, -0.60888451, 0.74469668, -0.20565626, -0.17997812, 0.39744020, 0.27713764, 0.18548624, 100.07100677, 104.91204071, 32.27999878, 0.00000000
1, 2.8150, 360, -0.40058348, -1.28670847, 0.01923194, 43.28254318, -24.11688995, -219.83993530, -26.36655998, -0.40923706, -108.47705078, 101.38887787, 2.11163282, -31.61063957, -0.60552007, 0.74757689, -0.19948685, -0.18622376, 0.43260962, 0.30669379, 0.17409003, 100.07100677, 104.91204071, 32.27999878, 0.00000000
1, 2.8200, 361, -0.42848781, -1.30886781, 0.03814169, 44.00566864, -28.95762253, -210.85098267, -24.87576675, 0.20461853, -108.36013031, 101.60932922, 3.17422652, -31.54393578, -0.60210598, 0.75028956, -0.19372579, -0.19236524, 0.47916859, 0.33034196, 0.15867749, 100.07100677, 104.91204071, 32.27999878, 0.00000000
1, 2.8250, 362, -0.43723541, -1.30113792, 0.05606150, 42.42942810, -31.90163803, -201.89265442, -24.87576675, 0.20461853, -108.36013031, 101.81899261, 4.18767023, -31.49682045, -0.59877664, 0.75277025, -0.18834424, -0.19831803, 0.50577945, 0.32438332, 0.14417769, 100.07100677, 104.91204071, 32.27999878, 0.00000000
1, 2.8300, 363, -0.41935179, -1.26912856, 0.08184606, 40.14664078, -35.33013153, -193.32247925, -23.15112495, -2.33849740, -107.83396912, 102.01937103, 5.17045689, -31.47142982, -0.59548491, 0.75505823, -0.18326031, -0.20420712, 0.50503421, 0.29436219, 0.12166977, 100.07100677, 104.91204071, 32.27999878, 0.00000000
1, 2.8350, 364, -0.40451986, -1.23755264, 0.13612208, 37.34350967, -39.68592453, -184.03169250, -23.15112495, -2.33849740, -107.83396912, 102.20352173, 6.11220932, -31.47384071, -0.59228933, 0.75710535, -0.17855762, -0.21000478, 0.50660872, 0.26491159, 0.07036049, 100.07100677, 104.91204071, 32.27999878, 0.00000000
1, 2.8400, 365, -0.41666296, -1.18896282, 0.18638948, 31.98565292, -43.79566956, -171.37252808, -23.15112495, -2.33849740, -107.83396912, 102.35749054, 6.99638081, -31.50711250, -0.58931512, 0.75882888, -0.17431864, -0.21563745, 0.53427577, 0.21853428, 0.02253853, 100.07100677, 104.91204071, 32.27999878, 0.00000000
1, 2.8450, 366, -0.44333208, -1.17591965, 0.17349304, 28.14681816, -47.46468735, -160.58000183, -21.98187637, -0.29231218, -107.19087982, 102.48830414, 7.83179474, -31.56793594, -0.58650690, 0.76029354, -0.17048538, -0.22112973, 0.57565200, 0.20782939, 0.03729517, 100.07100677, 104.91204071, 32.27999878, 0.00000000
1, 2.8500, 367, -0.47198370, -1.15045714, 0.16139580, 25.30251694, -50.20212936, -146.13249207, -21.98187637, -0.29231218, -107.19087982, 102.60034943, 8.59969234, -31.65635681, -0.58388096, 0.76151407, -0.16716573, -0.22635154, 0.61785704, 0.18467435, 0.05087969, 100.07100677, 104.91204071, 32.27999878, 0.00000000
1, 2.8550, 368, -0.46194425, -1.12862837, 0.20468177, 24.30806351, -50.50407410, -133.82373047, -21.28032684, -0.26308095, -107.65857697, 102.70432281, 9.30801010, -31.75852966, -0.58138126, 0.76258457, -0.16424558, -0.23126638, 0.62018210, 0.16505417, 0.00902928, 100.07100677, 104.91204071, 32.27999878, 0.00000000
1, 2.8600, 369, -0.44034857, -1.12245345, 0.22477905, 21.05810356, -52.53192520, -121.52735901, -21.28032684, -0.26308095, -107.65857697, 102.78718567, 9.95868111, -31.88340569, -0.57907701, 0.76343662, -0.16174711, -0.23595017, 0.60998368, 0.16104428, -0.00993298, 100.07100677, 104.91204071, 32.27999878, 0.00000000
1, 2.8650, 370, -0.41567427, -1.10758340, 0.21903904, 16.72716522, -56.31420135, -109.08379364, -21.28032684, -0.26308095, -107.65857697, 102.84146118, 10.55291939, -32.04042435, -0.57699937, 0.76402891, -0.15970947, -0.24046738, 0.59577835, 0.14823383, -0.00348939, 100.07100677, 104.91204071, 32.27999878, 0.00000000
1, 2.8700, 371, -0.42654726, -1.09669316, 0.20167416, 13.38008213, -61.88152313, -95.92417908, -20.66647148, -0.29231218, -107.30780029, 102.86972809, 11.08920956, -32.23974228, -0.57511610, 0.76436704, -0.15821151, -0.24485427, 0.61614156, 0.13924029, 0.01404608, 100.07100677, 104.91204071, 32.27999878, 0.00000000
1, 2.8900, 372, -0.56194013, -1.01393151, 0.18134417, 3.33160853, -72.19849396, -43.74431229, -19.55568504, -0.14615609, -107.33703613, 102.77310944, 12.60478878, -33.35821915, -0.56957561, 0.76363796, -0.15728289, -0.26019776, 0.77852488, 0.06168028, 0.03164834, 100.07100677, 104.91204071, 32.27999878, 0.00000000
1, 2.8950, 373, -0.61187249, -0.97602868, 0.17320822, 0.85265142, -72.64923859, -28.65105629, -19.26337242, -1.34463608, -108.00935364, 102.70405579, 12.82410336, -33.68941879, -0.56872386, 0.76302308, -0.15814660, -0.26332241, 0.83258307, 0.02444784, 0.03845040, 100.07100677, 104.91204071, 32.27999878, 0.00000000
1, 2.9000, 374, -0.63395196, -0.94984007, 0.15423936, -1.77728009, -73.15791321, -17.02742958, -19.26337242, -1.34463608, -108.00935364, 102.61735535, 12.98678017, -34.03668213, -0.56808233, 0.76224941, -0.15937793, -0.26618960, 0.85771585, -0.00134131, 0.05591734, 100.07100677, 104.91204071, 32.27999878, 0.00000000
1, 2.9050, 375, -0.66812086, -0.91142809, 0.14211300, -4.19621944, -72.95313263, -3.11109114, -19.14644814, 0.23384975, -108.24320221, 102.51464844, 13.08070278, -34.39882278, -0.56767744, 0.76131469, -0.16103750, -0.26871800, 0.89374125, -0.03969763, 0.06624660, 100.07100677, 104.91204071, 32.27999878, 0.00000000
1, 2.9100, 376, -0.68725961, -0.89037275, 0.14763500, -4.92754459, -71.88642120, 7.40424776, -19.14644814, 0.23384975, -108.24320221, 102.40653229, 13.12145519, -34.76745224, -0.56742108, 0.76029354, -0.16300970, -0.27095211, 0.91378438, -0.06094614, 0.05889371, 100.07100677, 104.91204071, 32.27999878, 0.00000000
1, 2.9150, 377, -0.70815676, -0.87220418, 0.16835293, -5.72414017, -71.43358612, 17.34494591, -19.08798599, 0.23384975, -108.09704590, 102.29248810, 13.11246586, -35.14473724, -0.56730545, 0.75918043, -0.16528918, -0.27292728, 0.93468475, -0.07954517, 0.03628697, 100.07100677, 104.91204071, 32.27999878, 0.00000000
