time,ax,ay,az,aT
0.002000,-0.5523,0.0118,-0.0158,0.553
0.006000,-0.7483,0.1947,0.2145,0.802
0.007000,-0.9523,0.3911,0.4028,1.105
0.012000,-1.1091,0.5506,0.3989,1.301
0.018000,-1.0552,0.6393,0.2627,1.261
0.026000,-0.8090,0.6480,0.1756,1.051
0.027000,-0.6034,0.5765,0.1707,0.852
0.054000,-0.5661,0.4412,0.1638,0.736
0.054000,-0.6734,0.3134,0.0472,0.744
0.055000,-0.8360,0.2508,-0.2127,0.898
0.055000,-0.9373,0.3286,-0.5826,1.152
0.055000,-0.9328,0.4998,-0.9986,1.455
0.063000,-0.8672,0.6722,-1.3363,1.729
0.064000,-0.8260,0.7746,-1.5052,1.884
0.074000,-0.8726,0.7713,-1.5317,1.924
0.074000,-0.9433,0.6885,-1.4132,1.833
0.078000,-1.0024,0.5714,-1.1736,1.646
0.094000,-1.0286,0.4746,-0.9418,1.473
0.094000,-1.0033,0.4190,-0.7942,1.346
0.094000,-0.9272,0.4166,-0.7089,1.239
0.100000,-0.8031,0.4364,-0.6907,1.146
0.110000,-0.6622,0.4712,-0.6844,1.063
0.110000,-0.5733,0.4996,-0.6618,1.008
0.114000,-0.5044,0.5003,-0.6108,0.937
0.127000,-0.4673,0.5087,-0.5051,0.856
0.127000,-0.4327,0.5247,-0.3734,0.776
0.128000,-0.4242,0.5475,-0.2154,0.725
0.135000,-0.4270,0.5936,-0.0717,0.735
0.138000,-0.4359,0.6195,0.0196,0.758
0.144000,-0.4484,0.6490,0.0587,0.791
0.148000,-0.4740,0.6606,0.0551,0.815
0.216000,-0.5054,0.6761,0.0017,0.844
0.216000,-0.5309,0.6692,-0.0849,0.858
0.217000,-0.5600,0.6286,-0.1905,0.863
0.218000,-0.5831,0.5569,-0.2865,0.856
0.219000,-0.5831,0.4951,-0.3636,0.847
0.220000,-0.5288,0.4507,-0.4578,0.832
0.220000,-0.4711,0.3877,-0.4924,0.784
0.221000,-0.4834,0.2706,-0.4415,0.708
0.222000,-0.3829,0.2887,-0.5183,0.706
0.223000,-0.2789,0.3816,-0.6288,0.787
0.223000,-0.4868,0.1471,-0.6819,0.851
0.224000,-0.6774,-0.0811,-0.3894,0.786
0.225000,-0.5532,0.0355,0.1051,0.564
0.226000,-0.1745,0.3296,0.2196,0.433
0.226000,0.1840,0.6131,-0.0556,0.642
0.231000,0.3058,0.6863,-0.4337,0.868
0.235000,0.2378,0.6344,-0.6708,0.953
0.242000,0.0826,0.5318,-0.7579,0.930
0.244000,-0.0733,0.4149,-0.7740,0.881
0.249000,-0.1986,0.3072,-0.7672,0.850
0.259000,-0.2700,0.2591,-0.7993,0.883
0.260000,-0.3253,0.2393,-0.7056,0.813
0.265000,-0.4167,0.2451,-0.5840,0.758
0.269000,-0.5274,0.2378,-0.4583,0.738
0.275000,-0.6102,0.2194,-0.3258,0.726
0.278000,-0.6771,0.1607,-0.1838,0.720
0.360000,-0.7045,0.0612,-0.0873,0.713
0.360000,-0.6829,-0.0454,0.0071,0.684
0.361000,-0.5783,-0.1143,-0.0107,0.590
0.361000,-0.3958,-0.1262,-0.0879,0.425
0.361000,-0.2000,-0.1167,-0.2340,0.329
0.362000,-0.0172,-0.1213,-0.4063,0.424
0.362000,0.1411,-0.1250,-0.5715,0.602
0.362000,0.2464,-0.1374,-0.7225,0.776
0.362000,0.3108,-0.1390,-0.8498,0.915
0.362000,0.3606,-0.1128,-0.9034,0.979
0.363000,0.4268,-0.0496,-0.9215,1.017
0.363000,0.5142,0.0339,-0.9495,1.080
0.363000,0.5629,0.1037,-0.9466,1.106
0.363000,0.5635,0.1481,-1.0038,1.161
0.364000,0.5225,0.1575,-1.0921,1.221
0.364000,0.4464,0.1704,-1.2093,1.300
0.373000,0.4451,0.2278,-1.3673,1.456
0.374000,0.6020,0.3178,-1.6665,1.800
0.374000,0.6462,0.2875,-2.1330,2.247
0.379000,0.2686,-0.0887,-2.7145,2.729
0.386000,-0.0856,-0.4024,-3.0408,3.068
0.388000,-0.3591,-0.6557,-3.0167,3.108
0.394000,-0.5708,-0.8552,-2.9754,3.148
0.399000,-0.5885,-0.8514,-2.9263,3.104
0.412000,-0.4997,-0.7384,-2.8019,2.940
0.413000,-0.3198,-0.6084,-2.5752,2.665
0.414000,-0.0470,-0.4939,-2.3632,2.415
0.419000,0.2036,-0.4220,-2.2059,2.255
0.428000,0.3598,-0.3739,-2.1129,2.176
0.429000,0.4481,-0.4123,-2.2391,2.320
0.505000,0.4431,-0.5168,-2.5488,2.638
0.506000,0.3541,-0.6453,-2.9388,3.030
0.506000,0.3055,-0.7058,-3.3016,3.390
0.507000,0.3188,-0.6902,-3.5843,3.664
0.507000,0.3837,-0.6324,-3.8369,3.908
0.507000,0.5184,-0.5266,-4.0594,4.126
0.507000,0.6505,-0.4423,-4.2848,4.356
0.508000,0.7315,-0.3957,-4.4935,4.570
0.508000,0.7293,-0.3548,-4.6133,4.684
0.508000,0.7057,-0.3227,-4.5507,4.616
0.509000,0.7169,-0.2846,-4.4227,4.489
0.509000,0.7904,-0.2432,-4.3365,4.415
0.509000,0.8871,-0.2251,-4.2511,4.349
0.509000,0.9999,-0.2445,-4.1833,4.308
0.510000,1.0732,-0.2906,-4.1091,4.257
0.510000,1.0870,-0.3812,-4.0147,4.177
0.514000,0.9774,-0.4505,-3.8331,3.981
0.576000,0.6921,-0.4365,-3.5833,3.675
0.576000,0.4683,-0.4809,-3.1854,3.255
0.577000,0.4453,-0.4271,-2.3684,2.447
0.577000,0.6375,-0.2292,-1.3704,1.529
0.577000,1.0251,0.1350,-0.3886,1.105
0.577000,1.4517,0.5126,0.4687,1.609
0.577000,1.7827,0.8175,1.2088,2.304
0.577000,1.9936,1.0075,1.8194,2.881
0.578000,2.1774,1.1382,2.2313,3.319
0.578000,2.4004,1.2225,2.5079,3.680
0.578000,2.7214,1.3401,2.7664,4.105
0.578000,3.0009,1.3708,2.8392,4.353
0.579000,3.2763,1.3410,2.8413,4.539
0.586000,3.6376,1.2659,2.7777,4.749
0.592000,4.0234,1.1876,2.5209,4.894
0.595000,4.4509,1.2056,2.0263,5.037
0.599000,4.7299,1.1200,1.5414,5.099
0.604000,4.8292,0.9034,1.1355,5.043
0.609000,4.8514,0.6776,0.6920,4.947
0.614000,4.9143,0.5936,0.3996,4.966
0.656000,5.0222,0.6455,0.3326,5.074
0.657000,5.1301,0.8041,0.3281,5.203
0.657000,5.2488,1.0593,0.3507,5.366
0.657000,5.2171,1.3336,0.4153,5.401
0.658000,4.9247,1.4953,0.5247,5.173
0.658000,4.5776,1.5870,0.7561,4.904
0.658000,4.2728,1.7306,1.0269,4.723
0.658000,4.1452,1.9923,1.2333,4.762
0.659000,4.0849,2.3210,1.2598,4.864
0.664000,4.0170,2.6062,1.2360,4.945
0.669000,3.8740,2.8163,1.3706,4.982
0.674000,3.5995,2.9416,1.5760,4.908
0.679000,3.2256,2.9895,1.6979,4.714
0.685000,2.8409,3.0177,1.8080,4.522
0.689000,2.4956,3.0529,1.9632,4.405
0.694000,2.1964,3.0929,2.0177,4.297
0.766000,1.9865,3.1785,1.9546,4.227
0.766000,1.9632,3.2241,1.9680,4.257
0.767000,2.1813,3.1937,2.0169,4.362
0.767000,2.4514,3.0890,1.5863,4.251
0.767000,2.6027,2.9781,0.6541,4.009
0.768000,2.7488,2.9324,-0.1581,4.022
0.768000,3.0557,2.9769,-0.7671,4.334
0.768000,3.3653,2.9700,-0.9317,4.584
0.769000,3.3782,2.8369,-0.5397,4.444
0.769000,3.0509,2.6992,0.2748,4.083
0.769000,2.5304,2.6497,1.2116,3.859
0.770000,2.0038,2.7141,1.9807,3.912
0.770000,1.5932,2.8155,2.4625,4.066
0.770000,1.3649,2.8820,2.7106,4.185
0.770000,1.3257,2.9135,2.8089,4.259
0.776000,1.4850,2.8881,2.8198,4.301
0.780000,1.7515,2.8366,2.7507,4.322
0.787000,2.0318,2.7465,2.5871,4.285
0.790000,2.2327,2.6199,2.3124,4.147
0.794000,2.2353,2.4472,2.0030,3.873
0.803000,2.0237,2.2333,1.7155,3.468
0.805000,1.5853,1.9725,1.4755,2.929
0.810000,0.9281,1.7060,1.3351,2.357
0.814000,0.1563,1.4709,1.2935,1.965
0.894000,-0.6451,1.2586,1.2732,1.903
0.895000,-1.4322,1.0648,1.2541,2.181
0.895000,-2.1087,0.9164,1.2143,2.600
0.895000,-2.5620,0.8648,1.1514,2.939
0.896000,-2.7165,0.8763,1.0803,3.052
0.896000,-2.5572,1.0273,0.9762,2.924
0.896000,-2.0539,1.4546,0.8274,2.649
0.897000,-1.8819,1.3564,0.8279,2.463
0.897000,-1.9234,0.9674,0.6737,2.256
0.897000,-2.1540,0.5262,0.3799,2.250
0.897000,-2.5487,0.0713,0.0607,2.550
0.898000,-2.9606,-0.2200,-0.3322,2.987
0.898000,-3.2612,-0.3232,-0.6905,3.349
0.898000,-3.6213,-0.5590,-0.9106,3.776
0.899000,-3.9118,-0.7914,-1.2171,4.173
0.899000,-4.0651,-0.8555,-1.2522,4.339
0.909000,-4.1099,-0.8777,-1.1099,4.347
0.910000,-4.1040,-0.9802,-1.0267,4.343
0.910000,-4.0633,-1.1558,-1.1116,4.368
0.916000,-3.8887,-1.5166,-1.3197,4.378
0.921000,-3.7034,-1.6629,-1.7050,4.403
0.926000,-3.4487,-1.6646,-2.0004,4.320
0.929000,-3.1379,-1.5914,-2.2146,4.157
0.994000,-2.9082,-1.5133,-2.4808,4.111
0.994000,-2.8276,-1.5285,-2.7191,4.210
0.995000,-2.8640,-1.4716,-2.8946,4.330
0.995000,-3.0240,-1.4274,-2.9146,4.436
0.996000,-3.3047,-1.4662,-2.8229,4.587
0.996000,-3.6649,-1.5742,-2.6373,4.782
0.996000,-4.0150,-1.7326,-2.4185,4.997
0.997000,-3.7978,-1.2641,-2.2941,4.613
0.997000,-3.7994,-1.2990,-2.0143,4.492
0.997000,-3.9785,-1.8966,-1.7688,4.749
0.997000,-4.2206,-2.7515,-1.7315,5.328
0.998000,-4.4771,-3.2207,-2.6052,6.100
0.998000,-4.1621,-2.6641,-5.1740,7.155
1.007000,-3.9436,-2.5713,-6.1132,7.716
1.008000,-3.7659,-2.6549,-6.6520,8.092
1.011000,-3.8060,-3.1092,-6.4650,8.121
1.016000,-3.9929,-3.8741,-5.6190,7.907
1.021000,-4.3015,-4.9531,-4.2805,7.833
1.027000,-4.7697,-6.2671,-2.6353,8.305
1.030000,-5.2231,-7.5828,-1.1770,9.283
1.095000,-5.5385,-8.7717,-0.0575,10.374
1.096000,-5.8176,-9.7903,0.5306,11.401
1.096000,-6.0670,-10.6967,0.7483,12.320
1.097000,-6.5083,-11.6197,0.8153,13.343
1.097000,-6.7427,-12.2427,1.0094,14.013
1.098000,-6.5171,-12.2757,1.5178,13.981
1.098000,-5.7615,-11.4649,2.0904,13.000
1.099000,-4.7970,-10.2228,2.6843,11.607
1.099000,-3.8166,-8.9752,3.1728,10.256
1.100000,-2.9369,-7.9394,3.4285,9.133
1.100000,-1.9747,-7.0936,3.5072,8.156
1.100000,-0.8830,-6.3938,3.5622,7.372
1.101000,0.0769,-5.8128,3.6219,6.849
1.101000,0.8343,-5.3716,3.6968,6.574
1.107000,1.3096,-5.0213,3.7483,6.401
1.110000,1.5035,-4.6744,3.6441,6.115
1.116000,1.6915,-4.5579,3.7570,6.144
1.120000,1.9099,-4.6642,3.8827,6.362
1.125000,2.1539,-4.7920,4.0014,6.604
1.130000,2.2337,-4.8352,4.0410,6.686
1.195000,2.0093,-4.8169,3.9314,6.534
1.196000,1.7069,-4.7839,3.7798,6.331
1.196000,1.2186,-4.9236,3.5704,6.203
1.197000,0.6376,-5.1548,3.3765,6.195
1.197000,0.0489,-5.3484,3.0716,6.168
1.198000,-0.3750,-5.6258,2.8662,6.325
1.198000,-0.6000,-6.0354,2.6149,6.605
1.198000,-0.4260,-6.4783,2.4338,6.934
1.199000,0.1186,-6.7589,2.2019,7.109
1.199000,0.6971,-6.8417,1.9615,7.151
1.199000,1.1546,-6.6754,1.6825,6.980
1.200000,1.5563,-6.4128,1.4082,6.748
1.200000,1.9191,-6.0899,1.1335,6.485
1.201000,2.6681,-5.1644,0.7513,5.861
1.207000,3.3867,-4.2224,0.6623,5.453
1.211000,3.9073,-3.5841,0.5467,5.330
1.217000,4.0510,-3.3133,0.5622,5.264
1.222000,3.9725,-3.0569,0.4885,5.036
1.225000,3.7205,-2.6713,0.3825,4.596
1.230000,3.1012,-2.4625,0.2374,3.967
1.291000,2.3375,-2.3821,-0.0234,3.337
1.296000,1.6581,-2.2074,-0.3900,2.788
1.298000,1.2810,-1.8756,-0.8860,2.438
1.302000,1.2591,-1.4638,-1.4357,2.406
1.303000,1.4766,-1.0352,-1.8834,2.608
1.304000,1.8328,-0.5689,-2.2748,2.976
1.305000,2.2196,-0.1586,-2.5336,3.372
1.306000,2.6307,0.2154,-2.7869,3.838
1.307000,3.0472,0.5439,-3.0395,4.338
1.308000,3.4215,0.8390,-3.3465,4.859
1.309000,3.5266,1.1703,-3.7146,5.254
1.310000,3.4708,1.5234,-4.1897,5.650
1.311000,3.5186,1.9055,-4.6026,6.099
1.312000,3.5947,2.2607,-4.7566,6.376
1.313000,3.7848,2.5932,-4.8481,6.675
1.314000,3.8788,2.9259,-4.9043,6.903
1.316000,3.7080,3.2533,-4.8372,6.909
1.322000,3.3885,3.4913,-4.6536,6.733
1.327000,3.0553,3.5465,-4.3686,6.403
1.330000,2.9832,3.4282,-4.1258,6.138
1.338000,3.0176,3.3775,-4.0336,6.065
1.341000,3.0949,3.4152,-3.7402,5.936
1.347000,3.3642,3.3210,-3.2698,5.748
1.413000,3.2642,3.3250,-2.9820,5.532
1.414000,3.2045,3.3794,-3.0501,5.567
1.417000,3.3322,3.4723,-3.2791,5.823
1.419000,3.2809,3.6109,-3.4251,5.961
1.423000,3.0659,3.6831,-3.4748,5.919
1.425000,2.2939,3.8550,-3.2629,5.547
1.427000,0.8482,4.1446,-2.6733,5.004
1.427000,-0.7630,4.5182,-1.9565,4.982
1.427000,-2.2478,4.8701,-0.8806,5.436
1.428000,-3.2393,4.9149,0.5324,5.910
1.429000,-3.9691,4.7022,1.6073,6.360
1.430000,-4.4170,4.2121,2.1504,6.471
1.431000,-4.1403,3.4643,1.9633,5.744
1.432000,-3.5041,2.2740,1.4540,4.423
1.432000,-3.0147,0.9914,0.6500,3.239
1.433000,-2.7430,0.2355,-0.5323,2.804
1.433000,-2.4812,0.2001,-1.8734,3.115
1.440000,-2.1655,0.6495,-3.0038,3.760
1.441000,-1.8762,1.1560,-3.6136,4.233
1.447000,-1.5843,1.5133,-3.7291,4.325
1.460000,-0.9621,1.9908,-3.9723,4.546
1.462000,-0.0320,2.3526,-3.9276,4.578
1.465000,1.0675,2.5481,-3.6932,4.612
1.550000,2.2298,2.5778,-3.3597,4.786
1.551000,3.3051,2.5721,-3.0762,5.196
1.552000,4.0392,2.5900,-2.8304,5.571
1.553000,4.5795,2.6471,-2.7073,5.942
1.554000,4.8903,2.7774,-2.5719,6.184
1.554000,5.0131,2.9194,-2.3357,6.254
1.555000,5.0443,3.0999,-1.9991,6.249
1.556000,4.9099,3.0490,-1.5748,5.990
1.557000,4.6973,2.7918,-1.1062,5.575
1.557000,4.3805,2.4058,-0.6031,5.034
1.558000,3.9875,1.9906,-0.2166,4.462
1.558000,3.6702,1.5832,0.0865,3.998
1.559000,3.5014,1.2089,0.4181,3.728
1.559000,3.6349,0.9472,0.6003,3.804
1.560000,4.6413,0.6779,0.3727,4.705
1.560000,5.6325,0.4660,-0.0699,5.652
1.561000,5.9075,0.4690,-0.6285,5.959
1.561000,6.3147,0.5443,-1.3506,6.480
1.562000,6.5576,0.7206,-2.0774,6.916
1.562000,6.8781,0.8764,-2.6549,7.425
1.568000,7.3996,0.9965,-3.0826,8.078
1.571000,7.9584,1.1016,-3.2385,8.662
1.577000,8.5461,1.1907,-3.2070,9.205
1.582000,9.1639,1.2243,-3.0697,9.742
1.588000,9.5789,1.2256,-2.8621,10.072
1.591000,9.5439,1.2871,-2.5696,9.967
1.597000,9.3732,1.3804,-2.2671,9.742
1.675000,9.0053,1.5297,-1.9331,9.337
1.678000,8.4602,1.6735,-1.6211,8.775
1.679000,7.8590,1.7577,-1.3127,8.159
1.680000,7.2529,1.7905,-1.0399,7.543
1.681000,6.6981,1.7870,-0.8446,6.984
1.684000,6.3148,1.7670,-0.7132,6.596
1.685000,6.0864,1.7307,-0.6578,6.362
1.687000,6.0606,1.7164,-0.6903,6.337
1.688000,6.2395,1.7407,-0.8611,6.535
1.690000,6.5603,1.8487,-1.2599,6.931
1.690000,7.0268,2.0638,-1.8663,7.558
1.691000,7.5686,2.3900,-2.5391,8.333
1.693000,8.0286,2.8120,-3.2118,9.093
1.694000,8.2938,3.2576,-3.8755,9.717
1.695000,8.4492,3.7142,-4.4990,10.268
1.696000,8.5039,4.1530,-5.0115,10.709
1.698000,8.4553,4.5953,-5.4293,11.049
1.699000,8.2843,5.0075,-5.6975,11.232
1.700000,8.0202,5.3706,-5.7863,11.254
1.702000,7.7143,5.6564,-5.7075,11.139
1.704000,7.4079,5.8676,-5.5228,10.946
1.709000,7.1829,6.0091,-5.2284,10.726
1.711000,7.0868,6.0760,-4.8492,10.519
1.721000,7.0549,6.0512,-4.4169,10.291
1.726000,7.0293,5.9079,-3.9636,10.001
1.727000,6.9888,5.6630,-3.5091,9.655
1.731000,6.9381,5.3713,-3.1214,9.313
1.792000,6.8655,5.0469,-2.8181,8.975
1.793000,6.7880,4.6831,-2.6351,8.658
1.793000,6.7418,4.2918,-2.5602,8.392
1.793000,6.7085,3.8762,-2.6126,8.176
1.794000,6.6906,3.4462,-2.7438,8.010
1.794000,6.6834,3.0281,-2.9368,7.903
1.795000,6.6635,2.6200,-3.1408,7.819
1.795000,6.6430,2.2555,-3.3602,7.779
1.795000,6.6600,1.9250,-3.5468,7.787
1.796000,6.7197,1.6481,-3.6765,7.835
1.796000,6.7714,1.4143,-3.7924,7.889
1.796000,6.8053,1.1756,-3.8557,7.909
1.797000,6.7876,0.9530,-3.8229,7.848
1.807000,6.6653,0.7602,-3.7181,7.670
1.808000,6.4084,0.6194,-3.5413,7.348
1.813000,6.0406,0.5183,-3.2928,6.899
1.817000,5.5744,0.4591,-3.0181,6.356
1.822000,5.0219,0.4564,-2.7058,5.723
1.827000,4.4504,0.4713,-2.3635,5.061
1.831000,3.8966,0.5100,-2.0322,4.424
1.893000,3.3819,0.5697,-1.6881,3.823
1.894000,2.9472,0.6358,-1.3750,3.314
1.894000,2.5926,0.7038,-1.0886,2.899
1.895000,2.2989,0.7709,-0.8294,2.563
1.895000,2.0586,0.8482,-0.6168,2.310
1.895000,1.8532,0.9225,-0.4677,2.122
1.896000,1.6633,0.9594,-0.3654,1.955
1.896000,1.5320,0.9538,-0.3146,1.832
1.896000,1.4041,0.9009,-0.2671,1.690
1.896000,1.2438,0.7808,-0.2325,1.487
1.897000,1.0423,0.5859,-0.1885,1.210
1.897000,0.7996,0.3182,-0.1154,0.868
1.897000,0.4970,-0.0024,-0.0271,0.498
1.908000,0.1874,-0.3297,0.0840,0.388
1.909000,-0.1146,-0.6318,0.1756,0.666
1.913000,-0.4067,-0.8923,0.2262,1.006
1.921000,-0.6598,-1.1092,0.2344,1.312
1.921000,-0.8693,-1.3023,0.2123,1.580
1.927000,-1.0377,-1.4787,0.1959,1.817
1.931000,-1.1819,-1.6673,0.2088,2.054
1.991000,-1.3138,-1.8810,0.2431,2.307
1.991000,-1.4140,-2.1229,0.2795,2.566
1.992000,-1.4919,-2.3696,0.3097,2.817
1.992000,-1.5474,-2.6332,0.3114,3.070
1.993000,-1.5971,-2.9013,0.2676,3.323
1.993000,-1.6433,-3.1784,0.2019,3.584
1.993000,-1.6620,-3.4772,0.1141,3.856
1.993000,-1.6579,-3.8099,0.0500,4.155
1.994000,-1.6215,-4.1581,0.0212,4.463
1.994000,-1.5694,-4.5145,0.0061,4.779
1.994000,-1.5330,-4.8884,0.0196,5.123
1.995000,-1.5147,-5.3211,0.0424,5.533
1.998000,-1.5217,-5.7888,0.0806,5.986
2.007000,-1.5255,-6.3132,0.1482,6.497
2.008000,-1.5141,-6.8699,0.2095,7.038
2.017000,-1.4544,-7.4222,0.2340,7.567
2.018000,-1.3562,-7.9610,0.2220,8.079
2.021000,-1.2441,-8.4533,0.1341,8.545
2.029000,-1.1087,-8.9020,-0.0458,8.971
2.093000,-1.0034,-9.3357,-0.2975,9.394
2.094000,-0.9623,-9.7561,-0.5383,9.818
2.094000,-0.9740,-10.1222,-0.7337,10.195
2.095000,-1.0291,-10.4414,-0.8719,10.528
2.095000,-1.1161,-10.6571,-0.9408,10.757
2.095000,-1.1848,-10.7749,-0.9699,10.883
2.096000,-1.2255,-10.8259,-0.9862,10.940
2.096000,-1.2453,-10.8654,-1.0073,10.983
2.097000,-1.2347,-10.8961,-1.0386,11.015
2.097000,-1.1988,-10.9246,-1.0725,11.042
2.097000,-1.1616,-10.9562,-1.1044,11.073
2.098000,-1.1232,-10.9862,-1.1558,11.104
2.098000,-1.0576,-10.9887,-1.2335,11.108
2.099000,-0.9984,-10.9686,-1.3228,11.093
2.103000,-0.9458,-10.9407,-1.3950,11.070
2.108000,-0.8424,-10.9027,-1.4522,11.031
2.113000,-0.7098,-10.8722,-1.5114,11.000
2.121000,-0.5719,-10.8733,-1.5843,11.003
2.122000,-0.4121,-10.9233,-1.6397,11.053
2.127000,-0.2376,-11.0654,-1.6776,11.194
2.132000,-0.0722,-11.2993,-1.7150,11.429
2.194000,0.0936,-11.5771,-1.7949,11.716
2.195000,0.2596,-11.8146,-1.9457,11.977
2.195000,0.4163,-11.9903,-2.1791,12.194
2.196000,0.5036,-12.1163,-2.4872,12.379
2.196000,0.4997,-12.2233,-2.8191,12.554
2.197000,0.4071,-12.2968,-3.1551,12.702
2.197000,0.2784,-12.3246,-3.4903,12.812
2.197000,0.1066,-12.2922,-3.8272,12.875
2.198000,-0.0890,-12.1928,-4.1945,12.894
2.198000,-0.3275,-12.0235,-4.5920,12.875
2.199000,-0.6034,-11.7803,-5.0467,12.830
2.199000,-0.9118,-11.4678,-5.5203,12.760
2.200000,-1.2259,-11.1050,-6.0181,12.690
2.214000,-1.5143,-10.7016,-6.5362,12.631
2.215000,-1.7428,-10.2739,-7.0588,12.586
2.215000,-1.8654,-9.9182,-7.5684,12.615
2.224000,-1.9198,-9.6219,-8.0398,12.685
2.224000,-1.8795,-9.3583,-8.4432,12.744
2.229000,-1.7319,-9.0944,-8.7843,12.762
2.234000,-1.5630,-8.8278,-9.0642,12.749
2.239000,-1.4132,-8.5492,-9.2404,12.668
2.243000,-1.2797,-8.2743,-9.2876,12.504
2.247000,-1.1527,-8.0100,-9.2085,12.259
2.308000,-1.0013,-7.7521,-8.9838,11.908
2.309000,-0.8374,-7.5154,-8.5993,11.451
2.309000,-0.6681,-7.2691,-8.0932,10.899
2.310000,-0.5320,-7.0392,-7.4537,10.266
2.310000,-0.4483,-6.8452,-6.6920,9.583
2.310000,-0.4243,-6.6638,-5.8605,8.884
2.311000,-0.4817,-6.4836,-5.0190,8.213
2.311000,-0.6037,-6.3216,-4.2077,7.618
2.311000,-0.8143,-6.2012,-3.4571,7.146
2.312000,-1.0853,-6.0948,-2.7638,6.780
2.312000,-1.4190,-6.0251,-2.1126,6.541
2.313000,-1.7773,-5.9584,-1.4955,6.395
2.313000,-2.1414,-5.8679,-0.9426,6.317
2.323000,-2.5232,-5.7384,-0.4219,6.283
2.323000,-2.9422,-5.5734,0.0626,6.303
2.336000,-3.4009,-5.3696,0.5046,6.376
2.337000,-3.8895,-5.1552,0.9281,6.524
2.348000,-4.3697,-4.9229,1.3142,6.712
2.349000,-4.8241,-4.7048,1.6603,6.940
2.350000,-5.2147,-4.5020,1.9444,7.158
2.415000,-5.5027,-4.3060,2.1735,7.317
2.416000,-5.6230,-4.0997,2.3038,7.330
2.416000,-5.5805,-3.8569,2.3304,7.173
2.417000,-5.4062,-3.5659,2.2672,6.862
2.417000,-5.1311,-3.2312,2.1336,6.428
2.417000,-4.7676,-2.8504,1.9243,5.879
2.418000,-4.3588,-2.4519,1.6656,5.271
2.418000,-3.9620,-2.0722,1.4001,4.685
2.418000,-3.6273,-1.7332,1.1438,4.180
2.419000,-3.3303,-1.4221,0.8965,3.731
2.420000,-3.0594,-1.1288,0.6549,3.326
2.420000,-2.7567,-0.8212,0.4044,2.905
2.420000,-2.3791,-0.5091,0.1403,2.437
2.421000,-1.9532,-0.1808,-0.1207,1.965
2.428000,-1.4884,0.1616,-0.3472,1.537
2.430000,-1.0266,0.5160,-0.5536,1.275
2.441000,-0.6084,0.8734,-0.7247,1.288
2.441000,-0.2268,1.2526,-0.8437,1.527
2.444000,0.1154,1.6534,-0.9052,1.888
2.448000,0.3796,2.0609,-0.8829,2.274
2.454000,0.5806,2.4398,-0.8005,2.633
2.458000,0.7365,2.7863,-0.6368,2.951
2.463000,0.8644,3.1058,-0.4257,3.252
2.492000,1.0171,3.4296,-0.1913,3.582
2.493000,1.1871,3.7454,0.0472,3.929
2.493000,1.3507,4.0442,0.3280,4.276
2.494000,1.4922,4.3314,0.6677,4.630
2.494000,1.6284,4.6027,1.0755,4.999
2.494000,1.7592,4.8123,1.5099,5.342
2.498000,1.8963,4.9670,1.9390,5.659
2.505000,2.0420,5.0571,2.3115,5.923
2.508000,2.1873,5.0666,2.5980,6.100
2.514000,2.3311,5.0159,2.7792,6.190
2.519000,2.4905,4.9249,2.8311,6.203
2.525000,2.6702,4.7767,2.7469,6.123
2.529000,2.8701,4.5622,2.5244,5.952
2.536000,3.0953,4.2773,2.1783,5.712
2.539000,3.3357,3.9265,1.7362,5.437
2.543000,3.6277,3.5038,1.2323,5.192
2.548000,3.9932,3.0866,0.6983,5.095
2.610000,4.4491,2.7278,0.0923,5.220
2.610000,4.9885,2.4761,-0.5680,5.598
2.611000,5.5482,2.3360,-1.2594,6.150
2.611000,6.1212,2.2936,-1.8877,6.804
2.611000,6.7244,2.3514,-2.4357,7.529
2.612000,7.3718,2.4832,-2.8812,8.295
2.612000,8.0415,2.6459,-3.2143,9.055
2.612000,8.7027,2.8612,-3.4279,9.781
2.613000,9.3373,3.1163,-3.5266,10.456
2.613000,9.9429,3.4350,-3.5276,11.095
2.613000,10.4880,3.7953,-3.4121,11.664
2.613000,10.9221,4.1657,-3.2213,12.125
2.614000,11.2404,4.5198,-2.9463,12.468
2.618000,11.4567,4.8401,-2.5760,12.701
2.623000,11.5905,5.1076,-2.1088,12.840
2.628000,11.6586,5.2981,-1.5863,12.904
2.635000,11.6871,5.4329,-1.0453,12.930
2.640000,11.6614,5.4855,-0.5294,12.898
2.645000,11.5985,5.4606,-0.0849,12.820
2.653000,11.4885,5.3891,0.2761,12.693
2.675000,11.3819,5.2522,0.5651,12.548
2.676000,11.3220,5.0691,0.8088,12.431
2.676000,11.3207,4.8687,0.9662,12.361
2.677000,11.3808,4.6034,1.0803,12.324
2.677000,11.5282,4.3115,1.1897,12.365
2.679000,11.7487,3.9859,1.2511,12.469
2.684000,11.9654,3.6793,1.2052,12.576
2.688000,12.1185,3.4348,1.0813,12.642
2.694000,12.1935,3.2570,0.9158,12.654
2.699000,12.1639,3.1581,0.7144,12.588
2.703000,12.0685,3.1190,0.5157,12.476
2.708000,11.9743,3.1350,0.3007,12.382
2.715000,11.8962,3.1657,0.0553,12.310
2.718000,11.8437,3.2158,-0.1869,12.274
2.723000,11.8308,3.3116,-0.4112,12.292
2.729000,11.8480,3.4554,-0.6224,12.357
2.734000,11.9186,3.6802,-0.9064,12.507
2.740000,11.9678,3.9808,-1.2339,12.673
2.743000,11.9423,4.3280,-1.5948,12.802
2.754000,11.8270,4.6568,-1.9451,12.859
2.755000,11.6292,4.9433,-2.2438,12.834
2.759000,11.3442,5.1230,-2.5026,12.696
2.764000,10.9726,5.2055,-2.7191,12.445
2.797000,10.5559,5.1721,-2.8531,12.096
2.797000,10.1402,5.0279,-2.9171,11.688
2.798000,9.7591,4.7849,-2.9136,11.253
2.798000,9.4260,4.4462,-2.8625,10.808
2.798000,9.1527,4.0475,-2.7736,10.385
2.798000,8.9468,3.6440,-2.6736,10.024
2.799000,8.8035,3.2308,-2.5892,9.728
2.804000,8.7180,2.8098,-2.5326,9.503
2.810000,8.6481,2.3554,-2.5067,9.307
2.814000,8.5698,1.8913,-2.4730,9.118
2.819000,8.4782,1.4101,-2.4077,8.926
2.824000,8.3426,0.9789,-2.3253,8.716
2.829000,8.1463,0.5926,-2.2091,8.461
2.834000,7.8626,0.2411,-2.0615,8.132
2.839000,7.4811,-0.1011,-1.8807,7.715
2.844000,7.0063,-0.4129,-1.6909,7.219
2.849000,6.4626,-0.7062,-1.4950,6.671
2.853000,5.8482,-0.9831,-1.2670,6.064
2.858000,5.2109,-1.2466,-1.0718,5.464
2.864000,4.5762,-1.4710,-0.9176,4.894
2.876000,4.4821,-1.6637,-0.8807,4.861
2.876000,3.4004,-1.8218,-0.9375,3.970
2.878000,2.8893,-1.9161,-1.0545,3.624
2.926000,2.4097,-1.9567,-1.2097,3.332
2.926000,1.9960,-1.9325,-1.3767,3.101
2.926000,1.6427,-1.8444,-1.4596,2.869
2.927000,1.3231,-1.7333,-1.4776,2.634
2.927000,1.0205,-1.5900,-1.4526,2.383
2.927000,0.7801,-1.4458,-1.4117,2.166
2.928000,0.5440,-1.3352,-1.3933,2.005
2.928000,0.3464,-1.2567,-1.4062,1.918
2.928000,0.1651,-1.1800,-1.4522,1.878
2.930000,0.0094,-1.0620,-1.4947,1.834
2.933000,-0.1736,-0.9084,-1.4473,1.718
2.939000,-0.4035,-0.7609,-1.3434,1.596
2.944000,-0.6581,-0.6565,-1.1593,1.486
2.949000,-0.9803,-0.6151,-0.9724,1.512
2.955000,-1.3197,-0.6388,-0.7592,1.651
2.961000,-1.6567,-0.7128,-0.5462,1.884
2.964000,-1.9838,-0.8056,-0.3197,2.165
2.970000,-2.2747,-0.9175,-0.1519,2.458
2.975000,-2.5357,-1.0322,-0.0116,2.738
2.980000,-2.7383,-1.1381,0.1464,2.969
3.049000,-2.8727,-1.2781,0.3482,3.163
3.050000,-2.9296,-1.4161,0.5651,3.303
3.050000,-2.9257,-1.6031,0.7061,3.410
3.051000,-2.8561,-1.8035,0.7864,3.468
3.052000,-2.7403,-1.9823,0.8256,3.481
3.052000,-2.6382,-2.1324,0.8841,3.506
3.053000,-2.5189,-2.2753,0.8524,3.500
3.053000,-2.4064,-2.4062,0.7405,3.483
3.054000,-2.2863,-2.5882,0.6845,3.521
3.054000,-2.1705,-2.8722,0.6991,3.667
3.055000,-2.0517,-3.2302,0.7287,3.895
3.055000,-1.9516,-3.6263,0.7400,4.184
3.056000,-1.8699,-4.0648,0.7498,4.537
3.056000,-1.8068,-4.5513,0.7817,4.959
3.056000,-1.7429,-5.0976,0.8031,5.447
3.059000,-1.6833,-5.6610,0.7997,5.960
3.064000,-1.6231,-6.2219,0.8054,6.480
3.071000,-1.5579,-6.7342,0.7892,6.957
3.074000,-1.4780,-7.1984,0.7368,7.385
3.079000,-1.4054,-7.6721,0.6563,7.827
3.086000,-1.3379,-8.1438,0.5910,8.274
3.093000,-1.2256,-8.5845,0.5100,8.687
3.098000,-1.0999,-8.9843,0.4350,9.062
3.157000,-0.9921,-9.3339,0.3497,9.393
3.158000,-0.8955,-9.6460,0.2736,9.691
3.158000,-0.8106,-9.9099,0.2531,9.946
3.159000,-0.7566,-10.1768,0.2425,10.208
3.159000,-0.7194,-10.4348,0.2513,10.463
3.160000,-0.6989,-10.6955,0.2388,10.721
3.160000,-0.6522,-10.9500,0.1640,10.971
3.160000,-0.5655,-11.1776,0.0587,11.192
3.161000,-0.4461,-11.3982,-0.0627,11.407
3.161000,-0.3039,-11.6259,-0.2287,11.632
3.161000,-0.1823,-11.8558,-0.4055,11.864
3.162000,-0.1317,-12.0422,-0.5666,12.056
3.162000,-0.0875,-12.2067,-0.7146,12.228
3.164000,-0.0622,-12.3007,-0.8060,12.327
3.170000,-0.0508,-12.3463,-0.8963,12.379
3.174000,-0.0221,-12.3630,-0.9953,12.403
3.179000,0.0356,-12.3486,-1.1125,12.399
3.186000,0.0938,-12.3036,-1.2696,12.369
3.190000,0.1520,-12.2419,-1.4614,12.330
3.194000,0.1866,-12.1689,-1.6639,12.284
3.260000,0.2189,-12.0822,-1.8463,12.224
3.261000,0.2156,-12.0322,-2.0084,12.201
3.261000,0.1911,-12.0643,-2.1267,12.252
3.261000,0.1576,-12.1732,-2.2040,12.372
3.262000,0.1008,-12.3589,-2.2764,12.567
3.262000,0.0208,-12.5347,-2.4158,12.765
3.262000,-0.0466,-12.6192,-2.6434,12.893
3.263000,-0.0779,-12.6197,-2.9346,12.957
3.263000,-0.0993,-12.5887,-3.2174,12.994
3.263000,-0.1610,-12.5648,-3.4822,13.039
3.264000,-0.2701,-12.5454,-3.7267,13.090
3.264000,-0.4095,-12.5160,-3.9584,13.133
3.264000,-0.5646,-12.4481,-4.2184,13.156
3.265000,-0.7805,-12.3055,-4.5403,13.140
3.270000,-1.0280,-12.0766,-4.9440,13.090
3.275000,-1.2974,-11.7562,-5.4152,13.008
3.280000,-1.5907,-11.3679,-5.9374,12.923
3.286000,-1.8672,-10.9092,-6.4772,12.824
3.290000,-2.0810,-10.3985,-7.0015,12.708
3.294000,-2.1747,-9.8474,-7.4675,12.548
3.304000,-2.1502,-9.3046,-7.8954,12.391
3.305000,-2.0073,-8.7721,-8.2830,12.231
3.309000,-1.7436,-8.2597,-8.6329,12.074
3.315000,-1.3326,-7.7607,-8.9119,11.892
3.397000,-0.8127,-7.2918,-9.0790,11.673
3.397000,-0.1933,-6.8603,-9.0677,11.372
3.398000,0.4753,-6.4739,-8.8566,10.981
3.398000,1.0928,-6.1173,-8.4895,10.521
3.399000,1.6355,-5.7417,-8.0195,9.998
3.399000,2.1082,-5.3460,-7.4493,9.408
3.400000,2.4657,-4.9762,-6.8059,8.784
3.400000,2.7248,-4.6442,-6.1385,8.165
3.400000,2.9049,-4.3570,-5.4521,7.560
3.401000,2.9917,-4.1200,-4.7669,6.975
3.401000,2.9518,-3.9359,-4.0712,6.386
3.402000,2.7589,-3.8141,-3.3796,5.795
3.402000,2.3793,-3.7341,-2.6726,5.172
3.402000,1.8678,-3.6713,-1.9661,4.564
3.403000,1.2315,-3.6037,-1.3189,4.030
3.403000,0.4843,-3.5356,-0.7656,3.650
3.403000,-0.3475,-3.4728,-0.3218,3.505
3.406000,-1.2236,-3.4079,0.0258,3.621
3.410000,-2.1414,-3.3558,0.2951,3.992
3.416000,-3.0439,-3.2890,0.4872,4.508
3.420000,-3.8951,-3.1704,0.6343,5.062
3.424000,-4.6500,-3.0329,0.7686,5.605
3.430000,-5.3109,-2.8563,0.8883,6.095
3.442000,-5.8806,-2.6606,1.0156,6.534
3.443000,-6.3831,-2.4597,1.1577,6.938
3.444000,-6.8375,-2.2682,1.3168,7.323
3.504000,-7.2434,-2.1146,1.4708,7.688
3.509000,-7.5980,-1.9816,1.5904,8.012
3.520000,-7.8699,-1.8531,1.6217,8.246
3.525000,-8.0418,-1.7261,1.5568,8.371
3.526000,-8.0942,-1.5977,1.3783,8.365
3.528000,-7.9957,-1.4535,1.1120,8.202
3.529000,-7.7198,-1.2791,0.7669,7.863
3.530000,-7.2926,-1.0721,0.3954,7.382
3.531000,-6.7720,-0.8323,0.0373,6.823
3.534000,-6.2132,-0.5837,-0.2595,6.246
3.535000,-5.6235,-0.3248,-0.5194,5.657
3.536000,-5.0291,-0.0416,-0.7763,5.089
3.537000,-4.4516,0.2850,-1.0376,4.580
3.538000,-3.8985,0.6244,-1.2990,4.156
3.539000,-3.3986,0.9867,-1.5627,3.869
3.541000,-2.9446,1.3476,-1.7904,3.700
3.542000,-2.5440,1.6973,-1.9461,3.625
3.543000,-2.1944,2.0214,-1.9941,3.589
3.543000,-1.8663,2.2991,-1.8991,3.518
3.545000,-1.5461,2.5170,-1.6643,3.391
3.552000,-1.2263,2.7165,-1.3235,3.261
3.554000,-0.9239,2.8900,-0.8909,3.162
3.559000,-0.6679,3.0084,-0.3690,3.104
3.565000,-0.4270,3.0670,0.2418,3.106
3.614000,-0.1926,3.0453,0.8285,3.162
3.615000,0.0262,2.9605,1.3166,3.240
3.615000,0.2651,2.7959,1.6849,3.275
3.615000,0.5381,2.5611,1.9388,3.257
3.616000,0.8689,2.2681,2.0454,3.175
3.616000,1.2314,1.9275,2.0225,3.053
3.616000,1.6028,1.5407,1.9215,2.939
3.616000,1.9741,1.1112,1.7645,2.871
3.617000,2.3742,0.6538,1.5014,2.884
3.617000,2.8130,0.1908,1.1304,3.038
3.619000,3.3438,-0.2315,0.6542,3.415
3.625000,3.9681,-0.5943,0.1004,4.014
3.629000,4.6743,-0.8849,-0.4945,4.783
3.635000,5.4310,-1.0815,-1.0866,5.643
3.640000,6.2285,-1.1819,-1.6490,6.551
3.647000,7.0402,-1.1883,-2.1261,7.450
3.650000,7.8425,-1.0981,-2.5561,8.321
3.655000,8.6530,-0.9602,-2.9259,9.185
3.659000,9.4692,-0.7601,-3.1923,10.022
3.664000,10.2787,-0.5006,-3.3337,10.817
3.727000,11.0092,-0.1678,-3.3813,11.518
3.728000,11.6182,0.2194,-3.3306,12.088
3.728000,12.1210,0.6668,-3.2107,12.557
3.728000,12.5156,1.1697,-3.0240,12.929
3.728000,12.7847,1.6989,-2.7638,13.190
3.729000,12.9352,2.1894,-2.3968,13.336
3.729000,12.9484,2.6077,-1.8832,13.342
3.729000,12.8210,2.9335,-1.2821,13.215
3.730000,12.5969,3.1861,-0.6688,13.011
3.730000,12.3194,3.3607,-0.0875,12.770
3.730000,12.0415,3.4431,0.4372,12.532
3.731000,11.8092,3.4217,0.9170,12.329
3.731000,11.6802,3.2947,1.3157,12.207
3.741000,11.6326,3.0907,1.6284,12.146
3.742000,11.6429,2.8605,1.8579,12.132
3.745000,11.6969,2.6713,1.9731,12.159
3.753000,11.7947,2.5522,2.0058,12.233
3.755000,11.9363,2.5011,1.9687,12.353
3.760000,12.1141,2.5226,1.8743,12.515
3.765000,12.3614,2.6168,1.7903,12.762
3.792000,12.6993,2.8123,1.7052,13.118
3.793000,13.0936,3.0847,1.6885,13.558
3.793000,13.4715,3.4191,1.7520,14.009
3.793000,13.7988,3.7931,1.8117,14.425
3.794000,14.0629,4.2468,1.8910,14.811
3.795000,14.2036,4.7939,1.9416,15.116
3.806000,14.2564,5.4051,1.9657,15.373
3.807000,14.1921,6.0584,1.9487,15.554
3.812000,14.0533,6.6839,1.8908,15.676
3.818000,13.8496,7.2216,1.8536,15.729
3.820000,13.5972,7.6374,1.8251,15.702
3.825000,13.2961,7.9145,1.7783,15.575
3.830000,12.9127,8.0452,1.7011,15.309
3.835000,12.4300,8.0128,1.5818,14.873
3.840000,11.8400,7.8323,1.4012,14.265
3.845000,11.1698,7.4947,1.1739,13.502
3.852000,10.4471,7.0296,0.9125,12.625
3.856000,9.7520,6.4692,0.6029,11.718
3.860000,9.1144,5.8742,0.2507,10.846
3.902000,8.5775,5.2786,-0.1124,10.072
3.902000,8.1550,4.7100,-0.4595,9.429
3.903000,7.8298,4.1708,-0.7136,8.900
3.903000,7.5903,3.6613,-0.9203,8.477
3.903000,7.3983,3.1960,-1.0580,8.128
3.903000,7.2274,2.7458,-1.1606,7.818
3.903000,7.0958,2.3381,-1.2956,7.583
3.904000,6.9721,1.9677,-1.4488,7.388
3.905000,6.8301,1.6107,-1.5918,7.196
3.910000,6.7009,1.3173,-1.7339,7.046
3.915000,6.5723,1.0776,-1.8060,6.901
3.920000,6.4366,0.8930,-1.7822,6.738
3.925000,6.2659,0.7592,-1.7589,6.552
3.931000,6.0167,0.6659,-1.7746,6.308
3.936000,5.7273,0.6151,-1.7649,6.025
3.941000,5.4025,0.5996,-1.7033,5.696
3.947000,5.0561,0.6135,-1.6593,5.357
3.951000,4.6512,0.6247,-1.6191,4.964
3.955000,4.2398,0.6298,-1.5607,4.562
3.960000,3.8219,0.6195,-1.4241,4.125
3.966000,3.3978,0.5840,-1.2169,3.656
4.020000,3.0037,0.5664,-1.0449,3.230
4.021000,2.6867,0.5419,-0.9199,2.891
4.021000,2.3571,0.5071,-0.8155,2.545
4.021000,2.0720,0.4495,-0.7199,2.239
4.021000,1.8048,0.3808,-0.5536,1.926
4.022000,1.5751,0.2842,-0.3625,1.641
4.022000,1.3536,0.1637,-0.2806,1.392
4.022000,1.1293,0.0043,-0.2235,1.151
4.022000,0.9092,-0.2045,-0.1622,0.946
4.023000,0.6909,-0.4457,-0.1160,0.830
4.023000,0.4533,-0.7096,-0.0635,0.844
4.025000,0.1984,-0.9899,-0.0641,1.012
4.031000,-0.0798,-1.2723,-0.1295,1.281
4.036000,-0.3601,-1.5885,-0.1801,1.639
4.041000,-0.6517,-1.9187,-0.2331,2.040
4.046000,-0.9448,-2.2412,-0.2406,2.444
4.054000,-1.2466,-2.5901,-0.2628,2.886
4.056000,-1.5204,-2.9533,-0.2955,3.335
4.061000,-1.7805,-3.3217,-0.3294,3.783
4.067000,-2.0148,-3.6660,-0.4633,4.209
4.071000,-2.1994,-3.9667,-0.7064,4.590
4.077000,-2.3343,-4.2856,-0.8743,4.958
4.081000,-2.4268,-4.5757,-1.0394,5.283
4.086000,-2.4959,-4.8755,-1.1850,5.604
4.090000,-2.5320,-5.1738,-1.3213,5.910
4.095000,-2.5112,-5.4728,-1.3937,6.181
4.163000,-2.4695,-5.7964,-1.4554,6.466
4.164000,-2.4118,-6.1672,-1.4849,6.786
4.164000,-2.3906,-6.6020,-1.4820,7.176
4.164000,-2.3941,-7.0942,-1.4586,7.628
4.165000,-2.4223,-7.6218,-1.4054,8.120
4.165000,-2.4657,-8.1530,-1.3390,8.622
4.166000,-2.5339,-8.6875,-1.2833,9.140
4.166000,-2.6101,-9.1870,-1.2101,9.627
4.166000,-2.7065,-9.6612,-1.1668,10.101
4.167000,-2.8303,-10.1103,-1.1325,10.560
4.167000,-2.9313,-10.5477,-1.1028,11.003
4.168000,-3.0336,-10.9514,-1.0684,11.414
4.168000,-3.1586,-11.3284,-1.0561,11.808
4.168000,-3.3021,-11.6571,-1.0579,12.162
4.171000,-3.4788,-11.9186,-1.0376,12.459
4.177000,-3.6986,-12.0739,-0.9708,12.665
4.181000,-3.9211,-12.1181,-0.8550,12.765
4.193000,-4.0889,-12.0348,-0.7118,12.730
4.194000,-4.1481,-11.8689,-0.5393,12.584
4.196000,-4.0918,-11.6647,-0.3756,12.367
4.261000,-3.9682,-11.4494,-0.2603,12.120
4.262000,-3.7875,-11.2356,-0.1801,11.858
4.263000,-3.5456,-11.0311,-0.1576,11.588
4.263000,-3.2598,-10.8442,-0.1800,11.325
4.263000,-2.9599,-10.6872,-0.2064,11.091
4.264000,-2.6560,-10.5634,-0.2409,10.895
4.264000,-2.3799,-10.4686,-0.2942,10.740
4.264000,-2.1465,-10.3962,-0.3605,10.622
4.265000,-1.9227,-10.3538,-0.4296,10.540
4.265000,-1.7141,-10.3586,-0.4764,10.510
4.265000,-1.5542,-10.4466,-0.4818,10.573
4.266000,-1.4334,-10.6130,-0.4675,10.720
4.266000,-1.3299,-10.8170,-0.4702,10.909
4.266000,-1.2388,-11.0490,-0.4994,11.129
4.272000,-1.1287,-11.3038,-0.5727,11.374
4.278000,-1.0349,-11.5719,-0.7076,11.640
4.281000,-0.9882,-11.8119,-0.9311,11.890
4.287000,-0.9474,-12.0019,-1.1670,12.096
4.292000,-0.9340,-12.1461,-1.4275,12.265
4.296000,-0.9285,-12.2370,-1.6792,12.386
4.369000,-0.9423,-12.2796,-1.9206,12.465
4.370000,-0.9391,-12.2928,-2.1113,12.508
4.371000,-0.9303,-12.3103,-2.2999,12.558
4.371000,-0.9131,-12.3225,-2.5136,12.609
4.372000,-0.8677,-12.3390,-2.7577,12.673
4.372000,-0.8348,-12.3185,-3.0345,12.714
4.372000,-0.8062,-12.1925,-3.4456,12.696
4.373000,-0.7913,-11.9392,-3.9649,12.605
4.373000,-0.7560,-11.5584,-4.5286,12.437
4.374000,-0.7069,-11.0719,-5.1114,12.215
4.374000,-0.6147,-10.5031,-5.6997,11.966
4.374000,-0.4812,-9.9301,-6.3050,11.772
4.375000,-0.2606,-9.3499,-6.8631,11.601
4.375000,0.0163,-8.8060,-7.3343,11.460
4.376000,0.3713,-8.2964,-7.7242,11.342
4.377000,0.7757,-7.7920,-8.0115,11.203
4.383000,1.2297,-7.2809,-8.1612,11.006
4.387000,1.7331,-6.7753,-8.1569,10.744
4.391000,2.2427,-6.2813,-7.9963,10.413
4.397000,2.7202,-5.8048,-7.6893,10.011
4.403000,3.0981,-5.3327,-7.3480,9.593
4.409000,3.4026,-4.8556,-6.9407,9.128
4.411000,3.6618,-4.4024,-6.4239,8.606
4.496000,3.8250,-3.9804,-5.7928,8.002
4.497000,3.8397,-3.6262,-5.1025,7.344
4.497000,3.6768,-3.3617,-4.3696,6.627
4.497000,3.3606,-3.2075,-3.5870,5.869
4.498000,2.8953,-3.1601,-2.7377,5.086
4.498000,2.3124,-3.1751,-1.8911,4.359
4.498000,1.6430,-3.2424,-1.1064,3.800
4.499000,0.8894,-3.3349,-0.4019,3.475
4.499000,0.0872,-3.4373,0.2288,3.446
4.499000,-0.7347,-3.5243,0.7793,3.683
4.500000,-1.5768,-3.6151,1.2990,4.152
4.500000,-2.4056,-3.6820,1.7505,4.734
4.500000,-3.2090,-3.7362,2.1222,5.363
4.500000,-3.9652,-3.7599,2.3980,5.967
4.501000,-4.6524,-3.7469,2.5877,6.510
4.501000,-5.2324,-3.6904,2.6728,6.938
4.502000,-5.6692,-3.5678,2.6677,7.210
4.507000,-5.9626,-3.4029,2.5943,7.339
4.508000,-6.1223,-3.1885,2.4548,7.326
4.512000,-6.1626,-2.9489,2.2541,7.194
4.521000,-6.0711,-2.6670,1.9823,6.921
4.522000,-5.8797,-2.3708,1.6416,6.549
4.526000,-5.5570,-2.0481,1.2414,6.051
4.531000,-5.1460,-1.7258,0.8172,5.489
4.591000,-4.6922,-1.4353,0.3972,4.923
4.592000,-4.2165,-1.1425,-0.0162,4.369
4.593000,-3.7029,-0.8204,-0.4091,3.815
4.593000,-3.1486,-0.4448,-0.7626,3.270
4.593000,-2.5539,-0.0212,-1.0794,2.773
4.594000,-1.9499,0.4283,-1.3336,2.401
4.594000,-1.3339,0.8656,-1.5209,2.200
4.594000,-0.7358,1.3315,-1.6822,2.268
4.594000,-0.1412,1.8217,-1.8344,2.589
4.595000,0.4544,2.3401,-1.9632,3.088
4.595000,1.0457,2.8722,-2.0445,3.677
4.596000,1.6297,3.4243,-2.0689,4.320
4.598000,2.1751,3.9749,-2.0360,4.967
4.604000,2.6061,4.4864,-1.8934,5.523
4.607000,2.9347,4.9470,-1.6986,5.998
4.612000,3.1103,5.3326,-1.4183,6.334
4.621000,3.1502,5.6509,-1.0554,6.555
4.626000,3.0654,5.8675,-0.6535,6.652
4.627000,2.9118,6.0287,-0.2511,6.700
4.631000,2.7324,6.1418,0.1275,6.723
4.704000,2.5728,6.2142,0.4747,6.742
4.705000,2.4288,6.2130,0.7761,6.716
4.706000,2.3139,6.1665,1.0437,6.668
4.706000,2.2355,6.0727,1.2606,6.593
4.706000,2.1771,5.9226,1.4151,6.467
4.707000,2.1434,5.7258,1.5240,6.301
4.707000,2.1654,5.4874,1.5805,6.107
4.707000,2.2605,5.2249,1.5796,5.908
4.707000,2.4399,4.9356,1.5197,5.712
4.708000,2.7132,4.6343,1.3533,5.538
4.708000,3.0946,4.3477,1.1338,5.456
4.708000,3.5505,4.0763,0.8905,5.479
4.709000,4.0783,3.8104,0.6358,5.617
4.709000,4.6252,3.5648,0.4373,5.856
4.710000,5.1976,3.3009,0.3407,6.167
4.713000,5.7837,3.0093,0.3244,6.528
4.718000,6.3788,2.6900,0.3471,6.931
4.723000,6.9779,2.3549,0.3324,7.372
4.727000,7.5790,2.0450,0.2466,7.854
4.732000,8.1600,1.7936,0.1288,8.356
4.738000,8.6802,1.6418,0.0059,8.834
4.744000,9.1133,1.5798,-0.1336,9.250
4.748000,9.4519,1.5959,-0.2464,9.589
4.827000,9.7013,1.6709,-0.3085,9.849
4.828000,9.8569,1.7956,-0.3224,10.024
4.828000,9.9215,1.9695,-0.3028,10.120
4.828000,9.9073,2.1523,-0.2504,10.142
4.829000,9.8315,2.3125,-0.1847,10.102
4.829000,9.6990,2.4524,-0.0704,10.004
4.829000,9.5433,2.5312,0.0609,9.873
4.830000,9.3714,2.5845,0.1588,9.723
4.830000,9.1690,2.5933,0.1896,9.531
4.830000,8.9579,2.5721,0.1538,9.321
4.831000,8.7380,2.5188,0.0707,9.094
4.831000,8.5670,2.4458,-0.0135,8.909
4.831000,8.4281,2.3292,-0.0150,8.744
4.832000,8.3071,2.1743,0.0376,8.587
4.832000,8.1898,2.0026,0.1129,8.432
4.832000,8.0479,1.8527,0.1896,8.261
4.833000,7.8624,1.7319,0.2533,8.055
4.839000,7.6456,1.6572,0.3305,7.830
4.844000,7.4408,1.6286,0.4234,7.629
4.847000,7.2842,1.6390,0.5535,7.487
4.859000,7.1782,1.6572,0.7059,7.401
4.860000,7.0919,1.6760,0.8683,7.339
4.864000,7.0204,1.6664,1.0332,7.289
4.932000,6.9805,1.6904,1.1641,7.276
4.933000,6.9551,1.7717,1.2228,7.281
4.934000,6.9058,1.9292,1.2068,7.271
4.934000,6.8180,2.1314,1.1070,7.229
4.934000,6.6866,2.3640,0.9356,7.154
4.935000,6.5476,2.6462,0.7289,7.100
4.935000,6.4273,2.9515,0.5132,7.091
4.935000,6.3568,3.2635,0.3057,7.152
4.936000,6.3167,3.5917,0.1184,7.267
4.936000,6.3354,3.9333,-0.0245,7.457
4.936000,6.3528,4.2453,-0.1136,7.642
4.937000,6.3783,4.5034,-0.1421,7.809
4.937000,6.4526,4.7122,-0.1322,7.991
4.937000,6.5639,4.8454,-0.0894,8.159
4.938000,6.7697,4.9028,-0.0356,8.359
4.944000,7.0701,4.9085,-0.0266,8.607
4.948000,7.4673,4.8624,-0.0621,8.911
4.953000,7.9590,4.8151,-0.1613,9.304
4.959000,8.5400,4.8071,-0.2779,9.804
4.964000,9.1881,4.8238,-0.3760,10.384
4.971000,9.8667,4.8384,-0.4167,10.997
4.973000,10.5531,4.8454,-0.3759,11.618
4.978000,11.2421,4.8274,-0.2471,12.237
4.984000,11.9016,4.8286,-0.0710,12.844
5.055000,12.4706,4.8217,0.1163,13.371
5.056000,12.9147,4.8103,0.3100,13.785
5.057000,13.1637,4.7573,0.5077,14.006
5.057000,13.1885,4.6591,0.6925,14.004
5.057000,12.9753,4.4871,0.8522,13.756
5.058000,12.5246,4.2193,0.9228,13.248
5.058000,11.8541,3.8751,0.9140,12.505
5.058000,11.1061,3.4840,0.8647,11.672
5.059000,10.3409,3.0889,0.7944,10.822
5.059000,9.5583,2.7131,0.6938,9.960
5.060000,8.7941,2.3420,0.5232,9.116
5.060000,8.0994,2.0144,0.3525,8.354
5.060000,7.4748,1.7258,0.1580,7.673
5.061000,6.8696,1.4492,0.0239,7.021
5.061000,6.2931,1.1938,-0.0378,6.405
5.063000,5.7424,0.9344,-0.0488,5.818
5.069000,5.1799,0.6592,0.0048,5.222
5.073000,4.5825,0.3615,0.1154,4.598
5.078000,3.9727,0.0727,0.2534,3.981
5.086000,3.4102,-0.1983,0.3823,3.437
5.091000,2.8686,-0.4728,0.5228,2.954
5.093000,2.3713,-0.7468,0.6773,2.577
5.098000,1.9190,-1.0365,0.8114,2.327
5.178000,1.5527,-1.3177,0.9368,2.242
5.179000,1.2864,-1.6177,1.0937,2.338
5.179000,1.1118,-1.9222,1.2331,2.540
5.179000,1.0046,-2.2202,1.3594,2.790
5.180000,0.8835,-2.5430,1.4463,3.056
5.180000,0.7534,-2.9000,1.4649,3.335
5.180000,0.5976,-3.3103,1.4082,3.647
5.181000,0.4257,-3.7557,1.2809,3.991
5.181000,0.2053,-4.2326,1.1212,4.383
5.181000,-0.0496,-4.7441,0.9366,4.836
5.182000,-0.3029,-5.2343,0.7563,5.297
5.182000,-0.5714,-5.7240,0.5423,5.778
5.182000,-0.8170,-6.1849,0.3018,6.246
5.183000,-1.0561,-6.6066,0.0833,6.691
5.183000,-1.2341,-7.0258,-0.0630,7.134
5.183000,-1.3847,-7.4278,-0.2137,7.559
5.183000,-1.4964,-7.8004,-0.3826,7.952
5.190000,-1.5982,-8.1808,-0.5122,8.351
5.194000,-1.6733,-8.5734,-0.6070,8.756
5.198000,-1.7461,-8.9840,-0.6624,9.176
5.203000,-1.8070,-9.4146,-0.7096,9.613
5.208000,-1.8827,-9.8791,-0.7702,10.086
5.213000,-1.9567,-10.3409,-0.8080,10.555
5.293000,-2.0457,-10.7982,-0.8642,11.024
5.294000,-2.1481,-11.2243,-0.8760,11.461
5.295000,-2.2495,-11.6223,-0.8818,11.871
5.295000,-2.3887,-11.9776,-0.8960,12.246
5.296000,-2.5852,-12.2992,-0.9376,12.603
5.296000,-2.8175,-12.5804,-0.9562,12.927
5.297000,-3.0769,-12.8092,-0.9446,13.207
5.297000,-3.3419,-12.9933,-0.8791,13.445
5.297000,-3.5961,-13.1226,-0.8345,13.632
5.298000,-3.8112,-13.2185,-0.8057,13.781
5.298000,-3.9710,-13.2687,-0.7856,13.872
5.299000,-4.0756,-13.2880,-0.7717,13.920
5.299000,-4.1571,-13.2513,-0.7800,13.910
5.300000,-4.2157,-13.1453,-0.7598,13.826
5.300000,-4.2089,-12.9869,-0.7584,13.673
5.300000,-4.1439,-12.7792,-0.7588,13.456
5.301000,-4.0236,-12.5759,-0.7724,13.226
5.306000,-3.9010,-12.3888,-0.7908,13.013
5.309000,-3.7907,-12.2404,-0.8306,12.841
5.315000,-3.6975,-12.1260,-0.8816,12.708
5.321000,-3.6338,-12.0123,-0.9649,12.587
5.324000,-3.5780,-11.9185,-1.0399,12.487
5.329000,-3.5328,-11.8492,-1.0677,12.411
5.420000,-3.4743,-11.8215,-1.0557,12.367
5.421000,-3.4071,-11.7995,-1.0113,12.323
5.421000,-3.2953,-11.7810,-0.9846,12.273
5.422000,-3.1413,-11.8093,-0.9712,12.258
5.422000,-2.9567,-11.8796,-0.9859,12.282
5.423000,-2.7677,-11.9896,-1.0000,12.346
5.423000,-2.6124,-12.1490,-1.0163,12.468
5.423000,-2.5051,-12.2974,-1.0706,12.596
5.424000,-2.4362,-12.3702,-1.1461,12.660
5.424000,-2.3696,-12.3456,-1.2809,12.636
5.425000,-2.3291,-12.2506,-1.4460,12.554
5.425000,-2.2907,-12.1185,-1.6032,12.437
5.425000,-2.2492,-12.0020,-1.7336,12.333
5.426000,-2.1876,-11.9203,-1.8136,12.254
5.426000,-2.1272,-11.8379,-1.8936,12.176
5.427000,-2.0846,-11.7326,-2.0406,12.090
5.427000,-2.0232,-11.5650,-2.2670,11.957
5.428000,-1.9430,-11.3607,-2.5726,11.809
5.428000,-1.8557,-11.1150,-2.9478,11.648
5.429000,-1.7541,-10.8207,-3.3589,11.465
5.433000,-1.6162,-10.4936,-3.7704,11.267
5.439000,-1.4057,-10.1045,-4.1183,11.002
5.444000,-1.0984,-9.6865,-4.4196,10.704
5.450000,-0.6987,-9.2545,-4.6702,10.390
5.454000,-0.1847,-8.8595,-4.8686,10.111
5.459000,0.4581,-8.4799,-4.9985,9.854
5.464000,1.1894,-8.1234,-5.0564,9.642
5.547000,1.9878,-7.7854,-5.0091,9.469
5.548000,2.7625,-7.4269,-4.8430,9.287
5.548000,3.4488,-7.0494,-4.6400,9.117
5.548000,3.9895,-6.6710,-4.4293,8.946
5.549000,4.3631,-6.2987,-4.2184,8.747
5.549000,4.5695,-5.9489,-4.0098,8.506
5.550000,4.6446,-5.6545,-3.7583,8.226
5.550000,4.6100,-5.4083,-3.4471,7.898
5.550000,4.4511,-5.2223,-3.1173,7.537
5.551000,4.1468,-5.0646,-2.8190,7.127
5.551000,3.6894,-4.9456,-2.5087,6.661
5.552000,3.1052,-4.8786,-2.1785,6.180
5.552000,2.4516,-4.8460,-1.8083,5.724
5.552000,1.7476,-4.8281,-1.4670,5.340
5.553000,1.0193,-4.8049,-1.1512,5.045
5.553000,0.2740,-4.7896,-0.8577,4.873
5.554000,-0.4699,-4.7566,-0.5542,4.812
5.554000,-1.2338,-4.7069,-0.2569,4.873
5.560000,-2.0057,-4.6567,0.0013,5.070
5.565000,-2.7711,-4.5786,0.1754,5.355
5.570000,-3.5033,-4.5047,0.3181,5.715
5.575000,-4.1738,-4.4141,0.4946,6.095
5.579000,-4.7536,-4.2770,0.6378,6.426
5.588000,-5.2260,-4.0862,0.7862,6.680
5.589000,-5.6148,-3.8705,0.8917,6.878
5.595000,-5.9270,-3.6587,0.9516,7.030
5.599000,-6.1262,-3.4308,0.9705,7.088
5.682000,-6.2344,-3.1647,0.9359,7.054
5.684000,-6.2294,-2.8908,0.8666,6.922
5.684000,-6.0945,-2.6119,0.7237,6.670
5.684000,-5.8487,-2.3330,0.5238,6.319
5.685000,-5.4797,-2.0419,0.3144,5.856
5.685000,-5.0099,-1.7478,0.1191,5.307
5.685000,-4.4700,-1.4530,-0.0767,4.701
5.686000,-3.8913,-1.1508,-0.2570,4.066
5.686000,-3.3050,-0.8466,-0.4362,3.439
5.686000,-2.7224,-0.5111,-0.6219,2.839
5.687000,-2.1353,-0.1298,-0.7780,2.276
5.687000,-1.5531,0.2832,-0.9209,1.828
5.687000,-0.9930,0.6965,-1.0504,1.605
5.687000,-0.4671,1.1096,-1.1164,1.642
5.688000,0.0460,1.5128,-1.1140,1.879
5.688000,0.5442,1.8993,-1.0770,2.250
5.688000,0.9972,2.2555,-0.9761,2.652
5.689000,1.3788,2.5864,-0.7659,3.029
5.694000,1.6837,2.8700,-0.4440,3.357
5.699000,1.9453,3.0798,-0.0398,3.643
5.704000,2.1688,3.2186,0.3814,3.900
5.710000,2.3796,3.2876,0.7639,4.130
5.714000,2.5759,3.3041,1.0811,4.327
5.758000,2.7815,3.2850,1.3017,4.497
5.759000,3.0033,3.2471,1.4451,4.653
5.759000,3.2553,3.1998,1.4998,4.805
5.760000,3.5282,3.0935,1.4970,4.925
5.760000,3.8137,2.9179,1.4324,5.011
5.760000,4.1194,2.6858,1.3323,5.095
5.760000,4.4382,2.4069,1.1919,5.188
5.761000,4.7702,2.1102,0.9924,5.310
5.761000,5.1400,1.8084,0.7575,5.501
5.764000,5.5396,1.4870,0.4569,5.754
5.803000,5.9603,1.1564,0.0981,6.072
5.803000,6.4210,0.8337,-0.2751,6.481
5.804000,6.9357,0.5190,-0.6096,6.982
5.804000,7.4857,0.2273,-0.9027,7.543
5.804000,8.0770,0.0036,-1.2683,8.176
5.804000,8.6837,-0.0942,-1.6989,8.849
5.804000,9.2625,-0.0921,-2.1837,9.517
5.805000,9.8249,0.0223,-2.6571,10.178
5.809000,10.3493,0.2278,-3.0846,10.802
5.815000,10.7953,0.5034,-3.4224,11.336
5.820000,11.1548,0.8249,-3.6343,11.761
5.825000,11.4762,1.1854,-3.6749,12.108
5.831000,11.7739,1.5847,-3.5762,12.407
5.838000,12.0479,2.0224,-3.3650,12.671
5.839000,12.3269,2.4839,-3.0803,12.946
5.844000,12.5931,2.9464,-2.7445,13.221
5.849000,12.8509,3.3811,-2.3988,13.503
5.915000,13.0852,3.7658,-2.0532,13.770
5.916000,13.2765,4.1190,-1.7297,14.008
5.916000,13.4100,4.4288,-1.4335,14.195
5.916000,13.4448,4.6614,-1.1717,14.278
5.917000,13.3614,4.8190,-0.9208,14.234
5.917000,13.1957,4.8898,-0.6662,14.088
5.918000,13.0174,4.8790,-0.4080,13.908
5.918000,12.8461,4.7651,-0.0773,13.702
5.918000,12.7182,4.5438,0.2609,13.508
5.919000,12.6171,4.2698,0.5103,13.330
5.919000,12.5189,4.0537,0.6354,13.174
5.920000,12.3522,3.9839,0.6438,12.995
5.920000,12.1220,4.0894,0.5481,12.805
5.920000,11.8763,4.3464,0.4305,12.654
5.925000,11.6700,4.6325,0.4174,12.563
5.930000,11.5248,4.8306,0.5587,12.509
5.934000,11.5221,4.9357,0.8823,12.566
5.940000,11.6332,5.0002,1.1097,12.711
5.946000,11.7527,5.0479,1.1859,12.846
5.950000,11.8250,5.1362,1.2551,12.953
5.955000,11.8526,5.2937,1.2839,13.044
5.960000,11.8306,5.5273,1.2842,13.121
5.965000,11.7324,5.7456,1.2679,13.125
6.039000,11.5269,5.9243,1.2203,13.018
6.040000,11.2499,6.0969,1.0862,12.842
6.040000,10.9167,6.2656,0.8553,12.616
6.040000,10.5700,6.3777,0.5522,12.357
6.041000,10.2503,6.4358,0.2398,12.106
6.041000,9.9330,6.3871,0.0529,11.809
6.041000,9.5827,6.2391,0.0896,11.435
6.042000,9.2471,6.0247,0.2987,11.041
6.042000,8.9374,5.7563,0.3078,10.635
6.043000,8.6991,5.4579,0.1485,10.271
6.043000,8.4630,5.1035,-0.1115,9.883
6.043000,8.2174,4.7104,-0.4448,9.482
6.044000,7.9594,4.2834,-0.7061,9.066
6.044000,7.6976,3.8594,-0.7475,8.643
6.044000,7.4346,3.4501,-0.6027,8.218
6.046000,7.1827,3.0867,-0.3396,7.825
6.051000,6.9566,2.7617,-0.0025,7.485
6.054000,6.7567,2.4509,0.3334,7.195
6.060000,6.5778,2.1608,0.5910,6.949
6.065000,6.3926,1.8707,0.7647,6.704
6.072000,6.2318,1.5730,0.9883,6.503
6.076000,6.1529,1.3106,1.0776,6.383
6.080000,6.0004,1.0573,1.0807,6.188
6.159000,5.8410,0.8296,1.0817,5.998
6.160000,5.7765,0.6356,1.1130,5.917
6.161000,5.6748,0.4289,1.2579,5.828
6.161000,5.5404,0.2713,1.2482,5.686
6.162000,5.3446,0.1915,1.2211,5.486
6.163000,5.1728,0.1383,1.3299,5.343
6.164000,4.9475,0.0721,1.3464,5.128
6.166000,4.7522,0.0092,1.2780,4.921
6.166000,4.5578,-0.0604,1.2732,4.733
6.167000,4.3287,-0.1560,1.3364,4.533
6.168000,4.0594,-0.2666,1.3247,4.278
6.168000,3.7820,-0.3739,1.2917,4.014
6.169000,3.4390,-0.5070,1.2044,3.679
6.169000,3.1480,-0.6414,1.0676,3.385
6.170000,2.8736,-0.8176,0.9243,3.127
6.170000,2.6444,-1.0114,0.8252,2.949
6.171000,2.5748,-1.1804,0.7205,2.923
6.171000,2.5457,-1.3543,0.7114,2.970
6.176000,2.5373,-1.5056,0.7264,3.039
6.180000,2.5233,-1.6467,0.7081,3.095
6.187000,2.4319,-1.8185,0.6998,3.116
6.190000,2.3135,-2.0717,0.7349,3.191
6.195000,2.1931,-2.3921,0.7990,3.342
6.259000,2.0730,-2.7469,0.8990,3.557
6.260000,1.9557,-3.1314,0.9750,3.819
6.261000,1.8125,-3.5193,0.9941,4.082
6.262000,1.6150,-3.9248,0.9324,4.345
6.262000,1.3823,-4.3532,0.8024,4.637
6.263000,1.1200,-4.8159,0.6382,4.985
6.263000,0.8303,-5.2823,0.4708,5.368
6.264000,0.5279,-5.7326,0.2977,5.765
6.264000,0.2011,-6.1925,0.1330,6.197
6.265000,-0.1381,-6.6197,-0.0500,6.621
6.265000,-0.4676,-7.0157,-0.2970,7.038
6.266000,-0.7899,-7.4218,-0.5677,7.485
6.266000,-1.0956,-7.8063,-0.8405,7.927
6.266000,-1.3895,-8.2042,-1.0989,8.393
6.272000,-1.6644,-8.5827,-1.3362,8.844
6.277000,-1.8988,-8.9457,-1.5358,9.273
6.280000,-2.0955,-9.2700,-1.7340,9.661
6.285000,-2.2617,-9.5240,-1.9503,9.981
6.290000,-2.4433,-9.7287,-2.1223,10.253
6.295000,-2.6523,-9.8890,-2.2123,10.475
6.340000,-2.8698,-10.0175,-2.1921,10.648
6.341000,-3.0767,-10.1263,-2.1099,10.792
6.341000,-3.2254,-10.2211,-1.9283,10.890
6.341000,-3.3136,-10.2804,-1.6934,10.933
6.342000,-3.3867,-10.2997,-1.4798,10.943
6.342000,-3.4447,-10.3327,-1.2904,10.968
6.343000,-3.5122,-10.3899,-1.1028,11.023
6.343000,-3.5677,-10.4718,-0.9265,11.102
6.343000,-3.5303,-10.5732,-0.8017,11.176
6.345000,-3.6303,-10.6725,-0.7200,11.296
6.351000,-3.6431,-10.7337,-0.6950,11.356
6.356000,-3.6410,-10.7715,-0.6971,11.392
6.360000,-3.6131,-10.7994,-0.6863,11.408
6.365000,-3.5238,-10.8013,-0.7292,11.385
6.370000,-3.3882,-10.7825,-0.8269,11.332
6.375000,-3.2067,-10.7576,-0.9020,11.262
6.380000,-2.9964,-10.7393,-0.9901,11.193
6.386000,-2.7674,-10.7154,-1.1333,11.125
6.392000,-2.4987,-10.7035,-1.2471,11.062
6.395000,-2.2094,-10.7256,-1.3384,11.032
6.458000,-1.9499,-10.8014,-1.3882,11.063
6.458000,-1.7035,-10.8978,-1.3844,11.117
6.459000,-1.5084,-11.0201,-1.3864,11.209
6.459000,-1.4100,-11.1543,-1.4472,11.336
6.460000,-1.3747,-11.2909,-1.5882,11.485
6.460000,-1.3926,-11.4249,-1.7596,11.643
6.461000,-1.4636,-11.5944,-1.9543,11.849
6.461000,-1.5874,-11.7967,-2.1467,12.095
6.461000,-1.7207,-12.0669,-2.3591,12.415
6.462000,-1.8895,-12.3969,-2.6017,12.807
6.462000,-2.0865,-12.7403,-2.8562,13.222
6.463000,-2.2638,-13.0506,-3.1280,13.610
6.463000,-2.4163,-13.2958,-3.3817,13.930
6.466000,-2.5655,-13.4635,-3.5776,14.165
6.470000,-2.6823,-13.5920,-3.7161,14.344
6.475000,-2.7880,-13.7024,-3.7954,14.489
6.481000,-2.8585,-13.8017,-3.8259,14.605
6.486000,-2.8837,-13.9088,-3.8581,14.719
6.490000,-2.8613,-13.9849,-3.9069,14.800
6.496000,-2.7740,-13.9947,-3.9894,14.814
6.556000,-2.6290,-13.8997,-4.1437,14.741
6.557000,-2.3997,-13.6760,-4.3265,14.543
6.558000,-2.1078,-13.3337,-4.5133,14.234
6.558000,-1.7795,-12.8822,-4.6870,13.823
6.558000,-1.4623,-12.3262,-4.8231,13.317
6.559000,-1.1370,-11.6901,-4.8922,12.723
6.559000,-0.8250,-11.0231,-4.8943,12.089
6.560000,-0.5308,-10.3907,-4.8005,11.458
6.560000,-0.2351,-9.7954,-4.6346,10.839
6.561000,0.0362,-9.2517,-4.4091,10.249
6.561000,0.3143,-8.7741,-4.1480,9.710
6.561000,0.5657,-8.3223,-3.8681,9.195
6.562000,0.7929,-7.9141,-3.5648,8.716
6.566000,0.9841,-7.5329,-3.2934,8.280
6.571000,1.1201,-7.1929,-3.0536,7.894
6.576000,1.2055,-6.8866,-2.8382,7.545
6.581000,1.2380,-6.6395,-2.6470,7.254
6.586000,1.2222,-6.4495,-2.4344,7.001
6.591000,1.1414,-6.3381,-2.2101,6.809
6.596000,0.9982,-6.3015,-1.9719,6.678
6.659000,0.7950,-6.3126,-1.7512,6.599
6.660000,0.5632,-6.3648,-1.5459,6.574
6.660000,0.3363,-6.4578,-1.3558,6.607
6.660000,0.0930,-6.5741,-1.1998,6.683
6.661000,-0.1094,-6.6773,-1.0609,6.762
6.661000,-0.2442,-6.7445,-0.9221,6.812
6.661000,-0.3117,-6.7580,-0.7764,6.810
6.662000,-0.3355,-6.7241,-0.6287,6.762
6.662000,-0.3418,-6.6286,-0.4623,6.653
6.663000,-0.3641,-6.4958,-0.2820,6.512
6.663000,-0.4115,-6.3320,-0.0760,6.346
6.663000,-0.4916,-6.1488,0.1437,6.170
6.664000,-0.5872,-5.9407,0.3507,5.980
6.669000,-0.6718,-5.7053,0.5567,5.772
6.671000,-0.7356,-5.4161,0.7115,5.512
6.677000,-0.7639,-5.0750,0.8009,5.194
6.681000,-0.7717,-4.6980,0.8489,4.836
6.686000,-0.7464,-4.2725,0.8269,4.415
6.691000,-0.6691,-3.8177,0.7806,3.954
6.697000,-0.5444,-3.3194,0.7148,3.439
6.706000,-0.3485,-2.7851,0.6488,2.881
6.706000,-0.0905,-2.2432,0.5610,2.314
6.712000,0.2450,-1.6695,0.4538,1.747
6.757000,0.6390,-1.0854,0.3297,1.302
6.758000,1.0697,-0.5056,0.2150,1.203
6.759000,1.5101,0.0571,0.1076,1.515
6.759000,1.9557,0.6150,0.0314,2.050
6.760000,2.4094,1.1732,-0.0301,2.680
6.760000,2.8545,1.7079,-0.0459,3.327
6.761000,3.2712,2.2498,0.0082,3.970
6.761000,3.6348,2.7791,0.1179,4.577
6.762000,3.9253,3.2808,0.2709,5.123
6.762000,4.1477,3.7146,0.4525,5.586
6.769000,4.2957,4.0907,0.6693,5.970
6.771000,4.3817,4.3742,0.8729,6.253
6.777000,4.4226,4.6035,1.0221,6.465
6.782000,4.4134,4.7690,1.1190,6.593
6.786000,4.3524,4.8839,1.1854,6.648
6.792000,4.2746,4.9547,1.1877,6.651
6.797000,4.2046,4.9774,1.1616,6.618
6.806000,4.1786,4.9597,1.1190,6.581
6.807000,4.1944,4.8924,1.0478,6.529
6.811000,4.2835,4.7975,0.9597,6.503
6.881000,4.4631,4.6708,0.8114,6.511
6.882000,4.7107,4.5142,0.6036,6.552
6.882000,4.9910,4.3310,0.3513,6.617
6.883000,5.2536,4.1194,0.1124,6.677
6.883000,5.5299,3.9227,-0.1026,6.781
6.883000,5.8228,3.7727,-0.3056,6.945
6.884000,6.1407,3.6977,-0.5078,7.186
6.884000,6.4460,3.6909,-0.7162,7.462
6.884000,6.7817,3.7214,-0.8825,7.786
6.885000,7.1405,3.7677,-0.9899,8.134
6.885000,7.5419,3.8254,-1.0192,8.518
6.886000,7.9895,3.9035,-1.0394,8.953
6.886000,8.4336,4.0288,-1.0481,9.405
6.886000,8.8686,4.1936,-1.0070,9.862
6.887000,9.2774,4.3787,-0.8898,10.297
6.892000,9.6478,4.5742,-0.7326,10.702
6.897000,9.9654,4.7561,-0.5503,11.056
6.901000,10.2552,4.9237,-0.3503,11.381
6.908000,10.5174,5.0602,-0.1448,11.672
6.912000,10.7350,5.1893,0.0414,11.924
6.919000,10.9367,5.3014,0.1868,12.155
6.922000,11.1273,5.4012,0.2790,12.372
6.926000,11.3061,5.4885,0.3229,12.572
6.931000,11.4947,5.5442,0.3041,12.766
6.994000,11.6956,5.5614,0.2297,12.953
6.994000,11.9038,5.5784,0.0955,13.146
6.995000,12.1146,5.5979,-0.0937,13.346
6.995000,12.3249,5.6197,-0.2918,13.549
6.996000,12.5394,5.6393,-0.4794,13.757
6.996000,12.7100,5.6352,-0.6132,13.917
6.997000,12.8245,5.6193,-0.6861,14.018
6.997000,12.8352,5.5940,-0.7052,14.019
6.997000,12.7686,5.5616,-0.6566,13.943
6.998000,12.6535,5.5340,-0.5716,13.823
6.998000,12.5142,5.4681,-0.4915,13.666
6.998000,12.3941,5.3663,-0.4284,13.513
6.999000,12.3556,5.2191,-0.3561,13.417
7.005000,12.4203,4.9835,-0.2581,13.385
7.007000,12.5210,4.6428,-0.1796,13.355
7.011000,12.5453,4.2114,-0.1970,13.235
7.022000,12.4862,3.8428,-0.4293,13.071
7.023000,12.2935,3.6760,-0.8870,12.862
7.026000,11.9651,3.7257,-1.4248,12.612
7.031000,11.5470,3.9067,-1.9336,12.342
7.085000,11.1352,4.0851,-2.2474,12.072
7.086000,10.7830,4.1562,-2.3283,11.788
7.086000,10.5626,4.0841,-2.1915,11.535
7.086000,10.4140,3.9642,-1.9861,11.319
7.087000,10.2949,3.9231,-1.7085,11.149
7.087000,10.2284,4.0392,-1.5118,11.101
7.087000,10.1042,4.2761,-1.3145,11.050
7.088000,9.9937,4.5568,-1.0425,11.033
7.088000,9.8801,4.8114,-0.7466,11.015
7.088000,9.6964,4.9822,-0.5852,10.917
7.089000,9.4845,5.0695,-0.5013,10.766
7.092000,9.3279,5.0994,-0.2343,10.633
7.097000,9.1188,5.0237,0.0357,10.411
7.102000,8.8885,4.8925,0.2458,10.149
7.107000,8.7014,4.6980,0.5487,9.904
7.112000,8.5305,4.4550,0.8444,9.661
7.119000,8.3871,4.1416,1.0227,9.410
7.122000,8.2380,3.8198,1.0906,9.146
7.127000,8.1189,3.4968,1.0941,8.907
7.133000,8.0249,3.1678,1.0548,8.692
7.195000,7.8936,2.8182,0.9326,8.433
7.196000,7.7742,2.4442,0.9116,8.200
7.196000,7.6402,2.0792,0.8363,7.962
7.198000,7.5300,1.7303,0.7019,7.758
7.199000,7.4700,1.3975,0.5541,7.620
7.201000,7.3899,1.0395,0.4653,7.477
7.202000,7.3197,0.6718,0.4856,7.366
7.204000,7.2637,0.3440,0.3277,7.279
7.205000,7.1789,0.0225,0.1238,7.180
7.206000,7.1518,-0.2997,-0.0643,7.158
7.207000,7.0699,-0.6466,-0.2076,7.102
7.208000,6.9755,-0.9854,-0.2697,7.050
7.208000,6.8364,-1.2983,-0.3131,6.966
7.210000,6.6380,-1.5597,-0.3118,6.826
7.211000,6.4429,-1.7530,-0.3266,6.685
7.214000,6.1939,-1.9023,-0.4581,6.496
7.218000,5.9599,-2.0204,-0.4808,6.311
7.223000,5.7011,-2.1204,-0.5120,6.104
7.227000,5.4124,-2.2391,-0.5324,5.881
7.233000,5.1277,-2.3451,-0.5401,5.664
7.238000,4.8330,-2.4650,-0.5095,5.449
7.242000,4.5330,-2.5822,-0.4284,5.234
7.247000,4.1578,-2.7073,-0.3084,4.971
7.306000,3.7711,-2.8166,-0.2711,4.715
7.307000,3.3845,-2.9562,-0.1706,4.497
7.307000,3.0367,-3.1162,-0.0193,4.351
7.308000,2.7090,-3.2774,0.1367,4.254
7.308000,2.3938,-3.4477,0.2259,4.203
7.309000,2.0752,-3.6467,0.2251,4.202
7.309000,1.7555,-3.8843,0.1825,4.266
7.309000,1.4370,-4.1410,0.2014,4.388
7.310000,1.1341,-4.3807,0.2391,4.531
7.310000,0.8133,-4.6210,0.2477,4.699
7.310000,0.5063,-4.8520,0.2419,4.884
7.311000,0.1819,-5.1226,0.2623,5.133
7.313000,-0.1359,-5.3795,0.1938,5.385
7.319000,-0.4325,-5.6343,0.0606,5.651
7.323000,-0.7200,-5.9294,-0.0560,5.973
7.327000,-0.9910,-6.2344,-0.1566,6.315
7.336000,-1.2118,-6.5152,-0.2746,6.633
7.338000,-1.3899,-6.7778,-0.4198,6.932
7.343000,-1.5539,-7.0194,-0.5753,7.212
7.347000,-1.6920,-7.2615,-0.7084,7.490
7.411000,-1.8210,-7.5046,-0.8311,7.767
7.411000,-1.9550,-7.7417,-0.8887,8.034
7.412000,-2.1183,-7.9832,-0.9028,8.309
7.412000,-2.2796,-8.2263,-0.9053,8.584
7.413000,-2.4294,-8.4804,-0.8340,8.861
7.413000,-2.5967,-8.7978,-0.7632,9.205
7.413000,-2.7598,-9.1026,-0.6834,9.536
7.413000,-2.8976,-9.4114,-0.6519,9.869
7.414000,-3.0246,-9.7201,-0.6329,10.199
7.414000,-3.1385,-10.0328,-0.6048,10.530
7.415000,-3.2350,-10.3565,-0.6461,10.869
7.415000,-3.3336,-10.6458,-0.7493,11.181
7.416000,-3.4183,-10.8916,-0.8890,11.450
7.420000,-3.4871,-11.1112,-0.9310,11.683
7.423000,-3.5261,-11.2902,-0.9011,11.862
7.428000,-3.5596,-11.4360,-0.8517,12.007
7.434000,-3.5545,-11.5638,-0.8135,12.125
7.438000,-3.5186,-11.6674,-0.8146,12.214
7.443000,-3.4547,-11.7547,-0.8353,12.280
7.447000,-3.3823,-11.8451,-0.8607,12.349
7.453000,-3.3211,-11.9243,-0.8904,12.410
7.458000,-3.3167,-11.9998,-0.8997,12.482
7.464000,-3.3359,-12.0719,-0.8551,12.553
7.470000,-3.3649,-12.1234,-0.7726,12.605
7.474000,-3.4301,-12.1836,-0.6831,12.676
7.486000,-3.4838,-12.2406,-0.6106,12.741
7.486000,-3.5500,-12.2853,-0.6026,12.802
7.532000,-3.6337,-12.3224,-0.6565,12.864
7.533000,-3.6921,-12.3395,-0.7554,12.902
7.534000,-3.7396,-12.3729,-0.8416,12.953
7.534000,-3.7762,-12.4177,-0.9512,13.014
7.535000,-3.8019,-12.4712,-1.1228,13.086
7.535000,-3.7687,-12.5140,-1.3564,13.139
7.535000,-3.6671,-12.5479,-1.6143,13.172
7.536000,-3.4946,-12.6110,-1.8756,13.220
7.536000,-3.2461,-12.7128,-2.1406,13.294
7.536000,-2.9455,-12.8506,-2.3738,13.396
7.537000,-2.9609,-13.0364,-2.5543,13.610
7.545000,-2.2441,-13.2195,-2.6825,13.674
7.550000,-1.8931,-13.3598,-2.7788,13.776
7.554000,-1.5461,-13.3738,-2.9293,13.778
7.559000,-1.2338,-13.2594,-3.1057,13.674
7.564000,-1.0205,-13.0081,-3.2482,13.446
7.569000,-0.9057,-12.6921,-3.2877,13.142
7.574000,-0.8529,-12.4083,-3.2158,12.847
7.579000,-0.8687,-12.2119,-3.0734,12.623
7.641000,-0.9075,-12.1030,-2.9618,12.493
7.642000,-0.9810,-12.0027,-2.9457,12.398
7.643000,-1.0702,-11.8312,-3.0724,12.270
7.643000,-1.1651,-11.5897,-3.3395,12.117
7.644000,-1.2566,-11.2798,-3.6769,11.930
7.644000,-1.3135,-10.9705,-3.9931,11.748
7.644000,-1.3096,-10.6784,-4.2834,11.580
7.645000,-1.2639,-10.4009,-4.5691,11.430
7.645000,-1.1598,-10.1516,-4.8331,11.303
7.646000,-0.9731,-9.9151,-5.0373,11.164
7.646000,-0.7157,-9.6742,-5.1507,10.983
7.647000,-0.3874,-9.4391,-5.1524,10.761
7.647000,-0.0215,-9.1914,-5.0119,10.469
7.648000,0.3369,-8.9026,-4.7396,10.091
7.654000,0.6474,-8.5875,-4.3676,9.656
7.657000,0.8482,-8.2582,-3.9732,9.203
7.664000,0.9514,-7.9345,-3.5974,8.764
7.669000,0.9739,-7.6118,-3.2240,8.324
7.673000,0.9039,-7.3189,-2.8629,7.911
7.679000,0.7250,-7.0454,-2.5380,7.524
7.732000,0.4872,-6.8043,-2.2346,7.178
7.733000,0.1976,-6.5608,-1.9231,6.840
7.733000,-0.1247,-6.3221,-1.5694,6.515
7.734000,-0.4177,-6.0904,-1.2063,6.223
7.734000,-0.7100,-5.8694,-0.8594,5.974
7.735000,-1.0237,-5.6871,-0.5137,5.801
7.735000,-1.3251,-5.5158,-0.1637,5.675
7.736000,-1.6312,-5.3578,0.1627,5.603
7.736000,-1.9325,-5.2078,0.4565,5.574
7.736000,-2.2121,-5.0297,0.7160,5.541
7.737000,-2.4317,-4.8584,0.9462,5.515
7.739000,-2.5940,-4.6787,1.1334,5.468
7.743000,-2.6988,-4.4538,1.2753,5.362
7.749000,-2.7414,-4.2126,1.3479,5.204
7.753000,-2.7502,-3.9599,1.3847,5.016
7.758000,-2.7272,-3.7307,1.3712,4.820
7.764000,-2.6153,-3.5074,1.3240,4.571
7.769000,-2.4142,-3.2561,1.2476,4.241
7.773000,-2.0855,-2.9624,1.1249,3.793
7.778000,-1.6699,-2.6175,0.9751,3.254
7.834000,-1.1888,-2.2592,0.8148,2.680
7.835000,-0.6862,-1.8734,0.6437,2.096
7.836000,-0.1835,-1.4789,0.4907,1.569
7.836000,0.3094,-1.0619,0.4201,1.183
7.836000,0.7637,-0.6494,0.3480,1.061
7.837000,1.1603,-0.2199,0.2933,1.217
7.837000,1.5112,0.2126,0.2851,1.553
7.838000,1.8322,0.6485,0.3444,1.974
7.838000,2.1378,1.0430,0.4857,2.428
7.838000,2.3920,1.4174,0.6919,2.865
7.839000,2.6019,1.7549,0.9532,3.280
7.839000,2.7868,2.0726,1.2575,3.694
7.844000,2.9623,2.3831,1.5490,4.105
7.850000,3.1264,2.6895,1.8229,4.509
7.853000,3.2859,2.9702,2.1342,4.917
7.859000,3.4310,3.2368,2.4395,5.310
7.865000,3.5523,3.4466,2.7479,5.661
7.870000,3.6822,3.6174,3.0708,6.006
7.874000,3.8043,3.7332,3.3765,6.310
7.879000,3.9545,3.7914,3.6500,6.583
7.888000,4.1303,3.8089,3.8691,6.822
7.890000,4.3054,3.7881,3.9762,6.978
7.897000,4.5041,3.7009,3.9520,7.043
7.903000,4.7277,3.5729,3.7995,7.039
7.904000,4.9714,3.4070,3.5431,6.991
7.950000,5.2163,3.2038,3.2000,6.907
7.952000,5.4647,2.9682,2.8280,6.832
7.953000,5.7650,2.7178,2.4417,6.825
7.954000,6.1115,2.4760,2.0203,6.897
7.955000,6.4925,2.2387,1.5476,7.040
7.955000,6.8480,2.0324,1.0245,7.216
7.956000,7.1586,1.8361,0.4927,7.407
7.956000,7.4107,1.6863,0.0129,7.600
7.957000,7.6271,1.6091,-0.3949,7.805
7.957000,7.8304,1.5670,-0.7328,8.019
7.960000,8.0493,1.5817,-1.0342,8.268
7.964000,8.2865,1.6558,-1.3133,8.552
7.969000,8.5640,1.7755,-1.5338,8.880
7.975000,8.8760,1.9595,-1.6857,9.245
7.980000,9.1845,2.2105,-1.7664,9.610
7.987000,9.4584,2.5284,-1.7447,9.945
7.989000,9.7167,2.8893,-1.6422,10.269
7.995000,9.9710,3.2783,-1.4137,10.591
8.000000,10.2429,3.6715,-1.0841,10.935
8.063000,10.4738,4.0486,-0.7307,11.253
8.065000,10.6422,4.3904,-0.3828,11.519
8.066000,10.7837,4.7062,-0.0026,11.766
8.067000,10.8334,4.9789,0.3804,11.929
8.068000,10.9710,5.1870,0.7298,12.157
8.070000,11.0400,5.3227,1.0450,12.301
8.071000,11.1053,5.3815,1.3423,12.413
8.072000,11.1979,5.3825,1.6476,12.533
8.073000,11.3704,5.3542,1.9078,12.712
8.075000,11.5964,5.2800,2.1056,12.915
8.076000,11.8590,5.1526,2.2051,13.117
8.077000,12.1361,5.0174,2.2015,13.316
8.078000,12.3892,4.8912,2.0837,13.482
8.080000,12.5392,4.8053,1.9003,13.562
8.080000,12.6025,4.8005,1.6688,13.589
8.082000,12.5721,4.8600,1.4425,13.556
8.086000,12.5150,4.9360,1.3098,13.517
8.090000,12.4984,5.0022,1.2396,13.519
8.095000,12.5341,5.0608,1.1928,13.570
8.101000,12.6171,5.1260,1.1119,13.664
8.105000,12.6895,5.2166,0.9492,13.753
8.110000,12.7247,5.3589,0.6697,13.823
8.116000,12.6696,5.5601,0.2934,13.839
8.126000,12.5049,5.8130,-0.1066,13.790
8.127000,12.2142,6.0652,-0.4697,13.645
8.130000,11.8432,6.2809,-0.7190,13.425
8.181000,11.3994,6.4003,-0.8357,13.100
8.181000,10.9223,6.4428,-0.8708,12.711
8.182000,10.4409,6.3965,-0.8559,12.274
8.182000,9.9628,6.2781,-0.8154,11.804
8.183000,9.5008,6.1214,-0.7401,11.326
8.183000,9.0715,5.9044,-0.6617,10.844
8.183000,8.6906,5.6447,-0.6117,10.381
8.184000,8.3820,5.3516,-0.5877,9.962
8.184000,8.1482,5.0300,-0.5946,9.594
8.184000,7.9414,4.6704,-0.6395,9.235
8.185000,7.7596,4.3113,-0.6910,8.904
8.190000,7.6074,3.9597,-0.7536,8.609
8.194000,7.4837,3.5997,-0.7991,8.343
8.200000,7.4166,3.2164,-0.7963,8.123
8.204000,7.3895,2.8241,-0.7480,7.946
8.209000,7.3447,2.4034,-0.6376,7.754
8.214000,7.2911,1.9753,-0.4364,7.567
8.219000,7.1940,1.5428,-0.2264,7.361
8.225000,7.0341,1.1532,-0.0534,7.128
8.229000,6.8500,0.7901,0.0876,6.896
8.236000,6.6611,0.4940,0.1987,6.682
8.239000,6.4772,0.2482,0.2633,6.487
8.244000,6.2956,-0.0005,0.2501,6.301
8.314000,6.1293,-0.1936,0.2020,6.136
8.314000,5.9348,-0.3317,0.0595,5.944
8.315000,5.7169,-0.4077,-0.1242,5.733
8.315000,5.5140,-0.4669,-0.1888,5.537
8.316000,5.3087,-0.5175,-0.1369,5.336
8.316000,5.0712,-0.5249,-0.0176,5.098
8.316000,4.8201,-0.4758,0.0710,4.844
8.317000,4.6056,-0.3776,0.1645,4.624
8.317000,4.3032,-0.3024,0.1839,4.318
8.317000,3.9442,-0.2644,0.1941,3.958
8.318000,3.5882,-0.2619,0.2426,3.606
8.318000,3.2436,-0.2719,0.3054,3.269
8.319000,2.9243,-0.2974,0.3515,2.960
8.319000,2.5754,-0.3217,0.3141,2.614
8.324000,2.1898,-0.3567,0.2870,2.237
8.325000,1.8653,-0.3861,0.2918,1.927
8.331000,1.5600,-0.4396,0.3259,1.653
8.336000,1.2351,-0.5321,0.3539,1.391
8.340000,0.9194,-0.6683,0.3881,1.201
8.344000,0.5962,-0.8430,0.3885,1.103
8.399000,0.3088,-1.0343,0.3913,1.148
8.400000,0.0378,-1.2166,0.3486,1.266
8.400000,-0.2350,-1.4212,0.3038,1.472
8.401000,-0.4621,-1.6536,0.2834,1.740
8.401000,-0.6913,-1.9136,0.3257,2.061
8.401000,-0.8938,-2.2203,0.3776,2.423
8.402000,-1.0817,-2.5431,0.3672,2.788
8.402000,-1.2135,-2.8511,0.3038,3.113
8.402000,-1.3062,-3.1569,0.1946,3.422
8.402000,-1.3719,-3.4628,0.0180,3.725
8.402000,-1.4032,-3.7734,-0.1829,4.030
8.406000,-1.4436,-4.0964,-0.3769,4.360
8.410000,-1.4588,-4.3937,-0.5690,4.664
8.414000,-1.4373,-4.7115,-0.7259,4.979
8.423000,-1.3909,-5.0232,-0.8478,5.281
8.425000,-1.3318,-5.3287,-0.9086,5.567
8.430000,-1.2527,-5.6568,-0.8991,5.863
8.437000,-1.1802,-6.0109,-0.8339,6.182
8.441000,-1.1332,-6.4009,-0.7367,6.542
8.445000,-1.1046,-6.8230,-0.6247,6.940
8.450000,-1.1064,-7.2529,-0.5025,7.354
8.507000,-1.1172,-7.6927,-0.3867,7.783
8.508000,-1.1109,-8.1574,-0.3057,8.238
8.508000,-1.1544,-8.6375,-0.2611,8.718
8.509000,-1.2576,-9.1020,-0.2381,9.192
8.509000,-1.2579,-9.5529,-0.2222,9.638
8.509000,-1.5361,-9.9677,-0.1793,10.087
8.510000,-1.6375,-10.3281,-0.1165,10.458
8.510000,-1.7206,-10.6872,-0.0595,10.825
8.510000,-1.8024,-11.0074,-0.0060,11.154
8.511000,-1.9190,-11.2981,-0.0180,11.460
8.511000,-2.0703,-11.5396,-0.0814,11.724
8.512000,-2.2400,-11.7244,-0.1934,11.938
8.516000,-2.3994,-11.8360,-0.3496,12.082
8.521000,-2.5154,-11.8729,-0.4946,12.147
8.527000,-2.5689,-11.8717,-0.6169,12.162
8.533000,-2.5769,-11.8493,-0.7308,12.148
8.541000,-2.5443,-11.8057,-0.8247,12.105
8.542000,-2.4952,-11.7726,-0.8962,12.067
8.546000,-2.4034,-11.7161,-0.9262,11.996
8.614000,-2.2979,-11.6299,-0.9360,11.892
8.617000,-2.1858,-11.5456,-0.9328,11.788
8.618000,-2.0768,-11.4779,-0.9454,11.703
8.619000,-2.0235,-11.4515,-0.9855,11.671
8.620000,-1.9854,-11.4514,-1.0528,11.670
8.621000,-1.9648,-11.4684,-1.1259,11.690
8.622000,-1.9212,-11.5382,-1.1853,11.757
8.623000,-1.8738,-11.6537,-1.2694,11.871
8.624000,-1.8488,-11.8289,-1.3446,12.048
8.625000,-1.8319,-12.0636,-1.3942,12.281
8.626000,-1.8112,-12.3335,-1.4565,12.551
8.627000,-1.8035,-12.5762,-1.5555,12.800
8.627000,-1.8301,-12.6866,-1.7484,12.937
8.628000,-1.8959,-12.6529,-2.0158,12.952
8.628000,-2.0438,-12.5159,-2.2858,12.886
8.629000,-2.2378,-12.3691,-2.5204,12.820
8.630000,-2.4225,-12.2650,-2.7319,12.797
8.636000,-2.5978,-12.2223,-2.9425,12.837
8.641000,-2.7515,-12.1884,-3.2003,12.898
8.647000,-2.9026,-12.0963,-3.5463,12.935
8.660000,-3.0725,-11.9026,-3.9875,12.923
8.661000,-3.2778,-11.5979,-4.5021,12.866
8.661000,-3.4682,-11.2105,-5.0352,12.769
8.666000,-3.5813,-10.7949,-5.5579,12.659
8.740000,-3.6074,-10.3892,-5.9867,12.522
8.741000,-3.5082,-10.0143,-6.3124,12.347
8.742000,-3.2572,-9.6381,-6.5496,12.100
8.742000,-2.8495,-9.2654,-6.6676,11.765
8.742000,-2.2922,-8.8638,-6.6168,11.296
8.743000,-1.6856,-8.4418,-6.4146,10.736
8.743000,-1.0824,-7.9913,-6.0638,10.090
8.743000,-0.5686,-7.5556,-5.5913,9.417
8.743000,-0.2063,-7.1855,-5.0977,8.813
8.744000,0.0428,-6.8863,-4.5857,8.273
8.744000,0.1980,-6.6459,-4.0315,7.776
8.744000,0.2597,-6.4739,-3.4955,7.362
8.744000,0.2232,-6.3289,-2.9826,7.000
8.745000,0.1314,-6.1877,-2.5090,6.678
8.745000,0.0274,-6.0305,-2.0408,6.367
8.745000,-0.0770,-5.8431,-1.5414,6.043
8.752000,-0.1845,-5.6066,-1.0560,5.708
8.756000,-0.3429,-5.3640,-0.5936,5.408
8.762000,-0.5720,-5.1669,-0.1434,5.200
8.766000,-0.9053,-5.0218,0.2903,5.111
8.774000,-1.3141,-4.9092,0.6937,5.129
8.776000,-1.7673,-4.8094,1.0437,5.229
8.780000,-2.2767,-4.7140,1.3335,5.402
8.851000,-2.8209,-4.6257,1.5661,5.640
8.852000,-3.3444,-4.4954,1.7248,5.862
8.853000,-3.8567,-4.3415,1.8457,6.093
8.853000,-4.2808,-4.1638,1.9623,6.286
8.854000,-4.6141,-3.9521,2.0453,6.410
8.854000,-4.8608,-3.7152,2.0535,6.453
8.854000,-4.9805,-3.4424,2.0034,6.377
8.855000,-4.9777,-3.1308,1.8827,6.174
8.855000,-4.8787,-2.7859,1.7558,5.886
8.855000,-4.7027,-2.4056,1.6055,5.521
8.856000,-4.4901,-2.0283,1.4479,5.135
8.856000,-4.2508,-1.6678,1.2678,4.739
8.857000,-3.9916,-1.3331,1.0647,4.341
8.857000,-3.6789,-1.0028,0.8527,3.907
8.857000,-3.3127,-0.6462,0.6361,3.435
8.862000,-2.8811,-0.2922,0.3960,2.923
8.867000,-2.4176,0.0882,0.1829,2.426
8.873000,-1.8755,0.4857,0.0306,1.938
8.876000,-1.2933,0.9028,-0.0802,1.579
8.881000,-0.7265,1.3410,-0.1538,1.533
8.887000,-0.1828,1.8095,-0.2024,1.830
8.892000,0.2900,2.3106,-0.2498,2.342
8.896000,0.6713,2.8163,-0.2762,2.908
8.969000,0.9229,3.2839,-0.2361,3.419
8.970000,1.0641,3.6729,-0.1009,3.825
8.970000,1.1475,3.9811,0.1051,4.144
8.971000,1.1763,4.2021,0.3600,4.378
8.971000,1.2139,4.3877,0.6398,4.597
8.972000,1.2608,4.5527,0.9348,4.816
8.972000,1.3575,4.7163,1.2305,5.060
8.973000,1.4846,4.8353,1.5194,5.281
8.973000,1.6706,4.8880,1.8348,5.482
8.973000,1.9325,4.8652,2.1545,5.661
8.974000,2.1897,4.7464,2.4521,5.774
8.974000,2.4475,4.5344,2.6841,5.810
8.974000,2.7200,4.2268,2.8456,5.776
8.975000,3.0287,3.8334,2.8886,5.676
8.975000,3.3454,3.3429,2.8131,5.503
8.977000,3.6504,2.7790,2.6292,5.288
8.982000,3.9732,2.1952,2.3373,5.106
8.988000,4.3211,1.6255,1.9400,5.008
8.992000,4.6727,1.0702,1.4596,5.011
8.997000,5.0213,0.5133,0.9447,5.135
9.004000,5.3997,-0.0115,0.4444,5.418
9.008000,5.8229,-0.4701,-0.0815,5.842
9.011000,6.3053,-0.8262,-0.6278,6.390
9.092000,6.8350,-1.0293,-1.2153,7.018
9.093000,7.3567,-1.1031,-1.8619,7.668
9.093000,7.8587,-1.0397,-2.5212,8.318
9.094000,8.3709,-0.8488,-3.1388,8.980
9.094000,8.8481,-0.5371,-3.6448,9.584
9.095000,9.2829,-0.1212,-3.9931,10.106
9.095000,9.6660,0.3654,-4.1840,10.539
9.095000,9.9663,0.8797,-4.1941,10.849
9.096000,10.1781,1.4038,-4.0190,11.033
9.096000,10.2992,1.8775,-3.6528,11.088
9.097000,10.3487,2.2860,-3.1733,11.063
9.097000,10.3626,2.6216,-2.6703,11.018
9.097000,10.3479,2.9031,-2.2045,10.971
9.098000,10.3265,3.1233,-1.8312,10.943
9.098000,10.3073,3.3104,-1.5174,10.932
9.098000,10.3167,3.4477,-1.2916,10.954
9.099000,10.3690,3.5284,-1.1106,11.009
9.103000,10.4473,3.5382,-0.9407,11.070
9.106000,10.5231,3.4871,-0.7362,11.110
9.112000,10.6125,3.3889,-0.4687,11.150
9.121000,10.6869,3.2462,-0.1887,11.171
9.122000,10.7343,3.0780,0.0795,11.167
9.126000,10.7477,2.9105,0.2855,11.138
9.131000,10.7316,2.8059,0.4244,11.100
9.208000,10.6883,2.7973,0.4797,11.059
9.209000,10.6130,2.8753,0.4899,11.006
9.209000,10.4888,3.0159,0.5009,10.925
9.210000,10.3637,3.1808,0.5341,10.854
9.210000,10.2929,3.3485,0.5844,10.840
9.210000,10.2935,3.5095,0.6540,10.895
9.211000,10.3316,3.6967,0.6777,10.994
9.211000,10.3950,3.9175,0.6199,11.126
9.212000,10.4833,4.1978,0.4974,11.303
9.212000,10.5099,4.5348,0.2941,11.450
9.212000,10.4910,4.9046,0.0747,11.581
9.213000,10.3836,5.2446,-0.1391,11.634
9.213000,10.1831,5.5333,-0.3641,11.595
9.213000,9.8968,5.7543,-0.5715,11.462
9.214000,9.5658,5.8978,-0.7470,11.263
9.214000,9.2193,5.9618,-0.9318,11.018
9.218000,8.8980,5.9677,-1.1689,10.778
9.222000,8.6171,5.9210,-1.4557,10.556
9.228000,8.3955,5.8170,-1.8323,10.377
9.233000,8.1878,5.6608,-2.2022,10.195
9.238000,7.9822,5.4551,-2.5434,9.997
9.243000,7.7858,5.2051,-2.8285,9.783
9.247000,7.6017,4.9662,-3.0314,9.573
9.313000,7.4348,4.7075,-3.1757,9.355
9.314000,7.2876,4.4696,-3.2376,9.142
9.314000,7.1434,4.2380,-3.2291,8.912
9.315000,6.9802,4.0051,-3.0979,8.623
9.315000,6.8110,3.7591,-2.8641,8.290
9.316000,6.6163,3.4901,-2.5257,7.895
9.316000,6.4180,3.2551,-2.1242,7.503
9.316000,6.2160,3.0156,-1.7056,7.116
9.317000,6.0107,2.7690,-1.3092,6.746
9.317000,5.8186,2.5268,-0.9544,6.415
9.318000,5.6313,2.3062,-0.6542,6.120
9.318000,5.4222,2.0974,-0.3989,5.827
9.318000,5.2825,1.9243,-0.1698,5.625
9.319000,5.1260,1.7677,0.0330,5.422
9.330000,4.9907,1.6366,0.1901,5.256
9.330000,4.8417,1.5174,0.3034,5.083
9.333000,4.6690,1.4359,0.3993,4.901
9.345000,4.5298,1.3991,0.5544,4.773
9.347000,4.3357,1.3921,0.7753,4.619
9.348000,4.0938,1.3836,0.9561,4.426
9.390000,3.8421,1.3753,1.0968,4.226
9.391000,3.5507,1.3707,1.2355,4.002
9.392000,3.2144,1.3670,1.3701,3.752
9.392000,2.8596,1.3641,1.4960,3.504
9.392000,2.5176,1.3525,1.5463,3.249
9.393000,2.1642,1.3176,1.5983,2.996
9.393000,1.8746,1.2799,1.6165,2.787
9.393000,1.6170,1.2269,1.6376,2.608
9.394000,1.3770,1.1540,1.6621,2.448
9.398000,1.1471,1.0460,1.7239,2.320
9.402000,0.9522,0.9525,1.7850,2.236
9.408000,0.8133,0.8417,1.8241,2.167
9.412000,0.6777,0.7277,1.8295,2.082
9.421000,0.5189,0.5888,1.8449,2.005
9.426000,0.3373,0.4181,1.8224,1.900
9.427000,0.1563,0.2290,1.7670,1.789
9.432000,-0.0060,-0.0053,1.6762,1.676
9.478000,-0.1645,-0.2900,1.5767,1.612
9.479000,-0.2710,-0.6009,1.4732,1.614
9.479000,-0.3134,-0.9424,1.3156,1.648
9.480000,-0.3255,-1.3034,1.1065,1.740
9.480000,-0.3138,-1.6723,0.9152,1.932
9.480000,-0.3168,-2.0618,0.6892,2.197
9.481000,-0.3390,-2.4502,0.4595,2.516
9.481000,-0.4020,-2.8588,0.2907,2.901
9.481000,-0.5172,-3.3183,0.1464,3.362
9.482000,-0.6370,-3.8292,-0.0170,3.882
9.490000,-0.7268,-4.3937,-0.1353,4.455
9.492000,-0.7653,-4.9833,-0.2138,5.046
9.498000,-0.7908,-5.6025,-0.2718,5.665
9.504000,-0.8081,-6.2247,-0.3021,6.284
9.509000,-0.8486,-6.8456,-0.3166,6.905
9.512000,-0.9046,-7.4820,-0.2607,7.541
9.518000,-1.0145,-8.1271,-0.1609,8.192
9.523000,-1.1350,-8.7825,-0.0299,8.856
9.528000,-1.2471,-9.4091,0.0578,9.492
9.533000,-1.3507,-9.9798,0.1283,10.072
9.540000,-1.4436,-10.4684,0.1453,10.568
9.544000,-1.5329,-10.8607,0.1524,10.969
9.552000,-1.6430,-11.1426,0.1852,11.265
9.553000,-1.7308,-11.3425,0.2558,11.477
9.607000,-1.7657,-11.4457,0.3403,11.586
9.608000,-1.6739,-11.4839,0.4029,11.612
9.609000,-1.4678,-11.4182,0.4374,11.520
9.609000,-1.2246,-11.2813,0.4779,11.358
9.610000,-1.0211,-11.1318,0.5249,11.191
9.610000,-0.8241,-10.9727,0.5784,11.019
9.611000,-0.6193,-10.8045,0.6006,10.839
9.611000,-0.3975,-10.6593,0.5824,10.683
9.611000,-0.1616,-10.5393,0.5298,10.554
9.612000,0.0546,-10.4360,0.4436,10.446
9.612000,0.2175,-10.3812,0.3481,10.389
9.613000,0.3005,-10.3871,0.2323,10.394
9.621000,0.3084,-10.4493,0.0556,10.454
9.625000,0.2647,-10.5192,-0.1188,10.523
9.628000,0.1412,-10.6185,-0.2319,10.622
9.635000,-0.0812,-10.7850,-0.4707,10.796
9.638000,-0.3189,-10.9532,-0.7129,10.981
9.645000,-0.5525,-11.1420,-0.9057,11.192
9.649000,-0.7656,-11.3383,-1.1021,11.417
9.654000,-0.9580,-11.5348,-1.3071,11.648
9.658000,-1.0938,-11.7764,-1.4543,11.916
9.663000,-1.2133,-12.0864,-1.5878,12.251
9.667000,-1.3070,-12.3664,-1.7487,12.558
9.731000,-1.3962,-12.5346,-2.0184,12.773
9.732000,-1.4978,-12.5311,-2.3515,12.838
9.732000,-1.6645,-12.3707,-2.7140,12.774
9.733000,-1.8818,-12.1157,-3.0626,12.638
9.733000,-2.1353,-11.8618,-3.3401,12.507
9.733000,-2.3769,-11.6329,-3.5397,12.390
9.734000,-2.6232,-11.4438,-3.6882,12.306
9.734000,-2.8691,-11.2130,-3.8482,12.197
9.735000,-3.1242,-10.9074,-4.0820,12.058
9.735000,-3.3957,-10.5221,-4.3628,11.886
9.736000,-3.6428,-10.0763,-4.6757,11.690
9.736000,-3.8179,-9.6248,-4.9343,11.470
9.736000,-3.8872,-9.2209,-5.1247,11.243
9.739000,-3.8674,-8.8905,-5.2352,11.018
9.745000,-3.7416,-8.6076,-5.2521,10.755
9.749000,-3.4906,-8.3488,-5.1904,10.432
9.754000,-3.1452,-8.0926,-5.0410,10.040
9.758000,-2.7365,-7.8410,-4.8383,9.611
9.764000,-2.3075,-7.5944,-4.5829,9.165
9.770000,-1.8531,-7.3728,-4.2344,8.702
9.773000,-1.4286,-7.1700,-3.8316,8.254
9.778000,-1.1007,-6.9655,-3.4370,7.845
9.783000,-0.8791,-6.7496,-3.0121,7.443
9.864000,-0.8067,-6.5739,-2.5596,7.101
9.865000,-0.8714,-6.4233,-2.1418,6.827
9.866000,-1.0250,-6.2806,-1.7564,6.602
9.866000,-1.2508,-6.1405,-1.3525,6.411
9.867000,-1.5512,-6.0191,-0.9201,6.284
9.867000,-1.9048,-5.8840,-0.4753,6.203
9.867000,-2.3212,-5.7557,-0.0488,6.206
9.868000,-2.7835,-5.6006,0.3264,6.263
9.868000,-3.2560,-5.4302,0.6367,6.364
9.869000,-3.7337,-5.2581,0.9042,6.512
9.869000,-4.2266,-5.0756,1.1032,6.697
9.869000,-4.7177,-4.8890,1.2245,6.904
9.870000,-5.1758,-4.7050,1.2708,7.109
9.870000,-5.5864,-4.5281,1.2855,7.305
9.870000,-5.9256,-4.3532,1.2350,7.456
9.871000,-6.1810,-4.1555,1.1409,7.535
9.871000,-6.3576,-3.9411,0.9791,7.544
9.874000,-6.4264,-3.6974,0.7614,7.453
9.879000,-6.4017,-3.4389,0.4731,7.282
9.884000,-6.2569,-3.1678,0.1305,7.014
9.888000,-6.0130,-2.8741,-0.2403,6.669
9.894000,-5.6634,-2.5473,-0.6133,6.240
9.899000,-5.2342,-2.2016,-0.9478,5.757
9.905000,-4.7256,-1.8304,-1.2176,5.212
9.908000,-4.1857,-1.4273,-1.3988,4.638
9.912000,-3.5953,-0.9829,-1.4632,4.004
9.992000,-3.0009,-0.5023,-1.5167,3.400
9.993000,-2.5074,-0.0380,-1.6386,2.996
9.993000,-2.0526,0.4315,-1.7620,2.739
9.993000,-1.6367,0.8844,-1.8317,2.611
9.994000,-1.2648,1.3086,-1.8834,2.619
9.994000,-0.9268,1.7093,-1.8954,2.715
9.994000,-0.5858,2.0849,-1.8795,2.867
9.995000,-0.2533,2.4338,-1.8141,3.046
9.995000,0.0583,2.7438,-1.7015,3.229
9.996000,0.3439,3.0387,-1.5722,3.439
9.996000,0.6205,3.3166,-1.3856,3.648
9.996000,0.8818,3.5545,-1.1651,3.843
9.997000,1.1258,3.7625,-0.9083,4.031
9.997000,1.3688,3.9263,-0.5916,4.200
9.997000,1.5988,4.0264,-0.2416,4.339
9.998000,1.7781,4.0469,0.1388,4.422
10.001000,1.9490,4.0132,0.5540,4.496
10.006000,2.1359,3.8948,0.9484,4.542
10.010000,2.3460,3.7254,1.3265,4.598
10.014000,2.5532,3.5124,1.6810,4.656
10.021000,2.7671,3.2391,2.0542,4.730
10.026000,3.0388,2.9372,2.4146,4.867
10.029000,3.3602,2.5772,2.7543,5.052
10.109000,3.7488,2.1236,3.0036,5.252
10.110000,4.2332,1.6031,3.0403,5.453
10.111000,4.8254,1.0493,2.8723,5.713
10.111000,5.4870,0.5129,2.5054,6.054
10.111000,6.1736,0.0198,1.9890,6.486
10.112000,6.8423,-0.3529,1.4273,6.998
10.112000,7.4758,-0.5980,0.8454,7.547
10.113000,8.0617,-0.7010,0.2014,8.095
10.113000,8.5572,-0.6757,-0.4486,8.596
10.113000,8.9852,-0.4891,-1.0174,9.056
10.114000,9.3412,-0.1839,-1.4641,9.457
10.114000,9.6008,0.1942,-1.8005,9.770
10.114000,9.7544,0.6021,-2.0123,9.978
10.115000,9.8483,1.0495,-2.1338,10.131
10.115000,9.8817,1.5336,-2.2013,10.239
10.116000,9.8504,2.0256,-2.2009,10.295
10.116000,9.7376,2.4969,-2.0921,10.268
10.122000,9.6007,2.8731,-1.8779,10.196
10.126000,9.5022,3.1591,-1.5998,10.141
10.131000,9.4663,3.3717,-1.3113,10.134
10.137000,9.5596,3.4818,-1.0822,10.231
10.141000,9.7629,3.5256,-0.9462,10.423
10.144000,10.0280,3.5222,-0.8550,10.663
10.149000,10.2970,3.5052,-0.7171,10.901
10.206000,10.5052,3.4699,-0.5396,11.077
10.207000,10.6162,3.4087,-0.2916,11.154
10.207000,10.6758,3.2836,-0.0188,11.169
10.208000,10.7035,3.1089,0.2806,11.149
10.208000,10.6729,2.8389,0.6538,11.063
10.208000,10.5609,2.5145,0.9874,10.901
10.208000,10.3630,2.2028,1.1544,10.657
10.209000,10.0869,1.9543,1.2031,10.345
10.209000,9.7642,1.8005,1.1293,9.993
10.209000,9.4452,1.7487,0.9765,9.655
10.210000,9.1612,1.7944,0.8147,9.371
10.210000,8.9339,1.8923,0.6421,9.155
10.214000,8.8085,2.0472,0.5068,9.057
10.219000,8.7895,2.2565,0.4709,9.087
10.224000,8.8573,2.5270,0.4836,9.223
10.229000,8.9802,2.8891,0.4918,9.446
10.238000,9.0357,3.3326,0.3805,9.638
10.241000,8.9848,3.8357,0.1930,9.771
10.244000,8.9019,4.3885,-0.0446,9.925
10.249000,8.7581,4.9143,-0.3391,10.048
10.315000,8.5342,5.3727,-0.6519,10.106
10.316000,8.3070,5.7662,-0.9277,10.155
10.316000,8.1336,6.0734,-1.1377,10.214
10.316000,7.9950,6.3109,-1.2725,10.265
10.317000,7.9199,6.4885,-1.4038,10.334
10.317000,7.8960,6.5750,-1.4959,10.383
10.317000,7.8661,6.5918,-1.6209,10.390
10.318000,7.8588,6.5439,-1.7785,10.380
10.318000,7.8520,6.4454,-1.9415,10.342
10.319000,7.8317,6.2822,-2.0859,10.254
10.321000,7.7645,6.0452,-2.2183,10.087
10.322000,7.7207,5.7227,-2.3292,9.889
10.323000,7.7294,5.4037,-2.3686,9.724
10.324000,7.7519,5.0803,-2.3726,9.567
10.325000,7.6885,4.6862,-2.2817,9.289
10.330000,7.6135,4.2644,-2.0379,8.961
10.336000,7.5484,3.8725,-1.6727,8.647
10.339000,7.5101,3.4932,-1.2920,8.383
10.344000,7.4629,3.1428,-0.7655,8.134
10.350000,7.3921,2.8063,-0.1736,7.909
10.354000,7.2389,2.5100,0.1881,7.664
10.359000,7.0151,2.2414,0.4584,7.379
10.364000,6.7330,2.0007,0.8022,7.070
10.438000,6.4094,1.8213,1.0498,6.745
10.439000,6.1137,1.7126,1.0796,6.440
10.441000,5.7874,1.6493,1.0039,6.101
10.442000,5.5378,1.5856,1.0026,5.847
10.444000,5.3385,1.5406,0.9439,5.636
10.444000,5.1342,1.5116,0.8810,5.424
10.446000,4.9216,1.5169,0.7926,5.211
10.447000,4.6302,1.5312,0.7436,4.933
10.450000,4.3579,1.5780,0.8197,4.707
10.451000,4.0854,1.6711,0.8837,4.502
10.454000,3.7841,1.7337,0.9358,4.266
10.456000,3.4349,1.7587,0.9549,3.975
10.457000,3.0494,1.7553,0.9031,3.633
10.458000,2.7009,1.7849,0.7878,3.332
10.460000,2.3675,1.7630,0.7046,3.035
10.461000,2.0828,1.7257,0.7155,2.798
10.461000,1.8014,1.6420,0.7941,2.564
10.466000,1.5660,1.5634,0.9282,2.400
10.467000,1.3682,1.4700,1.0241,2.254
10.467000,1.2146,1.3610,1.1156,2.138
10.473000,1.1362,1.2361,1.1452,2.032
10.476000,1.0518,1.0546,1.1396,1.875
10.480000,0.9441,0.7870,1.1279,1.668
10.491000,0.8000,0.4662,1.1080,1.444
10.493000,0.5977,0.1086,1.0228,1.190
10.494000,0.3496,-0.2638,0.9252,1.024
10.500000,0.1063,-0.6316,0.7961,1.022
10.581000,-0.1512,-1.0181,0.6643,1.225
10.584000,-0.3965,-1.4118,0.5132,1.554
10.586000,-0.5739,-1.8080,0.3432,1.928
10.586000,-0.6764,-2.2313,0.1350,2.335
10.587000,-0.7445,-2.6572,-0.0257,2.760
10.587000,-0.7519,-3.0352,-0.2347,3.136
10.588000,-0.7396,-3.3830,-0.4178,3.488
10.588000,-0.7547,-3.7056,-0.5774,3.826
10.589000,-0.7880,-4.0160,-0.6801,4.149
10.590000,-0.7868,-4.3523,-0.7027,4.478
10.591000,-0.7965,-4.7216,-0.6240,4.829
10.591000,-0.8144,-5.1477,-0.5046,5.236
10.591000,-0.8407,-5.6430,-0.3660,5.717
10.592000,-0.8368,-6.1503,-0.2271,6.211
10.593000,-0.8055,-6.6678,-0.1117,6.717
10.593000,-0.7587,-7.1928,0.0066,7.233
10.594000,-0.7515,-7.7201,0.0851,7.757
10.594000,-0.7961,-8.2479,0.1763,8.288
10.594000,-0.8757,-8.7187,0.2260,8.765
10.600000,-0.9663,-9.1330,0.2410,9.187
10.608000,-1.0993,-9.5289,0.2502,9.595
10.611000,-1.2078,-9.9009,0.2537,9.978
10.614000,-1.3565,-10.2664,0.2325,10.358
10.662000,-1.5149,-10.6110,0.1660,10.720
10.664000,-1.6520,-10.8966,0.0593,11.021
10.665000,-1.7778,-11.1250,-0.0895,11.266
10.666000,-1.8784,-11.2958,-0.2443,11.453
10.667000,-1.9446,-11.4256,-0.3591,11.595
10.667000,-2.0221,-11.5078,-0.4506,11.693
10.668000,-2.1260,-11.5533,-0.5659,11.761
10.669000,-2.2253,-11.5483,-0.6829,11.781
10.670000,-2.2917,-11.4930,-0.7919,11.746
10.670000,-2.3231,-11.4428,-0.9240,11.713
10.670000,-2.2789,-11.4102,-1.0480,11.683
10.678000,-2.2121,-11.4023,-1.1638,11.673
10.680000,-2.1538,-11.3979,-1.3025,11.672
10.731000,-2.0970,-11.3826,-1.4450,11.664
10.733000,-2.0274,-11.3374,-1.5938,11.627
10.734000,-1.9640,-11.2986,-1.7586,11.602
10.735000,-1.9211,-11.2419,-1.9255,11.566
10.736000,-1.8771,-11.1938,-2.0685,11.537
10.737000,-1.8366,-11.1663,-2.2072,11.530
10.737000,-1.7660,-11.1453,-2.3081,11.518
10.738000,-1.7059,-11.2289,-2.3310,11.594
10.738000,-1.6563,-11.3880,-2.3743,11.750
10.739000,-1.6098,-11.5840,-2.4119,11.941
10.739000,-1.5760,-11.6996,-2.4793,12.063
10.740000,-1.5694,-11.6560,-2.6502,12.056
10.746000,-1.6285,-11.4513,-2.8520,11.913
10.751000,-1.7435,-11.1983,-3.0533,11.737
10.756000,-1.9190,-11.0096,-3.2235,11.631
10.760000,-2.0566,-10.8775,-3.3772,11.574
10.765000,-2.1346,-10.8042,-3.5531,11.572
10.770000,-2.1145,-10.7037,-3.8015,11.554
10.775000,-2.0634,-10.5401,-4.0819,11.490
10.780000,-1.9930,-10.3048,-4.4542,11.402
10.855000,-1.9008,-9.9930,-4.9181,11.299
10.856000,-1.7963,-9.6287,-5.3610,11.166
10.856000,-1.6530,-9.2526,-5.7259,11.006
10.856000,-1.4705,-8.8722,-6.0088,10.816
10.857000,-1.2485,-8.5112,-6.2484,10.632
10.857000,-0.9582,-8.1662,-6.4362,10.442
10.858000,-0.6423,-7.8348,-6.5320,10.221
10.858000,-0.3270,-7.5127,-6.5123,9.948
10.858000,-0.0074,-7.2004,-6.3705,9.614
10.859000,0.3286,-6.8718,-6.0876,9.186
10.859000,0.6785,-6.5508,-5.6837,8.699
10.860000,0.9848,-6.2568,-5.2139,8.204
10.860000,1.2499,-5.9665,-4.7384,7.721
10.860000,1.4858,-5.6759,-4.1949,7.213
10.861000,1.6779,-5.3976,-3.6199,6.712
10.861000,1.7689,-5.1458,-3.0755,6.250
10.866000,1.7562,-4.9051,-2.5543,5.802
10.872000,1.6181,-4.6845,-2.0199,5.352
10.875000,1.3450,-4.5056,-1.4528,4.921
10.882000,0.9562,-4.3512,-0.8958,4.544
10.887000,0.4925,-4.2037,-0.4039,4.252
10.892000,-0.0199,-4.0445,0.0259,4.045
10.896000,-0.5476,-3.8917,0.4136,3.952
10.976000,-1.1169,-3.7567,0.7361,3.988
10.977000,-1.6490,-3.6052,0.9702,4.081
10.978000,-2.1747,-3.4434,1.1740,4.238
10.978000,-2.6779,-3.2766,1.3650,4.446
10.979000,-3.1176,-3.0492,1.5360,4.623
10.979000,-3.5154,-2.8211,1.6491,4.800
10.980000,-3.9264,-2.5894,1.7163,5.007
10.980000,-4.2785,-2.3370,1.7353,5.175
10.981000,-4.5476,-2.0634,1.6895,5.272
10.981000,-4.7317,-1.7790,1.6075,5.305
10.981000,-4.8354,-1.5098,1.4819,5.278
10.982000,-4.8228,-1.2081,1.2720,5.132
10.982000,-4.7202,-0.8764,0.9970,4.903
10.982000,-4.5324,-0.5408,0.6806,4.615
10.983000,-4.3293,-0.2316,0.3394,4.349
10.983000,-4.1393,0.0803,0.0041,4.140
10.983000,-3.9430,0.3876,-0.3285,3.976
10.990000,-3.7285,0.7067,-0.6751,3.854
10.991000,-3.5075,1.0333,-0.9975,3.790
10.997000,-3.2664,1.3540,-1.2360,3.746
11.004000,-3.0456,1.6357,-1.4650,3.755
11.006000,-2.8116,1.9262,-1.6631,3.792
11.012000,-2.5070,2.2397,-1.8328,3.829
11.016000,-2.1635,2.5851,-1.9332,3.886
11.097000,-1.7691,2.9602,-2.0337,4.004
11.098000,-1.3610,3.3702,-2.0265,4.161
11.099000,-1.0328,3.7288,-2.0026,4.357
11.099000,-0.7558,4.0455,-1.9192,4.541
11.099000,-0.5133,4.3105,-1.7960,4.698
11.100000,-0.3601,4.5003,-1.6429,4.804
11.100000,-0.2824,4.6595,-1.5101,4.906
11.100000,-0.2535,4.8082,-1.4238,5.021
11.100000,-0.2852,4.8916,-1.3407,5.080
11.101000,-0.3509,4.8984,-1.2056,5.057
11.101000,-0.3810,4.8411,-1.0113,4.960
11.101000,-0.3584,4.7060,-0.7677,4.782
11.102000,-0.2837,4.5308,-0.5010,4.567
11.102000,-0.1444,4.3472,-0.2426,4.356
11.103000,0.0140,4.1147,0.0073,4.115
11.103000,0.2658,3.8694,0.2678,3.888
11.103000,0.5897,3.5828,0.5218,3.668
11.107000,0.9825,3.2351,0.7813,3.470
11.112000,1.4159,2.8291,1.0457,3.332
11.116000,1.8590,2.3627,1.2815,3.268
11.121000,2.2976,1.8719,1.5389,3.339
11.127000,2.7365,1.3544,1.8225,3.556
11.132000,3.1059,0.8146,1.9245,3.744
11.138000,3.4566,0.2937,1.9245,3.967
11.142000,3.8195,-0.1982,1.8255,4.238
11.145000,4.2142,-0.6178,1.6762,4.577
11.151000,4.6260,-0.9148,1.3815,4.914
11.221000,5.0315,-1.1029,0.9782,5.243
11.222000,5.4249,-1.1970,0.5154,5.579
11.222000,5.7946,-1.1703,0.0180,5.912
11.223000,6.1762,-1.0324,-0.3960,6.274
11.223000,6.5480,-0.8145,-0.7002,6.636
11.223000,6.9006,-0.5383,-0.8879,6.978
11.224000,7.2521,-0.2288,-0.9786,7.321
11.224000,7.5976,0.1303,-0.9176,7.654
11.225000,7.9364,0.5337,-0.8131,7.996
11.225000,8.2467,0.9066,-0.6275,8.320
11.225000,8.5117,1.2366,-0.4311,8.612
11.226000,8.7720,1.5428,-0.2890,8.911
11.226000,9.0509,1.8055,-0.2301,9.232
11.226000,9.2934,2.0107,-0.2344,9.511
11.227000,9.5325,2.1395,-0.1126,9.770
11.232000,9.7540,2.1989,0.0488,9.999
11.237000,9.9533,2.2419,0.2593,10.206
11.242000,10.1131,2.2343,0.5895,10.374
11.246000,10.2553,2.2119,1.0553,10.544
11.253000,10.3799,2.2082,1.5077,10.719
11.257000,10.3935,2.1847,1.8798,10.786
11.260000,10.4636,2.1225,2.1192,10.885
11.265000,10.5135,1.9976,2.3453,10.956
11.334000,10.5343,1.7649,2.5865,10.990
11.336000,10.4734,1.5202,2.6677,10.914
11.338000,10.2424,1.3928,2.5398,10.644
11.340000,9.8699,1.4761,2.2354,10.227
11.342000,9.4085,1.7417,1.8850,9.752
11.343000,8.9113,2.0628,1.5800,9.282
11.344000,8.5201,2.3491,1.3585,8.942
11.347000,8.2351,2.5505,1.2533,8.712
11.350000,8.0443,2.6788,1.1469,8.556
11.353000,7.9688,2.8011,0.9920,8.505
11.356000,7.9555,2.9484,0.8966,8.532
11.357000,7.8940,3.1636,0.7749,8.540
11.358000,7.7747,3.4393,0.5795,8.521
11.359000,7.6410,3.7806,0.4875,8.539
11.360000,7.4740,4.0747,0.4362,8.524
11.361000,7.3123,4.2763,0.4197,8.481
11.362000,7.1701,4.3996,0.4998,8.427
11.363000,7.0306,4.4920,0.7332,8.375
11.365000,6.8843,4.5700,0.9246,8.315
11.369000,6.6740,4.6526,0.9850,8.195
11.372000,6.4929,4.6942,1.0197,8.077
11.377000,6.3059,4.7001,1.0257,7.931
11.382000,6.1702,4.6629,1.0149,7.800
11.388000,6.0479,4.5901,0.8936,7.645
11.392000,5.9585,4.5248,0.6856,7.513
11.396000,5.8989,4.4598,0.4397,7.408
11.476000,5.8527,4.3667,0.2187,7.305
11.478000,5.7975,4.2428,0.2413,7.188
11.479000,5.6830,4.1046,0.2441,7.015
11.481000,5.5811,3.9427,0.3323,6.841
11.485000,5.5276,3.7735,0.4788,6.710
11.487000,5.4792,3.6348,0.6042,6.603
11.487000,5.3622,3.5149,0.5459,6.435
11.488000,5.2385,3.3897,0.3382,6.249
11.488000,5.1560,3.2713,0.1757,6.109
11.489000,5.0547,3.0829,0.0799,5.921
11.489000,4.8624,2.8313,0.1948,5.630
11.490000,4.6424,2.6274,0.4145,5.350
11.491000,4.3491,2.4397,0.6480,5.029
11.491000,4.0812,2.3162,0.8923,4.777
11.492000,3.7626,2.2928,0.9000,4.497
11.492000,3.4745,2.2830,0.7891,4.232
11.493000,3.2132,2.2569,0.6342,3.977
11.493000,2.9110,2.2212,0.5646,3.705
11.494000,2.6377,2.2189,0.7736,3.533
11.522000,2.3932,2.2378,0.7942,3.371
11.524000,2.1537,2.2972,0.7345,3.233
11.524000,1.9643,2.3341,0.7738,3.147
11.525000,1.7874,2.3614,0.7207,3.048
11.526000,1.6797,2.3592,0.7883,3.001
11.526000,1.5337,2.3033,0.8040,2.882
11.527000,1.3540,2.2248,0.8523,2.740
11.532000,1.1666,2.1375,0.9214,2.604
11.537000,0.9391,2.0424,1.0974,2.502
11.541000,0.6761,1.9393,1.3894,2.480
11.548000,0.4115,1.8234,1.6871,2.518
11.554000,0.2172,1.7163,1.9520,2.608
11.557000,0.0666,1.5646,2.1075,2.626
11.561000,-0.0471,1.3766,2.1568,2.559
11.566000,-0.1792,1.1350,2.0744,2.371
11.614000,-0.3343,0.8640,1.8943,2.109
11.615000,-0.4478,0.5972,1.6696,1.829
11.617000,-0.5460,0.3205,1.4127,1.548
11.618000,-0.6504,0.0357,1.0974,1.276
11.622000,-0.8081,-0.2959,0.7817,1.163
11.624000,-1.0265,-0.6557,0.5519,1.337
11.625000,-1.2764,-1.0430,0.3792,1.691
11.626000,-1.5434,-1.4359,0.2111,2.119
11.627000,-1.7892,-1.8206,0.1188,2.555
11.627000,-2.0009,-2.1901,0.0133,2.967
11.628000,-2.1909,-2.5404,-0.1367,3.357
11.628000,-2.3829,-2.9096,-0.2905,3.772
11.633000,-2.5577,-3.2947,-0.4339,4.193
11.637000,-2.6889,-3.6858,-0.5720,4.598
11.643000,-2.8366,-4.1003,-0.7073,5.036
11.648000,-3.0097,-4.5236,-0.8616,5.501
11.660000,-3.2083,-4.9155,-1.0204,5.958
11.662000,-3.3871,-5.2990,-1.1216,6.388
11.663000,-3.5818,-5.6646,-1.1563,6.801
11.756000,-3.7878,-6.0170,-1.1511,7.203
11.757000,-3.9929,-6.3783,-1.1329,7.610
11.757000,-4.2019,-6.7488,-1.1118,8.027
11.758000,-4.4029,-7.1278,-1.0569,8.444
11.758000,-4.5936,-7.4789,-1.0452,8.839
11.760000,-4.7909,-7.7806,-1.0336,9.196
11.762000,-4.9541,-8.0143,-1.0224,9.477
11.764000,-5.0931,-8.1900,-1.0212,9.698
11.765000,-5.2224,-8.3313,-1.0156,9.885
11.767000,-5.3206,-8.4258,-0.9792,10.013
11.768000,-5.3521,-8.4665,-0.9027,10.057
11.769000,-5.3338,-8.4538,-0.8268,10.030
11.770000,-5.2588,-8.4232,-0.7413,9.958
11.770000,-5.0559,-8.3400,-0.6483,9.774
11.771000,-4.7348,-8.2718,-0.6049,9.550
11.771000,-4.3868,-8.2336,-0.6156,9.350
11.772000,-4.0215,-8.2426,-0.6443,9.194
11.773000,-3.6799,-8.3087,-0.7116,9.115
11.773000,-3.3813,-8.4224,-0.7407,9.106
11.774000,-3.1161,-8.5765,-0.8559,9.165
11.774000,-2.9084,-8.7587,-1.0370,9.287
11.774000,-2.7079,-8.9493,-1.1596,9.422
11.778000,-2.4647,-9.1314,-1.3189,9.550
11.782000,-2.1979,-9.3240,-1.4690,9.692
11.788000,-1.8765,-9.5007,-1.5574,9.809
11.792000,-1.5076,-9.6521,-1.6058,9.900
11.798000,-1.1035,-9.8027,-1.6164,9.996
11.876000,-0.6783,-9.9575,-1.6084,10.109
11.877000,-0.2464,-10.1123,-1.5725,10.237
11.878000,0.2378,-10.2743,-1.4614,10.380
11.878000,0.7337,-10.4393,-1.3516,10.552
11.879000,1.1695,-10.6316,-1.2553,10.769
11.879000,1.5338,-10.8031,-1.1609,10.973
11.880000,1.8527,-10.8590,-1.0444,11.065
11.880000,2.0954,-10.7996,-0.9946,11.046
11.880000,2.2645,-10.6611,-0.9901,10.944
11.881000,2.3723,-10.5060,-1.0213,10.819
11.881000,2.3900,-10.3862,-1.1071,10.715
11.882000,2.4369,-10.3048,-1.1962,10.656
11.882000,2.5250,-10.2422,-1.2930,10.628
11.883000,2.6254,-10.1483,-1.4212,10.578
11.883000,2.6708,-9.9589,-1.6442,10.441
11.883000,2.6706,-9.6644,-1.9132,10.208
11.884000,2.6773,-9.2477,-2.2278,9.882
11.889000,2.6738,-8.7675,-2.5345,9.510
11.894000,2.6199,-8.2212,-2.8627,9.091
11.899000,2.5708,-7.5729,-3.1985,8.613
11.904000,2.5435,-6.8660,-3.5017,8.116
11.909000,2.5384,-6.1149,-3.7730,7.620
11.913000,2.5815,-5.3524,-4.0393,7.185
11.996000,2.6420,-4.6360,-4.2655,6.831
11.997000,2.7367,-3.9613,-4.3732,6.504
11.998000,2.8656,-3.3290,-4.4590,6.259
11.998000,3.0236,-2.7298,-4.4702,6.048
11.999000,3.2055,-2.1607,-4.4599,5.902
11.999000,3.3680,-1.6266,-4.4355,5.802
11.999000,3.5253,-1.1495,-4.3921,5.748
12.000000,3.6913,-0.7082,-4.3082,5.717
12.000000,3.8346,-0.3055,-4.1839,5.684
12.000000,3.9218,0.0252,-4.0124,5.611
12.001000,3.9551,0.2951,-3.8155,5.503
12.001000,3.9200,0.5210,-3.5506,5.315
12.002000,3.7929,0.6744,-3.2443,5.036
12.002000,3.5595,0.7746,-2.9116,4.663
12.002000,3.2274,0.8245,-2.5551,4.198
12.003000,2.8228,0.7882,-2.1461,3.632
12.011000,2.3843,0.6784,-1.7109,3.012
12.012000,1.9527,0.5222,-1.2971,2.402
12.013000,1.5328,0.3486,-0.9071,1.815
12.014000,1.1057,0.1891,-0.6050,1.274
12.018000,0.6401,0.0514,-0.3544,0.733
12.023000,0.1506,-0.0570,-0.1192,0.200
12.028000,-0.3483,-0.1330,0.0844,0.382
12.033000,-0.8899,-0.1834,0.3045,0.958
12.102000,-1.4500,-0.2054,0.5051,1.549
12.103000,-2.0093,-0.1626,0.6265,2.111
12.104000,-2.5246,-0.0859,0.7263,2.628
12.104000,-2.9959,0.0537,0.7689,3.093
12.105000,-3.4469,0.2229,0.7353,3.532
12.105000,-3.8467,0.4197,0.6522,3.924
12.105000,-4.1929,0.6418,0.5179,4.273
12.106000,-4.5070,0.8680,0.3493,4.603
12.106000,-4.7653,1.0957,0.1584,4.892
12.106000,-4.9460,1.3541,-0.0903,5.129
12.106000,-5.0015,1.6382,-0.3539,5.275
12.107000,-4.9633,1.9379,-0.5913,5.361
12.107000,-4.9106,2.2267,-0.7953,5.450
12.107000,-4.8700,2.4990,-1.0215,5.568
12.108000,-4.8247,2.7455,-1.2551,5.691
12.115000,-4.8345,2.9539,-1.4461,5.847
12.129000,-4.8134,3.1527,-1.5230,5.952
12.130000,-4.7945,3.3492,-1.6155,6.068
12.130000,-4.7853,3.5332,-1.7100,6.189
12.136000,-4.7903,3.7050,-1.8449,6.331
12.185000,-4.7664,3.8571,-1.9057,6.421
12.186000,-4.6897,3.9749,-1.8669,6.425
12.186000,-4.6152,4.0583,-1.8010,6.404
12.186000,-4.5953,4.1386,-1.7445,6.426
12.187000,-4.6106,4.2012,-1.6595,6.455
12.187000,-4.6469,4.2462,-1.5914,6.493
12.187000,-4.6539,4.2690,-1.5567,6.504
12.188000,-4.6507,4.2580,-1.5095,6.484
12.188000,-4.6515,4.1943,-1.3494,6.407
12.188000,-4.6925,4.0609,-1.0574,6.295
12.189000,-4.7255,3.8918,-0.7368,6.166
12.193000,-4.6905,3.6967,-0.4496,5.989
12.198000,-4.5995,3.4998,-0.2439,5.785
12.205000,-4.4259,3.2869,-0.0214,5.513
12.209000,-4.1750,3.0531,0.1413,5.174
12.214000,-3.8851,2.8153,0.2781,4.806
12.289000,-3.6110,2.5327,0.4393,4.433
12.290000,-3.3098,2.2153,0.6008,4.028
12.290000,-3.0122,1.8346,0.7650,3.609
12.290000,-2.6629,1.3934,0.9988,3.167
12.291000,-2.2333,0.9082,1.2443,2.713
12.291000,-1.7497,0.3793,1.4559,2.308
12.291000,-1.2527,-0.1432,1.6268,2.058
12.292000,-0.7641,-0.6904,1.7812,2.057
12.292000,-0.2739,-1.2333,1.8544,2.244
12.293000,0.2269,-1.7748,1.8304,2.560
12.293000,0.7626,-2.2880,1.6931,2.947
12.293000,1.2708,-2.7750,1.4673,3.387
12.294000,1.7829,-3.1780,1.1158,3.811
12.294000,2.2532,-3.5036,0.7144,4.226
12.294000,2.7399,-3.7032,0.2278,4.612
12.295000,3.2181,-3.7558,-0.2753,4.954
12.300000,3.7001,-3.6873,-0.7250,5.274
12.306000,4.2289,-3.5219,-1.0638,5.605
12.308000,4.8067,-3.2719,-1.3156,5.962
12.314000,5.4476,-2.9425,-1.4349,6.356
12.321000,6.0880,-2.5548,-1.3935,6.748
12.325000,6.7298,-2.1405,-1.2085,7.165
12.328000,7.3485,-1.6938,-1.0077,7.608
12.419000,7.9528,-1.2394,-0.8322,8.092
12.420000,8.4807,-0.8207,-0.6921,8.548
12.420000,8.9526,-0.4581,-0.5641,8.982
12.420000,9.3326,-0.2065,-0.4291,9.345
12.421000,9.6280,-0.0467,-0.2755,9.632
12.421000,9.8291,0.0116,-0.0844,9.829
12.421000,9.9146,-0.0168,0.0890,9.915
12.422000,9.8515,-0.1384,0.1882,9.854
12.422000,9.7327,-0.2626,0.4666,9.747
12.422000,9.5423,-0.4032,0.6965,9.576
12.423000,9.2117,-0.5165,0.8897,9.269
12.423000,8.8041,-0.5541,1.0893,8.888
12.423000,8.4109,-0.5440,1.3027,8.529
12.424000,8.0486,-0.4845,1.5533,8.211
12.424000,7.6817,-0.3848,1.8652,7.914
12.424000,7.3271,-0.2400,2.1902,7.651
12.425000,6.9876,-0.0621,2.5782,7.448
12.425000,6.6471,0.1709,3.0215,7.304
12.426000,6.3221,0.4654,3.3559,7.173
12.430000,6.0490,0.8052,3.6369,7.104
12.435000,5.8515,1.2212,3.8955,7.135
12.440000,5.7364,1.7319,4.0930,7.257
12.445000,5.7011,2.3110,4.2390,7.471
12.449000,5.7040,2.9215,4.2801,7.706
12.455000,5.7398,3.5227,4.3315,8.007
12.460000,5.8082,4.0902,4.4693,8.393
12.464000,5.9228,4.6069,4.6379,8.821
12.544000,6.0643,5.0798,4.7624,9.234
12.545000,6.2343,5.4818,4.8511,9.615
12.546000,6.4488,5.8605,4.8944,9.994
12.547000,6.6763,6.1607,4.8825,10.313
12.550000,6.8539,6.3794,4.7673,10.507
12.551000,6.9694,6.5311,4.5532,10.581
12.552000,7.0422,6.6135,4.1975,10.533
12.554000,7.1055,6.5907,3.7606,10.396
12.555000,7.1285,6.4681,3.2744,10.167
12.557000,7.1569,6.2700,2.7611,9.907
12.558000,7.2437,6.0566,2.2433,9.705
12.559000,7.3721,5.8092,1.7481,9.547
12.560000,7.6022,5.5782,1.2785,9.515
12.561000,7.8476,5.3588,0.8159,9.538
12.562000,8.1199,5.1532,0.3894,9.625
12.564000,8.3808,4.9541,0.0496,9.736
12.566000,8.5986,4.7467,-0.2109,9.824
12.568000,8.7234,4.5383,-0.4495,9.844
12.568000,8.7812,4.3353,-0.6113,9.812
12.569000,8.7001,4.1473,-0.7034,9.664
12.570000,8.4948,3.9668,-0.7669,9.407
12.579000,8.1751,3.8057,-0.7443,9.048
12.581000,7.7414,3.6494,-0.7892,8.595
12.657000,7.2568,3.5418,-0.9056,8.126
12.658000,6.6901,3.4395,-0.9755,7.586
12.658000,6.0875,3.3884,-0.9843,7.036
12.659000,5.4899,3.3766,-0.9844,6.520
12.659000,4.8805,3.3608,-0.9564,6.002
12.659000,4.2965,3.3612,-0.9143,5.531
12.660000,3.7568,3.3753,-0.8509,5.122
12.660000,3.2904,3.3792,-0.6108,4.756
12.660000,2.8830,3.3917,-0.3290,4.464
12.661000,2.4628,3.4055,-0.0564,4.203
12.661000,2.0630,3.4007,0.2020,3.983
12.661000,1.6848,3.3880,0.3814,3.803
12.662000,1.2920,3.3406,0.5202,3.619
12.662000,0.9139,3.2662,0.7090,3.465
12.662000,0.5675,3.1957,0.9546,3.383
12.663000,0.2834,3.1262,1.1987,3.360
12.666000,0.0508,3.0466,1.4888,3.391
12.671000,-0.1883,2.9107,1.7095,3.381
12.674000,-0.4552,2.7329,1.7344,3.269
12.679000,-0.6970,2.5134,1.4874,3.003
12.730000,-0.8925,2.2470,1.2084,2.703
12.731000,-1.0574,1.9308,0.9219,2.387
12.731000,-1.2375,1.5834,0.5850,2.093
12.731000,-1.4302,1.2459,0.2798,1.917
12.732000,-1.6209,0.9234,0.0185,1.866
12.732000,-1.8047,0.5802,-0.1440,1.901
12.733000,-2.0106,0.2323,-0.2678,2.042
12.733000,-2.1990,-0.1157,-0.3751,2.234
12.733000,-2.3798,-0.4574,-0.4927,2.473
12.734000,-2.5602,-0.8047,-0.6396,2.759
12.786000,-2.8023,-1.1454,-0.7777,3.126
12.786000,-3.0557,-1.5111,-0.8953,3.525
12.787000,-3.2887,-1.8946,-1.0093,3.927
12.787000,-3.5134,-2.3541,-1.0742,4.363
12.787000,-3.7298,-2.8529,-1.0948,4.822
12.788000,-3.9712,-3.3952,-1.1194,5.343
12.788000,-4.2158,-3.9586,-1.1243,5.891
12.789000,-4.4422,-4.5240,-1.1076,6.436
12.789000,-4.6713,-5.1393,-1.0383,7.022
12.789000,-4.8531,-5.7779,-0.8932,7.598
12.790000,-4.9660,-6.4224,-0.7467,8.153
12.790000,-5.0484,-7.0864,-0.6228,8.723
12.796000,-5.1269,-7.6912,-0.5434,9.259
12.801000,-5.2444,-8.1891,-0.4907,9.737
12.806000,-5.4441,-8.5825,-0.5035,10.176
12.810000,-5.6613,-8.8441,-0.4953,10.513
12.815000,-5.8889,-9.0116,-0.4232,10.773
12.820000,-6.0695,-9.1207,-0.3335,10.961
12.827000,-6.1600,-9.1701,-0.1971,11.049
12.829000,-6.1201,-9.1410,0.0333,11.001
12.914000,-5.9284,-9.0580,0.3168,10.830
12.916000,-5.6043,-8.9406,0.5481,10.566
12.916000,-5.1362,-8.8017,0.7494,10.218
12.916000,-4.5939,-8.6540,0.9158,9.840
12.917000,-3.9729,-8.5176,1.0298,9.455
12.917000,-3.3049,-8.4078,1.0943,9.100
12.917000,-2.6501,-8.3660,1.1970,8.857
12.918000,-1.9732,-8.3500,1.3459,8.685
12.918000,-1.2647,-8.3751,1.5030,8.602
12.918000,-0.5112,-8.4207,1.5669,8.581
12.919000,0.2533,-8.4903,1.5335,8.631
12.919000,1.0333,-8.5537,1.5112,8.747
12.919000,1.7613,-8.6359,1.3828,8.921
12.920000,2.4297,-8.7138,1.2064,9.126
12.920000,3.0384,-8.7976,1.0204,9.363
12.920000,3.5486,-8.9265,0.7920,9.639
12.921000,3.9365,-9.1077,0.5614,9.938
12.921000,4.2070,-9.3580,0.3333,10.266
12.926000,4.3530,-9.6864,0.0981,10.620
12.931000,4.3700,-10.0159,-0.1847,10.929
12.936000,4.2601,-10.2814,-0.5264,11.142
12.940000,4.0164,-10.4201,-0.9555,11.208
12.945000,3.6917,-10.4718,-1.4160,11.193
12.950000,3.3244,-10.4713,-1.8244,11.137
12.955000,2.9987,-10.4323,-2.2428,11.084
12.960000,2.7290,-10.3905,-2.6431,11.063
12.965000,2.5180,-10.3145,-3.0112,11.036
13.040000,2.4066,-10.1516,-3.3764,10.966
13.041000,2.3710,-9.8713,-3.7563,10.825
13.041000,2.3637,-9.4408,-4.1729,10.589
13.042000,2.3392,-8.8960,-4.7055,10.332
13.042000,2.3003,-8.2831,-5.2662,10.081
13.042000,2.2618,-7.6233,-5.8292,9.859
13.043000,2.2741,-6.9406,-6.3688,9.690
13.043000,2.3472,-6.2638,-6.8380,9.566
13.043000,2.4739,-5.6122,-7.2373,9.487
13.044000,2.6516,-5.0084,-7.5576,9.446
13.044000,2.8802,-4.4503,-7.7992,9.430
13.044000,3.1283,-3.9580,-7.9432,9.410
13.045000,3.3072,-3.5296,-7.9685,9.322
13.045000,3.4504,-3.1725,-7.9279,9.210
13.045000,3.5051,-2.9306,-7.7790,9.021
13.045000,3.4427,-2.7392,-7.5671,8.753
13.051000,3.2893,-2.6128,-7.2706,8.397
13.056000,3.0332,-2.5129,-6.8562,7.907
13.062000,2.7341,-2.4280,-6.3481,7.326
13.067000,2.3705,-2.3721,-5.7800,6.682
13.072000,1.9115,-2.3936,-5.1237,5.970
13.078000,1.4072,-2.4776,-4.4771,5.307
13.080000,0.8531,-2.5640,-3.8615,4.713
13.137000,0.2635,-2.6236,-3.2765,4.206
13.138000,-0.3926,-2.6490,-2.7432,3.834
13.138000,-1.1272,-2.6544,-2.2326,3.647
13.139000,-1.8897,-2.6579,-1.7297,3.692
13.139000,-2.6489,-2.6326,-1.2701,3.945
13.140000,-3.4071,-2.6019,-0.8365,4.368
13.140000,-4.1067,-2.5314,-0.4498,4.845
13.140000,-4.7932,-2.4259,-0.1077,5.373
13.140000,-5.4472,-2.2537,0.1733,5.898
13.141000,-6.0493,-2.0455,0.4220,6.400
13.141000,-6.5853,-1.8083,0.6172,6.857
13.141000,-7.0454,-1.5250,0.7660,7.249
13.146000,-7.4272,-1.2169,0.8830,7.578
13.152000,-7.7237,-0.9037,0.9585,7.835
13.156000,-7.9253,-0.5996,1.0215,8.013
13.161000,-8.0442,-0.2880,1.0597,8.119
13.167000,-8.1066,0.0164,1.0632,8.176
13.172000,-8.1100,0.2826,1.0201,8.179
13.181000,-8.0642,0.5531,0.9106,8.134
13.255000,-7.9738,0.8065,0.7634,8.051
13.256000,-7.8149,1.0521,0.5661,7.906
13.256000,-7.5731,1.2827,0.3306,7.688
13.257000,-7.2773,1.5193,0.0733,7.435
13.257000,-6.9681,1.7837,-0.1914,7.195
13.257000,-6.6794,2.0436,-0.4425,6.999
13.258000,-6.4373,2.2968,-0.6704,6.868
13.258000,-6.2227,2.5289,-0.8943,6.776
13.258000,-6.0116,2.7807,-1.0735,6.710
13.259000,-5.7943,3.0594,-1.1794,6.658
13.259000,-5.5879,3.3449,-1.1886,6.620
13.259000,-5.3612,3.6111,-1.1207,6.560
13.260000,-5.0880,3.8409,-0.9856,6.451
13.260000,-4.8043,4.0197,-0.8244,6.318
13.261000,-4.5416,4.1903,-0.6368,6.212
13.261000,-4.3404,4.3240,-0.4300,6.142
13.261000,-4.1919,4.4535,-0.1849,6.119
13.266000,-4.1100,4.5598,0.1435,6.140
13.272000,-4.0851,4.6595,0.5140,6.218
13.276000,-4.0717,4.7119,0.9428,6.298
13.281000,-4.0743,4.6909,1.3623,6.361
13.288000,-4.0789,4.5914,1.7603,6.389
13.290000,-4.0513,4.4164,2.0743,6.342
13.295000,-3.9508,4.1974,2.3018,6.207
13.299000,-3.7822,3.9201,2.4886,5.989
13.373000,-3.5624,3.5535,2.5319,5.633
13.374000,-3.2935,3.0718,2.4251,5.115
13.374000,-2.9975,2.5419,2.1646,4.487
13.374000,-2.6266,2.0046,1.9327,3.828
13.375000,-2.2048,1.4263,1.6405,3.096
13.375000,-1.7251,0.7998,1.2382,2.269
13.375000,-1.1326,0.0655,0.7860,1.380
13.376000,-0.4881,-0.7748,0.2972,0.963
13.376000,0.2467,-1.6462,-0.2918,1.690
13.377000,1.0617,-2.5029,-1.0031,2.898
13.377000,1.9347,-3.3448,-1.6626,4.207
13.377000,2.8609,-4.1210,-2.2960,5.517
13.378000,3.7906,-4.7806,-3.0552,6.823
13.378000,4.6369,-5.2873,-3.8518,8.018
13.378000,5.3791,-5.6328,-4.5502,9.020
13.382000,5.9892,-5.8306,-4.8962,9.687
13.386000,6.4852,-5.9066,-4.9365,10.066
13.391000,6.9190,-5.8459,-4.7158,10.212
13.396000,7.3385,-5.6136,-4.2453,10.168
13.403000,7.8473,-5.2529,-3.7488,10.160
13.406000,8.3862,-4.8300,-3.2301,10.203
13.410000,8.8916,-4.3509,-2.6765,10.254
13.415000,9.4006,-3.8117,-2.0418,10.347
13.493000,9.7583,-3.2603,-1.2553,10.365
13.494000,9.8809,-2.7140,-0.3354,10.252
13.495000,9.8093,-2.2381,0.7345,10.088
13.495000,9.6420,-1.8189,1.7607,9.969
13.495000,9.4748,-1.4685,2.6889,9.958
13.496000,9.2698,-1.1625,3.4139,9.947
13.496000,9.0811,-0.8801,3.9997,9.962
13.496000,8.9139,-0.6255,4.5138,10.011
13.497000,8.7799,-0.4417,4.9657,10.097
13.497000,8.6938,-0.3739,5.3735,10.227
13.497000,8.6441,-0.4097,5.7083,10.367
13.498000,8.5446,-0.4988,5.8325,10.358
13.498000,8.3890,-0.5115,5.7873,10.204
13.498000,8.1653,-0.4523,5.6259,9.926
13.499000,7.8620,-0.3018,5.3398,9.509
13.499000,7.4913,-0.0979,4.9509,8.980
13.506000,7.1450,0.1313,4.5654,8.480
13.507000,6.8566,0.3213,4.2239,8.060
13.511000,6.6458,0.4847,3.9294,7.736
13.516000,6.5007,0.6790,3.6314,7.477
13.521000,6.4022,0.9401,3.3849,7.303
13.527000,6.3622,1.2703,3.1538,7.214
13.531000,6.3726,1.6784,2.8902,7.196
13.626000,6.3444,2.1499,2.6235,7.194
13.627000,6.2629,2.6654,2.3156,7.190
13.627000,6.1375,3.2247,2.0076,7.218
13.627000,6.0396,3.7965,1.8094,7.360
13.628000,5.9806,4.3253,1.6725,7.568
13.628000,5.9601,4.7918,1.5274,7.798
13.629000,5.9443,5.2007,1.4098,8.023
13.629000,5.9664,5.5734,1.3193,8.271
13.629000,6.0116,5.9193,1.2267,8.525
13.630000,6.0700,6.2117,1.1012,8.755
13.630000,6.1051,6.4410,0.9713,8.928
13.630000,6.0905,6.5976,0.8446,9.019
13.631000,6.0264,6.6985,0.7140,9.039
13.631000,6.0040,6.7415,0.5776,9.046
13.631000,5.9609,6.7052,0.4259,8.982
13.632000,5.9359,6.6235,0.2881,8.899
13.632000,5.9790,6.4892,0.1717,8.825
13.633000,6.0330,6.3169,0.0600,8.735
13.633000,6.1073,6.1378,-0.0513,8.659
13.633000,6.1945,5.9755,-0.0591,8.607
13.637000,6.2422,5.8373,-0.1117,8.547
13.641000,6.2884,5.7256,-0.2204,8.507
13.647000,6.3072,5.5997,-0.3204,8.440
13.654000,6.2841,5.4382,-0.3971,8.320
13.656000,6.2337,5.2149,-0.4620,8.140
13.661000,6.1658,4.9562,-0.3621,7.919
13.666000,6.1243,4.6912,-0.1295,7.716
13.736000,6.0592,4.4723,0.0479,7.531
13.737000,5.9850,4.3567,0.1264,7.404
13.738000,5.9589,4.2749,0.2330,7.337
13.738000,5.9564,4.1998,0.3463,7.296
13.739000,5.8801,4.1415,0.3921,7.203
13.739000,5.7680,4.0877,0.3421,7.078
13.740000,5.6180,4.0457,0.3491,6.932
13.740000,5.4780,4.0438,0.4438,6.823
13.740000,5.2685,4.0694,0.6161,6.686
13.741000,5.0192,4.1349,0.8538,6.559
13.741000,4.7442,4.2184,1.0201,6.430
13.741000,4.4221,4.2695,1.1486,6.253
13.742000,4.0388,4.3026,1.2657,6.035
13.742000,3.6210,4.3153,1.3593,5.795
13.742000,3.1542,4.2812,1.4655,5.516
13.746000,2.7019,4.2564,1.5317,5.269
13.755000,2.2782,4.2212,1.5555,5.043
13.756000,1.8355,4.1664,1.6684,4.849
13.761000,1.4268,4.1087,1.7239,4.679
13.766000,1.0540,4.0334,1.7153,4.508
13.839000,0.6703,3.9153,1.6171,4.289
13.840000,0.2803,3.7519,1.5662,4.075
13.841000,-0.0608,3.5841,1.4884,3.881
13.843000,-0.3623,3.4433,1.4794,3.765
13.844000,-0.5738,3.3176,1.4144,3.652
13.846000,-0.7557,3.1992,1.2362,3.512
13.847000,-0.8927,3.0583,1.0341,3.350
13.847000,-0.9951,2.8894,0.9037,3.187
13.848000,-1.0364,2.7164,0.8235,3.022
13.848000,-1.0242,2.5342,0.8071,2.850
13.849000,-1.0210,2.3391,0.7988,2.674
13.849000,-1.0526,2.1084,0.7393,2.470
13.850000,-1.1146,1.8696,0.6260,2.265
13.850000,-1.2570,1.5392,0.4115,2.029
13.851000,-1.4364,1.1559,0.1798,1.852
13.851000,-1.6147,0.7148,-0.1141,1.770
13.852000,-1.7979,0.2396,-0.3881,1.855
13.858000,-1.9789,-0.2841,-0.6470,2.101
13.862000,-2.1384,-0.8485,-0.8117,2.440
13.867000,-2.2642,-1.4458,-0.9328,2.844
13.938000,-2.3344,-2.0753,-1.0510,3.296
13.939000,-2.3660,-2.7706,-1.1499,3.821
13.939000,-2.3415,-3.5173,-1.1861,4.389
13.940000,-2.2419,-4.2843,-1.1748,4.976
13.940000,-2.0766,-5.0517,-1.2192,5.596
13.941000,-1.8551,-5.7903,-1.2069,6.199
13.941000,-1.5851,-6.4981,-1.1912,6.794
13.941000,-1.2543,-7.1642,-1.1596,7.365
13.942000,-0.9347,-7.8009,-1.0599,7.928
13.942000,-0.6646,-8.3554,-0.9313,8.433
13.943000,-0.4487,-8.8512,-0.7618,8.895
13.943000,-0.2821,-9.2856,-0.5662,9.307
13.944000,-0.1431,-9.6255,-0.3715,9.634
13.944000,-0.0363,-9.8578,-0.1249,9.859
13.944000,0.0644,-9.9401,0.1394,9.941
13.947000,0.1231,-9.8970,0.3256,9.903
13.952000,0.1588,-9.7553,0.4889,9.769
13.956000,0.1903,-9.5305,0.6033,9.551
13.963000,0.1884,-9.3183,0.6942,9.346
13.966000,0.1622,-9.1623,0.8029,9.199
14.060000,0.1354,-9.0889,0.8920,9.134
14.060000,0.1244,-9.0716,0.8500,9.112
14.061000,0.1164,-9.0817,0.7744,9.115
14.061000,0.1896,-9.0833,0.6958,9.112
14.061000,0.2931,-9.1198,0.5671,9.142
14.062000,0.4382,-9.1653,0.3920,9.184
14.062000,0.6027,-9.2418,0.2262,9.264
14.062000,0.7721,-9.3518,-0.0209,9.384
14.063000,0.9487,-9.4833,-0.2705,9.535
14.063000,1.1134,-9.6554,-0.5468,9.735
14.063000,1.2665,-9.8727,-0.8550,9.990
14.064000,1.3842,-10.1300,-1.1336,10.287
14.064000,1.4743,-10.3889,-1.3045,10.574
14.065000,1.5396,-10.6113,-1.5341,10.832
14.065000,1.5087,-10.7995,-1.7895,11.050
14.065000,1.4011,-10.9485,-2.0399,11.225
14.066000,1.2197,-11.0676,-2.2287,11.355
14.066000,0.9935,-11.1804,-2.3779,11.474
14.067000,0.7539,-11.2536,-2.5359,11.560
14.072000,0.5417,-11.2775,-2.7746,11.626
14.073000,0.3308,-11.2570,-3.0873,11.677
14.077000,0.1642,-11.1559,-3.5047,11.695
14.083000,0.0229,-10.9623,-4.0317,11.680
14.088000,-0.1050,-10.6762,-4.6226,11.634
14.093000,-0.2053,-10.3144,-5.2483,11.575
14.097000,-0.3019,-9.9151,-5.8632,11.523
14.186000,-0.4043,-9.5045,-6.4621,11.500
14.187000,-0.4812,-9.0795,-7.0330,11.495
14.187000,-0.5376,-8.6400,-7.5182,11.466
14.188000,-0.5803,-8.1545,-7.9199,11.382
14.188000,-0.6238,-7.6621,-8.1835,11.228
14.189000,-0.6440,-7.1678,-8.2542,10.951
14.189000,-0.6459,-6.6700,-8.1323,10.538
14.189000,-0.6320,-6.2127,-7.8827,10.057
14.190000,-0.6409,-5.8114,-7.5222,9.527
14.190000,-0.6609,-5.4596,-7.0605,8.950
14.190000,-0.7476,-5.1496,-6.5316,8.351
14.191000,-0.9270,-4.9247,-6.0051,7.821
14.191000,-1.1971,-4.7539,-5.5165,7.380
14.191000,-1.5218,-4.6394,-5.0609,7.032
14.192000,-1.8986,-4.5471,-4.6259,6.759
14.192000,-2.3226,-4.4848,-4.2120,6.576
14.193000,-2.7314,-4.4035,-3.6925,6.363
14.193000,-3.1126,-4.3034,-3.1256,6.162
14.193000,-3.4540,-4.1866,-2.5168,5.983
14.198000,-3.7770,-4.0695,-1.8757,5.860
14.205000,-4.0126,-3.9342,-1.2462,5.756
14.209000,-4.1991,-3.8285,-0.6258,5.717
14.212000,-4.3748,-3.7381,-0.0556,5.755
14.323000,-4.5543,-3.6346,0.3975,5.840
14.325000,-4.8141,-3.5348,0.7909,6.025
14.327000,-5.1392,-3.4593,1.1223,6.296
14.328000,-5.4916,-3.3800,1.3914,6.597
14.329000,-5.8729,-3.3126,1.5765,6.925
14.329000,-6.2634,-3.2514,1.6368,7.244
14.329000,-6.5646,-3.1669,1.5989,7.462
14.330000,-6.7709,-3.0652,1.4484,7.572
14.330000,-6.8778,-2.9442,1.1831,7.574
14.331000,-6.8537,-2.7696,0.8179,7.437
14.331000,-6.6988,-2.5223,0.3820,7.168
14.332000,-6.3917,-2.1905,-0.0880,6.757
14.332000,-5.9566,-1.8009,-0.5509,6.247
14.334000,-5.4726,-1.3895,-0.9896,5.732
14.334000,-4.9790,-0.9481,-1.4347,5.268
14.335000,-4.4400,-0.4647,-1.8067,4.816
14.335000,-3.8584,0.0337,-2.0765,4.382
14.336000,-3.3015,0.5396,-2.2487,4.031
14.337000,-2.7407,1.0410,-2.3354,3.748
14.337000,-2.1724,1.5311,-2.3343,3.537
14.337000,-1.6445,2.0125,-2.2911,3.465
14.338000,-1.1887,2.5014,-2.2175,3.548
14.339000,-0.7933,2.9951,-2.1109,3.749
14.339000,-0.4630,3.4985,-1.9353,4.025
14.340000,-0.2180,3.9672,-1.6459,4.301
14.347000,-0.0098,4.3994,-1.2745,4.580
14.348000,0.1373,4.7708,-0.8790,4.853
14.442000,0.2521,5.1267,-0.4863,5.156
14.444000,0.3230,5.4436,-0.0777,5.454
14.446000,0.3775,5.6989,0.3271,5.721
14.448000,0.4088,5.8859,0.7043,5.942
14.449000,0.4167,6.0141,1.0419,6.118
14.451000,0.4370,6.0885,1.3561,6.253
14.452000,0.4602,6.1211,1.6302,6.351
14.454000,0.4772,6.0958,1.8330,6.383
14.455000,0.5185,6.0552,1.9834,6.393
14.457000,0.6106,5.9447,2.1008,6.334
14.458000,0.7177,5.7550,2.2137,6.208
14.459000,0.8446,5.4648,2.3317,6.001
14.460000,1.0064,5.1058,2.4473,5.751
14.461000,1.2170,4.6850,2.5506,5.471
14.464000,1.5251,4.2101,2.6290,5.193
14.467000,1.9235,3.7220,2.6228,4.943
14.469000,2.4339,3.2351,2.5463,4.783
14.470000,3.0583,2.7567,2.4356,4.784
14.470000,3.7144,2.2311,2.2600,4.887
14.472000,4.3352,1.7089,1.9939,5.069
14.472000,4.8703,1.1807,1.7267,5.301
14.473000,5.3105,0.6730,1.4349,5.542
14.473000,5.6920,0.2104,1.1218,5.805
14.474000,6.0801,-0.2043,0.7710,6.132
14.474000,6.4549,-0.5902,0.4197,6.495
14.512000,6.7928,-0.8992,0.0399,6.852
14.514000,7.0650,-1.0808,-0.3482,7.156
14.514000,7.2956,-1.1013,-0.7105,7.412
14.515000,7.4920,-1.0036,-1.0008,7.625
14.515000,7.6368,-0.7952,-1.1876,7.769
14.517000,7.7492,-0.5264,-1.2186,7.862
14.517000,7.8077,-0.2598,-1.1492,7.896
14.518000,7.8387,-0.0074,-0.9396,7.895
14.518000,7.8874,0.2350,-0.6434,7.917
14.525000,7.9754,0.4651,-0.3188,7.995
14.529000,8.0661,0.6605,-0.0097,8.093
14.533000,8.1238,0.8261,0.2501,8.169
14.597000,8.1414,0.9690,0.4579,8.212
14.598000,8.1910,1.0895,0.6304,8.287
14.598000,8.2776,1.1853,0.8683,8.407
14.598000,8.3816,1.2105,1.2112,8.555
14.599000,8.4863,1.1747,1.6345,8.722
14.599000,8.6231,1.1041,2.0343,8.928
14.599000,8.7296,0.9962,2.3502,9.095
14.600000,8.8228,0.9035,2.5652,9.233
14.600000,8.8932,0.8357,2.6985,9.331
14.601000,8.8853,0.7997,2.7598,9.338
14.601000,8.8714,0.8388,2.7543,9.327
14.601000,8.8391,0.9073,2.6963,9.286
14.601000,8.7740,0.9789,2.5790,9.197
14.608000,8.6645,1.0657,2.4194,9.059
14.610000,8.5200,1.1869,2.2201,8.884
14.613000,8.3742,1.3379,1.9839,8.709
14.678000,8.2248,1.5712,1.7972,8.564
14.679000,8.0454,1.9083,1.5761,8.417
14.679000,7.8764,2.3563,1.3450,8.331
14.680000,7.7199,2.8644,1.0943,8.307
14.680000,7.6231,3.4229,0.8241,8.397
14.680000,7.5477,3.9672,0.5464,8.544
14.681000,7.4835,4.4348,0.3335,8.705
14.681000,7.4731,4.8328,0.1852,8.902
14.681000,7.5137,5.1202,0.0795,9.093
14.681000,7.5810,5.3187,-0.0386,9.261
14.682000,7.6553,5.4327,-0.2432,9.390
14.682000,7.6936,5.4719,-0.5290,9.456
14.682000,7.6740,5.4605,-0.8610,9.458
14.683000,7.6304,5.3822,-1.1668,9.410
14.689000,7.5158,5.2568,-1.4361,9.283
14.695000,7.4357,5.1084,-1.6137,9.165
14.700000,7.4000,4.9323,-1.7259,9.059
14.705000,7.3802,4.7360,-1.7896,8.950
14.709000,7.3642,4.5502,-1.8003,8.842
14.714000,7.3170,4.3177,-1.7801,8.680
14.777000,7.2890,4.0936,-1.7435,8.540
14.778000,7.2730,3.8634,-1.6574,8.401
14.779000,7.2335,3.6462,-1.5775,8.253
14.779000,7.2035,3.4389,-1.4824,8.119
14.780000,7.1622,3.2346,-1.3969,7.982
14.780000,7.0636,3.0089,-1.3163,7.790
14.780000,6.9485,2.8166,-1.2384,7.599
14.781000,6.7881,2.6097,-1.1631,7.365
14.781000,6.5754,2.3785,-1.0760,7.075
14.782000,6.3531,2.1395,-0.9845,6.776
14.783000,6.1081,1.9268,-0.9102,6.469
14.784000,5.8425,1.7663,-0.8483,6.162
14.785000,5.5231,1.6795,-0.8657,5.837
14.785000,5.1882,1.6426,-0.8876,5.514
14.789000,4.8278,1.6454,-0.8135,5.165
14.795000,4.4360,1.6503,-0.6775,4.781
14.799000,4.3425,1.6759,-0.5734,4.690
14.807000,3.6314,1.6672,-0.5084,4.028
14.810000,3.5374,1.6722,-0.4968,3.944
14.814000,2.8493,1.6830,-0.4522,3.340
14.914000,2.4228,1.6745,-0.3842,2.970
14.915000,2.0086,1.6798,-0.2834,2.634
14.917000,1.5926,1.6750,-0.2050,2.320
14.919000,1.1798,1.6745,-0.0557,2.049
14.922000,0.8061,1.6353,0.0826,1.825
14.924000,0.4879,1.5998,0.1574,1.680
14.926000,0.1426,1.5669,0.2527,1.594
14.927000,-0.1751,1.5219,0.4206,1.589
14.927000,-0.4984,1.4742,0.5911,1.665
14.929000,-0.7864,1.4336,0.7353,1.793
14.930000,-1.0491,1.3587,0.7836,1.887
14.930000,-1.2901,1.2583,0.7982,1.971
14.931000,-1.4785,1.1368,0.7530,2.011
14.931000,-1.6025,0.9970,0.6723,2.003
14.932000,-1.6526,0.8148,0.5708,1.929
14.932000,-1.6581,0.6061,0.4462,1.821
14.934000,-1.6110,0.4013,0.3106,1.689
14.935000,-1.5191,0.1706,0.1236,1.534
14.935000,-1.4686,-0.1026,-0.0618,1.473
14.936000,-1.4093,-0.4112,-0.2068,1.483
14.936000,-1.3459,-0.7550,-0.3281,1.578
14.937000,-1.3480,-1.1396,-0.4234,1.815
14.938000,-1.3692,-1.5651,-0.5021,2.139
14.938000,-1.4000,-2.0345,-0.5481,2.530
14.942000,-1.4043,-2.5258,-0.5638,2.944
14.945000,-1.3915,-3.0651,-0.5876,3.417
14.951000,-1.3881,-3.6479,-0.5624,3.943
14.956000,-1.3742,-4.2720,-0.4092,4.506
14.960000,-1.3595,-4.9187,-0.2027,5.107
14.964000,-1.3176,-5.5946,-0.0027,5.748
15.049000,-1.2271,-6.2588,0.1978,6.381
15.050000,-1.1240,-6.9164,0.3485,7.016
15.050000,-1.0222,-7.5392,0.5095,7.625
15.050000,-0.9770,-8.1610,0.6662,8.246
15.051000,-0.9452,-8.7430,0.8400,8.834
15.051000,-0.9194,-9.2798,0.9874,9.377
15.051000,-0.9284,-9.7566,1.0437,9.856
15.052000,-0.9937,-10.1424,1.0448,10.244
15.052000,-1.1200,-10.4786,1.0750,10.593
15.053000,-1.2907,-10.7340,1.1200,10.869
15.053000,-1.4651,-10.9129,1.1724,11.073
15.054000,-1.6073,-11.0219,1.1914,11.202
15.054000,-1.7225,-11.0757,1.2059,11.274
15.054000,-1.7417,-11.0805,1.2173,11.282
15.055000,-1.6560,-11.0131,1.1926,11.201
15.055000,-1.5068,-10.9653,1.1688,11.130
15.056000,-1.3400,-10.9590,1.1348,11.099
15.056000,-1.1731,-10.9828,1.0579,11.096
15.061000,-1.0158,-11.0230,0.9339,11.109
15.066000,-0.8546,-11.0507,0.7810,11.111
15.071000,-0.6848,-11.0590,0.6187,11.097
15.074000,-0.5402,-11.0388,0.3563,11.058
15.080000,-0.3709,-10.9786,0.0303,10.985
15.087000,-0.1699,-10.9148,-0.2610,10.919
15.089000,0.0699,-10.8885,-0.4989,10.900
15.094000,0.2888,-10.9505,-0.7391,10.979
15.099000,0.4367,-11.1249,-1.0056,11.179
15.189000,0.5377,-11.3800,-1.2462,11.461
15.191000,0.5635,-11.6176,-1.4855,11.726
15.193000,0.5023,-11.7918,-1.8241,11.943
15.195000,0.3522,-11.8353,-2.2192,12.047
15.196000,0.1253,-11.7529,-2.5994,12.038
15.197000,-0.1590,-11.5732,-2.9675,11.949
15.199000,-0.4692,-11.3703,-3.2878,11.845
15.200000,-0.7860,-11.2110,-3.5492,11.786
15.202000,-1.0754,-11.0857,-3.8841,11.796
15.203000,-1.3303,-10.9564,-4.3045,11.847
15.206000,-1.5624,-10.7343,-4.8873,11.898
15.207000,-1.7931,-10.4364,-5.5632,11.962
15.207000,-2.0270,-10.0907,-6.3393,12.088
15.208000,-2.2855,-9.7239,-7.2324,12.332
15.209000,-2.5876,-9.3638,-8.1320,12.669
15.209000,-2.9593,-9.0695,-8.9090,13.053
15.210000,-3.3904,-8.8544,-9.4422,13.381
15.210000,-3.8538,-8.7176,-9.7166,13.611
15.211000,-4.3480,-8.6262,-9.8085,13.767
15.211000,-4.8006,-8.5349,-9.6863,13.774
15.212000,-5.2203,-8.4311,-9.3414,13.623
15.212000,-5.6064,-8.3270,-8.7536,13.319
15.223000,-5.9325,-8.2399,-7.9802,12.914
15.227000,-6.1482,-8.1915,-7.0854,12.454
15.228000,-6.2353,-8.1797,-6.1057,11.961
15.229000,-6.1511,-8.1689,-5.0808,11.418
15.322000,-5.8841,-8.0937,-4.0502,10.795
15.326000,-5.4283,-7.9295,-2.9817,10.061
15.327000,-4.8608,-7.6368,-1.9122,9.252
15.328000,-4.3850,-7.2435,-0.8517,8.510
15.328000,-4.0805,-6.8150,0.1558,7.945
15.329000,-3.9532,-6.4097,1.1116,7.612
15.330000,-3.9796,-6.0472,2.0237,7.517
15.331000,-4.1218,-5.7565,2.8871,7.646
15.331000,-4.3051,-5.5555,3.6635,7.926
15.332000,-4.4946,-5.3906,4.2955,8.229
15.333000,-4.6467,-5.2583,4.7758,8.488
15.334000,-4.7421,-5.1316,5.0514,8.622
15.335000,-4.7374,-4.9550,5.1173,8.555
15.335000,-4.5771,-4.7323,4.9783,8.254
15.336000,-4.2525,-4.4339,4.6294,7.693
15.337000,-3.7853,-4.0788,4.1399,6.936
15.338000,-3.2572,-3.6890,3.5406,6.063
15.338000,-2.7547,-3.3057,2.8886,5.183
15.339000,-2.3370,-2.9476,2.2573,4.387
15.340000,-2.0550,-2.6329,1.6074,3.707
15.341000,-1.8359,-2.3460,0.9216,3.118
15.341000,-1.6388,-2.0457,0.2169,2.630
15.376000,-1.4872,-1.7531,-0.4709,2.347
15.377000,-1.3808,-1.4699,-1.1363,2.315
15.377000,-1.2642,-1.1376,-1.7286,2.425
15.377000,-1.1094,-0.7568,-2.2116,2.587
15.378000,-0.9258,-0.3390,-2.5846,2.766
15.378000,-0.7111,0.1087,-2.8549,2.944
15.378000,-0.4751,0.5838,-3.0079,3.101
15.381000,-0.2534,1.0317,-3.0199,3.201
15.387000,-0.0420,1.4823,-2.8941,3.252
15.390000,0.1665,1.9501,-2.6979,3.333
15.395000,0.4106,2.4109,-2.4967,3.495
15.400000,0.6493,2.9004,-2.3341,3.779
15.437000,0.9019,3.4091,-2.0998,4.104
15.438000,1.1698,3.9214,-1.7496,4.451
15.438000,1.4197,4.3848,-1.3800,4.811
15.439000,1.5963,4.7915,-0.9916,5.147
15.439000,1.6684,5.1296,-0.5993,5.427
15.440000,1.6840,5.3797,-0.2016,5.641
15.440000,1.6271,5.5568,0.2176,5.794
15.440000,1.5189,5.6890,0.6120,5.920
15.445000,1.3603,5.7671,0.9689,6.004
15.451000,1.1468,5.7651,1.2902,6.018
15.455000,0.9314,5.7093,1.5613,5.992
15.461000,0.7413,5.5883,1.7793,5.911
15.466000,0.6047,5.4019,1.9447,5.773
15.471000,0.5533,5.1576,2.0547,5.579
15.475000,0.6684,4.8555,2.1025,5.333
15.480000,0.9451,4.4765,2.0187,5.001
15.520000,1.3735,4.0280,1.7805,4.613
15.521000,1.4419,3.5077,1.4767,4.070
15.521000,2.4194,2.9539,1.1259,3.981
15.521000,2.9587,2.3718,0.7552,3.866
15.521000,3.5504,1.7974,0.4251,4.002
15.522000,4.1754,1.1880,0.0524,4.341
15.522000,4.8243,0.5845,-0.3694,4.874
15.522000,5.5056,-0.0294,-0.8002,5.563
15.526000,6.2001,-0.6248,-1.2513,6.356
15.532000,6.8861,-1.1603,-1.7549,7.200
15.536000,7.5106,-1.6067,-2.2714,8.009
15.541000,8.0834,-1.9681,-2.7542,8.764
15.546000,8.5751,-2.2365,-3.2134,9.427
15.554000,8.9934,-2.3944,-3.6433,9.994
15.556000,9.3601,-2.4505,-4.0216,10.478
15.561000,9.7063,-2.3852,-4.3304,10.893
15.565000,10.0442,-2.2339,-4.5406,11.247
15.634000,10.3668,-1.9770,-4.5730,11.502
15.635000,10.6707,-1.6129,-4.4492,11.673
15.636000,10.8888,-1.1922,-4.1890,11.728
15.636000,11.0184,-0.7276,-3.7744,11.670
15.636000,11.0689,-0.2226,-3.2402,11.536
15.637000,11.0808,0.3100,-2.6453,11.396
15.637000,11.0839,0.8278,-2.0633,11.305
15.637000,11.0685,1.2967,-1.5071,11.246
15.638000,11.0533,1.6944,-0.9731,11.225
15.638000,11.0715,2.0060,-0.4431,11.260
15.638000,11.1011,2.2097,0.0654,11.319
15.639000,11.1942,2.3095,0.5153,11.442
15.639000,11.3435,2.2432,0.9375,11.601
15.640000,11.4843,2.0540,1.3196,11.741
15.642000,11.5356,1.8137,1.6039,11.787
