time,ax,ay,az,aT
0.005000,0.3466,0.2861,-0.5500,0.710
0.005000,0.3890,0.2254,-0.6759,0.812
0.005000,0.3542,0.1308,-0.6371,0.741
0.013000,0.2133,0.0397,-0.4886,0.535
0.013000,0.0688,-0.0217,-0.4409,0.447
0.020000,-0.0373,-0.0101,-0.5586,0.560
0.023000,-0.1230,0.0289,-0.7029,0.714
0.027000,-0.2102,0.0650,-0.8430,0.871
0.032000,-0.2441,0.0601,-0.8951,0.930
0.044000,-0.2483,0.0477,-0.9240,0.958
0.045000,-0.2321,0.0107,-0.9248,0.954
0.047000,-0.1767,-0.0393,-0.8376,0.857
0.052000,-0.1130,-0.0695,-0.7054,0.718
0.057000,-0.0575,-0.0997,-0.5064,0.519
0.062000,-0.0143,-0.1018,-0.2883,0.306
0.087000,0.0317,-0.0741,-0.1203,0.145
0.087000,0.0668,-0.0384,0.0385,0.086
0.088000,0.0601,0.0005,0.0876,0.106
0.088000,0.0040,0.0381,-0.0279,0.047
0.088000,-0.0377,0.0705,-0.1622,0.181
0.095000,-0.0391,0.0936,-0.2057,0.229
0.098000,-0.0170,0.0910,-0.1775,0.200
0.109000,0.0075,0.0910,-0.1184,0.150
0.110000,0.0462,0.0816,-0.0713,0.118
0.112000,0.0489,0.0745,-0.0339,0.095
0.128000,0.0227,0.0867,0.0130,0.091
0.129000,-0.0157,0.1157,0.0766,0.140
0.129000,-0.0779,0.1541,0.1424,0.224
0.132000,-0.1372,0.1876,0.1963,0.304
0.145000,-0.2055,0.2328,0.2192,0.380
0.145000,-0.3067,0.2588,0.2014,0.449
0.148000,-0.4653,0.2896,0.1047,0.558
0.154000,-0.4567,0.3375,0.1251,0.582
0.168000,-0.3597,0.3760,0.1694,0.547
0.168000,-0.2866,0.3617,0.2185,0.511
0.168000,-0.2378,0.3087,0.2341,0.455
0.203000,-0.2301,0.2528,0.2092,0.401
0.204000,-0.2470,0.2108,0.1629,0.363
0.204000,-0.2309,0.1996,0.1335,0.333
0.205000,-0.2175,0.2096,0.0779,0.312
0.205000,-0.2143,0.2479,0.0463,0.331
0.205000,-0.2139,0.2858,0.0340,0.359
0.205000,-0.2402,0.3089,0.0195,0.392
0.213000,-0.2672,0.3076,0.0313,0.409
0.213000,-0.2996,0.2985,0.0648,0.428
0.225000,-0.3589,0.2840,0.0674,0.463
0.226000,-0.4119,0.2905,0.0485,0.506
0.228000,-0.4513,0.3108,0.0106,0.548
0.233000,-0.4653,0.3283,-0.0439,0.571
0.245000,-0.4730,0.3503,-0.1054,0.598
0.246000,-0.4816,0.3483,-0.2172,0.633
0.248000,-0.4812,0.3348,-0.3289,0.672
0.301000,-0.4403,0.3197,-0.3785,0.663
0.302000,-0.4156,0.3199,-0.3805,0.648
0.302000,-0.3922,0.3116,-0.4162,0.651
0.302000,-0.4463,0.2948,-0.4784,0.718
0.302000,-0.9005,0.2221,-0.6246,1.118
0.302000,-1.5489,0.2230,-0.8643,1.788
0.303000,-1.4929,0.4079,-1.0064,1.846
0.303000,-1.2361,0.6017,-1.0029,1.702
0.303000,-1.0089,0.6865,-0.8731,1.501
0.303000,-0.8564,0.6379,-0.6767,1.264
0.304000,-0.7879,0.4793,-0.4279,1.017
0.310000,-0.7600,0.2793,-0.2342,0.843
0.314000,-0.7442,0.1545,-0.1335,0.772
0.318000,-0.6928,0.1121,-0.1089,0.710
0.327000,-0.6320,0.1422,-0.1581,0.667
0.328000,-0.5907,0.1854,-0.2809,0.680
0.333000,-0.5974,0.2087,-0.4513,0.777
0.344000,-0.6615,0.1984,-0.6500,0.948
0.345000,-0.7280,0.1764,-0.8295,1.118
0.348000,-0.8089,0.1456,-0.9779,1.277
0.361000,-0.8824,0.1230,-1.1192,1.430
0.362000,-0.9246,0.1040,-1.2176,1.532
0.363000,-0.9045,0.1033,-1.2804,1.571
0.421000,-0.8192,0.1327,-1.2216,1.477
0.423000,-0.7687,0.1348,-1.1823,1.417
0.423000,-0.7723,0.1143,-1.0550,1.312
0.423000,-0.7577,0.1210,-0.8586,1.152
0.424000,-0.7326,0.1352,-0.7248,1.039
0.424000,-0.7125,0.1422,-0.6102,0.949
0.424000,-0.7028,0.1441,-0.4765,0.861
0.424000,-0.6629,0.1455,-0.3763,0.776
0.425000,-0.6296,0.1367,-0.3933,0.755
0.425000,-0.6294,0.1108,-0.4007,0.754
0.425000,-0.6335,0.0895,-0.4416,0.777
0.425000,-0.5920,0.0945,-0.5398,0.807
0.432000,-0.5602,0.1165,-0.6762,0.886
0.433000,-0.5503,0.1367,-0.8175,0.995
0.447000,-0.5550,0.1528,-0.9756,1.133
0.450000,-0.5841,0.1439,-1.1458,1.294
0.450000,-0.6735,0.1172,-1.2898,1.460
0.461000,-0.7898,0.1062,-1.4627,1.666
0.462000,-0.8448,0.1591,-1.6381,1.850
0.463000,-0.8604,0.2350,-1.7658,1.978
0.512000,-0.8979,0.2862,-1.8506,2.077
0.513000,-0.9612,0.2770,-1.8543,2.107
0.514000,-0.9943,0.2745,-1.8534,2.121
0.514000,-0.9294,0.3076,-1.7716,2.024
0.514000,-0.8756,0.3165,-1.5562,1.813
0.515000,-0.8491,0.3098,-1.3603,1.633
0.515000,-0.8101,0.3017,-1.1646,1.450
0.515000,-0.7928,0.2772,-0.9929,1.300
0.515000,-0.7576,0.2550,-0.8593,1.174
0.522000,-0.7122,0.1701,-0.7398,1.041
0.522000,-0.5544,0.1423,-0.8281,1.007
0.524000,-0.2822,0.1383,-1.0210,1.068
0.528000,-0.0208,0.0821,-1.3161,1.319
0.534000,0.2004,-0.0546,-1.7467,1.759
0.538000,0.3590,-0.2542,-2.2937,2.335
0.544000,0.5069,-0.4677,-2.8157,2.899
0.549000,0.6608,-0.6222,-3.2101,3.336
0.561000,0.9711,-0.6673,-3.5035,3.696
0.562000,1.9835,-0.3421,-3.6335,4.154
0.564000,2.2159,-0.1195,-3.6809,4.298
0.569000,1.7909,-0.1628,-3.6380,4.058
0.574000,1.1179,-0.1298,-3.0214,3.224
0.578000,0.3888,0.0043,-2.1662,2.201
0.584000,-0.2204,0.1891,-1.3740,1.404
0.607000,-0.7539,0.4398,-0.8767,1.237
0.609000,-1.3852,0.6285,-0.7452,1.694
0.609000,-1.9884,0.8435,-0.8493,2.321
0.609000,-1.7689,1.2999,-1.9368,2.928
0.610000,-0.9541,1.8106,-2.8684,3.524
0.617000,-1.4191,1.1825,-4.1186,4.514
0.618000,-2.1428,0.4252,-4.2097,4.743
0.624000,-2.3937,0.1815,-3.8826,4.565
0.630000,-2.2908,0.3204,-3.2880,4.020
0.634000,-1.9442,0.6490,-2.4033,3.159
0.639000,-0.7480,1.3637,-1.7306,2.327
0.645000,0.7275,2.3189,-1.3617,2.786
0.650000,1.7628,3.0927,-0.5477,3.602
0.662000,1.5908,3.5045,0.5627,3.890
0.663000,3.0692,3.3836,1.1918,4.721
0.664000,3.3663,2.8383,1.3687,4.611
0.669000,3.4716,2.1028,1.4924,4.324
0.675000,3.6309,1.5393,1.7110,4.299
0.678000,3.9930,1.3005,1.8754,4.599
0.684000,4.4783,1.3303,1.9376,5.058
0.706000,4.8976,1.4531,1.9678,5.475
0.707000,5.0857,1.5644,2.0330,5.696
0.707000,5.0499,1.5783,1.9881,5.652
0.707000,4.8220,1.5481,1.9156,5.415
0.709000,4.3983,1.4938,1.8497,5.000
0.714000,3.7990,1.4878,1.8775,4.491
0.719000,3.1401,1.5215,1.9518,3.998
0.724000,2.5133,1.6595,2.1035,3.674
0.729000,1.8700,1.8611,2.3569,3.538
0.734000,1.1943,2.0732,2.6349,3.559
0.741000,0.5355,2.2526,2.8244,3.652
0.744000,-0.1024,2.3327,2.8144,3.657
0.750000,-0.5994,2.3552,2.5161,3.498
0.756000,-0.9653,2.3239,1.9474,3.182
0.759000,-1.2075,2.2357,1.2593,2.836
0.765000,-1.2965,2.1186,0.6229,2.561
0.785000,-1.1688,1.9790,0.0895,2.300
0.786000,-0.7294,1.7978,0.2882,1.961
0.788000,0.0049,1.5935,1.2504,2.026
0.788000,0.7746,1.4191,0.9207,1.861
0.789000,1.3691,1.1837,-0.7814,1.971
0.796000,1.9315,1.0977,-2.9871,3.723
0.799000,2.8473,1.3765,-4.7463,5.703
0.805000,3.8679,1.8280,-5.1814,6.719
0.809000,4.4005,1.9637,-4.0988,6.326
0.814000,4.2023,1.6468,-2.2204,5.030
0.848000,3.5152,1.1952,-0.4048,3.735
0.850000,2.7217,0.9299,0.9229,3.021
0.851000,2.0338,0.8719,1.7257,2.806
0.851000,1.4709,0.8518,2.1618,2.750
0.851000,1.0364,0.7845,2.3911,2.722
0.852000,0.8266,0.7090,2.4418,2.674
0.853000,0.8578,0.6592,2.3765,2.611
0.855000,1.0566,0.6184,2.2299,2.544
0.859000,1.2956,0.5700,2.0217,2.468
0.864000,1.3298,0.4926,1.8053,2.296
0.870000,1.5199,0.4127,1.6027,2.247
0.875000,1.5588,0.3783,1.4526,2.164
0.879000,1.4991,0.3870,1.4318,2.109
0.891000,1.3010,0.4055,1.5011,2.027
0.892000,0.9819,0.4100,1.5980,1.920
0.895000,0.6717,0.3909,1.6717,1.844
0.899000,0.3993,0.3627,1.6791,1.764
0.924000,0.1887,0.3161,1.5509,1.594
0.925000,0.0304,0.2849,1.2632,1.295
0.925000,-0.0951,0.2935,0.9096,0.961
0.925000,-0.1577,0.3359,0.5269,0.644
0.926000,-0.1657,0.3551,0.1684,0.426
0.930000,-0.1300,0.3704,-0.1126,0.408
0.934000,-0.1209,0.3748,-0.3251,0.511
0.939000,-0.2031,0.3799,-0.5240,0.678
0.945000,-0.4270,0.3359,-0.6687,0.862
0.949000,-0.7794,0.1985,-0.8913,1.201
0.955000,-1.0186,0.1980,-0.9455,1.404
0.960000,-1.1905,0.2373,-0.8123,1.461
0.966000,-1.3590,0.1603,-0.6787,1.527
0.970000,-1.4071,-0.0159,-0.5589,1.514
0.975000,-1.5058,0.0478,-0.4905,1.584
0.979000,-1.6033,0.1323,-0.4845,1.680
0.986000,-1.9012,-0.2437,-0.9522,2.140
0.990000,-1.6642,-0.1623,-1.3584,2.154
0.996000,-1.1558,0.0347,-1.6072,1.980
1.001000,-0.8465,0.0365,-1.6778,1.880
1.008000,-0.8104,-0.1272,-1.7167,1.903
1.010000,-0.8652,-0.2759,-1.7475,1.969
1.015000,-1.0577,-0.4973,-2.0859,2.391
1.055000,-1.3122,-0.9028,-2.5992,3.048
1.056000,-1.2923,-1.2967,-2.7605,3.312
1.056000,-1.2963,-1.5993,-2.8432,3.510
1.057000,-1.3281,-1.7606,-2.8078,3.570
1.057000,-1.3713,-1.8677,-2.5319,3.432
1.058000,-1.3516,-1.9240,-2.1474,3.184
1.059000,-1.3145,-1.9404,-1.7334,2.915
1.060000,-1.1501,-1.8509,-1.1868,2.481
1.060000,-0.8862,-1.6428,-0.4849,1.929
1.065000,-0.5644,-1.4027,0.1123,1.516
1.069000,-0.2630,-1.2413,0.4915,1.361
1.075000,-0.0157,-1.1875,0.7057,1.381
1.080000,0.2151,-1.2464,0.8252,1.510
1.086000,0.3998,-1.4113,0.9850,1.767
1.090000,0.4735,-1.6637,1.2239,2.119
1.095000,0.3565,-1.9618,1.5232,2.509
1.099000,0.1019,-2.2721,1.9164,2.974
1.108000,-0.1486,-2.5681,2.3334,3.473
1.110000,-0.3945,-2.8875,2.6325,3.927
1.115000,-0.7079,-3.2052,2.8214,4.328
1.159000,-0.9526,-3.4388,2.9292,4.617
1.160000,-0.9591,-3.4980,3.0395,4.732
1.161000,-0.5539,-3.4529,3.0800,4.660
1.161000,-0.0696,-3.6143,2.9986,4.697
1.163000,0.1730,-3.9351,2.7452,4.801
1.164000,-0.2843,-4.4195,1.6849,4.738
1.165000,-1.2882,-4.7308,-0.5500,4.934
1.166000,-2.1194,-4.5790,-3.1196,5.932
1.167000,-2.5491,-4.4338,-5.1032,7.225
1.167000,-2.6177,-4.7200,-5.9851,8.059
1.170000,-2.4784,-5.2675,-5.8249,8.235
1.176000,-2.2500,-5.7552,-5.0957,8.009
1.181000,-1.9367,-6.0890,-4.1821,7.637
1.185000,-1.7587,-6.4240,-3.1878,7.384
1.191000,-1.6740,-6.7942,-2.2808,7.360
1.196000,-1.3537,-6.8883,-1.5329,7.185
1.201000,-0.8382,-6.7230,-0.8650,6.830
1.206000,-0.3107,-6.3793,-0.3133,6.395
1.210000,0.1093,-6.0721,0.0654,6.073
1.215000,0.3402,-5.9214,0.4323,5.947
1.237000,0.3568,-5.9940,0.8821,6.069
1.239000,0.2826,-6.2610,1.3896,6.420
1.239000,0.2699,-6.6478,1.8884,6.916
1.240000,0.3720,-7.0072,2.2870,7.380
1.240000,0.4846,-7.2723,2.5461,7.720
1.246000,0.5254,-7.4556,2.6618,7.934
1.251000,0.3995,-7.5922,2.5786,8.028
1.256000,0.1385,-7.5790,2.2216,7.899
1.261000,-0.0903,-7.4438,1.6318,7.621
1.268000,-0.0694,-7.1703,0.8739,7.224
1.271000,0.2266,-6.7801,-0.0389,6.784
1.276000,0.7638,-6.3757,-0.9414,6.490
1.281000,1.1916,-6.0740,-1.5468,6.380
1.287000,1.3627,-5.8703,-1.8816,6.313
1.291000,1.4388,-5.7638,-1.9798,6.262
1.296000,1.4748,-5.7069,-1.8446,6.176
1.301000,1.6086,-5.6355,-1.5079,6.051
1.306000,1.8235,-5.4773,-0.9739,5.854
1.311000,2.0746,-5.2105,-0.3740,5.621
1.316000,2.3736,-4.9210,0.2323,5.468
1.326000,2.8028,-4.6624,0.7604,5.493
1.329000,3.1929,-4.4891,0.8313,5.571
1.330000,3.1908,-4.3703,0.4074,5.426
1.379000,3.5864,-4.0034,1.1099,5.488
1.381000,4.3440,-3.4401,2.3750,6.029
1.382000,5.1443,-2.7487,3.3759,6.739
1.382000,5.6865,-2.0680,3.4545,6.968
1.383000,5.7040,-1.6926,2.8029,6.577
1.383000,5.3606,-1.5737,2.2657,6.029
1.383000,4.8771,-1.5513,2.0462,5.512
1.384000,4.3093,-1.5186,2.0065,4.990
1.385000,3.7177,-1.4567,2.0461,4.487
1.385000,3.1888,-1.3324,2.1158,4.052
1.386000,2.7488,-1.1513,2.1013,3.647
1.390000,2.4119,-0.9843,2.1181,3.357
1.395000,2.1918,-0.8687,2.1242,3.173
1.400000,2.0013,-0.7851,2.2576,3.117
1.407000,1.8164,-0.6800,2.4781,3.147
1.410000,1.5854,-0.5047,2.6398,3.120
1.415000,1.4953,-0.2993,2.6998,3.101
1.422000,1.5784,-0.0569,2.7501,3.171
1.426000,1.7119,0.1976,2.8128,3.299
1.432000,1.8410,0.4551,2.8473,3.421
1.472000,1.9327,0.6996,2.8177,3.488
1.472000,2.0040,0.9290,2.7406,3.520
1.472000,2.0480,1.1479,2.5744,3.484
1.473000,2.0170,1.3944,2.0722,3.210
1.473000,1.7240,2.1182,-0.1346,2.734
1.473000,1.9389,2.4572,-0.9249,3.264
1.474000,2.1698,2.4886,-1.3686,3.574
1.474000,2.5618,2.3797,-1.7414,3.906
1.476000,2.8780,2.2696,-2.0379,4.194
1.481000,3.1134,2.2293,-2.1309,4.382
1.487000,3.2278,2.2527,-2.0674,4.446
1.491000,3.2788,2.3584,-1.9082,4.467
1.497000,3.3192,2.5203,-1.7401,4.516
1.502000,3.3780,2.6812,-1.4206,4.541
1.507000,3.2879,2.8718,-1.2478,4.540
1.511000,3.0968,3.0249,-1.1335,4.475
1.516000,2.8460,3.1818,-1.1327,4.417
1.521000,2.6624,3.3915,-1.1486,4.462
1.528000,2.5289,3.6675,-1.2871,4.637
1.531000,2.5862,3.9719,-1.5047,4.973
1.538000,2.7731,4.1915,-1.5756,5.267
1.542000,2.9483,4.4026,-1.6028,5.536
1.546000,3.1959,4.6098,-0.6446,5.646
1.591000,3.2196,4.8727,3.2096,6.664
1.592000,2.4946,5.3564,5.8926,8.345
1.593000,1.6586,5.6531,5.7139,8.207
1.593000,1.1413,5.6061,4.1954,7.095
1.594000,0.9781,5.4454,2.2754,5.982
1.594000,1.3092,5.2286,0.3841,5.404
1.595000,2.6314,4.7600,-0.8244,5.501
1.595000,3.0504,4.3316,-1.2074,5.434
1.596000,2.5915,4.0436,-1.4645,5.021
1.610000,1.8446,4.1935,-1.6157,4.858
1.612000,1.3586,4.6838,-1.8674,5.222
1.613000,1.1538,5.1713,-2.1148,5.705
1.613000,1.0206,5.3726,-2.2064,5.897
1.618000,0.9852,5.2999,-2.0893,5.781
1.622000,1.1092,5.1206,-1.9229,5.581
1.627000,1.3365,4.8937,-1.7972,5.382
1.632000,1.4491,4.6666,-1.7229,5.181
1.636000,1.4707,4.5204,-1.6744,5.040
1.641000,1.5235,4.5390,-1.8051,5.117
1.646000,1.5691,4.7270,-2.0758,5.396
1.652000,1.6268,4.8906,-2.2600,5.628
1.657000,1.6342,4.9915,-2.2250,5.704
1.661000,1.6037,4.9678,-1.9509,5.573
1.667000,1.4709,4.8630,-1.4682,5.288
1.678000,1.2553,4.5939,-0.6953,4.813
1.679000,1.0248,4.2379,0.2392,4.367
1.683000,0.7800,4.0327,0.9275,4.211
1.723000,0.4252,3.9733,1.4795,4.261
1.724000,0.0188,3.9863,1.8520,4.396
1.725000,-0.3527,3.9717,2.1541,4.532
1.725000,-0.6481,3.8130,2.4851,4.597
1.726000,-0.9099,3.4873,2.8778,4.612
1.726000,-0.9774,3.1367,3.0506,4.483
1.727000,-0.8482,2.8521,2.9467,4.188
1.727000,-0.6041,2.6477,2.5687,3.738
1.728000,-0.2000,2.5396,1.9390,3.201
1.731000,0.4115,2.5130,1.1865,2.809
1.736000,1.2178,2.5313,0.3420,2.830
1.742000,2.1510,2.4979,-0.4799,3.331
1.747000,3.0789,2.4242,-1.2134,4.102
1.753000,3.9120,2.3115,-1.8588,4.909
1.756000,4.5779,2.1567,-2.3508,5.580
1.763000,5.0598,2.0001,-2.7269,6.086
1.768000,5.3650,1.8800,-2.9966,6.426
1.772000,5.5345,1.8182,-3.1908,6.642
1.777000,5.6477,1.8151,-3.3158,6.796
1.782000,5.8174,1.8686,-3.2974,6.943
1.794000,6.0937,1.9190,-3.1769,7.135
1.795000,6.4595,1.9397,-2.9716,7.370
1.798000,6.8689,1.9039,-2.6917,7.619
1.843000,7.2401,1.7968,-2.3524,7.822
1.844000,7.5058,1.6180,-2.0356,7.944
1.845000,7.6256,1.4322,-1.7372,7.951
1.845000,7.6047,1.2562,-1.4509,7.843
1.846000,7.4555,1.0928,-1.1846,7.628
1.846000,7.2241,0.9496,-0.9199,7.344
1.847000,6.9159,0.8270,-0.6676,6.997
1.847000,6.5769,0.7041,-0.3801,6.625
1.847000,6.2794,0.6172,-0.0873,6.310
1.848000,6.0763,0.5641,0.1882,6.105
1.854000,5.9939,0.5711,0.3927,6.034
1.857000,6.0393,0.6284,0.4805,6.091
1.863000,6.1953,0.7425,0.4440,6.255
1.868000,6.4423,0.9106,0.2438,6.511
1.871000,6.7055,1.1295,-0.1479,6.802
1.877000,6.9175,1.4153,-0.6837,7.094
1.881000,7.0298,1.7482,-1.2610,7.353
1.888000,7.0325,2.1349,-1.8352,7.575
1.893000,6.9254,2.5371,-2.3944,7.754
1.896000,6.7730,2.9641,-2.8946,7.940
1.919000,6.5940,3.3822,-3.2898,8.108
1.921000,6.3907,3.7216,-3.5798,8.216
1.921000,6.1769,3.9462,-3.7665,8.241
1.922000,5.9596,4.0628,-3.8694,8.185
1.922000,5.7197,4.0430,-3.8831,8.009
1.926000,5.4237,3.8748,-3.8152,7.680
1.932000,5.0672,3.5918,-3.6973,7.228
1.936000,4.7033,3.2210,-3.5442,6.712
1.942000,4.3518,2.7415,-3.4045,6.168
1.947000,4.0776,2.2372,-3.3123,5.710
1.952000,3.8506,1.7265,-3.3155,5.367
1.956000,3.6328,1.2240,-3.3950,5.121
1.962000,3.4436,0.7709,-3.4954,4.967
1.967000,3.3026,0.3606,-3.5424,4.857
1.972000,3.2358,0.0216,-3.5362,4.793
1.977000,3.2248,-0.2548,-3.4605,4.737
1.982000,3.2812,-0.4621,-3.3090,4.683
1.992000,3.3762,-0.6391,-3.1043,4.631
1.993000,3.4713,-0.7981,-2.8879,4.586
1.997000,3.5332,-0.9470,-2.6939,4.543
2.032000,3.5565,-1.1249,-2.5226,4.503
2.034000,3.5349,-1.2996,-2.3670,4.448
2.035000,3.4775,-1.4863,-2.2391,4.395
2.036000,3.3606,-1.6660,-2.1433,4.320
2.036000,3.2083,-1.8408,-2.0556,4.232
2.037000,3.0326,-2.0132,-1.9902,4.149
2.038000,2.8143,-2.1741,-1.9206,4.042
2.039000,2.5852,-2.3387,-1.8349,3.940
2.044000,2.3332,-2.5076,-1.7454,3.844
2.048000,2.0849,-2.6639,-1.6523,3.765
2.053000,1.8500,-2.8072,-1.5820,3.716
2.057000,1.6046,-2.9209,-1.5275,3.666
2.063000,1.3224,-3.0291,-1.4841,3.623
2.068000,1.0352,-3.1232,-1.4469,3.594
2.072000,0.7284,-3.2344,-1.4043,3.601
2.078000,0.4166,-3.3577,-1.3300,3.635
2.083000,0.0976,-3.4759,-1.2360,3.690
2.089000,-0.2120,-3.5791,-1.1271,3.758
2.092000,-0.5146,-3.6631,-1.0009,3.832
2.097000,-0.8075,-3.7336,-0.8789,3.920
2.149000,-1.1005,-3.7863,-0.7490,4.014
2.150000,-1.3864,-3.8116,-0.6208,4.103
2.150000,-1.6295,-3.8333,-0.5134,4.197
2.150000,-1.8442,-3.8403,-0.4316,4.282
2.151000,-2.0281,-3.8385,-0.3652,4.357
2.151000,-2.1910,-3.8430,-0.3261,4.436
2.152000,-2.3331,-3.8516,-0.3211,4.515
2.152000,-2.4664,-3.8714,-0.3497,4.604
2.152000,-2.6174,-3.9097,-0.3945,4.721
2.153000,-2.7696,-3.9740,-0.4192,4.862
2.153000,-2.9276,-4.0417,-0.4425,5.010
2.158000,-3.0987,-4.1131,-0.4761,5.172
2.162000,-3.2784,-4.1904,-0.5127,5.345
2.168000,-3.4425,-4.2759,-0.5617,5.518
2.173000,-3.6129,-4.3747,-0.6015,5.706
2.178000,-3.7633,-4.4737,-0.6366,5.881
2.183000,-3.9032,-4.5733,-0.6670,6.049
2.194000,-4.0352,-4.6545,-0.7000,6.200
2.195000,-4.1594,-4.7508,-0.7284,6.356
2.198000,-4.2852,-4.8310,-0.7595,6.502
2.241000,-4.4415,-4.9460,-0.7938,6.695
2.242000,-4.5947,-5.0536,-0.8286,6.880
2.243000,-4.7208,-5.1686,-0.8669,7.053
2.243000,-4.8128,-5.2740,-0.9042,7.197
2.244000,-4.8873,-5.3676,-0.9507,7.321
2.244000,-4.9348,-5.4707,-1.0212,7.438
2.245000,-4.9312,-5.5813,-1.1281,7.533
2.245000,-4.9222,-5.7198,-1.2620,7.651
2.246000,-4.8839,-5.8841,-1.4133,7.776
2.249000,-4.8571,-6.0403,-1.5578,7.906
2.254000,-4.8132,-6.1861,-1.6861,8.017
2.257000,-4.7880,-6.3075,-1.8076,8.123
2.262000,-4.7865,-6.4108,-1.9007,8.223
2.267000,-4.8326,-6.5203,-1.9703,8.352
2.273000,-4.8999,-6.6356,-1.9952,8.487
2.278000,-4.9670,-6.7612,-2.0139,8.628
2.282000,-5.0290,-6.9111,-2.0385,8.787
2.288000,-5.0837,-7.0898,-2.0742,8.967
2.292000,-5.1263,-7.2580,-2.1135,9.134
2.297000,-5.1427,-7.4443,-2.1684,9.304
2.338000,-5.1185,-7.6314,-2.2222,9.454
2.340000,-5.0301,-7.8023,-2.2604,9.554
2.340000,-4.8655,-7.9497,-2.2783,9.595
2.341000,-4.6035,-8.0712,-2.2565,9.562
2.341000,-4.2727,-8.1531,-2.2023,9.465
2.342000,-3.9138,-8.2292,-2.1086,9.353
2.343000,-3.5578,-8.3123,-1.9708,9.254
2.343000,-3.2263,-8.3956,-1.8151,9.175
2.344000,-2.9477,-8.4912,-1.6322,9.135
2.348000,-2.7340,-8.6068,-1.4526,9.147
2.354000,-2.6113,-8.7422,-1.2978,9.216
2.357000,-2.5367,-8.8851,-1.1651,9.313
2.363000,-2.5124,-9.0424,-1.0948,9.449
2.368000,-2.5003,-9.2184,-1.0597,9.610
2.372000,-2.4838,-9.3837,-1.0689,9.766
2.378000,-2.4367,-9.5457,-1.1020,9.913
2.383000,-2.3590,-9.6917,-1.1278,10.038
2.388000,-2.2579,-9.8289,-1.1291,10.148
2.393000,-2.1311,-9.9428,-1.0989,10.228
2.398000,-1.9566,-10.0218,-1.0395,10.264
2.405000,-1.7680,-10.0774,-0.9707,10.277
2.407000,-1.5840,-10.1277,-0.9069,10.291
2.412000,-1.4115,-10.1700,-0.8533,10.303
2.417000,-1.2264,-10.2235,-0.7886,10.327
2.458000,-1.0165,-10.2715,-0.7298,10.347
2.459000,-0.7957,-10.2921,-0.7111,10.347
2.460000,-0.5376,-10.3058,-0.7568,10.348
2.460000,-0.2632,-10.3002,-0.8504,10.339
2.461000,0.0253,-10.2893,-0.9900,10.337
2.461000,0.3521,-10.2660,-1.1568,10.337
2.461000,0.6841,-10.2157,-1.3577,10.328
2.462000,1.0384,-10.1376,-1.5761,10.312
2.462000,1.4268,-9.9949,-1.7708,10.250
2.468000,1.8807,-9.7634,-1.9275,10.128
2.472000,2.3837,-9.4006,-2.0655,9.916
2.479000,2.9381,-8.9148,-2.2111,9.643
2.484000,3.5032,-8.3213,-2.3738,9.335
2.488000,4.0528,-7.6273,-2.5438,9.004
2.493000,4.5743,-6.8411,-2.7110,8.665
2.498000,5.0507,-6.0179,-2.8372,8.353
2.505000,5.4412,-5.1801,-2.9196,8.060
2.512000,5.7454,-4.3049,-2.9506,7.762
2.513000,5.9847,-3.4231,-2.9518,7.500
2.549000,6.1771,-2.5138,-2.9131,7.277
2.551000,6.3534,-1.6221,-2.8466,7.148
2.552000,6.5059,-0.7898,-2.7474,7.106
2.553000,6.6074,-0.0154,-2.6036,7.102
2.553000,6.6381,0.6431,-2.4005,7.088
2.554000,6.6025,1.1932,-2.1766,7.054
2.554000,6.4757,1.6285,-1.9391,6.953
2.555000,6.2864,1.9835,-1.7050,6.809
2.559000,6.0346,2.2394,-1.4768,6.604
2.563000,5.7442,2.4113,-1.2592,6.356
2.571000,5.4010,2.5142,-1.0351,6.047
2.573000,5.0146,2.5731,-0.8160,5.695
2.579000,4.5728,2.5994,-0.5926,5.293
2.584000,4.1191,2.6349,-0.3840,4.905
2.590000,3.6537,2.6704,-0.1642,4.529
2.594000,3.1866,2.7113,0.0399,4.184
2.598000,2.7229,2.7559,0.2426,3.882
2.603000,2.2865,2.8038,0.4313,3.644
2.608000,1.8801,2.8627,0.6273,3.482
2.615000,1.4942,2.9067,0.8280,3.372
2.618000,1.1240,2.9621,1.0259,3.330
2.624000,0.7770,3.0459,1.2207,3.372
2.628000,0.4318,3.1226,1.4004,3.449
2.633000,0.0858,3.1965,1.5691,3.562
2.672000,-0.2631,3.2633,1.7247,3.700
2.675000,-0.6196,3.3184,1.8575,3.853
2.676000,-0.9764,3.3739,1.9647,4.025
2.676000,-1.3188,3.4279,2.0248,4.194
2.677000,-1.6753,3.4662,2.0496,4.361
2.678000,-2.0051,3.4796,2.0174,4.494
2.678000,-2.3006,3.4877,1.9352,4.605
2.679000,-2.5520,3.4837,1.7936,4.676
2.679000,-2.7495,3.4993,1.6119,4.733
2.684000,-2.9000,3.5157,1.4163,4.772
2.690000,-3.0036,3.5495,1.2356,4.811
2.694000,-3.0408,3.6011,1.0529,4.829
2.699000,-3.0070,3.6706,0.8659,4.823
2.703000,-2.8782,3.7627,0.6748,4.785
2.709000,-2.6429,3.8892,0.4939,4.728
2.713000,-2.3683,4.0544,0.3280,4.707
2.719000,-2.0910,4.2073,0.1729,4.701
2.724000,-1.8495,4.3335,0.0549,4.712
2.728000,-1.6417,4.4421,0.0052,4.736
2.738000,-1.4437,4.5403,0.0022,4.764
2.738000,-1.2509,4.6540,0.0385,4.819
2.745000,-1.0799,4.7451,0.0706,4.867
2.749000,-0.9193,4.8178,0.1012,4.906
2.805000,-0.7785,4.8556,0.1160,4.919
2.807000,-0.6671,4.8512,0.1176,4.898
2.807000,-0.5661,4.8335,0.1302,4.868
2.808000,-0.4634,4.8170,0.1468,4.841
2.808000,-0.3786,4.7678,0.1653,4.786
2.808000,-0.2995,4.7054,0.1832,4.718
2.809000,-0.2117,4.6130,0.2293,4.624
2.809000,-0.1200,4.5052,0.2627,4.514
2.810000,-0.0314,4.3890,0.2474,4.396
2.810000,0.0805,4.2767,0.1881,4.282
2.810000,0.2061,4.1636,0.0926,4.170
2.811000,0.3597,4.0544,-0.0319,4.070
2.814000,0.5605,3.9638,-0.1565,4.006
2.819000,0.8084,3.8892,-0.2620,3.981
2.824000,1.1007,3.8137,-0.3530,3.985
2.829000,1.3991,3.7183,-0.4346,3.996
2.834000,1.7056,3.6120,-0.5305,4.030
2.839000,1.9963,3.5021,-0.6211,4.079
2.845000,2.2398,3.3768,-0.7017,4.112
2.849000,2.4316,3.2336,-0.7696,4.118
2.859000,2.5742,3.0824,-0.8343,4.102
2.863000,2.6989,2.9474,-0.8931,4.095
2.864000,2.7984,2.8382,-0.9457,4.096
2.904000,2.8897,2.7693,-0.9658,4.117
2.905000,2.9609,2.7621,-0.9676,4.163
2.905000,3.0118,2.7809,-0.9273,4.203
2.906000,3.0305,2.8301,-0.8547,4.234
2.906000,3.0338,2.8737,-0.7619,4.248
2.907000,3.0313,2.9117,-0.6661,4.256
2.908000,3.0229,2.9321,-0.5914,4.253
2.908000,3.0088,2.9300,-0.5450,4.235
2.909000,3.0152,2.9269,-0.5318,4.236
2.914000,3.0205,2.9205,-0.5805,4.241
2.919000,3.0127,2.9155,-0.6688,4.245
2.923000,2.9990,2.8956,-0.7751,4.240
2.929000,2.9604,2.8728,-0.8821,4.218
2.934000,2.9208,2.8521,-0.9586,4.193
2.939000,2.8682,2.8311,-1.0067,4.154
2.945000,2.8171,2.8122,-1.0005,4.104
2.950000,2.7557,2.7812,-0.9639,4.032
2.954000,2.6817,2.7596,-0.8997,3.952
2.959000,2.6309,2.7426,-0.8274,3.889
2.963000,2.5821,2.7299,-0.7521,3.832
3.007000,2.5590,2.7169,-0.6833,3.794
3.009000,2.5473,2.6868,-0.6211,3.754
3.010000,2.5277,2.6276,-0.5535,3.688
3.011000,2.4980,2.5418,-0.4756,3.595
3.011000,2.4509,2.4437,-0.3826,3.482
3.012000,2.3793,2.3239,-0.2578,3.336
3.012000,2.2953,2.2230,-0.0988,3.197
3.013000,2.2086,2.1364,0.0725,3.074
3.013000,2.1384,2.0639,0.2512,2.983
3.015000,2.0703,2.0055,0.4180,2.913
3.021000,2.0235,1.9684,0.5610,2.878
3.024000,1.9978,1.9236,0.6967,2.860
3.029000,1.9908,1.8687,0.7964,2.844
3.034000,1.9641,1.8036,0.8745,2.806
3.040000,1.9034,1.7164,0.9241,2.725
3.046000,1.8112,1.6169,0.9573,2.610
3.049000,1.7209,1.5146,0.9766,2.492
3.060000,1.6350,1.4335,0.9846,2.387
3.065000,1.5442,1.3714,0.9787,2.285
3.066000,1.4747,1.3307,0.9447,2.200
3.113000,1.4168,1.3184,0.8780,2.125
3.115000,1.3681,1.2986,0.7953,2.047
3.116000,1.3071,1.2786,0.7160,1.964
3.116000,1.2409,1.2511,0.6593,1.881
3.119000,1.1698,1.2043,0.6369,1.796
3.119000,1.1010,1.1503,0.6461,1.718
3.121000,1.0563,1.0845,0.6697,1.655
3.121000,1.0239,1.0069,0.7004,1.598
3.122000,1.0040,0.9058,0.7401,1.542
3.122000,1.0014,0.8026,0.7936,1.509
3.122000,1.0522,0.6714,0.8389,1.504
3.126000,1.1611,0.5265,0.9191,1.572
3.129000,1.3138,0.3488,1.0196,1.699
3.135000,1.4911,0.1718,1.1236,1.875
3.140000,1.6904,0.0001,1.2191,2.084
3.145000,1.8734,-0.1638,1.2989,2.286
3.150000,2.0593,-0.3438,1.3872,2.507
3.154000,2.2192,-0.5306,1.4481,2.702
3.159000,2.3556,-0.7000,1.4602,2.858
3.164000,2.4634,-0.8212,1.4503,2.974
3.173000,2.5643,-0.9206,1.3946,3.061
3.175000,2.6727,-0.9740,1.3074,3.131
3.179000,2.7956,-1.0199,1.2225,3.217
3.184000,2.9428,-1.0748,1.1803,3.348
3.223000,3.1022,-1.1651,1.1808,3.518
3.224000,3.2836,-1.2810,1.2213,3.730
3.224000,3.4798,-1.4082,1.2895,3.969
3.225000,3.6813,-1.5084,1.3854,4.213
3.225000,3.8831,-1.5939,1.4992,4.457
3.225000,4.0492,-1.6266,1.6261,4.657
3.226000,4.1723,-1.6426,1.7586,4.817
3.226000,4.2548,-1.6735,1.8968,4.950
3.235000,4.3085,-1.6930,2.0521,5.064
3.237000,4.2905,-1.7206,2.1764,5.109
3.249000,4.2152,-1.7516,2.2452,5.087
3.250000,4.0828,-1.7859,2.2515,4.993
3.250000,3.9295,-1.8161,2.1807,4.847
3.264000,3.7771,-1.8781,2.0180,4.676
3.264000,3.6641,-1.9998,1.7761,4.536
3.265000,3.6172,-2.1448,1.4337,4.443
3.279000,3.6530,-2.2602,1.0246,4.416
3.281000,3.7550,-2.3624,0.5663,4.472
3.281000,3.9467,-2.4153,0.0307,4.627
3.296000,4.1731,-2.4022,-0.5335,4.845
3.297000,4.4478,-2.3016,-1.0964,5.127
3.298000,4.7275,-2.1236,-1.6478,5.438
3.299000,5.0018,-1.8448,-2.1751,5.758
3.305000,5.2487,-1.4779,-2.6443,6.060
3.309000,5.4390,-1.0498,-3.0838,6.340
3.314000,5.5721,-0.5662,-3.4719,6.590
3.350000,5.6310,-0.0275,-3.8419,6.817
3.353000,5.6298,0.5443,-4.1698,7.027
3.354000,5.5899,1.1321,-4.4509,7.235
3.355000,5.5206,1.6806,-4.6924,7.438
3.356000,5.4218,2.1510,-4.8774,7.603
3.356000,5.2792,2.4863,-5.0182,7.696
3.357000,5.1094,2.7053,-5.1050,7.713
3.357000,4.8864,2.7890,-5.1191,7.607
3.361000,4.6484,2.7591,-5.0750,7.415
3.366000,4.3864,2.6302,-4.9946,7.149
3.370000,4.1171,2.4192,-4.8974,6.840
3.375000,3.8415,2.1340,-4.7790,6.492
3.380000,3.5789,1.8133,-4.6424,6.136
3.387000,3.3274,1.4908,-4.5001,5.792
3.390000,3.0873,1.1642,-4.3165,5.433
3.395000,2.8827,0.8408,-4.1023,5.084
3.400000,2.6761,0.5139,-3.8653,4.729
3.406000,2.4841,0.1905,-3.6302,4.403
3.410000,2.2688,-0.1293,-3.3783,4.072
3.414000,2.0183,-0.4263,-3.1289,3.748
3.457000,1.7545,-0.6905,-2.8702,3.434
3.458000,1.4819,-0.8935,-2.6114,3.133
3.458000,1.2011,-1.0488,-2.3380,2.830
3.458000,0.9189,-1.1639,-2.0354,2.518
3.459000,0.6592,-1.2387,-1.7130,2.214
3.459000,0.6252,-1.2998,-1.7055,2.234
3.459000,0.4122,-1.3095,-1.3573,1.931
3.460000,0.1188,-1.1668,-0.6759,1.354
3.460000,-0.0473,-1.0950,-0.3695,1.157
3.466000,-0.2321,-1.0344,-0.1049,1.065
3.470000,-0.4693,-0.9778,0.1394,1.093
3.475000,-0.7442,-0.9011,0.3615,1.223
3.480000,-1.0284,-0.8286,0.5545,1.432
3.485000,-1.3286,-0.7331,0.7498,1.693
3.489000,-1.6115,-0.6338,0.9236,1.963
3.495000,-1.8913,-0.5212,1.0853,2.242
3.500000,-2.1393,-0.4167,1.2230,2.499
3.505000,-2.3890,-0.3346,1.3272,2.753
3.510000,-2.6093,-0.2725,1.3814,2.965
3.514000,-2.7857,-0.2369,1.4095,3.131
3.521000,-2.9039,-0.2015,1.4189,3.238
3.526000,-2.9786,-0.1716,1.3882,3.291
3.529000,-3.0168,-0.1516,1.3317,3.301
3.577000,-3.0404,-0.1233,1.2450,3.288
3.579000,-3.0683,-0.1193,1.1279,3.271
3.579000,-3.0982,-0.1497,1.0140,3.263
3.580000,-3.1492,-0.2073,0.8983,3.281
3.580000,-3.2213,-0.2826,0.7757,3.325
3.580000,-3.2974,-0.3825,0.6244,3.378
3.581000,-3.3800,-0.5051,0.4467,3.447
3.581000,-3.4688,-0.6373,0.2328,3.535
3.582000,-3.5709,-0.7815,0.0114,3.655
3.585000,-3.6743,-0.9471,-0.2128,3.800
3.586000,-3.7764,-1.1265,-0.4326,3.965
3.590000,-3.8584,-1.3056,-0.6359,4.123
3.596000,-3.9294,-1.4591,-0.7966,4.267
3.601000,-3.9921,-1.6141,-0.9243,4.404
3.606000,-4.0393,-1.7774,-1.0191,4.529
3.611000,-4.0637,-1.9420,-1.0765,4.631
3.615000,-4.0774,-2.1316,-1.1205,4.735
3.621000,-4.0876,-2.3441,-1.1466,4.850
3.628000,-4.0988,-2.5809,-1.1620,4.981
3.630000,-4.1066,-2.8398,-1.1737,5.129
3.680000,-4.0965,-3.1063,-1.1864,5.276
3.681000,-4.0806,-3.3516,-1.2121,5.418
3.682000,-4.0398,-3.6019,-1.2505,5.555
3.682000,-3.9982,-3.8598,-1.3206,5.712
3.683000,-3.9389,-4.1027,-1.3911,5.855
3.683000,-3.8886,-4.3477,-1.4833,6.019
3.683000,-3.8232,-4.5730,-1.5613,6.162
3.684000,-3.7405,-4.7907,-1.6344,6.294
3.684000,-3.6597,-4.9794,-1.6834,6.405
3.685000,-3.5857,-5.1817,-1.7180,6.531
3.689000,-3.5184,-5.3786,-1.7335,6.657
3.690000,-3.4555,-5.5941,-1.7491,6.804
3.696000,-3.3994,-5.8015,-1.7457,6.947
3.700000,-3.3308,-6.0462,-1.7259,7.115
3.707000,-3.2618,-6.3089,-1.6949,7.302
3.712000,-3.1803,-6.5986,-1.6576,7.510
3.715000,-3.0911,-6.9079,-1.6308,7.742
3.722000,-2.9774,-7.2294,-1.6050,7.982
3.726000,-2.8443,-7.5317,-1.5801,8.204
3.730000,-2.7227,-7.7836,-1.5560,8.392
3.769000,-2.5863,-8.0233,-1.5327,8.568
3.769000,-2.4664,-8.2363,-1.4932,8.726
3.770000,-2.3414,-8.4392,-1.4230,8.873
3.770000,-2.2186,-8.6511,-1.3174,9.028
3.771000,-2.0810,-8.8574,-1.1837,9.175
3.771000,-1.9119,-9.0938,-1.0170,9.348
3.771000,-1.7283,-9.3175,-0.8506,9.514
3.772000,-1.5277,-9.5235,-0.6914,9.670
3.776000,-1.3316,-9.7050,-0.5466,9.811
3.781000,-1.1640,-9.8547,-0.4158,9.932
3.785000,-1.0129,-10.0135,-0.2844,10.069
3.790000,-0.8805,-10.1570,-0.1501,10.196
3.796000,-0.7787,-10.2833,-0.0078,10.313
3.801000,-0.7171,-10.3586,0.1233,10.384
3.805000,-0.6835,-10.3976,0.2601,10.423
3.810000,-0.7018,-10.3788,0.3789,10.409
3.815000,-0.7648,-10.3026,0.4634,10.341
3.820000,-0.8362,-10.2070,0.5303,10.255
3.828000,-0.8613,-10.1458,0.5439,10.197
3.831000,-0.8542,-10.1136,0.4201,10.158
3.841000,-0.8099,-10.0820,0.1882,10.116
3.842000,-0.7526,-10.0555,-0.1276,10.084
3.845000,-0.6627,-10.0050,-0.5031,10.040
3.851000,-0.5310,-9.8887,-0.9018,9.944
3.880000,-0.3812,-9.7229,-1.2712,9.813
3.881000,-0.2420,-9.4865,-1.6423,9.631
3.881000,-0.1108,-9.1605,-2.0081,9.379
3.882000,0.0463,-8.7764,-2.3668,9.090
3.882000,0.2318,-8.3171,-2.7329,8.758
3.882000,0.4387,-7.7534,-3.0977,8.361
3.891000,0.6813,-7.0803,-3.4903,7.923
3.892000,0.9336,-6.3174,-3.8750,7.470
3.897000,1.2051,-5.4967,-4.2116,7.029
3.903000,1.4908,-4.6428,-4.4669,6.613
3.905000,1.8221,-3.7986,-4.6341,6.263
3.911000,2.1838,-3.0045,-4.6804,5.975
3.916000,2.5640,-2.2725,-4.6396,5.768
3.921000,2.9647,-1.5914,-4.5193,5.634
3.927000,3.3135,-0.9811,-4.3384,5.546
3.935000,3.6104,-0.4390,-4.0943,5.476
3.938000,3.8231,0.0330,-3.8082,5.396
3.941000,3.9825,0.4638,-3.4677,5.301
3.946000,4.0499,0.8148,-3.0844,5.155
3.950000,4.0201,1.1146,-2.6700,4.953
3.977000,3.8977,1.3319,-2.2364,4.687
3.978000,3.6901,1.4699,-1.8098,4.365
3.978000,3.3847,1.5159,-1.3809,3.957
3.978000,3.0180,1.4947,-0.9950,3.512
3.979000,2.6092,1.4429,-0.6498,3.052
3.980000,2.1923,1.3754,-0.3717,2.615
3.987000,1.7458,1.3118,-0.1822,2.191
3.990000,1.2967,1.2723,-0.0719,1.818
3.996000,0.8568,1.2374,-0.0527,1.506
4.001000,0.4505,1.2056,-0.0624,1.289
4.006000,0.0830,1.1752,-0.0938,1.182
4.011000,-0.2072,1.1681,-0.1617,1.197
4.015000,-0.4343,1.1677,-0.2804,1.277
4.021000,-0.5883,1.1747,-0.4285,1.382
4.026000,-0.6744,1.1864,-0.6081,1.494
4.030000,-0.7091,1.2342,-0.8024,1.634
4.037000,-0.7188,1.2800,-1.0015,1.777
4.041000,-0.6962,1.3598,-1.1934,1.939
4.046000,-0.6459,1.4883,-1.3682,2.122
4.050000,-0.5326,1.6622,-1.5260,2.319
4.088000,-0.3584,1.8987,-1.6574,2.546
4.089000,-0.1451,2.1805,-1.7670,2.810
4.090000,0.0830,2.4979,-1.8406,3.104
4.090000,0.3067,2.8241,-1.8997,3.417
4.090000,0.5020,3.1689,-1.9445,3.752
4.091000,0.6613,3.5050,-1.9606,4.070
4.091000,0.7893,3.8137,-1.9428,4.352
4.092000,0.8884,4.1021,-1.8624,4.592
4.095000,0.9753,4.3677,-1.7313,4.798
4.101000,1.0762,4.6344,-1.5642,5.008
4.106000,1.1865,4.8737,-1.3873,5.204
4.111000,1.3078,5.1278,-1.2152,5.430
4.115000,1.4282,5.3801,-1.0434,5.663
4.121000,1.5523,5.6255,-0.8694,5.900
4.126000,1.6679,5.8520,-0.6815,6.123
4.131000,1.7463,6.0548,-0.4726,6.319
4.136000,1.8109,6.2044,-0.2651,6.469
4.141000,1.8739,6.3011,-0.0688,6.574
4.146000,1.9257,6.3427,0.1041,6.629
4.161000,1.9593,6.3459,0.2224,6.645
4.162000,1.9722,6.3206,0.2791,6.627
4.163000,1.9671,6.3076,0.3200,6.615
4.166000,1.9481,6.2707,0.3454,6.575
4.213000,1.9468,6.2199,0.3817,6.529
4.214000,1.9654,6.1290,0.3957,6.449
4.214000,2.0212,5.9984,0.3969,6.342
4.214000,2.1212,5.8690,0.3639,6.251
4.215000,2.2920,5.7315,0.2947,6.180
4.215000,2.5235,5.5978,0.2066,6.144
4.216000,2.7893,5.4702,0.1287,6.142
4.216000,3.0843,5.3368,0.0684,6.164
4.217000,3.3917,5.2168,0.0234,6.222
4.218000,3.7234,5.1196,0.0204,6.330
4.223000,4.0481,5.0094,0.0641,6.441
4.226000,4.3464,4.8906,0.1687,6.545
4.231000,4.5894,4.7655,0.3197,6.624
4.236000,4.7843,4.6268,0.5192,6.676
4.241000,4.9429,4.4694,0.7475,6.706
4.247000,5.0631,4.2981,0.9610,6.711
4.252000,5.1307,4.1105,1.1282,6.670
4.256000,5.1696,3.9208,1.2440,6.606
4.261000,5.1610,3.7389,1.2988,6.504
4.266000,5.1123,3.5600,1.2977,6.363
4.272000,5.0355,3.3914,1.2502,6.198
4.276000,4.9430,3.2262,1.1636,6.016
4.281000,4.8468,3.0670,1.0598,5.833
4.291000,4.7832,2.9139,0.9122,5.675
4.293000,4.7211,2.7479,0.7547,5.514
4.297000,4.6582,2.5619,0.5775,5.348
4.340000,4.5874,2.3371,0.3834,5.163
4.341000,4.5016,2.1022,0.1825,4.972
4.342000,4.3819,1.8600,-0.0298,4.760
4.342000,4.2427,1.6084,-0.2194,4.543
4.342000,4.1036,1.3716,-0.3934,4.345
4.343000,4.0007,1.1307,-0.5661,4.196
4.343000,3.9485,0.8861,-0.7233,4.111
4.343000,3.9571,0.6358,-0.8646,4.100
4.344000,4.0480,0.3610,-0.9829,4.181
4.346000,4.2405,0.0665,-1.0592,4.371
4.352000,4.5012,-0.2234,-1.1172,4.643
4.357000,4.8084,-0.4608,-1.1569,4.967
4.361000,5.1285,-0.6413,-1.1929,5.304
4.369000,5.4375,-0.7457,-1.1987,5.618
4.371000,5.7378,-0.7888,-1.1842,5.912
4.376000,6.0194,-0.7755,-1.1206,6.172
4.381000,6.2729,-0.7516,-1.0251,6.400
4.389000,6.5172,-0.7220,-0.8812,6.616
4.391000,6.7499,-0.6942,-0.6821,6.820
4.396000,6.9923,-0.6445,-0.4476,7.036
4.426000,7.2322,-0.5568,-0.2164,7.257
4.427000,7.4429,-0.4050,-0.0031,7.454
4.428000,7.6361,-0.1610,0.1444,7.639
4.428000,7.7826,0.1795,0.2046,7.787
4.428000,7.8557,0.5824,0.2137,7.880
4.429000,7.8597,1.0378,0.1939,7.930
4.431000,7.7729,1.5286,0.1739,7.924
4.437000,7.6189,2.0591,0.1609,7.894
4.442000,7.4404,2.5691,0.1622,7.873
4.446000,7.2682,3.0414,0.2013,7.881
4.452000,7.1070,3.4424,0.2491,7.901
4.457000,6.9709,3.7691,0.2953,7.930
4.462000,6.8595,4.0021,0.3182,7.948
4.468000,6.7534,4.1268,0.3007,7.920
4.472000,6.6693,4.1667,0.2119,7.867
4.477000,6.5947,4.0882,0.0450,7.759
4.482000,6.5039,3.8895,-0.1993,7.581
4.492000,6.4016,3.6090,-0.4866,7.365
4.493000,6.2715,3.2639,-0.7921,7.114
4.496000,6.1187,2.8884,-1.0717,6.850
4.502000,5.9504,2.5109,-1.2774,6.584
4.506000,5.7583,2.1471,-1.4136,6.306
4.512000,5.5685,1.8083,-1.4688,6.036
4.518000,5.3670,1.4637,-1.4812,5.757
4.558000,5.1279,1.1205,-1.4633,5.449
4.559000,4.8443,0.8147,-1.4390,5.119
4.559000,4.5401,0.5337,-1.4228,4.788
4.560000,4.1901,0.2717,-1.4003,4.426
4.560000,3.7868,0.0424,-1.3619,4.024
4.560000,3.3427,-0.1731,-1.3198,3.598
4.561000,2.8726,-0.3675,-1.2981,3.174
4.561000,2.3937,-0.5667,-1.2850,2.775
4.563000,1.9465,-0.7613,-1.2686,2.445
4.566000,1.5706,-0.9521,-1.2804,2.239
4.572000,1.2634,-1.1392,-1.3371,2.164
4.577000,1.0033,-1.2771,-1.4147,2.154
4.582000,0.7954,-1.3655,-1.4919,2.173
4.591000,0.5964,-1.4096,-1.5377,2.170
4.593000,0.4059,-1.4410,-1.5305,2.141
4.597000,0.2009,-1.4994,-1.4714,2.110
4.634000,-0.0117,-1.5829,-1.3629,2.089
4.635000,-0.2150,-1.6985,-1.2346,2.111
4.635000,-0.3970,-1.8055,-1.0916,2.147
4.635000,-0.5436,-1.9263,-0.9531,2.217
4.636000,-0.6638,-2.0497,-0.8241,2.307
4.636000,-0.7676,-2.1887,-0.7044,2.424
4.636000,-0.8790,-2.3146,-0.6034,2.548
4.637000,-1.0076,-2.4443,-0.5138,2.693
4.641000,-1.1774,-2.5824,-0.4351,2.871
4.647000,-1.3910,-2.7300,-0.3908,3.089
4.653000,-1.6477,-2.9016,-0.3782,3.358
4.657000,-1.9070,-3.0931,-0.3705,3.653
4.663000,-2.1714,-3.2635,-0.3939,3.940
4.668000,-2.4550,-3.4125,-0.4457,4.227
4.672000,-2.7319,-3.5886,-0.5184,4.540
4.677000,-2.9942,-3.7778,-0.5811,4.855
4.682000,-3.2230,-3.9708,-0.6242,5.152
4.690000,-3.4136,-4.1460,-0.6456,5.409
4.692000,-3.5946,-4.3007,-0.6765,5.646
4.697000,-3.7734,-4.4494,-0.7048,5.876
4.744000,-3.9501,-4.6044,-0.6996,6.107
4.745000,-4.0908,-4.7949,-0.6684,6.338
4.746000,-4.2053,-4.9928,-0.5781,6.553
4.746000,-4.2746,-5.2169,-0.4579,6.760
4.746000,-4.3248,-5.4505,-0.3130,6.965
4.747000,-4.3658,-5.7290,-0.1701,7.205
4.748000,-4.4095,-6.0337,-0.0460,7.473
4.748000,-4.4439,-6.3320,0.0591,7.736
4.749000,-4.4644,-6.6478,0.1454,8.009
4.749000,-4.4448,-6.9713,0.2200,8.271
4.754000,-4.4019,-7.2951,0.2639,8.524
4.757000,-4.3409,-7.6074,0.2680,8.763
4.762000,-4.2618,-7.9044,0.2279,8.983
4.767000,-4.1673,-8.1745,0.1606,9.177
4.772000,-4.0862,-8.4130,0.0546,9.353
4.778000,-4.0283,-8.6316,-0.0681,9.526
4.783000,-3.9723,-8.8110,-0.2026,9.667
4.791000,-3.9325,-8.9780,-0.3342,9.807
4.793000,-3.8875,-9.1481,-0.4511,9.950
4.797000,-3.8543,-9.3075,-0.5482,10.089
4.840000,-3.8161,-9.4439,-0.6400,10.206
4.841000,-3.7898,-9.5622,-0.7216,10.311
4.842000,-3.7635,-9.6456,-0.7859,10.384
4.842000,-3.7755,-9.6990,-0.8424,10.442
4.843000,-3.8162,-9.7246,-0.8864,10.484
4.843000,-3.8832,-9.7297,-0.8988,10.514
4.843000,-3.9430,-9.7188,-0.8802,10.525
4.844000,-4.0002,-9.6942,-0.8378,10.521
4.844000,-4.0286,-9.6678,-0.7767,10.502
4.847000,-4.0234,-9.6253,-0.7164,10.457
4.853000,-3.9509,-9.5738,-0.6331,10.376
4.858000,-3.8232,-9.4968,-0.5341,10.251
4.862000,-3.6330,-9.4281,-0.4127,10.112
4.869000,-3.4305,-9.3608,-0.2666,9.973
4.872000,-3.2252,-9.3236,-0.1342,9.867
4.878000,-3.0051,-9.3148,0.0016,9.788
4.883000,-2.8061,-9.3151,0.1288,9.729
4.888000,-2.6136,-9.2792,0.2238,9.643
4.893000,-2.4396,-9.2144,0.2870,9.536
4.897000,-2.2794,-9.1019,0.3283,9.389
4.908000,-2.1232,-8.9514,0.3697,9.207
4.909000,-2.0095,-8.7736,0.4380,9.011
4.912000,-1.9189,-8.6164,0.4996,8.842
4.917000,-1.8802,-8.4682,0.5237,8.690
4.958000,-1.8788,-8.3578,0.4865,8.580
4.959000,-1.9051,-8.2421,0.3859,8.468
4.959000,-1.9349,-8.1084,0.1978,8.338
4.960000,-1.9300,-7.9288,-0.0824,8.161
4.960000,-1.8686,-7.7028,-0.3950,7.936
4.960000,-1.7650,-7.4065,-0.7187,7.648
4.961000,-1.6143,-7.0809,-1.0298,7.335
4.961000,-1.4354,-6.7399,-1.3165,7.016
4.963000,-1.2190,-6.4018,-1.5572,6.700
4.969000,-0.9459,-6.0376,-1.7519,6.357
4.972000,-0.6304,-5.6217,-1.9104,5.971
4.977000,-0.2463,-5.1760,-2.0351,5.567
4.983000,0.1608,-4.6966,-2.1360,5.162
4.988000,0.5982,-4.2121,-2.2037,4.791
4.993000,1.0438,-3.7510,-2.2261,4.485
4.997000,1.4855,-3.3298,-2.2036,4.260
5.004000,1.9161,-2.9374,-2.1241,4.100
5.007000,2.3184,-2.5715,-2.0234,4.010
5.012000,2.6564,-2.2280,-1.8825,3.945
5.017000,2.9423,-1.9231,-1.7087,3.908
5.048000,3.1658,-1.6487,-1.5136,3.877
5.049000,3.3222,-1.4043,-1.2997,3.834
5.049000,3.4379,-1.1897,-1.0741,3.793
5.049000,3.5175,-0.9740,-0.8273,3.742
5.050000,3.6017,-0.7591,-0.5880,3.728
5.050000,3.6421,-0.5559,-0.3369,3.700
5.058000,3.6244,-0.3781,-0.0907,3.645
5.059000,3.5604,-0.2379,0.1557,3.572
5.062000,3.4330,-0.1258,0.3931,3.458
5.068000,3.2327,-0.0251,0.6118,3.290
5.075000,2.9764,0.0435,0.7760,3.076
5.081000,2.6592,0.1008,0.8810,2.803
5.084000,2.3028,0.1501,0.9318,2.489
5.089000,1.9384,0.1870,0.9311,2.159
5.093000,1.5806,0.2098,0.8765,1.820
5.098000,1.2294,0.2066,0.7873,1.474
5.104000,0.9043,0.2236,0.6468,1.134
5.108000,0.6002,0.2579,0.4381,0.787
5.113000,0.3079,0.3053,0.1803,0.470
5.128000,0.0298,0.3802,-0.1243,0.401
5.129000,-0.2506,0.4901,-0.4543,0.714
5.129000,-0.5307,0.5901,-0.7998,1.127
5.133000,-0.8011,0.7088,-1.1225,1.551
5.196000,-1.0038,0.8611,-1.4154,1.937
5.197000,-1.1318,1.0329,-1.6786,2.273
5.198000,-1.2040,1.2457,-1.9289,2.593
5.198000,-1.2516,1.4780,-2.1570,2.899
5.199000,-1.2483,1.7249,-2.3463,3.168
5.199000,-1.2327,2.0002,-2.5208,3.446
5.199000,-1.1975,2.2752,-2.6592,3.699
5.200000,-1.1644,2.5474,-2.7616,3.933
5.200000,-1.1239,2.8168,-2.8160,4.139
5.201000,-1.1046,3.0735,-2.8348,4.325
5.201000,-1.0943,3.2966,-2.8130,4.470
5.202000,-1.0817,3.5067,-2.7460,4.583
5.204000,-1.0593,3.7065,-2.6482,4.677
5.205000,-1.0511,3.8985,-2.5103,4.754
5.209000,-1.0379,4.0778,-2.3517,4.820
5.214000,-1.0267,4.2444,-2.1843,4.883
5.218000,-1.0251,4.3643,-2.0157,4.915
5.223000,-1.0305,4.4546,-1.8603,4.936
5.229000,-1.0283,4.5226,-1.7160,4.945
5.234000,-1.0162,4.5754,-1.6067,4.955
5.238000,-0.9869,4.6109,-1.5370,4.960
5.243000,-0.9619,4.6175,-1.4945,4.948
5.248000,-0.9344,4.6140,-1.4572,4.928
5.282000,-0.8947,4.5746,-1.3791,4.861
5.283000,-0.8500,4.5400,-1.2649,4.789
5.283000,-0.7836,4.4863,-1.1289,4.692
5.283000,-0.6788,4.4326,-0.9878,4.592
5.284000,-0.5474,4.3936,-0.8585,4.510
5.284000,-0.3828,4.3543,-0.7528,4.435
5.284000,-0.1729,4.3244,-0.6683,4.379
5.289000,0.0728,4.2752,-0.6074,4.319
5.294000,0.3587,4.2259,-0.5437,4.276
5.303000,0.6780,4.1742,-0.4629,4.254
5.304000,0.9965,4.1219,-0.4081,4.260
5.308000,1.3192,4.0692,-0.3553,4.292
5.313000,1.6508,4.0115,-0.3093,4.349
5.319000,1.9891,3.9247,-0.2484,4.407
5.323000,2.3362,3.8280,-0.1753,4.488
5.328000,2.6757,3.7335,-0.0923,4.594
5.333000,2.9832,3.6433,-0.0232,4.709
5.339000,3.2754,3.5670,0.0536,4.843
5.343000,3.5379,3.4948,0.1334,4.975
5.349000,3.7803,3.4028,0.1993,5.090
5.359000,3.9881,3.2837,0.2465,5.172
5.360000,4.1807,3.1596,0.2776,5.248
5.363000,4.3842,3.0419,0.2737,5.343
5.369000,4.6010,2.9454,0.2349,5.468
5.410000,4.8477,2.8891,0.1784,5.646
5.410000,5.0883,2.8443,0.1403,5.831
5.411000,5.3492,2.8160,0.1207,6.046
5.411000,5.5964,2.7701,0.1458,6.246
5.412000,5.8421,2.7094,0.2201,6.444
5.412000,6.0816,2.6168,0.3602,6.631
5.412000,6.2958,2.5020,0.5297,6.795
5.413000,6.4749,2.3646,0.7256,6.931
5.413000,6.6194,2.2265,0.8905,7.040
5.419000,6.7431,2.1063,1.0385,7.140
5.423000,6.8343,2.0135,1.1600,7.219
5.429000,6.8977,1.9769,1.2263,7.279
5.434000,6.9498,1.9865,1.2470,7.335
5.438000,6.9855,2.0158,1.2225,7.373
5.444000,6.9975,2.0457,1.1697,7.384
5.480000,7.0048,2.0592,1.0957,7.383
5.481000,7.0027,2.0396,0.9886,7.360
5.481000,7.0055,1.9917,0.8626,7.334
5.481000,7.0180,1.9203,0.6917,7.309
5.482000,7.0329,1.8449,0.4785,7.287
5.482000,7.0479,1.7534,0.2595,7.267
5.482000,7.0414,1.6483,0.0467,7.232
5.486000,7.0037,1.5490,-0.1212,7.174
5.489000,6.9327,1.4292,-0.2606,7.083
5.494000,6.8047,1.2796,-0.3431,6.932
5.499000,6.6368,1.1315,-0.3925,6.744
5.505000,6.4319,0.9853,-0.3900,6.519
5.508000,6.2048,0.8434,-0.3384,6.271
5.514000,5.9965,0.7349,-0.2451,6.046
5.521000,5.8098,0.6456,-0.1131,5.847
5.524000,5.6667,0.5780,0.0283,5.696
5.528000,5.5841,0.5776,0.1956,5.617
5.534000,5.5334,0.6468,0.3283,5.581
5.538000,5.5121,0.7925,0.4239,5.585
5.544000,5.5152,1.0239,0.5015,5.632
5.549000,5.5397,1.3622,0.5636,5.733
5.554000,5.5639,1.7708,0.6102,5.871
5.558000,5.5728,2.2325,0.6505,6.038
5.563000,5.6091,2.6822,0.6869,6.255
5.613000,5.6844,3.0907,0.7261,6.511
5.614000,5.7744,3.4193,0.7846,6.757
5.615000,5.8833,3.6772,0.8289,6.987
5.615000,5.9817,3.8854,0.8498,7.183
5.615000,6.0718,4.0245,0.8476,7.334
5.616000,6.1124,4.1252,0.8059,7.418
5.616000,6.0986,4.1538,0.7129,7.413
5.616000,6.0543,4.1007,0.5979,7.337
5.617000,5.9846,3.9567,0.4610,7.189
5.617000,5.8730,3.7121,0.3145,6.955
5.622000,5.7227,3.4209,0.1541,6.669
5.625000,5.5171,3.1261,0.0546,6.341
5.629000,5.2782,2.8472,0.0352,5.997
5.634000,5.0135,2.6153,0.1270,5.656
5.639000,4.7425,2.4041,0.2932,5.325
5.644000,4.5083,2.2204,0.4995,5.050
5.649000,4.3046,2.0458,0.6995,4.817
5.655000,4.1075,1.8677,0.8761,4.596
5.659000,3.9002,1.6790,1.0049,4.364
5.663000,3.6881,1.4823,1.0931,4.122
5.708000,3.5042,1.2794,1.1384,3.900
5.709000,3.3376,1.0789,1.1602,3.695
5.709000,3.2193,0.8613,1.1729,3.533
5.710000,3.1253,0.6076,1.1887,3.399
5.710000,3.0654,0.3037,1.2054,3.308
5.710000,3.0012,-0.0218,1.2042,3.234
5.711000,2.9181,-0.3526,1.1926,3.172
5.711000,2.8288,-0.6754,1.1736,3.136
5.711000,2.7090,-0.9814,1.1519,3.103
5.714000,2.5687,-1.2941,1.1350,3.092
5.720000,2.4223,-1.5894,1.1038,3.100
5.724000,2.2937,-1.8791,1.0538,3.147
5.729000,2.1470,-2.1567,0.9685,3.194
5.735000,1.9876,-2.3965,0.8197,3.220
5.739000,1.8080,-2.5534,0.6320,3.192
5.744000,1.6251,-2.6539,0.4490,3.144
5.749000,1.4242,-2.6907,0.2736,3.057
5.754000,1.2218,-2.6984,0.1609,2.966
5.762000,1.0138,-2.7161,0.0748,2.900
5.765000,0.7759,-2.7090,0.0080,2.818
5.772000,0.5226,-2.7153,-0.0490,2.766
5.776000,0.2635,-2.7521,-0.1369,2.768
5.781000,-0.0229,-2.8117,-0.2485,2.823
5.784000,-0.3081,-2.8853,-0.3713,2.925
5.831000,-0.5746,-2.9759,-0.4985,3.072
5.833000,-0.8322,-3.0960,-0.6301,3.267
5.833000,-1.0808,-3.2384,-0.7542,3.496
5.833000,-1.3178,-3.4002,-0.8879,3.753
5.834000,-1.5766,-3.6029,-1.0222,4.063
5.835000,-1.8142,-3.8302,-1.1546,4.393
5.836000,-2.0349,-4.0585,-1.2766,4.716
5.836000,-2.2242,-4.3149,-1.3647,5.043
5.837000,-2.3894,-4.6013,-1.4411,5.381
5.837000,-2.5257,-4.8986,-1.5137,5.716
5.841000,-2.6402,-5.1954,-1.5398,6.028
5.845000,-2.7375,-5.4782,-1.5372,6.314
5.851000,-2.8320,-5.7645,-1.5113,6.598
5.856000,-2.9549,-6.0615,-1.4218,6.892
5.861000,-3.0964,-6.3785,-1.2934,7.207
5.866000,-3.2734,-6.7232,-1.1336,7.563
5.870000,-3.4690,-7.0815,-0.9501,7.943
5.875000,-3.6783,-7.4727,-0.7312,8.361
5.880000,-3.8537,-7.8651,-0.5034,8.773
5.885000,-3.9713,-8.2771,-0.3079,9.186
5.891000,-4.0432,-8.6914,-0.1400,9.587
5.896000,-4.0934,-9.1151,-0.0043,9.992
5.901000,-4.0984,-9.5583,0.0924,10.400
5.906000,-4.0727,-9.9827,0.1626,10.783
5.910000,-4.0143,-10.3637,0.1997,11.116
5.914000,-3.9378,-10.6700,0.2165,11.375
5.970000,-3.8770,-10.9181,0.2040,11.588
5.973000,-3.8154,-11.1154,0.1771,11.753
5.974000,-3.7701,-11.2635,0.1443,11.879
5.978000,-3.7101,-11.3626,0.0866,11.953
5.981000,-3.6549,-11.4439,0.0022,12.013
5.982000,-3.5855,-11.4788,-0.0866,12.026
5.983000,-3.4949,-11.4868,-0.1532,12.008
5.984000,-3.4121,-11.4894,-0.1943,11.987
5.986000,-3.3754,-11.4680,-0.2769,11.958
5.988000,-3.3729,-11.4180,-0.3646,11.911
5.989000,-3.3855,-11.3752,-0.4428,11.877
5.990000,-3.4396,-11.3684,-0.5137,11.888
5.991000,-3.4730,-11.3851,-0.5532,11.916
5.992000,-3.5122,-11.4041,-0.5581,11.946
5.992000,-3.5380,-11.4397,-0.5574,11.987
5.996000,-3.5456,-11.4774,-0.5415,12.025
6.001000,-3.5707,-11.5007,-0.5105,12.053
6.007000,-3.5917,-11.5071,-0.4837,12.064
6.010000,-3.6035,-11.4391,-0.4929,12.003
6.014000,-3.6082,-11.2998,-0.5095,11.873
6.051000,-3.6104,-11.1060,-0.5269,11.690
6.052000,-3.6001,-10.8771,-0.5290,11.470
6.053000,-3.5867,-10.6493,-0.5136,11.249
6.053000,-3.5652,-10.4250,-0.4974,11.029
6.053000,-3.5283,-10.1943,-0.5021,10.799
6.054000,-3.4685,-9.9251,-0.5635,10.529
6.054000,-3.3714,-9.6004,-0.6695,10.197
6.057000,-3.2633,-9.2183,-0.8152,9.813
6.061000,-3.1487,-8.7649,-0.9954,9.366
6.067000,-3.0277,-8.2741,-1.1930,8.891
6.072000,-2.8690,-7.7839,-1.3840,8.410
6.077000,-2.6296,-7.2725,-1.5758,7.892
6.080000,-2.2974,-6.7444,-1.7707,7.342
6.086000,-1.8990,-6.2102,-1.9784,6.789
6.091000,-1.4440,-5.6900,-2.1777,6.261
6.096000,-0.9514,-5.1694,-2.3613,5.762
6.100000,-0.4624,-4.6534,-2.5394,5.321
6.110000,-0.0057,-4.1682,-2.6954,4.964
6.111000,0.3828,-3.7309,-2.8059,4.684
6.115000,0.7103,-3.3207,-2.8616,4.441
6.151000,0.9862,-2.9377,-2.8439,4.206
6.153000,1.2180,-2.5888,-2.7698,3.982
6.153000,1.3858,-2.2760,-2.6280,3.743
6.154000,1.4922,-1.9939,-2.4499,3.493
6.155000,1.4942,-1.7475,-2.2765,3.236
6.155000,1.4037,-1.5558,-2.1008,2.967
6.156000,1.2136,-1.4233,-1.9563,2.707
6.156000,0.9411,-1.3534,-1.8503,2.478
6.161000,0.6459,-1.3202,-1.7776,2.307
6.167000,0.3546,-1.2864,-1.7547,2.204
6.172000,0.0986,-1.2442,-1.7307,2.134
6.176000,-0.1272,-1.1643,-1.6909,2.057
6.181000,-0.3393,-1.0823,-1.6060,1.966
6.186000,-0.5183,-1.0047,-1.4805,1.863
6.191000,-0.6698,-0.9107,-1.3235,1.741
6.196000,-0.7502,-0.7782,-1.1683,1.592
6.200000,-0.7600,-0.6193,-1.0220,1.416
6.206000,-0.7063,-0.4293,-0.9176,1.235
6.211000,-0.6274,-0.2344,-0.8049,1.047
6.215000,-0.5171,-0.0169,-0.6691,0.846
6.268000,-0.4136,0.2066,-0.5057,0.685
6.269000,-0.3362,0.4382,-0.3197,0.638
6.269000,-0.2872,0.6514,-0.1519,0.728
6.269000,-0.2572,0.8435,-0.0076,0.882
6.269000,-0.2432,1.0057,0.1055,1.040
6.270000,-0.2339,1.1726,0.1729,1.208
6.270000,-0.2289,1.3091,0.2086,1.345
6.270000,-0.2041,1.4175,0.2173,1.449
6.270000,-0.1906,1.4934,0.2085,1.520
6.271000,-0.1762,1.5345,0.1675,1.554
6.271000,-0.1389,1.5822,0.0992,1.591
6.277000,-0.0433,1.6693,-0.0108,1.670
6.281000,0.0964,1.7745,-0.1289,1.782
6.286000,0.2730,1.9241,-0.2623,1.961
6.291000,0.4934,2.0678,-0.4012,2.163
6.298000,0.7411,2.2034,-0.5482,2.388
6.307000,1.2663,2.3730,-0.8632,2.825
6.308000,1.3348,2.4433,-0.8770,2.919
6.311000,1.6835,2.5672,-1.0751,3.253
6.315000,2.0272,2.7303,-1.2633,3.628
6.323000,2.3322,2.9324,-1.4365,4.013
6.326000,2.6201,3.1642,-1.5706,4.398
6.330000,2.8707,3.4295,-1.6773,4.777
6.382000,3.1013,3.6977,-1.7279,5.126
6.383000,3.3428,3.9615,-1.7080,5.458
6.384000,3.5926,4.2161,-1.6467,5.779
6.385000,3.8338,4.4613,-1.5394,6.080
6.385000,4.0689,4.6948,-1.4052,6.370
6.386000,4.2703,4.9060,-1.2277,6.619
6.386000,4.4264,5.0759,-1.0334,6.814
6.388000,4.5632,5.2163,-0.8420,6.982
6.389000,4.6567,5.3200,-0.6896,7.104
6.389000,4.7167,5.3871,-0.6026,7.186
6.389000,4.7356,5.3984,-0.5661,7.203
6.391000,4.7375,5.3710,-0.5947,7.186
6.396000,4.7274,5.3005,-0.6829,7.135
6.401000,4.7104,5.1755,-0.8062,7.044
6.405000,4.7129,5.0253,-0.9474,6.954
6.411000,4.7666,4.8671,-1.0823,6.898
6.417000,4.8710,4.7154,-1.2153,6.888
6.421000,5.0267,4.5776,-1.3272,6.927
6.426000,5.2262,4.4659,-1.4083,7.017
6.431000,5.4624,4.3802,-1.4490,7.150
6.436000,5.7017,4.2751,-1.4874,7.280
6.441000,5.9585,4.1699,-1.4850,7.423
6.446000,6.2157,4.0621,-1.4610,7.568
6.450000,6.4449,3.9686,-1.4176,7.700
6.497000,6.6627,3.8895,-1.3140,7.826
6.498000,6.8501,3.8150,-1.1600,7.926
6.499000,7.0146,3.7504,-0.9386,8.009
6.499000,7.1629,3.6687,-0.6219,8.072
6.500000,7.3072,3.5866,-0.2246,8.143
6.501000,7.4236,3.4943,0.2330,8.208
6.501000,7.5169,3.4392,0.6783,8.294
6.502000,7.6014,3.3851,1.0865,8.392
6.502000,7.6868,3.3582,1.4239,8.508
6.502000,7.7703,3.3532,1.6923,8.630
6.508000,7.8567,3.3606,1.8990,8.754
6.512000,7.9433,3.3921,2.0511,8.877
6.517000,8.0227,3.4357,2.1441,8.987
6.521000,8.1089,3.4814,2.2044,9.096
6.528000,8.2088,3.5005,2.2465,9.202
6.531000,8.3053,3.4498,2.2703,9.275
6.539000,8.4082,3.3365,2.2829,9.330
6.542000,8.5171,3.1655,2.2775,9.367
6.546000,8.6371,2.9439,2.2419,9.396
6.551000,8.7485,2.7027,2.1813,9.413
6.599000,8.8561,2.4755,2.0815,9.428
6.602000,8.9123,2.2337,1.9239,9.387
6.603000,8.9169,2.0180,1.7255,9.304
6.604000,8.8967,1.7950,1.4966,9.199
6.605000,8.8494,1.5819,1.2444,9.075
6.606000,8.8017,1.3597,0.9672,8.958
6.607000,8.7564,1.1599,0.6988,8.861
6.609000,8.7282,0.9781,0.4395,8.794
6.610000,8.7245,0.8597,0.1917,8.769
6.611000,8.6974,0.7977,-0.0059,8.734
6.612000,8.6735,0.8279,-0.1796,8.715
6.613000,8.6260,0.9452,-0.3247,8.684
6.617000,8.5581,1.1425,-0.4175,8.644
6.623000,8.4478,1.3810,-0.4510,8.572
6.627000,8.3165,1.6316,-0.4020,8.485
6.632000,8.1616,1.8650,-0.2756,8.376
6.637000,7.9950,2.0499,-0.1136,8.254
6.642000,7.7947,2.1806,0.0381,8.094
6.647000,7.5638,2.2694,0.1671,7.899
6.653000,7.3019,2.3088,0.2280,7.662
6.656000,6.9924,2.2939,0.2570,7.363
6.662000,6.6855,2.2535,0.2495,7.059
6.667000,6.3715,2.1922,0.2085,6.741
6.672000,6.0706,2.1083,0.1601,6.428
6.677000,5.7777,2.0039,0.0904,6.116
6.682000,5.5096,1.9007,0.0091,5.828
6.737000,5.2496,1.7865,-0.0718,5.546
6.738000,4.9693,1.6589,-0.1711,5.242
6.739000,4.6848,1.5223,-0.3005,4.935
6.739000,4.3929,1.3585,-0.4219,4.617
6.740000,4.0859,1.1482,-0.5470,4.279
6.740000,3.7907,0.8966,-0.6663,3.952
6.740000,3.5173,0.6038,-0.7942,3.656
6.741000,3.2898,0.2967,-0.9236,3.430
6.741000,3.1225,-0.0059,-1.0469,3.293
6.742000,2.9926,-0.3168,-1.1478,3.221
6.742000,2.8734,-0.6030,-1.2070,3.174
6.742000,2.7841,-0.8597,-1.1935,3.149
6.747000,2.6863,-1.0874,-1.1152,3.105
6.752000,2.5486,-1.3086,-0.9844,3.029
6.757000,2.3720,-1.5435,-0.8237,2.947
6.763000,2.1541,-1.7761,-0.6527,2.867
6.769000,1.8972,-2.0018,-0.5078,2.804
6.784000,1.6112,-2.2180,-0.4011,2.771
6.786000,1.2891,-2.4413,-0.3472,2.782
6.786000,0.9572,-2.6577,-0.3457,2.846
6.788000,0.6188,-2.8700,-0.3751,2.960
6.791000,0.3048,-3.0786,-0.4136,3.121
6.797000,0.0415,-3.2664,-0.4492,3.297
6.801000,-0.1757,-3.4260,-0.4771,3.464
6.853000,-0.3639,-3.5314,-0.4686,3.581
6.854000,-0.5616,-3.6312,-0.4427,3.701
6.854000,-0.7803,-3.7288,-0.4016,3.831
6.854000,-1.0250,-3.8415,-0.3288,3.990
6.855000,-1.2765,-3.9743,-0.2435,4.181
6.855000,-1.5131,-4.1028,-0.1719,4.376
6.855000,-1.7473,-4.2329,-0.1092,4.581
6.856000,-1.9831,-4.3601,-0.0481,4.790
6.856000,-2.2307,-4.4663,0.0166,4.992
6.856000,-2.5257,-4.5876,0.0828,5.238
6.857000,-2.8539,-4.7308,0.1648,5.527
6.863000,-3.2055,-4.8956,0.2485,5.857
6.867000,-3.5496,-5.0872,0.3267,6.212
6.873000,-3.8714,-5.3226,0.3756,6.592
6.878000,-4.1783,-5.5588,0.3953,6.965
6.883000,-4.4727,-5.7810,0.3551,7.318
6.890000,-4.7502,-5.9841,0.2987,7.646
6.893000,-5.0155,-6.1650,0.2385,7.951
6.897000,-5.2402,-6.3459,0.2035,8.232
6.963000,-5.4435,-6.5126,0.1676,8.490
6.963000,-5.6208,-6.7087,0.1163,8.753
6.964000,-5.7413,-6.8953,0.0498,8.973
6.964000,-5.8075,-7.0531,-0.0344,9.136
6.965000,-5.8604,-7.2272,-0.1265,9.305
6.965000,-5.8642,-7.4276,-0.2099,9.466
6.965000,-5.8215,-7.6456,-0.3061,9.615
6.966000,-5.7399,-7.9127,-0.3957,9.783
6.966000,-5.6410,-8.1951,-0.4814,9.961
6.967000,-5.4986,-8.4807,-0.5515,10.122
6.967000,-5.3296,-8.7532,-0.5970,10.265
6.967000,-5.1292,-9.0259,-0.5923,10.398
6.968000,-4.9358,-9.3211,-0.5644,10.562
6.968000,-4.7518,-9.6289,-0.5114,10.750
6.974000,-4.5796,-9.9351,-0.4671,10.950
6.977000,-4.4456,-10.2346,-0.4221,11.166
6.983000,-4.3187,-10.5323,-0.3814,11.390
6.989000,-4.2133,-10.7940,-0.3357,11.592
6.993000,-4.1079,-11.0243,-0.3020,11.769
6.998000,-4.0145,-11.2232,-0.2897,11.923
7.002000,-3.9308,-11.3595,-0.2965,12.024
7.050000,-3.8806,-11.4403,-0.3293,12.085
7.052000,-3.8378,-11.4609,-0.3735,12.092
7.052000,-3.8357,-11.4500,-0.4334,12.083
7.053000,-3.8242,-11.3812,-0.4969,12.017
7.053000,-3.8224,-11.2691,-0.5685,11.913
7.053000,-3.8039,-11.1325,-0.6311,11.781
7.054000,-3.7543,-10.9809,-0.7015,11.626
7.054000,-3.6570,-10.8220,-0.7743,11.449
7.055000,-3.4997,-10.6821,-0.8282,11.271
7.055000,-3.2922,-10.5779,-0.8632,11.112
7.058000,-3.0125,-10.4859,-0.8509,10.943
7.064000,-2.6727,-10.3777,-0.8273,10.748
7.067000,-2.2941,-10.2558,-0.7472,10.536
7.072000,-1.8788,-10.0764,-0.6468,10.270
7.077000,-1.4579,-9.8281,-0.5407,9.950
7.082000,-1.0672,-9.5379,-0.4432,9.608
7.090000,-0.7303,-9.2095,-0.3354,9.245
7.092000,-0.4662,-8.8938,-0.2101,8.909
7.097000,-0.2987,-8.6075,-0.1132,8.613
7.141000,-0.2278,-8.3400,-0.0654,8.343
7.142000,-0.2485,-8.0763,-0.0807,8.081
7.142000,-0.3418,-7.7972,-0.1942,7.807
7.142000,-0.4884,-7.4809,-0.3858,7.507
7.143000,-0.6573,-7.1290,-0.6095,7.185
7.143000,-0.8175,-6.7546,-0.8283,6.854
7.143000,-0.9212,-6.3784,-1.0084,6.523
7.144000,-0.9516,-6.0195,-1.1547,6.203
7.144000,-0.9209,-5.6736,-1.2598,5.884
7.148000,-0.8052,-5.3338,-1.3360,5.557
7.153000,-0.6426,-4.9902,-1.4431,5.234
7.157000,-0.4458,-4.6447,-1.5663,4.922
7.162000,-0.2074,-4.3233,-1.6841,4.644
7.169000,0.0437,-4.0310,-1.7824,4.408
7.173000,0.3196,-3.7394,-1.8377,4.179
7.177000,0.6130,-3.4678,-1.8384,3.973
7.182000,0.9194,-3.1966,-1.7852,3.775
7.188000,1.2144,-2.9183,-1.6714,3.576
7.193000,1.4718,-2.6324,-1.4976,3.367
7.197000,1.6892,-2.3370,-1.2691,3.150
7.207000,1.8428,-2.0490,-1.0056,2.934
7.208000,1.9399,-1.7680,-0.7386,2.727
7.212000,1.9945,-1.4929,-0.4728,2.536
7.217000,2.0307,-1.2373,-0.1703,2.384
7.261000,2.0508,-1.0036,0.1351,2.287
7.261000,2.0286,-0.7967,0.4316,2.222
7.262000,1.9687,-0.5952,0.7214,2.180
7.262000,1.8666,-0.4246,0.9712,2.147
7.262000,1.7145,-0.2645,1.2027,2.111
7.262000,1.5414,-0.1024,1.3826,2.073
7.263000,1.3545,0.0573,1.5157,2.033
7.263000,1.1585,0.2026,1.6046,1.989
7.263000,0.9420,0.3536,1.6280,1.914
7.268000,0.7209,0.4855,1.6175,1.836
7.273000,0.5124,0.6086,1.5805,1.769
7.279000,0.2996,0.7040,1.5104,1.693
7.282000,0.0899,0.7935,1.4073,1.618
7.287000,-0.0953,0.8894,1.2690,1.553
7.293000,-0.2434,0.9970,1.1002,1.505
7.298000,-0.3457,1.1108,0.8891,1.464
7.310000,-0.4567,1.2933,0.4013,1.429
7.311000,-0.4043,1.3653,0.3905,1.477
7.313000,-0.3752,1.5109,0.1240,1.562
7.317000,-0.3335,1.6583,-0.1395,1.697
7.374000,-0.2885,1.7959,-0.4025,1.863
7.375000,-0.2287,1.9372,-0.6244,2.048
7.375000,-0.1323,2.0806,-0.8052,2.235
7.375000,0.0151,2.2712,-0.9476,2.461
7.375000,0.1990,2.4731,-1.0660,2.700
7.376000,0.3952,2.6906,-1.1560,2.955
7.376000,0.6111,2.9073,-1.2439,3.221
7.376000,0.8004,3.1269,-1.2960,3.478
7.377000,0.9729,3.3522,-1.3293,3.735
7.377000,1.1430,3.5784,-1.3559,3.994
7.377000,1.3152,3.7908,-1.3541,4.235
7.378000,1.4659,3.9757,-1.3116,4.436
7.383000,1.6085,4.1464,-1.2549,4.621
7.389000,1.7265,4.3178,-1.1882,4.800
7.393000,1.8125,4.4609,-1.0879,4.936
7.398000,1.8738,4.5712,-0.9658,5.034
7.403000,1.9223,4.6509,-0.8151,5.098
7.409000,1.9896,4.7006,-0.6552,5.146
7.414000,2.0965,4.7316,-0.4931,5.199
7.418000,2.2384,4.7634,-0.3410,5.274
7.426000,2.4248,4.7862,-0.1990,5.369
7.428000,2.6265,4.8046,-0.0909,5.476
7.433000,2.8216,4.8159,0.0096,5.582
7.473000,2.9983,4.7916,0.1096,5.653
7.474000,3.1512,4.7311,0.1996,5.688
7.474000,3.2876,4.6229,0.2629,5.679
7.474000,3.4101,4.4910,0.2970,5.647
7.474000,3.5378,4.3308,0.3142,5.601
7.475000,3.6808,4.1237,0.3047,5.536
7.475000,3.8194,3.8791,0.2690,5.450
7.475000,3.9876,3.6309,0.2143,5.397
7.479000,4.1711,3.3746,0.1382,5.367
7.483000,4.3604,3.1389,0.0411,5.373
7.489000,4.5699,2.9194,-0.0530,5.423
7.493000,4.8430,2.7378,-0.1511,5.565
7.498000,5.1551,2.5914,-0.2266,5.774
7.504000,5.4799,2.4803,-0.2770,6.021
7.508000,5.7885,2.4257,-0.3118,6.284
7.513000,6.0635,2.4106,-0.3285,6.533
7.519000,6.2618,2.4180,-0.3153,6.720
7.524000,6.3860,2.4573,-0.2964,6.849
7.528000,6.4455,2.5235,-0.2698,6.927
7.533000,6.4477,2.5831,-0.2427,6.950
7.590000,6.4263,2.6314,-0.2321,6.948
7.591000,6.4174,2.6758,-0.2285,6.957
7.591000,6.3993,2.7114,-0.2272,6.954
7.592000,6.3886,2.7357,-0.2376,6.954
7.593000,6.3638,2.7414,-0.2478,6.934
7.595000,6.3510,2.7260,-0.2675,6.916
7.596000,6.3264,2.6850,-0.2895,6.879
7.597000,6.3115,2.6399,-0.3378,6.850
7.599000,6.3111,2.5571,-0.4168,6.822
7.600000,6.3300,2.4152,-0.4953,6.793
7.601000,6.3633,2.2122,-0.5804,6.762
7.603000,6.4231,1.9577,-0.6766,6.749
7.605000,6.4785,1.6903,-0.8124,6.744
7.606000,6.5223,1.4364,-0.9658,6.748
7.608000,6.5547,1.2202,-1.1366,6.763
7.613000,6.5660,1.0490,-1.3002,6.775
7.625000,6.5756,0.8991,-1.4396,6.791
7.629000,6.5910,0.7467,-1.5237,6.806
7.629000,6.6412,0.5850,-1.5741,6.850
7.633000,6.7093,0.4498,-1.5837,6.908
7.699000,6.8008,0.3581,-1.5911,6.994
7.700000,6.8722,0.3432,-1.5937,7.063
7.700000,6.9187,0.4288,-1.5890,7.112
7.701000,6.9166,0.6054,-1.5816,7.121
7.701000,6.8872,0.8678,-1.5215,7.106
7.702000,6.8088,1.1822,-1.3847,7.048
7.702000,6.7248,1.5293,-1.1339,6.989
7.702000,6.6322,1.8628,-0.7985,6.935
7.703000,6.5238,2.1534,-0.4057,6.882
7.703000,6.4089,2.3960,-0.0116,6.842
7.703000,6.2420,2.5878,0.3453,6.766
7.704000,6.0467,2.7474,0.6479,6.673
7.704000,5.8426,2.8680,0.8740,6.567
7.705000,5.6581,2.9517,1.0218,6.463
7.710000,5.4861,3.0081,1.1129,6.355
7.715000,5.3335,3.0300,1.1501,6.241
7.721000,5.2097,3.0075,1.1434,6.123
7.724000,5.1104,2.9102,1.1190,5.986
7.729000,5.0376,2.7688,1.0583,5.845
7.733000,4.9985,2.5717,0.9759,5.705
7.739000,5.0006,2.3643,0.8457,5.596
7.744000,5.0102,2.1636,0.6657,5.498
7.749000,5.0294,1.9906,0.4464,5.427
7.761000,5.0301,1.8340,0.2286,5.359
7.762000,5.0311,1.6791,0.0295,5.304
7.764000,4.9966,1.5041,-0.1268,5.220
7.811000,4.9362,1.2971,-0.2404,5.109
7.811000,4.8453,1.0722,-0.3113,4.972
7.812000,4.7333,0.8362,-0.3637,4.820
7.812000,4.5821,0.5851,-0.4076,4.637
7.812000,4.3796,0.3353,-0.4718,4.418
7.812000,4.1261,0.0843,-0.5514,4.164
7.813000,3.8101,-0.1579,-0.6250,3.864
7.813000,3.4415,-0.3962,-0.6855,3.531
7.813000,3.0298,-0.6308,-0.7330,3.180
7.813000,2.5788,-0.8507,-0.7611,2.820
7.820000,2.1340,-1.0944,-0.7439,2.511
7.824000,1.7293,-1.3613,-0.7156,2.314
7.829000,1.4010,-1.6676,-0.6837,2.283
7.833000,1.1728,-1.9655,-0.6628,2.383
7.839000,1.0408,-2.2011,-0.6559,2.522
7.845000,0.9421,-2.3392,-0.6221,2.597
7.849000,0.8286,-2.3974,-0.5139,2.588
7.860000,0.6571,-2.4239,-0.3341,2.533
7.861000,0.3918,-2.4574,-0.1025,2.491
7.864000,0.0493,-2.5058,0.1781,2.513
7.940000,-0.3120,-2.5580,0.4615,2.618
7.942000,-0.6996,-2.6169,0.7070,2.800
7.942000,-1.0967,-2.6944,0.9123,3.049
7.943000,-1.5102,-2.7591,1.0800,3.326
7.943000,-1.9282,-2.8251,1.2199,3.631
7.944000,-2.3675,-2.8907,1.3034,3.957
7.944000,-2.8132,-3.0039,1.3600,4.334
7.945000,-3.2343,-3.1243,1.4238,4.717
7.945000,-3.6191,-3.2562,1.5265,5.102
7.946000,-3.9699,-3.4162,1.6349,5.487
7.946000,-4.3061,-3.5713,1.7326,5.857
7.947000,-4.6179,-3.7149,1.7939,6.192
7.948000,-4.9080,-3.8688,1.8288,6.512
7.949000,-5.2003,-4.0113,1.8545,6.824
7.949000,-5.4663,-4.1610,1.8616,7.118
7.950000,-5.7011,-4.3055,1.8506,7.380
7.950000,-5.9147,-4.4380,1.8285,7.617
7.954000,-6.1091,-4.5447,1.7908,7.822
7.959000,-6.2752,-4.6403,1.7469,7.998
7.965000,-6.4059,-4.7271,1.6921,8.139
7.974000,-6.5036,-4.8334,1.6239,8.264
7.975000,-6.5661,-4.9348,1.5470,8.358
7.979000,-6.5602,-5.0365,1.4473,8.396
7.984000,-6.4836,-5.1253,1.3343,8.372
8.047000,-6.3462,-5.2140,1.2200,8.303
8.048000,-6.1745,-5.3097,1.0927,8.217
8.048000,-5.9615,-5.4414,0.9789,8.131
8.049000,-5.7458,-5.6068,0.8905,8.077
8.049000,-5.5346,-5.7729,0.8155,8.039
8.050000,-5.3326,-5.9533,0.7419,8.027
8.050000,-5.1472,-6.1558,0.6527,8.051
8.051000,-4.9759,-6.3659,0.5693,8.100
8.051000,-4.8093,-6.5954,0.4866,8.177
8.052000,-4.6281,-6.8446,0.3922,8.272
8.052000,-4.4466,-7.1030,0.2786,8.385
8.052000,-4.2865,-7.3495,0.1817,8.510
8.053000,-4.1453,-7.5910,0.1009,8.650
8.058000,-4.0397,-7.8036,0.0410,8.787
8.059000,-3.9698,-7.9824,0.0064,8.915
8.065000,-3.9377,-8.1348,-0.0172,9.038
8.070000,-3.9459,-8.2363,-0.0015,9.133
8.075000,-3.9608,-8.3206,0.0341,9.215
8.080000,-3.9823,-8.4160,0.0726,9.311
8.085000,-4.0104,-8.5127,0.0756,9.410
8.094000,-4.0140,-8.6056,0.0626,9.496
8.095000,-3.9645,-8.6781,0.0578,9.541
8.100000,-3.8905,-8.7324,0.0157,9.560
8.160000,-3.8185,-8.7685,-0.0489,9.564
8.161000,-3.7555,-8.7959,-0.1332,9.565
8.162000,-3.7039,-8.7857,-0.2151,9.537
8.162000,-3.6302,-8.7208,-0.2776,9.450
8.162000,-3.5225,-8.6330,-0.3083,9.329
8.163000,-3.3782,-8.5318,-0.2906,9.181
8.163000,-3.1710,-8.4321,-0.2344,9.012
8.163000,-2.9200,-8.3461,-0.1878,8.844
8.164000,-2.6368,-8.2932,-0.1371,8.703
8.164000,-2.3022,-8.2494,-0.0420,8.565
8.165000,-1.9115,-8.2449,0.1043,8.464
8.165000,-1.4716,-8.2484,0.3056,8.384
8.166000,-1.0613,-8.2462,0.4899,8.329
8.170000,-0.7141,-8.2172,0.6403,8.273
8.174000,-0.4608,-8.1257,0.7447,8.173
8.179000,-0.3110,-7.9610,0.7987,8.007
8.184000,-0.2453,-7.7442,0.7953,7.789
8.194000,-0.2491,-7.5328,0.7468,7.574
8.195000,-0.3033,-7.3194,0.6633,7.356
8.199000,-0.3836,-7.1182,0.5663,7.151
8.255000,-0.4683,-6.9092,0.4393,6.939
8.255000,-0.5384,-6.6578,0.2566,6.684
8.256000,-0.6033,-6.3704,0.0257,6.399
8.256000,-0.6581,-6.0159,-0.2696,6.058
8.256000,-0.6382,-5.6161,-0.5210,5.676
8.257000,-0.5678,-5.1999,-0.7592,5.286
8.257000,-0.3822,-4.7696,-1.0151,4.891
8.257000,-0.0991,-4.3702,-1.2854,4.556
8.258000,0.2768,-3.9872,-1.5508,4.287
8.258000,0.7281,-3.6166,-1.8136,4.111
8.258000,1.2044,-3.2617,-2.0572,4.040
8.260000,1.6860,-2.9184,-2.3033,4.082
8.266000,2.1612,-2.5673,-2.5379,4.207
8.270000,2.6289,-2.1962,-2.7276,4.379
8.275000,3.0605,-1.8266,-2.8730,4.578
8.280000,3.4220,-1.4591,-2.9883,4.772
8.285000,3.6605,-1.1109,-3.0762,4.909
8.291000,3.7810,-0.7911,-3.1512,4.985
8.296000,3.7969,-0.5178,-3.2130,5.001
8.301000,3.7135,-0.3044,-3.2498,4.944
8.311000,3.3778,-0.1051,-3.1874,4.645
8.312000,3.4286,-0.0175,-3.1909,4.684
8.316000,3.2749,0.0902,-3.1144,4.520
8.399000,3.0917,0.1591,-3.0130,4.320
8.401000,2.8617,0.2242,-2.9009,4.081
8.402000,2.5759,0.2912,-2.7829,3.803
8.402000,2.2249,0.3393,-2.6660,3.489
8.404000,1.8236,0.4120,-2.5212,3.139
8.405000,1.4272,0.4812,-2.3437,2.786
8.405000,1.0554,0.5811,-2.1262,2.444
8.406000,0.7243,0.6942,-1.9026,2.151
8.406000,0.4250,0.8282,-1.6923,1.931
8.406000,0.1718,0.9786,-1.5359,1.829
8.407000,-0.0351,1.1478,-1.4143,1.822
8.407000,-0.1933,1.3386,-1.3105,1.883
8.407000,-0.3128,1.5381,-1.2465,2.004
8.408000,-0.3863,1.7444,-1.1933,2.148
8.408000,-0.3946,1.9621,-1.1630,2.315
8.408000,-0.3450,2.1912,-1.1581,2.502
8.409000,-0.2566,2.4080,-1.1737,2.691
8.409000,-0.1230,2.6235,-1.1766,2.878
8.409000,0.0200,2.8306,-1.1740,3.064
8.415000,0.1960,3.0219,-1.1756,3.248
8.421000,0.3880,3.2067,-1.2077,3.449
8.427000,0.5718,3.3825,-1.2895,3.665
8.429000,0.7356,3.5519,-1.4134,3.893
8.434000,0.8739,3.6948,-1.5341,4.095
8.442000,0.9770,3.8309,-1.6798,4.296
8.447000,1.0259,3.9362,-1.8359,4.463
8.451000,1.0351,4.0230,-1.9710,4.598
8.513000,1.0191,4.0889,-2.1139,4.714
8.514000,0.9901,4.1393,-2.2331,4.806
8.514000,0.9717,4.2071,-2.3461,4.914
8.514000,0.9379,4.2761,-2.4667,5.025
8.515000,0.9152,4.3295,-2.5783,5.121
8.515000,0.9107,4.3747,-2.6759,5.208
8.515000,0.9293,4.4212,-2.7740,5.302
8.516000,0.9830,4.4478,-2.8124,5.353
8.516000,0.9996,4.4444,-2.7847,5.339
8.517000,1.0321,4.4495,-2.7053,5.309
8.517000,1.0972,4.4511,-2.6011,5.271
8.517000,1.1567,4.4324,-2.4846,5.211
8.518000,1.2153,4.3765,-2.3730,5.125
8.523000,1.2923,4.3030,-2.2566,5.028
8.527000,1.3634,4.1514,-2.1195,4.857
8.531000,1.4648,3.9774,-1.9759,4.676
8.539000,1.5988,3.8404,-1.8623,4.558
8.542000,1.7603,3.7142,-1.7640,4.473
8.546000,1.8869,3.5698,-1.6644,4.367
8.550000,1.9546,3.3641,-1.5210,4.177
8.607000,1.9924,3.1093,-1.3531,3.933
8.608000,2.0604,2.8010,-1.2257,3.687
8.608000,2.1419,2.4846,-1.1556,3.478
8.608000,2.2250,2.1557,-1.1427,3.302
8.609000,2.3508,1.8456,-1.1794,3.213
8.609000,2.5546,1.5875,-1.2276,3.249
8.609000,2.8197,1.3958,-1.2748,3.395
8.610000,3.1144,1.2390,-1.3089,3.598
8.610000,3.4002,1.0858,-1.3441,3.814
8.610000,3.6934,0.9551,-1.3301,4.040
8.611000,3.7019,0.8395,-1.2600,4.000
8.611000,4.3224,0.7265,-1.1866,4.541
8.617000,4.6067,0.6184,-1.1147,4.780
8.621000,4.8421,0.5341,-1.0442,4.982
8.627000,5.0210,0.4710,-0.9747,5.136
8.630000,5.1338,0.3812,-0.9036,5.227
8.639000,5.1928,0.2696,-0.8114,5.263
8.642000,5.2028,0.1434,-0.6911,5.251
8.646000,5.1523,-0.0066,-0.5497,5.182
8.650000,5.0107,-0.2017,-0.4135,5.032
8.700000,4.7643,-0.4340,-0.2798,4.792
8.701000,4.4619,-0.6745,-0.1555,4.515
8.701000,4.1641,-0.8959,-0.0381,4.260
8.702000,3.8789,-1.0787,0.0802,4.027
8.702000,3.6162,-1.2178,0.2043,3.821
8.703000,3.3717,-1.3199,0.3439,3.637
8.703000,3.1578,-1.4182,0.5159,3.500
8.703000,2.9842,-1.5222,0.6795,3.418
8.704000,2.8922,-1.6192,0.8369,3.419
8.704000,2.8720,-1.6951,0.9834,3.477
8.707000,2.9475,-1.7904,1.1404,3.632
8.710000,3.1283,-1.8789,1.3318,3.885
8.717000,3.4113,-1.9799,1.5166,4.226
8.720000,3.7554,-2.1034,1.7546,4.648
8.727000,4.1290,-2.2329,2.0285,5.114
8.731000,4.4957,-2.3427,2.2808,5.559
8.738000,4.8216,-2.4235,2.5063,5.950
8.742000,5.0465,-2.4566,2.7454,6.248
8.746000,5.1558,-2.4854,3.0002,6.462
8.750000,5.1283,-2.5194,3.2414,6.569
8.814000,5.0121,-2.5776,3.4326,6.599
8.815000,4.8365,-2.6619,3.5665,6.573
8.815000,4.6738,-2.7528,3.6024,6.512
8.816000,4.5028,-2.8118,3.5619,6.393
8.816000,4.3142,-2.8003,3.4358,6.185
8.816000,4.0845,-2.6726,3.2289,5.853
8.817000,3.8332,-2.3906,2.9848,5.415
8.817000,3.6008,-1.9424,2.7443,4.926
8.817000,3.4539,-1.3740,2.5169,4.489
8.818000,3.3989,-0.7148,2.3048,4.168
8.818000,3.4083,-0.0519,2.1052,4.006
8.818000,3.3999,0.5351,1.9157,3.939
8.819000,3.3561,1.0338,1.7125,3.907
8.822000,3.2837,1.4652,1.4289,3.869
8.828000,3.1699,1.8481,1.1039,3.832
8.832000,2.9833,2.1726,0.7884,3.774
8.836000,2.7238,2.4123,0.4567,3.667
8.844000,2.4083,2.5674,0.1144,3.522
8.847000,2.0442,2.6621,-0.2090,3.363
8.852000,1.6751,2.6967,-0.4962,3.213
8.913000,1.3304,2.6839,-0.7085,3.078
8.915000,1.0077,2.6380,-0.8909,2.961
8.915000,0.6935,2.5503,-1.0387,2.840
8.915000,0.3976,2.4521,-1.1370,2.732
8.916000,0.1518,2.3700,-1.1643,2.645
8.916000,-0.0128,2.3188,-1.1257,2.578
8.917000,-0.1366,2.3128,-1.0188,2.531
8.917000,-0.1601,2.3374,-0.7910,2.473
8.917000,-0.3626,2.3667,-0.4242,2.432
8.918000,-0.4713,2.3768,0.0593,2.424
8.918000,-0.5412,2.3773,0.5868,2.508
8.918000,-0.5603,2.3731,1.1285,2.687
8.919000,-0.5361,2.3640,1.6121,2.911
8.921000,-0.4949,2.3621,2.0057,3.138
8.927000,-0.4250,2.3433,2.3309,3.332
8.931000,-0.3145,2.3242,2.6283,3.523
8.939000,-0.1900,2.2761,2.9025,3.693
8.943000,-0.0565,2.2179,3.1556,3.858
8.946000,0.0810,2.1590,3.3852,4.016
8.950000,0.2178,2.0780,3.5832,4.148
9.001000,0.3321,1.9603,3.7523,4.247
9.002000,0.4525,1.8275,3.8876,4.319
9.002000,0.5693,1.6914,3.9866,4.368
9.002000,0.6371,1.5448,4.0400,4.372
9.002000,0.6438,1.3947,4.0528,4.334
9.003000,0.5948,1.2440,3.9819,4.214
9.003000,0.5190,1.0880,3.8377,4.023
9.003000,0.4668,0.9507,3.6728,3.822
9.003000,0.3904,0.7940,3.4254,3.538
9.004000,0.3092,0.6658,3.1463,3.231
9.007000,0.2136,0.5588,2.8692,2.931
9.011000,0.1445,0.4518,2.6159,2.659
9.016000,0.1329,0.3853,2.3648,2.400
9.021000,0.1664,0.3806,2.1159,2.156
9.027000,0.2544,0.4251,1.8789,1.943
9.031000,0.3506,0.4992,1.6514,1.760
9.040000,0.3810,0.5787,1.4263,1.586
9.041000,0.3644,0.6368,1.2085,1.414
9.046000,0.2937,0.6857,1.0004,1.248
9.051000,0.2096,0.7322,0.8211,1.120
9.116000,0.1408,0.7836,0.6942,1.056
9.118000,0.0943,0.8347,0.6029,1.034
9.119000,0.0273,0.8692,0.5469,1.027
9.120000,-0.0554,0.9108,0.5071,1.044
9.122000,-0.1537,0.9332,0.5074,1.073
9.125000,-0.2221,0.9555,0.5667,1.133
9.126000,-0.2416,0.9656,0.6605,1.195
9.128000,-0.2140,0.9883,0.7575,1.263
9.128000,-0.1659,1.0230,0.8792,1.359
9.129000,-0.1020,1.0674,1.0347,1.490
9.129000,-0.0344,1.1572,1.2238,1.685
9.129000,0.0347,1.2565,1.4322,1.906
9.129000,-0.0195,1.3478,1.6504,2.131
9.130000,0.1243,1.4202,1.8784,2.358
9.131000,0.0951,1.4683,2.1092,2.572
9.132000,0.0248,1.4540,2.3287,2.745
9.139000,-0.0720,1.3897,2.5630,2.916
9.141000,-0.1757,1.2951,2.8030,3.093
9.146000,-0.2695,1.1581,3.0247,3.250
9.152000,-0.3836,1.0017,3.2216,3.396
9.161000,-0.5084,0.8378,3.3631,3.503
9.163000,-0.6699,0.6528,3.4401,3.565
9.166000,-0.8366,0.4662,3.4702,3.600
9.219000,-0.9512,0.2710,3.5090,3.646
9.219000,-1.0300,0.0682,3.5688,3.715
9.220000,-1.0709,-0.1401,3.6688,3.824
9.220000,-1.0835,-0.3538,3.7752,3.943
9.221000,-1.0752,-0.5538,3.8422,4.028
9.221000,-1.0581,-0.7522,3.8793,4.091
9.221000,-1.0420,-0.9303,3.8819,4.126
9.222000,-1.0050,-1.0846,3.8859,4.158
9.222000,-0.9475,-1.2278,3.8988,4.196
9.222000,-0.8911,-1.3553,3.9207,4.243
9.222000,-0.8503,-1.4626,3.9326,4.281
9.228000,-0.8371,-1.5950,3.9535,4.345
9.232000,-0.8662,-1.7317,3.9595,4.408
9.237000,-0.9298,-1.8764,3.9623,4.482
9.242000,-1.0162,-2.0223,3.9715,4.571
9.247000,-1.1135,-2.1836,3.9867,4.680
9.251000,-1.2167,-2.3434,3.9860,4.781
9.258000,-1.3402,-2.5064,3.9931,4.901
9.261000,-1.4673,-2.6465,3.9982,5.014
9.267000,-1.5836,-2.7558,3.9817,5.095
9.318000,-1.7179,-2.8730,3.9528,5.180
9.319000,-1.8750,-2.9886,3.8851,5.248
9.319000,-2.0596,-3.0952,3.7760,5.299
9.320000,-2.2621,-3.2068,3.6448,5.356
9.320000,-2.4586,-3.3165,3.4959,5.410
9.320000,-2.6488,-3.4255,3.3198,5.456
9.321000,-2.8234,-3.5221,3.1262,5.491
9.321000,-2.9965,-3.6299,2.9295,5.544
9.321000,-3.1373,-3.7059,2.7534,5.582
9.322000,-3.2553,-3.7957,2.6146,5.643
9.322000,-3.4007,-3.8581,2.4337,5.690
9.326000,-3.5472,-3.8909,2.2734,5.735
9.332000,-3.6782,-3.9395,2.1502,5.803
9.337000,-3.8127,-3.9823,2.0543,5.884
9.342000,-3.9460,-4.0168,1.9331,5.953
9.347000,-4.0733,-4.0452,1.8104,6.019
9.353000,-4.2040,-4.0482,1.6958,6.078
9.357000,-4.2928,-4.0424,1.5968,6.109
9.362000,-4.3564,-4.0135,1.4940,6.109
9.367000,-4.3590,-3.9782,1.3947,6.064
9.372000,-4.3317,-3.9391,1.3134,6.000
9.377000,-4.2722,-3.8841,1.2663,5.911
9.382000,-4.1614,-3.8300,1.2535,5.793
9.444000,-4.0089,-3.7509,1.2747,5.636
9.445000,-3.7981,-3.6660,1.3057,5.438
9.446000,-3.5602,-3.5445,1.3416,5.200
9.446000,-3.3287,-3.4230,1.3726,4.968
9.446000,-3.1181,-3.3159,1.3676,4.753
9.447000,-2.9667,-3.2118,1.3440,4.574
9.447000,-2.8504,-3.0987,1.2851,4.402
9.447000,-2.7525,-2.9933,1.2248,4.247
9.448000,-2.6752,-2.8909,1.1705,4.109
9.448000,-2.5994,-2.7770,1.1220,3.966
9.448000,-2.4989,-2.6737,1.1012,3.822
9.449000,-2.3569,-2.5618,1.0745,3.643
9.449000,-2.2022,-2.4822,1.0205,3.472
9.453000,-1.9918,-2.4829,1.0182,3.342
9.458000,-1.7761,-2.5807,1.0271,3.297
9.462000,-1.5957,-2.7730,1.0111,3.355
9.468000,-1.4792,-3.0003,0.9688,3.483
9.473000,-1.3884,-3.1807,0.9029,3.586
9.480000,-1.3588,-3.2950,0.7994,3.653
9.483000,-1.3331,-3.3646,0.7111,3.688
9.490000,-1.3229,-3.4252,0.6616,3.731
9.492000,-1.3284,-3.5010,0.6246,3.796
9.497000,-1.3374,-3.5534,0.5949,3.843
9.552000,-1.3425,-3.5606,0.5602,3.846
9.553000,-1.2934,-3.5205,0.5442,3.790
9.554000,-1.1950,-3.4498,0.5274,3.689
9.554000,-1.0614,-3.3771,0.5071,3.576
9.555000,-0.9170,-3.3512,0.5175,3.513
9.555000,-0.7713,-3.3528,0.5821,3.489
9.555000,-0.6289,-3.3459,0.6505,3.466
9.556000,-0.4659,-3.3044,0.6864,3.407
9.556000,-0.2775,-3.2142,0.6565,3.292
9.556000,-0.0590,-3.1088,0.5824,3.163
9.557000,0.1938,-3.0277,0.4983,3.075
9.557000,0.4738,-2.9685,0.3920,3.031
9.563000,0.7877,-2.8981,0.2419,3.013
9.568000,1.1090,-2.8362,0.0244,3.045
9.573000,1.3970,-2.7614,-0.2769,3.107
9.577000,1.6889,-2.6484,-0.6441,3.206
9.582000,1.9846,-2.4951,-1.0789,3.366
9.590000,2.2786,-2.3426,-1.5254,3.606
9.593000,2.5634,-2.1458,-1.9615,3.876
9.597000,2.8360,-1.9338,-2.3602,4.166
9.660000,3.0627,-1.7211,-2.7217,4.444
9.661000,3.2188,-1.4990,-3.0759,4.698
9.661000,3.2466,-1.2843,-3.4013,4.874
9.661000,3.1558,-1.0865,-3.7144,4.994
9.662000,2.9346,-0.9026,-4.0128,5.053
9.662000,2.5766,-0.7154,-4.2847,5.051
9.662000,2.1226,-0.5504,-4.5468,5.048
9.663000,1.5975,-0.4138,-4.7732,5.050
9.663000,1.0451,-0.2808,-4.9357,5.053
9.663000,0.4853,-0.1408,-5.0374,5.063
9.664000,-0.0165,0.0167,-5.0813,5.081
9.664000,-0.4381,0.1828,-5.0445,5.067
9.664000,-0.7506,0.3720,-4.9399,5.010
9.668000,-0.9489,0.5560,-4.7921,4.917
9.672000,-1.0329,0.7134,-4.5875,4.756
9.678000,-1.0266,0.8414,-4.3456,4.544
9.683000,-0.9707,0.9642,-4.1144,4.336
9.689000,-0.8683,1.0834,-3.9055,4.145
9.694000,-0.7527,1.1848,-3.6304,3.892
9.698000,-0.6672,1.2490,-3.3130,3.603
9.757000,-0.5449,1.3142,-2.9583,3.283
9.758000,-0.3405,1.4375,-2.5830,2.976
9.758000,-0.0377,1.5872,-2.1968,2.710
9.758000,0.3099,1.7645,-1.8284,2.560
9.759000,0.6490,1.9472,-1.5040,2.545
9.759000,0.9288,2.1153,-1.2065,2.606
9.759000,1.0893,2.2565,-0.9500,2.680
9.760000,1.1303,2.3730,-0.7488,2.733
9.760000,1.0519,2.4626,-0.5762,2.739
9.760000,0.8853,2.5253,-0.4558,2.715
9.761000,0.6691,2.5616,-0.3969,2.677
9.761000,0.4298,2.5526,-0.3874,2.617
9.763000,0.1869,2.5014,-0.4199,2.543
9.768000,-0.0283,2.4107,-0.4965,2.461
9.774000,-0.2251,2.2884,-0.6168,2.381
9.778000,-0.3889,2.1538,-0.7758,2.322
9.788000,-0.5292,2.0196,-0.9419,2.290
9.789000,-0.6123,1.8859,-1.0935,2.264
9.794000,-0.6405,1.7504,-1.2353,2.236
9.799000,-0.6066,1.6350,-1.3749,2.221
9.806000,-0.5417,1.4962,-1.4982,2.186
9.809000,-0.4553,1.3535,-1.6246,2.163
9.813000,-0.3327,1.2309,-1.7496,2.165
9.818000,-0.2146,1.1117,-1.9187,2.228
9.868000,-0.0627,1.0057,-2.0312,2.267
9.870000,0.0900,0.9012,-2.1162,2.302
9.870000,0.2505,0.8243,-2.1693,2.334
9.872000,0.4308,0.7703,-2.1810,2.353
9.872000,0.5856,0.7438,-2.1492,2.348
9.873000,0.7316,0.7447,-2.0456,2.297
9.873000,0.8451,0.7636,-1.9135,2.227
9.874000,0.9644,0.7908,-1.7626,2.159
9.874000,1.0846,0.8453,-1.5786,2.094
9.874000,1.2081,0.8911,-1.3520,2.020
9.875000,1.3322,0.9664,-1.0969,1.978
9.878000,1.4546,1.0469,-0.8160,1.969
9.884000,1.5342,1.1158,-0.5308,1.970
9.889000,1.6073,1.1755,-0.2698,2.009
9.893000,1.6544,1.1996,-0.0784,2.045
9.898000,1.7570,1.2194,0.0987,2.141
9.906000,1.9007,1.2325,0.2738,2.282
9.910000,2.0877,1.2533,0.4474,2.476
9.914000,2.2916,1.2673,0.6197,2.691
9.918000,2.4999,1.2836,0.7667,2.913
9.978000,2.7389,1.3141,0.9435,3.181
9.979000,2.9774,1.3537,1.0973,3.450
9.979000,3.2081,1.3833,1.2353,3.706
9.979000,3.4379,1.3977,1.3619,3.953
9.980000,3.6479,1.3804,1.4632,4.166
9.980000,3.8735,1.3239,1.5792,4.388
9.980000,4.1078,1.2521,1.6863,4.614
9.980000,4.3268,1.1604,1.7869,4.823
9.981000,4.5279,1.0583,1.9336,5.036
9.981000,4.7067,0.9316,2.0762,5.228
9.982000,4.8559,0.7967,2.2403,5.407
9.982000,4.9851,0.6325,2.4306,5.582
9.983000,5.0899,0.4655,2.6279,5.747
9.989000,5.1729,0.2694,2.8151,5.895
9.993000,5.2464,0.0901,3.0303,6.059
9.997000,5.2532,-0.0817,3.2780,6.193
10.002000,5.4063,-0.2748,3.5360,6.466
10.009000,5.4737,-0.4651,3.8232,6.693
10.013000,5.5370,-0.6549,4.1488,6.950
10.021000,5.5938,-0.8345,4.4547,7.199
10.023000,5.6443,-0.9729,4.7263,7.426
10.028000,5.6815,-1.0555,4.9300,7.596
10.033000,5.7077,-1.0588,5.0439,7.690
10.055000,5.7396,-0.9730,5.0926,7.735
10.056000,5.7940,-0.8341,5.1216,7.778
10.056000,5.8970,-0.6519,5.1478,7.855
10.056000,6.0534,-0.4768,5.1662,7.972
10.058000,6.2216,-0.3285,5.1551,8.086
10.066000,6.4159,-0.2145,5.0858,8.190
10.069000,6.5903,-0.0896,4.9103,8.219
10.080000,6.7254,0.0266,4.6412,8.171
10.080000,6.7946,0.1484,4.3077,8.046
10.084000,6.8125,0.2972,3.9056,7.858
10.089000,6.7642,0.5088,3.4500,7.610
10.093000,6.6763,0.8022,2.9821,7.356
10.098000,6.5273,1.1606,2.4785,7.078
10.104000,6.3553,1.6174,1.9902,6.853
10.108000,6.2127,2.1365,1.5728,6.755
10.113000,6.0969,2.6674,1.2600,6.773
10.119000,6.0265,3.2049,1.0517,6.906
10.124000,6.0058,3.7103,0.9426,7.122
10.128000,6.0175,4.1424,0.9082,7.362
10.132000,6.0444,4.4914,0.9193,7.586
10.183000,6.0694,4.7374,0.9586,7.759
10.184000,6.0726,4.8899,0.9875,7.859
10.184000,6.0613,4.9485,1.0011,7.889
10.185000,5.9897,4.9035,0.9803,7.803
10.186000,5.8412,4.7621,0.9445,7.595
10.186000,5.6355,4.5487,0.8772,7.295
10.186000,5.3871,4.2873,0.7645,6.927
10.186000,5.1140,3.9622,0.6262,6.500
10.187000,4.7829,3.5690,0.4820,5.987
10.187000,4.4044,3.1494,0.3322,5.425
10.193000,4.0102,2.7397,0.2059,4.861
10.194000,3.6299,2.3836,0.1484,4.345
10.199000,3.2609,2.0957,0.1332,3.879
10.208000,2.9284,1.8551,0.1815,3.471
10.208000,2.6298,1.6403,0.2976,3.114
10.214000,2.3727,1.4421,0.4615,2.815
10.219000,2.1618,1.2746,0.6224,2.586
10.224000,1.9974,1.1526,0.7630,2.429
10.228000,1.8720,1.0707,0.8641,2.323
10.233000,1.7693,1.0201,0.9280,2.243
10.238000,1.6674,0.9955,0.9597,2.166
10.244000,1.5758,1.0183,0.9713,2.113
10.248000,1.5254,1.0977,0.9653,2.113
10.292000,1.4965,1.1899,0.9535,2.136
10.292000,1.4701,1.2784,0.9360,2.161
10.293000,1.4075,1.3362,0.8958,2.138
10.293000,1.3017,1.3562,0.8283,2.054
10.293000,1.2531,1.3453,0.7502,1.986
10.293000,1.0442,1.3063,0.6714,1.802
10.294000,0.9068,1.2554,0.5944,1.659
10.294000,0.7746,1.1985,0.5485,1.529
10.294000,0.6473,1.1113,0.5289,1.391
10.299000,0.5012,1.0131,0.5242,1.246
10.304000,0.3386,0.9040,0.5416,1.107
10.310000,0.1763,0.7983,0.5957,1.012
10.313000,0.0355,0.6977,0.6674,0.966
10.320000,-0.1023,0.5747,0.7375,0.941
10.324000,-0.2303,0.4406,0.7894,0.933
10.328000,-0.3674,0.2837,0.7778,0.906
10.333000,-0.5112,0.0994,0.7148,0.884
10.339000,-0.6234,-0.0765,0.6154,0.879
10.344000,-0.7235,-0.2373,0.5059,0.914
10.349000,-0.8062,-0.3867,0.4058,0.982
10.393000,-0.8885,-0.5565,0.3032,1.091
10.394000,-0.9919,-0.7611,0.2027,1.267
10.394000,-1.1186,-1.0074,0.1114,1.509
10.394000,-1.2903,-1.2813,0.0076,1.818
10.394000,-1.4655,-1.6004,-0.1136,2.173
10.394000,-1.6442,-1.9123,-0.2191,2.531
10.395000,-1.8048,-2.2431,-0.3163,2.896
10.395000,-1.9736,-2.5710,-0.4081,3.267
10.395000,-2.1455,-2.8957,-0.4610,3.633
10.400000,-2.3089,-3.2295,-0.4684,3.998
10.404000,-2.4534,-3.5638,-0.4406,4.349
10.409000,-2.5626,-3.9060,-0.4092,4.690
10.414000,-2.6317,-4.2631,-0.3912,5.025
10.419000,-2.6797,-4.6253,-0.3702,5.358
10.424000,-2.7163,-4.9660,-0.3654,5.672
10.429000,-2.7586,-5.2977,-0.3430,5.983
10.434000,-2.8252,-5.6071,-0.3268,6.287
10.439000,-2.9021,-5.8948,-0.2952,6.577
10.445000,-3.0013,-6.1773,-0.2382,6.872
10.450000,-3.1180,-6.4471,-0.2013,7.164
10.455000,-3.2284,-6.6829,-0.1604,7.424
10.458000,-3.3179,-6.9169,-0.1370,7.673
10.463000,-3.4036,-7.1282,-0.1091,7.900
10.502000,-3.4902,-7.3523,-0.0455,8.139
10.503000,-3.5612,-7.5843,0.0442,8.379
10.503000,-3.6381,-7.8290,0.1528,8.634
10.503000,-3.7114,-8.0480,0.2540,8.866
10.504000,-3.7929,-8.2476,0.3576,9.085
10.504000,-3.8805,-8.4161,0.4539,9.279
10.504000,-3.9716,-8.5485,0.5382,9.441
10.505000,-4.0759,-8.6327,0.5842,9.564
10.510000,-4.1839,-8.6972,0.5898,9.669
10.514000,-4.2692,-8.7540,0.5693,9.756
10.520000,-4.3319,-8.7978,0.5229,9.820
10.524000,-4.3672,-8.8072,0.4552,9.841
10.529000,-4.3751,-8.7869,0.3708,9.823
10.534000,-4.3413,-8.7253,0.3007,9.750
10.540000,-4.2563,-8.6750,0.2492,9.666
10.545000,-4.1202,-8.6577,0.2235,9.591
10.549000,-3.9234,-8.6712,0.2162,9.520
10.555000,-3.6923,-8.7060,0.2413,9.460
10.559000,-3.4437,-8.7627,0.2607,9.419
10.564000,-3.2230,-8.8009,0.2959,9.377
10.635000,-3.0591,-8.7633,0.3135,9.287
10.636000,-2.9661,-8.6434,0.3446,9.145
10.636000,-2.9464,-8.4727,0.3964,8.979
10.636000,-2.9665,-8.3017,0.4760,8.829
10.637000,-3.0189,-8.1832,0.5684,8.741
10.637000,-3.0965,-8.1431,0.6018,8.733
10.637000,-3.2060,-8.1617,0.5187,8.784
10.637000,-3.3308,-8.1696,0.3340,8.829
10.638000,-3.4394,-8.1280,0.0819,8.826
10.638000,-3.4841,-8.0006,-0.1633,8.728
10.638000,-3.4983,-7.7661,-0.4829,8.531
10.638000,-3.4793,-7.4720,-0.7664,8.278
10.639000,-3.4083,-7.1576,-0.9783,7.988
10.639000,-3.3065,-6.8396,-1.1621,7.685
10.639000,-3.1740,-6.4943,-1.3346,7.351
10.646000,-2.9725,-6.1294,-1.4936,6.974
10.650000,-2.7142,-5.7526,-1.6320,6.567
10.654000,-2.3869,-5.3783,-1.7430,6.137
10.660000,-2.0128,-5.0226,-1.8669,5.724
10.665000,-1.6088,-4.7095,-2.0035,5.365
10.675000,-1.1942,-4.4226,-2.1050,5.041
10.675000,-0.7691,-4.1315,-2.2021,4.744
10.679000,-0.3624,-3.8481,-2.2756,4.485
10.684000,0.0108,-3.5645,-2.3201,4.253
10.725000,0.3601,-3.2830,-2.3454,4.051
10.726000,0.6495,-3.0207,-2.3561,3.886
10.726000,0.8740,-2.7780,-2.3380,3.735
10.726000,1.0503,-2.5358,-2.3365,3.605
10.727000,1.1307,-2.3225,-2.3228,3.474
10.727000,1.1220,-2.1435,-2.3060,3.342
10.728000,1.0483,-1.9743,-2.2863,3.197
10.728000,0.9004,-1.8337,-2.2444,3.035
10.730000,0.7047,-1.6924,-2.1923,2.858
10.736000,0.4591,-1.5549,-2.1297,2.677
10.739000,0.1880,-1.4227,-2.0665,2.516
10.746000,-0.0922,-1.2650,-1.9998,2.368
10.751000,-0.3643,-1.1052,-1.9417,2.264
10.755000,-0.6089,-0.9451,-1.8873,2.197
10.762000,-0.8330,-0.7796,-1.8437,2.168
10.764000,-1.0340,-0.5989,-1.8157,2.174
10.774000,-1.1782,-0.3977,-1.7841,2.175
10.775000,-1.2924,-0.1743,-1.7320,2.168
10.781000,-1.3762,0.0668,-1.6547,2.153
10.784000,-1.3914,0.3137,-1.5452,2.103
10.829000,-1.3596,0.5949,-1.4202,2.054
10.830000,-1.2854,0.8818,-1.2849,2.020
10.830000,-1.1792,1.1924,-1.1441,2.030
10.830000,-1.0552,1.5076,-1.0124,2.100
10.831000,-0.9207,1.8057,-0.8969,2.216
10.831000,-0.7567,2.0840,-0.7786,2.350
10.832000,-0.5732,2.3470,-0.6696,2.507
10.832000,-0.4033,2.6141,-0.5746,2.707
10.832000,-0.2648,2.8484,-0.5173,2.907
10.836000,-0.1430,3.0622,-0.4404,3.097
10.842000,-0.0234,3.2603,-0.3703,3.281
10.846000,0.0867,3.4261,-0.3141,3.442
10.850000,0.2088,3.5788,-0.2718,3.595
10.856000,0.3219,3.7236,-0.2243,3.744
10.860000,0.4491,3.8693,-0.1714,3.899
10.865000,0.5977,4.0020,-0.1178,4.048
10.871000,0.7294,4.1335,-0.0514,4.198
10.876000,0.8799,4.2589,0.0539,4.349
10.880000,1.0444,4.3901,0.2028,4.517
10.889000,1.2135,4.5130,0.3710,4.688
10.892000,1.3600,4.6218,0.5415,4.848
10.895000,1.4891,4.7002,0.7046,4.981
10.943000,1.6341,4.7553,0.8841,5.105
10.944000,1.7975,4.7896,1.0533,5.223
10.945000,1.9627,4.8151,1.2073,5.338
10.945000,2.1194,4.8168,1.3244,5.427
10.945000,2.3180,4.8070,1.4166,5.522
10.946000,2.5225,4.7809,1.4765,5.604
10.946000,2.7519,4.7122,1.5354,5.669
10.946000,2.9919,4.6439,1.5932,5.749
10.946000,3.2379,4.5333,1.6378,5.807
10.946000,3.4844,4.3920,1.6550,5.846
10.950000,3.7319,4.2370,1.6470,5.881
10.954000,3.9801,4.0444,1.6095,5.898
10.960000,4.2100,3.8766,1.5617,5.932
10.967000,4.4287,3.7193,1.4965,5.974
10.971000,4.6245,3.5606,1.4189,6.006
10.976000,4.8016,3.4196,1.3174,6.040
10.981000,4.9629,3.2869,1.1967,6.072
10.987000,5.1061,3.1771,1.0690,6.108
10.991000,5.2838,3.0902,0.9538,6.195
10.996000,5.4579,3.0241,0.8654,6.299
11.000000,5.6160,2.9808,0.8113,6.410
11.006000,5.7749,2.9413,0.7601,6.525
11.011000,5.9227,2.9343,0.7359,6.651
11.015000,6.0568,2.9285,0.7408,6.768
11.029000,6.1795,2.9431,0.7509,6.886
11.031000,6.2911,2.9851,0.7635,7.005
11.036000,6.3908,3.0470,0.7691,7.122
11.037000,6.4549,3.1335,0.7840,7.218
11.098000,6.4929,3.2398,0.7676,7.297
11.100000,6.5072,3.2487,0.7581,7.312
11.100000,6.5239,3.3633,0.7245,7.376
11.100000,6.4784,3.6218,0.6691,7.452
11.101000,6.4373,3.7369,0.6445,7.471
11.101000,6.4247,3.7733,0.6362,7.478
11.102000,6.4620,3.7093,0.6414,7.479
11.102000,6.5469,3.5357,0.6193,7.466
11.103000,6.6791,3.2429,0.5554,7.445
11.103000,6.8611,2.8860,0.4000,7.454
11.104000,7.0593,2.5015,0.1659,7.491
11.104000,7.2376,2.1563,-0.1724,7.554
11.104000,7.3817,1.8555,-0.5705,7.633
11.110000,7.4915,1.6257,-0.9506,7.725
11.111000,7.5670,1.4455,-1.2475,7.804
11.117000,7.5872,1.2748,-1.4585,7.831
11.126000,7.5766,1.1352,-1.5788,7.822
11.126000,7.5499,1.0247,-1.6132,7.788
11.130000,7.5102,0.9889,-1.5815,7.738
11.136000,7.4526,1.0324,-1.5101,7.674
11.179000,7.4110,1.1719,-1.3804,7.629
11.180000,7.3807,1.4023,-1.2051,7.609
11.180000,7.3567,1.6993,-0.9967,7.616
11.181000,7.3388,2.0384,-0.7343,7.652
11.182000,7.3194,2.3593,-0.4282,7.702
11.182000,7.2814,2.6447,-0.0956,7.747
11.182000,7.2270,2.9086,0.2551,7.795
11.182000,7.1296,3.1218,0.6140,7.807
11.183000,6.9939,3.3102,0.9491,7.796
11.189000,6.8390,3.4545,1.2289,7.760
11.191000,6.6644,3.5663,1.4414,7.695
11.197000,6.4827,3.6410,1.5911,7.604
11.201000,6.2935,3.6567,1.6783,7.470
11.207000,6.0729,3.6256,1.7033,7.275
11.211000,5.8426,3.5263,1.6761,7.027
11.216000,5.6245,3.4045,1.6041,6.767
11.222000,5.4446,3.2696,1.4928,6.524
11.227000,5.2871,3.1105,1.3686,6.285
11.230000,5.1589,2.9821,1.2419,6.087
11.286000,5.0888,2.8486,1.1294,5.940
11.287000,5.0527,2.7623,1.0124,5.847
11.287000,5.0141,2.6676,0.9030,5.751
11.288000,4.9284,2.5461,0.8227,5.608
11.288000,4.7810,2.3923,0.8147,5.408
11.288000,4.5911,2.2016,0.8474,5.162
11.289000,4.3591,2.0002,0.9040,4.881
11.289000,4.0973,1.7809,0.9555,4.569
11.289000,3.8487,1.5411,0.9706,4.258
11.290000,3.6192,1.2772,0.9468,3.953
11.290000,3.4423,0.9962,0.8581,3.685
11.292000,3.3011,0.7292,0.7332,3.459
11.297000,3.2080,0.4812,0.5727,3.294
11.302000,3.1316,0.2403,0.4320,3.170
11.308000,3.0501,0.0034,0.3399,3.069
11.317000,2.8999,-0.3167,0.2461,2.928
11.318000,2.8170,-0.4267,0.2531,2.860
11.321000,2.6151,-0.6161,0.2339,2.697
11.326000,2.3564,-0.8059,0.2290,2.501
11.331000,2.0606,-1.0031,0.2334,2.304
11.341000,1.7466,-1.2228,0.2444,2.146
11.342000,1.4228,-1.4653,0.2546,2.058
11.346000,1.1130,-1.7217,0.2544,2.066
11.351000,0.8196,-1.9725,0.2413,2.150
11.412000,0.5669,-2.2031,0.2155,2.285
11.413000,0.3304,-2.4330,0.1843,2.462
11.413000,0.1133,-2.6681,0.1599,2.675
11.413000,-0.0823,-2.9185,0.1687,2.925
11.413000,-0.2899,-3.1743,0.1701,3.192
11.414000,-0.4975,-3.4116,0.1402,3.451
11.414000,-0.7170,-3.6516,0.1031,3.723
11.414000,-0.9342,-3.8734,0.0542,3.985
11.415000,-1.1726,-4.0847,0.0153,4.250
11.415000,-1.4059,-4.3006,-0.0066,4.525
11.415000,-1.6582,-4.5279,-0.0116,4.822
11.415000,-1.9149,-4.7544,-0.0333,5.126
11.416000,-2.1688,-4.9797,-0.0477,5.432
11.423000,-2.4011,-5.1974,-0.0356,5.725
11.426000,-2.6186,-5.4128,-0.0138,6.013
11.432000,-2.8047,-5.6339,-0.0160,6.293
11.439000,-3.0219,-5.8630,-0.0157,6.596
11.441000,-3.2222,-6.1046,-0.0224,6.903
11.445000,-3.4107,-6.3590,-0.0194,7.216
11.452000,-3.6013,-6.6363,-0.0210,7.551
11.456000,-3.7753,-6.9130,-0.0272,7.877
11.461000,-3.9542,-7.1672,-0.0427,8.186
11.466000,-4.1165,-7.4250,-0.0459,8.490
11.518000,-4.2528,-7.6834,-0.0488,8.782
11.518000,-4.3681,-7.9618,-0.0539,9.082
11.519000,-4.4310,-8.2177,-0.0495,9.336
11.519000,-4.4730,-8.4848,-0.0454,9.592
11.520000,-4.4701,-8.7246,-0.0418,9.803
11.520000,-4.4371,-8.9511,-0.0219,9.990
11.520000,-4.4002,-9.1522,-0.0003,10.155
11.521000,-4.3597,-9.3284,0.0256,10.297
11.521000,-4.3252,-9.4619,0.0365,10.404
11.521000,-4.2825,-9.5507,0.0491,10.467
11.522000,-4.2435,-9.6067,0.0632,10.502
11.527000,-4.1845,-9.6299,0.1024,10.500
11.531000,-4.1102,-9.6086,0.1520,10.452
11.538000,-3.9991,-9.5662,0.2260,10.371
11.542000,-3.8538,-9.4914,0.3360,10.249
11.546000,-3.7171,-9.4083,0.4649,10.127
11.552000,-3.5845,-9.3005,0.6176,9.986
11.558000,-3.4486,-9.1781,0.7266,9.831
11.562000,-3.3072,-9.0511,0.7876,9.669
11.566000,-3.1629,-8.9535,0.8082,9.530
11.627000,-3.0133,-8.8807,0.7721,9.410
11.628000,-2.8464,-8.8400,0.6796,9.312
11.629000,-2.6911,-8.8652,0.5693,9.282
11.629000,-2.4995,-8.9226,0.4748,9.278
11.629000,-2.3339,-9.0098,0.3437,9.313
11.630000,-2.1729,-9.0909,0.2029,9.349
11.630000,-2.0617,-9.1489,0.0576,9.378
11.631000,-1.9839,-9.1598,-0.0870,9.373
11.631000,-1.9727,-9.1403,-0.2330,9.354
11.631000,-2.0114,-9.1117,-0.3583,9.338
11.632000,-2.0930,-9.1100,-0.4888,9.360
11.632000,-2.2315,-9.0845,-0.6506,9.377
11.633000,-2.3888,-9.0326,-0.8099,9.378
11.639000,-2.5694,-8.9259,-0.9665,9.338
11.641000,-2.7518,-8.7380,-1.1328,9.231
11.646000,-2.9500,-8.4905,-1.2853,9.080
11.653000,-3.1446,-8.1889,-1.5013,8.899
11.657000,-3.3211,-7.8137,-1.7689,8.672
11.662000,-3.4149,-7.3842,-2.0352,8.386
11.666000,-3.4450,-6.9437,-2.2937,8.084
11.673000,-3.3874,-6.4898,-2.5565,7.754
11.677000,-3.2396,-6.0655,-2.7948,7.423
11.682000,-3.0474,-5.6865,-3.0136,7.121
11.744000,-2.8154,-5.3261,-3.1962,6.820
11.745000,-2.5172,-4.9799,-3.4072,6.538
11.746000,-2.1626,-4.6722,-3.6033,6.284
11.746000,-1.7780,-4.3793,-3.7558,6.037
11.746000,-1.3536,-4.0868,-3.8479,5.774
11.746000,-0.8853,-3.7869,-3.8630,5.482
11.747000,-0.3873,-3.4749,-3.7967,5.161
11.747000,0.1235,-3.1206,-3.6639,4.814
11.748000,0.5943,-2.7440,-3.4936,4.482
11.748000,0.9868,-2.3526,-3.2838,4.158
11.748000,1.2622,-1.9482,-3.0658,3.846
11.749000,1.3921,-1.5688,-2.8542,3.542
11.749000,1.3860,-1.2552,-2.6036,3.206
11.752000,1.2848,-1.0143,-2.3240,2.843
11.757000,1.1008,-0.8098,-2.0541,2.467
11.762000,0.8512,-0.6217,-1.8298,2.112
11.766000,0.5524,-0.4456,-1.6293,1.777
11.775000,0.2142,-0.2759,-1.4352,1.477
11.778000,-0.1227,-0.1361,-1.2397,1.253
11.782000,-0.4750,-0.0067,-1.0612,1.163
11.840000,-0.8094,0.1177,-0.8704,1.194
11.841000,-1.1470,0.2474,-0.6978,1.365
11.842000,-1.4669,0.3769,-0.4972,1.594
11.842000,-1.7737,0.4973,-0.3068,1.867
11.842000,-2.0386,0.6351,-0.1191,2.139
11.843000,-2.2688,0.7714,0.0685,2.397
11.843000,-2.4327,0.9140,0.2701,2.613
11.844000,-2.5382,1.0403,0.4545,2.780
11.844000,-2.5825,1.1554,0.6238,2.897
11.844000,-2.5799,1.2809,0.7540,2.977
11.845000,-2.5259,1.4118,0.8760,3.023
11.845000,-2.4274,1.5383,0.9704,3.033
11.847000,-2.2939,1.6561,1.0420,3.015
11.852000,-2.1189,1.7711,1.0857,2.967
11.858000,-1.9115,1.8935,1.1016,2.907
11.862000,-1.6598,2.0327,1.0992,2.845
11.867000,-1.3808,2.1741,1.0331,2.775
11.873000,-1.0411,2.3296,1.0278,2.751
11.878000,-0.6546,2.4710,1.0232,2.753
11.881000,-0.2679,2.6183,1.0122,2.820
11.941000,0.1313,2.7624,1.0305,2.951
11.942000,0.5212,2.9054,1.0684,3.139
11.942000,0.9065,3.0565,1.1330,3.383
11.943000,1.2754,3.2135,1.2287,3.669
11.943000,1.6030,3.3752,1.3240,3.964
11.943000,1.9446,3.5178,1.4593,4.276
11.943000,2.2784,3.6460,1.6344,4.600
11.944000,2.6044,3.7476,1.7961,4.904
11.944000,2.8839,3.8343,1.9467,5.178
11.944000,3.1509,3.9017,2.0716,5.426
11.945000,3.4019,3.9463,2.1611,5.641
11.945000,3.6205,3.9640,2.2080,5.805
11.947000,3.8208,3.9522,2.2028,5.922
11.954000,4.0174,3.9113,2.1602,6.009
11.957000,4.2028,3.8485,2.0639,6.061
11.962000,4.3822,3.7643,1.9499,6.097
11.967000,4.5572,3.6728,1.8355,6.134
11.974000,4.7353,3.5742,1.7090,6.174
11.978000,4.9236,3.4617,1.5968,6.227
11.983000,5.1292,3.3401,1.4990,6.302
11.991000,5.3309,3.2240,1.3800,6.381
11.992000,5.5350,3.1227,1.2639,6.480
11.998000,5.7490,3.0243,1.1364,6.595
12.060000,5.9535,2.9530,1.0195,6.723
12.062000,6.1559,2.9159,0.8963,6.870
12.062000,6.3343,2.8987,0.7889,7.011
12.062000,6.5033,2.8945,0.7236,7.155
12.063000,6.6432,2.8837,0.7006,7.276
12.063000,6.7591,2.8881,0.7099,7.385
12.063000,6.8537,2.9198,0.7324,7.486
12.064000,6.9531,2.9740,0.7703,7.602
12.065000,7.0287,3.0457,0.8164,7.704
12.065000,7.0781,3.1375,0.8753,7.792
12.066000,7.0818,3.2631,0.9609,7.856
12.066000,7.0614,3.3868,1.0421,7.901
12.066000,7.0218,3.5107,1.1303,7.931
12.067000,7.0036,3.6347,1.2180,7.984
12.074000,6.9947,3.7636,1.2715,8.044
12.078000,6.9853,3.8492,1.2952,8.080
12.083000,6.9993,3.8915,1.3131,8.115
12.089000,7.0390,3.8402,1.3083,8.124
12.092000,7.1163,3.7004,1.2665,8.120
12.097000,7.2406,3.4696,1.1879,8.116
12.109000,7.4049,3.1435,1.0680,8.115
12.109000,7.6138,2.7702,0.9267,8.155
12.113000,7.8125,2.3500,0.7572,8.193
12.118000,7.9793,1.9740,0.5725,8.240
12.181000,8.1047,1.6520,0.4091,8.281
12.182000,8.2150,1.3697,0.2936,8.334
12.183000,8.2435,1.1055,0.2047,8.320
12.183000,8.1958,0.8699,0.1665,8.244
12.183000,8.1418,0.6917,0.1767,8.173
12.183000,8.0748,0.5925,0.2158,8.099
12.184000,7.9925,0.5558,0.2504,8.016
12.184000,7.9117,0.5932,0.3832,7.943
12.184000,7.7899,0.7358,0.4964,7.840
12.185000,7.6793,0.9739,0.6879,7.771
12.186000,7.5799,1.2996,0.9954,7.755
12.186000,7.4772,1.6813,1.3435,7.781
12.186000,7.3637,2.0873,1.7097,7.842
12.193000,7.2318,2.4498,2.1099,7.922
12.194000,7.0864,2.7422,2.4902,7.996
12.198000,6.9509,2.9951,2.7902,8.067
12.208000,6.8156,3.2010,2.9906,8.102
12.210000,6.6944,3.3667,3.0986,8.109
12.213000,6.5680,3.4944,3.1050,8.062
12.217000,6.3880,3.5599,3.0103,7.908
12.282000,6.1598,3.5661,2.8394,7.663
12.283000,5.9167,3.5562,2.6122,7.381
12.283000,5.6517,3.5494,2.3560,7.077
12.283000,5.3792,3.5075,2.1165,6.762
12.284000,5.1109,3.4542,1.8991,6.454
12.284000,4.8573,3.3832,1.6846,6.154
12.284000,4.6087,3.2822,1.4875,5.850
12.286000,4.3606,3.1609,1.2888,5.538
12.286000,4.1322,3.0384,1.0957,5.245
12.286000,3.9260,2.9195,0.9275,4.980
12.287000,3.7514,2.7822,0.7673,4.733
12.287000,3.5950,2.6274,0.5957,4.492
12.287000,3.4588,2.4640,0.4344,4.269
12.287000,3.3333,2.2562,0.2666,4.034
12.293000,3.1998,2.0064,0.1020,3.778
12.298000,3.0726,1.7410,-0.0546,3.532
12.306000,2.9205,1.4645,-0.2053,3.274
12.308000,2.7232,1.1733,-0.3239,2.983
12.367000,2.3610,0.7283,-0.4391,2.509
12.368000,2.2743,0.6104,-0.4290,2.394
12.368000,2.0232,0.3148,-0.4162,2.089
12.368000,1.7534,0.0132,-0.3890,1.796
12.369000,1.4426,-0.2901,-0.3381,1.510
12.369000,1.1239,-0.5982,-0.2806,1.304
12.369000,0.8002,-0.8939,-0.2455,1.225
12.369000,0.4884,-1.1962,-0.1873,1.306
12.370000,0.1911,-1.4880,-0.1088,1.504
12.370000,-0.0848,-1.7819,-0.0649,1.785
12.370000,-0.3336,-2.0881,-0.0077,2.115
12.371000,-0.5772,-2.3781,0.0174,2.447
12.378000,-0.7987,-2.6424,0.0272,2.761
12.379000,-0.9863,-2.8927,0.0340,3.056
12.383000,-1.1638,-3.1335,0.0450,3.343
12.390000,-1.3316,-3.3680,0.0554,3.622
12.393000,-1.5129,-3.6111,0.0484,3.916
12.398000,-1.7080,-3.8394,0.0337,4.202
12.403000,-1.9097,-4.0575,0.0236,4.485
12.409000,-2.1228,-4.2675,0.0250,4.766
12.413000,-2.3404,-4.4700,0.0380,5.046
12.424000,-2.5833,-4.6726,0.0408,5.339
12.424000,-2.8208,-4.8782,0.0360,5.635
12.429000,-3.0362,-5.0888,0.0403,5.926
12.434000,-3.2343,-5.3042,0.0442,6.213
12.491000,-3.4294,-5.5001,0.0475,6.482
12.492000,-3.6172,-5.6867,0.0432,6.740
12.492000,-3.7997,-5.8645,0.0218,6.988
12.493000,-3.9726,-6.0506,-0.0093,7.238
12.493000,-4.1190,-6.2544,-0.0358,7.489
12.494000,-4.2536,-6.4468,-0.0861,7.724
12.494000,-4.3456,-6.6517,-0.1433,7.947
12.494000,-4.3544,-6.8621,-0.2071,8.130
12.495000,-4.4835,-7.0767,-0.2872,8.382
12.495000,-4.5322,-7.2865,-0.3738,8.589
12.495000,-4.5603,-7.4936,-0.4691,8.785
12.496000,-4.5730,-7.7026,-0.5612,8.975
12.499000,-4.5655,-7.9211,-0.6358,9.165
12.504000,-4.5618,-8.1384,-0.6978,9.356
12.509000,-4.5381,-8.3546,-0.7639,9.538
12.514000,-4.5208,-8.5696,-0.8177,9.723
12.519000,-4.5028,-8.7426,-0.8570,9.871
12.523000,-4.5032,-8.9046,-0.9131,10.020
12.529000,-4.5101,-9.0174,-0.9669,10.129
12.534000,-4.5355,-9.0946,-1.0020,10.212
12.546000,-4.5720,-9.1676,-1.0356,10.297
12.548000,-4.5935,-9.2121,-1.0393,10.346
12.551000,-4.6116,-9.2568,-1.0421,10.394
12.614000,-4.5835,-9.3013,-1.0398,10.421
12.615000,-4.5017,-9.3432,-1.0447,10.424
12.616000,-4.3879,-9.3800,-1.0377,10.407
12.616000,-4.1728,-9.3949,-0.9994,10.328
12.616000,-3.8732,-9.3571,-0.9323,10.170
12.617000,-3.5061,-9.2769,-0.8838,9.957
12.617000,-3.1338,-9.1956,-0.8318,9.750
12.618000,-2.7898,-9.1260,-0.7234,9.570
12.618000,-2.4265,-9.0517,-0.6300,9.392
12.618000,-2.0795,-8.9875,-0.5372,9.241
12.619000,-1.7250,-8.9528,-0.4879,9.131
12.619000,-1.3942,-8.9431,-0.4603,9.063
12.619000,-1.0533,-8.9299,-0.4830,9.005
12.620000,-0.7411,-8.9309,-0.5095,8.976
12.624000,-0.4744,-8.9154,-0.5682,8.946
12.629000,-0.2771,-8.8718,-0.6682,8.901
12.633000,-0.1708,-8.8029,-0.7681,8.838
12.638000,-0.1436,-8.7283,-0.8678,8.772
12.645000,-0.1689,-8.6547,-0.9339,8.707
12.648000,-0.2350,-8.6237,-1.0070,8.685
12.656000,-0.3438,-8.6586,-1.0588,8.730
12.660000,-0.5358,-8.7016,-1.2048,8.801
12.663000,-0.7867,-8.7021,-1.4475,8.857
12.668000,-1.0268,-8.6398,-1.7532,8.876
12.730000,-1.2825,-8.5442,-2.1171,8.896
12.731000,-1.5606,-8.3971,-2.4722,8.892
12.731000,-1.8080,-8.1715,-2.7972,8.824
12.732000,-2.0030,-7.8815,-3.1045,8.704
12.732000,-2.1307,-7.5314,-3.3492,8.513
12.733000,-2.1309,-7.1040,-3.5799,8.235
12.733000,-2.0372,-6.6364,-3.7588,7.894
12.733000,-1.8183,-6.1262,-3.8911,7.482
12.734000,-1.4766,-5.5976,-3.9701,7.020
12.734000,-1.0289,-5.0754,-3.9980,6.542
12.735000,-0.5186,-4.5510,-3.9508,6.049
12.735000,0.0134,-4.0534,-3.8449,5.587
12.735000,0.5662,-3.5324,-3.7042,5.150
12.742000,1.1135,-3.0050,-3.5475,4.781
12.743000,1.6619,-2.4651,-3.3626,4.488
12.749000,2.1583,-1.9326,-3.1564,4.284
12.754000,2.5831,-1.4179,-2.9383,4.161
12.760000,2.9482,-0.9284,-2.6937,4.100
12.765000,3.2093,-0.4922,-2.4295,4.055
12.770000,3.3664,-0.1164,-2.1242,3.982
12.774000,3.3905,0.1748,-1.7827,3.835
12.779000,3.2627,0.3888,-1.4627,3.597
12.783000,2.9930,0.5242,-1.1572,3.251
12.846000,2.6146,0.6140,-0.8972,2.832
12.846000,2.1735,0.6715,-0.6920,2.378
12.847000,1.6988,0.7119,-0.5366,1.918
12.847000,1.2049,0.7573,-0.4398,1.490
12.847000,0.7448,0.8063,-0.3270,1.145
12.848000,0.3524,0.8814,-0.2144,0.973
12.848000,0.0008,0.9844,-0.0946,0.989
12.848000,-0.3049,1.0993,0.0780,1.143
12.849000,-0.5596,1.2503,0.2842,1.399
12.849000,-0.7874,1.4014,0.5429,1.697
12.849000,-0.9834,1.5573,0.8012,2.009
12.849000,-1.1664,1.7423,1.0662,2.352
12.850000,-1.2962,1.9435,1.3420,2.694
12.856000,-1.3941,2.1349,1.6281,3.025
12.859000,-1.4957,2.3307,1.8952,3.356
12.864000,-1.5411,2.5429,2.1405,3.664
12.872000,-1.5443,2.7503,2.3588,3.939
12.874000,-1.5155,2.9708,2.5278,4.185
12.878000,-1.4306,3.1833,2.6332,4.372
12.883000,-1.3065,3.4066,2.6797,4.527
12.930000,-1.1433,3.6264,2.6650,4.643
12.931000,-0.9606,3.8375,2.6204,4.745
12.932000,-0.7557,4.0500,2.5197,4.829
12.932000,-0.5200,4.2580,2.3941,4.913
12.932000,-0.2699,4.4453,2.2414,4.986
12.933000,-0.0106,4.6236,2.0715,5.066
12.933000,0.2506,4.7713,1.9130,5.147
12.933000,0.5422,4.9028,1.7779,5.243
12.934000,0.8525,5.0208,1.6664,5.358
12.934000,1.1470,5.1387,1.5710,5.494
12.942000,1.4331,5.2425,1.5016,5.638
12.945000,1.6891,5.3345,1.5084,5.795
12.949000,1.9267,5.4050,1.5387,5.941
12.955000,2.1339,5.4516,1.6281,6.077
12.959000,2.3182,5.4745,1.7453,6.196
12.964000,2.4958,5.4493,1.8969,6.287
12.982000,2.6766,5.3740,2.0417,6.341
12.982000,2.8464,5.2940,2.1511,6.384
12.983000,3.0194,5.1950,2.2442,6.414
12.985000,3.1982,5.0583,2.3187,6.418
13.068000,3.3657,4.8762,2.3816,6.386
13.069000,3.5244,4.6564,2.4333,6.327
13.069000,3.7009,4.4206,2.4665,6.271
13.070000,3.8927,4.1856,2.4694,6.227
13.070000,4.0806,3.9419,2.4565,6.183
13.070000,4.2673,3.6706,2.3922,6.116
13.071000,4.4307,3.4123,2.2746,6.037
13.071000,4.5927,3.1744,2.1184,5.971
13.071000,4.7437,2.9809,1.9288,5.925
13.072000,4.8861,2.8130,1.7160,5.893
13.072000,5.0343,2.6994,1.4827,5.902
13.072000,5.1693,2.6285,1.2653,5.936
13.073000,5.3315,2.6121,1.0524,6.030
13.073000,5.5112,2.6287,0.8704,6.168
13.073000,5.7227,2.6566,0.7431,6.353
13.074000,5.9420,2.6886,0.6727,6.557
13.074000,6.1881,2.7247,0.6566,6.793
13.074000,6.4318,2.7643,0.6587,7.032
13.081000,6.6493,2.7788,0.6954,7.240
13.085000,6.8331,2.7750,0.7329,7.411
13.089000,6.9690,2.7554,0.7640,7.533
13.095000,7.0759,2.7343,0.7838,7.626
13.099000,7.1373,2.7115,0.8210,7.679
13.109000,7.1697,2.6991,0.8565,7.709
13.110000,7.1350,2.6969,0.8998,7.681
13.115000,7.0836,2.6691,0.9673,7.631
13.119000,7.0204,2.5918,1.0731,7.560
13.184000,6.9673,2.4509,1.2145,7.485
13.185000,6.9411,2.2320,1.3695,7.419
13.185000,6.9636,1.9425,1.4876,7.381
13.185000,7.0034,1.6277,1.5687,7.359
13.186000,7.0390,1.3260,1.6132,7.342
13.186000,7.0680,1.0446,1.5733,7.316
13.186000,7.0617,0.7643,1.4543,7.250
13.187000,6.9820,0.5167,1.3168,7.124
13.188000,6.8795,0.3138,1.1658,6.985
13.188000,6.7782,0.1368,1.0210,6.856
13.188000,6.6977,-0.0284,0.8895,6.757
13.189000,6.6189,-0.1721,0.7618,6.665
13.189000,6.5754,-0.2918,0.6430,6.613
13.190000,6.5436,-0.3515,0.5187,6.573
13.195000,6.5210,-0.3320,0.4080,6.542
13.200000,6.5173,-0.2095,0.3208,6.529
13.207000,6.5107,0.0063,0.2545,6.516
13.211000,6.4844,0.3341,0.2308,6.497
13.214000,6.4404,0.7400,0.2923,6.489
13.261000,6.3787,1.2188,0.4220,6.508
13.262000,6.2820,1.7460,0.6024,6.548
13.262000,6.1692,2.2538,0.8135,6.618
13.262000,6.0259,2.7132,1.0305,6.688
13.263000,5.8853,3.1309,1.2434,6.781
13.263000,5.7163,3.4685,1.4156,6.834
13.263000,5.5425,3.7280,1.5851,6.865
13.263000,5.3974,3.9066,1.7253,6.883
13.264000,5.2495,4.0162,1.8170,6.855
13.265000,5.1228,4.0470,1.8480,6.785
13.270000,5.0166,4.0057,1.7994,6.667
13.275000,4.8981,3.8664,1.6764,6.462
13.280000,4.7861,3.6529,1.4555,6.194
13.286000,4.6592,3.3774,1.1568,5.870
13.291000,4.4985,3.0619,0.7957,5.500
13.296000,4.3068,2.7236,0.4066,5.112
13.299000,4.0983,2.3745,0.0216,4.737
13.306000,3.8766,2.0541,-0.3250,4.399
13.310000,3.6605,1.7671,-0.6019,4.109
13.369000,3.2207,1.3318,-0.9142,3.603
13.369000,3.1437,1.2433,-0.9108,3.501
13.370000,2.8624,0.9748,-0.9846,3.180
13.370000,2.5838,0.7169,-1.0355,2.874
13.370000,2.3058,0.4716,-1.0641,2.583
13.371000,2.0596,0.2488,-1.0874,2.342
13.371000,1.8096,0.0484,-1.0913,2.114
13.371000,1.5776,-0.1389,-1.0711,1.912
13.372000,1.3535,-0.3041,-1.0151,1.719
13.372000,1.1359,-0.4294,-0.9259,1.527
13.372000,0.9150,-0.5178,-0.8036,1.323
13.372000,0.6859,-0.6004,-0.6630,1.127
13.376000,0.4559,-0.6773,-0.5162,0.966
13.381000,0.1917,-0.7749,-0.3753,0.882
13.386000,-0.0832,-0.8722,-0.2451,0.910
13.391000,-0.3655,-0.9582,-0.1282,1.034
13.396000,-0.6291,-1.0550,-0.0149,1.228
13.400000,-0.8955,-1.1840,0.0707,1.486
13.407000,-1.1382,-1.2971,0.1382,1.731
13.410000,-1.3478,-1.4182,0.1590,1.963
13.415000,-1.5579,-1.5596,0.1548,2.210
13.489000,-1.7607,-1.7053,0.1187,2.454
13.490000,-1.9661,-1.8390,0.0655,2.693
13.490000,-2.1503,-1.9463,-0.0045,2.900
13.490000,-2.3324,-2.0438,-0.0887,3.102
13.491000,-2.5224,-2.1441,-0.1798,3.315
13.491000,-2.6981,-2.2433,-0.2706,3.519
13.491000,-2.8718,-2.3660,-0.3442,3.737
13.492000,-3.0341,-2.4975,-0.4150,3.952
13.492000,-3.1969,-2.6551,-0.4426,4.179
13.492000,-3.3622,-2.8013,-0.5060,4.405
13.493000,-3.5182,-2.9198,-0.5953,4.611
13.493000,-3.6389,-3.0464,-0.6650,4.792
13.493000,-3.7146,-3.2120,-0.7030,4.961
13.494000,-3.7599,-3.4284,-0.7071,5.137
13.494000,-3.7725,-3.6985,-0.6825,5.327
13.496000,-3.7640,-4.0040,-0.6364,5.532
13.502000,-3.7251,-4.3213,-0.6003,5.737
13.507000,-3.6725,-4.6456,-0.5692,5.949
13.511000,-3.6184,-4.9624,-0.5386,6.165
13.516000,-3.5771,-5.2884,-0.5036,6.404
13.521000,-3.5343,-5.6502,-0.4647,6.681
13.527000,-3.4803,-6.0584,-0.4193,6.999
13.530000,-3.4175,-6.5010,-0.3724,7.354
13.545000,-3.3437,-6.9658,-0.3266,7.734
13.546000,-3.2612,-7.4262,-0.3082,8.117
13.547000,-3.1774,-7.8435,-0.3266,8.469
13.551000,-3.0947,-8.2277,-0.3504,8.797
13.621000,-3.0349,-8.6016,-0.3698,9.129
13.622000,-3.0051,-8.9441,-0.3846,9.443
13.623000,-3.0270,-9.2596,-0.4306,9.751
13.623000,-3.0742,-9.5334,-0.4622,10.027
13.624000,-3.1181,-9.7652,-0.4915,10.263
13.624000,-3.2065,-9.9121,-0.5950,10.435
13.625000,-3.3131,-9.9974,-0.7363,10.558
13.625000,-3.4023,-10.0306,-0.8816,10.629
13.626000,-3.4980,-10.0332,-1.0358,10.676
13.626000,-3.5929,-9.9667,-1.2083,10.663
13.626000,-3.6825,-9.8550,-1.4346,10.618
13.627000,-3.7333,-9.6837,-1.6761,10.513
13.627000,-3.7214,-9.4598,-1.9302,10.347
13.628000,-3.7020,-9.2123,-2.1730,10.163
13.630000,-3.6296,-8.9221,-2.3658,9.918
13.631000,-3.5068,-8.6090,-2.4965,9.625
13.637000,-3.3599,-8.3047,-2.6061,9.330
13.642000,-3.1864,-8.0379,-2.6851,9.054
13.648000,-2.9407,-7.8404,-2.7032,8.799
13.651000,-2.6203,-7.7265,-2.6657,8.583
13.665000,-2.2274,-7.6869,-2.5734,8.407
13.666000,-1.7621,-7.6815,-2.4793,8.262
13.668000,-1.2792,-7.6676,-2.3408,8.118
13.671000,-0.8173,-7.6015,-2.1795,7.950
13.726000,-0.4122,-7.5004,-1.9932,7.772
13.727000,-0.0926,-7.3580,-1.7795,7.571
13.728000,0.1128,-7.2249,-1.5409,7.388
13.728000,0.2115,-7.1444,-1.2755,7.260
13.728000,0.2228,-7.1305,-1.0098,7.205
13.729000,0.1492,-7.1482,-0.7681,7.191
13.729000,-0.0091,-7.1488,-0.6079,7.175
13.729000,-0.2805,-7.1035,-0.5744,7.132
13.730000,-0.6458,-6.9760,-0.6885,7.040
13.730000,-1.0379,-6.7750,-0.9396,6.918
13.731000,-1.4157,-6.5281,-1.2698,6.800
13.731000,-1.6887,-6.2499,-1.6256,6.675
13.738000,-1.8279,-5.9610,-1.9637,6.537
13.742000,-1.8143,-5.6662,-2.2481,6.360
13.747000,-1.7340,-5.3750,-2.5028,6.178
13.752000,-1.6039,-5.0520,-2.7490,5.971
13.757000,-1.3619,-4.7113,-2.9312,5.713
13.761000,-1.0183,-4.3596,-3.0564,5.421
13.766000,-0.6089,-3.9944,-3.1031,5.095
13.826000,-0.1197,-3.6070,-3.1265,4.775
13.827000,0.3723,-3.2271,-3.1100,4.497
13.828000,0.8933,-2.8524,-3.0558,4.275
13.828000,1.4042,-2.4684,-2.9284,4.079
13.828000,1.8687,-2.0996,-2.7422,3.927
13.829000,2.2436,-1.7658,-2.4857,3.786
13.829000,2.5000,-1.4603,-2.2195,3.648
13.830000,2.6524,-1.1571,-1.9844,3.509
13.830000,2.6673,-0.8748,-1.7685,3.318
13.830000,2.5373,-0.6550,-1.5048,3.022
13.831000,2.2698,-0.4995,-1.2248,2.627
13.831000,1.9179,-0.3668,-0.9574,2.175
13.831000,1.4892,-0.2659,-0.7359,1.682
13.836000,1.0221,-0.1556,-0.5509,1.172
13.841000,0.5245,-0.0636,-0.4068,0.667
13.847000,0.0416,0.0268,-0.3153,0.319
13.852000,-0.4191,0.1240,-0.2495,0.503
13.863000,-0.8476,0.2164,-0.2068,0.899
13.865000,-1.2199,0.3167,-0.1531,1.270
13.867000,-1.5215,0.4395,-0.0908,1.586
13.949000,-1.7425,0.5638,-0.0413,1.832
13.950000,-1.9456,0.6964,0.0434,2.067
13.951000,-2.0777,0.8639,0.1341,2.254
13.951000,-2.1171,1.0687,0.2186,2.382
13.951000,-2.1047,1.3008,0.2990,2.492
13.952000,-2.0737,1.5294,0.3942,2.607
13.953000,-2.0055,1.7700,0.5201,2.725
13.953000,-1.8999,2.0038,0.6189,2.830
13.953000,-1.7639,2.2497,0.6400,2.930
13.954000,-1.6099,2.4764,0.5862,3.011
13.954000,-1.3972,2.6766,0.6345,3.085
13.954000,-1.1661,2.8435,0.6886,3.150
13.955000,-0.8887,3.0096,0.7029,3.216
13.955000,-0.5601,3.1894,0.6969,3.312
13.955000,-0.1974,3.3923,0.6636,3.462
13.956000,0.1557,3.5987,0.6536,3.661
13.956000,0.4726,3.8010,0.6505,3.885
13.956000,0.7750,3.9780,0.6544,4.105
13.963000,1.0069,4.1192,0.6823,4.295
13.968000,1.1901,4.2441,0.7533,4.472
13.973000,1.3631,4.3601,0.8505,4.647
13.977000,1.5544,4.4550,0.9641,4.816
13.982000,1.7595,4.5316,1.0989,4.984
13.986000,1.9654,4.5818,1.2189,5.132
14.046000,2.1677,4.6419,1.3721,5.304
14.046000,2.3684,4.6853,1.5461,5.473
14.047000,2.5508,4.7240,1.7121,5.635
14.047000,2.7146,4.7314,1.8628,5.764
14.047000,2.8602,4.7175,2.0267,5.877
14.047000,2.9967,4.6699,2.1846,5.963
14.048000,3.1409,4.5841,2.2907,6.011
14.048000,3.3026,4.4530,2.4362,6.056
14.048000,3.4744,4.2887,2.5610,6.085
14.049000,3.6467,4.0982,2.6434,6.089
14.049000,3.7931,3.8961,2.6884,6.066
14.049000,3.9132,3.6869,2.6678,6.002
14.051000,3.9977,3.4732,2.6033,5.901
14.058000,4.0586,3.2529,2.5072,5.774
14.062000,4.1224,3.0502,2.3751,5.652
14.066000,4.1849,2.8513,2.2239,5.531
14.073000,4.2602,2.6656,2.0633,5.432
14.078000,4.3248,2.5125,1.9223,5.358
14.082000,4.3954,2.3851,1.8033,5.316
14.147000,4.4745,2.2666,1.7133,5.300
14.148000,4.5432,2.1929,1.6284,5.301
14.148000,4.5943,2.1569,1.5532,5.308
14.149000,4.6493,2.1464,1.4875,5.333
14.149000,4.7010,2.1615,1.4122,5.363
14.149000,4.7496,2.1997,1.3271,5.400
14.150000,4.7997,2.2489,1.2226,5.440
14.150000,4.8490,2.3331,1.1106,5.495
14.150000,4.8949,2.3973,0.9937,5.540
14.151000,4.9182,2.4603,0.8886,5.571
14.151000,4.9596,2.5008,0.7785,5.609
14.151000,4.9902,2.5377,0.6681,5.638
14.152000,5.0413,2.5570,0.5575,5.680
14.152000,5.1224,2.5537,0.4348,5.740
14.157000,5.2069,2.4944,0.3193,5.782
14.163000,5.3356,2.3457,0.2257,5.833
14.168000,5.5059,2.1223,0.1323,5.902
14.172000,5.6988,1.8458,0.0348,5.990
14.177000,5.9214,1.5666,-0.0978,6.126
14.182000,6.1616,1.2872,-0.2792,6.301
14.193000,6.3879,1.0481,-0.4920,6.492
14.193000,6.5643,0.8878,-0.7069,6.662
14.197000,6.6959,0.7753,-0.8945,6.800
14.202000,6.8377,0.7322,-1.0281,6.953
14.279000,6.9969,0.7324,-1.0982,7.120
14.280000,7.1042,0.7231,-1.0831,7.223
14.281000,7.1575,0.7523,-0.9832,7.264
14.281000,7.1691,0.9134,-0.8583,7.278
14.281000,7.1846,1.2135,-0.7181,7.322
14.282000,7.1796,1.5945,-0.4406,7.368
14.282000,7.1206,2.0227,-0.1412,7.404
14.282000,7.0768,2.4736,0.3228,7.504
14.283000,7.0721,2.8750,0.8973,7.687
14.283000,7.0678,3.2358,1.4970,7.916
14.283000,7.1067,3.5600,2.0920,8.219
14.284000,7.1787,3.8209,2.6595,8.556
14.284000,7.2426,4.0080,3.2036,8.876
14.284000,7.2815,4.1618,3.6751,9.157
14.285000,7.2639,4.2600,4.0235,9.333
14.285000,7.1922,4.2977,4.2415,9.391
14.287000,7.0591,4.3036,4.3152,9.326
14.294000,6.8697,4.2586,4.2570,9.135
14.297000,6.6286,4.1771,4.0728,8.830
14.302000,6.3558,4.0479,3.8304,8.453
14.311000,6.0896,3.8877,3.5329,8.042
14.313000,5.8372,3.7040,3.1978,7.617
14.370000,5.6014,3.4897,2.8376,7.184
14.371000,5.3774,3.2403,2.4481,6.739
14.372000,5.1578,2.9841,2.0442,6.300
14.372000,4.9505,2.7151,1.6317,5.877
14.372000,4.7578,2.4567,1.2398,5.496
14.372000,4.5510,2.2068,0.8832,5.134
14.373000,4.3423,1.9845,0.5528,4.806
14.373000,4.1384,1.7821,0.2680,4.514
14.374000,3.9501,1.5720,0.0338,4.252
14.374000,3.7554,1.3370,-0.1620,3.990
14.374000,3.5451,1.0697,-0.3337,3.718
14.375000,3.3267,0.7705,-0.4889,3.450
14.377000,3.0839,0.4493,-0.6419,3.182
14.382000,2.8383,0.1153,-0.7736,2.944
14.388000,2.5913,-0.2010,-0.8794,2.744
14.392000,2.3307,-0.4832,-0.9377,2.558
14.397000,2.0520,-0.7217,-0.9561,2.376
14.403000,1.7652,-0.9116,-0.8989,2.181
14.409000,1.4798,-1.0887,-0.8075,2.007
14.412000,1.1982,-1.2635,-0.6943,1.875
14.497000,0.8998,-1.4415,-0.5908,1.799
14.498000,0.6251,-1.6019,-0.5070,1.793
14.498000,0.3431,-1.7566,-0.4312,1.841
14.498000,0.0492,-1.9078,-0.3612,1.942
14.499000,-0.2659,-2.0839,-0.3448,2.129
14.499000,-0.5788,-2.2568,-0.3531,2.356
14.499000,-0.8645,-2.4411,-0.3548,2.614
14.500000,-1.0972,-2.6423,-0.3524,2.883
14.500000,-1.2936,-2.8100,-0.3482,3.113
14.500000,-1.4706,-2.9634,-0.3493,3.327
14.501000,-1.6473,-3.1071,-0.3628,3.535
14.501000,-1.8193,-3.2632,-0.3863,3.756
14.501000,-1.9692,-3.4229,-0.4005,3.969
14.502000,-2.1332,-3.5940,-0.4246,4.201
14.502000,-2.3090,-3.7522,-0.4466,4.428
14.502000,-2.4630,-3.8952,-0.4688,4.632
14.503000,-2.5884,-4.0498,-0.4434,4.827
14.503000,-2.6824,-4.2218,-0.3780,5.016
14.507000,-2.7835,-4.4478,-0.3182,5.257
14.512000,-2.9109,-4.6988,-0.2832,5.535
14.517000,-3.0238,-4.9603,-0.2537,5.815
14.526000,-3.1128,-5.2437,-0.2322,6.102
14.527000,-3.1757,-5.5138,-0.2140,6.367
14.533000,-3.2241,-5.7904,-0.2011,6.631
14.601000,-3.2848,-6.0955,-0.1982,6.927
14.602000,-3.3362,-6.4144,-0.1935,7.233
14.602000,-3.4071,-6.7350,-0.1844,7.550
14.603000,-3.4736,-7.0782,-0.1686,7.886
14.603000,-3.5550,-7.4253,-0.1652,8.234
14.603000,-3.6250,-7.7482,-0.1595,8.556
14.604000,-3.6908,-8.0737,-0.1206,8.878
14.604000,-3.7766,-8.3846,-0.1178,9.197
14.605000,-3.8753,-8.6521,-0.1293,9.481
14.605000,-3.9655,-8.8956,-0.1359,9.740
14.605000,-4.0664,-9.1422,-0.1448,10.007
14.606000,-4.1687,-9.3471,-0.1773,10.236
14.606000,-4.2962,-9.5290,-0.2333,10.455
14.607000,-4.4301,-9.6876,-0.3246,10.657
14.607000,-4.5704,-9.8321,-0.4413,10.851
14.613000,-4.6982,-9.9527,-0.5641,11.020
14.617000,-4.7872,-10.0200,-0.7121,11.128
14.624000,-4.8663,-10.0628,-0.8898,11.213
14.628000,-4.9092,-10.0451,-1.0925,11.234
14.632000,-4.9160,-9.9789,-1.3153,11.202
14.687000,-4.8869,-9.8955,-1.5344,11.143
14.688000,-4.8385,-9.7925,-1.7593,11.063
14.688000,-4.7517,-9.6700,-1.9804,10.955
14.689000,-4.6265,-9.5328,-2.1836,10.819
14.689000,-4.4701,-9.3930,-2.3544,10.666
14.689000,-4.2801,-9.2534,-2.4859,10.494
14.690000,-4.0349,-9.1262,-2.5806,10.307
14.690000,-3.7175,-9.0238,-2.5960,10.099
14.691000,-3.3471,-8.9207,-2.5544,9.864
14.691000,-2.9283,-8.8124,-2.4686,9.609
14.692000,-2.4823,-8.7188,-2.3701,9.370
14.693000,-2.0811,-8.6311,-2.2424,9.157
14.697000,-1.7386,-8.5302,-2.1050,8.956
14.702000,-1.4692,-8.4054,-1.9604,8.755
14.708000,-1.2800,-8.2353,-1.7989,8.526
14.713000,-1.1708,-8.0560,-1.6231,8.301
14.719000,-1.1366,-7.8748,-1.4211,8.082
14.730000,-1.1654,-7.7397,-1.2194,7.921
14.733000,-1.2113,-7.6238,-1.0589,7.792
14.734000,-1.2912,-7.5206,-0.9584,7.691
14.800000,-1.3858,-7.3816,-0.9678,7.573
14.802000,-1.4975,-7.1756,-1.0622,7.407
14.802000,-1.6359,-6.8976,-1.2193,7.193
14.802000,-1.7867,-6.5857,-1.4024,6.966
14.803000,-1.8946,-6.2558,-1.5609,6.720
14.803000,-1.9360,-5.9471,-1.6704,6.474
14.804000,-1.8988,-5.6088,-1.7260,6.168
14.804000,-1.7877,-5.2747,-1.7853,5.849
14.804000,-1.5861,-4.9141,-1.8483,5.485
14.805000,-1.2964,-4.5459,-1.9078,5.098
14.805000,-0.9621,-4.1603,-1.9468,4.693
14.805000,-0.5522,-3.7761,-1.9581,4.289
14.806000,-0.0958,-3.3988,-1.9273,3.908
14.806000,0.3879,-3.0148,-1.8496,3.558
14.808000,0.8530,-2.6343,-1.7179,3.259
14.813000,1.3212,-2.2597,-1.5321,3.033
14.818000,1.7793,-1.9050,-1.2947,2.911
14.824000,2.1917,-1.5725,-1.0274,2.886
14.828000,2.5294,-1.2364,-0.7426,2.912
14.832000,2.7706,-0.9236,-0.4594,2.956
14.840000,2.9103,-0.6535,-0.1204,2.985
14.843000,2.9583,-0.4616,0.2665,3.006
14.847000,2.8880,-0.3273,0.6769,2.984
14.928000,2.7309,-0.2307,1.0626,2.939
14.929000,2.4825,-0.1452,1.4089,2.858
14.929000,2.1812,-0.0726,1.7160,2.776
14.930000,1.8442,-0.0099,1.9503,2.684
14.930000,1.4783,0.0666,2.1311,2.595
14.930000,1.0889,0.1626,2.2635,2.517
14.931000,0.6954,0.2786,2.3476,2.464
14.931000,0.3122,0.4150,2.3766,2.433
14.931000,-0.0845,0.5458,2.4130,2.475
14.932000,-0.4200,0.6934,2.4256,2.558
14.932000,-0.7090,0.8620,2.4239,2.668
14.932000,-0.9679,1.0232,2.3909,2.775
14.932000,-1.2110,1.1677,2.3552,2.894
14.933000,-1.3711,1.3315,2.2783,2.974
14.933000,-1.4553,1.5027,2.1504,3.000
14.933000,-1.4565,1.6694,2.0004,2.985
14.933000,-1.3466,1.8355,1.7996,2.902
14.941000,-1.1425,2.0034,1.5430,2.775
14.943000,-0.8996,2.1703,1.2502,2.661
14.949000,-0.6612,2.3121,0.9449,2.584
14.953000,-0.4440,2.4720,0.6275,2.589
14.958000,-0.2226,2.6419,0.3363,2.673
14.963000,0.0154,2.8222,0.0930,2.824
14.968000,0.2481,3.0245,-0.1287,3.037
15.027000,0.4681,3.2177,-0.3387,3.269
15.028000,0.6705,3.3942,-0.5319,3.500
15.029000,0.8530,3.5593,-0.7278,3.732
15.029000,0.9863,3.7099,-0.9138,3.946
15.029000,1.0849,3.8559,-1.0733,4.147
15.030000,1.1752,3.9807,-1.2084,4.323
15.030000,1.2596,4.0750,-1.3168,4.464
15.030000,1.3454,4.1605,-1.4129,4.595
15.031000,1.4330,4.2446,-1.4966,4.723
15.031000,1.5192,4.3366,-1.5414,4.847
15.031000,1.6021,4.4319,-1.5691,4.967
15.032000,1.6814,4.5042,-1.5844,5.062
15.034000,1.7501,4.5487,-1.5467,5.113
15.039000,1.8201,4.5750,-1.4705,5.139
15.044000,1.9061,4.5812,-1.3943,5.154
15.048000,2.0268,4.5763,-1.3207,5.176
15.056000,2.1728,4.5701,-1.2496,5.212
15.059000,2.3153,4.5244,-1.1714,5.216
15.062000,2.4326,4.4440,-1.0882,5.182
15.068000,2.5370,4.3269,-0.9977,5.114
15.131000,2.6519,4.1776,-0.8853,5.027
15.131000,2.7751,3.9988,-0.7699,4.928
15.132000,2.9091,3.8216,-0.6612,4.848
15.132000,3.0705,3.6270,-0.5520,4.784
15.132000,3.2571,3.4391,-0.4542,4.758
15.133000,3.4522,3.2268,-0.3653,4.740
15.133000,3.6625,3.0163,-0.2900,4.754
15.133000,3.8739,2.8316,-0.2068,4.803
15.134000,4.0935,2.6752,-0.1250,4.892
15.134000,4.3260,2.5277,-0.0472,5.011
15.134000,4.5498,2.4012,0.0123,5.145
15.135000,4.7459,2.2981,0.0606,5.273
15.135000,4.9236,2.2301,0.0932,5.406
15.138000,5.1095,2.2093,0.1460,5.569
15.145000,5.1239,2.2237,0.1784,5.588
15.149000,5.4713,2.2633,0.2790,5.928
15.155000,5.6589,2.2828,0.4306,6.117
15.158000,5.8013,2.3104,0.5681,6.270
15.163000,5.9488,2.3389,0.7273,6.433
15.169000,6.0631,2.3921,0.8528,6.573
15.219000,6.1703,2.4602,0.9925,6.716
15.220000,6.2321,2.5215,1.0959,6.812
15.220000,6.2386,2.5878,1.2015,6.860
15.221000,6.2089,2.6588,1.3114,6.880
15.221000,6.1477,2.7154,1.4064,6.866
15.221000,6.0764,2.7765,1.4648,6.839
15.222000,5.9925,2.8395,1.4652,6.791
15.222000,5.8912,2.9068,1.4291,6.723
15.222000,5.7866,2.9113,1.3545,6.618
15.222000,5.7076,2.8412,1.2461,6.496
15.223000,5.6567,2.6752,1.1018,6.354
15.229000,5.6291,2.4352,0.9053,6.200
15.234000,5.6036,2.1263,0.6571,6.029
15.239000,5.5560,1.7845,0.3747,5.848
15.244000,5.4605,1.4728,0.0805,5.656
15.248000,5.3126,1.2082,-0.1959,5.452
15.254000,5.1414,1.0030,-0.4138,5.255
15.258000,4.9570,0.8192,-0.5131,5.050
15.263000,4.7911,0.6500,-0.4872,4.859
15.270000,4.7107,0.4571,-0.3510,4.746
15.274000,4.7167,0.2289,-0.1489,4.725
15.279000,4.7872,-0.0063,0.0588,4.788
15.284000,4.8389,-0.2483,0.3145,4.855
15.344000,4.8720,-0.4708,0.4859,4.919
15.345000,4.8606,-0.5874,0.4921,4.921
15.345000,4.8356,-0.6220,0.5421,4.906
15.346000,4.7979,-0.5787,0.5902,4.869
15.346000,4.7307,-0.4265,0.7226,4.805
15.346000,4.7058,-0.1537,0.9485,4.803
15.346000,4.6631,0.1913,1.2358,4.828
15.347000,4.6334,0.6151,1.6173,4.946
15.347000,4.6427,1.0497,2.0722,5.191
15.347000,4.6949,1.4941,2.5370,5.542
15.347000,4.7295,1.8730,2.9296,5.870
15.348000,4.6885,2.1593,3.2019,6.074
15.348000,4.5644,2.3649,3.3352,6.128
15.354000,4.3759,2.5302,3.3183,6.047
15.359000,4.1544,2.6602,3.1667,5.862
15.364000,3.9189,2.7072,2.9388,5.597
15.369000,3.7027,2.6355,2.6595,5.266
15.374000,3.5514,2.4456,2.3366,4.904
15.379000,3.4698,2.2047,1.9422,4.547
15.384000,3.4291,1.9751,1.4343,4.209
15.392000,3.4058,1.8152,0.8236,3.946
15.395000,3.3971,1.7297,0.2004,3.817
15.398000,3.4007,1.6852,-0.3456,3.811
15.464000,3.4068,1.6532,-0.7302,3.856
15.464000,3.4273,1.5805,-0.9155,3.884
15.465000,3.4320,1.4535,-0.9196,3.839
15.465000,3.4354,1.2813,-0.7678,3.746
15.465000,3.3685,1.0876,-0.5073,3.576
15.466000,3.3609,0.8794,-0.2182,3.481
15.466000,3.3074,0.6708,0.0887,3.376
15.466000,3.2247,0.4806,0.3918,3.284
15.467000,3.1471,0.2831,0.6879,3.234
15.467000,3.0839,0.0898,0.9914,3.241
15.467000,3.0041,-0.0946,1.2854,3.269
15.467000,2.8910,-0.2775,1.5360,3.285
15.468000,2.7306,-0.4563,1.7838,3.293
15.468000,2.5252,-0.6291,2.0335,3.303
15.474000,2.2875,-0.7900,2.2823,3.327
15.479000,2.0343,-0.9706,2.5424,3.398
15.483000,1.7249,-1.1469,2.7658,3.455
15.491000,1.3788,-1.2924,2.9576,3.510
15.493000,1.0029,-1.4340,3.0989,3.559
15.498000,0.6053,-1.5746,3.2142,3.630
15.559000,0.2143,-1.7292,3.2995,3.731
15.560000,-0.1652,-1.8806,3.3384,3.835
15.560000,-0.5306,-2.0570,3.3078,3.931
15.561000,-0.8938,-2.2341,3.2797,4.068
15.563000,-1.2121,-2.3788,3.2092,4.175
15.565000,-1.4993,-2.4893,3.1018,4.250
15.566000,-1.7726,-2.5927,2.9577,4.314
15.567000,-2.0583,-2.7078,2.8421,4.432
15.570000,-2.3228,-2.8224,2.6999,4.544
15.571000,-2.5759,-2.9459,2.5624,4.678
15.572000,-2.8057,-3.0599,2.4008,4.796
15.573000,-3.0357,-3.1815,2.2558,4.942
15.575000,-3.2685,-3.3017,2.1128,5.104
15.576000,-3.4609,-3.4010,1.9764,5.239
15.577000,-3.6370,-3.5081,1.8322,5.375
15.580000,-3.8015,-3.5987,1.7014,5.504
15.584000,-3.9571,-3.6640,1.5817,5.620
15.589000,-4.1034,-3.7288,1.4893,5.741
15.594000,-4.2431,-3.7987,1.4311,5.872
15.599000,-4.3784,-3.8543,1.3947,5.998
15.607000,-4.5023,-3.9364,1.3653,6.134
15.609000,-4.6077,-4.0239,1.3258,6.259
15.614000,-4.6919,-4.1298,1.2758,6.379
15.618000,-4.7863,-4.2620,1.2104,6.522
15.689000,-4.8551,-4.3986,1.1033,6.644
15.690000,-4.9293,-4.5348,0.9927,6.771
15.691000,-5.0093,-4.6561,0.8788,6.895
15.691000,-5.0830,-4.7678,0.7664,7.011
15.691000,-5.1719,-4.8566,0.6479,7.124
15.692000,-5.2786,-4.9542,0.5451,7.260
15.692000,-5.3816,-5.0366,0.4484,7.384
15.692000,-5.4810,-5.1372,0.3529,7.520
15.693000,-5.5697,-5.2414,0.2779,7.653
15.693000,-5.6668,-5.3473,0.2209,7.795
15.694000,-5.7749,-5.4344,0.1577,7.931
15.694000,-5.9059,-5.5127,0.0932,8.079
15.695000,-6.0264,-5.5674,0.0080,8.204
15.695000,-6.1434,-5.6030,-0.0980,8.315
15.695000,-6.2334,-5.6409,-0.1552,8.408
15.698000,-6.3083,-5.6853,-0.1732,8.494
15.704000,-6.3633,-5.7551,-0.1786,8.582
15.709000,-6.3986,-5.8332,-0.1904,8.660
15.714000,-6.3808,-5.8786,-0.2230,8.679
15.719000,-6.2765,-5.9055,-0.2639,8.622
15.724000,-6.1027,-5.9115,-0.3083,8.502
15.728000,-5.8835,-5.9133,-0.3269,8.348
15.734000,-5.6357,-5.9087,-0.3175,8.172
15.782000,-5.3617,-5.9053,-0.2966,7.982
15.783000,-5.0711,-5.9174,-0.2736,7.798
15.783000,-4.7688,-5.9214,-0.2508,7.607
15.784000,-4.4499,-5.9268,-0.2163,7.415
15.784000,-4.1193,-5.9076,-0.1794,7.204
15.784000,-3.7720,-5.8714,-0.1379,6.980
15.785000,-3.3961,-5.8185,-0.0894,6.738
15.785000,-3.0084,-5.7473,-0.0313,6.487
15.785000,-2.6254,-5.7009,0.0241,6.276
15.786000,-2.2617,-5.6780,0.0629,6.112
15.790000,-1.9530,-5.6979,0.0805,6.024
15.795000,-1.6802,-5.7561,0.0673,5.997
15.799000,-1.4431,-5.8261,0.0118,6.002
15.804000,-1.2490,-5.9153,-0.0717,6.046
15.809000,-1.1072,-6.0206,-0.1948,6.125
15.814000,-1.0035,-6.1330,-0.3308,6.223
15.819000,-0.9257,-6.2470,-0.4701,6.333
15.825000,-0.8665,-6.3600,-0.5839,6.445
15.830000,-0.8139,-6.4620,-0.6820,6.549
15.835000,-0.7557,-6.5458,-0.7476,6.632
15.899000,-0.6726,-6.6130,-0.8290,6.699
15.900000,-0.6123,-6.6742,-0.8973,6.762
15.900000,-0.5387,-6.7189,-0.9096,6.802
