time,ax,ay,az,aT
0.005000,0.0522,0.2132,-0.2625,0.342
0.006000,-0.0135,0.3533,-0.0855,0.364
0.006000,-0.0669,0.4814,0.0458,0.488
0.006000,-0.0843,0.5924,0.0908,0.605
0.006000,-0.1099,0.6889,0.0425,0.699
0.007000,-0.2262,0.7831,-0.1493,0.829
0.007000,-0.3225,0.8256,-0.3075,0.938
0.013000,-0.3149,0.7880,-0.3557,0.920
0.014000,-0.2168,0.6630,-0.3467,0.779
0.025000,-0.0823,0.5123,-0.3640,0.634
0.025000,0.0070,0.3241,-0.4053,0.519
0.029000,0.0462,0.1387,-0.4347,0.459
0.034000,0.0394,-0.0055,-0.4641,0.466
0.039000,0.0053,-0.0989,-0.4767,0.487
0.043000,-0.0657,-0.1489,-0.4487,0.477
0.049000,-0.1472,-0.1506,-0.4017,0.454
0.054000,-0.2316,-0.1210,-0.3619,0.446
0.059000,-0.3090,-0.0886,-0.3389,0.467
0.064000,-0.3651,-0.0508,-0.3066,0.479
0.077000,-0.3997,-0.0266,-0.2433,0.469
0.077000,-0.4030,-0.0138,-0.1586,0.433
0.079000,-0.3964,-0.0248,-0.0741,0.404
0.086000,-0.3806,-0.0526,0.0080,0.384
0.090000,-0.3481,-0.0830,0.0900,0.369
0.093000,-0.2985,-0.1135,0.1767,0.365
0.099000,-0.2460,-0.1179,0.2633,0.379
0.126000,-0.1928,-0.1347,0.3452,0.418
0.127000,-0.1535,-0.1425,0.4126,0.463
0.127000,-0.1042,-0.1343,0.4634,0.494
0.127000,-0.0591,-0.0958,0.4975,0.510
0.127000,-0.0302,-0.0702,0.4934,0.499
0.128000,-0.0059,-0.0381,0.4560,0.458
0.138000,0.0066,-0.0163,0.3996,0.400
0.153000,0.0143,-0.0190,0.3386,0.339
0.153000,-0.0068,-0.0197,0.2657,0.267
0.154000,-0.1208,-0.1282,0.2002,0.267
0.154000,-0.1426,-0.1643,0.1035,0.241
0.161000,-0.1258,-0.1567,0.0308,0.203
0.165000,-0.1359,-0.1276,-0.0083,0.187
0.176000,-0.1328,-0.0723,-0.0306,0.154
0.177000,-0.1069,-0.0269,-0.0457,0.119
0.179000,-0.0484,0.0252,-0.0630,0.083
0.188000,0.0285,0.0676,-0.0827,0.111
0.190000,0.0908,0.0931,-0.1215,0.178
0.193000,0.1389,0.1187,-0.1483,0.235
0.198000,0.1491,0.1327,-0.1704,0.262
0.231000,0.1645,0.1494,-0.1805,0.286
0.232000,0.1611,0.1449,-0.1715,0.276
0.232000,0.1389,0.1333,-0.1697,0.257
0.234000,0.1028,0.1075,-0.1727,0.228
0.235000,0.0696,0.0772,-0.1925,0.219
0.235000,0.0272,0.0399,-0.2004,0.206
0.236000,-0.0220,-0.0068,-0.2202,0.221
0.240000,-0.0636,-0.0629,-0.2376,0.254
0.244000,-0.1100,-0.1283,-0.2741,0.322
0.251000,-0.1566,-0.1552,-0.3010,0.373
0.262000,-0.1533,-0.1842,-0.3088,0.391
0.263000,-0.2124,-0.1962,-0.3095,0.424
0.263000,-0.2044,-0.1528,-0.3006,0.394
0.269000,-0.1717,-0.0969,-0.3110,0.368
0.274000,-0.1553,-0.0594,-0.3190,0.360
0.279000,-0.1342,-0.0359,-0.3199,0.349
0.295000,-0.1062,-0.0289,-0.3376,0.355
0.296000,-0.0622,-0.0241,-0.3457,0.352
0.296000,-0.0219,-0.0169,-0.3442,0.345
0.300000,-0.0138,-0.0074,-0.3284,0.329
0.304000,0.0099,0.0040,-0.2981,0.298
0.309000,0.0061,0.0198,-0.2630,0.264
0.313000,0.0060,0.0280,-0.2351,0.237
0.344000,-0.0240,0.0213,-0.1928,0.195
0.345000,-0.0598,-0.0074,-0.1337,0.147
0.345000,-0.0869,-0.0294,-0.0793,0.121
0.345000,-0.1099,-0.0519,-0.0178,0.123
0.346000,-0.1093,-0.0869,0.0389,0.145
0.346000,-0.1278,-0.1269,0.0765,0.196
0.349000,-0.1416,-0.1694,0.0662,0.231
0.355000,-0.1459,-0.2025,0.0847,0.264
0.359000,-0.1713,-0.2070,0.1080,0.290
0.364000,-0.1841,-0.1899,0.1169,0.289
0.369000,-0.1984,-0.1608,0.1114,0.279
0.374000,-0.1930,-0.1291,0.0963,0.251
0.379000,-0.1825,-0.1114,0.0740,0.226
0.393000,-0.1550,-0.0886,0.0637,0.190
0.394000,-0.1082,-0.0846,0.0652,0.152
0.395000,-0.0756,-0.0706,0.0620,0.121
0.400000,-0.0570,-0.0513,0.0778,0.109
0.404000,-0.0666,-0.0533,0.1055,0.136
0.410000,-0.0903,-0.0407,0.1188,0.155
0.415000,-0.1448,-0.0470,0.1345,0.203
0.463000,-0.2063,-0.0534,0.1214,0.245
0.465000,-0.2082,-0.0547,0.0964,0.236
0.465000,-0.3085,-0.0584,0.0977,0.329
0.465000,-0.3207,-0.0597,0.1326,0.352
0.467000,-0.2927,-0.0538,0.1961,0.356
0.467000,-0.2507,-0.0436,0.2763,0.376
0.468000,-0.1992,-0.0171,0.3302,0.386
0.468000,-0.1309,0.0159,0.3817,0.404
0.468000,-0.0790,0.0339,0.4140,0.423
0.469000,-0.0293,0.0558,0.4369,0.441
0.469000,-0.0007,0.0937,0.4215,0.432
0.475000,-0.0032,0.1068,0.3943,0.409
0.479000,-0.0177,0.0975,0.3314,0.346
0.485000,-0.0348,0.0757,0.2495,0.263
0.489000,-0.0334,0.0726,0.1654,0.184
0.495000,-0.0421,0.0764,0.0790,0.118
0.500000,-0.0418,0.0990,-0.0144,0.108
0.512000,-0.0492,0.1215,-0.1005,0.165
0.513000,-0.0478,0.1465,-0.1745,0.233
0.516000,-0.0400,0.1718,-0.2149,0.278
0.521000,-0.0017,0.2141,-0.2171,0.305
0.525000,0.0720,0.2568,-0.1930,0.329
0.529000,0.1815,0.2925,-0.1331,0.369
0.563000,0.2915,0.3286,-0.0804,0.447
0.564000,0.3950,0.3577,-0.0351,0.534
0.564000,0.4874,0.3844,-0.0209,0.621
0.564000,0.5496,0.4040,-0.0427,0.683
0.565000,0.5888,0.4119,-0.0883,0.724
0.565000,0.5833,0.3962,-0.1316,0.717
0.565000,0.5643,0.3808,-0.1845,0.705
0.574000,0.5199,0.3563,-0.2565,0.680
0.575000,0.4356,0.3202,-0.3356,0.636
0.580000,0.3351,0.2752,-0.4386,0.617
0.587000,0.2443,0.2332,-0.5463,0.642
0.590000,0.1531,0.1992,-0.6420,0.689
0.595000,0.0780,0.1615,-0.7042,0.727
0.600000,0.0190,0.1296,-0.6995,0.712
0.610000,-0.0163,0.0937,-0.6708,0.678
0.611000,-0.0084,0.0635,-0.6734,0.676
0.614000,0.0090,0.0344,-0.6330,0.634
0.619000,0.0625,0.0108,-0.5402,0.544
0.625000,0.1572,-0.0024,-0.4547,0.481
0.630000,0.2527,-0.0152,-0.3837,0.460
0.635000,0.3176,-0.0275,-0.3200,0.452
0.648000,0.3523,-0.0493,-0.2516,0.436
0.649000,0.3545,-0.0637,-0.2288,0.427
0.649000,0.3480,-0.0683,-0.2252,0.420
0.654000,0.3158,-0.0491,-0.2215,0.389
0.659000,0.2769,-0.0276,-0.2226,0.356
0.664000,0.2293,0.0085,-0.2166,0.316
0.669000,0.1994,0.0352,-0.2129,0.294
0.674000,0.1780,0.0648,-0.2022,0.277
0.679000,0.1849,0.0758,-0.1868,0.274
0.685000,0.2275,0.0856,-0.1738,0.299
0.689000,0.2894,0.1085,-0.1467,0.342
0.694000,0.3666,0.1306,-0.1030,0.403
0.700000,0.4166,0.1665,-0.0404,0.450
0.705000,0.4928,0.2137,0.0388,0.539
0.711000,0.5963,0.3271,0.3976,0.788
0.715000,0.7732,0.4551,0.6293,1.096
0.719000,0.9269,0.5521,0.6002,1.235
0.725000,1.0342,0.5948,0.5284,1.305
0.730000,1.1291,0.5927,0.3758,1.329
0.743000,1.2011,0.5658,0.2118,1.344
0.744000,1.2950,0.5187,0.0939,1.398
0.745000,1.3719,0.4658,-0.0041,1.449
0.750000,1.4272,0.4000,-0.0679,1.484
0.754000,1.4597,0.3137,-0.0760,1.495
0.760000,1.4791,0.2234,-0.0739,1.498
0.764000,1.4803,0.1433,-0.0663,1.489
0.789000,1.4845,0.0684,-0.0579,1.487
0.790000,1.4990,-0.0084,-0.0417,1.500
0.790000,1.5107,-0.0801,0.0040,1.513
0.790000,1.5130,-0.1660,0.0454,1.523
0.790000,1.4746,-0.2393,0.0422,1.494
0.795000,1.4386,-0.3238,0.0851,1.477
0.800000,1.3696,-0.4167,0.2148,1.448
0.805000,1.2914,-0.4998,0.4240,1.448
0.810000,1.1858,-0.5353,0.6817,1.469
0.815000,1.0294,-0.5672,0.9353,1.502
0.825000,0.8434,-0.6157,1.1273,1.537
0.826000,0.6445,-0.6790,1.2388,1.553
0.830000,0.4119,-0.7626,1.2648,1.533
0.836000,0.2027,-0.8476,1.2005,1.483
0.840000,0.0260,-0.9123,1.0649,1.403
0.845000,-0.0876,-0.9755,0.8582,1.302
0.866000,-0.1381,-0.9863,0.6185,1.172
0.867000,-0.1433,-0.9728,0.3769,1.053
0.867000,-0.1120,-0.9432,0.1525,0.962
0.868000,-0.0941,-0.8754,-0.0307,0.881
0.870000,-0.0748,-0.7804,-0.1631,0.801
0.876000,-0.0890,-0.7006,-0.2660,0.755
0.880000,-0.1372,-0.6525,-0.3588,0.757
0.886000,-0.2330,-0.6305,-0.4698,0.820
0.891000,-0.3550,-0.6511,-0.5824,0.943
0.896000,-0.4960,-0.6784,-0.6750,1.078
0.901000,-0.4262,-0.6958,-0.7022,1.076
0.907000,-0.5982,-0.6872,-0.6473,1.118
0.910000,-0.7700,-0.6483,-0.5392,1.142
0.916000,-0.9133,-0.6016,-0.4067,1.167
0.921000,-1.0000,-0.5763,-0.2859,1.189
0.926000,-1.0063,-0.5799,-0.1626,1.173
0.930000,-0.9619,-0.5890,-0.0609,1.130
0.940000,-0.8668,-0.5893,0.0429,1.049
0.941000,-0.7259,-0.5835,0.1227,0.939
0.946000,-0.5466,-0.5552,0.1901,0.802
0.981000,-0.3577,-0.5210,0.2499,0.680
0.982000,-0.2103,-0.5053,0.2802,0.615
0.983000,-0.0922,-0.4674,0.2715,0.548
0.983000,-0.0154,-0.4214,0.2094,0.471
0.983000,0.0124,-0.3745,0.1080,0.390
0.985000,0.0079,-0.3382,-0.0422,0.341
0.985000,-0.0442,-0.3170,-0.2273,0.393
0.985000,-0.1199,-0.3178,-0.4114,0.533
0.993000,-0.2267,-0.3092,-0.5946,0.707
0.996000,-0.3432,-0.3291,-0.7365,0.877
1.000000,-0.4481,-0.3584,-0.8132,0.995
1.006000,-0.5437,-0.3948,-0.8081,1.051
1.011000,-0.6343,-0.4407,-0.7738,1.093
1.016000,-0.7028,-0.4891,-0.7221,1.120
1.021000,-0.7517,-0.5260,-0.6292,1.112
1.026000,-0.8165,-0.5447,-0.5142,1.108
1.031000,-0.8919,-0.5362,-0.3746,1.106
1.038000,-0.9510,-0.5197,-0.2317,1.108
1.041000,-0.9957,-0.4885,-0.1260,1.116
1.046000,-1.0184,-0.4761,-0.0621,1.126
1.086000,-0.9906,-0.4730,-0.0496,1.099
1.087000,-0.9333,-0.4576,-0.0665,1.042
1.087000,-0.8178,-0.4273,-0.1105,0.929
1.087000,-0.6775,-0.3985,-0.1455,0.799
1.087000,-0.5624,-0.3518,-0.1355,0.677
1.088000,-0.4652,-0.2897,-0.1308,0.563
1.088000,-0.4044,-0.2266,-0.1431,0.485
1.088000,-0.3751,-0.1863,-0.1818,0.457
1.091000,-0.3771,-0.1208,-0.2397,0.463
1.095000,-0.4100,-0.0492,-0.3047,0.513
1.101000,-0.4426,0.0432,-0.3886,0.591
1.105000,-0.4625,0.1305,-0.4984,0.692
1.111000,-0.4536,0.2274,-0.6127,0.796
1.118000,-0.4232,0.3172,-0.6814,0.863
1.121000,-0.3712,0.3907,-0.7115,0.893
1.125000,-0.3003,0.4648,-0.6984,0.891
1.130000,-0.2174,0.5564,-0.6947,0.916
1.137000,-0.0130,0.6223,-0.6766,0.919
1.142000,0.0423,0.6698,-0.6538,0.937
1.146000,0.0777,0.7131,-0.6621,0.976
1.159000,0.1001,0.7401,-0.6683,1.002
1.160000,0.1048,0.7604,-0.6842,1.028
1.163000,0.0870,0.7547,-0.7170,1.045
1.223000,0.0524,0.6670,-0.8844,1.109
1.224000,-0.0452,0.6279,-0.7156,0.953
1.224000,-0.0977,0.6601,-0.6880,0.958
1.224000,-0.1481,0.7187,-0.7275,1.033
1.225000,-0.1488,0.7778,-0.7381,1.083
1.225000,-0.0636,0.7706,-0.8633,1.159
1.225000,0.0322,0.7519,-0.9861,1.241
1.225000,0.1045,0.7600,-1.0207,1.277
1.226000,0.1614,0.7831,-1.0887,1.351
1.226000,0.1518,0.8093,-1.1592,1.422
1.226000,0.0946,0.8314,-1.1391,1.413
1.226000,0.0405,0.8468,-1.0355,1.338
1.226000,0.0015,0.8698,-0.8844,1.240
1.231000,0.0124,0.9095,-0.6687,1.129
1.236000,0.0417,0.9609,-0.4198,1.049
1.242000,0.0683,1.0211,-0.1112,1.029
1.246000,0.0830,1.0825,0.2234,1.108
1.252000,0.1075,1.1256,0.5650,1.264
1.256000,0.1477,1.1574,0.8636,1.452
1.261000,0.1921,1.1564,1.0977,1.606
1.273000,0.2056,1.1275,1.2341,1.684
1.274000,0.1963,1.0782,1.2613,1.671
1.277000,0.1575,1.0186,1.1555,1.548
1.281000,0.1020,0.9496,0.9266,1.331
1.318000,0.0080,0.8793,0.6298,1.082
1.319000,-0.1103,0.8038,0.2962,0.864
1.319000,-0.2456,0.7553,-0.0165,0.794
1.319000,-0.3765,0.7294,-0.2846,0.869
1.319000,-0.5032,0.7143,-0.4795,0.997
1.319000,-0.6118,0.7006,-0.5821,1.097
1.319000,-0.6143,0.6951,-0.6239,1.118
1.323000,-0.7386,0.7115,-0.5978,1.187
1.327000,-0.7485,0.7731,-0.4899,1.182
1.334000,-0.7642,0.8574,-0.3290,1.195
1.337000,-0.7761,0.9351,-0.1369,1.223
1.343000,-0.7412,1.0223,0.0769,1.265
1.346000,-0.6736,1.0924,0.2476,1.307
1.351000,-0.5831,1.1667,0.3778,1.358
1.358000,-0.4865,1.2424,0.4506,1.408
1.361000,-0.4009,1.3101,0.4781,1.451
1.367000,-0.3289,1.3720,0.4722,1.488
1.372000,-0.2780,1.4379,0.4162,1.523
1.378000,-0.2557,1.4911,0.3219,1.547
1.384000,-0.2412,1.5291,0.2085,1.562
1.398000,-0.2705,1.5569,0.1117,1.584
1.400000,-0.3317,1.5700,0.0077,1.605
1.400000,-0.4252,1.5565,-0.1060,1.617
1.402000,-0.5175,1.5381,-0.2055,1.636
1.406000,-0.6258,1.4886,-0.2622,1.636
1.411000,-0.7261,1.4388,-0.2594,1.632
1.457000,-0.7993,1.4007,-0.2116,1.627
1.458000,-0.8353,1.4004,-0.1379,1.636
1.458000,-0.8460,1.4042,-0.0527,1.640
1.459000,-0.8266,1.4049,0.0561,1.631
1.459000,-0.7768,1.4144,0.1406,1.620
1.459000,-0.7228,1.4040,0.2176,1.594
1.460000,-0.6569,1.4049,0.2968,1.579
1.460000,-0.5956,1.4100,0.3807,1.577
1.460000,-0.5505,1.4360,0.4478,1.602
1.462000,-0.5142,1.4518,0.4910,1.617
1.468000,-0.5109,1.4672,0.5342,1.643
1.472000,-0.5163,1.4939,0.5823,1.684
1.477000,-0.5400,1.5082,0.6232,1.719
1.483000,-0.5653,1.5005,0.6068,1.714
1.487000,-0.5733,1.4636,0.5546,1.667
1.493000,-0.5719,1.4071,0.4856,1.595
1.497000,-0.5688,1.3290,0.4165,1.504
1.507000,-0.5903,1.2390,0.3713,1.422
1.509000,-0.6434,1.1349,0.3571,1.353
1.511000,-0.7038,1.0264,0.3573,1.295
1.559000,-0.7621,0.9061,0.3430,1.233
1.560000,-0.8114,0.8049,0.4075,1.213
1.560000,-0.8303,0.6986,0.4717,1.183
1.560000,-0.8286,0.5940,0.5499,1.158
1.560000,-0.8112,0.5076,0.6323,1.147
1.561000,-0.7637,0.4345,0.7167,1.134
1.561000,-0.7075,0.3913,0.7934,1.133
1.561000,-0.6352,0.3637,0.8626,1.131
1.561000,-0.5491,0.3588,0.9482,1.153
1.561000,-0.4417,0.4051,1.0573,1.215
1.570000,-0.3221,0.4835,1.1782,1.314
1.573000,-0.1689,0.5460,1.2008,1.330
1.578000,-0.0238,0.5622,1.1059,1.241
1.583000,0.0904,0.5451,0.9988,1.141
1.587000,0.2025,0.4909,0.9227,1.065
1.593000,0.3030,0.4289,0.9254,1.064
1.597000,0.3784,0.3788,1.0262,1.157
1.603000,0.3914,0.3192,1.2085,1.310
1.607000,0.3476,0.2500,1.4412,1.503
1.611000,0.2646,0.1590,1.7149,1.742
1.650000,0.1234,0.0506,1.9983,2.003
1.651000,-0.0806,-0.0711,2.3129,2.315
1.651000,-0.2920,-0.1997,2.6754,2.699
1.651000,-0.4648,-0.3149,3.0306,3.082
1.652000,-0.5583,-0.4390,3.2039,3.282
1.652000,-0.6311,-0.5769,3.2789,3.389
1.652000,-0.6795,-0.7499,3.2844,3.437
1.652000,-0.7256,-0.9244,3.2896,3.493
1.659000,-0.7262,-1.1050,3.2731,3.530
1.663000,-0.6280,-1.2581,3.1968,3.492
1.667000,-0.5283,-1.3783,3.0849,3.420
1.672000,-0.4481,-1.4743,2.9593,3.336
1.678000,-0.3899,-1.5336,2.7938,3.211
1.682000,-0.3444,-1.5560,2.6934,3.130
1.687000,-0.3316,-1.6372,2.4525,2.967
1.693000,-0.4080,-1.6578,2.3839,2.932
1.697000,-0.5023,-1.5860,2.3279,2.861
1.702000,-0.5347,-1.5117,2.1507,2.683
1.707000,-0.4798,-1.4130,2.0366,2.525
1.712000,-0.3951,-1.1225,2.1624,2.468
1.734000,-0.2385,-0.9323,2.3273,2.518
1.736000,-0.1204,-0.8092,2.3972,2.533
1.736000,-0.1713,-0.7853,2.6038,2.725
1.737000,-0.2519,-0.8467,2.8130,2.948
1.737000,-0.3247,-0.9512,2.9288,3.096
1.743000,-0.4027,-1.0779,2.9368,3.154
1.747000,-0.4822,-1.1721,2.9251,3.188
1.752000,-0.6210,-1.2824,2.9248,3.253
1.757000,-0.8715,-1.4692,2.9213,3.384
1.762000,-0.8556,-1.5686,2.9432,3.443
1.767000,-1.2141,-1.5866,2.8685,3.496
1.772000,-1.3236,-1.7579,2.6012,3.407
1.778000,-1.4703,-1.9963,2.2275,3.333
1.782000,-1.6056,-2.1939,1.7589,3.238
1.787000,-1.6634,-2.3242,1.2242,3.109
1.793000,-1.6410,-2.4417,0.7576,3.038
1.797000,-1.6211,-2.5292,0.3785,3.028
1.803000,-1.5557,-2.5529,0.0701,2.990
1.807000,-1.4326,-2.5032,-0.1483,2.888
1.812000,-1.2417,-2.3722,-0.3147,2.696
1.824000,-0.7801,-2.2195,-0.4221,2.390
1.825000,-0.7057,-2.0881,-0.4513,2.250
1.827000,-0.7023,-1.9754,-0.4382,2.142
1.832000,-0.7863,-1.8937,-0.4377,2.097
1.876000,-0.9470,-1.8253,-0.3944,2.094
1.877000,-1.1358,-1.7776,-0.3345,2.136
1.878000,-1.2482,-1.7456,-0.2648,2.162
1.878000,-1.3048,-1.7366,-0.2689,2.189
1.878000,-1.3225,-1.7508,-0.3059,2.215
1.879000,-1.3103,-1.8088,-0.3972,2.269
1.879000,-1.2881,-1.9033,-0.5117,2.355
1.879000,-1.2349,-1.9861,-0.6687,2.432
1.880000,-1.1872,-2.0449,-0.8728,2.520
1.887000,-1.2085,-2.0582,-1.0742,2.617
1.889000,-1.2435,-2.0322,-1.2582,2.694
1.899000,-1.2495,-1.9504,-1.4274,2.721
1.901000,-1.2240,-1.8390,-1.5793,2.716
1.912000,-1.1811,-1.7169,-1.6757,2.674
1.913000,-1.1259,-1.5630,-1.6784,2.555
1.913000,-1.0528,-1.3961,-1.6279,2.389
1.930000,-0.9902,-1.2192,-1.5364,2.197
1.931000,-0.9254,-1.0710,-1.4038,1.993
1.931000,-0.8430,-0.9302,-1.2634,1.781
1.983000,-0.7709,-0.7976,-1.1273,1.582
1.984000,-0.6886,-0.6943,-1.0359,1.425
1.984000,-0.6003,-0.6256,-0.9963,1.321
1.984000,-0.5123,-0.5986,-1.0491,1.312
1.985000,-0.4124,-0.6053,-1.1774,1.387
1.985000,-0.3221,-0.6311,-1.3694,1.542
1.985000,-0.2696,-0.6699,-1.6129,1.767
1.986000,-0.2772,-0.7117,-1.8747,2.024
1.986000,-0.3307,-0.7345,-2.1355,2.282
1.987000,-0.4091,-0.7378,-2.3622,2.508
1.987000,-0.5243,-0.7376,-2.5787,2.733
1.994000,-0.6387,-0.7147,-2.8043,2.964
1.995000,-0.7079,-0.6878,-3.0128,3.170
1.998000,-0.7642,-0.6352,-3.1637,3.316
2.009000,-0.8083,-0.5641,-3.3050,3.449
2.009000,-0.8334,-0.4670,-3.4176,3.549
2.013000,-0.8406,-0.3677,-3.4826,3.601
2.028000,-0.8037,-0.2618,-3.4784,3.580
2.028000,-0.7374,-0.1565,-3.3861,3.469
2.029000,-0.6437,-0.0382,-3.2249,3.289
2.032000,-0.5270,0.0881,-2.9756,3.023
2.044000,-0.3697,0.2311,-2.6908,2.726
2.044000,-0.1809,0.3688,-2.3993,2.434
2.047000,0.0016,0.4841,-2.1106,2.165
2.053000,0.1687,0.5738,-1.8245,1.920
2.059000,0.3281,0.6351,-1.5483,1.705
2.062000,0.4633,0.6455,-1.3488,1.565
2.098000,0.5433,0.5955,-1.2330,1.473
2.099000,0.5584,0.4753,-1.2010,1.407
2.100000,0.5391,0.3256,-1.1855,1.342
2.101000,0.4689,0.1968,-1.1748,1.280
2.101000,0.3413,0.0622,-1.1710,1.221
2.102000,0.2848,-0.0880,-1.2508,1.286
2.102000,0.2489,-0.2251,-1.3090,1.351
2.106000,0.1803,-0.3400,-1.3719,1.425
2.108000,0.0740,-0.4229,-1.4036,1.468
2.113000,-0.0744,-0.4930,-1.4257,1.510
2.119000,-0.2163,-0.5575,-1.4405,1.560
2.123000,-0.3465,-0.5926,-1.4672,1.620
2.128000,-0.4581,-0.6127,-1.5201,1.702
2.134000,-0.5609,-0.5866,-1.5107,1.715
2.139000,-0.6052,-0.5812,-1.6376,1.840
2.145000,-0.6314,-0.6133,-1.7620,1.970
2.148000,-0.6767,-0.6327,-1.8145,2.037
2.158000,-0.7506,-0.6084,-1.7523,2.001
2.160000,-0.8470,-0.5521,-1.6471,1.933
2.163000,-0.9175,-0.4949,-1.5085,1.834
2.209000,-0.8801,-0.4102,-1.3604,1.671
2.211000,-0.7871,-0.3410,-1.2052,1.479
2.212000,-0.6528,-0.2708,-1.0499,1.266
2.212000,-0.4903,-0.2133,-0.9162,1.061
2.212000,-0.3231,-0.1637,-0.7896,0.869
2.213000,-0.1480,-0.1287,-0.6893,0.717
2.213000,0.0117,-0.1224,-0.6199,0.632
2.213000,0.1207,-0.1542,-0.5793,0.611
2.214000,0.1942,-0.1731,-0.5816,0.637
2.215000,0.2204,-0.1935,-0.6005,0.668
2.219000,0.2070,-0.1912,-0.6314,0.691
2.223000,0.1877,-0.1804,-0.6527,0.703
2.229000,0.1722,-0.1707,-0.6382,0.683
2.235000,0.1744,-0.1528,-0.6596,0.699
2.238000,0.1647,-0.1430,-0.7121,0.745
2.244000,0.1303,-0.1483,-0.7862,0.811
2.249000,0.0657,-0.1638,-0.8580,0.876
2.255000,0.0113,-0.1771,-0.9013,0.919
2.259000,-0.0236,-0.1715,-0.9207,0.937
2.264000,-0.0294,-0.1398,-0.9189,0.930
2.271000,0.0085,-0.0939,-0.8957,0.901
2.274000,0.0781,-0.0219,-0.8657,0.869
2.278000,0.1702,0.0618,-0.8096,0.830
2.332000,0.2488,0.1687,-0.7275,0.787
2.334000,0.3116,0.2605,-0.6265,0.747
2.335000,0.3607,0.3393,-0.5449,0.736
2.335000,0.4127,0.4001,-0.4779,0.747
2.336000,0.4723,0.4307,-0.4374,0.775
2.336000,0.5490,0.4432,-0.4186,0.820
2.336000,0.6547,0.4732,-0.3807,0.893
2.337000,0.7655,0.5207,-0.3477,0.989
2.337000,0.8767,0.5593,-0.3124,1.086
2.337000,0.9504,0.6080,-0.2892,1.165
2.338000,0.9893,0.6451,-0.2731,1.212
2.338000,0.9865,0.6969,-0.2643,1.236
2.345000,0.9472,0.7536,-0.2602,1.238
2.349000,0.8861,0.8201,-0.2873,1.241
2.353000,0.8177,0.8748,-0.3549,1.249
2.360000,0.7393,0.9253,-0.4391,1.263
2.364000,0.6482,0.9690,-0.5375,1.284
2.372000,0.5656,0.9920,-0.6502,1.314
2.373000,0.4791,1.0016,-0.7460,1.338
2.378000,0.3982,1.0053,-0.8297,1.363
2.424000,0.3081,1.0103,-0.8895,1.381
2.424000,0.2084,0.9997,-0.9133,1.370
2.425000,0.1299,1.0046,-0.9251,1.372
2.425000,0.0296,0.9888,-0.9130,1.346
2.425000,-0.1077,0.9618,-0.9105,1.329
2.425000,-0.2729,0.9234,-0.8650,1.294
2.425000,-0.4336,0.8729,-0.7645,1.239
2.426000,-0.5306,0.8459,-0.6235,1.177
2.426000,-0.5667,0.8156,-0.4445,1.088
2.429000,-0.5106,0.8103,-0.2513,0.990
2.436000,-0.3812,0.8082,-0.0393,0.894
2.438000,-0.2160,0.8256,0.1989,0.876
2.444000,-0.0615,0.8626,0.4297,0.966
2.449000,0.0853,0.8905,0.5934,1.073
2.454000,0.1984,0.9290,0.6923,1.175
2.459000,0.2974,0.9858,0.7387,1.267
2.464000,0.3801,1.0736,0.7491,1.363
2.471000,0.4296,1.1715,0.7380,1.450
2.476000,0.4655,1.2537,0.7436,1.530
2.479000,0.5082,1.3281,0.7708,1.617
2.523000,0.5305,1.3762,0.7716,1.665
2.523000,0.5113,1.3624,0.7175,1.622
2.524000,0.4483,1.2756,0.6730,1.510
2.524000,0.3582,1.1040,0.6574,1.334
2.524000,0.1759,0.9458,0.7161,1.199
2.524000,-0.0114,0.7937,0.8419,1.157
2.524000,-0.1816,0.6276,0.9869,1.184
2.525000,-0.3176,0.4521,1.1394,1.266
2.525000,-0.4468,0.2473,1.3162,1.412
2.530000,-0.5523,0.1728,1.7013,1.797
2.536000,-0.5160,0.1379,1.8093,1.887
2.539000,-0.4503,0.1219,1.7886,1.848
2.544000,-0.4410,0.1219,1.7324,1.792
2.549000,-0.5295,0.1450,1.7028,1.789
2.554000,-0.6981,0.1938,1.8191,1.958
2.559000,-0.6732,0.1825,2.1480,2.258
2.564000,-0.6950,0.1176,2.5216,2.618
2.570000,-1.0052,0.0183,2.9855,3.150
2.574000,-1.3006,-0.1560,3.4204,3.663
2.579000,-1.3917,-0.4033,3.7880,4.056
2.625000,-1.3392,-0.6972,4.0597,4.331
2.627000,-1.1987,-0.9926,4.2331,4.510
2.627000,-1.0802,-1.2508,4.3323,4.637
2.628000,-0.8881,-1.3546,4.4315,4.718
2.628000,-0.9438,-1.4048,4.6214,4.922
2.629000,-1.0756,-1.4014,4.6965,5.018
2.629000,-1.1724,-1.3729,4.7361,5.069
2.630000,-1.1940,-1.3431,4.8101,5.135
2.630000,-1.1186,-1.3461,4.9136,5.216
2.632000,-1.0148,-1.3557,5.0445,5.321
2.633000,-0.8310,-1.3745,5.1600,5.404
2.639000,-0.5066,-1.4101,5.2814,5.490
2.644000,-0.1089,-1.4319,5.3945,5.582
2.653000,0.3325,-1.4379,5.5519,5.745
2.655000,0.7790,-1.3881,5.7513,5.968
2.659000,1.1792,-1.3000,5.8805,6.137
2.665000,1.4632,-1.3753,5.2743,5.644
2.670000,1.4694,-1.4211,4.9941,5.396
2.675000,1.2681,-1.4334,5.0449,5.396
2.679000,0.9451,-1.4634,4.9563,5.254
2.691000,0.4514,-1.5934,4.6857,4.970
2.692000,-0.0311,-1.7690,4.5104,4.845
2.695000,0.3509,-1.7618,4.6678,5.002
2.699000,1.9701,-1.4723,4.8336,5.423
2.738000,3.6205,-0.8341,4.3750,5.740
2.740000,4.3145,-0.2292,3.1507,5.347
2.741000,4.0950,0.2712,1.7707,4.470
2.741000,2.9471,0.3528,1.2512,3.221
2.742000,1.5105,0.1529,1.1468,1.903
2.742000,0.2825,-0.3319,1.5743,1.634
2.742000,0.3773,-1.0135,2.0339,2.304
2.743000,-0.4494,-1.7783,2.1799,2.849
2.745000,-0.8547,-2.4988,1.6475,3.113
2.749000,-0.9424,-3.0532,0.3088,3.210
2.754000,-0.9106,-3.4058,-1.8488,3.981
2.759000,-1.0300,-3.4816,-4.3391,5.658
2.764000,-1.4703,-3.3232,-6.1023,7.102
2.769000,-2.1051,-2.9806,-6.5920,7.535
2.774000,-2.0064,-2.6180,-5.9668,6.818
2.780000,-1.6243,-2.3050,-4.8038,5.570
2.786000,-1.3670,-2.0554,-3.5313,4.308
2.789000,-1.3983,-1.8211,-2.6657,3.518
2.795000,-1.6900,-1.5314,-2.3744,3.292
2.799000,-2.0731,-1.1663,-2.3305,3.330
2.805000,-2.4330,-0.7302,-2.2862,3.417
2.809000,-2.7347,-0.3061,-2.2135,3.532
2.814000,-2.8000,-0.0202,-2.2466,3.590
2.820000,-2.3866,0.0895,-2.3790,3.371
2.825000,-1.6639,0.0685,-2.5394,3.037
2.830000,-0.8708,-0.0408,-2.6733,2.812
2.870000,-0.1553,-0.1533,-2.8103,2.819
2.872000,0.7617,-0.2429,-2.8836,2.992
2.872000,0.9427,-0.2740,-2.9316,3.092
2.872000,1.0341,-0.2610,-2.9827,3.168
2.873000,1.0814,-0.2199,-3.0106,3.207
2.873000,1.0051,-0.2202,-2.8865,3.064
2.874000,0.8322,-0.2837,-2.5454,2.693
2.874000,0.6646,-0.3710,-2.0666,2.202
2.877000,0.5175,-0.4883,-1.5953,1.747
2.880000,0.4186,-0.6437,-1.1377,1.373
2.885000,0.3432,-0.8382,-0.6977,1.143
2.890000,0.2869,-1.0337,-0.3554,1.130
2.895000,0.2651,-1.2208,-0.1223,1.255
2.902000,0.2981,-1.3656,-0.0502,1.399
2.905000,0.3194,-1.4725,-0.0698,1.508
2.910000,0.3223,-1.5360,-0.1593,1.577
2.915000,0.3304,-1.5383,-0.2918,1.600
2.923000,0.3535,-1.4741,-0.5082,1.599
2.925000,0.3946,-1.3617,-0.8276,1.642
2.929000,0.5013,-1.1695,-1.2549,1.787
2.974000,0.6532,-0.9230,-1.7499,2.083
2.976000,0.7687,-0.6809,-2.2409,2.465
2.976000,0.8511,-0.4427,-2.7118,2.877
2.976000,0.9522,-0.2152,-3.1845,3.331
2.977000,0.9851,-0.0385,-3.5946,3.727
2.977000,0.9511,0.0997,-3.9041,4.020
2.978000,0.8744,0.2281,-4.1251,4.223
2.978000,0.7940,0.3796,-4.2387,4.329
2.980000,0.7088,0.5199,-4.1946,4.286
2.982000,0.5936,0.6169,-3.9643,4.056
2.986000,0.4539,0.6213,-3.5549,3.637
2.990000,0.3050,0.5240,-3.0449,3.105
2.996000,0.1842,0.3499,-2.5391,2.570
3.002000,0.1104,0.1195,-2.0729,2.079
3.005000,0.0913,-0.1133,-1.6457,1.652
3.010000,0.1050,-0.3370,-1.2427,1.292
3.015000,0.1148,-0.5299,-0.8681,1.024
3.021000,0.1320,-0.6728,-0.5695,0.891
3.026000,0.1163,-0.8587,-0.3157,0.922
3.031000,0.1721,-1.0119,-0.0685,1.029
3.038000,0.3500,-1.0788,0.0162,1.134
3.042000,0.4785,-1.0770,-0.1627,1.190
3.045000,0.5050,-1.0514,-0.4760,1.260
3.099000,0.4593,-1.0013,-0.7828,1.351
3.100000,0.4106,-0.9261,-1.0932,1.490
3.100000,0.4157,-0.8178,-1.4098,1.682
3.100000,0.4882,-0.6706,-1.7022,1.894
3.101000,0.6143,-0.4840,-1.9612,2.111
3.101000,0.7630,-0.2815,-2.2352,2.379
3.102000,0.8877,-0.0699,-2.4859,2.641
3.102000,0.9441,0.1199,-2.6969,2.860
3.102000,0.9560,0.2784,-2.7797,2.953
3.103000,0.9365,0.3907,-2.7249,2.908
3.103000,0.8774,0.4584,-2.5202,2.708
3.105000,0.7830,0.4613,-2.2208,2.400
3.110000,0.6933,0.4152,-1.8814,2.048
3.115000,0.6160,0.3333,-1.5354,1.688
3.121000,0.5843,0.2533,-1.2353,1.390
3.126000,0.5841,0.1601,-0.9691,1.143
3.131000,0.6249,0.0630,-0.7677,0.992
3.137000,0.6635,-0.0361,-0.6478,0.928
3.141000,0.6951,-0.1084,-0.5829,0.914
3.146000,0.7387,-0.1590,-0.5634,0.943
3.195000,0.7942,-0.1826,-0.5774,0.999
3.197000,0.8257,-0.2008,-0.6392,1.063
3.197000,0.8306,-0.2061,-0.7368,1.129
3.197000,0.8019,-0.1980,-0.8369,1.176
3.198000,0.7227,-0.1883,-0.9442,1.204
3.198000,0.6358,-0.1860,-1.0541,1.245
3.198000,0.5122,-0.1955,-1.1234,1.250
3.199000,0.3899,-0.1976,-1.1475,1.228
3.200000,0.2784,-0.2111,-1.1312,1.184
3.200000,0.2135,-0.2216,-1.0722,1.116
3.200000,0.1666,-0.2247,-0.9993,1.038
3.205000,0.1253,-0.2155,-0.9146,0.948
3.211000,0.1020,-0.1969,-0.8159,0.846
3.217000,0.0947,-0.1638,-0.7297,0.754
3.221000,0.1038,-0.1161,-0.6705,0.688
3.225000,0.1180,-0.0630,-0.6311,0.645
3.231000,0.1235,-0.0207,-0.5952,0.608
3.236000,0.1109,0.0157,-0.5677,0.579
3.241000,0.0971,0.0348,-0.5461,0.556
3.245000,0.0992,0.0271,-0.5020,0.512
3.252000,0.1221,-0.0051,-0.4856,0.501
3.255000,0.0939,-0.0041,-0.5231,0.532
3.260000,0.0794,-0.0034,-0.5834,0.589
3.267000,0.0850,0.0113,-0.6664,0.672
3.287000,0.0747,0.0401,-0.7526,0.757
3.288000,0.0286,0.1019,-0.8396,0.846
3.289000,-0.0109,0.1630,-0.9296,0.944
3.289000,-0.0345,0.1971,-0.9865,1.007
3.291000,-0.0717,0.2133,-1.0531,1.077
3.296000,-0.1112,0.2070,-1.0840,1.109
3.301000,-0.1103,0.2042,-1.0789,1.104
3.305000,-0.0960,0.2020,-1.0712,1.094
3.310000,-0.1118,0.2362,-1.0608,1.093
3.316000,-0.1441,0.2774,-1.0427,1.089
3.320000,-0.1765,0.3066,-1.0097,1.070
3.328000,-0.2140,0.3281,-0.9544,1.032
3.331000,-0.2403,0.3584,-0.8698,0.971
3.337000,-0.2461,0.3781,-0.7796,0.901
3.341000,-0.2558,0.4106,-0.6932,0.845
3.346000,-0.2410,0.4294,-0.5868,0.766
3.357000,-0.2159,0.4369,-0.4914,0.692
3.358000,-0.1897,0.4353,-0.4000,0.621
3.361000,-0.1430,0.4200,-0.3268,0.551
3.366000,-0.0635,0.4411,-0.2649,0.518
3.407000,0.0348,0.4822,-0.2095,0.527
3.408000,0.1546,0.5315,-0.1272,0.568
3.408000,0.2652,0.6179,-0.1042,0.680
3.408000,0.3352,0.7130,-0.0521,0.790
3.409000,0.4151,0.8026,0.0268,0.904
3.409000,0.5030,0.8702,0.1035,1.010
3.409000,0.5996,0.9208,0.1899,1.115
3.409000,0.7079,0.9405,0.2905,1.212
3.414000,0.8119,0.9317,0.3861,1.295
3.415000,0.8884,0.8852,0.4669,1.338
3.421000,0.9397,0.8038,0.5377,1.348
3.427000,0.9680,0.6996,0.6081,1.340
3.431000,0.9543,0.5966,0.6804,1.315
3.435000,0.9010,0.4904,0.7689,1.282
3.440000,0.8467,0.3951,0.8760,1.281
3.445000,0.7983,0.3109,0.9944,1.313
3.452000,0.7413,0.2377,1.1291,1.371
3.455000,0.6850,0.1870,1.3039,1.485
3.460000,0.6296,0.1326,1.4902,1.623
3.465000,0.5798,0.0979,1.6785,1.778
3.484000,0.5358,0.0828,1.8615,1.939
3.485000,0.5215,0.0774,2.0201,2.088
3.485000,0.4990,0.0770,2.1711,2.229
3.485000,0.4779,0.0818,2.2929,2.344
3.491000,0.4463,0.0846,2.3879,2.431
3.498000,0.4257,0.1048,2.4801,2.519
3.503000,0.4038,0.1160,2.5575,2.592
3.506000,0.3782,0.1113,2.6226,2.652
3.511000,0.3585,0.1075,2.6800,2.706
3.517000,0.3520,0.1021,2.7323,2.757
3.521000,0.3396,0.0833,2.7770,2.799
3.526000,0.3141,0.0657,2.7998,2.818
3.531000,0.3036,0.0277,2.8055,2.822
3.537000,0.2694,-0.0134,2.8135,2.826
3.542000,0.2348,-0.0629,2.8453,2.856
3.546000,0.1805,-0.1085,2.8794,2.887
3.550000,0.1181,-0.1552,2.9376,2.944
3.556000,0.0447,-0.2105,3.0222,3.030
3.561000,-0.0136,-0.2719,3.1476,3.159
3.566000,-0.0639,-0.3569,3.2756,3.296
3.572000,-0.0895,-0.4513,3.4110,3.442
3.577000,-0.1114,-0.5482,3.5586,3.602
3.581000,-0.1316,-0.6599,3.7015,3.762
3.592000,-0.1614,-0.7772,3.8205,3.902
3.593000,-0.2048,-0.9030,3.8845,3.993
3.599000,-0.2809,-1.0255,3.9054,4.048
3.655000,-0.3818,-1.1521,3.8762,4.062
3.656000,-0.5123,-1.2713,3.8184,4.057
3.657000,-0.6621,-1.3545,3.7127,4.007
3.658000,-0.8289,-1.4164,3.5618,3.922
3.658000,-0.9932,-1.4261,3.3439,3.769
3.659000,-1.1458,-1.4005,3.0522,3.548
3.659000,-1.2727,-1.3275,2.6749,3.246
3.659000,-1.3747,-1.2330,2.2239,2.891
3.660000,-1.4456,-1.0904,1.7379,2.510
3.660000,-1.4743,-0.9063,1.2265,2.121
3.660000,-1.4668,-0.7256,0.7067,1.783
3.661000,-1.4337,-0.5335,0.2216,1.546
3.662000,-1.3878,-0.3388,-0.2002,1.442
3.668000,-1.3462,-0.1555,-0.5538,1.464
3.679000,-1.3143,0.0096,-0.8202,1.549
3.679000,-1.2708,0.1570,-1.0138,1.633
3.682000,-1.2350,0.2536,-1.1037,1.676
3.688000,-1.1929,0.2946,-1.0706,1.630
3.693000,-1.1587,0.2630,-0.9315,1.510
3.699000,-1.1346,0.1655,-0.6673,1.327
3.703000,-1.1369,0.0492,-0.3068,1.179
3.707000,-1.1453,-0.0866,0.0996,1.153
3.713000,-1.1712,-0.2330,0.5088,1.298
3.717000,-1.2180,-0.3885,0.9039,1.566
3.765000,-1.2611,-0.5177,1.2562,1.854
3.768000,-1.3166,-0.6521,1.5440,2.131
3.769000,-1.3528,-0.7729,1.7531,2.345
3.769000,-1.3909,-0.8707,1.8811,2.496
3.769000,-1.4035,-0.9429,1.9421,2.575
3.770000,-1.3857,-0.9968,1.9387,2.583
3.771000,-1.3370,-1.0344,1.8611,2.514
3.772000,-1.2620,-1.0337,1.7189,2.370
3.772000,-1.1991,-1.0066,1.5170,2.180
3.772000,-1.1306,-0.9617,1.2742,1.956
3.773000,-1.0664,-0.9081,0.9881,1.714
3.778000,-1.0064,-0.8332,0.6756,1.471
3.782000,-0.9435,-0.7555,0.3507,1.259
3.787000,-0.8657,-0.6721,0.0542,1.097
3.793000,-0.7679,-0.5775,-0.2261,0.987
3.799000,-0.6741,-0.4668,-0.4736,0.947
3.803000,-0.5913,-0.3780,-0.7171,1.003
3.807000,-0.5291,-0.2799,-0.9303,1.106
3.811000,-0.4994,-0.2085,-1.1300,1.253
3.817000,-0.4783,-0.1419,-1.3068,1.399
3.852000,-0.4969,-0.0923,-1.4701,1.555
3.853000,-0.5361,-0.0503,-1.6128,1.700
3.853000,-0.6081,-0.0207,-1.7395,1.843
3.853000,-0.6750,-0.0325,-1.8574,1.977
3.853000,-0.7303,-0.0595,-1.9759,2.107
3.854000,-0.8054,-0.0994,-2.1163,2.267
3.854000,-0.8914,-0.1643,-2.2544,2.430
3.857000,-0.9866,-0.2303,-2.3639,2.572
3.862000,-1.0887,-0.2998,-2.4423,2.691
3.869000,-1.1548,-0.3201,-2.4706,2.746
3.872000,-1.1966,-0.3751,-2.5754,2.864
3.878000,-1.2804,-0.4433,-2.6368,2.965
3.882000,-1.3662,-0.5086,-2.6188,2.997
3.887000,-1.4590,-0.5377,-2.5523,2.989
3.892000,-1.5300,-0.5572,-2.4687,2.957
3.898000,-1.5747,-0.5651,-2.3773,2.907
3.902000,-1.5785,-0.5162,-2.2807,2.821
3.907000,-1.5625,-0.4559,-2.1980,2.735
3.912000,-1.5313,-0.3989,-2.1007,2.630
3.961000,-1.4796,-0.3451,-2.0127,2.522
3.963000,-1.4310,-0.3164,-1.9437,2.434
3.963000,-1.3974,-0.2838,-1.9104,2.384
3.964000,-1.3734,-0.2688,-1.9057,2.364
3.964000,-1.3612,-0.2687,-1.9226,2.371
3.965000,-1.3652,-0.2780,-1.9707,2.413
3.965000,-1.3710,-0.3014,-2.0452,2.481
3.966000,-1.3806,-0.3335,-2.1174,2.550
3.966000,-1.4205,-0.3643,-2.1900,2.636
3.966000,-1.4713,-0.3816,-2.2389,2.706
3.971000,-1.4997,-0.3730,-2.2451,2.726
3.972000,-1.5128,-0.3627,-2.1942,2.690
3.978000,-1.5016,-0.3411,-2.1102,2.612
3.982000,-1.4564,-0.3062,-1.9643,2.464
3.987000,-1.4014,-0.2585,-1.7804,2.280
3.992000,-1.3433,-0.2269,-1.5827,2.088
3.997000,-1.2917,-0.2049,-1.4021,1.917
4.006000,-1.2512,-0.1926,-1.2266,1.763
4.008000,-1.2002,-0.1761,-1.0755,1.621
4.012000,-1.1649,-0.1700,-0.9509,1.513
4.050000,-1.1480,-0.1575,-0.8720,1.450
4.050000,-1.1425,-0.1630,-0.8267,1.420
4.051000,-1.1294,-0.1622,-0.8030,1.395
4.051000,-1.1039,-0.1647,-0.7913,1.368
4.051000,-1.0757,-0.1655,-0.7986,1.350
4.051000,-1.0258,-0.1360,-0.8275,1.325
4.051000,-0.9638,-0.0998,-0.8826,1.311
4.053000,-0.8994,-0.0401,-0.9591,1.315
4.059000,-0.8206,0.0341,-1.0188,1.309
4.063000,-0.7396,0.1203,-1.0784,1.313
4.067000,-0.6708,0.1998,-1.1259,1.326
4.072000,-0.6074,0.2796,-1.1493,1.330
4.078000,-0.5330,0.3548,-1.1295,1.298
4.082000,-0.4596,0.3967,-1.0832,1.242
4.087000,-0.3517,0.4483,-1.0272,1.175
4.092000,-0.2477,0.4926,-0.9565,1.104
4.097000,-0.1646,0.5342,-0.8736,1.037
4.103000,-0.0904,0.5634,-0.7880,0.973
4.107000,-0.0155,0.5945,-0.6711,0.897
4.112000,0.0341,0.6130,-0.5349,0.814
4.157000,0.0828,0.6357,-0.3867,0.749
4.158000,0.1236,0.6551,-0.2289,0.705
4.158000,0.1520,0.6714,-0.0832,0.693
4.158000,0.1540,0.6723,0.0409,0.691
4.159000,0.1541,0.6580,0.1386,0.690
4.159000,0.1668,0.6239,0.1977,0.675
4.159000,0.1923,0.5917,0.2279,0.663
4.159000,0.2187,0.5733,0.2364,0.658
4.160000,0.2368,0.5452,0.2232,0.635
4.163000,0.2345,0.5363,0.1882,0.615
4.168000,0.2167,0.5252,0.1386,0.585
4.173000,0.1974,0.5336,0.0889,0.576
4.178000,0.1573,0.5520,0.0535,0.576
4.182000,0.1200,0.5565,0.0324,0.570
4.188000,0.0855,0.5662,0.0351,0.574
4.193000,0.0609,0.5595,0.0473,0.565
4.198000,0.0434,0.5480,0.0907,0.557
4.204000,0.0426,0.5340,0.1435,0.555
4.208000,0.0299,0.5220,0.2179,0.566
4.213000,0.0105,0.5237,0.2993,0.603
4.225000,-0.0249,0.5195,0.3279,0.615
4.226000,-0.0575,0.5238,0.3421,0.628
4.228000,-0.1063,0.5364,0.3539,0.651
4.232000,-0.1402,0.5668,0.3561,0.684
4.277000,-0.1735,0.6193,0.3272,0.722
4.279000,-0.2160,0.6700,0.2697,0.754
4.279000,-0.2533,0.7141,0.1788,0.778
4.279000,-0.2856,0.7565,0.0498,0.810
4.279000,-0.3012,0.8022,-0.1171,0.865
4.280000,-0.2957,0.8492,-0.3195,0.954
4.280000,-0.2861,0.8954,-0.5216,1.075
4.280000,-0.2630,0.9345,-0.7207,1.209
4.281000,-0.2385,0.9883,-0.9171,1.369
4.283000,-0.2171,1.0526,-1.0749,1.520
4.288000,-0.2060,1.1329,-1.1799,1.649
4.294000,-0.2006,1.2316,-1.2176,1.743
4.298000,-0.2055,1.3202,-1.1813,1.783
4.303000,-0.2255,1.3916,-1.0755,1.773
4.308000,-0.2510,1.4309,-0.9340,1.727
4.312000,-0.2773,1.4331,-0.7568,1.644
4.323000,-0.2947,1.3813,-0.5606,1.520
4.324000,-0.3012,1.2892,-0.3548,1.371
4.328000,-0.2993,1.1876,-0.1348,1.232
4.371000,-0.3055,1.0811,0.0970,1.128
4.372000,-0.3028,0.9883,0.3312,1.085
4.372000,-0.3128,0.9138,0.5317,1.102
4.372000,-0.3354,0.8382,0.7059,1.146
4.373000,-0.3589,0.7975,0.8561,1.224
4.373000,-0.3955,0.7653,0.9992,1.319
4.373000,-0.4117,0.7130,1.1234,1.393
4.373000,-0.3842,0.6668,1.2381,1.458
4.374000,-0.3009,0.6104,1.3435,1.506
4.378000,-0.1884,0.5702,1.4348,1.555
4.385000,-0.0538,0.5488,1.5167,1.614
4.388000,0.1099,0.5442,1.6251,1.717
4.396000,0.2861,0.5373,1.7361,1.840
4.398000,0.4701,0.5378,1.8664,1.998
4.403000,0.6358,0.5483,2.0279,2.195
4.409000,0.7644,0.5641,2.1917,2.389
4.412000,0.8493,0.5542,2.3602,2.569
4.418000,0.8811,0.5188,2.5357,2.734
4.423000,0.8797,0.4364,2.7134,2.886
4.428000,0.8433,0.3191,2.9169,3.053
4.434000,0.7725,0.1668,3.1128,3.212
4.438000,0.7134,-0.0109,3.3031,3.379
4.443000,0.6641,-0.1950,3.4593,3.528
4.448000,0.6110,-0.3808,3.5787,3.650
4.461000,0.5300,-0.5708,3.6519,3.734
4.469000,0.4428,-0.7457,3.6980,3.798
4.471000,0.3369,-0.8867,3.7125,3.832
4.472000,0.2266,-1.0058,3.6928,3.834
4.473000,0.1405,-1.0700,3.6202,3.778
4.478000,0.0872,-1.0816,3.4947,3.659
4.484000,0.0736,-1.0715,3.3117,3.482
4.490000,0.1179,-1.0086,3.0834,3.246
4.516000,0.2098,-0.8948,2.8291,2.975
4.518000,0.3151,-0.7395,2.6062,2.727
4.519000,0.4524,-0.5738,2.4628,2.569
4.519000,0.6090,-0.4100,2.3916,2.502
4.519000,0.7537,-0.2651,2.3305,2.464
4.520000,0.8719,-0.1654,2.2986,2.464
4.523000,0.9734,-0.0919,2.2648,2.467
4.528000,1.0508,-0.0541,2.2386,2.474
4.533000,1.1068,-0.0972,2.2272,2.489
4.538000,1.1392,-0.1853,2.2473,2.526
4.549000,1.1269,-0.1771,2.2461,2.519
4.550000,1.1376,-0.3336,2.3265,2.611
4.553000,1.1173,-0.7004,2.6195,2.933
4.559000,1.0761,-0.8926,2.8189,3.147
4.564000,0.9983,-1.0590,3.0202,3.353
4.571000,0.9253,-1.2313,3.1849,3.538
4.573000,0.8457,-1.3717,3.3083,3.680
4.578000,0.7719,-1.4880,3.4047,3.795
4.610000,0.7088,-1.5807,3.4455,3.856
4.611000,0.6304,-1.6453,3.4186,3.846
4.612000,0.5656,-1.6775,3.3076,3.752
4.612000,0.5043,-1.6798,3.0861,3.550
4.612000,0.4703,-1.6665,2.7617,3.260
4.613000,0.4509,-1.6109,2.3586,2.892
4.615000,0.4597,-1.5199,1.8864,2.466
4.620000,0.4864,-1.4170,1.3886,2.043
4.623000,0.5277,-1.3011,0.8795,1.657
4.628000,0.5927,-1.1840,0.3761,1.376
4.634000,0.6733,-1.0649,-0.1024,1.264
4.639000,0.7619,-0.9410,-0.5394,1.325
4.644000,0.8650,-0.8309,-0.9323,1.519
4.649000,0.9847,-0.7225,-1.2692,1.761
4.654000,1.0870,-0.6317,-1.5575,2.002
4.658000,1.1695,-0.5610,-1.7780,2.201
4.664000,1.2561,-0.5125,-1.9427,2.370
4.705000,1.3567,-0.4864,-2.0424,2.500
4.706000,1.4452,-0.4707,-2.0986,2.591
4.706000,1.5149,-0.4557,-2.1233,2.648
4.706000,1.5470,-0.4656,-2.1264,2.670
4.707000,1.5564,-0.4884,-2.1030,2.662
4.707000,1.5481,-0.5268,-2.0772,2.644
4.707000,1.5416,-0.5856,-2.0539,2.634
4.708000,1.5159,-0.6386,-2.0401,2.621
4.710000,1.4478,-0.6932,-2.0529,2.606
4.713000,1.3542,-0.7444,-2.0945,2.603
4.718000,1.2333,-0.8135,-2.1651,2.621
4.723000,1.0879,-0.8765,-2.2815,2.675
4.728000,0.9348,-0.9403,-2.4150,2.755
4.736000,0.7671,-1.0094,-2.5463,2.844
4.739000,0.5847,-1.0815,-2.6804,2.949
4.744000,0.4020,-1.1182,-2.8197,3.060
4.749000,0.2261,-1.1458,-2.9521,3.175
4.754000,0.0619,-1.1670,-3.0752,3.290
4.759000,-0.0502,-1.1602,-3.2034,3.407
4.763000,-0.0769,-1.1231,-3.3390,3.524
4.776000,-0.0448,-1.0728,-3.4388,3.603
4.778000,0.0052,-1.0047,-3.5389,3.679
4.779000,0.0683,-0.8999,-3.6462,3.756
4.840000,0.0870,-0.7875,-3.7560,3.839
4.841000,0.1905,-0.6797,-3.8729,3.937
4.842000,0.2591,-0.5550,-4.0282,4.074
4.842000,0.3053,-0.4299,-4.2217,4.254
4.843000,0.3545,-0.3092,-4.4700,4.495
4.843000,0.3902,-0.2231,-4.7469,4.768
4.843000,0.4098,-0.1474,-5.0284,5.047
4.844000,0.3991,-0.1099,-5.2907,5.307
4.844000,0.3610,-0.0982,-5.5122,5.525
4.845000,0.2953,-0.0951,-5.7026,5.711
4.845000,0.2140,-0.1099,-5.8285,5.833
4.846000,0.1319,-0.1520,-5.8923,5.896
4.847000,0.0393,-0.2261,-5.8916,5.896
4.849000,-0.0443,-0.3011,-5.8361,5.844
4.854000,-0.1337,-0.3970,-5.7281,5.743
4.861000,-0.2051,-0.4996,-5.5675,5.594
4.863000,-0.2543,-0.6000,-5.3758,5.415
4.870000,-0.2770,-0.6895,-5.1601,5.213
4.875000,-0.2090,-0.7472,-4.9323,4.993
4.880000,0.0512,-0.7576,-4.6899,4.751
4.888000,0.4721,-0.7162,-4.4615,4.543
4.891000,0.9311,-0.6234,-4.2782,4.422
4.894000,1.3537,-0.4505,-4.1399,4.379
4.898000,1.6774,-0.2261,-4.0467,4.386
4.948000,1.9037,0.0252,-3.9578,4.392
4.950000,2.0208,0.2697,-3.8444,4.352
4.952000,2.0308,0.4764,-3.7258,4.270
4.952000,1.9359,0.6090,-3.5996,4.132
4.953000,1.7916,0.6508,-3.4970,3.983
4.954000,1.5834,0.5918,-3.4250,3.819
4.954000,1.3520,0.4726,-3.3815,3.672
4.955000,1.1191,0.3196,-3.3519,3.548
4.955000,0.8821,0.1637,-3.3100,3.429
4.955000,0.6484,-0.0048,-3.2678,3.331
4.956000,0.4419,-0.1721,-3.2300,3.265
4.960000,0.2771,-0.3335,-3.1800,3.209
4.965000,0.1615,-0.4798,-3.1298,3.170
4.969000,0.1028,-0.5989,-3.1129,3.172
4.974000,0.0972,-0.6979,-3.1795,3.257
4.979000,0.1171,-0.7829,-3.3823,3.474
4.984000,0.1505,-0.8337,-3.7329,3.828
4.989000,0.2238,-0.8965,-4.1451,4.247
4.993000,0.3273,-0.9742,-4.5875,4.701
5.000000,0.4797,-1.0412,-4.9859,5.116
5.004000,0.6857,-1.0795,-5.2661,5.419
5.009000,0.9637,-1.0956,-5.3445,5.540
5.015000,1.3495,-1.0348,-5.2164,5.487
5.054000,1.7696,-0.9194,-4.8989,5.289
5.054000,2.2034,-0.7747,-4.4762,5.049
5.055000,2.6282,-0.6047,-4.0418,4.859
5.055000,3.0511,-0.4390,-3.7034,4.818
5.055000,3.4279,-0.2496,-3.5350,4.930
5.056000,3.7210,-0.0388,-3.5191,5.122
5.056000,3.8780,0.2060,-3.5787,5.281
5.056000,3.8970,0.4325,-3.5791,5.309
5.060000,3.8226,0.6003,-3.4199,5.164
5.065000,3.7508,0.6885,-3.2037,4.981
5.069000,3.6478,0.6834,-3.0642,4.813
5.074000,3.4213,0.5651,-3.0318,4.606
5.079000,3.0662,0.3420,-2.9838,4.292
5.086000,2.6218,0.0999,-2.7591,3.807
5.089000,2.2030,-0.1819,-2.2210,3.134
5.096000,1.8208,-0.4962,-1.3337,2.311
5.100000,1.4481,-0.8673,-0.1575,1.695
5.105000,1.1103,-1.2663,1.2779,2.114
5.109000,0.8018,-1.7137,2.9000,3.463
5.114000,0.5299,-2.1928,4.5759,5.102
5.146000,0.2898,-2.6913,6.2616,6.822
5.147000,0.0235,-3.2275,7.8602,8.497
5.147000,-0.2063,-3.6220,9.6082,10.270
5.148000,-0.1641,-3.6487,11.4109,11.981
5.148000,-0.0505,-3.8572,12.1161,12.715
5.149000,-0.1754,-4.1325,12.3796,13.052
5.150000,-0.5773,-4.2459,12.4591,13.175
5.157000,-1.2382,-4.2585,12.4832,13.248
5.161000,-1.9305,-4.1257,12.3770,13.189
5.165000,-2.4385,-3.8076,11.9840,12.809
5.170000,-2.7093,-3.3746,11.2182,12.024
5.176000,-2.7706,-2.8538,10.2222,10.969
5.180000,-2.7122,-2.2652,9.1380,9.797
5.185000,-2.5686,-1.6628,7.9760,8.543
5.189000,-2.3703,-1.0476,6.7638,7.243
5.195000,-2.1359,-0.4307,5.6077,6.016
5.204000,-1.8694,0.1527,4.6020,4.970
5.205000,-1.6322,0.6981,3.7782,4.174
5.210000,-1.4777,1.1840,3.1391,3.666
5.215000,-1.4166,1.6099,2.6632,3.419
5.241000,-1.4210,1.9779,2.3390,3.377
5.242000,-1.4750,2.2800,2.1017,3.434
5.242000,-1.5683,2.5107,1.9398,3.539
5.243000,-1.6939,2.6431,1.8125,3.625
5.243000,-1.8286,2.7006,1.7222,3.688
5.245000,-1.9822,2.7042,1.6544,3.739
5.249000,-2.1257,2.6921,1.6019,3.786
5.254000,-2.2620,2.6876,1.5429,3.837
5.260000,-2.3909,2.7075,1.4511,3.893
5.264000,-2.5033,2.7516,1.3530,3.958
5.270000,-2.5929,2.8434,1.2558,4.048
5.275000,-2.6748,2.9614,1.1144,4.143
5.280000,-2.7569,3.0764,0.9720,4.244
5.285000,-2.8382,3.1714,0.8432,4.339
5.290000,-2.9557,3.2484,0.7283,4.452
5.295000,-3.0436,3.3309,0.6060,4.553
5.302000,-3.1373,3.3588,0.4602,4.619
5.305000,-3.2378,3.2961,0.2172,4.625
5.310000,-3.3516,3.1314,-0.1507,4.589
5.315000,-3.5190,2.8465,-0.5634,4.561
5.320000,-3.7556,2.4691,-0.8833,4.581
5.325000,-4.0276,2.0529,-0.9642,4.622
5.330000,-4.3551,1.6228,-0.8635,4.727
5.343000,-4.6598,1.1892,-0.5966,4.846
5.345000,-4.9510,0.7694,-0.1858,5.014
5.346000,-5.1908,0.3232,0.3721,5.214
5.400000,-5.3686,-0.1439,0.9968,5.462
5.402000,-5.4553,-0.6191,1.5975,5.718
5.402000,-4.9829,-1.0230,1.6470,5.347
5.403000,-4.5065,-1.1591,1.9243,5.035
5.403000,-4.8231,-1.0468,2.7327,5.641
5.404000,-5.3284,-1.0522,3.6498,6.544
5.404000,-5.4621,-1.3091,4.0146,6.904
5.405000,-5.2153,-1.7713,3.9182,6.759
5.405000,-4.5985,-2.1225,3.7080,6.277
5.406000,-3.6915,-2.0904,3.4725,5.482
5.407000,-3.1456,-2.2054,3.4891,5.190
5.407000,-2.5150,-2.3801,3.4196,4.867
5.410000,-1.7465,-2.5605,3.1432,4.414
5.415000,-0.8954,-2.6499,2.7211,3.902
5.421000,-0.2914,-2.5103,2.2696,3.397
5.426000,0.0142,-2.1896,1.8544,2.869
5.430000,0.0167,-1.8316,1.4986,2.367
5.445000,-0.2367,-1.5579,1.1744,1.965
5.446000,-0.6377,-1.3947,0.8710,1.764
5.447000,-1.1002,-1.4206,0.7164,1.934
5.496000,-1.5451,-1.7046,0.7776,2.428
5.498000,-1.9243,-2.2981,1.1526,3.211
5.499000,-2.3116,-3.5120,2.3669,4.825
5.500000,-2.3773,-4.3942,2.1655,5.445
5.501000,-2.3991,-4.4436,0.6183,5.088
5.502000,-2.3439,-4.4181,-0.4283,5.020
5.503000,-2.0576,-4.6457,-1.0739,5.193
5.507000,-1.6482,-4.7064,-1.6423,5.250
5.508000,-1.2643,-4.4085,-2.1296,5.057
5.508000,-0.7985,-3.9109,-2.2599,4.587
5.509000,-0.1491,-3.4418,-2.2611,4.121
5.509000,0.5570,-2.9935,-2.2773,3.802
5.511000,1.1707,-2.5667,-2.2108,3.584
5.516000,1.6921,-2.1268,-1.9907,3.369
5.522000,2.1935,-1.6917,-1.6970,3.249
5.525000,2.6441,-1.2864,-1.4329,3.271
5.531000,3.0535,-0.8991,-1.1988,3.401
5.538000,3.3817,-0.5335,-0.9544,3.554
5.541000,3.5767,-0.1921,-0.7477,3.659
5.545000,3.5943,0.0601,-0.6172,3.647
5.574000,3.4742,0.2187,-0.5819,3.529
5.575000,3.2458,0.3130,-0.6221,3.320
5.576000,2.9262,0.3509,-0.6950,3.028
5.576000,2.5478,0.3358,-0.7739,2.684
5.576000,2.1531,0.2595,-0.8440,2.327
5.577000,1.7682,0.1563,-0.9223,2.000
5.581000,1.4203,0.0297,-1.0156,1.746
5.586000,1.1431,-0.0960,-1.1029,1.591
5.590000,0.9394,-0.2202,-1.1363,1.491
5.595000,0.8053,-0.3187,-1.1111,1.409
5.607000,0.8495,-0.5397,-1.0782,1.475
5.608000,0.7255,-0.5050,-0.9993,1.334
5.610000,0.7514,-0.6050,-0.9426,1.349
5.616000,0.8097,-0.7080,-0.8820,1.391
5.621000,0.8480,-0.8190,-0.8178,1.435
5.626000,0.8810,-0.9191,-0.7695,1.488
5.631000,0.8934,-0.9966,-0.7224,1.521
5.640000,0.8763,-1.0549,-0.7087,1.544
5.642000,0.8382,-1.0919,-0.7209,1.554
5.646000,0.7688,-1.1155,-0.7635,1.555
5.694000,0.6745,-1.1284,-0.8625,1.572
5.695000,0.5391,-1.1477,-0.9930,1.611
5.696000,0.3748,-1.1455,-1.1601,1.673
5.696000,0.2111,-1.1074,-1.2981,1.719
5.697000,0.0689,-1.0435,-1.3946,1.743
5.697000,-0.0737,-0.9591,-1.4830,1.768
5.698000,-0.2249,-0.8900,-1.5693,1.818
5.698000,-0.3955,-0.8367,-1.6520,1.894
5.698000,-0.5694,-0.7989,-1.7302,1.989
5.698000,-0.7514,-0.7647,-1.8010,2.096
5.704000,-0.8861,-0.7266,-1.7829,2.119
5.705000,-0.9782,-0.6580,-1.6515,2.029
5.711000,-1.0248,-0.5706,-1.4522,1.867
5.717000,-1.0732,-0.4975,-1.2381,1.712
5.721000,-1.1022,-0.4812,-1.0323,1.585
5.726000,-1.0959,-0.4731,-0.9008,1.495
5.731000,-1.0921,-0.4798,-0.8439,1.461
5.736000,-1.1271,-0.5080,-0.8187,1.483
5.741000,-1.1359,-0.5522,-0.8544,1.525
5.746000,-1.1446,-0.6267,-0.9277,1.601
5.758000,-1.1507,-0.6974,-0.9916,1.671
5.759000,-1.1977,-0.7356,-1.0649,1.763
5.761000,-1.2706,-0.7534,-1.1782,1.890
5.766000,-1.3372,-0.7606,-1.3160,2.024
5.810000,-1.4101,-0.7550,-1.5137,2.202
5.812000,-1.4999,-0.7535,-1.7059,2.393
5.813000,-1.6386,-0.7585,-1.9127,2.630
5.813000,-1.7571,-0.7438,-2.1292,2.859
5.814000,-1.7386,-0.5993,-2.2666,2.919
5.815000,-1.8364,-0.6788,-2.5165,3.188
5.815000,-2.0456,-0.8546,-2.5053,3.345
5.815000,-2.2724,-1.0473,-2.3202,3.412
5.816000,-2.4778,-1.2262,-2.0494,3.441
5.821000,-2.6409,-1.3888,-1.8096,3.490
5.823000,-2.7479,-1.5260,-1.6288,3.540
5.826000,-2.7854,-1.6546,-1.5082,3.574
5.831000,-2.7706,-1.7652,-1.3987,3.571
5.837000,-2.7395,-1.8676,-1.2532,3.544
5.842000,-2.7109,-1.9926,-1.0626,3.528
5.846000,-2.7105,-2.1327,-0.8616,3.555
5.858000,-2.7618,-2.2806,-0.6344,3.637
5.860000,-2.8808,-2.4528,-0.3798,3.803
5.862000,-2.9951,-2.6371,-0.1546,3.994
5.867000,-3.0803,-2.7876,0.0598,4.155
5.906000,-3.1169,-2.9472,0.2367,4.296
5.908000,-3.0930,-3.0775,0.3567,4.378
5.908000,-3.0276,-3.1665,0.4321,4.402
5.908000,-2.9478,-3.2222,0.4564,4.391
5.909000,-2.8634,-3.2469,0.4450,4.352
5.909000,-2.7916,-3.2292,0.3939,4.287
5.910000,-2.7209,-3.1741,0.3355,4.194
5.910000,-2.6682,-3.1055,0.2588,4.103
5.913000,-2.6348,-3.0292,0.1653,4.018
5.918000,-2.5991,-2.9688,0.0702,3.946
5.921000,-2.5187,-2.9199,-0.0162,3.856
5.927000,-2.3940,-2.8754,-0.0929,3.743
5.932000,-2.2372,-2.8306,-0.1429,3.611
5.937000,-2.0639,-2.8008,-0.1845,3.484
5.943000,-1.8838,-2.8003,-0.2150,3.382
5.946000,-1.7188,-2.8150,-0.2198,3.306
5.952000,-1.5546,-2.8714,-0.2087,3.272
5.958000,-1.4961,-3.0454,-0.1605,3.397
5.962000,-1.5063,-3.3269,-0.1790,3.656
5.968000,-1.4132,-3.5392,-0.3796,3.830
5.972000,-1.3070,-3.6829,-0.4251,3.931
5.978000,-1.2874,-3.7524,-0.2408,3.974
5.982000,-1.2968,-3.8461,-0.1555,4.062
5.991000,-1.1850,-3.9497,-0.2614,4.132
5.993000,-0.9165,-4.0362,-0.4686,4.165
5.998000,-0.5758,-4.1442,-0.6425,4.233
6.040000,-0.2327,-4.2977,-0.7921,4.376
6.042000,0.0624,-4.4820,-0.9341,4.579
6.042000,0.3067,-4.6952,-1.0471,4.820
6.042000,0.4817,-4.8842,-1.1021,5.030
6.043000,0.5591,-5.0080,-1.1021,5.158
6.043000,0.5465,-5.0714,-1.0710,5.212
6.044000,0.4947,-5.0452,-1.0161,5.170
6.044000,0.4439,-4.9563,-0.9515,5.066
6.046000,0.4396,-4.8692,-0.8794,4.967
6.047000,0.4959,-4.8245,-0.7992,4.915
6.052000,0.6073,-4.8322,-0.7370,4.926
6.058000,0.7714,-4.9256,-0.7234,5.038
6.062000,0.9611,-5.0838,-0.6963,5.221
6.067000,1.1477,-5.3020,-0.6223,5.460
6.073000,1.2669,-5.5849,-0.5037,5.749
6.077000,1.3309,-5.8871,-0.3505,6.046
6.081000,1.3257,-6.1822,-0.1650,6.325
6.116000,1.2633,-6.4325,0.0539,6.556
6.117000,1.1826,-6.6068,0.3447,6.721
6.117000,1.0574,-6.7459,0.7235,6.867
6.117000,0.8643,-6.8836,1.1633,7.035
6.118000,0.5421,-6.9693,1.6516,7.183
6.118000,0.1058,-6.9840,2.1911,7.320
6.118000,-0.3885,-6.9420,2.7766,7.487
6.123000,-0.9375,-6.8164,3.3784,7.665
6.128000,-1.5328,-6.5951,3.9908,7.859
6.133000,-2.0180,-6.2631,4.5251,7.986
6.138000,-2.4219,-5.8282,5.0011,8.053
6.143000,-2.7777,-5.2758,5.4261,8.062
6.147000,-2.9778,-4.6492,5.7349,7.961
6.153000,-3.0153,-4.0036,5.9442,7.775
6.157000,-2.9623,-3.3820,6.0809,7.562
6.162000,-2.8509,-2.8044,6.1678,7.351
6.167000,-2.6286,-2.2800,6.1671,7.081
6.173000,-2.2553,-1.8114,6.1076,6.758
6.178000,-1.8038,-1.3824,6.0278,6.442
6.182000,-1.3153,-1.0049,5.9617,6.187
6.188000,-0.8058,-0.6632,5.8744,5.966
6.192000,-0.3210,-0.3645,5.7711,5.791
6.197000,0.1267,-0.0921,5.6298,5.632
6.207000,0.5175,0.1705,5.4794,5.506
6.208000,0.8662,0.4236,5.3030,5.390
6.212000,1.1527,0.6596,5.0929,5.263
6.256000,1.3773,0.8406,4.8352,5.097
6.258000,1.5304,0.9858,4.5018,4.856
6.258000,1.6313,1.0955,4.1410,4.584
6.259000,1.6948,1.2013,3.7778,4.311
6.259000,1.7322,1.3099,3.4195,4.051
6.259000,1.7296,1.4218,3.0719,3.801
6.260000,1.7016,1.5539,2.7594,3.595
6.261000,1.6458,1.6966,2.4969,3.438
6.261000,1.5744,1.8525,2.2466,3.310
6.263000,1.4965,2.0191,2.0087,3.217
6.272000,1.4291,2.1822,1.7890,3.163
6.273000,1.3338,2.3202,1.6189,3.128
6.277000,1.2297,2.4379,1.5082,3.119
6.286000,1.1147,2.5237,1.4501,3.117
6.286000,1.0004,2.6180,1.4466,3.154
6.293000,0.8966,2.6850,1.4644,3.187
6.299000,0.7867,2.7033,1.4820,3.182
6.303000,0.6782,2.7043,1.5232,3.177
6.312000,0.5690,2.6808,1.5811,3.164
6.313000,0.4614,2.6352,1.6815,3.160
6.333000,0.3867,2.5939,1.8126,3.188
6.334000,0.3449,2.5761,1.9951,3.277
6.334000,0.2999,2.5648,2.1834,3.382
6.335000,0.2399,2.5625,2.3746,3.502
6.338000,0.1504,2.5380,2.5749,3.619
6.343000,0.0581,2.5202,2.7675,3.744
6.348000,-0.0295,2.5069,2.9542,3.875
6.352000,-0.1144,2.4909,3.1371,4.007
6.357000,-0.1750,2.4868,3.3209,4.152
6.362000,-0.2065,2.4922,3.4902,4.294
6.367000,-0.2206,2.5024,3.6452,4.427
6.372000,-0.2269,2.5150,3.7974,4.560
6.378000,-0.2325,2.5517,3.9249,4.687
6.382000,-0.2323,2.5791,4.0252,4.786
6.388000,-0.2337,2.6162,4.0714,4.845
6.392000,-0.2315,2.6490,4.0831,4.873
6.398000,-0.2280,2.7013,4.0648,4.886
6.403000,-0.1776,2.7517,4.0241,4.878
6.407000,-0.1257,2.8075,3.9850,4.876
6.412000,-0.0583,2.8731,3.9354,4.873
6.457000,0.0079,2.9248,3.8800,4.859
6.458000,0.0704,2.9984,3.8165,4.854
6.459000,0.1291,3.0746,3.7402,4.843
6.459000,0.1939,3.1464,3.6536,4.826
6.459000,0.2450,3.2279,3.5593,4.811
6.460000,0.3113,3.2975,3.4525,4.784
6.460000,0.3977,3.3554,3.3358,4.748
6.461000,0.5159,3.3942,3.2143,4.703
6.461000,0.6659,3.4164,3.0808,4.648
6.463000,0.8350,3.4455,2.9262,4.597
6.468000,1.0063,3.4720,2.7483,4.541
6.472000,1.1796,3.4839,2.5714,4.488
6.479000,1.3286,3.4667,2.4316,4.438
6.484000,1.4678,3.4350,2.2858,4.379
6.488000,1.6111,3.4077,2.1345,4.332
6.493000,1.7586,3.3919,2.0066,4.316
6.499000,1.9101,3.3877,1.8780,4.319
6.503000,2.0607,3.3782,1.7538,4.328
6.507000,2.2151,3.3827,1.6149,4.354
6.512000,2.3679,3.3912,1.4691,4.389
6.552000,2.5286,3.4014,1.3427,4.446
6.553000,2.6993,3.4300,1.2261,4.534
6.553000,2.8414,3.4291,1.1124,4.590
6.553000,2.9934,3.4179,1.0015,4.652
6.554000,3.1448,3.3939,0.8772,4.709
6.554000,3.2791,3.3523,0.7492,4.749
6.554000,3.4102,3.3195,0.6392,4.802
6.554000,3.5310,3.2642,0.5500,4.840
6.558000,3.6341,3.2010,0.4837,4.867
6.563000,3.7147,3.1321,0.4383,4.879
6.568000,3.7559,3.0506,0.3970,4.855
6.572000,3.7771,2.9443,0.3885,4.805
6.577000,3.7878,2.8325,0.3985,4.746
6.583000,3.7858,2.7129,0.4291,4.677
6.587000,3.7807,2.5735,0.4612,4.597
6.592000,3.7418,2.4073,0.5375,4.482
6.598000,3.6646,2.2167,0.6099,4.326
6.610000,3.4325,1.7771,0.7784,3.943
6.611000,3.4144,1.7705,0.7679,3.922
6.613000,3.2904,1.5364,0.8485,3.729
6.628000,3.1520,1.3097,0.9196,3.535
6.628000,2.9997,1.0762,0.9832,3.335
6.629000,2.8531,0.8550,1.0391,3.154
6.632000,2.7198,0.6559,1.0706,2.996
6.675000,2.6218,0.4982,1.0897,2.883
6.675000,2.5497,0.3913,1.1251,2.814
6.675000,2.5250,0.2971,1.1766,2.801
6.676000,2.5524,0.2010,1.2178,2.835
6.676000,2.6461,0.1413,1.2435,2.927
6.676000,2.8058,0.1013,1.2922,3.091
6.676000,3.0405,0.0782,1.3682,3.335
6.676000,3.3257,0.0719,1.4902,3.645
6.678000,3.6585,0.0774,1.6672,4.021
6.682000,3.9997,0.1254,1.8502,4.409
6.687000,4.3081,0.2012,1.9791,4.745
6.694000,4.5924,0.2782,2.0393,5.033
6.698000,4.8476,0.3444,2.0427,5.272
6.704000,5.0804,0.3802,2.0038,5.474
6.709000,5.2834,0.3810,1.9296,5.638
6.713000,5.4395,0.3441,1.8019,5.741
6.720000,5.5560,0.2720,1.5873,5.785
6.723000,5.6280,0.1742,1.2986,5.779
6.727000,5.6868,0.0508,0.9895,5.772
6.733000,5.7419,-0.0910,0.6747,5.782
6.765000,5.7939,-0.2365,0.3416,5.809
6.766000,5.8549,-0.3880,-0.0164,5.868
6.767000,5.9320,-0.5549,-0.3791,5.970
6.768000,6.0514,-0.7060,-0.7431,6.138
6.768000,6.1553,-0.8771,-1.0955,6.313
6.769000,6.2515,-1.0775,-1.3753,6.491
6.770000,6.3470,-1.2879,-1.6014,6.671
6.773000,6.3749,-1.4890,-1.7492,6.776
6.778000,6.4863,-1.7572,-1.8210,6.962
6.783000,6.6615,-1.9946,-1.8312,7.191
6.788000,6.7245,-2.1601,-1.7368,7.273
6.793000,6.6873,-2.4861,-1.6294,7.318
6.798000,6.7862,-2.8291,-1.3849,7.482
6.803000,6.8514,-3.1007,-1.1237,7.604
6.808000,6.7967,-3.2632,-0.7868,7.580
6.813000,6.5830,-3.3234,-0.3489,7.383
6.820000,6.2203,-3.2721,0.1362,7.030
6.823000,5.7784,-3.1357,0.6482,6.606
6.828000,5.3154,-2.9454,1.1622,6.187
6.833000,4.8646,-2.7518,1.6603,5.830
6.838000,4.4750,-2.5328,2.1200,5.562
6.843000,4.1437,-2.2914,2.5433,5.375
6.848000,3.8703,-2.0372,2.9390,5.269
6.857000,3.6449,-1.7826,3.2825,5.219
6.859000,3.4500,-1.5257,3.5327,5.168
6.863000,3.2958,-1.3044,3.7039,5.127
6.901000,3.1912,-1.1143,3.7793,5.070
6.902000,3.1550,-0.9986,3.7975,5.037
6.902000,3.1727,-0.9574,3.7325,4.991
6.903000,3.2173,-1.0030,3.5699,4.909
6.903000,3.2777,-1.0941,3.3107,4.786
6.904000,3.3509,-1.2143,2.9677,4.638
6.904000,3.4008,-1.3589,2.5607,4.469
6.904000,3.3961,-1.5279,2.1243,4.287
6.908000,3.3367,-1.7215,1.6808,4.114
6.913000,3.2427,-1.9341,1.2603,3.980
6.918000,3.0925,-2.1585,0.8873,3.874
6.927000,2.8959,-2.3872,0.5720,3.796
6.927000,2.6415,-2.6129,0.3029,3.728
6.934000,2.3696,-2.8213,0.1161,3.686
6.939000,2.0914,-3.0111,-0.0118,3.666
6.943000,1.8257,-3.1825,-0.0831,3.670
6.948000,1.5869,-3.3210,-0.0641,3.681
6.953000,1.3801,-3.4266,0.0472,3.694
6.958000,1.2140,-3.5190,0.2314,3.730
6.963000,1.0948,-3.6045,0.4617,3.795
6.994000,0.9858,-3.6836,0.6992,3.877
6.995000,0.8847,-3.7445,0.9366,3.960
6.995000,0.7674,-3.7922,1.1735,4.043
6.995000,0.6407,-3.8107,1.4239,4.118
6.996000,0.4960,-3.7990,1.6682,4.179
6.996000,0.3256,-3.7748,1.8965,4.237
7.000000,0.1344,-3.7452,2.1229,4.307
7.006000,-0.0800,-3.7080,2.3544,4.393
7.009000,-0.2918,-3.6663,2.5527,4.477
7.014000,-0.4782,-3.6498,2.7243,4.579
7.019000,-0.6636,-3.6593,2.8715,4.699
7.023000,-0.8526,-3.6588,2.9893,4.801
7.029000,-1.0429,-3.6915,3.0724,4.915
7.034000,-1.2561,-3.7649,3.1232,5.050
7.038000,-1.4790,-3.8965,3.1531,5.226
7.043000,-1.7260,-4.0554,3.1688,5.428
7.048000,-2.0230,-4.2101,3.1720,5.646
7.053000,-2.3435,-4.3340,3.1577,5.852
7.059000,-2.6732,-4.4084,3.1233,6.028
7.064000,-2.9850,-4.4364,3.0761,6.169
7.072000,-3.2098,-4.4377,2.9564,6.224
7.074000,-3.5059,-4.4147,2.8653,6.324
7.078000,-3.8656,-4.3862,2.8023,6.483
7.115000,-4.1839,-4.3668,2.6641,6.608
7.116000,-4.4910,-4.3476,2.4773,6.724
7.116000,-4.7490,-4.3122,2.2518,6.798
7.117000,-4.9486,-4.2770,1.9977,6.839
7.117000,-5.1331,-4.2158,1.7400,6.867
7.117000,-5.3030,-4.1410,1.5174,6.897
7.118000,-5.4388,-4.0705,1.3092,6.918
7.126000,-5.5769,-4.0050,1.1344,6.959
7.127000,-5.7245,-3.9300,0.9550,7.009
7.128000,-5.8937,-3.8431,0.7902,7.080
7.134000,-6.0345,-3.7422,0.6232,7.128
7.138000,-6.1370,-3.6214,0.4642,7.141
7.143000,-6.2114,-3.5245,0.3133,7.149
7.148000,-6.2792,-3.4204,0.1779,7.153
7.155000,-6.3454,-3.3376,0.0796,7.170
7.159000,-6.4270,-3.2648,0.0156,7.209
7.163000,-6.4925,-3.2036,-0.0474,7.240
7.195000,-6.5448,-3.1447,-0.1000,7.262
7.196000,-6.5695,-3.0956,-0.1611,7.264
7.196000,-6.5883,-3.0468,-0.2092,7.262
7.196000,-6.6039,-3.0154,-0.2419,7.264
7.197000,-6.6041,-2.9959,-0.2904,7.258
7.197000,-6.6059,-2.9793,-0.3284,7.254
7.200000,-6.6212,-2.9705,-0.3824,7.267
7.205000,-6.6405,-2.9697,-0.4430,7.288
7.209000,-6.6448,-2.9794,-0.5033,7.300
7.214000,-6.7511,-2.9871,-0.5677,7.404
7.219000,-6.8015,-2.9978,-0.6364,7.460
7.224000,-6.8560,-3.0257,-0.6998,7.527
7.229000,-6.9025,-3.0564,-0.7626,7.587
7.235000,-6.9579,-3.0878,-0.8225,7.657
7.240000,-7.0151,-3.1311,-0.8743,7.732
7.244000,-7.0858,-3.1650,-0.9255,7.816
7.249000,-7.1655,-3.2013,-0.9733,7.908
7.255000,-7.2398,-3.2542,-1.0106,8.002
7.260000,-7.3111,-3.2855,-1.0660,8.086
7.264000,-7.3794,-3.3259,-1.1224,8.172
7.277000,-7.4471,-3.3848,-1.1822,8.265
7.279000,-7.5096,-3.4476,-1.2261,8.354
7.280000,-7.5619,-3.5262,-1.2590,8.438
7.337000,-7.6159,-3.6108,-1.2834,8.526
7.338000,-7.6573,-3.7010,-1.3019,8.604
7.339000,-7.6955,-3.7681,-1.3242,8.670
7.339000,-7.7137,-3.8358,-1.3623,8.722
7.340000,-7.7025,-3.8754,-1.4018,8.736
7.340000,-7.6858,-3.9036,-1.4451,8.741
7.341000,-7.6658,-3.9299,-1.4899,8.742
7.341000,-7.6331,-3.9615,-1.5409,8.737
7.342000,-7.5851,-3.9814,-1.5861,8.712
7.342000,-7.5219,-3.9969,-1.6185,8.670
7.343000,-7.4267,-4.0317,-1.6310,8.606
7.343000,-7.3136,-4.0716,-1.6525,8.532
7.344000,-7.1589,-4.1095,-1.6688,8.422
7.349000,-6.9936,-4.1550,-1.6678,8.304
7.354000,-6.8081,-4.2035,-1.6424,8.168
7.360000,-6.6191,-4.2453,-1.5879,8.022
7.365000,-6.4195,-4.2765,-1.5191,7.862
7.371000,-6.2331,-4.2873,-1.4598,7.705
7.374000,-6.0456,-4.2899,-1.4073,7.545
7.380000,-5.8640,-4.2869,-1.3597,7.390
7.384000,-5.6764,-4.2854,-1.3259,7.235
7.411000,-5.4709,-4.3195,-1.3085,7.092
7.412000,-5.2571,-4.3701,-1.3051,6.960
7.412000,-5.0517,-4.4419,-1.3182,6.855
7.412000,-4.8497,-4.5158,-1.3356,6.760
7.413000,-4.6294,-4.6036,-1.3743,6.672
7.413000,-4.4127,-4.7013,-1.4248,6.603
7.422000,-4.2112,-4.8300,-1.4846,6.578
7.424000,-4.0319,-4.9826,-1.5370,6.591
7.429000,-3.8698,-5.1539,-1.5872,6.638
7.434000,-3.7317,-5.3337,-1.6400,6.713
7.439000,-3.6154,-5.5134,-1.7002,6.809
7.444000,-3.4988,-5.6851,-1.7461,6.900
7.449000,-3.3771,-5.8511,-1.7917,6.989
7.454000,-3.2406,-6.0206,-1.8202,7.076
7.459000,-3.0674,-6.1981,-1.8334,7.154
7.464000,-2.8581,-6.3824,-1.8311,7.229
7.469000,-2.6147,-6.5777,-1.8273,7.310
7.474000,-2.3588,-6.7700,-1.7976,7.391
7.479000,-2.0953,-6.9713,-1.7417,7.485
7.486000,-1.8045,-7.1810,-1.6568,7.587
7.489000,-1.5087,-7.3818,-1.5550,7.693
7.494000,-1.1859,-7.5992,-1.4359,7.824
7.499000,-0.8457,-7.8240,-1.2945,7.975
7.520000,-0.4785,-8.0396,-1.1285,8.133
7.521000,-0.1078,-8.2553,-0.9256,8.308
7.521000,0.2511,-8.4155,-0.6937,8.448
7.521000,0.6107,-8.5319,-0.4186,8.564
7.524000,0.9518,-8.5880,-0.1102,8.641
7.529000,1.2579,-8.5868,0.2331,8.682
7.535000,1.5201,-8.5253,0.5871,8.680
7.539000,1.7849,-8.4248,0.9242,8.661
7.545000,2.0482,-8.2968,1.2325,8.634
7.550000,2.3194,-8.1558,1.5040,8.612
7.555000,2.5961,-8.0285,1.7169,8.611
7.559000,2.9218,-7.9192,1.9073,8.654
7.566000,3.2780,-7.8320,2.0531,8.735
7.570000,3.6267,-7.7402,2.1881,8.823
7.575000,3.9292,-7.6346,2.3384,8.899
7.580000,4.1544,-7.4961,2.4942,8.926
7.587000,4.3269,-7.3267,2.6317,8.907
7.590000,4.4404,-7.1205,2.7576,8.833
7.595000,4.5221,-6.8742,2.8674,8.714
7.599000,4.5528,-6.6047,2.9566,8.549
7.638000,4.4394,-6.0776,3.0110,8.106
7.639000,4.5725,-5.9741,3.0431,8.115
7.639000,4.5795,-5.6349,3.0528,7.877
7.639000,4.5665,-5.3106,3.0861,7.654
7.639000,4.5434,-4.9892,3.1427,7.444
7.640000,4.5127,-4.6539,3.2011,7.230
7.640000,4.5017,-4.3114,3.2758,7.042
7.640000,4.5158,-3.9578,3.3589,6.880
7.646000,4.5726,-3.6119,3.4530,6.773
7.651000,4.6791,-3.2736,3.5697,6.735
7.655000,4.8492,-2.9386,3.6968,6.769
7.660000,5.0908,-2.6231,3.8411,6.896
7.665000,5.3703,-2.3449,3.9920,7.090
7.670000,5.6786,-2.0727,4.1514,7.333
7.675000,5.9913,-1.8042,4.3399,7.615
7.680000,6.3316,-1.5181,4.5161,7.924
7.685000,6.6949,-1.2237,4.6598,8.248
7.690000,7.0476,-0.9172,4.7870,8.569
7.695000,7.3947,-0.6221,4.8805,8.882
7.700000,7.7164,-0.3243,4.9516,9.174
7.705000,8.0023,0.0002,4.9543,9.412
7.711000,8.2550,0.3563,4.9002,9.606
7.716000,8.4791,0.7266,4.7923,9.767
7.725000,8.6559,1.0876,4.5972,9.861
7.726000,8.7609,1.4345,4.3178,9.872
7.730000,8.8272,1.7197,3.9502,9.822
7.785000,8.8411,1.9648,3.4854,9.704
7.786000,8.7676,2.1582,2.9474,9.498
7.786000,8.6268,2.3314,2.3585,9.242
7.787000,8.4359,2.5158,1.7396,8.973
7.787000,8.1832,2.6998,1.1375,8.692
7.787000,7.9079,2.8886,0.5292,8.436
7.788000,7.6026,3.1089,-0.0639,8.214
7.788000,7.3016,3.3157,-0.6433,8.045
7.788000,6.9883,3.5023,-1.2126,7.910
7.789000,6.6486,3.6643,-1.7518,7.791
7.789000,6.2688,3.8164,-2.2291,7.670
7.791000,5.8966,3.9543,-2.6503,7.578
7.796000,5.5328,4.1071,-2.9889,7.511
7.800000,5.1873,4.2630,-3.2590,7.463
7.805000,4.8912,4.3887,-3.4390,7.417
7.810000,4.6282,4.4963,-3.5340,7.357
7.815000,4.4074,4.5931,-3.5514,7.289
7.824000,4.2315,4.6622,-3.4915,7.199
7.825000,4.1047,4.7108,-3.3551,7.092
7.830000,4.0365,4.7387,-3.1623,6.982
7.877000,3.9691,4.7648,-2.9112,6.851
7.878000,3.9238,4.7842,-2.6247,6.721
7.879000,3.8980,4.7917,-2.3371,6.604
7.879000,3.8769,4.8015,-2.0397,6.500
7.879000,3.8676,4.8037,-1.7552,6.412
7.880000,3.8721,4.7863,-1.4575,6.327
7.880000,3.8572,4.7395,-1.1766,6.223
7.880000,3.8182,4.6678,-0.9201,6.100
7.881000,3.7551,4.5881,-0.6931,5.969
7.881000,3.6753,4.5241,-0.4720,5.848
7.888000,3.5837,4.4685,-0.2594,5.734
7.890000,3.4927,4.4118,-0.0678,5.627
7.895000,3.3665,4.3537,0.1049,5.504
7.901000,3.2171,4.2344,0.2396,5.323
7.905000,3.0141,4.0612,0.3240,5.068
7.910000,2.7839,3.8581,0.3442,4.770
7.916000,2.5112,3.6563,0.3335,4.448
7.922000,2.2295,3.4438,0.2779,4.112
7.926000,1.9254,3.2353,0.2065,3.771
7.930000,1.5706,3.0117,0.1335,3.399
7.978000,1.1801,2.7970,0.0426,3.036
7.979000,0.7748,2.5940,-0.0589,2.708
7.979000,0.4100,2.4317,-0.1589,2.471
7.979000,0.1267,2.3101,-0.2521,2.327
7.979000,-0.1251,2.2556,-0.3289,2.283
7.980000,-0.3578,2.2394,-0.3653,2.297
7.980000,-0.5562,2.2355,-0.3854,2.336
7.980000,-0.7108,2.2271,-0.4060,2.373
7.981000,-0.8000,2.2096,-0.4271,2.388
7.981000,-0.8502,2.1806,-0.4391,2.381
7.988000,-0.8498,2.1401,-0.4585,2.348
7.990000,-0.8034,2.1003,-0.4949,2.303
7.995000,-0.7211,2.0730,-0.5599,2.265
8.002000,-0.6465,2.0605,-0.6295,2.249
8.006000,-0.5416,2.0652,-0.6819,2.241
8.010000,-0.4594,2.0725,-0.7145,2.240
8.016000,-0.3711,2.0802,-0.7347,2.237
8.022000,-0.2963,2.0858,-0.7472,2.235
8.026000,-0.2423,2.0676,-0.7637,2.217
8.030000,-0.1756,2.0425,-0.7771,2.192
8.076000,-0.1086,2.0128,-0.7634,2.155
8.076000,-0.0339,1.9523,-0.7130,2.079
8.077000,0.0387,1.8990,-0.6285,2.001
8.077000,0.1304,1.8386,-0.5461,1.922
8.077000,0.2170,1.7637,-0.4682,1.838
8.077000,0.2816,1.6361,-0.3902,1.705
8.078000,0.3199,1.4702,-0.3314,1.541
8.078000,0.3319,1.2902,-0.3013,1.366
8.078000,0.3227,1.1103,-0.2661,1.186
8.081000,0.3138,0.9331,-0.2115,1.007
8.086000,0.2817,0.7538,-0.1206,0.814
8.091000,0.2413,0.6111,-0.0249,0.657
8.096000,0.1830,0.4832,0.0708,0.521
8.102000,0.1144,0.3799,0.1426,0.422
8.106000,0.0594,0.2796,0.2073,0.353
8.112000,0.0112,0.1874,0.2772,0.335
8.117000,-0.0059,0.0843,0.3831,0.392
8.122000,0.0226,-0.0393,0.5225,0.524
8.126000,0.0800,-0.1448,0.6447,0.666
8.131000,0.1330,-0.2517,0.7496,0.802
8.144000,0.2008,-0.3477,0.8490,0.939
8.145000,0.2666,-0.4378,0.9617,1.090
8.146000,0.3543,-0.4884,1.1017,1.256
8.195000,0.4640,-0.4973,1.2402,1.414
8.195000,0.5907,-0.4885,1.3718,1.571
8.196000,0.7317,-0.4646,1.4820,1.717
8.196000,0.8963,-0.4352,1.5800,1.868
8.196000,1.0747,-0.4102,1.6224,1.989
8.196000,1.2761,-0.3896,1.6212,2.100
8.196000,1.5122,-0.3975,1.5885,2.229
8.197000,1.7419,-0.4054,1.5505,2.367
8.197000,1.9672,-0.4109,1.5026,2.509
8.197000,2.1782,-0.4239,1.4424,2.647
8.205000,2.3702,-0.4443,1.3649,2.771
8.206000,2.5407,-0.4603,1.2582,2.872
8.212000,2.6850,-0.4837,1.1036,2.943
8.220000,2.8123,-0.4740,0.9207,2.997
8.221000,2.9803,-0.4407,0.7243,3.099
8.227000,3.1837,-0.4054,0.4982,3.248
8.232000,3.4414,-0.3897,0.2503,3.472
8.237000,3.7650,-0.4008,0.0073,3.786
8.242000,4.1610,-0.4745,-0.2177,4.194
8.246000,4.5810,-0.5702,-0.4029,4.634
8.253000,4.9478,-0.6690,-0.5525,5.023
8.257000,5.2567,-0.7684,-0.6902,5.357
8.261000,5.4977,-0.8684,-0.8134,5.625
8.267000,5.6638,-0.9451,-0.9259,5.816
8.314000,5.7792,-1.0390,-1.0156,5.959
8.315000,5.8679,-1.1403,-1.0796,6.074
8.316000,5.9800,-1.2897,-1.0819,6.212
8.316000,6.0776,-1.4703,-1.0032,6.333
8.316000,6.1752,-1.6533,-0.8534,6.449
8.316000,6.2728,-1.8626,-0.6377,6.575
8.317000,6.3707,-2.0481,-0.3545,6.701
8.317000,6.4284,-2.1740,-0.0044,6.786
8.318000,6.4485,-2.2453,0.4117,6.841
8.326000,6.3862,-2.2547,0.8660,6.828
8.327000,6.2226,-2.1739,1.3265,6.724
8.327000,5.9846,-2.0148,1.7753,6.559
8.333000,5.7059,-1.7705,2.1686,6.356
8.339000,5.4128,-1.4650,2.5108,6.144
8.343000,5.1488,-1.1176,2.8061,5.969
8.347000,4.9325,-0.7429,3.0612,5.853
8.358000,4.7491,-0.3530,3.2473,5.764
8.359000,4.6103,0.0207,3.3784,5.716
8.363000,4.5155,0.3635,3.4355,5.685
8.366000,4.4715,0.6491,3.4092,5.660
8.398000,4.4705,0.8868,3.2975,5.625
8.399000,4.5383,1.0452,3.1246,5.608
8.399000,4.6454,1.1123,2.8915,5.584
8.399000,4.7529,1.0734,2.6391,5.541
8.400000,4.8394,0.9575,2.3540,5.466
8.400000,4.8902,0.8002,2.0391,5.358
8.409000,4.8909,0.6112,1.6805,5.208
8.410000,4.8202,0.3977,1.2959,5.007
8.412000,4.6992,0.1737,0.8931,4.786
8.417000,4.5362,-0.0718,0.4808,4.562
8.421000,4.3287,-0.3365,0.0814,4.343
8.426000,4.0986,-0.5915,-0.2564,4.149
8.431000,3.8511,-0.8101,-0.5534,3.974
8.437000,3.5957,-1.0163,-0.7708,3.815
8.443000,3.3364,-1.1828,-0.9108,3.655
8.447000,3.0612,-1.3289,-0.9708,3.476
8.456000,2.7826,-1.4639,-0.9463,3.284
8.458000,2.4986,-1.5805,-0.8374,3.073
8.462000,2.1973,-1.6691,-0.6490,2.835
8.467000,1.9042,-1.7456,-0.3868,2.612
8.508000,1.6119,-1.7935,-0.1012,2.414
8.508000,1.3661,-1.8464,0.1833,2.304
8.509000,1.1643,-1.8922,0.4761,2.272
8.509000,1.0084,-1.9434,0.7701,2.321
8.510000,0.8873,-1.9849,1.0860,2.430
8.510000,0.7812,-2.0033,1.3756,2.553
8.510000,0.6806,-2.0200,1.6578,2.700
8.511000,0.6092,-2.0592,1.9128,2.876
8.512000,0.5473,-2.0904,2.1623,3.057
8.521000,0.4984,-2.1201,2.3979,3.239
8.522000,0.4569,-2.1514,2.6266,3.426
8.527000,0.4132,-2.1870,2.8623,3.626
8.533000,0.3430,-2.2368,3.0784,3.821
8.539000,0.2558,-2.2868,3.2891,4.014
8.543000,0.1427,-2.3245,3.4672,4.177
8.547000,0.0107,-2.3838,3.6176,4.332
8.556000,-0.1593,-2.4597,3.7283,4.469
8.559000,-0.3574,-2.5666,3.7966,4.597
8.562000,-0.5814,-2.6664,3.8420,4.713
8.567000,-0.8326,-2.7747,3.8519,4.820
8.607000,-1.1396,-2.8770,3.8504,4.940
8.608000,-1.4853,-2.9804,3.8277,5.073
8.608000,-1.8645,-3.0626,3.7814,5.211
8.609000,-2.2559,-3.1120,3.7238,5.352
8.609000,-2.6535,-3.1173,3.6500,5.485
8.609000,-3.0121,-3.0813,3.5629,5.591
8.610000,-3.3630,-3.0442,3.4796,5.717
8.618000,-3.9354,-2.8673,3.2853,5.874
8.620000,-3.9954,-2.9524,3.3035,5.966
8.621000,-4.2506,-2.8964,3.2181,6.067
8.622000,-4.4573,-2.8384,3.1206,6.137
8.628000,-4.6228,-2.7711,3.0278,6.182
8.633000,-4.7354,-2.6924,2.9473,6.194
8.638000,-4.8628,-2.5956,2.8982,6.228
8.643000,-4.9969,-2.4918,2.8658,6.276
8.647000,-5.1049,-2.3861,2.8191,6.301
8.652000,-5.1749,-2.2740,2.7725,6.296
8.657000,-5.2357,-2.1841,2.7213,6.292
8.662000,-5.2854,-2.1098,2.6753,6.288
8.671000,-5.3021,-2.0384,2.6198,6.255
8.674000,-5.3078,-1.9684,2.5718,6.218
8.677000,-5.3171,-1.9093,2.5196,6.186
8.682000,-5.3181,-1.8636,2.4702,6.153
8.735000,-5.3374,-1.8416,2.4214,6.144
8.737000,-5.3699,-1.8280,2.3752,6.150
8.738000,-5.4108,-1.8255,2.3030,6.157
8.739000,-5.4507,-1.8413,2.2311,6.171
8.739000,-5.4920,-1.8874,2.1619,6.197
8.740000,-5.5588,-1.9259,2.0764,6.239
8.740000,-5.6411,-1.9533,2.0054,6.298
8.741000,-5.7246,-1.9820,1.9348,6.359
8.741000,-5.7448,-2.0141,1.8595,6.365
8.742000,-5.8715,-2.0520,1.7750,6.468
8.742000,-5.9397,-2.0957,1.6908,6.522
8.743000,-6.0116,-2.1525,1.6095,6.585
8.749000,-6.1109,-2.2170,1.5332,6.679
8.753000,-6.1946,-2.2677,1.4449,6.753
8.759000,-6.2579,-2.3426,1.3593,6.819
8.763000,-6.3104,-2.4178,1.2904,6.880
8.768000,-6.3498,-2.4981,1.2240,6.932
8.773000,-6.3734,-2.5925,1.1715,6.980
8.777000,-6.3886,-2.6940,1.1352,7.026
8.782000,-6.3954,-2.8168,1.1174,7.077
8.787000,-6.4129,-2.9296,1.1465,7.143
8.792000,-6.4076,-3.0541,1.2103,7.201
8.797000,-6.4250,-3.1898,1.3104,7.292
8.832000,-6.4457,-3.3343,1.4250,7.396
8.833000,-6.4819,-3.4802,1.5561,7.520
8.833000,-6.5190,-3.6393,1.7059,7.658
8.834000,-6.5571,-3.7995,1.8264,7.795
8.834000,-6.5744,-3.9795,1.9392,7.926
8.834000,-6.5829,-4.1528,2.0370,8.045
8.835000,-6.5826,-4.2930,2.1246,8.141
8.842000,-6.5832,-4.4029,2.1923,8.218
8.843000,-6.5702,-4.4632,2.2545,8.257
8.850000,-6.5606,-4.4982,2.2993,8.280
8.854000,-6.5804,-4.5413,2.2979,8.319
8.858000,-6.6058,-4.5709,2.2460,8.341
8.862000,-6.6104,-4.6085,2.1367,8.337
8.868000,-6.5796,-4.6610,2.0088,8.310
8.873000,-6.5136,-4.7405,1.8746,8.271
8.878000,-6.4266,-4.8326,1.7366,8.226
8.883000,-6.3329,-4.9684,1.6234,8.211
8.887000,-6.2182,-5.1381,1.5327,8.211
8.894000,-6.0750,-5.3177,1.4593,8.204
8.898000,-5.9538,-5.4645,1.4132,8.204
8.949000,-5.8303,-5.5810,1.3846,8.189
8.950000,-5.6950,-5.6956,1.3594,8.168
8.950000,-5.5453,-5.8205,1.3377,8.150
8.951000,-5.3689,-5.9743,1.3124,8.139
8.951000,-5.1399,-6.1482,1.2911,8.117
8.951000,-4.8723,-6.3563,1.2693,8.109
8.951000,-4.5542,-6.5652,1.2491,8.087
8.952000,-4.2097,-6.7252,1.2140,8.026
8.952000,-3.8696,-6.8386,1.1492,7.941
8.952000,-3.5346,-6.9356,1.0197,7.851
8.953000,-3.1757,-7.0304,0.8684,7.763
8.958000,-2.8026,-7.1328,0.7125,7.697
8.964000,-2.4131,-7.2145,0.5518,7.627
8.969000,-2.0403,-7.2778,0.4003,7.569
8.973000,-1.6662,-7.2955,0.2250,7.487
8.977000,-1.3216,-7.2773,0.0401,7.396
8.984000,-1.0044,-7.2236,-0.1685,7.295
8.989000,-0.7028,-7.1324,-0.3861,7.177
8.994000,-0.4070,-7.0368,-0.6007,7.074
8.999000,-0.1588,-6.9383,-0.8114,6.987
9.009000,0.0564,-6.8579,-1.0230,6.934
9.013000,0.2386,-6.7934,-1.2086,6.904
9.013000,0.3851,-6.7471,-1.3299,6.888
9.049000,0.4845,-6.7880,-1.4060,6.949
9.051000,0.5218,-6.9068,-1.4726,7.081
9.051000,0.5052,-7.0405,-1.5275,7.222
9.052000,0.4229,-7.1789,-1.5632,7.359
9.052000,0.2826,-7.2811,-1.5819,7.456
9.052000,0.0829,-7.3270,-1.6071,7.502
9.053000,-0.1624,-7.3194,-1.5998,7.494
9.053000,-0.3733,-7.2410,-1.5668,7.418
9.058000,-0.5615,-7.1105,-1.4910,7.287
9.066000,-0.6622,-6.9304,-1.3270,7.087
9.070000,-0.6750,-6.6765,-1.0700,6.795
9.073000,-0.6538,-6.3816,-0.7638,6.460
9.078000,-0.6103,-6.0456,-0.4424,6.092
9.083000,-0.5635,-5.6927,-0.1183,5.722
9.089000,-0.4994,-5.3328,0.1939,5.360
9.093000,-0.4101,-4.9849,0.4895,5.026
9.098000,-0.2804,-4.6647,0.7703,4.736
9.105000,-0.0814,-4.3623,1.0172,4.480
9.108000,0.1819,-4.0732,1.2180,4.255
9.113000,0.5232,-3.8243,1.4014,4.106
9.141000,0.9260,-3.6129,1.5506,4.039
9.142000,1.3594,-3.4214,1.7081,4.058
9.142000,1.8022,-3.2399,1.8804,4.157
9.142000,2.2513,-3.0474,2.0502,4.308
9.143000,2.6968,-2.8775,2.1906,4.511
9.144000,3.1150,-2.7419,2.3275,4.758
9.149000,3.5112,-2.6296,2.4622,5.030
9.153000,3.8596,-2.4995,2.5778,5.272
9.159000,4.1432,-2.3398,2.6617,5.452
9.164000,4.3762,-2.1288,2.7279,5.579
9.170000,4.5449,-1.8854,2.7522,5.638
9.174000,4.6552,-1.6149,2.7080,5.622
9.178000,4.7270,-1.3455,2.5882,5.555
9.183000,4.7651,-1.0603,2.3886,5.435
9.189000,4.8007,-0.7734,2.1504,5.317
9.193000,4.8223,-0.4892,1.8863,5.201
9.198000,4.8359,-0.1984,1.6256,5.106
9.207000,4.8445,0.0897,1.3784,5.038
9.208000,4.8361,0.3825,1.1405,4.983
9.213000,4.8037,0.6803,0.9294,4.940
9.260000,4.7814,0.9977,0.7886,4.948
9.261000,4.7754,1.3058,0.6945,4.999
9.261000,4.8029,1.6167,0.6496,5.109
9.262000,4.8516,1.9234,0.6206,5.256
9.262000,4.9021,2.2044,0.6196,5.411
9.263000,4.9307,2.4335,0.6232,5.534
9.263000,4.9173,2.6320,0.6503,5.615
9.264000,4.8742,2.8147,0.6866,5.670
9.264000,4.8088,2.9983,0.7273,5.713
9.266000,4.7210,3.1709,0.7868,5.741
9.271000,4.6138,3.3207,0.8529,5.748
9.277000,4.5008,3.4548,0.9205,5.748
9.280000,4.3706,3.5997,1.0204,5.753
9.283000,4.2567,3.7243,1.1070,5.763
9.289000,4.1352,3.8358,1.1799,5.762
9.294000,4.0065,3.9487,1.2365,5.760
9.298000,3.8700,4.0461,1.2932,5.746
9.304000,3.7383,4.1473,1.3355,5.741
9.309000,3.5852,4.2405,1.3537,5.716
9.313000,3.4350,4.3184,1.3261,5.675
9.326000,3.2735,4.3766,1.2936,5.616
9.330000,3.1198,4.4269,1.2439,5.557
9.331000,2.9697,4.4767,1.1965,5.504
9.334000,2.8425,4.5380,1.1681,5.481
9.385000,2.7383,4.6227,1.1587,5.496
9.388000,2.6550,4.6855,1.1803,5.513
9.388000,2.6042,4.7790,1.2063,5.575
9.389000,2.5811,4.8912,1.2200,5.663
9.389000,2.5617,4.9957,1.2238,5.746
9.389000,2.5650,5.1022,1.1938,5.834
9.390000,2.5837,5.1746,1.1518,5.897
9.390000,2.6271,5.2418,1.1120,5.968
9.390000,2.6806,5.2677,1.0794,6.008
9.391000,2.7395,5.2885,1.0587,6.049
9.391000,2.7894,5.2753,1.0524,6.059
9.394000,2.8230,5.2545,1.0416,6.055
9.399000,2.8402,5.2285,1.0045,6.034
9.404000,2.8194,5.2044,0.9655,5.997
9.409000,2.7632,5.1991,0.9151,5.958
9.414000,2.6885,5.1670,0.8849,5.891
9.422000,2.5953,5.1370,0.8506,5.818
9.424000,2.4982,5.0827,0.8175,5.722
9.465000,2.3950,4.9946,0.8095,5.598
9.468000,2.2978,4.8681,0.8242,5.446
9.469000,2.2261,4.7295,0.8546,5.297
9.470000,2.1798,4.5526,0.8791,5.124
9.470000,2.1593,4.3613,0.9381,4.956
9.471000,2.1406,4.1652,1.0173,4.792
9.471000,2.1287,3.9549,1.1046,4.625
9.471000,2.1189,3.7351,1.2141,4.463
9.472000,2.1234,3.5297,1.3530,4.336
9.475000,2.1281,3.3389,1.4967,4.233
9.479000,2.1354,3.1435,1.6213,4.132
9.488000,2.1599,2.9507,1.7556,4.056
9.489000,2.1995,2.7510,1.8638,3.985
9.495000,2.2947,2.5707,2.0153,3.992
9.500000,2.4359,2.3715,2.1903,4.044
9.504000,2.5992,2.1679,2.3626,4.128
9.510000,2.7341,1.9669,2.5033,4.197
9.514000,2.8455,1.7877,2.6530,4.282
9.521000,2.9404,1.5896,2.7757,4.345
9.524000,2.9996,1.3894,2.8643,4.374
9.529000,3.0358,1.1775,2.9933,4.423
9.534000,3.0704,0.9900,3.1697,4.523
9.542000,3.1063,0.7814,3.3575,4.640
9.545000,3.1411,0.5543,3.5468,4.770
9.549000,3.1679,0.3062,3.7300,4.903
9.600000,3.1799,0.0877,3.9977,5.109
9.601000,3.2374,-0.1037,4.3443,5.419
9.601000,3.3309,-0.2677,4.7543,5.811
9.602000,3.5085,-0.4139,5.1861,6.275
9.602000,3.7649,-0.4561,5.5929,6.757
9.603000,4.1474,-0.3827,5.9379,7.253
9.603000,4.6356,-0.1676,6.2083,7.750
9.603000,5.1996,0.1290,6.3843,8.235
9.604000,5.7855,0.4684,6.4842,8.703
9.604000,6.3368,0.8239,6.4813,9.102
9.605000,6.8146,1.1355,6.3155,9.360
9.617000,7.5339,1.4269,5.5279,9.453
9.619000,7.5258,1.4275,5.4663,9.410
9.623000,7.8144,1.4270,4.9062,9.337
9.625000,8.0904,1.3628,4.2422,9.236
9.629000,8.3414,1.2179,3.5279,9.138
9.636000,8.5335,1.0088,2.8199,9.044
9.641000,8.6596,0.7858,2.1313,8.953
9.646000,8.6838,0.5295,1.4559,8.821
9.651000,8.5712,0.2448,0.8317,8.615
9.655000,8.3368,-0.0895,0.2616,8.341
9.660000,8.0366,-0.4709,-0.2486,8.054
9.665000,7.7121,-0.8703,-0.7145,7.794
9.711000,7.4166,-1.2684,-1.1766,7.616
9.712000,7.1512,-1.6718,-1.5827,7.513
9.713000,6.9353,-2.0874,-1.8609,7.478
9.713000,6.7717,-2.5318,-2.0301,7.509
9.713000,6.6773,-2.9211,-2.0788,7.579
9.714000,6.6387,-3.2668,-1.9731,7.658
9.714000,6.6458,-3.4998,-1.7139,7.704
9.715000,6.6866,-3.6225,-1.3144,7.718
9.715000,6.7105,-3.6378,-0.8405,7.679
9.715000,6.6959,-3.5386,-0.3340,7.581
9.722000,6.6542,-3.3495,0.2229,7.453
9.724000,6.5811,-3.0991,0.7795,7.316
9.730000,6.4976,-2.8117,1.3035,7.199
9.735000,6.3844,-2.4996,1.7797,7.083
9.740000,6.2315,-2.1728,2.1524,6.942
9.745000,6.0622,-1.8436,2.4308,6.787
9.751000,5.8675,-1.5333,2.6010,6.599
9.755000,5.6662,-1.2280,2.6798,6.387
9.760000,5.4650,-0.9805,2.6650,6.159
9.764000,5.2947,-0.7980,2.5475,5.930
9.809000,5.1645,-0.6976,2.3421,5.713
9.809000,5.0676,-0.7075,2.0645,5.518
9.810000,4.9818,-0.8064,1.7223,5.332
9.810000,4.9309,-0.9991,1.3238,5.202
9.810000,4.8670,-1.2568,0.9106,5.108
9.811000,4.7751,-1.5485,0.5024,5.045
9.811000,4.6493,-1.8400,0.1127,5.001
9.812000,4.4675,-2.1292,-0.2341,4.955
9.812000,4.2111,-2.3990,-0.5228,4.875
9.815000,3.9091,-2.6566,-0.7722,4.789
9.822000,3.5709,-2.8780,-0.9746,4.689
9.825000,3.2318,-3.0789,-1.1122,4.600
9.830000,2.8867,-3.2546,-1.1679,4.504
9.835000,2.5718,-3.4026,-1.1559,4.419
9.840000,2.2804,-3.5464,-1.0688,4.350
9.845000,2.0361,-3.6624,-0.8897,4.284
9.850000,1.8307,-3.7498,-0.6358,4.221
9.864000,1.6567,-3.8016,-0.3099,4.159
9.868000,1.5335,-3.8468,0.0660,4.142
9.871000,1.4038,-3.8544,0.4698,4.129
9.872000,1.2742,-3.8320,0.9203,4.142
9.915000,1.1536,-3.7742,1.3872,4.183
9.917000,1.0607,-3.6766,1.8364,4.244
9.921000,0.9575,-3.5825,2.2978,4.362
9.923000,0.8489,-3.4968,2.7347,4.520
9.924000,0.7320,-3.4248,3.1270,4.695
9.925000,0.5937,-3.3515,3.4707,4.861
9.927000,0.4359,-3.2701,3.7700,5.010
9.928000,0.2514,-3.1857,4.0268,5.141
9.930000,0.0329,-3.1055,4.2307,5.248
9.931000,-0.2295,-3.0276,4.3840,5.333
9.931000,-0.4988,-2.9700,4.4833,5.401
9.932000,-0.7898,-2.9021,4.5333,5.440
9.938000,-1.0858,-2.8572,4.5318,5.466
9.941000,-1.3987,-2.8351,4.4905,5.492
9.946000,-1.7024,-2.8506,4.3906,5.505
9.954000,-2.0103,-2.8972,4.2555,5.527
9.955000,-2.3154,-2.9537,4.1073,5.564
9.960000,-2.6153,-2.9911,3.9723,5.618
9.965000,-2.9194,-2.9994,3.8288,5.673
9.972000,-3.2352,-2.9959,3.6629,5.732
9.976000,-3.5570,-2.9597,3.4766,5.788
9.980000,-3.8923,-2.8937,3.2611,5.844
9.992000,-4.2052,-2.7928,3.0335,5.889
9.993000,-4.4742,-2.6592,2.8040,5.912
9.996000,-4.6617,-2.5367,2.5733,5.898
10.001000,-4.9108,-2.4097,2.3944,5.971
10.052000,-5.1834,-2.2811,2.2627,6.098
10.054000,-5.4151,-2.1675,2.1137,6.204
10.054000,-5.6082,-2.0687,1.9792,6.297
10.055000,-5.7777,-1.9899,1.8811,6.394
10.056000,-5.9230,-1.9276,1.8295,6.492
10.057000,-6.0469,-1.8871,1.8147,6.589
10.058000,-6.1353,-1.8899,1.8274,6.675
10.058000,-6.2002,-1.9048,1.8698,6.750
10.059000,-6.2539,-1.9276,1.9205,6.820
10.060000,-6.3009,-1.9478,1.9529,6.878
10.061000,-6.3486,-1.9853,1.9694,6.937
10.061000,-6.3901,-2.0328,1.9705,6.989
10.066000,-6.4398,-2.0880,1.9634,7.049
10.071000,-6.5050,-2.1798,1.9652,7.136
10.075000,-6.5828,-2.2763,1.9658,7.237
10.080000,-6.6783,-2.3847,1.9532,7.355
10.091000,-6.7746,-2.4907,1.9272,7.471
10.093000,-6.8908,-2.6131,1.8902,7.608
10.097000,-7.0389,-2.7710,1.8637,7.791
10.100000,-7.2112,-2.9347,1.8567,8.004
10.154000,-7.3886,-3.1041,1.8832,8.232
10.156000,-7.5495,-3.2454,1.8832,8.431
10.158000,-7.6653,-3.3514,1.8640,8.571
10.159000,-7.7337,-3.4271,1.8358,8.656
10.159000,-7.7667,-3.4746,1.8131,8.699
10.160000,-7.8074,-3.5109,1.8394,8.756
10.161000,-7.8393,-3.5384,1.8618,8.800
10.162000,-7.8479,-3.5812,1.8779,8.828
10.163000,-7.8286,-3.6273,1.8970,8.834
10.166000,-7.7455,-3.6886,1.9522,8.798
10.168000,-7.5916,-3.7677,2.0335,8.716
10.169000,-7.4101,-3.8985,2.1235,8.638
10.171000,-7.2252,-4.0763,2.1886,8.580
10.172000,-7.0392,-4.2846,2.2598,8.545
10.176000,-6.8977,-4.5068,2.2962,8.553
10.180000,-6.7983,-4.7070,2.3508,8.596
10.188000,-6.7695,-4.9020,2.4097,8.698
10.191000,-6.7801,-5.0843,2.4706,8.827
10.195000,-6.8155,-5.2630,2.5054,8.968
10.200000,-6.8372,-5.4262,2.5309,9.088
10.240000,-6.8165,-5.6143,2.5353,9.188
10.242000,-6.7438,-5.8269,2.5306,9.265
10.242000,-6.6237,-6.0355,2.5501,9.317
10.243000,-6.4754,-6.2567,2.5839,9.368
10.243000,-6.3302,-6.4480,2.6289,9.411
10.244000,-6.1665,-6.6022,2.6919,9.427
10.245000,-6.0249,-6.7432,2.7411,9.449
10.245000,-5.9174,-6.8785,2.7527,9.482
10.246000,-5.8291,-7.0026,2.7674,9.522
10.252000,-5.6910,-7.1043,2.7752,9.516
10.257000,-5.5101,-7.2004,2.7475,9.474
10.261000,-5.3154,-7.2958,2.6965,9.421
10.266000,-5.0757,-7.3766,2.6629,9.342
10.271000,-4.8291,-7.4855,2.6011,9.280
10.275000,-4.5761,-7.6329,2.5349,9.254
10.282000,-4.3309,-7.7638,2.4955,9.234
10.287000,-4.0790,-7.8422,2.4731,9.179
10.291000,-3.8230,-7.8687,2.4672,9.089
10.298000,-3.5769,-7.8573,2.4630,8.978
10.311000,-3.3559,-7.8143,2.4460,8.849
10.312000,-3.1453,-7.7417,2.4326,8.703
10.313000,-2.9525,-7.6519,2.3913,8.543
10.318000,-2.7727,-7.5476,2.3342,8.373
10.358000,-2.5749,-7.4288,2.2224,8.170
10.358000,-2.3909,-7.3256,2.0805,7.982
10.359000,-2.2397,-7.2641,1.8798,7.830
10.359000,-2.1214,-7.2776,1.6136,7.750
10.359000,-2.0215,-7.3735,1.3110,7.757
10.360000,-1.9369,-7.5292,0.9914,7.837
10.360000,-1.8848,-7.7238,0.6868,7.980
10.361000,-1.8882,-7.9395,0.4050,8.171
10.362000,-1.9894,-8.1517,0.1490,8.392
10.367000,-2.1539,-8.3451,-0.0706,8.619
10.372000,-2.3301,-8.4922,-0.2242,8.809
10.376000,-2.5230,-8.5719,-0.2792,8.940
10.381000,-2.6976,-8.5784,-0.2280,8.995
10.388000,-2.8225,-8.4971,-0.0842,8.954
10.391000,-2.8302,-8.3042,0.1640,8.775
10.397000,-2.6890,-8.0234,0.4831,8.476
10.409000,-2.4269,-7.6686,0.8658,8.090
10.410000,-2.0630,-7.2738,1.2828,7.669
10.412000,-1.6266,-6.8733,1.7116,7.268
10.416000,-1.1185,-6.4848,2.1014,6.908
10.467000,-0.5528,-6.1491,2.4274,6.634
10.468000,0.0536,-5.8538,2.6943,6.444
10.468000,0.6600,-5.6206,2.9276,6.372
10.469000,1.2036,-5.4380,3.1148,6.381
10.469000,1.6816,-5.2873,3.2362,6.423
10.469000,2.0875,-5.1488,3.2964,6.460
10.469000,2.4432,-5.0144,3.3001,6.481
10.470000,2.7517,-4.9026,3.2689,6.503
10.470000,3.0107,-4.8230,3.2337,6.541
10.471000,3.2465,-4.7637,3.1945,6.591
10.471000,3.4385,-4.7169,3.1725,6.644
10.477000,3.5824,-4.6597,3.1601,6.673
10.481000,3.6912,-4.5509,3.1452,6.650
10.486000,3.7792,-4.4099,3.1080,6.587
10.492000,3.8609,-4.2366,3.0579,6.497
10.498000,3.9683,-4.0593,3.0040,6.423
10.508000,4.1039,-3.8696,2.9678,6.374
10.509000,4.2545,-3.6790,2.9221,6.338
10.511000,4.4340,-3.4614,2.8786,6.319
10.517000,4.6564,-3.2170,2.8653,6.344
10.559000,4.8770,-2.9482,2.8143,6.356
10.560000,5.1077,-2.6605,2.7335,6.375
10.560000,5.3181,-2.3419,2.6558,6.389
10.561000,5.5316,-1.9974,2.5359,6.405
10.561000,5.7167,-1.6318,2.3668,6.399
10.562000,5.8930,-1.2715,2.2010,6.418
10.562000,6.0298,-0.8881,1.9920,6.412
10.563000,6.1446,-0.5532,1.7088,6.402
10.563000,6.2446,-0.2498,1.3833,6.401
10.572000,6.3418,0.0056,1.0190,6.423
10.573000,6.4373,0.1989,0.6355,6.472
10.579000,6.5177,0.3665,0.2999,6.535
10.582000,6.5581,0.5398,-0.1022,6.581
10.587000,6.5801,0.7409,-0.4809,6.639
10.592000,6.5771,0.9604,-0.8904,6.706
10.597000,6.5572,1.2106,-1.2632,6.787
10.603000,6.5334,1.4993,-1.5879,6.889
10.606000,6.5283,1.7859,-1.9031,7.031
10.622000,6.4531,2.3839,-2.4523,7.303
10.623000,6.5782,2.3559,-2.5386,7.434
10.623000,6.6501,2.6332,-2.8300,7.692
10.626000,6.7629,2.9073,-3.0786,7.979
10.631000,6.8853,3.1928,-3.2564,8.259
10.681000,7.0530,3.4658,-3.3898,8.558
10.684000,7.2581,3.7123,-3.4815,8.865
10.685000,7.4647,3.9633,-3.5680,9.174
10.686000,7.6589,4.2171,-3.5938,9.453
10.687000,7.8221,4.4352,-3.6002,9.686
10.688000,7.9346,4.6204,-3.6260,9.872
10.689000,7.9963,4.7488,-3.6711,9.998
10.689000,8.0246,4.8471,-3.7216,10.087
10.690000,7.9991,4.9466,-3.7578,10.128
10.691000,7.9491,5.0476,-3.7730,10.144
10.692000,7.8892,5.1261,-3.8057,10.149
10.693000,7.8411,5.1918,-3.8368,10.157
10.698000,7.8097,5.2257,-3.8567,10.157
10.702000,7.7825,5.2401,-3.8893,10.156
10.707000,7.7550,5.2017,-3.9536,10.140
10.712000,7.7104,5.1609,-4.0374,10.119
10.718000,7.6462,5.0962,-4.0903,10.058
10.723000,7.5746,5.0271,-4.1052,9.975
10.726000,7.5054,4.9725,-4.0941,9.890
10.731000,7.4405,4.9206,-4.0669,9.804
10.742000,7.4014,4.8832,-4.0405,9.744
10.746000,7.3857,4.8458,-4.0270,9.708
10.747000,7.3977,4.8038,-3.9837,9.678
10.800000,7.4418,4.7545,-3.9513,9.675
10.801000,7.4985,4.6644,-3.9139,9.659
10.802000,7.5578,4.5717,-3.8765,9.646
10.803000,7.6100,4.4451,-3.8513,9.618
10.803000,7.6573,4.3134,-3.8217,9.584
10.804000,7.6804,4.1405,-3.7875,9.512
10.804000,7.6821,3.9118,-3.7325,9.394
10.805000,7.6819,3.6083,-3.6516,9.239
10.805000,7.6445,3.2276,-3.5490,9.025
10.806000,7.5659,2.7889,-3.4194,8.759
10.807000,7.4222,2.3471,-3.2574,8.439
10.807000,7.2172,1.9066,-3.0638,8.069
10.811000,6.9467,1.4743,-2.8237,7.642
10.818000,6.6115,1.0381,-2.5568,7.164
10.822000,6.2246,0.6428,-2.2659,6.655
10.826000,5.8365,0.2932,-1.9701,6.167
10.831000,5.4678,0.0005,-1.6377,5.708
10.837000,5.1231,-0.2332,-1.3214,5.296
10.841000,4.8338,-0.3770,-1.0315,4.957
10.846000,4.5713,-0.4622,-0.7565,4.657
10.895000,4.3543,-0.5343,-0.5205,4.418
10.896000,4.2125,-0.6296,-0.3056,4.270
10.896000,4.1502,-0.7838,-0.0713,4.224
10.898000,4.1031,-0.9944,0.2279,4.228
10.900000,4.0445,-1.2423,0.5195,4.263
10.901000,3.9910,-1.4699,0.8703,4.341
10.902000,3.9026,-1.6584,1.2405,4.418
10.902000,3.7839,-1.7839,1.5888,4.475
10.902000,3.6688,-1.8561,1.8954,4.527
10.903000,3.5981,-1.9037,2.1477,4.602
10.903000,3.5881,-1.9410,2.3236,4.695
10.906000,3.6825,-1.9753,2.4179,4.828
10.912000,3.8516,-2.0112,2.4478,4.987
10.919000,4.0732,-2.0223,2.4256,5.154
10.922000,4.3230,-2.0251,2.3711,5.330
10.928000,4.5906,-2.0366,2.2921,5.520
10.933000,4.8236,-2.0325,2.1917,5.675
10.939000,4.9928,-2.0129,2.0994,5.778
10.943000,5.1077,-1.9897,2.0109,5.839
10.947000,5.1707,-1.9269,1.9223,5.843
10.997000,5.1647,-1.8629,1.8530,5.795
10.997000,5.1027,-1.8095,1.7963,5.704
10.998000,5.0155,-1.7692,1.7166,5.589
10.998000,4.8771,-1.7753,1.5999,5.431
10.999000,4.7305,-1.8181,1.4851,5.281
10.999000,4.5865,-1.8951,1.3629,5.146
10.999000,4.4734,-1.9823,1.2002,5.038
11.000000,4.3888,-2.0940,1.0212,4.969
11.000000,4.3329,-2.2445,0.8428,4.952
11.001000,4.2811,-2.4290,0.6768,4.969
11.007000,4.2178,-2.6234,0.5235,4.995
11.008000,4.1284,-2.8277,0.4305,5.022
11.014000,4.0157,-2.9965,0.3903,5.026
11.020000,3.8584,-3.1083,0.3976,4.971
11.023000,3.6541,-3.1369,0.4426,4.836
11.027000,3.4042,-3.0534,0.5201,4.602
11.033000,3.1513,-2.8487,0.5866,4.288
11.038000,2.9098,-2.5515,0.6133,3.918
11.043000,2.7392,-2.1955,0.6219,3.565
11.047000,2.6408,-1.8072,0.6078,3.257
11.060000,2.6244,-1.4295,0.5907,3.046
11.067000,2.6673,-1.0794,0.5684,2.933
11.067000,2.7523,-0.7713,0.5366,2.908
11.120000,2.8570,-0.5076,0.4886,2.943
11.123000,2.9854,-0.2814,0.4247,3.029
11.123000,3.1212,-0.0995,0.3720,3.145
11.124000,3.2493,0.0403,0.3260,3.266
11.124000,3.3692,0.1307,0.2703,3.383
11.124000,3.4640,0.1836,0.2031,3.475
11.125000,3.5708,0.1869,0.1392,3.578
11.125000,3.6570,0.1455,0.1031,3.661
11.126000,3.6955,0.0426,0.1143,3.698
11.126000,3.7104,-0.1077,0.1610,3.715
11.127000,3.6852,-0.2718,0.2362,3.703
11.127000,3.6244,-0.4355,0.3329,3.666
11.128000,3.5417,-0.5650,0.4509,3.615
11.135000,3.4343,-0.6799,0.5809,3.549
11.141000,3.3049,-0.7776,0.7060,3.468
11.143000,3.1660,-0.8535,0.8311,3.383
11.149000,3.0551,-0.8986,0.9683,3.329
11.155000,2.9811,-0.9459,1.1602,3.336
11.158000,2.9383,-0.9864,1.3729,3.390
11.162000,2.9101,-1.0539,1.6134,3.490
11.198000,2.9036,-1.1606,1.8739,3.645
11.199000,2.9518,-1.3335,2.1757,3.902
11.200000,2.9751,-1.5168,2.5459,4.199
11.200000,2.9512,-1.7066,2.9864,4.532
11.200000,2.8707,-1.9011,3.4620,4.883
11.201000,2.7338,-2.1242,3.9238,5.233
11.201000,2.5332,-2.3767,4.3446,5.562
11.210000,2.2424,-2.6310,4.7468,5.872
11.211000,1.8540,-2.8804,5.1105,6.152
11.213000,1.3641,-3.1173,5.3893,6.374
11.222000,0.8119,-3.3484,5.5757,6.554
11.223000,0.2450,-3.5476,5.6650,6.689
11.227000,-0.3272,-3.7106,5.6712,6.785
11.233000,-0.8451,-3.8352,5.6236,6.859
11.238000,-1.3277,-3.9352,5.5154,6.904
11.244000,-1.7818,-4.0053,5.3228,6.896
11.249000,-2.2007,-4.0482,5.0609,6.844
11.258000,-2.5949,-4.0573,4.7539,6.767
11.259000,-2.9602,-4.0664,4.4360,6.706
11.263000,-3.3013,-4.1060,4.1243,6.691
11.319000,-3.6249,-4.1252,3.8117,6.685
11.320000,-3.9317,-4.1148,3.5367,6.701
11.320000,-4.2014,-4.0539,3.2998,6.706
11.321000,-4.4660,-3.9409,3.0963,6.713
11.321000,-4.7041,-3.8377,2.9219,6.737
11.321000,-4.9300,-3.7679,2.7911,6.804
11.322000,-5.1491,-3.7414,2.6655,6.900
11.322000,-5.3365,-3.7492,2.5529,7.004
11.322000,-5.5239,-3.7440,2.4699,7.116
11.323000,-5.7236,-3.7281,2.4144,7.245
11.323000,-5.9093,-3.7063,2.3914,7.374
11.323000,-6.0672,-3.6933,2.3911,7.495
11.329000,-6.1920,-3.6997,2.3758,7.594
11.334000,-6.2601,-3.7354,2.3527,7.660
11.339000,-6.3078,-3.7789,2.3095,7.707
11.344000,-6.3256,-3.8111,2.2251,7.713
11.348000,-6.3427,-3.8278,2.1091,7.703
11.356000,-6.3709,-3.8138,1.9763,7.684
11.360000,-6.3938,-3.7841,1.8269,7.651
11.363000,-6.4235,-3.7289,1.6729,7.613
11.425000,-6.4385,-3.6413,1.4834,7.544
11.426000,-6.4370,-3.5289,1.2822,7.452
11.426000,-6.4116,-3.3985,1.0680,7.335
11.427000,-6.3606,-3.2817,0.8263,7.205
11.427000,-6.3055,-3.2024,0.5721,7.095
11.428000,-6.2490,-3.1465,0.3199,7.004
11.428000,-6.1986,-3.1022,0.0746,6.932
11.428000,-6.1541,-3.0690,-0.1681,6.879
11.429000,-6.1230,-3.0568,-0.3840,6.854
11.429000,-6.1029,-3.0702,-0.5707,6.855
11.429000,-6.0913,-3.0898,-0.7209,6.868
11.430000,-6.0837,-3.1038,-0.8490,6.882
11.430000,-6.0774,-3.1021,-0.9548,6.890
11.434000,-6.0582,-3.1065,-1.0406,6.887
11.439000,-6.0287,-3.1169,-1.1088,6.877
11.444000,-5.9864,-3.1214,-1.1307,6.845
11.448000,-5.9241,-3.1462,-1.1471,6.805
11.454000,-5.8420,-3.2033,-1.1220,6.756
11.459000,-5.7590,-3.2998,-1.0725,6.724
11.463000,-5.6872,-3.4237,-0.9962,6.713
11.471000,-5.6167,-3.5462,-0.8935,6.702
11.475000,-5.5356,-3.6768,-0.7646,6.689
11.479000,-5.4366,-3.7989,-0.6314,6.662
11.529000,-5.3387,-3.9315,-0.4939,6.648
11.530000,-5.2298,-4.0625,-0.3285,6.630
11.530000,-5.0931,-4.2111,-0.1499,6.610
11.531000,-4.9592,-4.3840,0.0222,6.619
11.531000,-4.8066,-4.5817,0.1963,6.643
11.532000,-4.6491,-4.7798,0.3647,6.678
11.532000,-4.4698,-4.9664,0.5506,6.704
11.532000,-4.2494,-5.1585,0.7173,6.722
11.533000,-4.0306,-5.3939,0.8573,6.788
11.534000,-3.8183,-5.6373,0.9774,6.879
11.534000,-3.6098,-5.8813,1.0749,6.984
11.540000,-3.4023,-6.1116,1.1542,7.089
11.544000,-3.1931,-6.3133,1.1981,7.176
11.549000,-2.9752,-6.4900,1.2113,7.241
11.555000,-2.7529,-6.5816,1.1576,7.227
11.558000,-2.5359,-6.6051,1.0467,7.152
11.563000,-2.3146,-6.5515,0.8740,7.003
11.569000,-2.0699,-6.4524,0.6232,6.805
11.573000,-1.7801,-6.3122,0.3308,6.567
11.579000,-1.4535,-6.1638,0.0169,6.333
11.583000,-1.0948,-6.0667,-0.2917,6.172
11.592000,-0.6755,-6.0331,-0.5896,6.099
11.594000,-0.2319,-6.0562,-0.8646,6.122
11.598000,0.1623,-6.0759,-1.0997,6.177
11.650000,0.5103,-6.0246,-1.3157,6.188
11.651000,0.8245,-5.9092,-1.5533,6.165
11.651000,1.1187,-5.7419,-1.8544,6.137
11.651000,1.4045,-5.5564,-2.1911,6.136
11.652000,1.6676,-5.3880,-2.5434,6.187
11.652000,1.8967,-5.2521,-2.8211,6.256
11.652000,2.0901,-5.1554,-3.0124,6.326
11.653000,2.2881,-5.0521,-3.1646,6.385
11.653000,2.4619,-4.9569,-3.2682,6.428
11.653000,2.6073,-4.8739,-3.2849,6.430
11.654000,2.7402,-4.8157,-3.1956,6.396
11.659000,2.9525,-4.7384,-3.0414,6.358
11.664000,3.2802,-4.5581,-2.6784,6.222
11.669000,3.3070,-4.4502,-2.3019,6.003
11.678000,3.2657,-4.3712,-1.8889,5.774
11.679000,3.2276,-4.2553,-1.4788,5.542
11.685000,3.1839,-4.0396,-1.1027,5.260
11.689000,3.0608,-3.6882,-0.7195,4.847
11.695000,2.9012,-3.1700,-0.2351,4.304
11.700000,2.7655,-2.4923,0.2834,3.734
11.707000,2.6969,-1.6976,0.7540,3.275
11.711000,2.7167,-0.8219,1.1817,3.074
11.713000,2.8166,0.0622,1.5183,3.200
11.772000,2.9903,0.9372,1.7470,3.588
11.773000,3.2421,1.7455,1.9254,4.155
11.773000,3.5667,2.4164,1.9592,4.733
11.774000,4.0546,2.8689,1.7871,5.279
11.774000,4.3740,3.2129,1.8832,5.745
11.774000,4.4869,3.4245,2.0142,5.993
11.775000,4.6568,3.4924,2.0696,6.178
11.775000,4.7853,3.4021,2.1341,6.247
11.775000,4.8112,3.1927,2.2364,6.192
11.776000,4.7619,2.9104,2.4069,6.078
11.776000,4.6527,2.6346,2.6115,5.951
11.776000,4.5012,2.4255,2.8137,5.836
11.780000,4.3747,2.2783,2.9934,5.770
11.785000,4.2760,2.2696,3.2558,5.834
11.790000,4.1814,2.3637,3.4971,5.941
11.794000,4.0910,2.5197,3.6857,6.056
11.800000,4.0479,2.7138,3.7909,6.174
11.805000,4.0971,2.9577,3.9172,6.394
11.809000,4.2429,3.2511,3.9831,6.666
11.815000,4.4893,3.5509,3.8980,6.925
11.873000,4.7515,3.8469,3.6674,7.129
11.874000,4.9233,4.0316,3.3092,7.172
11.875000,4.9762,4.0691,2.9442,7.070
11.875000,5.0537,4.2087,2.4948,7.034
11.876000,5.0928,4.4067,2.5161,7.189
11.876000,5.1770,4.3806,2.3377,7.173
11.876000,5.1124,4.1286,1.9908,6.866
11.877000,4.6401,3.7020,1.8621,6.221
11.877000,3.8558,3.2307,2.1269,5.462
11.877000,3.0449,2.9142,2.5287,4.915
11.878000,2.2572,2.6932,2.7858,4.484
11.878000,1.4370,2.3868,2.8797,4.007
11.879000,0.6271,1.9678,2.9359,3.590
11.886000,-0.0351,1.5493,3.0358,3.408
11.890000,-0.4798,1.2584,3.2120,3.483
11.894000,-0.6929,1.0924,3.4609,3.695
11.901000,-0.7159,1.0317,3.6550,3.865
11.904000,-0.5951,1.0494,3.7133,3.904
11.909000,-0.3558,1.1618,3.6984,3.893
11.914000,-0.1097,1.3391,3.7088,3.945
11.921000,0.0511,1.5304,3.7015,4.006
11.925000,0.1236,1.6969,3.6357,4.014
11.929000,0.0978,1.8170,3.4546,3.905
11.934000,-0.0024,1.9240,3.2140,3.746
11.978000,-0.1865,2.0014,2.9357,3.558
11.979000,-0.3989,2.0782,2.6416,3.385
11.979000,-0.5961,2.1545,2.3440,3.239
11.980000,-0.7660,2.2523,2.0604,3.147
11.980000,-0.9060,2.3119,1.8339,3.087
11.980000,-1.0013,2.3790,1.6741,3.076
11.981000,-1.0424,2.4559,1.5569,3.089
11.981000,-1.0654,2.5377,1.4388,3.106
11.981000,-1.0993,2.6005,1.2678,3.095
11.985000,-1.1350,2.6679,1.0827,3.095
11.989000,-1.1634,2.7542,0.9173,3.127
11.995000,-1.1542,2.8543,0.8031,3.182
12.000000,-1.0650,2.9965,0.7350,3.264
12.005000,-0.9204,3.1710,0.6682,3.369
12.009000,-0.7720,3.3387,0.5357,3.468
12.014000,-0.6471,3.4562,0.3141,3.530
12.023000,-0.6204,3.4709,0.0544,3.526
12.024000,-0.6529,3.3833,-0.1739,3.450
12.030000,-0.6958,3.2443,-0.3152,3.333
12.079000,-0.7392,3.0806,-0.4105,3.195
12.080000,-0.7992,2.9140,-0.5103,3.064
12.081000,-0.9232,2.7256,-0.6212,2.944
12.081000,-1.1368,2.4778,-0.7264,2.821
12.082000,-1.3955,2.1979,-0.8039,2.725
12.082000,-1.7411,1.9274,-0.8919,2.746
12.084000,-2.1029,1.7220,-0.8947,2.861
12.085000,-2.4081,1.5800,-0.7435,2.975
12.086000,-2.5939,1.5061,-0.5470,3.049
12.090000,-2.6294,1.4667,-0.3461,3.031
12.091000,-2.2382,1.4494,-0.6549,2.746
12.092000,-1.8084,1.4963,-0.5165,2.403
12.095000,-1.6806,1.5011,-0.0935,2.255
12.100000,-1.7131,1.4513,0.3949,2.280
12.106000,-1.7446,1.3759,0.8088,2.365
12.110000,-1.6648,1.3348,1.0952,2.398
12.115000,-1.4717,1.3276,1.2491,2.343
12.122000,-1.2572,1.3514,1.2708,2.241
12.126000,-1.1393,1.3771,1.2038,2.155
12.129000,-1.1278,1.3998,1.0893,2.102
12.195000,-1.1697,1.4197,0.9347,2.063
12.196000,-1.2553,1.4106,0.7139,2.019
12.197000,-1.3482,1.3420,0.4251,1.949
12.197000,-1.2854,1.3386,0.2291,1.870
12.197000,-0.9398,1.5321,0.1898,1.807
12.198000,-0.7973,1.5372,0.0082,1.732
12.198000,-0.8821,1.3853,-0.1227,1.647
12.198000,-1.1384,1.1249,-0.2246,1.616
12.198000,-1.4642,0.8333,-0.3120,1.713
12.199000,-1.7266,0.6236,-0.4213,1.883
12.199000,-1.8387,0.5034,-0.4257,1.953
12.200000,-1.7686,0.4133,-0.3092,1.842
12.200000,-1.5281,0.3532,-0.0941,1.571
12.201000,-1.1413,0.3898,0.1376,1.214
12.207000,-0.7192,0.5319,0.3284,0.953
12.210000,-0.4236,0.7067,0.4834,0.955
12.215000,-0.2312,0.8587,0.6481,1.100
12.220000,-0.1256,0.9611,0.8219,1.271
12.225000,-0.0232,1.0523,1.0077,1.457
12.230000,0.0894,1.1841,1.1933,1.683
12.243000,0.2112,1.3465,1.3673,1.931
12.245000,0.3314,1.5005,1.5797,2.204
12.245000,0.4281,1.5860,1.7941,2.433
12.251000,0.5322,1.6220,1.9817,2.616
12.303000,0.6001,1.6417,2.1563,2.776
12.304000,0.6863,1.6449,2.2797,2.894
12.304000,0.7904,1.6553,2.3091,2.949
12.304000,0.9066,1.6966,2.3144,3.009
12.305000,1.0010,1.7374,2.3439,3.085
12.305000,1.0683,1.7583,2.3446,3.119
12.305000,1.0202,1.7642,2.3528,3.113
12.306000,0.9265,1.7554,2.3444,3.072
12.306000,0.7902,1.7035,2.3197,2.984
12.306000,0.6576,1.6257,2.3196,2.908
12.306000,0.5342,1.4938,2.2577,2.759
12.310000,0.4542,1.3394,2.1392,2.564
12.315000,0.4633,1.1963,2.0031,2.379
12.320000,0.5114,1.0766,1.9003,2.243
12.325000,0.5771,0.9542,1.8238,2.138
12.332000,0.6419,0.8197,1.7782,2.061
12.335000,0.7251,0.6925,1.7445,2.012
12.343000,0.8365,0.5607,1.7133,1.987
12.345000,0.9977,0.4411,1.6682,1.993
12.359000,1.1892,0.3122,1.6337,2.045
12.364000,1.4043,0.1596,1.5949,2.131
12.365000,1.6113,0.0215,1.5738,2.252
12.365000,1.7603,-0.1356,1.6088,2.389
12.423000,1.8584,-0.2735,1.7142,2.543
12.424000,1.9012,-0.3826,1.8947,2.711
12.424000,1.8945,-0.4866,2.0942,2.866
12.425000,1.8860,-0.5879,2.2959,3.029
12.425000,1.9120,-0.6936,2.5115,3.232
12.425000,1.9459,-0.7799,2.7336,3.445
12.426000,2.0093,-0.8589,2.9648,3.683
12.426000,2.1070,-0.9115,3.1991,3.938
12.426000,2.2244,-0.9403,3.4342,4.198
12.427000,2.3111,-0.9503,3.6746,4.444
12.427000,2.3479,-0.9776,3.9269,4.679
12.427000,2.3156,-1.0173,4.1934,4.897
12.431000,2.2412,-1.0764,4.5015,5.142
12.438000,2.1367,-1.1190,4.8171,5.387
12.441000,2.0381,-1.1187,5.1586,5.658
12.447000,1.9455,-1.0898,5.4914,5.927
12.456000,1.8895,-1.0374,5.7816,6.170
12.457000,1.8798,-0.9901,6.0113,6.376
12.462000,1.9014,-0.9719,6.1712,6.530
12.465000,1.9946,-0.9735,6.2729,6.654
12.516000,2.0919,-1.0094,6.3189,6.732
12.517000,2.2071,-1.0535,6.2856,6.745
12.518000,2.2874,-1.1131,6.1753,6.679
12.519000,2.3109,-1.1645,6.0195,6.552
12.521000,2.2559,-1.2031,5.8429,6.378
12.522000,2.1273,-1.2336,5.6604,6.171
12.523000,1.9419,-1.2752,5.4699,5.943
12.523000,1.7052,-1.3155,5.2886,5.710
12.524000,1.4554,-1.3713,5.1432,5.518
12.525000,1.2146,-1.4040,4.9934,5.327
12.526000,0.9851,-1.4279,4.8660,5.166
12.527000,0.7359,-1.4575,4.7520,5.025
12.532000,0.4557,-1.5090,4.6755,4.934
12.537000,0.1471,-1.5702,4.6320,4.893
12.540000,-0.1680,-1.6289,4.6217,4.903
12.547000,-0.4699,-1.6799,4.6160,4.935
12.553000,-0.7177,-1.7016,4.6244,4.979
12.559000,-0.9088,-1.6984,4.6276,5.012
12.560000,-1.0312,-1.6703,4.6280,5.027
12.565000,-1.1067,-1.6223,4.6326,5.032
12.571000,-1.1427,-1.5423,4.6249,5.007
12.578000,-1.1514,-1.4595,4.6067,4.968
12.582000,-1.1422,-1.3521,4.5734,4.904
12.589000,-1.1298,-1.2467,4.5128,4.816
12.592000,-1.1120,-1.1339,4.4348,4.711
12.595000,-1.0915,-1.0090,4.3371,4.585
12.660000,-1.0398,-0.8747,4.2149,4.429
12.661000,-0.9857,-0.7550,4.0806,4.265
12.662000,-0.9199,-0.6763,3.9297,4.092
12.662000,-0.8663,-0.6195,3.7623,3.910
12.663000,-0.8227,-0.5704,3.5879,3.725
12.663000,-0.7823,-0.5316,3.4212,3.550
12.664000,-0.7638,-0.4837,3.2551,3.378
12.664000,-0.7746,-0.4365,3.0943,3.220
12.664000,-0.8242,-0.3947,2.9512,3.089
12.665000,-0.9004,-0.3606,2.8138,2.976
12.667000,-0.9960,-0.3318,2.6846,2.883
12.668000,-1.0890,-0.3127,2.5612,2.801
12.668000,-1.1771,-0.2888,2.4460,2.730
12.669000,-1.2529,-0.2602,2.3513,2.677
12.671000,-1.3189,-0.2292,2.2554,2.623
12.676000,-1.3822,-0.1838,2.1704,2.580
12.681000,-1.4473,-0.1286,2.1031,2.556
12.690000,-1.5046,-0.0994,2.0297,2.529
12.696000,-1.5303,-0.0580,1.9383,2.470
12.696000,-1.5458,-0.0186,1.8408,2.404
12.735000,-1.5441,0.0354,1.7348,2.323
12.736000,-1.5322,0.1018,1.6133,2.227
12.736000,-1.5080,0.1779,1.4812,2.121
12.736000,-1.4857,0.2375,1.3748,2.038
12.737000,-1.4344,0.2901,1.2843,1.947
12.737000,-1.3949,0.3092,1.2221,1.880
12.737000,-1.3525,0.3310,1.1637,1.815
12.738000,-1.2954,0.3435,1.1258,1.750
12.741000,-1.2596,0.3561,1.0965,1.708
12.746000,-1.2545,0.3713,1.0779,1.695
12.752000,-1.2517,0.3913,1.0799,1.699
12.757000,-1.2555,0.4187,1.0925,1.716
12.762000,-1.2614,0.4438,1.1305,1.751
12.767000,-1.2717,0.4475,1.2151,1.815
12.773000,-1.2647,0.4323,1.3129,1.874
12.778000,-1.2575,0.4052,1.4285,1.946
12.781000,-1.2402,0.3617,1.5708,2.034
12.793000,-1.2131,0.3040,1.7373,2.141
12.793000,-1.1810,0.2297,1.8992,2.248
12.799000,-1.1677,0.1530,2.0612,2.374
12.851000,-1.1758,0.0813,2.2377,2.529
12.852000,-1.2072,0.0195,2.4184,2.703
12.853000,-1.2429,-0.0394,2.5816,2.866
12.853000,-1.2708,-0.0978,2.7130,2.997
12.853000,-1.2668,-0.1555,2.8246,3.100
12.854000,-1.2168,-0.2246,2.9190,3.170
12.854000,-1.1469,-0.3144,3.0053,3.232
12.854000,-1.0622,-0.4299,3.0931,3.299
12.855000,-0.9698,-0.5375,3.1751,3.363
12.855000,-0.8890,-0.6373,3.2390,3.419
12.855000,-0.8175,-0.7199,3.2851,3.461
12.857000,-0.7240,-0.7946,3.3224,3.492
12.861000,-0.6399,-0.8735,3.3487,3.519
12.868000,-0.5508,-0.9401,3.3832,3.554
12.872000,-0.4616,-1.0038,3.4112,3.586
12.878000,-0.3750,-1.0483,3.4210,3.598
12.882000,-0.2838,-1.0856,3.4099,3.590
12.888000,-0.1906,-1.1230,3.3947,3.581
12.894000,-0.0907,-1.1870,3.3400,3.546
12.897000,0.0253,-1.2752,3.2745,3.514
12.901000,0.1668,-1.3950,3.2200,3.513
12.907000,0.2860,-1.5488,3.1668,3.537
12.911000,0.3804,-1.7125,3.1149,3.575
12.917000,0.4550,-1.8838,3.0521,3.615
12.922000,0.5145,-2.0507,2.9618,3.639
12.928000,0.5447,-2.2442,2.8420,3.662
12.931000,0.5577,-2.3949,2.7071,3.657
12.980000,0.5608,-2.5648,2.5626,3.669
12.981000,0.5781,-2.7348,2.4281,3.703
12.981000,0.6122,-2.9095,2.3229,3.773
12.981000,0.6676,-3.0866,2.2520,3.879
12.982000,0.7374,-3.2540,2.2196,4.007
12.982000,0.8046,-3.4045,2.1993,4.132
12.982000,0.8644,-3.5192,2.2050,4.242
12.983000,0.9022,-3.5983,2.2268,4.327
12.983000,0.9322,-3.6540,2.2475,4.390
12.984000,0.9497,-3.7006,2.2593,4.439
12.986000,0.9712,-3.7789,2.2309,4.494
12.994000,0.9606,-3.8699,2.1642,4.537
12.998000,0.9514,-4.0121,2.0307,4.596
13.006000,0.9290,-4.1935,1.8445,4.674
13.007000,0.8984,-4.3878,1.6227,4.764
13.011000,0.8691,-4.5687,1.4061,4.859
13.017000,0.7956,-4.7556,1.2377,4.978
13.056000,0.6611,-5.0009,1.0354,5.150
13.057000,0.4994,-5.2783,0.7777,5.359
13.057000,0.3231,-5.5583,0.5153,5.592
13.057000,0.1250,-5.8194,0.2507,5.826
13.058000,-0.1302,-6.0850,0.0033,6.086
13.058000,-0.4827,-6.3283,-0.2148,6.350
13.058000,-0.9128,-6.5320,-0.3991,6.608
13.059000,-1.4266,-6.6593,-0.6017,6.837
13.062000,-2.0235,-6.7117,-0.8031,7.056
13.067000,-2.6809,-6.6789,-0.9740,7.262
13.072000,-3.3502,-6.5646,-1.0921,7.451
13.078000,-3.9875,-6.3488,-1.1472,7.584
13.082000,-4.5685,-6.0381,-1.1599,7.660
13.087000,-5.0497,-5.6466,-1.1224,7.658
13.093000,-5.3976,-5.1790,-1.0011,7.547
13.098000,-5.5839,-4.6619,-0.8247,7.321
13.102000,-5.5921,-4.1338,-0.6198,6.982
13.108000,-5.4375,-3.6316,-0.3840,6.550
13.112000,-5.1447,-3.1586,-0.1081,6.038
13.119000,-4.7410,-2.7636,0.1760,5.491
13.123000,-4.2583,-2.4449,0.4580,4.932
13.128000,-3.7594,-2.1794,0.7322,4.407
13.133000,-3.2789,-1.9826,0.9740,3.954
13.143000,-2.8482,-1.8167,1.1685,3.575
13.145000,-2.4843,-1.6940,1.2938,3.273
13.148000,-2.1754,-1.5908,1.3523,3.015
13.208000,-1.9045,-1.5189,1.3512,2.786
13.209000,-1.6891,-1.4624,1.3053,2.588
13.209000,-1.4667,-1.4352,1.2076,2.381
13.210000,-1.2613,-1.4425,1.0823,2.201
13.210000,-1.0493,-1.4459,0.9442,2.021
13.210000,-0.8736,-1.4623,0.7764,1.872
13.211000,-0.7084,-1.4611,0.5961,1.730
13.211000,-0.5897,-1.4447,0.3914,1.609
13.211000,-0.5245,-1.4177,0.1698,1.521
13.211000,-0.4650,-1.3517,-0.0827,1.432
13.212000,-0.4040,-1.2848,-0.3540,1.393
13.212000,-0.3875,-1.2150,-0.6264,1.421
13.212000,-0.3819,-1.1638,-0.8926,1.516
13.219000,-0.4181,-1.1022,-1.1523,1.648
13.222000,-0.5009,-1.0541,-1.4218,1.839
13.227000,-0.6155,-0.9737,-1.6792,2.036
13.232000,-0.7550,-0.8730,-1.9144,2.235
13.243000,-0.9068,-0.7373,-2.1224,2.423
13.244000,-1.0423,-0.5927,-2.2835,2.579
13.247000,-1.1850,-0.4438,-2.4145,2.726
13.307000,-1.3037,-0.3047,-2.4912,2.828
13.308000,-1.3819,-0.1898,-2.5112,2.873
13.309000,-1.4454,-0.0773,-2.4698,2.863
13.309000,-1.4943,0.0233,-2.3576,2.791
13.309000,-1.5500,0.1049,-2.1682,2.667
13.310000,-1.5811,0.1893,-1.8948,2.475
13.310000,-1.5948,0.2691,-1.5671,2.252
13.310000,-1.5934,0.3302,-1.2265,2.038
13.311000,-1.5769,0.3844,-0.8831,1.848
13.311000,-1.5428,0.4007,-0.5374,1.682
13.311000,-1.4931,0.4273,-0.1854,1.564
13.312000,-1.4379,0.4708,0.1456,1.520
13.312000,-1.3792,0.5315,0.4312,1.540
13.318000,-1.3220,0.6188,0.6613,1.602
13.322000,-1.2900,0.7230,0.8287,1.695
13.327000,-1.2425,0.8634,0.9332,1.778
13.332000,-1.1849,1.0229,0.9941,1.854
13.337000,-1.0954,1.2060,1.0067,1.915
13.343000,-0.9984,1.3912,0.9619,1.964
13.347000,-0.9013,1.5663,0.8766,2.009
13.356000,-0.8207,1.7195,0.7558,2.050
13.359000,-0.7452,1.8454,0.6025,2.079
13.363000,-0.6532,1.9707,0.4552,2.125
13.367000,-0.5640,2.0832,0.3380,2.185
13.404000,-0.4704,2.1734,0.2222,2.235
13.406000,-0.4179,2.2461,0.0933,2.287
13.406000,-0.3972,2.3035,-0.0480,2.338
13.406000,-0.4008,2.3651,-0.1825,2.406
13.407000,-0.4117,2.4189,-0.3099,2.473
13.407000,-0.4106,2.4794,-0.4159,2.547
13.408000,-0.3568,2.5420,-0.5124,2.618
13.409000,-0.2747,2.5873,-0.6084,2.672
13.414000,-0.1907,2.6105,-0.6896,2.707
13.418000,-0.1237,2.6356,-0.7584,2.745
13.424000,-0.0617,2.6580,-0.8147,2.781
13.429000,-0.0047,2.6943,-0.8538,2.826
13.433000,0.0565,2.7348,-0.8801,2.874
13.438000,0.1340,2.7582,-0.8581,2.892
13.443000,0.2231,2.7906,-0.8287,2.920
13.448000,0.3118,2.8010,-0.8039,2.931
13.463000,0.4026,2.7991,-0.8008,2.939
13.464000,0.5165,2.7870,-0.7998,2.945
13.464000,0.6536,2.7768,-0.8082,2.965
13.516000,0.8185,2.7612,-0.8021,2.990
13.517000,1.0085,2.7424,-0.8149,3.033
13.517000,1.1876,2.7205,-0.8420,3.086
13.518000,1.3602,2.6785,-0.8806,3.130
13.518000,1.5119,2.6213,-0.9403,3.169
13.518000,1.6284,2.5560,-1.0375,3.203
13.519000,1.7073,2.4803,-1.1361,3.218
13.519000,1.7797,2.4135,-1.2235,3.239
13.520000,1.8433,2.3604,-1.2900,3.261
13.520000,1.9026,2.2946,-1.3305,3.264
13.520000,1.9314,2.2234,-1.3306,3.232
13.523000,1.9537,2.1324,-1.3094,3.175
13.527000,1.9626,2.0218,-1.2742,3.092
13.534000,1.9917,1.8990,-1.2202,3.010
13.538000,2.0435,1.7664,-1.1499,2.936
13.544000,2.1156,1.6215,-1.0562,2.867
13.549000,2.2079,1.4979,-0.9201,2.822
13.557000,2.2967,1.3478,-0.7661,2.771
13.558000,2.3629,1.2285,-0.5872,2.727
13.563000,2.4090,1.1115,-0.3864,2.681
13.567000,2.4162,1.0301,-0.2000,2.634
13.615000,2.4587,0.9700,-0.0067,2.643
13.616000,2.4912,0.9169,0.1955,2.662
13.616000,2.5257,0.8876,0.3968,2.706
13.617000,2.5598,0.8818,0.5776,2.768
13.617000,2.6125,0.8829,0.7471,2.857
13.618000,2.6718,0.8764,0.8957,2.951
13.618000,2.7328,0.8574,1.0183,3.040
13.618000,2.8121,0.8235,1.1244,3.139
13.618000,2.8785,0.7723,1.2162,3.219
13.626000,2.9678,0.6941,1.2839,3.307
13.627000,3.0584,0.5937,1.3153,3.382
13.628000,3.1383,0.4352,1.3032,3.426
13.633000,3.1955,0.2546,1.2568,3.443
13.639000,3.2257,0.0687,1.1716,3.433
13.643000,3.2291,-0.1224,1.0477,3.397
13.648000,3.1987,-0.2802,0.8924,3.333
13.654000,3.1540,-0.4191,0.7084,3.260
13.659000,3.1073,-0.5341,0.4767,3.189
13.663000,3.0945,-0.6132,0.2128,3.162
13.671000,3.1275,-0.6516,-0.0732,3.195
13.674000,3.2085,-0.6852,-0.3661,3.301
13.678000,3.3299,-0.7260,-0.6534,3.470
13.684000,3.4819,-0.7860,-0.8891,3.679
13.741000,3.6164,-0.8437,-1.0678,3.864
13.742000,3.7718,-0.9062,-1.2111,4.064
13.743000,3.9621,-0.9759,-1.3379,4.294
13.743000,4.2087,-1.0481,-1.4383,4.569
13.743000,4.4726,-1.1493,-1.5099,4.858
13.743000,4.7440,-1.2533,-1.5641,5.150
13.744000,4.9959,-1.3555,-1.6106,5.421
13.744000,5.2234,-1.4848,-1.5677,5.652
13.745000,5.4073,-1.6077,-1.4479,5.824
13.745000,5.5284,-1.7100,-1.3090,5.933
13.745000,5.6014,-1.7630,-1.1323,5.981
13.746000,5.6121,-1.7597,-0.9470,5.957
13.749000,5.5412,-1.7074,-0.7486,5.846
13.754000,5.3675,-1.6062,-0.5064,5.625
13.759000,5.1198,-1.4466,-0.2471,5.326
13.763000,4.8039,-1.2428,0.0120,4.962
13.769000,4.4725,-1.0164,0.2443,4.593
13.773000,4.1450,-0.7864,0.4569,4.244
13.779000,3.8478,-0.5625,0.6712,3.946
13.783000,3.5758,-0.3399,0.8679,3.695
13.789000,3.3368,-0.1231,1.0540,3.501
13.793000,3.1210,0.0828,1.2293,3.355
13.798000,2.9546,0.2587,1.3794,3.271
13.855000,2.8397,0.3948,1.5090,3.240
13.856000,2.7901,0.5006,1.5989,3.255
13.856000,2.7940,0.5593,1.6469,3.291
13.856000,2.8338,0.5731,1.6723,3.340
13.857000,2.8854,0.5655,1.6514,3.372
13.857000,2.9270,0.5532,1.5916,3.377
13.858000,2.9674,0.4999,1.4883,3.357
13.858000,2.9881,0.3820,1.3398,3.297
13.858000,2.9982,0.2065,1.1658,3.223
13.859000,2.9810,-0.0147,0.9670,3.134
13.859000,2.9339,-0.2409,0.7798,3.045
13.859000,2.8459,-0.4454,0.6309,2.949
13.864000,2.6882,-0.6116,0.5182,2.805
13.869000,2.4589,-0.7464,0.4467,2.608
13.874000,2.1633,-0.8259,0.4044,2.351
13.878000,1.8517,-0.8930,0.3943,2.093
13.885000,1.5590,-0.9303,0.4235,1.864
13.888000,1.2992,-0.9570,0.4992,1.689
13.894000,1.0750,-1.0017,0.5783,1.579
13.898000,0.9056,-1.0645,0.6581,1.545
13.905000,0.7498,-1.1624,0.7701,1.583
13.909000,0.5849,-1.2706,0.9232,1.676
13.913000,0.3843,-1.3800,1.1458,1.834
13.957000,0.1677,-1.4759,1.4250,2.058
13.960000,-0.0409,-1.5488,1.7385,2.329
13.961000,-0.2296,-1.6086,2.0642,2.627
13.961000,-0.3806,-1.6783,2.3888,2.944
13.962000,-0.5112,-1.7511,2.6809,3.243
13.963000,-0.6335,-1.8298,2.9209,3.504
13.964000,-0.7307,-1.9261,3.1108,3.731
13.964000,-0.8487,-2.0191,3.2576,3.925
13.965000,-0.9912,-2.0957,3.3628,4.084
13.965000,-1.1515,-2.1780,3.4073,4.205
13.970000,-1.3126,-2.2489,3.3837,4.270
13.974000,-1.4913,-2.3277,3.3065,4.310
13.979000,-1.6807,-2.4026,3.1784,4.324
13.983000,-1.9228,-2.4868,3.0235,4.362
13.988000,-2.1869,-2.5591,2.8611,4.418
13.993000,-2.4608,-2.6071,2.7083,4.493
13.998000,-2.7610,-2.6258,2.5459,4.582
14.007000,-3.0708,-2.6296,2.3740,4.688
14.008000,-3.3749,-2.6649,2.2097,4.835
14.013000,-3.6638,-2.7054,2.0575,4.998
14.018000,-3.9088,-2.7506,1.9058,5.146
14.023000,-4.1314,-2.7645,1.7595,5.273
14.028000,-4.3103,-2.7497,1.6403,5.369
14.033000,-4.4716,-2.7150,1.5199,5.448
14.066000,-4.6227,-2.6392,1.4202,5.509
14.068000,-4.7493,-2.5556,1.3199,5.552
14.068000,-4.8230,-2.4762,1.2238,5.558
14.069000,-4.8630,-2.3773,1.1128,5.526
14.069000,-4.8359,-2.2849,0.9851,5.438
14.070000,-4.7541,-2.1660,0.8406,5.291
14.070000,-4.6276,-2.0496,0.6941,5.109
14.073000,-4.4758,-1.9243,0.5408,4.902
14.079000,-4.3400,-1.7906,0.4265,4.714
14.084000,-4.2199,-1.6579,0.3295,4.546
14.089000,-4.1327,-1.5340,0.2593,4.416
14.093000,-4.0830,-1.4356,0.2084,4.333
14.098000,-4.0615,-1.3319,0.1625,4.277
14.104000,-4.0397,-1.2208,0.1214,4.222
14.108000,-4.0508,-1.1306,0.0952,4.207
14.113000,-4.0806,-1.0449,0.0861,4.213
14.121000,-4.1148,-0.9805,0.0584,4.230
14.124000,-4.1319,-0.9445,0.0311,4.239
14.129000,-4.1607,-0.9370,0.0185,4.265
14.171000,-4.1986,-0.9506,0.0112,4.305
14.172000,-4.2482,-0.9711,0.0090,4.358
14.173000,-4.2806,-0.9935,0.0259,4.394
14.173000,-4.3006,-1.0346,0.0212,4.423
14.174000,-4.3083,-1.0828,-0.0053,4.442
14.175000,-4.3085,-1.1494,-0.0531,4.459
14.175000,-4.3179,-1.2324,-0.0985,4.491
14.175000,-4.3246,-1.3413,-0.1319,4.530
14.176000,-4.3643,-1.4448,-0.1775,4.601
14.180000,-4.4275,-1.5574,-0.2210,4.699
14.185000,-4.5211,-1.6619,-0.2649,4.824
14.189000,-4.6258,-1.7580,-0.3164,4.959
14.194000,-4.7511,-1.8527,-0.3873,5.114
14.199000,-4.8490,-1.9578,-0.4533,5.249
14.204000,-4.9292,-2.0659,-0.5051,5.368
14.209000,-4.9940,-2.1648,-0.5397,5.470
14.215000,-5.0433,-2.2544,-0.5572,5.552
14.224000,-5.1035,-2.3418,-0.5649,5.643
14.225000,-5.1530,-2.4293,-0.5554,5.724
14.229000,-5.2085,-2.5168,-0.5361,5.810
14.235000,-5.2556,-2.6207,-0.4997,5.894
14.279000,-5.2727,-2.7266,-0.4820,5.955
14.280000,-5.2502,-2.8439,-0.4589,5.989
14.280000,-5.2241,-2.9607,-0.4329,6.020
14.281000,-5.1847,-3.0816,-0.4162,6.046
14.281000,-5.1369,-3.2137,-0.3919,6.072
14.282000,-5.0948,-3.3426,-0.3794,6.105
14.282000,-5.0464,-3.4586,-0.3642,6.129
14.282000,-4.9846,-3.5713,-0.3608,6.143
14.283000,-4.9093,-3.6637,-0.3882,6.138
14.291000,-4.8229,-3.7503,-0.4077,6.123
14.291000,-4.7183,-3.8192,-0.4170,6.085
14.294000,-4.5882,-3.8799,-0.4161,6.023
14.300000,-4.4280,-3.9326,-0.4072,5.936
14.304000,-4.2353,-3.9798,-0.4095,5.826
14.310000,-4.0177,-4.0747,-0.4226,5.738
14.314000,-3.7919,-4.1908,-0.4533,5.670
14.319000,-3.5484,-4.3450,-0.4871,5.631
14.325000,-3.2874,-4.5208,-0.5169,5.614
14.330000,-3.0110,-4.7275,-0.5520,5.632
14.339000,-2.7269,-4.9704,-0.6116,5.702
14.340000,-2.4564,-5.2279,-0.6883,5.817
14.344000,-2.1852,-5.4999,-0.7793,5.969
14.349000,-1.8895,-5.7866,-0.8868,6.151
14.392000,-1.6024,-6.1041,-0.9576,6.383
14.392000,-1.3243,-6.4555,-0.9994,6.665
14.393000,-1.0835,-6.7854,-0.9740,6.940
14.393000,-0.8798,-7.0745,-0.9128,7.187
14.393000,-0.7104,-7.3228,-0.8208,7.403
14.394000,-0.5534,-7.4987,-0.7149,7.553
14.394000,-0.3709,-7.6007,-0.6241,7.635
14.394000,-0.1601,-7.6597,-0.5411,7.680
14.395000,0.0835,-7.6759,-0.4444,7.689
14.400000,0.3218,-7.6546,-0.3323,7.669
14.404000,0.4928,-7.5765,-0.2028,7.595
14.410000,0.5818,-7.4355,-0.0953,7.459
14.415000,0.5748,-7.2577,-0.0096,7.280
14.420000,0.5249,-7.0428,0.0734,7.063
14.424000,0.5038,-6.8388,0.1491,6.859
14.429000,0.5191,-6.6716,0.2202,6.695
14.442000,0.5651,-6.5661,0.3034,6.597
14.443000,0.6112,-6.4934,0.4250,6.536
14.445000,0.6405,-6.4532,0.5731,6.510
14.449000,0.6367,-6.3930,0.7830,6.472
14.500000,0.5689,-6.2719,1.0423,6.383
14.502000,0.4382,-6.0559,1.3244,6.215
14.502000,0.2534,-5.7580,1.6120,5.985
14.503000,0.0443,-5.3727,1.8885,5.695
14.503000,-0.1293,-4.9168,2.1324,5.361
14.503000,-0.2241,-4.4217,2.3415,5.008
14.504000,-0.2157,-3.9109,2.5017,4.648
14.504000,-0.0745,-3.4123,2.6223,4.304
14.505000,0.1993,-2.9187,2.7011,3.982
14.505000,0.5788,-2.4523,2.7379,3.721
14.506000,1.0422,-2.0205,2.7327,3.555
14.510000,1.5514,-1.6225,2.7114,3.520
14.515000,2.0536,-1.2202,2.6643,3.578
14.520000,2.5122,-0.8261,2.6269,3.728
14.526000,2.9290,-0.4477,2.6084,3.948
14.530000,3.3059,-0.0924,2.5773,4.193
14.538000,3.6358,0.2448,2.5284,4.435
14.539000,3.9315,0.5462,2.4994,4.691
14.544000,4.2412,0.8026,2.4182,4.948
14.551000,4.5260,1.0259,2.2681,5.165
14.589000,4.6182,1.2353,2.1068,5.224
14.590000,4.9082,1.4407,1.9009,5.457
14.590000,5.0284,1.6463,1.6843,5.553
14.591000,5.0824,1.8599,1.4788,5.610
14.591000,5.0846,2.0790,1.2868,5.642
14.591000,5.0547,2.3089,1.0726,5.660
14.592000,5.0088,2.5303,0.8488,5.675
14.592000,4.9591,2.7292,0.6373,5.696
14.594000,4.8938,2.9106,0.4481,5.711
14.599000,4.8369,3.0530,0.2720,5.726
14.605000,4.7719,3.1928,0.0903,5.742
14.610000,4.6863,3.3178,-0.0891,5.743
14.615000,4.5853,3.4356,-0.2659,5.736
14.624000,4.4809,3.5559,-0.4513,5.738
14.625000,4.3662,3.6431,-0.6211,5.720
14.630000,4.2871,3.7287,-0.7895,5.736
14.643000,4.2049,3.7982,-0.9507,5.746
14.644000,4.1199,3.8568,-1.1117,5.752
14.645000,4.0250,3.8950,-1.2484,5.738
14.708000,3.9418,3.9226,-1.3530,5.723
14.709000,3.8541,3.9470,-1.4163,5.695
14.709000,3.7614,3.9610,-1.4258,5.645
14.710000,3.6690,3.9696,-1.3868,5.581
14.710000,3.5841,3.9752,-1.3138,5.511
14.710000,3.4949,3.9849,-1.2288,5.441
14.711000,3.4039,3.9965,-1.1368,5.371
14.711000,3.2967,4.0100,-1.0572,5.298
14.711000,3.1830,4.0325,-0.9947,5.233
14.712000,3.0534,4.0664,-0.9375,5.171
14.712000,2.9177,4.0832,-0.8667,5.093
14.712000,2.7952,4.0924,-0.7777,5.017
14.713000,2.6860,4.0990,-0.6709,4.946
14.716000,2.6022,4.1147,-0.5609,4.901
14.721000,2.5294,4.1157,-0.4672,4.853
14.726000,2.4413,4.1092,-0.3898,4.796
14.730000,2.3429,4.0951,-0.3124,4.728
14.735000,2.2319,4.0927,-0.2517,4.668
14.740000,2.1322,4.0707,-0.1721,4.599
14.745000,2.0582,4.0342,-0.0714,4.529
14.755000,1.9931,4.0068,0.0190,4.475
14.755000,1.9132,3.9647,0.0918,4.403
14.760000,1.8208,3.9222,0.1250,4.326
14.767000,1.7209,3.8674,0.1283,4.235
14.803000,1.6257,3.8100,0.0971,4.143
14.803000,1.5423,3.7429,0.0649,4.049
14.804000,1.4732,3.6709,0.0272,3.956
14.804000,1.4232,3.6013,-0.0160,3.872
14.804000,1.3924,3.5148,-0.0718,3.781
14.805000,1.3973,3.4355,-0.1330,3.711
14.805000,1.4405,3.3609,-0.1662,3.660
14.805000,1.5075,3.2647,-0.1906,3.601
14.811000,1.5957,3.1780,-0.2205,3.563
14.815000,1.7027,3.0912,-0.2799,3.540
14.820000,1.8260,3.0233,-0.3783,3.552
14.825000,1.9629,2.9599,-0.5178,3.589
14.830000,2.0987,2.8675,-0.6787,3.618
14.835000,2.2049,2.7726,-0.8486,3.643
14.840000,2.3196,2.6774,-0.9818,3.676
14.846000,2.4476,2.5964,-1.1187,3.740
14.854000,2.5791,2.5105,-1.2684,3.816
14.855000,2.7067,2.4171,-1.3972,3.889
14.860000,2.8209,2.3093,-1.5070,3.945
14.865000,2.9240,2.1893,-1.5904,3.984
14.915000,3.0090,2.0598,-1.6449,4.000
14.916000,3.1095,1.9232,-1.6535,4.013
14.916000,3.2041,1.7627,-1.6188,3.999
14.917000,3.3046,1.6095,-1.5456,3.987
14.917000,3.3827,1.4540,-1.4248,3.948
14.917000,3.4359,1.3225,-1.2854,3.900
14.918000,3.4547,1.1957,-1.1348,3.828
14.918000,3.4681,1.1000,-0.9445,3.759
14.918000,3.4425,1.0138,-0.7509,3.666
14.918000,3.4022,0.9370,-0.5568,3.573
14.926000,3.3738,0.8722,-0.3649,3.504
14.927000,3.3502,0.7930,-0.1996,3.449
14.931000,3.3264,0.7327,-0.0586,3.407
14.938000,3.3143,0.6651,0.0676,3.381
14.941000,3.2975,0.6045,0.1882,3.358
14.945000,3.2712,0.5510,0.2983,3.331
14.951000,3.2451,0.4950,0.3762,3.304
14.956000,3.2094,0.4580,0.4529,3.273
14.960000,3.1766,0.4042,0.5280,3.245
14.966000,3.1682,0.3528,0.5872,3.241
14.971000,3.1984,0.2823,0.6160,3.269
14.977000,3.3126,0.1520,0.5836,3.367
14.982000,3.4769,-0.0262,0.5213,3.516
14.991000,3.6765,-0.2620,0.4437,3.712
14.992000,3.8730,-0.5600,0.3701,3.931
14.996000,4.0354,-0.9226,0.3243,4.152
15.051000,4.1544,-1.2971,0.2822,4.361
15.053000,4.2133,-1.6618,0.2173,4.534
15.053000,4.2506,-2.0262,0.1420,4.711
15.055000,4.2549,-2.3781,0.0375,4.875
15.056000,4.2383,-2.7126,-0.0646,5.032
15.057000,4.2105,-3.0032,-0.1545,5.174
15.058000,4.1863,-3.2521,-0.2390,5.306
15.059000,4.1751,-3.4546,-0.2981,5.427
15.060000,4.1581,-3.5938,-0.3388,5.506
15.061000,4.1256,-3.6626,-0.3177,5.526
15.064000,4.0587,-3.6347,-0.2015,5.452
15.066000,3.9454,-3.5293,-0.0168,5.294
15.067000,3.8244,-3.3346,0.2192,5.079
15.068000,3.7053,-3.0529,0.4918,4.826
15.072000,3.6048,-2.7083,0.8293,4.584
15.076000,3.5133,-2.3154,1.2094,4.378
15.081000,3.4499,-1.9102,1.6028,4.257
15.088000,3.4308,-1.4691,1.9753,4.223
15.091000,3.4796,-1.0163,2.2950,4.290
15.098000,3.6027,-0.5498,2.5641,4.456
15.101000,3.8064,-0.1085,2.7941,4.723
15.114000,4.0848,0.2929,3.0062,5.080
15.114000,4.4272,0.6536,3.1711,5.485
15.116000,4.7872,0.9611,3.2647,5.874
15.178000,5.1565,1.2292,3.2843,6.236
15.179000,5.4959,1.4525,3.2277,6.537
15.180000,5.7541,1.6472,3.1121,6.746
15.180000,5.9328,1.7936,2.9451,6.862
15.180000,5.8863,1.8724,2.7250,6.751
15.181000,5.9540,1.8859,2.4570,6.711
15.181000,5.7702,1.8077,2.1467,6.416
15.182000,5.4575,1.6668,1.8140,5.988
15.182000,5.0190,1.4657,1.4645,5.430
15.183000,4.5233,1.2270,1.1254,4.820
15.184000,4.0046,0.9701,0.8118,4.200
15.185000,3.4615,0.7123,0.5338,3.574
15.186000,2.9115,0.4660,0.2941,2.963
15.187000,2.3551,0.2435,0.0953,2.370
15.191000,1.8443,0.0363,-0.0739,1.846
15.197000,1.3767,-0.1433,-0.2038,1.399
15.206000,0.9553,-0.2975,-0.2917,1.042
15.207000,0.5757,-0.4282,-0.3472,0.797
15.211000,0.2399,-0.5452,-0.3680,0.700
15.217000,-0.0603,-0.6283,-0.3519,0.723
15.255000,-0.3229,-0.6920,-0.3302,0.832
15.256000,-0.5430,-0.7268,-0.2883,0.952
15.256000,-0.7065,-0.7446,-0.2289,1.052
15.257000,-0.8165,-0.7412,-0.1422,1.112
15.257000,-0.9604,-0.7109,-0.0144,1.195
15.258000,-1.0864,-0.6784,0.1353,1.288
15.259000,-1.1992,-0.6365,0.2800,1.386
15.260000,-1.2941,-0.5997,0.4221,1.487
15.263000,-1.3551,-0.5709,0.5614,1.574
15.269000,-1.4051,-0.5517,0.7000,1.664
15.272000,-1.4327,-0.5475,0.8448,1.751
15.277000,-1.4573,-0.5680,0.9761,1.844
15.281000,-1.5027,-0.6109,1.0841,1.951
15.287000,-1.5645,-0.6528,1.1877,2.070
15.292000,-1.6490,-0.7093,1.2505,2.188
15.297000,-1.7683,-0.7547,1.2652,2.302
15.311000,-1.8985,-0.8126,1.2655,2.422
15.313000,-2.0657,-0.9022,1.2585,2.582
15.313000,-2.2701,-0.9972,1.2442,2.774
15.317000,-2.4939,-1.0964,1.2270,2.988
15.364000,-2.7277,-1.2120,1.2046,3.219
15.365000,-2.9594,-1.3148,1.1795,3.446
15.365000,-3.2055,-1.4022,1.1679,3.689
15.366000,-3.4613,-1.4863,1.1820,3.948
15.366000,-3.7165,-1.5514,1.1659,4.193
15.366000,-3.9616,-1.5833,1.1368,4.415
15.366000,-4.1824,-1.5844,1.1234,4.611
15.367000,-4.3907,-1.5782,1.1021,4.794
15.367000,-4.5749,-1.5697,1.0945,4.959
15.367000,-4.7153,-1.5771,1.0907,5.090
15.372000,-4.7981,-1.5958,1.1055,5.176
15.376000,-4.8305,-1.6071,1.1343,5.216
15.382000,-4.8298,-1.6181,1.1771,5.228
15.386000,-4.8009,-1.6294,1.2221,5.215
15.392000,-4.7702,-1.6429,1.2741,5.204
15.397000,-4.7235,-1.6542,1.3451,5.182
15.409000,-4.6754,-1.6923,1.3966,5.165
15.409000,-4.5972,-1.7453,1.4622,5.130
15.412000,-4.5014,-1.7849,1.5443,5.083
15.460000,-4.4331,-1.8466,1.6496,5.078
15.461000,-4.3949,-1.9261,1.7495,5.107
15.461000,-4.4061,-2.0091,1.8343,5.178
15.462000,-4.4401,-2.1048,1.9017,5.269
15.462000,-4.4707,-2.2157,1.9447,5.355
15.463000,-4.4953,-2.3174,1.9753,5.430
15.463000,-4.4757,-2.4723,1.9937,5.488
15.463000,-4.4455,-2.6634,2.0118,5.559
15.463000,-4.4093,-2.8953,2.0414,5.656
15.464000,-4.3864,-3.1465,2.0725,5.782
15.467000,-4.3692,-3.3924,2.0829,5.911
15.472000,-4.3816,-3.6330,2.0583,6.053
15.477000,-4.3854,-3.8491,2.0299,6.178
15.482000,-4.4043,-4.0308,2.0096,6.299
15.486000,-4.4048,-4.1520,1.9543,6.361
15.498000,-4.3942,-4.2486,1.8856,6.396
15.498000,-4.4226,-4.3300,1.7940,6.444
15.504000,-4.4326,-4.3796,1.7156,6.463
15.507000,-4.4483,-4.4119,1.6406,6.476
15.511000,-4.4291,-4.4367,1.5544,6.459
15.517000,-4.3749,-4.4516,1.4521,6.408
15.565000,-4.2955,-4.4760,1.3509,6.349
15.565000,-4.1958,-4.5674,1.2746,6.332
15.566000,-4.0782,-4.6971,1.2231,6.340
15.566000,-3.9618,-4.8459,1.1701,6.368
15.566000,-3.8492,-4.9926,1.1058,6.400
15.567000,-3.7571,-5.1301,1.0279,6.441
15.567000,-3.6519,-5.2657,0.9149,6.473
15.567000,-3.5578,-5.4088,0.7864,6.522
15.568000,-3.4744,-5.5619,0.6403,6.589
15.568000,-3.4092,-5.7107,0.4916,6.669
15.574000,-3.3475,-5.8430,0.3452,6.743
15.578000,-3.2607,-5.9589,0.1892,6.795
15.582000,-3.1654,-6.0678,0.0218,6.844
15.587000,-3.0473,-6.1934,-0.1736,6.905
15.592000,-2.9113,-6.3027,-0.3627,6.952
15.597000,-2.7453,-6.4049,-0.5478,6.990
15.602000,-2.5493,-6.4953,-0.7025,7.013
15.607000,-2.3235,-6.5524,-0.8698,7.006
15.612000,-2.0557,-6.6098,-1.0403,7.000
15.620000,-1.7705,-6.6396,-1.2139,6.978
15.628000,-1.2620,-6.6128,-1.5293,6.904
15.629000,-1.2291,-6.5565,-1.5346,6.845
15.631000,-1.0111,-6.4659,-1.6777,6.756
15.675000,-0.8619,-6.3006,-1.8007,6.609
15.676000,-0.7889,-6.0878,-1.9181,6.431
15.676000,-0.7897,-5.8296,-2.0538,6.231
15.676000,-0.8544,-5.5692,-2.1977,6.048
15.677000,-0.9401,-5.3352,-2.2914,5.882
15.677000,-1.0152,-5.1484,-2.3037,5.731
15.677000,-1.0611,-5.0263,-2.2439,5.606
15.677000,-1.0967,-4.9564,-2.1146,5.499
15.678000,-1.1506,-4.9220,-1.9044,5.402
15.682000,-1.2489,-4.8916,-1.6231,5.303
15.688000,-1.3813,-4.8551,-1.2615,5.203
15.692000,-1.5360,-4.7865,-0.8513,5.098
15.697000,-1.7028,-4.6659,-0.4047,4.983
15.702000,-1.8838,-4.5173,0.0608,4.895
15.707000,-2.0188,-4.3165,0.4969,4.791
15.712000,-2.1004,-4.0655,0.8961,4.663
15.716000,-2.1026,-3.7844,1.2557,4.508
15.722000,-2.0422,-3.4802,1.5611,4.327
15.727000,-1.9505,-3.1581,1.7930,4.122
15.732000,-1.8157,-2.8256,1.8987,3.858
15.740000,-1.6335,-2.4904,1.9025,3.534
15.742000,-1.4061,-2.1953,1.8409,3.191
15.747000,-1.1251,-1.9200,1.7524,2.833
15.778000,-0.8099,-1.6837,1.6731,2.508
15.778000,-0.4728,-1.4820,1.5695,2.210
15.779000,-0.1212,-1.3150,1.4563,1.966
15.779000,0.2209,-1.1731,1.3718,1.818
15.779000,0.5285,-1.0620,1.3375,1.788
15.779000,0.8066,-0.9457,1.3172,1.811
15.783000,1.0647,-0.8289,1.3130,1.883
15.793000,1.3026,-0.7070,1.2981,1.970
15.794000,1.5159,-0.6084,1.2823,2.077
15.797000,1.7037,-0.5051,1.2508,2.173
15.805000,1.8708,-0.3898,1.1845,2.248
15.807000,1.9812,-0.2506,1.1118,2.286
15.812000,2.0231,-0.0850,1.0135,2.264
15.817000,1.9970,0.0953,0.9088,2.196
15.822000,1.9334,0.3019,0.7931,2.111
