time,ax,ay,az,aT
0.003000,0.2224,0.2902,-0.2659,0.452
0.004000,0.1122,0.4036,-0.3421,0.541
0.005000,0.0903,0.5142,-0.4159,0.668
0.008000,0.0299,0.5675,-0.3320,0.658
0.011000,0.0259,0.5945,-0.1649,0.617
0.017000,-0.0795,0.6166,-0.0438,0.623
0.023000,-0.2290,0.6457,-0.1146,0.695
0.026000,-0.3052,0.5261,-0.1330,0.623
0.031000,-0.2816,0.4755,-0.0705,0.557
0.041000,-0.2612,0.4391,0.0491,0.513
0.042000,-0.2629,0.4216,0.0082,0.497
0.050000,-0.2791,0.4183,-0.1476,0.524
0.052000,-0.3818,0.3575,-0.3798,0.646
0.061000,-0.3946,0.3044,-0.3897,0.633
0.062000,-0.1855,0.2879,-0.1967,0.395
0.066000,-0.0736,0.2651,-0.1422,0.310
0.071000,-0.0007,0.2551,-0.2305,0.344
0.076000,0.0877,0.3419,-0.2944,0.460
0.081000,0.1171,0.3676,-0.3125,0.496
0.087000,0.0466,0.3875,-0.3209,0.505
0.091000,-0.0139,0.3465,-0.4033,0.532
0.096000,-0.1172,0.3208,-0.4856,0.594
0.100000,-0.1225,0.3557,-0.4602,0.594
0.105000,-0.1589,0.4580,-0.3441,0.594
0.111000,-0.1044,0.5485,-0.2855,0.627
0.116000,-0.0308,0.5932,-0.2699,0.652
0.129000,-0.0436,0.6370,-0.2808,0.697
0.130000,-0.0854,0.6582,-0.3921,0.771
0.131000,-0.0964,0.7212,-0.5392,0.906
0.138000,-0.1128,0.7230,-0.6577,0.984
0.145000,-0.1370,0.7167,-0.7498,1.046
0.146000,-0.1425,0.6496,-0.8803,1.103
0.150000,-0.1678,0.6175,-0.9319,1.130
0.164000,-0.1199,0.5584,-0.9359,1.096
0.165000,-0.1487,0.5419,-0.9949,1.143
0.166000,-0.1800,0.5086,-1.0228,1.156
0.173000,-0.1562,0.5281,-1.0698,1.203
0.175000,-0.1281,0.4738,-1.0954,1.200
0.180000,-0.1173,0.3963,-1.0303,1.110
0.186000,-0.1475,0.3718,-0.9152,0.999
0.190000,-0.1446,0.3454,-0.8147,0.897
0.195000,-0.1993,0.3289,-0.7120,0.809
0.200000,-0.2712,0.2573,-0.6169,0.721
0.206000,-0.2909,0.2143,-0.4431,0.572
0.210000,-0.2920,0.1757,-0.3127,0.463
0.215000,-0.3300,0.0692,-0.1661,0.376
0.221000,-0.2567,0.0141,0.1115,0.280
0.225000,-0.1845,0.0291,0.2474,0.310
0.231000,-0.1585,0.0494,0.3878,0.422
0.235000,-0.1257,0.1082,0.4563,0.485
0.240000,-0.1105,0.1649,0.5412,0.576
0.246000,-0.0886,0.2005,0.5997,0.639
0.250000,-0.0840,0.2580,0.6508,0.705
0.263000,-0.0555,0.2373,0.6805,0.723
0.265000,-0.0700,0.2444,0.5812,0.634
0.265000,-0.1276,0.1959,0.4605,0.516
0.272000,-0.1903,0.1044,0.3973,0.453
0.275000,-0.2004,0.0040,0.4107,0.457
0.280000,-0.1963,-0.1269,0.5077,0.559
0.285000,-0.2874,-0.2354,0.5235,0.642
0.295000,-0.3967,-0.2594,0.4200,0.633
0.296000,-0.4092,-0.2393,0.3050,0.564
0.299000,-0.1290,-0.1415,0.3028,0.358
0.304000,0.0873,-0.0833,0.2699,0.296
0.309000,0.0893,-0.1219,0.1847,0.239
0.315000,0.0543,-0.1045,0.1454,0.187
0.320000,-0.0011,-0.1269,0.1041,0.164
0.324000,-0.0576,-0.2229,-0.0109,0.230
0.329000,-0.0752,-0.3351,-0.1352,0.369
0.334000,-0.0994,-0.4754,-0.2376,0.541
0.339000,-0.1382,-0.6273,-0.3663,0.739
0.344000,-0.1917,-0.6616,-0.3706,0.782
0.349000,-0.1069,-0.7122,-0.3464,0.799
0.365000,0.0106,-0.7386,-0.3009,0.798
0.366000,0.0146,-0.7385,-0.2223,0.771
0.367000,0.0318,-0.7553,-0.0986,0.762
0.371000,0.0286,-0.7698,0.0101,0.770
0.375000,-0.0236,-0.7392,0.1925,0.764
0.379000,-0.0910,-0.7282,0.3386,0.808
0.384000,-0.1371,-0.7058,0.4151,0.830
0.390000,-0.1670,-0.6792,0.5201,0.872
0.394000,-0.1661,-0.6316,0.5986,0.886
0.399000,-0.1746,-0.5435,0.6771,0.886
0.404000,-0.2360,-0.4822,0.7436,0.917
0.409000,-0.3210,-0.4738,0.7575,0.949
0.414000,-0.4336,-0.5013,0.6688,0.942
0.419000,-0.5405,-0.5336,0.5901,0.962
0.424000,-0.6508,-0.6039,0.4808,1.010
0.429000,-0.7192,-0.7217,0.3624,1.081
0.433000,-0.8175,-0.9465,0.2635,1.278
0.439000,-1.0561,-1.1275,0.2247,1.561
0.443000,-1.3272,-1.2579,0.1528,1.835
0.448000,-0.8201,-1.3187,0.2174,1.568
0.455000,-0.3689,-1.3391,0.4397,1.457
0.459000,-0.0691,-1.3286,0.5899,1.455
0.463000,0.1104,-1.2996,0.6132,1.441
0.468000,0.1428,-1.3003,0.6626,1.466
0.474000,0.2267,-1.4502,0.5825,1.579
0.479000,0.3826,-1.6826,0.5786,1.820
0.484000,0.0004,-1.5530,0.6341,1.677
0.488000,-0.4809,-1.4255,0.4644,1.574
0.493000,-0.8009,-1.4677,0.3329,1.705
0.498000,-1.0312,-1.5575,0.3425,1.899
0.504000,-1.1047,-1.6661,0.3424,2.028
0.508000,-1.0503,-1.7620,0.3111,2.075
0.513000,-0.9013,-1.7611,0.3347,2.006
0.518000,-0.7346,-1.7234,0.2961,1.897
0.523000,-0.5783,-1.6679,0.1907,1.776
0.527000,-0.5944,-1.7044,0.0999,1.808
0.533000,-0.4982,-1.7301,-0.0001,1.800
0.538000,-0.2969,-1.6489,-0.0614,1.677
0.542000,-0.1680,-1.6355,-0.1943,1.656
0.547000,-0.2045,-1.6919,-0.3054,1.731
0.554000,-0.3585,-1.7487,-0.4640,1.844
0.558000,-0.5066,-1.8446,-0.6393,2.017
0.563000,-0.6894,-1.9983,-0.8192,2.267
0.569000,-0.9954,-2.1023,-0.8675,2.483
0.573000,-1.2305,-2.1569,-0.9180,2.647
0.578000,-1.3372,-2.1164,-1.1071,2.737
0.584000,-1.3598,-2.1105,-1.3463,2.849
0.597000,-1.3078,-2.1048,-1.5686,2.933
0.604000,-1.2323,-2.1088,-1.5853,2.912
0.604000,-1.2083,-2.1363,-1.4250,2.838
0.605000,-1.1750,-2.0818,-1.7454,2.960
0.607000,-0.9527,-1.9244,-1.8264,2.819
0.613000,-0.7183,-1.7213,-1.7067,2.528
0.617000,-0.5591,-1.6133,-1.6850,2.399
0.625000,-0.4567,-1.6056,-1.6634,2.357
0.627000,-0.3940,-1.6288,-1.5580,2.288
0.633000,-0.3666,-1.6213,-1.4742,2.222
0.638000,-0.3599,-1.5977,-1.3400,2.116
0.642000,-0.4120,-1.5891,-1.3205,2.107
0.647000,-0.4464,-1.6199,-1.3819,2.176
0.655000,-0.4912,-1.5892,-1.4643,2.216
0.657000,-0.5294,-1.5612,-1.5605,2.270
0.662000,-0.5832,-1.5190,-1.6420,2.312
0.667000,-0.6087,-1.4570,-1.7470,2.355
0.672000,-0.6112,-1.3441,-1.7894,2.320
0.679000,-0.5997,-1.2393,-1.8173,2.280
0.682000,-0.6034,-1.1408,-1.7756,2.195
0.699000,-0.6073,-1.0050,-1.7195,2.082
0.700000,-0.5581,-0.8842,-1.6584,1.961
0.700000,-0.4810,-0.7935,-1.5351,1.794
0.702000,-0.4732,-0.7470,-1.4452,1.694
0.708000,-0.5134,-0.7166,-1.3814,1.639
0.712000,-0.5606,-0.7021,-1.3723,1.640
0.717000,-0.5576,-0.7180,-1.3271,1.609
0.728000,-0.5968,-0.6878,-1.2387,1.537
0.729000,-0.6773,-0.6668,-1.1405,1.485
0.732000,-0.7594,-0.6453,-1.1353,1.511
0.738000,-0.8744,-0.6927,-1.1847,1.627
0.742000,-0.9331,-0.7080,-1.2959,1.747
0.747000,-0.8600,-0.7175,-1.2895,1.708
0.752000,-0.7053,-0.6443,-1.1778,1.517
0.756000,-0.5940,-0.5432,-0.9251,1.226
0.761000,-0.5310,-0.4790,-1.1222,1.331
0.766000,-0.5073,-0.3247,-1.2688,1.405
0.772000,-0.4388,-0.1902,-1.2145,1.305
0.776000,-0.4192,-0.1282,-1.1365,1.218
0.781000,-0.3329,-0.0766,-1.0227,1.078
0.786000,-0.2261,-0.0621,-0.8949,0.925
0.792000,-0.2131,-0.0846,-0.8772,0.907
0.797000,-0.1528,-0.0631,-0.9098,0.925
0.801000,-0.0931,0.0314,-0.8708,0.876
0.814000,-0.0343,0.1003,-0.8079,0.815
0.815000,-0.0479,0.1846,-0.8458,0.867
0.816000,-0.0221,0.2579,-0.8191,0.859
0.822000,-0.0099,0.2700,-0.7998,0.844
0.830000,-0.0501,0.2762,-0.7543,0.805
0.830000,-0.1330,0.2570,-0.6756,0.735
0.837000,-0.1851,0.2772,-0.6257,0.709
0.847000,-0.3047,0.3199,-0.5974,0.743
0.848000,-0.3632,0.2919,-0.5931,0.754
0.851000,-0.3228,0.3366,-0.5290,0.705
0.857000,-0.2668,0.4203,-0.4266,0.656
0.864000,-0.2264,0.5308,-0.3768,0.689
0.867000,-0.2297,0.5727,-0.3294,0.699
0.871000,-0.1615,0.6128,-0.2365,0.676
0.876000,-0.0429,0.6631,-0.0480,0.666
0.880000,0.0355,0.7690,0.0684,0.773
0.888000,0.1246,0.9138,0.1775,0.939
0.890000,0.1819,1.0447,0.3174,1.107
0.897000,0.2247,1.0947,0.4067,1.189
0.900000,0.3004,1.1239,0.4932,1.264
0.909000,0.3134,1.0844,0.5555,1.258
0.915000,0.3446,1.0649,0.7467,1.346
0.916000,0.3801,1.0963,1.0259,1.549
0.924000,0.4088,1.1402,1.0413,1.597
0.925000,0.4218,1.2371,1.1330,1.730
0.930000,0.4405,1.3457,1.3275,1.941
0.935000,0.3356,1.4468,1.4836,2.099
0.941000,0.2026,1.4395,1.6252,2.181
0.945000,0.0555,1.4194,1.6522,2.179
0.950000,-0.1446,1.3627,1.7488,2.222
0.954000,-0.2875,1.3289,1.8983,2.335
0.960000,-0.3330,1.3183,2.0455,2.456
0.964000,-0.3691,1.3617,2.1786,2.596
0.970000,-0.3961,1.3897,2.2855,2.704
0.975000,-0.4089,1.4334,2.3759,2.805
0.979000,-0.4100,1.4570,2.4163,2.851
0.985000,-0.3752,1.4868,2.5167,2.947
0.989000,-0.3478,1.5081,2.5791,3.008
0.995000,-0.3085,1.4660,2.6370,3.033
1.000000,-0.2125,1.4416,2.6713,3.043
1.012000,-0.1124,1.3536,2.6775,3.002
1.014000,-0.0843,1.2591,2.5884,2.880
1.015000,-0.0670,1.0913,2.4642,2.696
1.040000,-0.0029,0.8983,2.2786,2.449
1.042000,-0.0160,0.7952,2.0870,2.233
1.044000,-0.1322,0.7224,1.8559,1.996
1.045000,-0.1564,0.5704,1.5729,1.680
1.045000,-0.1273,0.5089,1.4870,1.577
1.045000,-0.2575,0.5404,1.4950,1.610
1.049000,-0.3772,0.5618,1.3721,1.530
1.055000,-0.4757,0.5323,1.1494,1.353
1.059000,-0.6926,0.5284,1.0185,1.340
1.065000,-1.0277,0.4545,0.8813,1.428
1.069000,-1.4546,0.2867,0.6565,1.621
1.073000,-1.8786,-0.0302,0.4593,1.934
1.078000,-2.0912,-0.5053,0.3016,2.172
1.084000,-2.0406,-1.0134,0.1755,2.285
1.090000,-1.8265,-1.3595,-0.1084,2.280
1.095000,-1.3573,-1.5303,-0.3664,2.078
1.099000,-0.6910,-1.5295,-0.7065,1.821
1.105000,0.1180,-1.4444,-0.9974,1.759
1.109000,0.9313,-1.2504,-1.1130,1.916
1.114000,1.7440,-0.8897,-0.9483,2.175
1.118000,2.4976,-0.4655,-0.5399,2.597
1.130000,3.0538,-0.0336,-0.0004,3.054
1.133000,3.3379,0.3214,0.4959,3.390
1.136000,3.3234,0.6766,0.9926,3.534
1.151000,3.1290,0.9284,1.6099,3.639
1.154000,2.8860,1.1155,2.3338,3.876
1.155000,2.4620,1.2075,3.0046,4.068
1.156000,1.8919,1.2082,3.5271,4.181
1.159000,1.2831,1.1496,3.8950,4.259
1.163000,0.6123,1.0216,4.0468,4.218
1.168000,-0.0238,0.8474,4.0431,4.131
1.173000,-0.6098,0.6076,3.9875,4.079
1.179000,-1.0246,0.3050,3.8037,3.951
1.183000,-1.0956,0.0479,3.5131,3.680
1.189000,-0.8417,-0.1433,3.2305,3.341
1.194000,-0.2763,-0.0448,2.6250,2.640
1.198000,0.5966,0.2226,1.8136,1.922
1.206000,1.3915,0.5864,1.1481,1.897
1.209000,1.9595,0.9612,0.6154,2.268
1.213000,2.5379,1.2592,0.2512,2.844
1.218000,3.0946,1.5474,0.2244,3.467
1.223000,3.5235,1.7297,0.4194,3.948
1.228000,3.7004,1.8389,0.6352,4.181
1.232000,3.5694,1.8452,0.8595,4.109
1.245000,3.3373,1.7885,1.1326,3.952
1.248000,3.1589,1.6420,1.4263,3.835
1.249000,3.0312,1.5221,1.6666,3.779
1.253000,2.7901,1.4163,1.8399,3.630
1.275000,2.4315,1.3647,1.9510,3.403
1.277000,2.1449,1.4434,2.0070,3.273
1.278000,1.9482,1.5969,2.0289,3.234
1.279000,1.8476,1.7900,1.8245,3.154
1.279000,1.8288,1.9224,1.5208,3.058
1.283000,1.7720,1.9899,1.2613,2.948
1.288000,1.7395,1.9768,0.9906,2.813
1.293000,1.7350,1.9960,0.7427,2.747
1.297000,1.7079,2.0003,0.3907,2.659
1.304000,1.6357,1.9803,0.0356,2.569
1.309000,1.4030,1.8768,-0.2672,2.358
1.313000,1.0116,1.7068,-0.5081,2.048
1.317000,0.5694,1.4584,-0.7039,1.717
1.324000,0.0861,1.2111,-0.8834,1.502
1.327000,-0.2588,0.9554,-1.0325,1.430
1.332000,-0.5253,0.7630,-1.2300,1.540
1.346000,-0.7450,0.5767,-1.4424,1.723
1.354000,-0.8773,0.3681,-1.5739,1.839
1.354000,-0.9728,0.0707,-1.8064,2.053
1.355000,-0.9842,-0.1810,-2.0106,2.246
1.357000,-0.9746,-0.3199,-2.2555,2.478
1.362000,-1.0229,-0.2809,-2.4767,2.694
1.367000,-1.1812,-0.1932,-2.5430,2.811
1.376000,-1.3190,-0.1068,-2.4862,2.816
1.377000,-1.1411,0.0307,-2.5534,2.797
1.381000,-0.7267,0.2239,-2.5842,2.694
1.387000,-0.3582,0.3936,-2.5689,2.623
1.391000,-0.1389,0.5062,-2.6006,2.653
1.396000,-0.0386,0.5568,-2.5138,2.575
1.401000,-0.0246,0.5834,-2.3798,2.450
1.407000,-0.1039,0.5402,-2.1745,2.243
1.412000,-0.1644,0.5010,-2.0031,2.071
1.416000,-0.2446,0.3931,-1.8006,1.859
1.422000,-0.4113,0.2425,-1.5526,1.624
1.426000,-0.5808,0.1679,-1.4001,1.525
1.432000,-0.7127,0.1208,-1.3283,1.512
1.436000,-0.8121,0.0215,-1.3106,1.542
1.442000,-0.9347,-0.0155,-1.4111,1.693
1.446000,-1.1193,-0.0621,-1.5959,1.950
1.451000,-1.2419,-0.1853,-1.7595,2.162
1.463000,-1.3117,-0.2819,-2.0601,2.458
1.464000,-1.3139,-0.3538,-2.3638,2.728
1.466000,-1.2583,-0.3313,-2.6805,2.980
1.488000,-1.1661,-0.4216,-2.9743,3.222
1.489000,-1.0515,-0.4618,-3.2121,3.411
1.489000,-0.8958,-0.5327,-3.4153,3.571
1.490000,-0.7947,-0.5741,-3.5363,3.670
1.490000,-0.7623,-0.6215,-3.5395,3.674
1.496000,-0.7315,-0.5600,-3.4562,3.577
1.500000,-0.7404,-0.5236,-3.2865,3.409
1.506000,-0.7863,-0.4643,-3.0927,3.225
1.511000,-0.8408,-0.4234,-2.8796,3.030
1.516000,-0.7895,-0.2986,-2.6276,2.760
1.521000,-0.6097,-0.2577,-2.3602,2.451
1.525000,-0.4499,-0.2156,-2.0530,2.113
1.530000,-0.3537,-0.2780,-1.8134,1.868
1.538000,-0.2151,-0.4213,-1.7097,1.774
1.541000,0.0044,-0.6701,-1.7045,1.832
1.547000,0.0531,-0.8927,-1.7999,2.010
1.556000,-0.1426,-1.0571,-1.9180,2.195
1.569000,-0.4503,-1.2505,-1.8789,2.301
1.570000,-0.7795,-1.3281,-1.9673,2.498
1.570000,-0.8024,-1.2889,-2.1249,2.612
1.571000,-0.5926,-1.1946,-2.1514,2.531
1.575000,-0.3411,-1.2127,-2.1314,2.476
1.580000,0.0450,-1.2019,-2.1147,2.433
1.585000,0.5337,-1.1624,-2.1275,2.482
1.591000,0.9569,-1.1646,-2.1430,2.620
1.595000,1.1965,-1.1724,-2.1008,2.687
1.599000,1.2495,-1.1360,-1.9957,2.614
1.605000,1.2177,-1.1056,-1.9227,2.530
1.610000,0.9906,-1.1740,-1.7286,2.312
1.614000,0.7007,-1.2214,-1.4402,2.014
1.623000,0.4356,-1.2665,-1.1757,1.782
1.625000,0.2179,-1.3045,-0.9119,1.606
1.630000,-0.0663,-1.3474,-0.6324,1.490
1.635000,-0.2283,-1.4453,-0.4902,1.543
1.640000,-0.1690,-1.5986,-0.3648,1.648
1.645000,0.0154,-1.7927,-0.3167,1.821
1.649000,0.1978,-1.8870,-0.2392,1.912
1.660000,0.3083,-1.8196,-0.1534,1.852
1.661000,0.3812,-1.7932,-0.0335,1.834
1.665000,0.4723,-1.8053,0.1942,1.876
1.669000,0.3652,-1.7797,0.4499,1.872
1.690000,0.4228,-1.7275,0.5606,1.865
1.691000,0.6231,-1.7430,0.7538,1.999
1.692000,0.8099,-1.7687,1.0084,2.191
1.694000,1.0086,-1.8263,1.1885,2.401
1.695000,1.0296,-1.8663,1.4238,2.563
1.699000,0.9240,-1.8091,1.6254,2.602
1.705000,0.9914,-1.7678,1.8577,2.749
1.709000,1.0816,-1.8088,2.0484,2.939
1.714000,1.3105,-1.8915,2.1517,3.150
1.722000,1.6422,-1.9370,2.2967,3.424
1.725000,1.9520,-1.9592,2.3831,3.651
1.730000,2.2980,-1.9586,2.3282,3.813
1.734000,2.6695,-1.9061,2.3074,4.010
1.739000,2.8263,-1.7998,2.4240,4.136
1.744000,2.8772,-1.8005,2.6274,4.292
1.749000,2.8209,-1.9076,2.8641,4.450
1.755000,2.7798,-1.9928,3.1436,4.646
1.760000,2.8933,-2.1273,3.3556,4.915
1.764000,3.0750,-2.2593,3.5407,5.205
1.770000,3.2046,-2.3535,3.6565,5.402
1.774000,3.1688,-2.4835,3.7895,5.529
1.779000,3.0342,-2.6736,3.8133,5.558
1.785000,2.8836,-2.9116,3.8026,5.590
1.791000,2.7289,-3.1075,3.8294,5.636
1.795000,2.6413,-3.2688,3.7909,5.660
1.798000,2.5874,-3.3413,3.7494,5.650
1.804000,2.4981,-3.3775,3.7456,5.628
1.823000,2.4314,-3.3486,3.8435,5.648
1.824000,2.3687,-3.3232,4.0575,5.755
1.824000,2.3222,-3.3621,4.3440,5.964
1.825000,2.3212,-3.3859,4.6479,6.201
1.829000,2.3157,-3.4553,4.9307,6.451
1.834000,2.3035,-3.4999,5.2259,6.698
1.838000,2.3211,-3.5574,5.4637,6.921
1.843000,2.3638,-3.5435,5.4934,6.951
1.848000,2.4319,-3.4480,5.4467,6.890
1.855000,2.5852,-3.2982,5.3499,6.796
1.858000,2.8547,-2.9920,5.1383,6.596
1.864000,3.1157,-2.6939,4.8839,6.389
1.867000,3.4180,-2.2778,4.5871,6.157
1.873000,3.6867,-1.8522,4.3172,5.972
1.878000,3.8404,-1.4140,3.9693,5.701
1.882000,3.9580,-0.9735,3.6031,5.440
1.892000,4.0035,-0.5815,3.2520,5.191
1.894000,4.0558,-0.1606,2.9138,4.997
1.900000,4.1620,0.2186,2.6363,4.932
1.919000,4.2048,0.5946,2.5773,4.968
1.921000,4.1288,0.8393,2.5331,4.916
1.923000,3.8696,0.9793,2.4677,4.693
1.924000,3.4633,1.0377,2.3952,4.337
1.924000,2.9960,1.0164,2.2796,3.899
1.927000,2.5042,0.9539,2.1325,3.425
1.933000,1.9958,0.8521,1.8243,2.835
1.938000,1.4643,0.6831,1.4460,2.168
1.943000,1.0321,0.4663,0.9948,1.507
1.947000,0.6642,0.2858,0.5733,0.923
1.953000,0.3946,0.1018,0.0644,0.413
1.958000,0.1446,-0.0129,-0.4531,0.476
1.962000,-0.0569,-0.0844,-0.9313,0.937
1.967000,-0.1907,-0.1023,-1.3772,1.394
1.973000,-0.2829,-0.1233,-1.7046,1.732
1.977000,-0.4073,-0.1611,-1.9544,2.003
1.983000,-0.5450,-0.1481,-2.1957,2.267
1.989000,-0.6453,-0.1198,-2.3185,2.410
1.993000,-0.8092,-0.0472,-2.3872,2.521
1.997000,-1.0085,0.0195,-2.3680,2.574
2.013000,-1.1861,0.0664,-2.2225,2.520
2.014000,-1.3191,0.0811,-2.0149,2.410
2.015000,-1.3981,0.1042,-1.7717,2.259
2.017000,-1.4694,0.1162,-1.5859,2.165
2.038000,-1.4859,0.1188,-1.3736,2.027
2.039000,-1.5026,0.1550,-1.1826,1.918
2.040000,-1.5446,0.1811,-1.0796,1.893
2.040000,-1.5707,0.2066,-1.0169,1.883
2.047000,-1.6177,0.2289,-0.9321,1.881
2.048000,-1.6073,0.2669,-0.8584,1.842
2.052000,-1.5515,0.3157,-0.8317,1.788
2.066000,-1.4846,0.3489,-0.8828,1.762
2.067000,-1.4308,0.3760,-0.8993,1.731
2.068000,-1.3802,0.4283,-0.8646,1.684
2.083000,-1.2608,0.5084,-0.8910,1.625
2.083000,-1.1563,0.5564,-0.9404,1.591
2.084000,-1.0448,0.6421,-1.0105,1.589
2.087000,-0.8951,0.7244,-1.1563,1.632
2.099000,-0.6951,0.7990,-1.2582,1.645
2.100000,-0.4950,0.8920,-1.3784,1.715
2.101000,-0.2632,0.9245,-1.5076,1.788
2.116000,-0.0782,0.9636,-1.6292,1.894
2.118000,0.1655,1.0068,-1.7936,2.063
2.118000,0.3488,1.0351,-1.9434,2.229
2.123000,0.5149,1.0606,-2.1338,2.438
2.126000,0.7096,1.0906,-2.2857,2.630
2.131000,0.9114,1.1611,-2.4232,2.837
2.136000,1.1585,1.2601,-2.5319,3.056
2.153000,1.4438,1.3423,-2.6239,3.282
2.156000,1.7504,1.4625,-2.6751,3.516
2.156000,2.0686,1.6185,-2.7908,3.832
2.157000,2.2812,1.7383,-2.8347,4.032
2.162000,2.3497,1.8508,-2.8951,4.163
2.167000,2.3198,1.8558,-3.0102,4.229
2.172000,2.2418,1.9257,-3.1178,4.296
2.175000,2.1448,1.9794,-3.2203,4.346
2.182000,2.0386,2.0388,-3.3081,4.388
2.186000,1.8997,2.0348,-3.3621,4.365
2.190000,1.7572,2.0253,-3.4015,4.331
2.195000,1.6067,2.0440,-3.3929,4.274
2.200000,1.5345,2.0597,-3.3174,4.195
2.207000,1.4761,2.1112,-3.2609,4.156
2.211000,1.4142,2.1789,-3.1278,4.066
2.216000,1.4061,2.2439,-2.9395,3.956
2.236000,1.3030,2.3128,-2.6817,3.773
2.237000,1.2147,2.3612,-2.4071,3.584
2.238000,1.1626,2.4132,-2.1491,3.434
2.238000,1.0863,2.4895,-1.8433,3.283
2.240000,1.0768,2.5759,-1.5924,3.214
2.246000,1.0332,2.6813,-1.3296,3.166
2.250000,0.9962,2.7719,-1.1721,3.170
2.255000,0.9057,2.8284,-0.9858,3.129
2.260000,0.7640,2.8123,-0.7733,3.015
2.266000,0.5783,2.7806,-0.5753,2.898
2.274000,0.3943,2.7385,-0.4732,2.807
2.275000,0.2600,2.6519,-0.3164,2.683
2.284000,0.1563,2.5929,-0.1839,2.604
2.291000,0.1191,2.5899,-0.0111,2.593
2.291000,0.0214,2.5804,0.0893,2.582
2.295000,-0.0937,2.5309,0.1008,2.535
2.302000,-0.2077,2.4750,0.1050,2.486
2.310000,-0.3705,2.4080,0.1306,2.440
2.311000,-0.4481,2.2942,0.1034,2.340
2.315000,-0.5172,2.2126,0.1144,2.275
2.331000,-0.6183,2.1206,0.1516,2.214
2.332000,-0.6746,1.9682,0.1554,2.086
2.332000,-0.6238,1.7847,0.2047,1.902
2.337000,-0.5781,1.6872,0.3209,1.812
2.339000,-0.5114,1.5898,0.4204,1.722
2.345000,-0.5125,1.5193,0.4413,1.663
2.350000,-0.4834,1.4923,0.6252,1.689
2.355000,-0.3353,1.4419,0.8573,1.711
2.359000,-0.0682,1.4015,1.1228,1.797
2.363000,0.2846,1.3519,1.3857,1.957
2.369000,0.6175,1.2211,1.6795,2.166
2.375000,0.9021,1.0758,2.0350,2.472
2.379000,1.1286,0.9993,2.3469,2.789
2.385000,1.2903,0.8407,2.6103,3.031
2.390000,1.3777,0.7100,2.8825,3.273
2.395000,1.4533,0.6001,3.0941,3.471
2.400000,1.4719,0.4680,3.2667,3.613
2.405000,1.5078,0.3115,3.4433,3.772
2.410000,1.5132,0.1239,3.5836,3.892
2.414000,1.4360,-0.0540,3.7256,3.993
2.419000,1.4271,-0.1643,3.8719,4.130
2.424000,1.4531,-0.2520,3.9796,4.244
2.429000,1.5088,-0.3363,4.1158,4.397
2.433000,1.5868,-0.3523,4.2927,4.590
2.444000,1.6626,-0.3579,4.4265,4.742
2.445000,1.6976,-0.4558,4.5941,4.919
2.453000,1.7780,-0.5145,4.7594,5.107
2.454000,1.8461,-0.5439,4.9918,5.350
2.469000,1.9475,-0.5588,5.1690,5.552
2.471000,2.0700,-0.5667,5.3436,5.759
2.471000,2.1921,-0.6274,5.4894,5.944
2.473000,2.3324,-0.6793,5.6229,6.125
2.478000,2.5149,-0.7488,5.6916,6.267
2.483000,2.6773,-0.7760,5.6359,6.288
2.488000,2.8147,-0.8208,5.4917,6.225
2.493000,2.8715,-0.8589,5.2835,6.074
2.498000,2.8909,-0.8518,5.0760,5.903
2.505000,2.8656,-0.7967,4.8935,5.726
2.508000,2.8342,-0.7437,4.6903,5.530
2.514000,2.7778,-0.6568,4.5048,5.333
2.519000,2.7374,-0.5504,4.2795,5.110
2.524000,2.7059,-0.3837,3.9809,4.829
2.529000,2.6856,-0.1137,3.6904,4.566
2.532000,2.6239,0.1854,3.4106,4.307
2.540000,2.5471,0.5367,3.0909,4.041
2.543000,2.4578,0.9162,2.7240,3.782
2.547000,2.2720,1.2421,2.4653,3.575
2.571000,2.0545,1.5259,2.2811,3.428
2.573000,1.8487,1.7982,2.0297,3.282
2.573000,1.6591,1.9868,1.8140,3.161
2.574000,1.4576,2.1559,1.6335,3.073
2.575000,1.2748,2.3171,1.4666,3.024
2.578000,1.0894,2.3960,1.2222,2.902
2.582000,0.9226,2.3756,1.0128,2.742
2.589000,0.7815,2.3058,0.7235,2.540
2.593000,0.6328,2.2132,0.5002,2.356
2.598000,0.4862,2.0786,0.2137,2.145
2.604000,0.4091,1.9839,-0.0929,2.028
2.608000,0.3103,1.8625,-0.4551,1.942
2.613000,0.2355,1.7365,-0.7149,1.893
2.617000,0.1589,1.6473,-0.9512,1.909
2.623000,0.0731,1.5258,-1.1470,1.910
2.627000,0.0049,1.3418,-1.2497,1.834
2.632000,-0.0495,1.2273,-1.2955,1.785
2.642000,-0.0730,1.1512,-1.3062,1.743
2.644000,-0.0721,1.1668,-1.3178,1.762
2.647000,-0.0948,1.1564,-1.3160,1.754
2.652000,-0.0856,1.1155,-1.2339,1.666
2.667000,-0.0613,1.1015,-1.1173,1.570
2.668000,0.0405,1.1043,-0.9089,1.431
2.668000,0.1839,1.0618,-0.6974,1.284
2.677000,0.3161,1.0764,-0.4591,1.212
2.678000,0.4609,1.1191,-0.2513,1.236
2.682000,0.5679,1.1419,-0.1170,1.281
2.688000,0.6408,1.1583,-0.0988,1.327
2.691000,0.5972,1.0610,-0.0862,1.221
2.696000,0.5591,0.9572,-0.1101,1.114
2.701000,0.5328,0.8566,-0.1223,1.016
2.707000,0.4199,0.8049,-0.1034,0.914
2.712000,0.3379,0.7298,-0.1972,0.828
2.716000,0.2053,0.6988,-0.3746,0.819
2.722000,0.0751,0.6924,-0.5998,0.919
2.727000,0.0092,0.7258,-0.8412,1.111
2.731000,-0.0688,0.7616,-1.0533,1.302
2.748000,-0.1776,0.8235,-1.3176,1.564
2.756000,-0.2985,0.8619,-1.5522,1.800
2.757000,-0.3935,0.9135,-1.7952,2.052
2.757000,-0.5247,0.9829,-1.8268,2.140
2.781000,-0.6296,1.0492,-1.8001,2.177
2.782000,-0.7340,1.1002,-1.8423,2.268
2.783000,-0.7663,1.1717,-1.9126,2.370
2.783000,-0.8392,1.2254,-1.9297,2.435
2.783000,-0.8932,1.2585,-1.9294,2.471
2.783000,-0.8810,1.2947,-1.9308,2.486
2.790000,-0.8888,1.2521,-1.9077,2.449
2.791000,-0.8498,1.2168,-1.8722,2.389
2.797000,-0.8117,1.2291,-1.8003,2.326
2.800000,-0.7981,1.2288,-1.7188,2.259
2.806000,-0.7733,1.2136,-1.7734,2.284
2.811000,-0.8163,1.1159,-1.8587,2.317
2.815000,-0.8698,0.9961,-1.9914,2.390
2.821000,-0.8048,0.8667,-2.1759,2.477
2.826000,-0.7671,0.7875,-2.3837,2.625
2.830000,-0.6247,0.6633,-2.5405,2.699
2.836000,-0.4233,0.5831,-2.5675,2.667
2.842000,-0.2390,0.5322,-2.6037,2.668
2.846000,-0.0596,0.4824,-2.5845,2.630
2.851000,0.1534,0.4476,-2.5079,2.552
2.862000,0.3406,0.4447,-2.3715,2.437
2.864000,0.4876,0.4202,-2.2929,2.382
2.866000,0.6276,0.3004,-2.2526,2.358
2.905000,0.7005,0.1881,-2.2218,2.337
2.906000,0.7926,0.0016,-2.1598,2.301
2.906000,0.8806,-0.1634,-1.9524,2.148
2.907000,1.0007,-0.3161,-1.8244,2.105
2.907000,1.0814,-0.5023,-1.7567,2.123
2.907000,1.1560,-0.6879,-1.6918,2.161
2.908000,1.2792,-0.8728,-1.7037,2.302
2.908000,1.3289,-1.0828,-1.6773,2.398
2.910000,1.4293,-1.2527,-1.6029,2.486
2.915000,1.4728,-1.4065,-1.5548,2.562
2.921000,1.4665,-1.5171,-1.4396,2.554
2.925000,1.4132,-1.6326,-1.2382,2.489
2.930000,1.3413,-1.6905,-1.0465,2.398
2.934000,1.2747,-1.7361,-0.9049,2.336
2.940000,1.2229,-1.7575,-0.6413,2.235
2.945000,1.2259,-1.7549,-0.3871,2.175
2.950000,1.2746,-1.7238,0.0153,2.144
2.960000,1.3382,-1.6312,0.4579,2.159
2.974000,1.3736,-1.5782,0.8091,2.243
2.975000,1.2880,-1.4984,1.0544,2.240
2.976000,1.1620,-1.3827,1.2803,2.214
2.976000,1.0332,-1.3822,1.3960,2.220
2.989000,0.8923,-1.4278,1.4687,2.234
2.990000,0.6768,-1.4551,1.5366,2.222
2.991000,0.5540,-1.5506,1.6811,2.353
2.994000,0.5310,-1.6713,1.7109,2.450
2.999000,0.5260,-1.7860,1.6451,2.485
3.006000,0.5245,-1.9255,1.6062,2.562
3.009000,0.5816,-2.1019,1.5293,2.664
3.014000,0.6900,-2.2336,1.4744,2.764
3.021000,0.8707,-2.3921,1.3914,2.901
3.025000,1.0493,-2.5627,1.3235,3.069
3.030000,1.2763,-2.7764,1.2730,3.310
3.034000,1.5037,-2.9681,1.1944,3.535
3.039000,1.7200,-3.1257,1.1787,3.757
3.044000,1.9060,-3.2991,1.1325,3.975
3.049000,2.0909,-3.5165,1.1466,4.249
3.056000,2.2172,-3.7372,1.1970,4.507
3.060000,2.3161,-3.9560,1.2479,4.751
3.065000,2.3952,-4.1343,1.2776,4.946
3.069000,2.4763,-4.2432,1.2789,5.077
3.075000,2.5025,-4.2276,1.2542,5.070
3.080000,2.4524,-4.1855,1.2679,5.014
3.083000,2.3812,-4.1745,1.2913,4.976
3.094000,2.2293,-4.1469,1.3076,4.886
3.095000,2.0497,-4.2466,1.3956,4.918
3.100000,1.8666,-4.3590,1.5836,4.999
3.127000,1.7215,-4.5032,1.7590,5.132
3.129000,1.5406,-4.7180,1.8689,5.303
3.130000,1.3766,-4.9723,1.8967,5.497
3.130000,1.2412,-5.1274,1.8353,5.586
3.130000,1.0998,-5.2669,1.7068,5.645
3.131000,0.9543,-5.3403,1.5379,5.639
3.134000,0.8470,-5.3906,1.3552,5.623
3.138000,0.7154,-5.3938,1.2137,5.575
3.143000,0.6119,-5.3661,1.0419,5.500
3.148000,0.4668,-5.2935,0.8303,5.378
3.154000,0.3372,-5.1709,0.5338,5.209
3.158000,0.2586,-4.9745,0.2960,4.990
3.163000,0.2401,-4.6855,0.1193,4.693
3.168000,0.2198,-4.3356,-0.0179,4.341
3.173000,0.1975,-3.9805,-0.1086,3.987
3.179000,0.1155,-3.7015,-0.2269,3.710
3.184000,0.0001,-3.4752,-0.3631,3.494
3.195000,-0.1631,-3.2302,-0.4744,3.269
3.197000,-0.3183,-3.0526,-0.5488,3.118
3.200000,-0.3719,-2.9234,-0.6657,3.021
3.204000,-0.3574,-2.7302,-0.7891,2.864
3.235000,-0.3824,-2.5643,-0.8713,2.735
3.237000,-0.3578,-2.4353,-0.9531,2.639
3.238000,-0.2810,-2.3405,-0.9845,2.555
3.238000,-0.2094,-2.2419,-1.0229,2.473
3.239000,-0.2027,-2.1754,-1.0708,2.433
3.239000,-0.2631,-2.1454,-1.1186,2.434
3.239000,-0.3231,-2.0826,-1.2095,2.430
3.243000,-0.4300,-2.0058,-1.2767,2.416
3.247000,-0.5258,-1.9386,-1.3226,2.405
3.256000,-0.6837,-1.8501,-1.2737,2.348
3.258000,-0.8694,-1.7259,-1.2618,2.308
3.263000,-1.0489,-1.6328,-1.3109,2.342
3.267000,-1.2315,-1.6016,-1.3064,2.406
3.273000,-1.4603,-1.5775,-1.2314,2.477
3.277000,-1.7117,-1.6251,-1.1123,2.609
3.283000,-1.8069,-1.6126,-0.9489,2.601
3.295000,-1.8872,-1.6025,-0.9206,2.641
3.296000,-1.9798,-1.5564,-0.8523,2.659
3.298000,-1.9608,-1.4913,-0.9089,2.626
3.302000,-1.9794,-1.4218,-0.9752,2.625
3.332000,-1.9999,-1.3569,-1.0463,2.634
3.333000,-1.9704,-1.3304,-1.1673,2.649
3.333000,-1.9421,-1.2629,-1.2470,2.631
3.334000,-1.9080,-1.2072,-1.3091,2.610
3.334000,-1.8277,-1.1487,-1.3871,2.566
3.335000,-1.7566,-1.0250,-1.5048,2.530
3.341000,-1.6231,-0.9176,-1.6022,2.458
3.342000,-1.4822,-0.8163,-1.6506,2.364
3.347000,-1.3196,-0.6376,-1.7002,2.245
3.352000,-1.1210,-0.3982,-1.8013,2.159
3.357000,-0.9461,-0.1772,-1.9011,2.131
3.362000,-0.7827,0.0424,-1.9711,2.121
3.366000,-0.5564,0.2502,-1.9159,2.011
3.374000,-0.3094,0.5566,-1.7981,1.908
3.378000,0.0113,0.8672,-1.7162,1.923
3.382000,0.2671,1.1270,-1.7706,2.116
3.387000,0.4127,1.3066,-1.7821,2.248
3.392000,0.5176,1.4128,-1.8944,2.419
3.396000,0.5870,1.4912,-1.9591,2.531
3.401000,0.5971,1.5704,-2.0626,2.660
3.421000,0.5626,1.6172,-2.1905,2.780
3.423000,0.5366,1.6152,-2.3906,2.935
3.423000,0.5189,1.6581,-2.6316,3.153
3.424000,0.5096,1.7128,-2.8369,3.353
3.426000,0.5440,1.7630,-3.0134,3.533
3.431000,0.5694,1.8376,-3.1967,3.731
3.438000,0.5952,1.8604,-3.3270,3.858
3.441000,0.5682,1.8959,-3.3563,3.896
3.447000,0.5170,1.9255,-3.3898,3.933
3.452000,0.4513,1.9848,-3.4156,3.976
3.456000,0.3785,2.0668,-3.3643,3.967
3.462000,0.3372,2.1619,-3.2935,3.954
3.466000,0.3538,2.2843,-3.2178,3.962
3.472000,0.3536,2.3982,-3.1368,3.964
3.476000,0.3488,2.4868,-2.9838,3.900
3.481000,0.3441,2.5735,-2.7923,3.813
3.489000,0.3038,2.6179,-2.6271,3.721
3.491000,0.2927,2.6027,-2.3281,3.504
3.498000,0.2607,2.5931,-1.9719,3.268
3.501000,0.2367,2.6652,-1.7404,3.192
3.508000,0.2989,2.7349,-1.4829,3.125
3.511000,0.2965,2.7976,-1.1942,3.056
3.516000,0.3319,2.8172,-0.8435,2.959
3.527000,0.3192,2.8152,-0.4594,2.870
3.531000,0.2392,2.7532,-0.1427,2.767
3.531000,0.0970,2.7073,0.1809,2.715
3.535000,-0.0136,2.7309,0.4658,2.770
3.558000,-0.0754,2.7160,0.7669,2.823
3.560000,-0.0954,2.7660,1.1153,2.984
3.560000,-0.0979,2.8302,1.3962,3.157
3.561000,-0.1067,2.9062,1.7052,3.371
3.562000,-0.1794,2.9105,1.9923,3.532
3.565000,-0.2114,2.9073,2.3436,3.740
3.571000,-0.1788,2.9226,2.7422,4.012
3.575000,-0.2415,2.9108,3.0420,4.217
3.580000,-0.2829,2.8832,3.3314,4.415
3.585000,-0.3559,2.8181,3.6464,4.622
3.591000,-0.3910,2.7366,3.9101,4.789
3.596000,-0.3590,2.5952,4.1199,4.882
3.600000,-0.3243,2.5114,4.3354,5.021
3.615000,-0.2533,2.4825,4.4251,5.080
3.617000,-0.1277,2.3866,4.3774,4.987
3.617000,0.0068,2.3005,4.2573,4.839
3.645000,0.0951,2.2317,4.2396,4.792
3.646000,0.2020,2.0994,4.1783,4.680
3.646000,0.3798,2.0042,4.1743,4.646
3.647000,0.5519,1.8870,4.1224,4.567
3.647000,0.8139,1.7958,4.1424,4.588
3.648000,1.0750,1.7476,4.2725,4.740
3.651000,1.3138,1.8048,4.4720,4.998
3.656000,1.6021,1.9291,4.6022,5.241
3.660000,1.8535,2.0677,4.7780,5.526
3.664000,2.1183,2.3088,5.0134,5.912
3.672000,2.3656,2.4986,5.2676,6.292
3.674000,2.5789,2.6536,5.6119,6.722
3.680000,2.7599,2.6891,5.8308,6.989
3.684000,2.9063,2.7101,5.9888,7.187
3.691000,3.0106,2.6994,6.0428,7.271
3.695000,3.1182,2.6904,5.9812,7.262
3.699000,3.2265,2.6782,5.8541,7.201
3.711000,3.3164,2.6319,5.6833,7.087
3.713000,3.4119,2.5400,5.4117,6.883
3.715000,3.4769,2.3957,5.0946,6.617
3.719000,3.5663,2.2237,4.8448,6.414
3.742000,3.6205,2.0461,4.5693,6.178
3.744000,3.6591,1.9185,4.3445,5.995
3.745000,3.7039,1.8221,4.1923,5.883
3.745000,3.7427,1.7882,3.9236,5.710
3.746000,3.7377,1.8647,3.6342,5.537
3.749000,3.7674,1.9919,3.3914,5.446
3.755000,3.7481,2.2080,3.0851,5.333
3.759000,3.6468,2.4556,2.7895,5.207
3.763000,3.4754,2.6985,2.5186,5.070
3.768000,3.2679,2.9867,2.3393,5.007
3.774000,3.0485,3.1949,2.2558,4.959
3.779000,2.8867,3.3421,2.1410,4.908
3.783000,2.6891,3.4779,2.0831,4.865
3.788000,2.5275,3.5585,2.0508,4.823
3.793000,2.3945,3.5692,2.0534,4.763
3.798000,2.3232,3.5267,1.9858,4.667
3.806000,2.2911,3.4208,1.8100,4.497
3.809000,2.2122,3.2925,1.7103,4.320
3.813000,2.1485,3.1583,1.5886,4.137
3.818000,2.1165,2.9969,1.4166,3.933
3.828000,2.1018,2.8254,1.2326,3.731
3.830000,2.1187,2.6940,1.1302,3.609
3.834000,2.1369,2.5698,1.0253,3.496
3.864000,2.1870,2.4307,0.8560,3.380
3.866000,2.1451,2.2798,0.6845,3.204
3.866000,2.1100,2.1105,0.5085,3.027
3.867000,1.9932,1.9080,0.4020,2.788
3.867000,1.7792,1.6662,0.2954,2.455
3.867000,1.4992,1.4065,0.1814,2.064
3.870000,1.2453,1.1176,0.1938,1.684
3.874000,0.9824,0.7975,0.2461,1.289
3.878000,0.7037,0.5321,0.2469,0.916
3.883000,0.4600,0.3124,0.2801,0.623
3.888000,0.2943,0.1410,0.2642,0.420
3.894000,0.0748,-0.0041,0.2878,0.297
3.897000,-0.1410,-0.1080,0.2506,0.307
3.902000,-0.3078,-0.1860,0.1978,0.410
3.908000,-0.4280,-0.3235,0.1224,0.550
3.912000,-0.5856,-0.3527,0.0486,0.685
3.917000,-0.6728,-0.4465,-0.0716,0.811
3.927000,-0.7498,-0.5327,-0.2165,0.945
3.928000,-0.7981,-0.5535,-0.3856,1.045
3.932000,-0.7940,-0.5481,-0.6005,1.136
3.959000,-0.7695,-0.5420,-0.7650,1.213
3.960000,-0.7083,-0.5141,-0.9603,1.299
3.960000,-0.7091,-0.4689,-1.0999,1.390
3.960000,-0.7171,-0.3856,-1.2509,1.493
3.960000,-0.7256,-0.3667,-1.4464,1.659
3.963000,-0.7495,-0.3474,-1.6287,1.826
3.968000,-0.8248,-0.3091,-1.7884,1.994
3.973000,-0.8630,-0.3039,-1.9396,2.145
3.978000,-0.9506,-0.3278,-2.0610,2.293
3.982000,-1.0515,-0.3757,-2.1835,2.452
3.988000,-1.1158,-0.3968,-2.2687,2.559
3.993000,-1.1766,-0.4182,-2.3027,2.619
3.997000,-1.2030,-0.4374,-2.2615,2.599
4.001000,-1.1801,-0.4592,-2.2195,2.555
4.007000,-1.1365,-0.5058,-2.1483,2.482
4.012000,-1.0237,-0.5599,-2.0983,2.401
4.016000,-0.9633,-0.6129,-2.1272,2.414
4.021000,-0.8882,-0.7002,-2.1847,2.460
4.027000,-0.7742,-0.8428,-2.2755,2.547
4.032000,-0.6572,-1.0291,-2.4547,2.742
4.047000,-0.5706,-1.2271,-2.6026,2.933
4.048000,-0.4473,-1.4224,-2.8459,3.213
4.049000,-0.2993,-1.5957,-3.1057,3.504
4.052000,-0.1671,-1.7389,-3.2456,3.686
4.080000,-0.0078,-1.8614,-3.4474,3.918
4.082000,0.0998,-1.9700,-3.5821,4.089
4.083000,0.1869,-2.1311,-3.6568,4.237
4.083000,0.2921,-2.3274,-3.6718,4.357
4.083000,0.3703,-2.4874,-3.5988,4.390
4.084000,0.4792,-2.6463,-3.5407,4.446
4.089000,0.5852,-2.7950,-3.3997,4.440
4.092000,0.7123,-2.8902,-3.1781,4.354
4.096000,0.8367,-2.9844,-2.8690,4.224
4.101000,0.8749,-3.0278,-2.5804,4.073
4.107000,0.8605,-3.1141,-2.3216,3.978
4.112000,0.8456,-3.1930,-2.0519,3.888
4.116000,0.7607,-3.2500,-1.8022,3.793
4.123000,0.6419,-3.3027,-1.5678,3.712
4.126000,0.5556,-3.3318,-1.4034,3.658
4.132000,0.4876,-3.4024,-1.2493,3.657
4.138000,0.4637,-3.4232,-1.0717,3.617
4.142000,0.5126,-3.3318,-0.9807,3.511
4.147000,0.5717,-3.2627,-0.9354,3.442
4.151000,0.6448,-3.1651,-0.9281,3.361
4.156000,0.7005,-3.1205,-0.8081,3.299
4.161000,0.7669,-3.0763,-0.6613,3.239
4.166000,0.8796,-3.0685,-0.4326,3.221
4.179000,0.9550,-3.0210,-0.0985,3.170
4.180000,1.0338,-2.9460,0.2263,3.130
4.181000,1.1449,-2.8396,0.5010,3.102
4.185000,1.1678,-2.8099,0.7355,3.131
4.210000,1.1717,-2.8547,0.9755,3.236
4.212000,1.1187,-2.9719,1.1681,3.384
4.212000,1.0445,-3.1616,1.3781,3.604
4.213000,1.0234,-3.4118,1.5480,3.884
4.213000,1.0482,-3.6338,1.5606,4.091
4.216000,1.1073,-3.8320,1.6337,4.310
4.221000,1.1502,-4.0567,1.7886,4.580
4.225000,1.1990,-4.2644,1.9318,4.833
4.230000,1.2396,-4.4887,2.0562,5.090
4.235000,1.2606,-4.6862,2.0394,5.264
4.240000,1.1955,-4.8616,1.9988,5.391
4.245000,1.2025,-5.0098,1.9294,5.502
4.249000,1.1762,-5.1493,1.7859,5.576
4.261000,1.1451,-5.2344,1.6522,5.607
4.263000,1.1831,-5.2692,1.5737,5.625
4.265000,1.2062,-5.3180,1.5458,5.668
4.290000,1.1877,-5.3401,1.4919,5.670
4.291000,1.1274,-5.3906,1.5797,5.729
4.292000,1.1185,-5.4722,1.7563,5.855
4.292000,1.0280,-5.5299,1.9830,5.964
4.293000,0.9662,-5.6222,2.2047,6.116
4.294000,0.9359,-5.7420,2.3639,6.280
4.300000,0.8244,-5.8613,2.3532,6.370
4.305000,0.6653,-6.0019,2.2730,6.452
4.314000,0.4944,-6.1517,2.0926,6.517
4.315000,0.3022,-6.2462,1.8479,6.521
4.319000,0.2060,-6.2633,1.4648,6.436
4.325000,0.1002,-6.1332,0.9939,6.214
4.329000,0.0250,-5.8602,0.5693,5.888
4.334000,-0.0180,-5.5178,0.0716,5.518
4.340000,-0.0528,-5.0869,-0.3075,5.096
4.344000,-0.0580,-4.7081,-0.5969,4.746
4.349000,-0.0075,-4.3168,-0.6891,4.371
4.355000,0.0342,-4.0066,-0.7037,4.068
4.360000,0.1008,-3.7041,-0.5981,3.753
4.365000,0.1662,-3.4022,-0.4369,3.434
4.369000,0.2020,-3.1500,-0.2060,3.163
4.375000,0.2132,-2.8928,-0.0610,2.901
4.379000,0.1953,-2.6843,-0.0092,2.691
4.384000,0.2035,-2.4837,0.0069,2.492
4.397000,0.1998,-2.2295,-0.0558,2.239
4.398000,0.2369,-1.9649,-0.1209,1.983
4.402000,0.2529,-1.6801,-0.1955,1.710
4.432000,0.2192,-1.4881,-0.2726,1.529
4.433000,0.1507,-1.3211,-0.4767,1.413
4.434000,0.0666,-1.1649,-0.6044,1.314
4.434000,-0.0305,-1.0197,-0.7157,1.246
4.435000,-0.1624,-0.9062,-0.7866,1.211
4.435000,-0.3334,-0.8440,-0.8220,1.224
4.435000,-0.5988,-0.8065,-0.8745,1.332
4.443000,-0.8439,-0.8773,-0.9297,1.532
4.444000,-1.0879,-0.9441,-0.9731,1.738
4.449000,-1.2780,-1.0208,-1.0551,1.946
4.453000,-1.5078,-1.1218,-1.1876,2.223
4.464000,-1.6838,-1.2034,-1.3655,2.479
4.464000,-1.8421,-1.2535,-1.5411,2.709
4.469000,-1.9019,-1.3270,-1.7689,2.917
4.474000,-1.9736,-1.3970,-2.0011,3.139
4.478000,-2.0217,-1.4275,-2.0700,3.226
4.483000,-2.0504,-1.4399,-2.3299,3.421
4.506000,-2.0169,-1.4163,-2.6273,3.602
4.507000,-1.8954,-1.3616,-2.8113,3.654
4.508000,-1.7338,-1.2200,-2.8628,3.562
4.508000,-1.5080,-1.0372,-2.8299,3.370
4.508000,-1.2828,-0.7920,-2.8297,3.206
4.514000,-0.9436,-0.4555,-2.6827,2.880
4.519000,-0.5022,-0.0433,-2.3584,2.412
4.522000,-0.0276,0.4130,-2.0722,2.113
4.528000,0.3631,0.8524,-1.8173,2.040
4.533000,0.6670,1.2062,-1.6655,2.162
4.539000,0.9341,1.4575,-1.5160,2.301
4.542000,1.0955,1.6003,-1.3790,2.380
4.547000,1.1640,1.7493,-1.2571,2.449
4.554000,1.1641,1.8705,-1.2774,2.547
4.557000,1.1319,1.9594,-1.3394,2.630
4.564000,1.1082,2.0137,-1.5171,2.754
4.568000,1.0189,2.0435,-1.7866,2.899
4.573000,0.9283,2.0348,-2.0709,3.048
4.577000,0.8797,1.9766,-2.3294,3.179
4.582000,0.8492,1.9222,-2.5595,3.312
4.591000,0.8225,1.8577,-2.7421,3.413
4.593000,0.7827,1.8005,-2.9656,3.557
4.597000,0.6938,1.6884,-3.1102,3.606
4.602000,0.6155,1.6107,-3.2165,3.650
4.623000,0.5378,1.5961,-3.3442,3.744
4.625000,0.4655,1.5995,-3.4356,3.818
4.625000,0.4028,1.6521,-3.4429,3.840
4.626000,0.3686,1.6651,-3.3874,3.793
4.627000,0.3248,1.7058,-3.3172,3.744
4.632000,0.3095,1.7687,-3.1415,3.618
4.638000,0.3372,1.8278,-3.0040,3.532
4.642000,0.3045,1.8371,-2.8063,3.368
4.647000,0.2233,1.8682,-2.6276,3.232
4.654000,0.1823,1.8734,-2.4438,3.085
4.657000,0.1673,1.9054,-2.2002,2.915
4.663000,0.1901,1.9663,-1.9612,2.784
4.668000,0.2102,2.0441,-1.7174,2.678
4.672000,0.3132,2.0908,-1.4090,2.541
4.677000,0.4513,2.1183,-1.1245,2.440
4.682000,0.5956,2.1408,-0.8998,2.397
4.687000,0.6694,2.1507,-0.5578,2.321
4.693000,0.7757,2.1983,-0.1898,2.339
4.697000,0.8765,2.2113,0.1516,2.383
4.701000,0.8808,2.2617,0.4089,2.461
4.707000,0.8272,2.2538,0.6660,2.491
4.712000,0.7323,2.2520,0.8845,2.528
4.716000,0.6184,2.2783,1.0524,2.585
4.729000,0.5694,2.3137,1.2941,2.711
4.730000,0.4779,2.2889,1.5377,2.799
4.732000,0.3727,2.3258,1.7472,2.933
4.771000,0.3138,2.3599,1.9585,3.083
4.773000,0.2580,2.3266,2.2219,3.227
4.773000,0.1766,2.2754,2.4844,3.374
4.774000,0.0693,2.2498,2.7367,3.543
4.774000,-0.0169,2.1942,2.8546,3.601
4.775000,-0.0294,2.1511,3.3308,3.965
4.775000,-0.0223,2.0585,3.5975,4.145
4.775000,-0.0107,1.9756,3.6935,4.189
4.777000,-0.0529,1.9001,3.7580,4.211
4.781000,-0.0986,1.8148,3.7934,4.206
4.786000,-0.0787,1.7369,3.7663,4.148
4.791000,-0.0409,1.6905,3.6935,4.062
4.797000,0.0196,1.5992,3.6182,3.956
4.801000,0.1317,1.5210,3.4712,3.792
4.811000,0.3406,1.4755,3.3604,3.686
4.813000,0.6249,1.4414,3.2880,3.644
4.816000,0.9316,1.4812,3.2329,3.676
4.841000,1.2393,1.6285,3.2379,3.830
4.842000,1.5025,1.7467,3.2313,3.969
4.843000,1.6642,1.8690,3.2415,4.095
4.843000,1.8461,2.0122,3.2424,4.239
4.843000,2.0174,2.1113,3.2792,4.391
4.846000,2.1066,2.1659,3.4234,4.566
4.850000,2.1335,2.1452,3.4068,4.556
4.856000,2.0407,2.0608,3.3994,4.468
4.860000,1.8336,1.8988,3.3484,4.264
4.866000,1.6895,1.8008,3.2588,4.089
4.874000,1.6251,1.7358,3.0947,3.903
4.876000,1.5591,1.6779,3.0382,3.805
4.881000,1.5245,1.5456,2.9911,3.696
4.885000,1.5432,1.4039,2.9917,3.647
4.890000,1.5620,1.1714,3.0377,3.611
4.895000,1.6214,0.9367,2.9831,3.522
4.900000,1.6923,0.7002,2.8476,3.386
4.906000,1.7578,0.4930,2.8082,3.349
4.910000,1.8607,0.3274,2.7765,3.358
4.915000,1.9386,0.1962,2.7240,3.349
4.920000,2.0323,0.0521,2.6029,3.303
4.926000,2.1058,-0.0021,2.4588,3.237
4.930000,2.1372,-0.0428,2.3088,3.146
4.935000,2.1290,0.0545,2.2006,3.062
4.946000,2.1057,0.1989,2.0886,2.972
4.947000,2.0982,0.3472,2.0279,2.939
4.950000,2.0351,0.5970,1.9512,2.882
4.981000,1.9095,0.8764,1.8680,2.811
4.982000,1.7525,1.1513,1.8666,2.807
4.983000,1.6908,1.4381,1.8082,2.863
4.984000,1.6073,1.7385,1.7929,2.970
4.984000,1.5287,1.9823,1.7487,3.054
4.985000,1.3779,2.1595,1.7281,3.090
4.985000,1.2510,2.3081,1.7142,3.135
4.992000,1.1887,2.3944,1.6423,3.137
4.994000,1.1761,2.4299,1.5795,3.128
4.999000,1.1464,2.4478,1.5088,3.096
5.005000,1.2187,2.3860,1.4877,3.065
5.010000,1.2423,2.3113,1.3992,2.974
5.014000,1.2290,2.1998,1.3150,2.842
5.020000,1.2479,2.0420,1.1133,2.639
5.025000,1.2944,1.8838,0.8494,2.438
5.029000,1.3274,1.7276,0.5810,2.255
5.034000,1.3351,1.5956,0.2866,2.100
5.040000,1.3444,1.4621,0.0190,1.986
5.044000,1.3671,1.2960,-0.1429,1.889
5.049000,1.3537,1.1771,-0.3524,1.828
5.079000,1.3099,1.0290,-0.5427,1.752
5.080000,1.2620,0.8589,-0.7307,1.692
5.081000,1.1697,0.6986,-0.8612,1.612
5.082000,1.0475,0.5623,-1.0062,1.558
5.082000,0.9605,0.4359,-1.1276,1.544
5.082000,0.7629,0.3079,-1.2636,1.508
5.084000,0.5100,0.1924,-1.3211,1.429
5.090000,0.3003,0.1281,-1.3816,1.420
5.093000,0.1025,0.0478,-1.4092,1.414
5.099000,-0.0498,-0.0218,-1.4255,1.426
5.103000,-0.1808,-0.0520,-1.3873,1.400
5.109000,-0.2931,-0.0552,-1.3210,1.354
5.113000,-0.4014,-0.1125,-1.2600,1.327
5.118000,-0.4748,-0.1646,-1.2306,1.329
5.124000,-0.5923,-0.1995,-1.0988,1.264
5.128000,-0.6436,-0.1959,-0.9606,1.173
5.133000,-0.6171,-0.1330,-0.9618,1.150
5.144000,-0.6494,-0.0371,-1.0305,1.219
5.145000,-0.6715,0.0078,-1.1305,1.315
5.148000,-0.6931,0.0325,-1.2571,1.436
5.199000,-0.7597,0.0327,-1.4530,1.640
5.200000,-0.8405,0.0178,-1.6200,1.825
5.200000,-0.8784,0.0239,-1.7987,2.002
5.201000,-0.9281,0.0517,-1.9914,2.198
5.201000,-0.9205,0.0912,-2.1527,2.343
5.202000,-0.9682,0.1073,-2.3325,2.528
5.203000,-0.9707,0.0946,-2.4138,2.603
5.203000,-0.9545,0.0464,-2.5017,2.678
5.204000,-0.9723,-0.0131,-2.6035,2.779
5.204000,-0.9498,-0.0673,-2.6665,2.831
5.205000,-0.9180,-0.1066,-2.6933,2.847
5.208000,-0.8577,-0.1141,-2.6408,2.779
5.213000,-0.8334,-0.1691,-2.5954,2.731
5.218000,-0.7660,-0.2070,-2.5548,2.675
5.223000,-0.7487,-0.2708,-2.5596,2.681
5.227000,-0.7094,-0.3171,-2.5739,2.689
5.233000,-0.6697,-0.3535,-2.6123,2.720
5.238000,-0.6798,-0.4419,-2.6387,2.760
5.244000,-0.6414,-0.4717,-2.6580,2.775
5.247000,-0.5186,-0.4815,-2.6583,2.751
5.252000,-0.4409,-0.5262,-2.6347,2.723
5.263000,-0.3698,-0.5503,-2.5802,2.664
5.266000,-0.3220,-0.5570,-2.5139,2.595
5.266000,-0.3426,-0.6105,-2.4337,2.532
5.305000,-0.3571,-0.6368,-2.3731,2.483
5.306000,-0.3607,-0.6478,-2.3585,2.472
5.306000,-0.3941,-0.6697,-2.3229,2.449
5.307000,-0.3736,-0.7076,-2.1658,2.309
5.307000,-0.2755,-0.6560,-2.0308,2.152
5.308000,-0.2262,-0.5393,-1.9228,2.010
5.308000,-0.1713,-0.4651,-1.7986,1.866
5.309000,-0.1158,-0.4479,-1.7034,1.765
5.312000,-0.1127,-0.4497,-1.6299,1.695
5.317000,-0.0974,-0.4993,-1.5566,1.638
5.322000,-0.1058,-0.5372,-1.5935,1.685
5.327000,-0.1786,-0.5894,-1.5896,1.705
5.332000,-0.2204,-0.6293,-1.5427,1.681
5.338000,-0.2884,-0.7047,-1.5722,1.747
5.342000,-0.2726,-0.7170,-1.5920,1.767
5.347000,-0.2592,-0.7093,-1.5662,1.739
5.352000,-0.2699,-0.7436,-1.4995,1.695
5.357000,-0.2928,-0.7766,-1.3992,1.627
5.362000,-0.3567,-0.8132,-1.3130,1.585
5.367000,-0.3730,-0.8772,-1.1884,1.523
5.377000,-0.3632,-0.9066,-1.0900,1.464
5.378000,-0.3152,-0.8706,-0.9725,1.343
5.382000,-0.2721,-0.8648,-0.8717,1.258
5.386000,-0.2287,-0.8416,-0.7807,1.171
5.419000,-0.1494,-0.8321,-0.6826,1.087
5.420000,-0.0198,-0.8123,-0.5248,0.967
5.421000,0.1318,-0.7682,-0.3626,0.860
5.422000,0.2141,-0.7333,-0.2653,0.809
5.422000,0.3038,-0.7151,-0.1179,0.786
5.422000,0.3981,-0.7474,-0.0162,0.847
5.422000,0.4896,-0.7440,0.0713,0.893
5.426000,0.5066,-0.8224,0.0845,0.970
5.431000,0.5115,-0.9012,0.1360,1.045
5.436000,0.5403,-0.9182,0.1588,1.077
5.441000,0.6428,-0.9520,0.1649,1.161
5.446000,0.7447,-0.9690,0.1235,1.228
5.451000,0.8363,-1.0002,0.1182,1.309
5.457000,0.9126,-1.0740,0.1469,1.417
5.461000,0.9569,-1.1283,0.1424,1.486
5.467000,0.9811,-1.1677,0.1670,1.534
5.478000,0.9757,-1.2018,0.1944,1.560
5.481000,1.0319,-1.2258,0.2174,1.617
5.482000,1.1038,-1.2112,0.2598,1.659
5.486000,1.1437,-1.2058,0.2763,1.685
5.516000,1.2808,-1.2003,0.3433,1.789
5.517000,1.3332,-1.1350,0.3962,1.795
5.518000,1.3777,-1.1272,0.4446,1.835
5.518000,1.4290,-1.1054,0.5073,1.876
5.518000,1.5039,-1.1461,0.5127,1.959
5.521000,1.5613,-1.1704,0.5158,2.018
5.522000,1.6087,-1.2142,0.5095,2.079
5.525000,1.6368,-1.3134,0.4674,2.150
5.531000,1.6596,-1.3793,0.3825,2.192
5.535000,1.6488,-1.4975,0.3407,2.253
5.541000,1.6667,-1.6437,0.3398,2.365
5.545000,1.7060,-1.7627,0.3628,2.480
5.550000,1.7427,-1.8926,0.4529,2.612
5.556000,1.7961,-2.0304,0.6339,2.784
5.560000,1.8333,-2.1545,0.8911,2.966
5.565000,1.8470,-2.2386,1.0667,3.092
5.571000,1.8421,-2.3306,1.2706,3.231
5.580000,1.7949,-2.4329,1.4934,3.372
5.582000,1.7010,-2.5047,1.6868,3.466
5.585000,1.6897,-2.6225,1.8917,3.648
5.619000,1.7153,-2.7385,2.1080,3.858
5.621000,1.7363,-2.8024,2.3410,4.043
5.621000,1.7716,-2.8431,2.5715,4.223
5.622000,1.7611,-2.9083,2.7900,4.398
5.622000,1.7555,-2.9099,2.9583,4.506
5.623000,1.7811,-2.9528,3.2389,4.731
5.625000,1.7902,-3.0376,3.5193,4.982
5.625000,1.8375,-3.1329,3.7948,5.253
5.630000,1.8075,-3.2417,3.9699,5.435
5.634000,1.6565,-3.4528,4.1743,5.665
5.640000,1.3994,-3.6415,4.3598,5.850
5.645000,1.1299,-3.7917,4.3351,5.869
5.650000,0.8625,-3.8723,4.4351,5.951
5.656000,0.6820,-3.9812,4.3890,5.965
5.660000,0.5093,-4.0540,4.1995,5.859
5.665000,0.4089,-4.0638,3.9385,5.674
5.669000,0.3568,-3.9505,3.6134,5.366
5.674000,0.3261,-3.7405,3.2986,4.998
5.680000,0.2564,-3.5142,3.0208,4.641
5.684000,0.1811,-3.2479,2.7824,4.281
5.697000,0.0787,-2.9845,2.6002,3.959
5.699000,0.0088,-2.6982,2.4765,3.662
5.700000,-0.0307,-2.3396,2.3009,3.282
5.706000,-0.0304,-1.9042,2.1167,2.847
5.744000,-0.0359,-1.4843,1.9906,2.483
5.746000,-0.0592,-1.1399,1.7670,2.104
5.747000,-0.1553,-0.8791,1.5296,1.771
5.747000,-0.2647,-0.6259,1.2402,1.414
5.747000,-0.3660,-0.4520,0.9370,1.103
5.748000,-0.4757,-0.2648,0.6869,0.876
5.748000,-0.5912,-0.2007,0.4178,0.751
5.748000,-0.7028,-0.1997,0.0939,0.737
5.749000,-0.8265,-0.2856,-0.1536,0.888
5.757000,-0.9401,-0.3932,-0.4420,1.111
5.758000,-0.9764,-0.4838,-0.7524,1.324
5.764000,-1.0357,-0.5879,-1.1013,1.622
5.769000,-1.1014,-0.7360,-1.4215,1.943
5.774000,-1.1252,-0.8509,-1.6774,2.192
5.779000,-1.1407,-0.8937,-1.9023,2.391
5.784000,-1.2115,-0.9262,-2.0606,2.563
5.796000,-1.2966,-0.9358,-2.2146,2.732
5.798000,-1.3405,-0.8743,-2.2521,2.763
5.799000,-1.3884,-0.7679,-2.2593,2.761
5.803000,-1.4450,-0.6356,-2.1311,2.652
5.826000,-1.5706,-0.4895,-1.9247,2.532
5.826000,-1.7437,-0.3157,-1.7049,2.459
5.827000,-1.8927,-0.1696,-1.3760,2.346
5.828000,-2.0279,-0.0278,-1.0074,2.264
5.828000,-2.1201,0.1498,-0.6113,2.212
5.834000,-2.1814,0.2597,-0.2716,2.213
5.838000,-2.2625,0.3800,-0.0074,2.294
5.842000,-2.2782,0.5295,0.2272,2.350
5.847000,-2.2938,0.5854,0.4251,2.405
5.853000,-2.3383,0.6246,0.4119,2.455
5.857000,-2.2756,0.6419,0.4127,2.400
5.862000,-2.2639,0.6948,0.3701,2.397
5.868000,-2.1977,0.7092,0.2674,2.325
5.876000,-2.1256,0.6757,0.1743,2.237
5.877000,-2.0766,0.6016,0.0072,2.162
5.883000,-1.9502,0.5063,-0.1572,2.021
5.888000,-1.8018,0.4498,-0.2829,1.878
5.893000,-1.6768,0.3822,-0.4823,1.786
5.897000,-1.5709,0.2846,-0.6689,1.731
5.903000,-1.4741,0.2458,-0.8501,1.719
5.907000,-1.3236,0.2064,-1.0882,1.726
5.913000,-1.1673,0.2287,-1.3089,1.769
5.917000,-0.9379,0.2361,-1.5411,1.819
5.928000,-0.7383,0.2745,-1.7656,1.933
5.929000,-0.5732,0.3057,-2.0252,2.127
5.936000,-0.3709,0.3419,-2.1169,2.176
5.938000,-0.1836,0.3545,-2.1770,2.213
5.972000,-0.0710,0.4582,-2.2297,2.277
5.973000,0.0384,0.5235,-2.3634,2.421
5.974000,0.1373,0.5339,-2.5157,2.575
5.974000,0.2043,0.5920,-2.6007,2.675
5.975000,0.2680,0.6022,-2.7187,2.797
5.975000,0.3500,0.6123,-2.8626,2.948
5.975000,0.3621,0.6536,-2.9654,3.058
5.978000,0.4312,0.6762,-3.0296,3.134
5.982000,0.4950,0.7133,-3.1198,3.238
5.988000,0.5515,0.7937,-3.2313,3.373
5.992000,0.5786,0.8485,-3.3064,3.462
5.996000,0.5526,0.8655,-3.4050,3.556
6.002000,0.5693,0.8809,-3.4793,3.634
6.007000,0.5641,0.8899,-3.5316,3.685
6.012000,0.5352,0.8712,-3.4689,3.616
6.016000,0.5689,0.8749,-3.3058,3.467
6.027000,0.5888,0.9440,-3.2123,3.399
6.028000,0.6091,0.9683,-3.1524,3.354
6.032000,0.5124,0.9525,-3.1236,3.306
6.036000,0.4495,0.9492,-3.0948,3.268
6.072000,0.3323,0.9630,-3.0876,3.251
6.074000,0.2780,0.9178,-3.0567,3.204
6.076000,0.2098,0.8830,-3.0113,3.145
6.076000,0.1369,0.8755,-2.9491,3.079
6.076000,0.0572,0.7997,-2.8367,2.948
6.077000,-0.0650,0.7369,-2.7458,2.844
6.077000,-0.1724,0.7042,-2.6668,2.764
6.079000,-0.2507,0.6559,-2.5304,2.626
6.081000,-0.2113,0.6376,-2.1955,2.296
6.087000,-0.1085,0.7184,-1.7561,1.900
6.091000,-0.0358,0.8449,-1.4898,1.713
6.097000,0.0090,0.8804,-1.2838,1.557
6.101000,-0.0178,0.9057,-1.1166,1.438
6.106000,-0.0160,0.8756,-0.9784,1.313
6.111000,-0.0740,0.8211,-0.9743,1.276
6.117000,-0.1415,0.7832,-0.9965,1.275
6.121000,-0.2042,0.7433,-1.0258,1.283
6.126000,-0.2361,0.7566,-1.1122,1.366
6.131000,-0.2829,0.7540,-1.0617,1.333
6.136000,-0.3280,0.7503,-0.9772,1.275
6.145000,-0.3239,0.7404,-0.8323,1.160
6.147000,-0.3731,0.7460,-0.6823,1.078
6.150000,-0.3991,0.7454,-0.4841,0.974
6.182000,-0.4422,0.8171,-0.2165,0.954
6.183000,-0.4640,0.9177,-0.0280,1.029
6.184000,-0.4502,0.9770,0.1364,1.084
6.185000,-0.4560,1.0071,0.2146,1.126
6.185000,-0.5005,0.9695,0.2736,1.125
6.186000,-0.5141,0.9862,0.3134,1.155
6.186000,-0.5183,0.9738,0.3506,1.157
6.192000,-0.5345,0.8963,0.3615,1.104
6.195000,-0.5821,0.8546,0.4226,1.117
6.200000,-0.6009,0.8345,0.4478,1.122
6.205000,-0.5909,0.8121,0.4992,1.122
6.210000,-0.4994,0.8303,0.6175,1.149
6.215000,-0.4147,0.8675,0.6565,1.164
6.221000,-0.2965,0.8689,0.6644,1.133
6.225000,-0.1519,0.8247,0.6984,1.091
6.231000,-0.0119,0.7952,0.7324,1.081
6.236000,0.1881,0.7854,0.7831,1.125
6.241000,0.3955,0.7906,0.8169,1.204
6.245000,0.5743,0.8016,0.8054,1.273
6.250000,0.8338,0.8255,0.8256,1.435
6.263000,1.0379,0.8961,0.9919,1.692
6.264000,1.2390,0.9127,1.1967,1.949
6.265000,1.4519,0.9540,1.3872,2.223
6.270000,1.6121,0.9938,1.6805,2.532
6.301000,1.8247,1.0149,1.9736,2.873
6.304000,1.9537,1.0583,2.2282,3.147
6.305000,2.0566,1.0588,2.4992,3.405
6.305000,2.1505,1.0838,2.7794,3.678
6.306000,2.1375,1.1256,3.0877,3.920
6.306000,2.0824,1.0839,3.4217,4.150
6.307000,1.9736,0.9731,3.7979,4.389
6.310000,1.9302,0.9053,4.0849,4.608
6.314000,1.8998,0.8046,4.3284,4.795
6.320000,1.8412,0.7829,4.6072,5.023
6.324000,1.7949,0.7326,4.8593,5.232
6.329000,1.7321,0.6894,5.0394,5.373
6.334000,1.6285,0.6289,5.2431,5.526
6.339000,1.5080,0.5705,5.3772,5.614
6.345000,1.4399,0.5141,5.3702,5.584
6.350000,1.4309,0.5390,5.3706,5.584
6.362000,1.4683,0.5634,5.3619,5.588
6.363000,1.5423,0.5540,5.4184,5.661
6.364000,1.5971,0.5009,5.4779,5.728
6.370000,1.6662,0.4879,5.4831,5.751
6.409000,1.7276,0.4957,5.3433,5.638
6.410000,1.8170,0.5721,5.1545,5.495
6.411000,1.9297,0.7147,4.9501,5.361
6.411000,2.0849,0.9116,4.7015,5.223
6.412000,2.2330,1.1698,4.4730,5.134
6.412000,2.3670,1.4032,4.2335,5.049
6.413000,2.5138,1.6856,3.9946,5.012
6.413000,2.5733,1.9453,3.7419,4.940
6.414000,2.5527,2.1841,3.4991,4.851
6.419000,2.4476,2.3683,3.2756,4.725
6.424000,2.3204,2.5841,2.9756,4.573
6.429000,2.2099,2.7690,2.7425,4.480
6.433000,2.0737,2.9178,2.5709,4.407
6.439000,1.9622,3.0735,2.4774,4.408
6.443000,1.8422,3.1782,2.3253,4.348
6.448000,1.7587,3.2721,2.1217,4.278
6.455000,1.6209,3.2066,1.9122,4.070
6.459000,1.4861,3.1422,1.6537,3.849
6.463000,1.3204,2.9833,1.3943,3.548
6.468000,1.1576,2.7874,1.1722,3.238
6.480000,0.9812,2.5647,0.9109,2.893
6.481000,0.8128,2.3132,0.6632,2.540
6.484000,0.6670,2.1030,0.4126,2.244
6.536000,0.5815,1.9084,0.1259,1.999
6.538000,0.4699,1.7107,-0.1033,1.777
6.539000,0.3920,1.5727,-0.3346,1.655
6.539000,0.2855,1.4512,-0.5344,1.573
6.540000,0.1269,1.3254,-0.6718,1.491
6.540000,-0.0480,1.2093,-0.7587,1.428
6.540000,-0.1953,1.1488,-0.7884,1.407
6.541000,-0.3338,1.0651,-0.8016,1.374
6.541000,-0.4203,0.9865,-0.7460,1.306
6.542000,-0.5383,0.9276,-0.6719,1.266
6.543000,-0.6594,0.8760,-0.6393,1.269
6.543000,-0.7573,0.7910,-0.5976,1.248
6.547000,-0.8509,0.6633,-0.4969,1.188
6.555000,-0.9523,0.5738,-0.4879,1.214
6.558000,-1.0398,0.5179,-0.4725,1.254
6.562000,-1.0734,0.4694,-0.5173,1.281
6.567000,-1.0984,0.4113,-0.4909,1.271
6.575000,-1.0624,0.3823,-0.5557,1.258
6.577000,-1.0565,0.3414,-0.6495,1.286
6.583000,-1.0119,0.2915,-0.7384,1.286
6.597000,-0.9456,0.2925,-0.7840,1.263
6.598000,-0.9271,0.2412,-0.8557,1.285
6.599000,-0.8800,0.2430,-0.9534,1.320
6.603000,-0.8427,0.2092,-1.0173,1.337
6.641000,-0.8413,0.1496,-1.1024,1.395
6.644000,-0.8689,0.1170,-1.1847,1.474
6.644000,-0.8582,0.1111,-1.2715,1.538
6.645000,-0.8520,0.1537,-1.3581,1.611
6.646000,-0.8720,0.1685,-1.4658,1.714
6.647000,-0.9204,0.1599,-1.4969,1.764
6.647000,-0.8845,0.1932,-1.4680,1.725
6.647000,-0.7904,0.2606,-1.3796,1.611
6.648000,-0.6668,0.3525,-1.3154,1.516
6.652000,-0.5590,0.5068,-1.2946,1.498
6.657000,-0.5082,0.6535,-1.3101,1.550
6.662000,-0.4525,0.7231,-1.3734,1.617
6.667000,-0.4348,0.8181,-1.4178,1.694
6.678000,-0.4099,0.8188,-1.5627,1.811
6.680000,-0.4353,0.7992,-1.7075,1.935
6.682000,-0.4535,0.8076,-1.9073,2.120
6.686000,-0.4242,0.7821,-2.0780,2.260
6.714000,-0.3644,0.8160,-2.2577,2.428
6.718000,-0.2696,0.8116,-2.4679,2.612
6.719000,-0.1974,0.8168,-2.5769,2.710
6.720000,-0.1571,0.8412,-2.7069,2.839
6.722000,-0.0699,0.8253,-2.7787,2.900
6.723000,0.0212,0.8141,-2.7354,2.854
6.724000,0.1500,0.7959,-2.6966,2.816
6.726000,0.2688,0.7345,-2.7413,2.851
6.731000,0.3870,0.6707,-2.7284,2.836
6.737000,0.4522,0.6332,-2.8157,2.921
6.741000,0.4623,0.5642,-2.8695,2.961
6.746000,0.5084,0.5096,-2.9112,2.999
6.752000,0.5882,0.4674,-2.8740,2.971
6.757000,0.6545,0.4826,-2.8061,2.922
6.762000,0.7456,0.4599,-2.8078,2.941
6.766000,0.8042,0.4420,-2.7383,2.888
6.772000,0.8209,0.3907,-2.6597,2.811
6.777000,0.8293,0.3063,-2.5410,2.690
6.782000,0.8296,0.2316,-2.4398,2.587
6.786000,0.7596,0.1021,-2.3919,2.512
6.796000,0.7220,-0.0389,-2.2870,2.399
6.798000,0.7143,-0.1723,-2.0654,2.192
6.801000,0.7100,-0.2929,-1.9305,2.078
6.845000,0.7282,-0.4055,-1.7673,1.954
6.846000,0.7519,-0.5245,-1.5590,1.809
6.846000,0.7808,-0.5923,-1.4180,1.724
6.847000,0.7697,-0.6812,-1.2318,1.604
6.847000,0.7636,-0.7573,-1.0219,1.484
6.847000,0.8106,-0.8140,-0.8339,1.420
6.848000,0.8486,-0.8321,-0.6678,1.363
6.848000,0.8800,-0.8069,-0.4781,1.286
6.848000,0.8759,-0.8822,-0.3701,1.297
6.850000,0.8599,-0.9643,-0.2597,1.318
6.856000,0.8006,-1.0464,-0.1684,1.328
6.861000,0.7868,-1.1474,-0.1010,1.395
6.867000,0.7247,-1.1832,0.0144,1.388
6.872000,0.6289,-1.2644,0.1179,1.417
6.880000,0.6114,-1.3116,0.1883,1.459
6.880000,0.5692,-1.3611,0.2996,1.505
6.885000,0.5402,-1.4080,0.4328,1.569
6.890000,0.5887,-1.5000,0.5760,1.711
6.895000,0.5856,-1.6112,0.7579,1.874
6.900000,0.6697,-1.7632,0.9425,2.108
6.915000,0.7520,-1.9009,1.1609,2.351
6.917000,0.7942,-2.0655,1.2674,2.550
6.917000,0.9254,-2.2206,1.3195,2.744
6.961000,1.0401,-2.3282,1.3220,2.872
6.963000,1.1430,-2.4357,1.3301,3.001
6.965000,1.2849,-2.6121,1.3724,3.218
6.965000,1.4541,-2.6921,1.5370,3.424
6.966000,1.6151,-2.8002,1.6684,3.638
6.966000,1.7729,-2.9266,1.7617,3.849
6.966000,1.8822,-3.0328,1.8337,4.013
6.967000,1.9818,-3.1381,1.8912,4.166
6.967000,2.0696,-3.2689,1.8578,4.292
6.968000,2.1864,-3.4342,1.8435,4.469
6.970000,2.2724,-3.5553,1.8651,4.613
6.975000,2.3513,-3.6532,1.9129,4.747
6.980000,2.4233,-3.6775,1.9559,4.819
6.985000,2.5195,-3.7025,1.9916,4.901
6.991000,2.5156,-3.7091,2.0033,4.909
6.995000,2.5168,-3.7979,2.0987,5.016
7.000000,2.4703,-3.9015,2.2562,5.139
7.008000,2.4193,-4.0678,2.3681,5.292
7.009000,2.3500,-4.2970,2.5370,5.516
7.014000,2.2433,-4.4691,2.7032,5.684
7.019000,2.1617,-4.5769,2.8282,5.798
7.054000,2.1619,-4.6969,2.8599,5.909
7.055000,2.1526,-4.8433,2.8772,6.031
7.056000,2.1024,-5.0041,2.9450,6.175
7.056000,2.0232,-5.1340,3.0705,6.315
7.057000,1.9347,-5.2541,3.0669,6.384
7.057000,1.8125,-5.3573,3.0707,6.435
7.058000,1.7045,-5.3861,3.1299,6.459
7.059000,1.5676,-5.3716,3.1871,6.440
7.064000,1.4327,-5.3018,3.1013,6.307
7.069000,1.2562,-5.1508,3.0379,6.110
7.075000,1.1048,-4.8923,3.0471,5.869
7.079000,0.9619,-4.5679,3.0738,5.589
7.084000,0.8730,-4.1707,2.9243,5.168
7.089000,0.8094,-3.7663,2.7876,4.755
7.093000,0.7107,-3.3703,2.5944,4.312
7.099000,0.6583,-3.0260,2.3543,3.890
7.105000,0.5233,-2.7365,1.9953,3.427
7.108000,0.3845,-2.4807,1.6253,2.991
7.114000,0.1933,-2.2654,1.1609,2.553
7.118000,-0.0095,-2.0285,0.7529,2.164
7.127000,-0.2528,-1.8150,0.3654,1.869
7.129000,-0.4883,-1.5986,-0.0281,1.672
7.135000,-0.7279,-1.5010,-0.3367,1.702
7.172000,-0.8941,-1.3759,-0.6087,1.750
7.173000,-0.9575,-1.3382,-0.8420,1.848
7.174000,-0.9752,-1.2798,-1.0584,1.926
7.175000,-0.9465,-1.1838,-1.3681,2.042
7.175000,-0.8374,-1.1239,-1.5751,2.108
7.176000,-0.7748,-1.0423,-1.7825,2.205
7.176000,-0.7340,-0.9510,-1.9879,2.323
7.177000,-0.7532,-0.8494,-2.1413,2.424
7.178000,-0.8007,-0.7042,-2.2548,2.494
7.183000,-0.9168,-0.5632,-2.3167,2.554
7.190000,-1.1441,-0.4334,-2.2675,2.576
7.193000,-1.4153,-0.3153,-2.1360,2.582
7.198000,-1.7162,-0.2589,-2.0204,2.664
7.204000,-2.0372,-0.1951,-1.8203,2.739
7.209000,-2.2544,-0.0768,-1.6672,2.805
7.212000,-2.4951,-0.0068,-1.5464,2.935
7.217000,-2.8127,0.0023,-1.4195,3.151
7.253000,-3.1834,-0.0228,-1.3030,3.440
7.254000,-3.5573,-0.1016,-1.1920,3.753
7.255000,-3.9014,-0.1765,-1.1844,4.081
7.256000,-4.0799,-0.2379,-1.2033,4.260
7.258000,-4.2225,-0.3310,-1.2365,4.412
7.259000,-4.2453,-0.4028,-1.2650,4.448
7.261000,-4.2397,-0.4558,-1.2861,4.454
7.261000,-4.1916,-0.5496,-1.3428,4.436
7.262000,-4.0437,-0.6575,-1.3919,4.327
7.268000,-3.8393,-0.7290,-1.4358,4.163
7.273000,-3.6075,-0.7305,-1.4815,3.968
7.277000,-3.3552,-0.7096,-1.5672,3.771
7.282000,-3.1163,-0.6399,-1.5923,3.558
7.288000,-2.9117,-0.5786,-1.6505,3.397
7.293000,-2.6621,-0.4444,-1.6674,3.173
7.297000,-2.3532,-0.3116,-1.6004,2.863
7.302000,-2.0633,-0.1155,-1.5500,2.583
7.307000,-1.7227,0.0931,-1.4903,2.280
7.312000,-1.3743,0.3163,-1.5050,2.062
7.317000,-0.9658,0.5488,-1.4672,1.840
7.327000,-0.6026,0.7158,-1.4586,1.733
7.329000,-0.3040,0.8863,-1.4024,1.687
7.331000,-0.0317,1.0167,-1.3468,1.688
7.373000,0.1593,1.1618,-1.4304,1.850
7.374000,0.2736,1.2901,-1.5909,2.066
7.375000,0.3849,1.3181,-1.7898,2.256
7.375000,0.4526,1.3370,-1.9886,2.439
7.376000,0.5409,1.3684,-2.1992,2.646
7.376000,0.6257,1.3721,-2.4477,2.875
7.377000,0.7044,1.3414,-2.7841,3.170
7.377000,0.7294,1.3173,-3.0145,3.370
7.378000,0.7820,1.3099,-3.1941,3.540
7.381000,0.8741,1.3028,-3.3921,3.737
7.386000,1.0009,1.2961,-3.5034,3.867
7.396000,1.1650,1.3379,-3.5972,4.011
7.399000,1.2754,1.4088,-3.7168,4.174
7.402000,1.3373,1.4614,-3.7928,4.279
7.406000,1.3933,1.4791,-3.8632,4.365
7.416000,1.4199,1.5193,-3.8351,4.363
7.417000,1.4392,1.5320,-3.7636,4.311
7.423000,1.4199,1.5720,-3.6177,4.192
7.426000,1.4415,1.6346,-3.4861,4.111
7.432000,1.4801,1.6933,-3.2780,3.975
7.437000,1.4807,1.7356,-3.0845,3.837
7.446000,1.5010,1.7619,-2.9056,3.715
7.447000,1.5576,1.7503,-2.6409,3.530
7.451000,1.5668,1.7318,-2.4412,3.378
7.483000,1.4854,1.7018,-2.1651,3.129
7.485000,1.4353,1.6624,-1.9157,2.914
7.485000,1.3494,1.6570,-1.6689,2.711
7.486000,1.2950,1.6757,-1.3483,2.511
7.487000,1.2335,1.7184,-1.0853,2.377
7.487000,1.1435,1.7181,-0.8921,2.248
7.487000,1.0437,1.7511,-0.6798,2.149
7.492000,0.8863,1.7648,-0.3768,2.010
7.496000,0.6953,1.7400,-0.1100,1.877
7.500000,0.4641,1.6599,0.1683,1.732
7.506000,0.2408,1.6372,0.3601,1.694
7.512000,0.0517,1.6549,0.5370,1.741
7.517000,-0.1270,1.6966,0.7997,1.880
7.521000,-0.2933,1.7043,1.0068,2.001
7.526000,-0.5600,1.6971,1.2184,2.163
7.531000,-0.8124,1.6175,1.4345,2.310
7.535000,-1.0363,1.5538,1.6503,2.492
7.540000,-1.1267,1.4725,1.8516,2.620
7.545000,-1.1701,1.4668,2.0263,2.762
7.553000,-1.1574,1.4337,2.2034,2.872
7.590000,-1.0268,1.4137,2.3949,2.965
7.591000,-0.8238,1.3946,2.5935,3.058
7.592000,-0.5511,1.4196,2.8136,3.199
7.592000,-0.2210,1.4069,2.9979,3.319
7.592000,0.1303,1.4832,3.2038,3.533
7.593000,0.4140,1.5690,3.5699,3.921
7.593000,0.6538,1.6690,3.9360,4.325
7.593000,0.8164,1.6654,4.2612,4.647
7.595000,0.9467,1.6344,4.4404,4.825
7.599000,1.0263,1.5450,4.4713,4.841
7.604000,1.0911,1.4906,4.4473,4.816
7.609000,1.1636,1.4310,4.4234,4.792
7.614000,1.1676,1.3783,4.2296,4.599
7.620000,1.2565,1.4317,3.9311,4.368
7.624000,1.3615,1.4987,3.6259,4.153
7.631000,1.4756,1.6183,3.3525,4.004
7.635000,1.6976,1.6691,3.1155,3.921
7.641000,1.9254,1.6565,3.0007,3.931
7.644000,2.1659,1.6307,2.9076,3.975
7.650000,2.3454,1.5441,2.8431,3.996
7.657000,2.5351,1.4157,2.7549,4.003
7.659000,2.6898,1.3222,2.6620,4.009
7.665000,2.8499,1.2084,2.5597,4.017
7.670000,2.9388,1.0625,2.4695,3.983
7.700000,2.9924,0.9421,2.4298,3.968
7.700000,3.0416,0.8473,2.3258,3.922
7.701000,3.0886,0.7542,2.2368,3.887
7.702000,3.1377,0.6777,2.1676,3.873
7.702000,3.1098,0.6128,2.0897,3.796
7.703000,3.0959,0.5787,2.1035,3.787
7.709000,3.1702,0.5276,2.1897,3.889
7.710000,3.1947,0.5666,2.2832,3.967
7.713000,3.2077,0.5830,2.3625,4.026
7.719000,3.1949,0.6838,2.3532,4.027
7.725000,3.1782,0.8017,2.2169,3.957
7.730000,3.1689,0.9220,2.0522,3.886
7.733000,3.0931,1.0684,1.8492,3.759
7.739000,2.9846,1.2194,1.6343,3.615
7.744000,2.8150,1.3845,1.4885,3.472
7.749000,2.6753,1.5540,1.2947,3.354
7.754000,2.4911,1.7252,1.1509,3.241
7.760000,2.2815,1.8287,1.0450,3.105
7.763000,2.0518,1.8593,1.0175,2.950
7.769000,1.8066,1.8982,0.9055,2.773
7.779000,1.5581,1.8540,0.8071,2.553
7.780000,1.3324,1.7557,0.6721,2.304
7.783000,1.1414,1.6892,0.5411,2.109
7.828000,1.0038,1.5875,0.4168,1.924
7.830000,0.8621,1.5345,0.3517,1.795
7.830000,0.8500,1.4490,0.2527,1.699
7.831000,0.7876,1.3284,0.0794,1.546
7.831000,0.7680,1.2325,-0.0437,1.453
7.831000,0.7052,1.1523,-0.2098,1.367
7.832000,0.6494,1.0063,-0.4166,1.268
7.832000,0.5672,0.8597,-0.6303,1.207
7.832000,0.5307,0.7465,-0.8319,1.237
7.833000,0.4970,0.6648,-0.9736,1.279
7.840000,0.4446,0.5889,-1.1270,1.347
7.842000,0.3948,0.5353,-1.2299,1.398
7.848000,0.3932,0.5452,-1.2177,1.391
7.853000,0.3876,0.5585,-1.1434,1.330
7.859000,0.3735,0.6062,-0.9595,1.195
7.864000,0.4086,0.6471,-0.8363,1.134
7.869000,0.4236,0.7144,-0.7163,1.097
7.878000,0.4470,0.7405,-0.6067,1.057
7.881000,0.4379,0.6987,-0.5290,0.980
7.882000,0.3891,0.6774,-0.5359,0.947
7.889000,0.2816,0.5977,-0.5506,0.860
7.914000,0.1440,0.4908,-0.6353,0.816
7.915000,0.0120,0.4502,-0.7562,0.880
7.916000,-0.1528,0.4190,-0.8628,0.971
7.916000,-0.2862,0.4164,-1.0053,1.125
7.916000,-0.4002,0.4164,-1.1261,1.266
7.917000,-0.4877,0.4194,-1.1652,1.331
7.923000,-0.5323,0.4014,-1.2327,1.401
7.927000,-0.5510,0.3960,-1.2640,1.435
7.932000,-0.5579,0.4197,-1.1897,1.379
7.938000,-0.5511,0.4269,-1.1032,1.305
7.942000,-0.5287,0.4055,-1.1166,1.300
7.947000,-0.5718,0.4553,-1.0889,1.312
7.952000,-0.6326,0.5209,-1.0849,1.360
7.958000,-0.7275,0.5783,-1.1308,1.464
7.963000,-0.7748,0.6964,-1.1816,1.575
7.968000,-0.8197,0.8058,-1.2636,1.708
7.974000,-0.8074,0.8225,-1.3432,1.770
7.977000,-0.8337,0.8591,-1.5352,1.947
7.981000,-0.8963,0.8514,-1.7053,2.106
8.015000,-0.9352,0.8351,-1.8777,2.258
8.017000,-0.9290,0.7413,-2.0330,2.355
8.018000,-0.9448,0.6871,-2.2120,2.502
8.019000,-0.9560,0.6035,-2.3236,2.584
8.019000,-0.9314,0.5528,-2.4065,2.639
8.020000,-0.9355,0.5039,-2.5395,2.753
8.020000,-0.9632,0.4452,-2.6843,2.886
8.024000,-0.9644,0.3982,-2.7932,2.982
8.026000,-0.9606,0.3488,-2.9187,3.092
8.031000,-0.9348,0.2426,-3.0082,3.159
8.037000,-0.9107,0.1750,-3.0739,3.211
8.042000,-0.8957,0.0940,-3.1229,3.250
8.046000,-0.8827,-0.0127,-3.1885,3.308
8.051000,-0.8166,-0.0850,-3.1824,3.287
8.056000,-0.7645,-0.1394,-3.1668,3.261
8.061000,-0.7045,-0.1689,-3.1753,3.257
8.067000,-0.6417,-0.1734,-3.1814,3.250
8.073000,-0.5882,-0.2009,-3.1350,3.196
8.076000,-0.5488,-0.2947,-3.1125,3.174
8.081000,-0.5042,-0.3539,-3.0757,3.137
8.086000,-0.4592,-0.4410,-2.9411,3.009
8.091000,-0.4019,-0.4795,-2.7901,2.859
8.096000,-0.3390,-0.4955,-2.6059,2.674
8.101000,-0.2586,-0.5253,-2.4392,2.508
8.113000,-0.1922,-0.5285,-2.2584,2.327
8.116000,-0.1512,-0.5865,-2.0830,2.169
8.116000,-0.1474,-0.6539,-1.9659,2.077
8.156000,-0.1400,-0.7521,-1.8279,1.982
8.158000,-0.1579,-0.8856,-1.7454,1.964
8.159000,-0.0750,-0.9895,-1.6297,1.908
8.160000,0.0038,-1.0993,-1.4570,1.825
8.160000,0.0641,-1.1815,-1.3086,1.764
8.160000,0.1321,-1.2216,-1.0888,1.642
8.160000,0.2343,-1.2749,-0.7859,1.516
8.161000,0.3900,-1.2792,-0.5147,1.433
8.161000,0.4844,-1.3472,-0.2946,1.462
8.165000,0.4717,-1.4193,-0.1371,1.502
8.171000,0.4570,-1.4739,0.0368,1.544
8.176000,0.4523,-1.5997,0.2606,1.683
8.180000,0.4003,-1.7292,0.4098,1.822
8.185000,0.4304,-1.8289,0.5778,1.966
8.191000,0.4589,-1.8483,0.7525,2.048
8.196000,0.5048,-1.8757,0.9053,2.143
8.201000,0.5680,-1.9233,1.0936,2.284
8.210000,0.6817,-1.9840,1.2673,2.451
8.212000,0.8475,-1.9979,1.4985,2.637
8.214000,0.9838,-2.0298,1.6916,2.820
8.219000,1.1069,-2.0655,1.9186,3.029
8.256000,1.2245,-2.0955,2.1911,3.270
8.258000,1.3342,-2.0723,2.4230,3.456
8.259000,1.4190,-2.0080,2.6263,3.598
8.259000,1.4814,-1.9318,2.8417,3.742
8.260000,1.5593,-1.9038,3.0359,3.908
8.260000,1.6408,-1.8979,3.2351,4.094
8.261000,1.7188,-1.9310,3.3364,4.221
8.261000,1.7360,-1.9892,3.3590,4.272
8.266000,1.7039,-2.1347,3.4659,4.413
8.270000,1.6247,-2.3577,3.4967,4.519
8.275000,1.4987,-2.5673,3.4897,4.584
8.280000,1.3645,-2.7395,3.4403,4.605
8.285000,1.3564,-2.8833,3.3553,4.627
8.289000,1.3095,-3.0775,3.2491,4.663
8.295000,1.2452,-3.2829,3.1195,4.697
8.300000,1.2208,-3.4945,3.0168,4.775
8.304000,1.2265,-3.7358,3.0081,4.951
8.310000,1.2502,-3.9992,3.0310,5.171
8.314000,1.2731,-4.2774,3.0784,5.422
8.320000,1.2884,-4.5272,3.0879,5.629
8.349000,1.3015,-4.8059,3.0615,5.845
8.350000,1.3347,-4.9674,2.9942,5.952
8.350000,1.3906,-5.0615,2.8814,5.988
8.351000,1.4258,-5.1501,2.8116,6.038
8.351000,1.4931,-5.1422,2.7968,6.041
8.352000,1.6547,-5.0569,2.8441,6.033
8.354000,1.8338,-4.8325,2.9032,5.928
8.359000,2.0158,-4.5242,2.9886,5.785
8.363000,2.1457,-4.1662,3.0859,5.611
8.369000,2.1943,-3.6733,3.1426,5.309
8.373000,2.1423,-3.2619,3.1349,5.006
8.379000,1.9704,-2.9017,3.0987,4.680
8.385000,1.7194,-2.5721,2.9885,4.302
8.389000,1.4546,-2.2854,2.7157,3.836
8.393000,1.2303,-2.0132,2.4359,3.391
8.398000,0.9553,-1.7511,2.0824,2.884
8.407000,0.7320,-1.5033,1.7369,2.411
8.410000,0.5622,-1.2580,1.4066,1.969
8.413000,0.3645,-1.0722,1.0607,1.552
8.419000,0.1197,-0.8885,0.7994,1.201
8.465000,-0.1024,-0.7837,0.6010,0.993
8.466000,-0.2677,-0.7170,0.4843,0.906
8.466000,-0.4239,-0.6575,0.2960,0.836
8.466000,-0.4988,-0.6004,0.1267,0.791
8.467000,-0.5423,-0.5435,-0.0859,0.773
8.467000,-0.5902,-0.5130,-0.2293,0.815
8.468000,-0.6139,-0.5037,-0.3945,0.887
8.468000,-0.6921,-0.5368,-0.5982,1.061
8.469000,-0.7576,-0.5472,-0.8213,1.244
8.469000,-0.8985,-0.5704,-0.9395,1.420
8.475000,-1.0639,-0.5651,-1.0200,1.578
8.478000,-1.2941,-0.5024,-1.1013,1.772
8.483000,-1.6537,-0.4539,-1.1235,2.050
8.489000,-2.0540,-0.4791,-1.1034,2.380
8.493000,-2.4281,-0.5058,-1.0697,2.701
8.498000,-2.7543,-0.5126,-1.0176,2.981
8.504000,-3.0375,-0.5352,-0.9855,3.238
8.508000,-3.1868,-0.5401,-0.9303,3.363
8.520000,-3.2890,-0.5130,-0.8565,3.437
8.521000,-3.3468,-0.4591,-0.7641,3.463
8.528000,-3.3103,-0.4002,-0.6841,3.404
8.529000,-3.2303,-0.3268,-0.6929,3.320
8.533000,-3.1431,-0.2347,-0.7328,3.236
8.543000,-3.0825,-0.2147,-0.7343,3.176
8.547000,-2.9890,-0.1906,-0.8121,3.103
8.549000,-2.9011,-0.1837,-0.8466,3.028
8.552000,-2.7663,-0.1440,-1.0026,2.946
8.601000,-2.6397,-0.1669,-1.1366,2.879
8.602000,-2.5189,-0.1374,-1.3442,2.858
8.602000,-2.3990,-0.1103,-1.4771,2.819
8.602000,-2.2560,-0.0736,-1.6669,2.806
8.603000,-2.0924,0.0159,-1.8537,2.795
8.603000,-1.9318,0.0888,-2.0711,2.834
8.603000,-1.7770,0.1741,-2.1946,2.829
8.603000,-1.5415,0.2762,-2.2460,2.738
8.604000,-1.3115,0.4167,-2.2995,2.680
8.604000,-1.1109,0.5664,-2.4221,2.724
8.608000,-0.9775,0.6557,-2.5087,2.771
8.613000,-0.8733,0.7441,-2.6168,2.857
8.617000,-0.6977,0.8122,-2.7606,2.961
8.625000,-0.5989,0.8983,-2.8971,3.092
8.628000,-0.4956,0.9568,-3.0623,3.246
8.632000,-0.4311,0.9254,-3.2918,3.446
8.636000,-0.3981,0.9026,-3.5090,3.645
8.648000,-0.3898,0.8744,-3.6708,3.794
8.649000,-0.3943,0.8361,-3.9206,4.028
8.651000,-0.3992,0.8024,-4.1101,4.207
8.683000,-0.3378,0.7450,-4.2728,4.350
8.684000,-0.2672,0.7288,-4.4255,4.493
8.684000,-0.2211,0.7182,-4.4223,4.486
8.685000,-0.1393,0.6699,-4.6102,4.661
8.685000,-0.1255,0.6824,-4.7400,4.791
8.685000,-0.0840,0.7556,-4.6396,4.701
8.687000,-0.0783,0.7268,-4.6492,4.706
8.692000,-0.0944,0.6872,-4.6754,4.727
8.697000,-0.1129,0.6561,-4.6845,4.732
8.701000,-0.1959,0.6147,-4.6027,4.648
8.707000,-0.2091,0.6706,-4.4061,4.462
8.711000,-0.2171,0.6779,-4.1834,4.244
8.717000,-0.2629,0.7248,-4.0208,4.094
8.722000,-0.2816,0.7921,-3.8130,3.905
8.726000,-0.3235,0.7982,-3.5722,3.675
8.731000,-0.2883,0.7715,-3.2721,3.374
8.735000,-0.2356,0.7958,-2.9822,3.096
8.740000,-0.1654,0.8110,-2.6952,2.819
8.745000,-0.1305,0.8027,-2.4399,2.572
8.750000,-0.1023,0.8088,-2.2114,2.357
8.760000,-0.0881,0.8009,-2.0479,2.201
8.761000,-0.0857,0.7431,-1.8080,1.957
8.765000,-0.1166,0.6640,-1.4921,1.637
8.798000,-0.1158,0.6689,-1.2196,1.396
8.799000,-0.1387,0.6333,-1.0146,1.204
8.800000,-0.2017,0.5742,-0.7909,0.998
8.802000,-0.2497,0.5034,-0.5508,0.787
8.802000,-0.2613,0.4306,-0.3375,0.606
8.802000,-0.2818,0.4229,-0.1868,0.541
8.803000,-0.3858,0.3536,-0.0961,0.532
8.808000,-0.4495,0.2564,-0.0075,0.518
8.810000,-0.5279,0.2415,0.1673,0.604
8.816000,-0.6307,0.1965,0.3806,0.762
8.822000,-0.6788,0.1550,0.5844,0.909
8.825000,-0.6821,0.0907,0.7214,0.997
8.830000,-0.6217,0.0295,0.8634,1.064
8.836000,-0.5360,0.0147,1.0034,1.138
8.841000,-0.4249,0.0004,1.1939,1.267
8.845000,-0.2834,0.0297,1.3964,1.425
8.850000,-0.1473,0.0761,1.4530,1.462
8.859000,0.0527,0.1036,1.4405,1.445
8.860000,0.2854,0.1628,1.5360,1.571
8.865000,0.5511,0.2843,1.5908,1.707
8.870000,0.8116,0.4468,1.6051,1.853
8.894000,1.1021,0.5760,1.6125,2.036
8.895000,1.3340,0.7172,1.6562,2.244
8.896000,1.5266,0.8583,1.7313,2.463
8.896000,1.7133,0.9944,1.8018,2.678
8.896000,1.7990,1.1210,1.9227,2.862
8.899000,1.8768,1.2494,2.0580,3.053
8.904000,1.9234,1.3744,2.2313,3.251
8.910000,1.9149,1.4151,2.4115,3.389
8.915000,1.8678,1.3662,2.6465,3.516
8.919000,1.7344,1.1752,2.8859,3.566
8.925000,1.6800,0.9429,3.1345,3.679
8.930000,1.5968,0.7457,3.3204,3.759
8.935000,1.6146,0.5674,3.4821,3.880
8.940000,1.6257,0.4415,3.5810,3.957
8.945000,1.6660,0.3295,3.6749,4.048
8.950000,1.7158,0.1843,3.6849,4.069
8.964000,1.8008,0.0609,3.6880,4.105
8.965000,1.8869,-0.0478,3.6820,4.138
8.965000,1.9190,-0.1345,3.7699,4.232
8.969000,1.9330,-0.1750,3.8680,4.328
8.995000,1.9913,-0.2531,4.0095,4.484
8.996000,1.9916,-0.3117,4.1798,4.640
8.996000,1.9794,-0.3579,4.2976,4.745
8.997000,1.9974,-0.3704,4.3583,4.808
8.997000,2.0574,-0.4044,4.4456,4.915
9.000000,2.1665,-0.4215,4.5477,5.055
9.005000,2.3271,-0.3695,4.6261,5.192
9.009000,2.5321,-0.2986,4.6331,5.288
9.013000,2.7214,-0.2684,4.6070,5.357
9.019000,2.8526,-0.2646,4.5692,5.393
9.024000,2.9565,-0.1840,4.4626,5.356
9.029000,3.0309,-0.0553,4.2537,5.223
9.034000,3.0712,0.1217,4.0694,5.100
9.038000,3.1299,0.4212,3.8572,4.985
9.044000,3.1763,0.8095,3.6503,4.906
9.048000,3.2512,1.2363,3.4607,4.907
9.054000,3.3024,1.7200,3.2427,4.938
9.059000,3.3418,2.2839,3.1323,5.118
9.064000,3.3863,2.7695,3.0027,5.306
9.068000,3.3904,3.1735,2.9229,5.487
9.078000,3.3202,3.5309,2.9694,5.684
9.080000,3.1707,3.7692,3.0009,5.768
9.083000,2.9009,3.8897,3.0722,5.743
9.133000,2.5896,3.8797,3.0877,5.594
9.136000,2.2989,3.8058,2.9875,5.357
9.139000,1.8872,3.5838,2.8078,4.928
9.142000,1.5406,3.2951,2.5369,4.435
9.142000,1.1729,3.0023,2.2040,3.905
9.143000,0.7577,2.6768,1.8212,3.325
9.143000,0.4654,2.3102,1.3552,2.718
9.143000,0.2448,1.9051,0.7754,2.071
9.144000,0.1008,1.5852,0.1757,1.598
9.144000,-0.0169,1.2513,-0.3431,1.298
9.144000,-0.1231,0.9542,-0.8000,1.251
9.145000,-0.2248,0.6784,-1.1659,1.368
9.147000,-0.3118,0.4180,-1.4747,1.564
9.154000,-0.3049,0.1518,-1.6762,1.710
9.158000,-0.3188,-0.0602,-1.7873,1.817
9.163000,-0.2783,-0.2269,-1.7870,1.823
9.168000,-0.1923,-0.3604,-1.7047,1.753
9.173000,-0.0955,-0.4363,-1.6101,1.671
9.179000,-0.0309,-0.5037,-1.4583,1.543
9.183000,0.0672,-0.4640,-1.3957,1.472
9.191000,0.0694,-0.4449,-1.4199,1.490
9.192000,0.0245,-0.3507,-1.4140,1.457
9.197000,-0.0813,-0.2673,-1.3235,1.353
9.202000,-0.2791,-0.2003,-1.2728,1.318
9.226000,-0.5566,-0.1038,-1.1545,1.286
9.227000,-0.7853,-0.0051,-1.0282,1.294
9.227000,-0.9842,0.1363,-0.8845,1.330
9.227000,-1.1511,0.1889,-0.8500,1.443
9.227000,-1.3010,0.2520,-0.9556,1.634
9.232000,-1.4444,0.2876,-1.0785,1.825
9.237000,-1.5794,0.2649,-1.1777,1.988
9.243000,-1.8267,0.2505,-1.2743,2.241
9.247000,-2.0237,0.2595,-1.4397,2.497
9.252000,-2.2310,0.2439,-1.5133,2.707
9.258000,-2.4227,0.2311,-1.5498,2.885
9.262000,-2.5032,0.1782,-1.6807,3.020
9.266000,-2.5474,0.1281,-1.7599,3.099
9.272000,-2.6053,0.0191,-1.7753,3.153
9.277000,-2.6509,-0.0700,-1.8178,3.215
9.282000,-2.6480,-0.2064,-1.8255,3.223
9.287000,-2.5840,-0.3085,-1.8154,3.173
9.291000,-2.4615,-0.3408,-1.9239,3.143
9.296000,-2.3227,-0.3843,-2.0269,3.107
9.301000,-2.1319,-0.3988,-2.1196,3.033
9.349000,-1.8238,-0.4128,-2.2169,2.900
9.350000,-1.5484,-0.3973,-2.2594,2.768
9.350000,-1.3105,-0.4005,-2.2856,2.665
9.350000,-1.0591,-0.3165,-2.3245,2.574
9.350000,-0.8350,-0.2367,-2.3618,2.516
9.350000,-0.6690,-0.1823,-2.3833,2.482
9.351000,-0.5180,-0.1696,-2.3053,2.369
9.351000,-0.3867,-0.1704,-2.0683,2.111
9.351000,-0.2489,-0.1673,-1.8088,1.833
9.351000,-0.1169,-0.1396,-1.4691,1.480
9.360000,-0.0360,-0.1377,-1.0973,1.106
9.363000,0.0030,-0.1619,-0.7147,0.733
9.367000,-0.0360,-0.2202,-0.3952,0.454
9.373000,-0.1529,-0.2984,-0.0503,0.339
9.377000,-0.3570,-0.4153,0.2530,0.603
9.382000,-0.6172,-0.5330,0.5005,0.957
9.386000,-0.8473,-0.6127,0.6562,1.234
9.393000,-0.9616,-0.6855,0.7397,1.393
9.396000,-0.9674,-0.7032,0.8083,1.444
9.402000,-0.9652,-0.6633,0.8143,1.426
9.408000,-0.9982,-0.6377,0.8104,1.435
9.411000,-1.1099,-0.6404,0.7443,1.482
9.416000,-1.2668,-0.7074,0.7287,1.624
9.460000,-1.3857,-0.7095,0.6943,1.705
9.462000,-1.5121,-0.7346,0.5982,1.784
9.462000,-1.5869,-0.7019,0.4888,1.803
9.463000,-1.7011,-0.6662,0.3875,1.868
9.463000,-1.8147,-0.6853,0.2399,1.955
9.463000,-1.8251,-0.6993,0.0701,1.956
9.465000,-1.8785,-0.7367,-0.0380,2.018
9.466000,-1.9629,-0.7857,-0.2016,2.124
9.466000,-1.9753,-0.8414,-0.3491,2.175
9.466000,-1.9687,-0.8992,-0.5663,2.237
9.471000,-1.9233,-0.9806,-0.6956,2.268
9.476000,-1.8865,-1.0423,-0.7784,2.292
9.481000,-1.8412,-1.0678,-0.9342,2.324
9.485000,-1.7009,-1.1264,-1.1563,2.345
9.491000,-1.5584,-1.1367,-1.3372,2.347
9.495000,-1.4109,-1.1422,-1.4510,2.324
9.500000,-1.3198,-1.1401,-1.5917,2.361
9.507000,-1.2991,-1.1236,-1.7281,2.437
9.510000,-1.2864,-1.1025,-1.8057,2.476
9.515000,-1.2740,-1.1097,-1.7673,2.445
9.557000,-1.3550,-1.0933,-1.7782,2.489
9.559000,-1.4478,-1.0744,-1.7119,2.486
9.560000,-1.5975,-1.0743,-1.6858,2.559
9.560000,-1.7133,-1.0169,-1.6544,2.590
9.560000,-1.8527,-0.9378,-1.6942,2.680
9.561000,-1.9467,-0.8871,-1.6303,2.690
9.562000,-2.0599,-0.8720,-1.5609,2.728
9.562000,-2.2164,-0.8471,-1.4737,2.793
9.562000,-2.3473,-0.8503,-1.3975,2.861
9.566000,-2.4766,-0.8310,-1.3297,2.931
9.572000,-2.5810,-0.8038,-1.2268,2.969
9.575000,-2.6200,-0.7564,-1.1078,2.943
9.581000,-2.6730,-0.7179,-0.9989,2.942
9.585000,-2.6853,-0.6811,-0.9285,2.922
9.591000,-2.7143,-0.6768,-0.8655,2.928
9.596000,-2.7555,-0.6813,-0.8407,2.960
9.601000,-2.6535,-0.6727,-0.7800,2.846
9.607000,-2.5590,-0.6053,-0.6908,2.719
9.610000,-2.4960,-0.5821,-0.6328,2.640
9.614000,-2.4380,-0.5120,-0.5296,2.547
9.619000,-2.3489,-0.4717,-0.3407,2.420
9.658000,-2.2502,-0.4202,-0.1335,2.293
9.659000,-2.1054,-0.3649,0.0775,2.138
9.659000,-1.9266,-0.2842,0.3615,1.981
9.660000,-1.7858,-0.2023,0.6253,1.903
9.660000,-1.6401,-0.1165,0.8669,1.859
9.660000,-1.4850,-0.0487,1.1580,1.884
9.660000,-1.2392,0.0588,1.4532,1.911
9.661000,-1.0466,0.0718,1.6428,1.949
9.663000,-0.9074,0.0837,1.7821,2.002
9.668000,-0.7023,0.0517,1.9359,2.060
9.674000,-0.4407,-0.0218,2.0465,2.094
9.680000,-0.1992,-0.0146,2.2097,2.219
9.684000,0.0726,0.0110,2.3823,2.383
9.689000,0.3628,-0.0308,2.5450,2.571
9.694000,0.7459,-0.0542,3.4364,3.517
9.699000,0.1089,-0.4136,5.0843,5.102
9.705000,-1.3793,-1.0651,5.3821,5.657
9.709000,-2.7456,-1.8208,4.5278,5.599
9.714000,-2.2454,-2.3331,4.1103,5.233
9.718000,0.4121,-2.2912,3.3854,4.109
9.728000,4.0642,-1.4863,2.2325,4.869
9.735000,6.8458,-0.4616,1.5173,7.027
9.736000,7.7403,0.1099,0.9732,7.802
9.774000,6.7076,0.0977,0.9322,6.773
9.776000,4.8887,-0.3279,1.6718,5.177
9.777000,3.4454,-0.7625,2.7476,4.472
9.777000,2.8839,-0.8821,3.7138,4.784
9.778000,3.1642,-0.7086,4.5411,5.580
9.779000,3.7530,-0.4478,4.9864,6.257
9.779000,4.1626,-0.2675,5.2510,6.706
9.779000,4.3037,-0.2046,5.4963,6.984
9.780000,4.1595,-0.2268,5.8018,7.142
9.784000,3.9491,-0.2757,5.9249,7.126
9.789000,3.7827,-0.1783,5.8060,6.932
9.793000,3.6424,0.0895,5.6640,6.735
9.798000,3.5002,0.4713,5.5692,6.595
9.804000,3.2368,0.8349,5.5352,6.466
9.808000,2.9724,1.1509,5.7187,6.547
9.813000,2.8682,1.5029,5.9723,6.794
9.818000,2.7778,1.7717,6.1661,6.991
9.823000,2.6593,1.8874,6.2294,7.031
9.828000,2.5997,1.9801,6.1823,6.993
9.833000,2.6222,2.0241,5.9870,6.842
9.844000,2.7125,1.9971,5.6078,6.542
9.845000,2.7954,1.9215,5.0621,6.094
9.847000,2.8681,1.7184,4.4172,5.540
9.853000,2.8995,1.5289,3.7092,4.950
9.890000,2.8858,1.3581,2.9399,4.338
9.891000,2.8614,1.1662,2.2139,3.801
9.891000,2.7755,0.9419,1.4728,3.280
9.892000,2.6149,0.6979,0.7589,2.811
9.892000,2.4361,0.4114,0.1980,2.479
9.892000,2.2129,0.1195,-0.2641,2.232
9.892000,2.0285,-0.1219,-0.7701,2.173
9.893000,1.7864,-0.3641,-1.2374,2.203
9.898000,1.4955,-0.5866,-1.6217,2.283
9.902000,1.2113,-0.7140,-1.9189,2.379
9.907000,0.9171,-0.7544,-2.0934,2.407
9.913000,0.6170,-0.7624,-2.0852,2.304
9.918000,0.4077,-0.6824,-1.8339,1.999
9.924000,0.3621,-0.5824,-1.2003,1.382
9.928000,0.3666,-0.4585,-0.4735,0.754
9.931000,0.3189,-0.3407,0.2520,0.530
9.937000,0.2911,-0.1633,0.9586,1.015
9.970000,0.2165,-0.0595,1.6885,1.703
9.972000,0.0245,-0.0618,2.2897,2.291
9.972000,-0.3357,-0.1855,2.6073,2.635
9.973000,-0.7543,-0.3283,2.9434,3.056
9.973000,-1.1178,-0.4863,3.5104,3.716
9.973000,-1.5056,-0.7889,3.6276,4.006
9.974000,-1.9147,-1.1549,3.5152,4.166
9.978000,-2.2675,-1.5477,3.2209,4.232
9.981000,-2.4694,-1.8402,2.6410,4.057
9.986000,-2.6411,-2.0357,1.8586,3.818
9.993000,-2.7229,-2.1576,0.9720,3.608
9.997000,-2.6694,-2.2588,0.2417,3.505
10.002000,-2.6070,-2.3199,-0.3737,3.510
10.007000,-2.4709,-2.3398,-0.9079,3.522
10.012000,-2.4071,-2.4064,-1.3517,3.662
10.016000,-2.3559,-2.4794,-1.6787,3.810
10.023000,-2.3243,-2.5940,-1.9898,4.011
10.026000,-2.3100,-2.7219,-2.2801,4.236
10.031000,-2.3322,-2.8722,-2.4850,4.457
10.037000,-2.3143,-3.0061,-2.6813,4.646
10.042000,-2.3762,-3.1407,-2.8235,4.846
10.046000,-2.3788,-3.1934,-2.9479,4.954
10.052000,-2.3650,-3.1954,-3.0380,5.003
10.063000,-2.3205,-3.2251,-3.0845,5.030
10.067000,-2.2261,-3.1535,-3.1162,4.961
10.067000,-2.1202,-3.0377,-3.0997,4.830
10.114000,-2.0984,-2.9376,-3.0494,4.726
10.117000,-2.1344,-2.8873,-2.8385,4.577
10.118000,-2.1323,-2.7796,-2.5367,4.325
10.123000,-2.0920,-2.6628,-2.2539,4.068
10.124000,-2.0520,-2.5260,-1.9085,3.773
10.124000,-2.0417,-2.4243,-1.6673,3.581
10.125000,-1.9942,-2.2963,-1.2886,3.303
10.126000,-1.9767,-2.1211,-0.9277,3.044
10.126000,-1.9822,-1.9138,-0.6894,2.840
10.127000,-2.0297,-1.6995,-0.4608,2.687
10.127000,-2.1007,-1.5695,-0.2894,2.638
10.128000,-2.2377,-1.4814,-0.2180,2.692
10.132000,-2.4701,-1.4136,-0.2820,2.860
10.136000,-2.7941,-1.3964,-0.4949,3.163
10.141000,-3.1121,-1.3243,-0.8564,3.489
10.146000,-3.3196,-1.2635,-1.2128,3.753
10.151000,-3.4477,-1.1996,-1.6265,3.996
10.159000,-3.5155,-1.1939,-2.0331,4.233
10.161000,-3.5304,-1.2336,-2.3778,4.432
10.165000,-3.5571,-1.2538,-2.6727,4.623
10.207000,-3.5913,-1.2585,-3.0111,4.853
10.208000,-3.6088,-1.2667,-3.3356,5.075
10.208000,-3.6865,-1.2922,-3.6129,5.321
10.209000,-3.9034,-1.2766,-3.9030,5.666
10.209000,-4.2040,-1.2679,-4.0579,5.979
10.210000,-4.3916,-1.2291,-4.1118,6.140
10.210000,-4.4561,-1.0984,-3.9936,6.084
10.211000,-4.4252,-0.8616,-3.7448,5.861
10.211000,-4.3604,-0.6150,-3.4784,5.612
10.215000,-4.2564,-0.3695,-3.1512,5.309
10.220000,-4.1944,-0.1185,-2.7991,5.044
10.225000,-4.1380,0.0533,-2.4127,4.790
10.231000,-4.2191,0.1259,-2.1084,4.718
10.235000,-4.2989,0.1157,-1.8813,4.694
10.240000,-4.4251,0.0796,-1.7143,4.746
10.245000,-4.4807,0.0512,-1.6527,4.776
10.249000,-4.5376,-0.0123,-1.6892,4.842
10.257000,-4.5284,-0.0868,-1.8335,4.886
10.260000,-4.4818,-0.0926,-2.1050,4.952
10.264000,-4.3501,-0.0915,-2.3792,4.959
10.321000,-4.0884,-0.0397,-2.5701,4.829
10.322000,-3.8240,0.0416,-2.6155,4.633
10.323000,-3.6290,0.0978,-2.6565,4.498
10.323000,-3.5707,0.1312,-2.5687,4.401
10.324000,-3.5108,0.1777,-2.3422,4.224
10.325000,-3.5572,0.2637,-2.1778,4.179
10.327000,-3.7293,0.2979,-1.9797,4.233
10.328000,-3.9007,0.2582,-1.6922,4.260
10.328000,-4.0906,0.2190,-1.4254,4.337
10.329000,-4.2728,0.1223,-1.1122,4.417
10.330000,-4.3944,-0.0056,-0.8269,4.472
10.331000,-4.5340,-0.1313,-0.6891,4.588
10.332000,-4.6842,-0.2958,-0.6270,4.735
10.334000,-4.7565,-0.3887,-0.6452,4.816
10.340000,-4.7557,-0.4817,-0.6532,4.824
10.344000,-4.6860,-0.5840,-0.7253,4.778
10.349000,-4.6953,-0.6761,-0.7855,4.808
10.365000,-4.6418,-0.7699,-0.8319,4.778
10.366000,-4.6238,-0.8769,-0.9147,4.794
10.366000,-4.5859,-0.9774,-0.8765,4.770
10.369000,-4.4322,-1.0359,-0.7726,4.617
10.426000,-4.1694,-1.0304,-0.6490,4.344
10.427000,-3.8565,-0.9927,-0.5347,4.018
10.428000,-3.5529,-0.9252,-0.4492,3.699
10.429000,-3.2846,-0.8811,-0.4282,3.428
10.429000,-3.0375,-0.8919,-0.3971,3.191
10.430000,-2.8628,-0.9434,-0.3337,3.033
10.430000,-2.7484,-1.0907,-0.2428,2.967
10.430000,-2.7021,-1.1489,-0.0932,2.938
10.431000,-2.7819,-1.1972,0.0797,3.030
10.431000,-2.9664,-1.2397,0.2542,3.225
10.432000,-3.1842,-1.2259,0.4185,3.438
10.432000,-3.2678,-1.2007,0.5938,3.532
10.433000,-3.2790,-1.1352,0.7653,3.553
10.438000,-3.1585,-1.1058,0.8854,3.462
10.443000,-3.0760,-1.0817,1.0474,3.425
10.448000,-2.9692,-1.0660,1.3090,3.416
10.454000,-2.6158,-1.0331,1.6941,3.283
10.458000,-2.3305,-1.0081,2.2577,3.398
10.464000,-2.1626,-0.9325,2.8320,3.683
10.469000,-1.9677,-0.8579,3.2451,3.891
10.474000,-1.8265,-0.7827,3.4663,3.996
10.478000,-1.8374,-0.8224,3.4389,3.985
10.482000,-2.0196,-1.0797,3.2663,3.989
10.530000,-2.2477,-1.4504,3.0831,4.082
10.533000,-2.4330,-1.8142,2.7453,4.092
10.534000,-2.5641,-2.1524,2.3412,4.085
10.534000,-2.6670,-2.4326,1.9154,4.086
10.534000,-2.7235,-2.7448,1.5124,4.152
10.535000,-2.7431,-3.0255,1.1077,4.231
10.535000,-2.5364,-3.3200,0.8922,4.272
10.539000,-2.3695,-3.6063,0.8228,4.393
10.540000,-2.3795,-3.9558,0.8349,4.691
10.540000,-2.2191,-4.1961,1.0217,4.855
10.541000,-1.7633,-4.1861,1.5150,4.788
10.544000,-1.2618,-4.0148,2.1155,4.710
10.548000,-0.9229,-3.8461,2.5725,4.718
10.553000,-0.6972,-3.8001,2.8512,4.802
10.558000,-0.6346,-3.9871,3.1529,5.123
10.562000,-0.7055,-4.2132,3.3370,5.421
10.568000,-0.8285,-4.4087,3.3226,5.582
10.574000,-0.9752,-4.6045,3.1560,5.667
10.579000,-1.2413,-4.8647,2.9696,5.833
10.582000,-1.5061,-5.0183,2.9666,6.021
10.617000,-1.5676,-5.1082,3.3023,6.281
10.618000,-1.5299,-5.0409,3.7780,6.483
10.619000,-1.3882,-4.8909,4.2521,6.628
10.619000,-1.1363,-4.8170,4.6129,6.766
10.619000,-0.7025,-4.7834,4.8701,6.862
10.620000,-0.0688,-4.8202,5.0667,6.994
10.620000,0.8571,-4.7848,5.0713,7.025
10.622000,1.7477,-4.7925,4.9200,7.087
10.627000,2.4884,-4.8468,4.7518,7.229
10.631000,3.2094,-4.8489,4.5019,7.354
10.636000,3.9021,-4.7247,4.1198,7.384
10.642000,4.5725,-4.5073,3.6122,7.367
10.648000,5.1924,-4.2674,3.2227,7.454
10.652000,5.7698,-3.9857,3.0393,7.643
10.659000,6.2670,-3.7645,2.9466,7.882
10.661000,6.6398,-3.5373,2.9588,8.084
10.666000,6.8220,-3.4768,2.9753,8.215
10.672000,6.8050,-3.4443,2.9408,8.174
10.677000,6.6708,-3.4761,2.9201,8.069
10.681000,6.4847,-3.5130,2.9132,7.930
10.686000,6.2974,-3.5857,2.9389,7.820
10.692000,6.1003,-3.6111,2.9541,7.680
10.696000,5.9867,-3.6080,3.0517,7.627
10.701000,5.9659,-3.5266,3.1267,7.603
10.753000,5.8841,-3.4201,3.1532,7.501
10.755000,5.7429,-3.3791,3.2032,7.393
10.756000,5.5221,-3.3349,3.2030,7.202
10.756000,5.3027,-3.3661,3.1672,7.034
10.757000,5.0219,-3.4536,3.0839,6.831
10.758000,4.6485,-3.5777,3.0466,6.610
10.759000,4.2716,-3.6064,3.0356,6.361
10.759000,3.8475,-3.5297,3.0175,6.031
10.760000,3.3754,-3.4697,3.0715,5.733
10.762000,2.8881,-3.4115,3.2359,5.518
10.762000,2.4128,-3.4492,3.4490,5.442
10.763000,1.9299,-3.4655,3.7395,5.451
10.766000,1.6040,-3.4419,3.9929,5.510
10.773000,1.3624,-3.4029,4.1976,5.573
10.777000,1.1236,-3.4185,4.3130,5.617
10.782000,0.9186,-3.4846,4.3587,5.655
10.787000,0.7842,-3.5602,4.2961,5.634
10.794000,0.7280,-3.5763,3.9723,5.394
10.796000,0.7604,-3.5612,3.5592,5.092
10.801000,0.8505,-3.5430,3.0568,4.756
10.807000,0.9658,-3.5138,2.5245,4.433
10.810000,1.0637,-3.4847,2.0027,4.158
10.815000,1.1899,-3.4334,1.4863,3.926
10.819000,1.4568,-3.3331,1.1116,3.804
10.859000,1.8089,-3.1885,0.9596,3.789
10.860000,2.2598,-2.9664,0.9753,3.854
10.861000,2.5816,-2.7580,0.9987,3.908
10.861000,2.7461,-2.6214,1.0919,3.950
10.861000,2.7775,-2.5776,1.1783,3.968
10.862000,2.7937,-2.5286,1.2338,3.965
10.862000,2.7503,-2.4865,1.3633,3.950
10.862000,2.7071,-2.4632,1.4975,3.954
10.866000,2.5211,-2.4971,1.5643,3.878
10.871000,2.2151,-2.6386,1.5064,3.760
10.875000,1.8779,-2.7699,1.4502,3.647
10.880000,1.5632,-2.8719,1.3669,3.544
10.890000,1.3887,-2.9681,1.2322,3.501
10.891000,1.2837,-2.9773,1.1246,3.432
10.896000,1.2414,-2.9930,0.9891,3.388
10.901000,1.1562,-3.0383,0.8757,3.367
10.907000,1.1068,-2.9985,0.7608,3.286
10.910000,1.0690,-2.9308,0.6060,3.178
10.914000,1.1186,-2.8827,0.4069,3.119
10.919000,1.1740,-2.7706,0.2426,3.019
10.965000,1.3374,-2.6687,0.0654,2.986
10.966000,1.5012,-2.5885,-0.0267,2.992
10.967000,1.7294,-2.5066,-0.1003,3.047
10.967000,2.0481,-2.3679,-0.1556,3.135
10.968000,2.3462,-2.2305,-0.1489,3.241
10.968000,2.6332,-2.0922,-0.1569,3.367
10.968000,2.8698,-1.9248,-0.1097,3.457
10.969000,3.1102,-1.7865,-0.1241,3.589
10.969000,3.3398,-1.6078,-0.0830,3.708
10.970000,3.4528,-1.4542,-0.1080,3.748
10.975000,3.4206,-1.3207,-0.2038,3.672
10.979000,3.3576,-1.1741,-0.2746,3.567
10.985000,3.2973,-1.0647,-0.3419,3.482
10.988000,3.1973,-0.9109,-0.3677,3.345
10.995000,3.1223,-0.7414,-0.3904,3.233
11.000000,3.0412,-0.5687,-0.4123,3.121
11.005000,2.9494,-0.4022,-0.4671,3.013
11.009000,2.8278,-0.2633,-0.4758,2.880
11.014000,2.7126,-0.1903,-0.5007,2.765
11.020000,2.5564,-0.1140,-0.6136,2.632
11.025000,2.4286,-0.0943,-0.6974,2.528
11.029000,2.3244,-0.0781,-0.8716,2.484
11.033000,2.2273,-0.0752,-1.0071,2.446
11.072000,2.1281,-0.0799,-1.1542,2.422
11.074000,2.1081,-0.0159,-1.3777,2.518
11.074000,2.0549,-0.0006,-1.5482,2.573
11.075000,2.0782,0.0192,-1.7185,2.697
11.075000,2.1014,0.0697,-1.8596,2.807
11.075000,2.1748,0.1272,-1.9479,2.922
11.076000,2.2839,0.1842,-2.0336,3.064
11.076000,2.3470,0.2237,-2.1645,3.201
11.078000,2.4190,0.1911,-2.3164,3.355
11.084000,2.4896,0.1963,-2.4485,3.497
11.090000,2.5183,0.2227,-2.5108,3.563
11.094000,2.5171,0.3130,-2.6084,3.638
11.098000,2.4816,0.3787,-2.6769,3.670
11.103000,2.4139,0.4006,-2.7258,3.663
11.112000,2.2353,0.4052,-2.7983,3.604
11.113000,2.1492,0.3998,-2.9061,3.637
11.118000,2.0241,0.3723,-2.9036,3.559
11.124000,1.9083,0.3109,-2.8626,3.454
11.128000,1.7830,0.3019,-2.9197,3.434
11.133000,1.6599,0.2736,-2.9526,3.398
11.149000,1.5793,0.2185,-3.0283,3.422
11.149000,1.4932,0.1634,-3.1634,3.502
11.150000,1.3681,0.0843,-3.2288,3.508
11.154000,1.2927,-0.0018,-3.3225,3.565
11.160000,1.2500,-0.0825,-3.4182,3.641
11.163000,1.2425,-0.1674,-3.4515,3.672
11.169000,1.1959,-0.2439,-3.4724,3.681
11.174000,1.1580,-0.2810,-3.4524,3.652
11.178000,1.1671,-0.3145,-3.4321,3.639
11.183000,1.2085,-0.3226,-3.3756,3.600
11.188000,1.3039,-0.3370,-3.2041,3.476
11.194000,1.3771,-0.3094,-3.1114,3.417
11.197000,1.4117,-0.2665,-3.0067,3.332
11.202000,1.4698,-0.2274,-2.9044,3.263
11.207000,1.4684,-0.1636,-2.7544,3.126
11.213000,1.4626,-0.0730,-2.6572,3.034
11.217000,1.4598,-0.0510,-2.6176,2.998
11.222000,1.4719,-0.0476,-2.5733,2.965
11.227000,1.5013,0.0261,-2.5506,2.960
11.232000,1.5696,0.0744,-2.4348,2.898
11.246000,1.6151,0.2074,-2.2954,2.814
11.249000,1.6258,0.3107,-2.1659,2.726
11.249000,1.6211,0.3910,-2.1253,2.701
11.261000,1.5960,0.4224,-2.0539,2.635
11.262000,1.5408,0.4451,-1.9611,2.533
11.262000,1.4695,0.4325,-1.8612,2.411
11.297000,1.3774,0.4234,-1.6849,2.217
11.299000,1.2669,0.4122,-1.5161,2.018
11.299000,1.2428,0.4564,-1.3282,1.875
11.300000,1.2690,0.5226,-1.2359,1.847
11.301000,1.2322,0.5601,-1.1578,1.781
11.301000,1.1825,0.6290,-0.9764,1.658
11.302000,1.1655,0.6644,-0.7350,1.530
11.307000,1.1526,0.6493,-0.4720,1.405
11.308000,1.1680,0.6365,-0.1661,1.341
11.311000,1.1830,0.6013,0.0656,1.329
11.318000,1.2333,0.5322,0.2088,1.359
11.321000,1.2948,0.4720,0.3760,1.428
11.326000,1.3459,0.4204,0.5027,1.497
11.332000,1.3844,0.3711,0.7061,1.598
11.337000,1.4102,0.3356,0.8640,1.688
11.344000,1.4306,0.2883,1.0388,1.791
11.347000,1.4986,0.2267,1.2184,1.945
11.353000,1.5425,0.1841,1.4171,2.103
11.398000,1.6201,0.1590,1.5081,2.219
11.400000,1.6664,0.0716,1.6709,2.361
11.400000,1.7364,-0.0032,1.8026,2.503
11.401000,1.8039,-0.0415,1.9321,2.644
11.402000,1.9141,-0.0054,2.1645,2.889
11.408000,2.0123,0.0338,2.4518,3.172
11.409000,2.0843,0.0587,2.7294,3.435
11.410000,2.1637,0.0813,3.0712,3.758
11.411000,2.2409,0.0338,3.4245,4.093
11.411000,2.1941,-0.0072,3.7295,4.327
11.412000,2.2290,0.0160,4.0245,4.601
11.413000,2.2812,-0.0001,4.3740,4.933
11.416000,2.3246,-0.0034,4.6365,5.187
11.423000,2.3639,-0.0870,4.8959,5.437
11.426000,2.4351,-0.1055,5.0516,5.609
11.430000,2.5308,-0.1857,5.2067,5.792
11.435000,2.6195,-0.2369,5.3301,5.944
11.440000,2.7106,-0.3243,5.3716,6.026
11.445000,2.8656,-0.4979,5.3530,6.092
11.450000,3.0273,-0.6600,5.2670,6.111
11.456000,3.0782,-0.8558,5.2214,6.121
11.460000,3.1161,-1.0158,5.0490,6.020
11.465000,3.1527,-1.2017,4.7788,5.850
11.470000,3.1519,-1.3577,4.5259,5.680
11.496000,3.1499,-1.5024,4.2233,5.479
11.497000,3.2374,-1.5157,4.0554,5.406
11.497000,3.2832,-1.4667,3.8666,5.280
11.498000,3.3089,-1.4535,3.6593,5.143
11.498000,3.3501,-1.4041,3.5842,5.103
11.500000,3.2831,-1.2950,3.4401,4.929
11.506000,3.1581,-1.1504,3.3227,4.726
11.510000,2.9992,-1.0088,3.1602,4.472
11.515000,2.8544,-0.8373,2.9811,4.211
11.521000,2.6397,-0.6411,2.8238,3.918
11.524000,2.2688,-0.6165,2.6117,3.514
11.530000,1.7372,-0.7304,2.4620,3.100
11.536000,1.1408,-0.8946,2.2836,2.705
11.540000,0.5686,-1.1378,2.0262,2.392
11.545000,0.0801,-1.3598,1.6730,2.157
11.550000,-0.3460,-1.5702,1.3151,2.077
11.558000,-0.7211,-1.7662,0.8064,2.071
11.559000,-0.9577,-1.9284,0.2671,2.170
11.564000,-1.0679,-2.0922,-0.1976,2.357
11.569000,-1.1163,-2.3382,-0.6497,2.671
11.603000,-1.1991,-2.5555,-1.0888,3.026
11.605000,-1.3041,-2.6907,-1.5222,3.355
11.606000,-1.3697,-2.7677,-1.9089,3.630
11.606000,-1.4717,-2.7473,-2.2107,3.821
11.606000,-1.5394,-2.6599,-2.5094,3.968
11.607000,-1.6036,-2.4548,-2.8458,4.086
11.607000,-1.6155,-2.1890,-3.0358,4.077
11.609000,-1.6016,-1.8622,-3.1060,3.960
11.614000,-1.5665,-1.5823,-3.0780,3.799
11.619000,-1.5287,-1.2896,-2.8688,3.497
11.624000,-1.4187,-0.9967,-2.4522,3.003
11.629000,-1.2959,-0.7024,-1.9248,2.424
11.635000,-1.2562,-0.4512,-1.3944,1.930
11.639000,-1.2254,-0.2730,-0.8804,1.533
11.645000,-1.2850,-0.1405,-0.3879,1.350
11.649000,-1.3873,-0.0356,-0.0460,1.389
11.654000,-1.4706,-0.0068,0.1334,1.477
11.659000,-1.5756,-0.0425,0.1745,1.586
11.664000,-1.5713,-0.1282,0.1470,1.583
11.669000,-1.6112,-0.2422,0.0298,1.630
11.674000,-1.6169,-0.3721,-0.2224,1.674
11.678000,-1.5680,-0.5746,-0.5751,1.766
11.684000,-1.5247,-0.7774,-0.9228,1.944
11.696000,-1.4946,-0.9365,-1.2747,2.176
11.697000,-1.4063,-1.0747,-1.7117,2.462
11.699000,-1.3821,-1.1463,-2.0949,2.759
11.705000,-1.2738,-1.2055,-2.4026,2.975
11.756000,-1.1679,-1.2396,-2.7326,3.220
11.757000,-1.1098,-1.2462,-3.0109,3.442
11.758000,-0.9937,-1.2319,-3.1682,3.542
11.759000,-0.8624,-1.2111,-3.3101,3.629
11.759000,-0.7082,-1.1120,-3.4630,3.705
11.760000,-0.4875,-1.0349,-3.5244,3.705
11.761000,-0.2432,-0.9751,-3.5734,3.712
11.762000,0.0038,-0.8634,-3.6557,3.756
11.763000,0.2800,-0.7669,-3.6303,3.721
11.763000,0.5285,-0.6711,-3.6219,3.721
11.764000,0.7834,-0.5194,-3.5232,3.646
11.765000,0.9749,-0.4124,-3.5278,3.683
11.769000,1.1431,-0.3790,-3.5470,3.746
11.775000,1.2114,-0.4077,-3.6358,3.854
11.779000,1.2113,-0.3932,-3.6866,3.900
11.784000,1.1647,-0.4286,-3.7594,3.959
11.791000,1.0651,-0.4826,-3.9570,4.126
11.793000,0.9268,-0.4734,-4.1693,4.297
11.798000,0.7403,-0.4700,-4.4296,4.516
11.803000,0.5483,-0.4642,-4.6969,4.752
11.854000,0.3597,-0.4294,-4.9254,4.957
11.855000,0.2005,-0.3531,-5.0983,5.114
11.856000,0.1108,-0.2970,-5.1102,5.120
11.856000,0.0502,-0.2061,-4.9851,4.990
11.856000,0.0186,-0.0803,-4.6922,4.693
11.857000,-0.0011,0.0127,-4.3345,4.335
11.857000,0.0681,0.1611,-3.9457,3.950
11.857000,0.1706,0.3426,-3.5450,3.566
11.858000,0.2248,0.4511,-3.2089,3.248
11.858000,0.2591,0.5438,-2.8966,2.959
11.858000,0.2761,0.6465,-2.6010,2.694
11.863000,0.2925,0.7398,-2.2839,2.418
11.868000,0.3613,0.8233,-2.0340,2.224
11.872000,0.4325,0.8946,-1.7868,2.044
11.877000,0.5136,0.9778,-1.5328,1.889
11.883000,0.6191,1.0414,-1.3558,1.818
11.900000,0.9284,1.2172,-0.4379,1.592
11.900000,0.9415,1.2417,-0.4373,1.618
11.901000,0.9556,1.2654,-0.4371,1.645
11.903000,0.9639,1.3624,-0.1912,1.680
11.907000,0.9156,1.3934,-0.0131,1.667
11.913000,0.8228,1.3875,0.0568,1.614
11.918000,0.7258,1.4090,0.1239,1.590
11.965000,0.6409,1.3980,0.1739,1.548
11.966000,0.5635,1.3788,0.3025,1.520
11.966000,0.4549,1.3056,0.3041,1.416
11.966000,0.3365,1.2531,0.3343,1.340
11.966000,0.2815,1.2306,0.2787,1.293
11.967000,0.2560,1.1977,0.2355,1.247
11.967000,0.2454,1.2049,0.2192,1.249
11.967000,0.2445,1.1874,0.2347,1.235
11.968000,0.2532,1.1597,0.2891,1.222
11.968000,0.2574,1.1003,0.3727,1.190
11.976000,0.2518,1.0593,0.5383,1.215
11.977000,0.3129,0.9937,0.5967,1.201
11.983000,0.4242,0.9727,0.6748,1.258
11.987000,0.4803,0.9081,0.7128,1.250
11.992000,0.5606,0.8503,0.8542,1.329
11.996000,0.7180,0.8209,1.0964,1.546
12.001000,0.8912,0.8702,1.3265,1.820
12.009000,1.1713,0.9693,1.4679,2.113
12.012000,1.4339,1.0557,1.5327,2.349
12.016000,1.6691,1.0767,1.5520,2.521
12.064000,1.8508,1.0322,1.6765,2.702
12.065000,1.9605,1.0060,1.8294,2.864
12.065000,1.9697,0.9194,1.8409,2.848
12.065000,1.9408,0.8492,1.7494,2.747
12.066000,1.9478,0.7982,1.6340,2.665
12.066000,1.9236,0.7478,1.5549,2.584
12.066000,1.9400,0.6674,1.5312,2.560
12.066000,2.0136,0.6220,1.5175,2.597
12.067000,2.0226,0.6211,1.5304,2.611
12.067000,2.0719,0.5693,1.6228,2.693
12.071000,2.1636,0.5739,1.7084,2.816
12.076000,2.2185,0.5676,1.8687,2.956
12.080000,2.3518,0.5505,2.0388,3.161
12.086000,2.4411,0.5365,2.2977,3.395
12.090000,2.5250,0.5396,2.6115,3.672
12.095000,2.6107,0.5522,2.8534,3.907
12.101000,2.7196,0.5405,2.9805,4.071
12.107000,2.7702,0.5931,3.0024,4.128
12.110000,2.7936,0.6166,2.9146,4.084
12.116000,2.8184,0.6781,2.8105,4.038
12.120000,2.8711,0.7159,2.7070,4.010
12.162000,2.8564,0.7994,2.5465,3.909
12.163000,2.8553,0.9172,2.4514,3.873
12.163000,2.9036,1.0500,2.3642,3.889
12.163000,2.9124,1.2267,2.3042,3.911
12.164000,2.8747,1.3827,2.2666,3.913
12.165000,2.7861,1.5772,2.2965,3.940
12.165000,2.5964,1.7502,2.3268,3.901
12.166000,2.4114,1.9368,2.3836,3.905
12.166000,2.2361,2.1868,2.4186,3.954
12.170000,2.0775,2.3271,2.5299,4.016
12.174000,1.9386,2.4814,2.6546,4.119
12.179000,1.7835,2.6183,2.6635,4.139
12.185000,1.6197,2.6988,2.6783,4.133
12.190000,1.4591,2.7802,2.6537,4.111
12.195000,1.3427,2.8071,2.5343,4.013
12.199000,1.2558,2.7868,2.3730,3.870
12.204000,1.0785,2.6424,2.1556,3.577
12.209000,0.9805,2.4579,1.9588,3.292
12.214000,0.8493,2.2980,1.6942,2.979
12.219000,0.7517,2.1389,1.3739,2.651
12.224000,0.6878,1.9956,0.8881,2.290
12.229000,0.5900,1.8850,0.4527,2.026
12.234000,0.5231,1.7624,0.0820,1.840
12.270000,0.5278,1.6574,-0.2573,1.758
12.271000,0.4653,1.5531,-0.5485,1.712
12.272000,0.3575,1.3858,-0.7365,1.610
12.272000,0.2567,1.2561,-0.9385,1.589
12.272000,0.2161,1.1496,-0.9562,1.511
12.273000,0.1596,0.9950,-0.9358,1.375
12.273000,0.0775,0.8586,-0.9469,1.281
12.275000,0.0037,0.7170,-0.8962,1.148
12.279000,-0.1527,0.5817,-0.9344,1.111
12.284000,-0.2789,0.4312,-0.9588,1.088
12.289000,-0.3725,0.3234,-1.0029,1.118
12.294000,-0.4526,0.1599,-1.0379,1.143
12.298000,-0.5785,0.0682,-0.9946,1.153
12.304000,-0.6785,0.0191,-0.9927,1.203
12.308000,-0.7979,-0.0875,-0.9773,1.265
12.314000,-0.9273,-0.1102,-1.0318,1.392
12.318000,-1.1171,-0.1188,-1.1155,1.583
12.323000,-1.2665,-0.1346,-1.1830,1.738
12.329000,-1.3968,-0.1932,-1.2608,1.892
12.334000,-1.5632,-0.2255,-1.3655,2.088
12.344000,-1.6895,-0.2548,-1.5087,2.279
12.345000,-1.8115,-0.3245,-1.6021,2.440
12.353000,-1.9077,-0.3481,-1.6577,2.551
12.355000,-1.9641,-0.3634,-1.7110,2.630
12.404000,-2.0001,-0.3206,-1.7813,2.697
12.406000,-2.0377,-0.3054,-1.8276,2.754
12.406000,-2.0674,-0.3112,-1.8379,2.784
12.406000,-2.0540,-0.2973,-1.7858,2.738
12.407000,-2.0577,-0.3283,-1.6975,2.688
12.407000,-1.9923,-0.3544,-1.5946,2.576
12.408000,-1.9347,-0.4998,-1.5009,2.499
12.409000,-1.9163,-0.5475,-1.4115,2.442
12.409000,-1.9107,-0.5738,-1.3887,2.431
12.409000,-1.8916,-0.5954,-1.3773,2.414
12.410000,-1.7988,-0.6776,-1.3656,2.358
12.413000,-1.6610,-0.7454,-1.3225,2.250
12.418000,-1.4447,-0.8021,-1.3222,2.116
12.422000,-1.2770,-0.9288,-1.3048,2.048
12.428000,-1.0835,-1.0534,-1.3613,2.034
12.432000,-0.8971,-1.1548,-1.3531,1.992
12.442000,-0.6720,-1.2922,-1.3450,1.982
12.443000,-0.4892,-1.4086,-1.3634,2.020
12.447000,-0.3106,-1.5249,-1.3916,2.088
12.452000,-0.1673,-1.6647,-1.4629,2.222
12.488000,-0.0571,-1.8212,-1.5173,2.371
12.489000,0.0561,-1.9815,-1.6219,2.561
12.490000,0.1506,-2.2003,-1.7169,2.795
12.490000,0.2005,-2.3936,-1.8072,3.006
12.490000,0.2724,-2.5271,-1.8542,3.146
12.491000,0.3707,-2.6729,-1.9322,3.319
12.491000,0.4381,-2.7898,-1.9502,3.432
12.492000,0.5555,-2.8654,-1.8484,3.455
12.497000,0.6566,-2.8956,-1.7110,3.427
12.502000,0.7649,-2.9470,-1.5546,3.419
12.507000,0.8297,-3.0172,-1.4387,3.444
12.512000,0.8656,-3.0301,-1.2679,3.397
12.517000,0.8411,-3.0573,-1.1544,3.374
12.523000,0.8282,-3.0920,-1.0145,3.358
12.527000,0.8339,-3.0859,-0.8363,3.304
12.532000,0.9205,-3.0658,-0.6414,3.265
12.550000,0.9852,-3.0151,-0.4202,3.200
12.553000,1.0755,-2.9650,-0.2541,3.164
12.555000,1.1462,-2.9498,-0.0928,3.166
12.555000,1.1848,-2.9407,0.0447,3.171
12.603000,1.2060,-2.9665,0.1322,3.205
12.604000,1.2146,-3.0682,0.2341,3.308
12.605000,1.2730,-3.1112,0.3719,3.382
12.605000,1.3574,-3.1461,0.4977,3.462
12.605000,1.4746,-3.2184,0.6451,3.598
12.606000,1.6846,-3.1917,0.7255,3.681
12.606000,1.8273,-3.2335,0.8106,3.802
12.606000,2.0034,-3.3130,1.0342,4.007
12.607000,2.1607,-3.4036,1.1449,4.191
12.607000,2.3756,-3.5054,1.2362,4.411
12.609000,2.4903,-3.6805,1.3272,4.638
12.612000,2.6224,-3.8186,1.3938,4.837
12.617000,2.7455,-3.9075,1.4672,4.996
12.621000,2.8215,-3.9708,1.4851,5.093
12.628000,2.8937,-3.9630,1.5002,5.131
12.631000,2.9336,-3.9629,1.5052,5.155
12.637000,2.9649,-3.9513,1.5050,5.164
12.642000,2.9728,-3.9830,1.5405,5.203
12.647000,2.9671,-3.9574,1.6378,5.210
12.652000,2.9480,-3.9274,1.6941,5.195
12.657000,2.8744,-3.9243,1.7717,5.177
12.662000,2.8158,-3.9502,1.7964,5.173
12.665000,2.7573,-3.9575,1.9456,5.201
12.711000,2.6986,-3.9537,2.0565,5.210
12.712000,2.5920,-3.9432,2.1818,5.199
12.712000,2.5568,-3.9383,2.2259,5.196
12.713000,2.4971,-3.8721,2.3111,5.155
12.713000,2.4364,-3.7901,2.3680,5.090
12.713000,2.3409,-3.7790,2.5547,5.127
12.714000,2.3137,-3.8243,2.7847,5.266
12.714000,2.2427,-3.7997,2.9169,5.289
12.715000,2.1612,-3.8204,3.0351,5.336
12.715000,2.0212,-3.8985,3.1131,5.383
12.722000,1.8084,-3.9872,3.1605,5.400
12.727000,1.5638,-4.1151,3.1079,5.389
12.730000,1.2588,-4.2370,2.9121,5.293
12.735000,0.9608,-4.2737,2.5663,5.077
12.740000,0.6481,-4.2682,2.1327,4.815
12.745000,0.3755,-4.2275,1.7216,4.580
12.751000,0.1835,-4.1606,1.2421,4.346
12.755000,0.0771,-4.0338,0.8043,4.114
12.760000,-0.0158,-3.8945,0.4368,3.919
12.765000,-0.0617,-3.7233,0.0632,3.724
12.770000,-0.0461,-3.4964,-0.3119,3.511
12.778000,0.0066,-3.2181,-0.6382,3.281
12.780000,0.0463,-2.9844,-0.8103,3.093
12.833000,0.0801,-2.7356,-0.9720,2.904
12.834000,0.1987,-2.5123,-1.0564,2.733
12.835000,0.3208,-2.2652,-1.0252,2.507
12.837000,0.3505,-2.0350,-0.9863,2.288
12.838000,0.4267,-1.8178,-0.9420,2.091
12.839000,0.4468,-1.6261,-0.9286,1.925
12.839000,0.5115,-1.4193,-0.9220,1.768
12.840000,0.5873,-1.2194,-0.9606,1.660
12.841000,0.6598,-0.9447,-1.0062,1.530
12.841000,0.7108,-0.6795,-1.1141,1.486
12.842000,0.7792,-0.5004,-1.2509,1.556
12.843000,0.6570,-0.2923,-1.3689,1.546
12.845000,0.5500,-0.1392,-1.5543,1.655
12.849000,0.5135,-0.0718,-1.7663,1.841
12.856000,0.4257,0.0033,-1.9404,1.987
12.859000,0.2818,0.0456,-2.1222,2.141
12.864000,0.0890,0.0413,-2.3115,2.314
12.870000,-0.1524,0.0718,-2.4320,2.438
12.874000,-0.3684,0.0538,-2.5456,2.573
12.879000,-0.6474,0.0188,-2.5760,2.656
12.885000,-0.9178,-0.0094,-2.6737,2.827
12.929000,-1.1536,-0.0637,-2.7549,2.987
12.929000,-1.1518,-0.0531,-2.7500,2.982
12.930000,-1.2713,-0.0446,-2.7502,3.030
12.930000,-1.3068,-0.0331,-2.7598,3.054
12.931000,-1.3184,-0.0139,-2.7718,3.069
12.931000,-1.2849,0.0131,-2.7882,3.070
12.932000,-1.2805,0.0718,-2.8068,3.086
12.932000,-1.2816,0.1358,-2.8106,3.092
12.932000,-1.3120,0.2101,-2.8211,3.118
12.934000,-1.3118,0.2921,-2.7644,3.074
12.939000,-1.2739,0.4006,-2.5161,2.849
12.944000,-1.1758,0.5737,-2.2037,2.563
12.949000,-1.1272,0.7223,-2.0834,2.476
12.954000,-1.0928,0.8271,-1.9825,2.410
12.959000,-1.0968,0.9017,-1.9273,2.394
12.964000,-1.1032,0.9199,-1.9298,2.406
12.968000,-1.1092,0.9102,-1.9590,2.428
12.973000,-1.1721,0.8223,-2.0245,2.480
12.979000,-1.2489,0.7476,-2.1429,2.590
12.983000,-1.2511,0.7174,-2.2901,2.706
12.999000,-1.2076,0.6247,-2.5258,2.868
13.001000,-1.1738,0.5825,-2.7516,3.048
13.002000,-1.1239,0.5363,-2.8859,3.143
13.004000,-1.0194,0.5154,-2.9574,3.170
13.053000,-0.9493,0.5150,-2.9709,3.161
13.053000,-0.8535,0.5376,-2.8930,3.064
13.054000,-0.7603,0.4969,-2.7528,2.899
13.054000,-0.6622,0.4622,-2.5672,2.691
13.054000,-0.5352,0.5767,-2.4343,2.558
13.055000,-0.3820,0.6201,-2.2872,2.400
13.055000,-0.2406,0.6926,-2.1427,2.265
13.055000,-0.1495,0.7797,-1.9695,2.123
13.056000,-0.1156,0.8451,-1.7633,1.959
13.056000,-0.0810,0.8699,-1.5982,1.821
13.058000,-0.0435,0.8966,-1.5363,1.779
13.063000,0.0132,0.9061,-1.5202,1.770
13.068000,0.0318,0.9227,-1.5734,1.824
13.074000,0.0097,0.9011,-1.6552,1.885
13.077000,0.0808,0.9065,-1.6555,1.889
13.082000,0.1685,0.9630,-1.6387,1.908
13.090000,0.2489,0.9963,-1.5572,1.865
13.093000,0.3408,1.0883,-1.4013,1.807
13.098000,0.4755,1.1475,-1.2931,1.793
13.103000,0.5596,1.2339,-1.1417,1.772
13.146000,0.6172,1.3015,-0.8683,1.682
13.147000,0.6913,1.3264,-0.6931,1.649
13.147000,0.7890,1.3751,-0.4630,1.652
13.148000,0.8168,1.4094,-0.1756,1.638
13.148000,0.8323,1.5077,0.0302,1.722
13.148000,0.8163,1.6388,0.1904,1.841
13.148000,0.7856,1.7280,0.3409,1.929
13.148000,0.7926,1.8210,0.4816,2.044
13.149000,0.7608,1.8743,0.6412,2.122
13.153000,0.6833,1.8831,0.7312,2.132
13.157000,0.5648,1.8426,0.8783,2.118
13.163000,0.4342,1.8055,1.0250,2.121
13.168000,0.3061,1.7816,1.1808,2.159
13.173000,0.2858,1.7899,1.3003,2.231
13.177000,0.2226,1.7944,1.3403,2.251
13.182000,0.1474,1.7953,1.3730,2.265
13.187000,0.1198,1.7903,1.4437,2.303
13.192000,0.1065,1.7172,1.5332,2.305
13.197000,0.1171,1.6433,1.5674,2.274
13.201000,0.1849,1.5589,1.6683,2.291
13.227000,0.2212,1.4713,1.8097,2.343
13.228000,0.2453,1.3757,1.8503,2.319
13.228000,0.2400,1.2843,1.9412,2.340
13.229000,0.1767,1.2096,2.0179,2.359
13.229000,0.0984,1.2210,2.1115,2.441
13.231000,0.0506,1.2040,2.1360,2.452
13.236000,0.0306,1.2041,2.2136,2.520
13.241000,0.0124,1.1902,2.3345,2.620
13.246000,0.0105,1.1048,2.5344,2.765
13.251000,0.1160,0.9744,2.7294,2.900
13.257000,0.2139,0.8512,2.9936,3.120
13.261000,0.3211,0.7543,3.2073,3.310
13.266000,0.5332,0.6689,3.4040,3.510
13.272000,0.7211,0.5854,3.5931,3.711
13.276000,0.8803,0.4966,3.7722,3.905
13.281000,0.9682,0.3953,3.9196,4.057
13.286000,1.1402,0.2794,3.9923,4.161
13.291000,1.2980,0.1609,4.0719,4.277
13.296000,1.4417,0.0258,4.0867,4.334
13.301000,1.5569,-0.1473,4.0606,4.351
13.311000,1.6154,-0.2885,4.0965,4.413
13.312000,1.7558,-0.3785,4.0797,4.458
13.316000,1.9274,-0.4578,4.0392,4.499
13.367000,2.0797,-0.5120,3.9846,4.524
13.368000,2.2152,-0.5983,3.9541,4.572
13.369000,2.2932,-0.6664,3.8500,4.530
13.369000,2.3017,-0.7018,3.7081,4.420
13.369000,2.3102,-0.6780,3.5859,4.319
13.370000,2.4260,-0.6142,3.4119,4.231
13.371000,2.5320,-0.4889,3.1764,4.091
13.372000,2.6471,-0.2640,2.9346,3.961
13.372000,2.7951,-0.0402,2.6914,3.880
13.372000,2.8778,0.1992,2.3989,3.752
13.373000,2.9597,0.4731,2.1265,3.675
13.376000,3.0459,0.7046,1.9675,3.694
13.380000,3.1169,1.0010,1.8067,3.739
13.385000,3.1994,1.2997,1.6608,3.832
13.390000,3.3627,1.6285,1.5367,4.040
13.395000,3.4823,1.9253,1.4559,4.237
13.400000,3.6012,2.2059,1.3823,4.444
13.407000,3.6885,2.5172,1.3227,4.657
13.410000,3.7347,2.6554,1.2387,4.747
13.415000,3.7944,2.6772,1.1063,4.774
13.459000,3.8436,2.6017,0.9974,4.747
13.460000,3.7767,2.4311,0.8188,4.566
13.461000,3.7087,2.2612,0.5728,4.381
13.461000,3.5584,2.0968,0.3074,4.142
13.462000,3.3499,1.9023,0.0203,3.852
13.462000,3.1644,1.7526,-0.2786,3.628
13.462000,3.0453,1.5739,-0.6324,3.486
13.463000,2.8872,1.3623,-0.9667,3.336
13.463000,2.6567,1.1994,-1.1952,3.150
13.465000,2.4091,0.9854,-1.4282,2.969
13.471000,2.1686,0.7540,-1.5507,2.771
13.475000,1.8757,0.6107,-1.6276,2.557
13.480000,1.5669,0.4268,-1.6280,2.300
13.484000,1.2230,0.2571,-1.6143,2.041
13.489000,0.8373,0.1046,-1.5768,1.788
13.496000,0.5053,-0.0432,-1.5444,1.626
13.500000,0.1578,-0.1664,-1.4860,1.504
13.510000,-0.0999,-0.2441,-1.4160,1.440
13.510000,-0.3204,-0.2976,-1.4086,1.475
13.514000,-0.5112,-0.3220,-1.3584,1.487
13.519000,-0.7105,-0.3389,-1.3134,1.531
13.564000,-0.8992,-0.3151,-1.2447,1.568
13.565000,-1.0869,-0.2884,-1.1932,1.640
13.566000,-1.3000,-0.2233,-1.1777,1.768
13.566000,-1.4766,-0.1316,-1.1217,1.859
13.566000,-1.5808,-0.0466,-1.0682,1.908
13.567000,-1.6604,0.0356,-0.9241,1.901
13.567000,-1.7224,0.1438,-0.7208,1.873
13.568000,-1.7808,0.2535,-0.5710,1.887
13.568000,-1.9169,0.3044,-0.5251,2.011
13.569000,-1.9700,0.3469,-0.5782,2.082
13.574000,-2.0674,0.3730,-0.7015,2.215
13.579000,-2.1441,0.3547,-0.8470,2.333
13.585000,-2.2047,0.3803,-1.1107,2.498
13.589000,-2.1654,0.3974,-1.4325,2.627
13.595000,-2.0506,0.3948,-1.8311,2.777
13.600000,-1.9541,0.3774,-2.1508,2.930
13.604000,-1.8309,0.3386,-2.4415,3.070
13.609000,-1.6525,0.2569,-2.6362,3.122
13.614000,-1.4625,0.2065,-2.7707,3.140
13.619000,-1.4261,0.1328,-2.9525,3.282
13.623000,-1.4019,0.0116,-3.0644,3.370
13.628000,-1.3255,-0.1233,-3.1352,3.406
13.633000,-1.2660,-0.2356,-3.1649,3.417
13.677000,-1.1515,-0.3352,-3.1729,3.392
13.678000,-1.0273,-0.4290,-3.1640,3.354
13.678000,-0.8792,-0.5101,-3.2077,3.365
13.678000,-0.7454,-0.5782,-3.1508,3.289
13.679000,-0.5419,-0.5619,-2.9841,3.084
13.679000,-0.2871,-0.5352,-2.8348,2.899
13.679000,0.0024,-0.4219,-2.7127,2.745
13.680000,0.2140,-0.3616,-2.6679,2.701
13.680000,0.3120,-0.3712,-2.6718,2.715
13.684000,0.3516,-0.5032,-2.6572,2.727
13.689000,0.3690,-0.6476,-2.6867,2.788
13.693000,0.3762,-0.7964,-2.7193,2.858
13.698000,0.3491,-0.8897,-2.7405,2.902
13.704000,0.3018,-0.9988,-2.8268,3.013
13.708000,0.2218,-1.1134,-2.9011,3.115
13.713000,0.1521,-1.1353,-2.9108,3.128
13.718000,0.1042,-1.2078,-2.8581,3.105
13.723000,0.0877,-1.2519,-2.8269,3.093
13.728000,0.0329,-1.3106,-2.6615,2.967
13.733000,0.0236,-1.4004,-2.4171,2.794
13.744000,0.0650,-1.4716,-2.1300,2.590
13.745000,0.0925,-1.4474,-1.8145,2.323
13.748000,0.1441,-1.4313,-1.5807,2.137
13.753000,0.2508,-1.4140,-1.2395,1.897
13.801000,0.2979,-1.3884,-0.8556,1.658
13.802000,0.3219,-1.3669,-0.4654,1.479
13.802000,0.3395,-1.2879,-0.1095,1.336
13.803000,0.3577,-1.2571,0.1285,1.313
13.803000,0.3140,-1.2246,0.3422,1.310
13.804000,0.2846,-1.2502,0.4458,1.357
13.804000,0.3081,-1.3005,0.5108,1.431
13.804000,0.3651,-1.3274,0.6641,1.529
13.805000,0.4649,-1.3618,0.7672,1.631
13.805000,0.6192,-1.3560,0.8417,1.712
13.807000,0.7654,-1.3169,0.9285,1.784
13.812000,0.8704,-1.3118,1.0273,1.880
13.817000,0.9914,-1.3551,1.0473,1.979
13.822000,1.0517,-1.4701,1.0606,2.096
13.827000,1.1138,-1.5803,1.0693,2.209
13.832000,1.2326,-1.7308,1.1096,2.397
13.841000,1.3554,-1.7970,1.2026,2.552
13.842000,1.5350,-1.9176,1.2935,2.776
13.847000,1.6827,-2.0350,1.4205,2.998
13.852000,1.7795,-2.1446,1.5404,3.184
13.882000,1.9521,-2.2560,1.6916,3.430
13.883000,2.2009,-2.2997,1.7615,3.638
13.883000,2.4065,-2.3788,1.8240,3.844
13.883000,2.5973,-2.5124,1.8771,4.072
13.883000,2.8646,-2.6405,1.9970,4.378
13.884000,3.2375,-2.7225,2.1572,4.748
13.886000,3.6783,-2.7440,2.3023,5.134
13.901000,4.6874,-2.7650,2.4655,5.975
13.902000,4.7030,-2.7667,2.4529,5.982
13.902000,5.2260,-2.6800,2.6806,6.456
13.907000,5.7453,-2.5532,2.8011,6.883
13.912000,6.1555,-2.4296,2.7526,7.167
13.917000,6.4133,-2.3573,2.5544,7.295
13.921000,6.4652,-2.3743,2.3484,7.277
13.926000,6.3466,-2.4470,2.1731,7.141
13.931000,6.0762,-2.6560,2.1365,6.967
13.937000,5.6787,-2.9029,2.1195,6.721
13.941000,5.0936,-3.1588,2.1560,6.370
13.946000,4.4612,-3.4427,2.2414,6.065
13.951000,3.8815,-3.6546,2.2731,5.796
13.992000,3.2681,-3.8783,2.3157,5.575
13.993000,2.5349,-4.0615,2.3261,5.323
13.994000,1.7374,-4.2447,2.1991,5.086
13.994000,1.0022,-4.4849,1.9396,4.988
13.994000,0.2888,-4.6666,1.7270,4.984
13.995000,-0.3116,-4.8995,1.4513,5.119
13.995000,-0.8394,-5.0488,1.1602,5.248
13.996000,-1.2729,-5.1285,0.8392,5.350
13.996000,-1.6453,-5.0926,0.4740,5.373
14.001000,-1.8967,-4.9767,0.0980,5.327
14.005000,-2.0292,-4.6899,-0.3104,5.119
14.010000,-2.0669,-4.3420,-0.6938,4.859
14.016000,-1.9669,-4.0023,-0.9038,4.550
14.021000,-1.7768,-3.5779,-0.9122,4.098
14.025000,-1.6281,-3.1362,-0.9344,3.655
14.030000,-1.4426,-2.7638,-0.7885,3.216
14.036000,-1.2757,-2.4356,-0.5439,2.803
14.040000,-1.1801,-2.1475,-0.3419,2.474
14.046000,-1.1506,-1.9990,-0.0845,2.308
14.050000,-1.1894,-1.8355,0.0964,2.189
14.061000,-1.2411,-1.6623,0.1531,2.080
14.062000,-1.3222,-1.5303,0.0471,2.023
14.066000,-1.4420,-1.4153,-0.0754,2.022
14.125000,-1.5691,-1.2811,-0.1978,2.035
14.126000,-1.6890,-1.1706,-0.3321,2.082
14.126000,-1.8109,-1.0668,-0.4641,2.152
14.127000,-1.8941,-0.9768,-0.4886,2.186
14.127000,-2.0102,-0.9121,-0.6066,2.289
14.128000,-2.0641,-0.9161,-0.6337,2.345
14.128000,-2.2085,-0.9266,-0.6157,2.473
14.128000,-2.4337,-1.0633,-0.6600,2.737
14.129000,-2.6206,-1.2829,-0.7428,3.011
14.129000,-2.7526,-1.4489,-0.8278,3.219
14.130000,-2.8580,-1.5421,-0.9871,3.394
14.130000,-2.9554,-1.6719,-1.1107,3.573
14.131000,-2.9564,-1.7329,-1.2965,3.664
14.134000,-2.9951,-1.7917,-1.5661,3.825
14.139000,-2.9069,-1.8860,-1.8138,3.911
14.145000,-2.8687,-1.9341,-1.9489,3.971
14.149000,-2.7538,-1.9595,-2.0599,3.958
14.159000,-2.6387,-1.9861,-2.1420,3.936
14.160000,-2.5353,-2.0204,-2.2096,3.923
14.164000,-2.3690,-1.9429,-2.0740,3.700
14.169000,-2.1588,-1.7513,-1.9938,3.421
14.207000,-1.9358,-1.5772,-1.9689,3.180
14.208000,-1.7412,-1.3419,-1.9583,2.944
14.209000,-1.5994,-1.1583,-1.9763,2.794
14.209000,-1.4360,-0.9767,-2.0015,2.650
14.210000,-1.2390,-0.8213,-1.9430,2.446
14.210000,-1.0512,-0.6688,-1.8657,2.243
14.210000,-0.8557,-0.5026,-1.8821,2.128
14.210000,-0.5953,-0.3351,-1.9753,2.090
14.214000,-0.2918,-0.1807,-2.0207,2.050
14.220000,-0.0292,-0.0637,-2.0185,2.020
14.224000,0.1639,0.0806,-2.0739,2.082
14.230000,0.2942,0.1513,-2.2297,2.254
14.235000,0.3332,0.2037,-2.4524,2.483
14.240000,0.2973,0.2378,-2.6938,2.721
14.244000,0.2681,0.2374,-2.9803,3.002
14.249000,0.2291,0.1430,-3.2736,3.285
14.256000,0.2163,0.0940,-3.5952,3.603
14.258000,0.2273,0.0480,-3.9115,3.918
14.264000,0.1952,0.0200,-4.1604,4.165
14.269000,0.2519,0.0412,-4.3418,4.349
14.311000,0.2967,0.0716,-4.5132,4.524
14.313000,0.3443,0.1016,-4.5863,4.600
14.313000,0.3950,0.1435,-4.5707,4.590
14.313000,0.4105,0.2357,-4.5839,4.608
14.314000,0.4604,0.3277,-4.4989,4.534
14.314000,0.4896,0.3957,-4.3423,4.388
14.315000,0.5361,0.4923,-4.1188,4.183
14.316000,0.5925,0.5664,-3.9001,3.985
14.317000,0.5773,0.5894,-3.5860,3.680
14.318000,0.5411,0.6256,-3.2841,3.387
14.324000,0.4744,0.6600,-2.8798,2.992
14.329000,0.4251,0.6923,-2.5430,2.670
14.334000,0.2928,0.7246,-2.3144,2.443
14.338000,0.1969,0.6971,-2.1675,2.285
14.343000,0.0940,0.6741,-1.9943,2.107
14.348000,-0.0134,0.6180,-1.7784,1.883
14.355000,-0.0584,0.5144,-1.5960,1.678
14.358000,-0.0914,0.4353,-1.3204,1.393
14.364000,-0.0096,0.4147,-1.0020,1.084
14.369000,0.0554,0.4639,-0.7339,0.870
14.373000,0.1006,0.4613,-0.4681,0.665
14.378000,0.0447,0.4566,-0.1616,0.486
14.383000,-0.0665,0.4501,0.1806,0.490
14.394000,-0.1322,0.4128,0.5227,0.679
14.394000,-0.2673,0.3873,0.7951,0.924
14.398000,-0.3592,0.3951,1.0672,1.193
14.402000,-0.4461,0.4384,1.3198,1.461
14.457000,-0.5522,0.5311,1.4933,1.678
14.458000,-0.6245,0.5898,1.7119,1.915
14.458000,-0.6511,0.6282,1.8319,2.043
14.459000,-0.6870,0.6730,1.9421,2.167
14.460000,-0.6777,0.6974,2.0545,2.273
14.461000,-0.6522,0.6748,2.1428,2.339
14.467000,-0.5697,0.6558,2.2476,2.410
14.469000,-0.4620,0.6588,2.3092,2.445
14.472000,-0.3917,0.6505,2.2824,2.405
14.472000,-0.2681,0.5925,2.2128,2.306
14.473000,-0.0817,0.5307,2.1483,2.214
14.473000,0.1724,0.4364,2.0625,2.115
14.474000,0.4535,0.4008,1.8694,1.965
14.476000,0.6756,0.3480,1.7654,1.922
14.477000,0.8770,0.3165,1.6045,1.856
14.482000,1.0963,0.2684,1.4394,1.829
14.487000,1.2978,0.2357,1.3228,1.868
14.493000,1.5941,0.2857,1.2500,2.046
14.497000,1.8704,0.4137,1.2496,2.287
14.503000,2.1293,0.5290,1.3239,2.563
14.506000,2.3734,0.6341,1.4727,2.864
14.512000,2.5861,0.7719,1.7008,3.190
14.517000,2.6314,0.8365,2.0030,3.411
14.549000,2.7273,0.9283,2.3527,3.720
14.550000,2.7996,0.9511,2.6470,3.969
14.551000,2.8031,0.9735,2.9886,4.212
14.551000,2.7858,1.0386,3.3605,4.487
14.551000,2.7527,1.0452,3.7243,4.748
14.551000,2.7224,0.9861,4.0059,4.943
14.554000,2.6581,0.8562,4.2273,5.066
14.556000,2.4804,0.6814,4.3502,5.054
14.561000,2.2754,0.4742,4.4229,4.996
14.566000,2.0411,0.2685,4.3496,4.812
14.572000,1.8474,0.1438,4.2142,4.604
14.576000,1.7181,0.0434,4.0339,4.385
14.581000,1.6600,-0.0227,3.8542,4.197
14.586000,1.7114,-0.0180,3.6657,4.046
14.591000,1.7456,0.0697,3.5667,3.972
14.596000,1.8075,0.2477,3.5190,3.964
14.601000,1.8728,0.4845,3.4986,3.998
14.610000,1.8816,0.7724,3.5007,4.049
14.611000,1.8509,1.1708,3.4079,4.051
14.616000,1.6615,1.5139,3.3230,4.012
14.669000,1.4718,1.8606,3.3099,4.072
14.669000,1.3230,2.1888,3.4185,4.269
14.670000,1.2519,2.5237,3.4997,4.493
14.671000,1.1700,2.8982,3.5125,4.702
14.671000,1.0079,3.1415,3.4210,4.753
14.671000,0.8275,3.2699,3.2563,4.688
14.672000,0.6858,3.2735,2.9706,4.473
14.672000,0.5424,3.1956,2.5904,4.149
14.673000,0.4542,3.0293,2.1279,3.730
14.673000,0.3898,2.8466,1.6886,3.333
14.673000,0.2986,2.6050,1.2824,2.919
14.676000,0.2881,2.3291,0.7803,2.473
14.680000,0.3319,2.0987,0.3454,2.153
14.686000,0.4397,1.9532,-0.1775,2.010
14.690000,0.6300,1.8715,-0.6589,2.082
14.696000,0.7308,1.7948,-1.0078,2.184
14.700000,0.8185,1.7232,-1.2791,2.297
14.709000,0.8576,1.6595,-1.4850,2.386
14.711000,0.8558,1.5513,-1.5730,2.369
14.715000,0.8251,1.4846,-1.6463,2.365
14.764000,0.7497,1.3948,-1.7289,2.345
14.764000,0.6779,1.2841,-1.7352,2.263
14.765000,0.5355,1.2457,-1.6892,2.166
14.765000,0.4069,1.2176,-1.6077,2.057
14.765000,0.2826,1.1945,-1.5198,1.954
14.766000,0.0840,1.2006,-1.3634,1.819
14.766000,-0.1701,1.1826,-1.1959,1.690
14.766000,-0.3622,1.1261,-1.0868,1.606
14.767000,-0.5475,1.0359,-0.9475,1.507
14.767000,-0.7381,0.9761,-0.8045,1.465
14.773000,-0.8815,0.8920,-0.7532,1.463
14.775000,-1.0135,0.8121,-0.7482,1.499
14.780000,-1.1156,0.7726,-0.7653,1.558
14.784000,-1.1542,0.6994,-0.7469,1.542
14.792000,-1.1319,0.6811,-0.6453,1.470
14.795000,-1.1543,0.7034,-0.6373,1.494
14.799000,-1.1762,0.7182,-0.6296,1.515
14.810000,-1.1600,0.7300,-0.6649,1.523
14.812000,-1.2037,0.7271,-0.7097,1.575
14.814000,-1.2211,0.7162,-0.7641,1.609
14.819000,-1.2434,0.6925,-0.9476,1.710
14.858000,-1.2946,0.7112,-1.1332,1.862
14.858000,-1.2934,0.7075,-1.1655,1.879
14.859000,-1.2258,0.7557,-1.1785,1.861
14.859000,-1.1416,0.8412,-1.2011,1.858
14.859000,-0.9619,0.9398,-1.2526,1.838
14.859000,-0.7946,1.0178,-1.2920,1.827
14.860000,-0.7262,1.0294,-1.4365,1.911
14.860000,-0.6802,1.0010,-1.5139,1.938
14.865000,-0.6489,0.8627,-1.7012,2.015
14.870000,-0.6038,0.7613,-1.8931,2.128
14.875000,-0.5829,0.6567,-2.0989,2.275
14.879000,-0.4856,0.5317,-2.2854,2.396
14.883000,-0.4076,0.3994,-2.4524,2.518
14.889000,-0.3154,0.2118,-2.6645,2.691
14.904000,-0.1208,0.0627,-2.9693,2.972
14.904000,-0.1204,0.0217,-2.9720,2.975
14.905000,-0.0363,-0.1239,-3.0390,3.042
14.909000,0.0241,-0.2519,-3.1297,3.140
14.913000,0.1515,-0.3746,-3.2082,3.234
14.919000,0.2623,-0.4531,-3.2840,3.325
14.924000,0.4115,-0.5613,-3.2806,3.354
14.928000,0.5247,-0.6543,-3.3176,3.422
14.936000,0.6232,-0.7292,-3.2921,3.429
14.941000,0.6953,-0.8549,-3.2709,3.452
14.943000,0.8125,-0.9410,-3.1228,3.361
14.949000,0.9277,-1.0540,-2.9174,3.238
14.954000,1.0243,-1.1228,-2.6357,3.043
14.986000,1.1288,-1.2024,-2.3953,2.908
14.988000,1.1911,-1.3165,-2.2054,2.831
14.989000,1.2640,-1.4273,-2.0090,2.770
14.989000,1.2831,-1.5464,-1.9183,2.778
14.990000,1.2555,-1.6763,-1.8496,2.794
14.990000,1.2196,-1.7854,-1.7166,2.761
14.990000,1.1774,-1.8037,-1.5457,2.651
14.993000,1.1147,-1.8585,-1.3775,2.568
14.999000,1.1175,-1.9041,-1.1905,2.508
15.004000,1.0398,-1.8762,-0.9226,2.335
15.008000,0.9963,-1.8659,-0.6598,2.216
15.013000,0.9581,-1.8734,-0.4309,2.148
15.018000,0.9921,-1.8992,-0.1402,2.147
15.023000,1.0002,-1.8381,0.1286,2.097
15.028000,1.0636,-1.7554,0.4520,2.102
15.032000,1.1412,-1.6988,0.6937,2.161
15.070000,1.1608,-1.6735,0.8325,2.200
15.071000,1.1414,-1.6918,1.0288,2.286
15.072000,1.1113,-1.7562,1.1608,2.380
15.072000,1.1183,-1.8784,1.2499,2.518
15.072000,1.1050,-2.0227,1.3729,2.683
15.072000,1.1477,-2.1503,1.3743,2.798
15.073000,1.2012,-2.3354,1.4286,2.990
15.073000,1.2413,-2.5081,1.4452,3.150
15.078000,1.3299,-2.6489,1.5438,3.342
15.083000,1.4792,-2.8007,1.6835,3.587
15.087000,1.6561,-2.9536,1.8163,3.843
15.092000,1.7909,-3.0742,1.9566,4.060
15.097000,1.9655,-3.2440,2.1712,4.370
15.102000,2.1469,-3.3863,2.4287,4.688
15.108000,2.3477,-3.5229,2.6738,5.007
15.113000,2.4865,-3.5800,2.8347,5.199
15.118000,2.6235,-3.6915,2.9354,5.397
15.124000,2.6874,-3.7878,3.0380,5.550
15.127000,2.6763,-3.8737,3.1447,5.662
15.133000,2.7026,-3.9825,3.1958,5.777
15.180000,2.7083,-4.0519,3.2178,5.840
15.181000,2.7071,-4.0886,3.2446,5.880
15.182000,2.5887,-4.1311,3.2571,5.863
15.182000,2.4081,-4.1985,3.3008,5.859
15.183000,2.1706,-4.3074,3.3493,5.872
15.183000,1.9529,-4.4434,3.4169,5.936
15.184000,1.8003,-4.5084,3.4628,5.963
15.184000,1.6578,-4.6510,3.5493,6.081
15.185000,1.4938,-4.7804,3.5713,6.151
15.185000,1.3631,-4.9204,3.5864,6.239
15.187000,1.2678,-4.9874,3.5611,6.258
15.192000,1.1527,-5.1011,3.5051,6.296
15.197000,1.0893,-5.1751,3.4402,6.309
15.201000,0.9962,-5.1358,3.2778,6.174
15.207000,0.8902,-5.0783,3.0158,5.973
15.212000,0.8548,-4.9409,2.6805,5.686
15.217000,0.8348,-4.7093,2.3032,5.308
15.224000,0.8278,-4.4096,1.8913,4.869
15.226000,0.8622,-4.0830,1.5068,4.437
15.231000,0.8755,-3.7339,1.1238,3.996
15.237000,0.8770,-3.3651,0.7135,3.550
15.281000,0.8760,-2.9889,0.4316,3.144
15.282000,0.8797,-2.5934,0.1582,2.743
15.282000,0.8071,-2.2440,-0.1499,2.389
15.283000,0.7490,-1.8781,-0.4326,2.068
15.283000,0.7013,-1.5561,-0.6522,1.827
15.283000,0.6880,-1.3120,-0.7896,1.679
15.284000,0.6659,-1.1173,-0.8952,1.579
15.284000,0.6449,-0.9629,-1.0576,1.569
15.284000,0.6040,-0.8084,-1.1623,1.539
15.286000,0.5074,-0.7230,-1.3768,1.636
15.291000,0.3010,-0.6588,-1.5457,1.707
15.297000,0.1003,-0.5483,-1.7578,1.844
15.302000,-0.0799,-0.4416,-1.9223,1.974
15.306000,-0.2344,-0.2954,-2.0371,2.072
15.312000,-0.3699,-0.1906,-2.1382,2.178
15.316000,-0.5194,-0.1893,-2.1782,2.247
15.321000,-0.7831,-0.1957,-2.1379,2.285
15.326000,-1.1155,-0.2528,-2.1060,2.397
15.331000,-1.5238,-0.3964,-2.0441,2.580
15.337000,-1.9961,-0.5332,-1.9404,2.834
15.341000,-2.4411,-0.6394,-1.8787,3.146
15.347000,-2.8205,-0.7770,-1.8733,3.474
15.352000,-3.1103,-0.8380,-1.9361,3.758
15.398000,-3.4476,-0.9203,-2.0357,4.108
15.399000,-3.7274,-1.0189,-2.1215,4.408
15.400000,-3.9430,-1.0735,-2.2389,4.660
15.400000,-4.1093,-1.0745,-2.2800,4.821
15.401000,-4.1885,-1.0645,-2.3378,4.913
15.401000,-4.2936,-1.0483,-2.3907,5.025
15.402000,-4.3363,-1.0331,-2.3763,5.052
15.402000,-4.3098,-0.9305,-2.2373,4.944
15.402000,-4.2835,-0.8295,-2.1126,4.848
15.403000,-4.2216,-0.7066,-2.0547,4.748
15.409000,-4.1871,-0.5888,-2.0492,4.699
15.410000,-4.1249,-0.5431,-2.0671,4.646
15.415000,-4.0325,-0.5247,-2.1829,4.615
15.421000,-3.9198,-0.5528,-2.2983,4.577
15.426000,-3.7479,-0.6007,-2.4516,4.519
15.431000,-3.4286,-0.6180,-2.6238,4.361
15.436000,-3.0471,-0.5231,-2.7552,4.141
15.440000,-2.6631,-0.4211,-2.9322,3.983
15.446000,-2.2309,-0.3214,-3.1546,3.877
15.450000,-1.8985,-0.2264,-3.3866,3.889
15.457000,-1.6186,-0.2290,-3.5563,3.914
15.460000,-1.3710,-0.2711,-3.7261,3.980
15.465000,-1.1581,-0.2973,-3.8459,4.027
15.469000,-0.9297,-0.2741,-3.9130,4.031
15.497000,-0.6690,-0.1770,-3.9204,3.981
15.499000,-0.3715,-0.0446,-3.8394,3.858
15.499000,-0.0513,0.0514,-3.7084,3.709
15.500000,0.1738,0.1705,-3.5632,3.571
15.500000,0.3588,0.2716,-3.4516,3.481
15.500000,0.4967,0.3833,-3.4478,3.504
15.507000,0.5994,0.4241,-3.4056,3.484
15.509000,0.7049,0.4951,-3.3180,3.428
15.514000,0.7747,0.5363,-3.1464,3.284
15.519000,0.9139,0.6578,-2.9124,3.123
15.525000,1.0415,0.7903,-2.6378,2.944
15.530000,1.1399,0.9165,-2.3774,2.791
15.535000,1.2089,1.0335,-2.0619,2.604
15.540000,1.1769,1.0790,-1.7558,2.373
15.544000,1.1659,1.0979,-1.4977,2.193
15.549000,1.0972,1.0618,-1.1894,1.935
15.554000,1.0591,1.0419,-0.9721,1.775
15.600000,1.0471,1.0125,-0.7643,1.645
15.601000,1.0681,1.0118,-0.5590,1.574
15.601000,1.0717,1.0254,-0.4348,1.546
15.602000,1.0677,1.0827,-0.3366,1.557
15.602000,1.0891,1.1405,-0.1852,1.588
15.602000,1.1500,1.2154,-0.0431,1.674
15.603000,1.1431,1.2862,0.1426,1.727
15.603000,1.2165,1.3573,0.4457,1.876
15.603000,1.2462,1.4069,0.7728,2.032
15.604000,1.3232,1.4874,1.0639,2.257
15.610000,1.3348,1.5788,1.2855,2.435
15.613000,1.3242,1.7146,1.4758,2.621
15.619000,1.2932,1.8249,1.5177,2.703
15.623000,1.2178,1.9194,1.6196,2.791
15.628000,1.1172,1.9883,1.6976,2.843
15.633000,1.0632,2.0529,1.8376,2.953
15.638000,1.0130,2.1587,1.9583,3.086
15.644000,0.9905,2.2504,2.0284,3.187
15.648000,1.0050,2.3251,2.1699,3.335
15.662000,1.0564,2.4187,2.3110,3.508
15.663000,1.0278,2.4733,2.3366,3.554
15.664000,1.0081,2.4578,2.2706,3.495
15.668000,0.9472,2.3844,2.1155,3.325
15.726000,0.9816,2.2894,2.0175,3.205
15.726000,1.0756,2.1566,1.8592,3.044
15.727000,1.2074,2.1014,1.7007,2.961
15.727000,1.3434,2.0356,1.5543,2.892
15.727000,1.5100,1.9767,1.4534,2.881
15.728000,1.6040,1.9182,1.4103,2.871
15.728000,1.6828,1.8697,1.4370,2.897
15.728000,1.6773,1.7909,1.6052,2.932
15.729000,1.6355,1.6723,1.8523,2.984
