time,ax,ay,az,aT
0.004000,-0.0928,0.1722,-0.3446,0.396
0.005000,-0.1646,0.1575,-0.4952,0.545
0.005000,-0.2429,0.1798,-0.6342,0.703
0.011000,-0.3160,0.2103,-0.7472,0.838
0.012000,-0.1718,0.2396,-0.8225,0.874
0.015000,-0.2498,0.2439,-0.8052,0.878
0.021000,-0.3897,0.2349,-0.7600,0.886
0.027000,-0.4053,0.2653,-0.7179,0.866
0.030000,-0.0850,0.2939,-0.5044,0.590
0.035000,-0.1222,0.2198,-0.1099,0.275
0.043000,-0.6132,0.0454,0.1953,0.645
0.047000,-0.4582,0.1285,0.1588,0.502
0.050000,-0.1516,0.2559,0.0012,0.297
0.055000,-0.0561,0.2820,-0.0314,0.289
0.060000,0.0110,0.2432,-0.0063,0.244
0.065000,-0.0504,0.1729,0.0071,0.180
0.071000,-0.5880,-0.0555,0.4626,0.750
0.086000,-0.8508,0.0690,0.7647,1.146
0.087000,-0.7565,0.2917,0.8043,1.142
0.087000,-0.7752,0.3567,1.1579,1.438
0.095000,-0.8415,0.4334,1.2325,1.554
0.096000,-0.7833,0.3855,1.2249,1.504
0.100000,-0.7538,0.3375,1.2283,1.480
0.105000,-0.6883,0.3443,1.1425,1.378
0.117000,-0.6059,0.3223,1.0585,1.261
0.119000,-0.5136,0.3816,0.9425,1.139
0.119000,-0.3521,0.4888,0.6204,0.865
0.126000,-0.1862,0.5125,0.2859,0.616
0.129000,-0.1160,0.4871,0.0127,0.501
0.134000,-0.0864,0.5231,-0.2831,0.601
0.144000,-0.0995,0.5134,-0.5924,0.790
0.146000,-0.1717,0.5235,-0.8320,0.998
0.150000,-0.3009,0.5607,-1.0093,1.193
0.157000,-0.3841,0.6015,-1.0724,1.288
0.161000,-0.4743,0.6314,-0.9902,1.267
0.164000,-0.5999,0.6410,-0.9401,1.286
0.169000,-0.6297,0.6063,-0.8836,1.243
0.183000,-0.6548,0.6182,-0.9234,1.290
0.184000,-0.7256,0.5956,-0.9639,1.346
0.184000,-0.7398,0.5914,-0.9098,1.313
0.190000,-0.8219,0.5746,-0.8281,1.301
0.201000,-0.8955,0.5428,-0.5804,1.197
0.202000,-0.8942,0.5434,-0.5802,1.196
0.203000,-0.8755,0.5140,-0.3536,1.075
0.224000,-0.8154,0.4780,-0.1637,0.959
0.225000,-0.7499,0.5015,0.0355,0.903
0.225000,-0.6832,0.4647,0.1509,0.840
0.225000,-0.6104,0.4105,0.2355,0.772
0.232000,-0.5427,0.4365,0.2299,0.733
0.233000,-0.4872,0.4206,0.1796,0.668
0.238000,-0.3813,0.4468,0.0942,0.595
0.249000,-0.2347,0.4911,-0.1099,0.555
0.249000,-0.1385,0.4750,-0.2748,0.566
0.254000,-0.0590,0.4586,-0.3365,0.572
0.269000,0.0345,0.4656,-0.3189,0.565
0.270000,0.0893,0.4531,-0.4038,0.613
0.270000,0.1673,0.4569,-0.4834,0.686
0.287000,0.1703,0.4555,-0.6270,0.793
0.288000,0.2393,0.4492,-0.7486,0.905
0.289000,0.2330,0.4691,-0.9248,1.063
0.289000,0.1082,0.4272,-1.2369,1.313
0.320000,0.0560,0.3767,-1.4937,1.541
0.323000,0.0715,0.4085,-1.7314,1.780
0.324000,0.2382,0.5495,-1.8954,1.988
0.325000,0.3746,0.6728,-2.1222,2.258
0.325000,0.4472,0.7792,-2.2925,2.462
0.326000,0.4636,0.7928,-2.4164,2.585
0.326000,0.5460,0.7643,-2.3485,2.529
0.329000,0.7479,0.7871,-2.1180,2.380
0.333000,0.9427,0.8272,-1.7991,2.193
0.337000,1.1357,0.8939,-1.4158,2.023
0.342000,1.2484,0.8693,-1.0512,1.849
0.348000,1.3094,0.8799,-0.6121,1.692
0.352000,1.4673,0.8987,-0.1339,1.726
0.358000,1.6506,0.9366,0.3884,1.937
0.362000,1.6586,0.9019,0.8742,2.081
0.367000,1.5607,0.9058,1.2121,2.174
0.373000,1.4142,0.9693,1.5315,2.299
0.384000,1.2465,1.0580,1.7493,2.394
0.385000,1.0159,1.0880,1.7057,2.264
0.387000,0.7446,1.1170,1.4847,2.002
0.403000,0.4611,1.1691,1.2515,1.774
0.404000,0.2106,1.2114,0.9985,1.584
0.405000,-0.0097,1.2156,0.7925,1.451
0.409000,-0.2316,1.1938,0.4949,1.313
0.413000,-0.4340,1.1684,0.1197,1.252
0.417000,-0.5612,1.1757,-0.3401,1.346
0.422000,-0.6341,1.1758,-0.8490,1.583
0.443000,-0.6705,1.1481,-1.1564,1.762
0.443000,-0.7571,1.1599,-1.4040,1.972
0.444000,-0.8676,1.2141,-1.5826,2.175
0.445000,-0.9663,1.2009,-1.7165,2.307
0.450000,-1.0662,1.1493,-1.7508,2.350
0.452000,-1.0050,1.0808,-1.7550,2.293
0.466000,-0.7924,1.0746,-1.7675,2.215
0.467000,-0.5475,1.0012,-1.6306,1.990
0.467000,-0.3248,0.9251,-1.4711,1.768
0.472000,-0.1073,0.8886,-1.2241,1.516
0.483000,0.1534,0.8529,-0.8918,1.243
0.484000,0.2262,0.8265,-0.6867,1.098
0.487000,0.0760,0.7464,-0.4525,0.876
0.503000,-0.1576,0.6647,-0.0076,0.683
0.503000,-0.3317,0.6066,0.4404,0.820
0.503000,-0.4357,0.5760,0.7102,1.013
0.506000,-0.5001,0.4954,0.8863,1.132
0.537000,-0.3718,0.3550,0.9403,1.072
0.537000,0.4094,-0.2347,0.9921,1.099
0.538000,0.5738,-0.2568,-0.1274,0.641
0.538000,0.8118,0.3827,-0.5765,1.067
0.538000,1.0796,1.1313,-1.1189,1.923
0.539000,1.0411,1.4659,-1.5035,2.344
0.546000,0.6553,1.1462,-1.5733,2.054
0.547000,0.0690,0.6048,-1.9963,2.087
0.551000,-0.3591,0.3021,-2.8345,2.873
0.560000,-0.4694,0.3562,-3.5982,3.646
0.562000,-0.3962,0.6071,-3.9654,4.031
0.567000,-0.3240,0.8763,-3.9996,4.107
0.571000,-0.2199,0.9728,-3.7640,3.894
0.576000,-0.1489,0.9108,-3.4142,3.537
0.581000,-0.1589,0.8310,-3.0698,3.184
0.585000,-0.1165,0.8401,-2.7016,2.832
0.591000,-0.0437,0.8776,-2.3190,2.480
0.595000,-0.0182,0.8951,-1.9768,2.170
0.601000,-0.0518,0.9423,-1.8776,2.101
0.605000,-0.0738,0.9611,-1.8151,2.055
0.616000,-0.0781,0.9253,-1.6862,1.925
0.618000,-0.0459,0.9329,-1.5150,1.780
0.620000,-0.0879,0.9359,-1.4853,1.758
0.626000,-0.2053,0.9371,-1.5062,1.786
0.630000,-0.2878,0.9435,-1.5918,1.873
0.635000,-0.3292,0.9147,-1.5293,1.812
0.657000,-0.3162,0.8939,-1.2951,1.605
0.659000,-0.3487,0.8590,-0.8870,1.283
0.659000,-0.4236,0.8716,-0.6059,1.143
0.659000,-0.4689,0.8929,-0.4969,1.124
0.660000,-0.5159,0.8940,-0.4303,1.118
0.666000,-0.4182,0.8893,-0.3560,1.045
0.671000,-0.3149,0.9359,-0.4077,1.068
0.677000,-0.2397,0.9576,-0.4466,1.083
0.680000,-0.1837,0.9517,-0.4870,1.085
0.685000,-0.1159,0.9136,-0.5744,1.085
0.692000,-0.0336,0.8988,-0.6394,1.104
0.696000,0.1143,0.8928,-0.7063,1.144
0.700000,0.2873,0.9130,-0.8134,1.256
0.705000,0.3854,0.9641,-0.8367,1.333
0.717000,0.5792,1.0319,-0.7667,1.410
0.718000,0.7429,1.0663,-0.6612,1.458
0.720000,0.8845,1.1102,-0.6253,1.551
0.726000,1.0616,1.1041,-0.7858,1.721
0.731000,1.2989,0.9767,-1.0275,1.923
0.735000,1.4242,0.9364,-0.6575,1.827
0.739000,1.3827,0.9664,0.0004,1.687
0.752000,1.1448,1.0803,-0.0412,1.575
0.753000,0.8683,1.2773,-0.3194,1.577
0.755000,0.7467,1.3683,-0.2719,1.582
0.760000,0.7237,1.2966,-0.1624,1.494
0.764000,0.7732,1.2927,-0.0822,1.509
0.769000,0.7924,1.3759,-0.1533,1.595
0.774000,0.8024,1.4745,-0.1534,1.686
0.782000,0.9035,1.5002,0.0321,1.752
0.784000,1.1343,1.4938,0.2570,1.893
0.790000,1.3256,1.4935,0.5499,2.071
0.794000,1.3941,1.4821,0.9301,2.237
0.800000,1.3356,1.4735,1.4049,2.435
0.804000,1.2531,1.5409,1.7093,2.620
0.811000,1.1217,1.5116,1.9133,2.684
0.815000,1.0271,1.5338,2.0770,2.779
0.819000,0.8922,1.5928,2.2459,2.894
0.846000,0.7962,1.6388,2.3363,2.963
0.847000,0.7342,1.6810,2.3651,2.993
0.848000,0.6581,1.6769,2.3443,2.956
0.848000,0.5515,1.6769,2.3764,2.960
0.849000,0.4785,1.6619,2.3851,2.946
0.849000,0.4465,1.6320,2.4658,2.990
0.855000,0.3274,1.6735,2.5608,3.077
0.859000,0.1216,1.6788,2.5604,3.064
0.865000,0.0057,1.7001,2.5889,3.097
0.869000,0.0075,1.7091,2.6416,3.146
0.875000,0.1440,1.7127,2.8260,3.308
0.879000,0.4298,1.6962,3.0059,3.478
0.884000,0.8362,1.6307,3.2101,3.696
0.888000,1.3336,1.5729,3.4198,3.993
0.894000,1.7526,1.4893,3.6662,4.328
0.900000,2.1911,1.3696,3.9855,4.750
0.904000,2.6287,1.1874,4.2343,5.123
0.915000,2.9680,1.0495,4.4755,5.472
0.916000,3.2218,0.9289,4.6667,5.746
0.920000,3.3563,0.7919,4.6528,5.791
0.923000,3.0534,0.6366,4.4080,5.400
0.949000,1.9933,0.4569,3.8320,4.344
0.951000,0.4496,0.3502,3.0413,3.094
0.951000,-0.9336,0.4638,2.1048,2.349
0.952000,-1.9035,0.6659,1.2431,2.369
0.952000,-2.7733,0.4638,0.6620,2.889
0.953000,-3.4015,0.2536,0.3578,3.430
0.959000,-3.5990,0.2017,0.1683,3.609
0.964000,-3.2642,0.3348,0.2887,3.294
0.970000,-2.5529,0.5544,0.6824,2.700
0.974000,-1.9591,0.4965,1.2635,2.384
0.978000,-1.5559,0.2936,1.7388,2.352
0.983000,-1.2901,-0.0180,2.2869,2.626
0.988000,-1.0340,-0.3109,2.8875,3.083
0.993000,-0.7260,-0.4629,3.3532,3.462
0.998000,-0.5113,-0.5095,3.6115,3.683
1.003000,-0.3472,-0.5980,3.6948,3.759
1.009000,-0.1990,-0.6578,3.7312,3.794
1.012000,-0.0475,-0.7566,3.7354,3.812
1.018000,0.1003,-0.7344,3.4640,3.542
1.023000,0.2330,-0.6915,3.2280,3.309
1.027000,0.3735,-0.6131,2.9050,2.992
1.033000,0.4661,-0.5274,2.5354,2.631
1.038000,0.4565,-0.4935,2.3387,2.433
1.051000,0.3721,-0.4959,2.2471,2.331
1.055000,0.1421,-0.4362,2.0043,2.056
1.056000,-0.1978,-0.3259,1.7657,1.806
1.058000,-0.5893,-0.2527,1.5260,1.655
1.091000,-0.9611,-0.2308,1.3259,1.654
1.092000,-1.2658,-0.2142,1.0455,1.656
1.093000,-1.4931,-0.2622,0.6822,1.662
1.093000,-1.7482,-0.3435,0.2647,1.801
1.093000,-1.9693,-0.4355,-0.2626,2.034
1.094000,-2.0531,-0.4417,-0.7998,2.247
1.094000,-2.0843,-0.4138,-1.4241,2.558
1.097000,-2.0591,-0.4154,-2.0191,2.914
1.102000,-1.9370,-0.4314,-2.5255,3.212
1.106000,-1.7208,-0.4947,-2.9868,3.482
1.113000,-1.4631,-0.5171,-3.2022,3.558
1.117000,-1.2158,-0.5396,-3.2818,3.541
1.122000,-1.0652,-0.6082,-3.2610,3.484
1.133000,-0.9713,-0.7308,-3.1133,3.342
1.137000,-0.9723,-0.7645,-2.8909,3.144
1.138000,-0.9535,-0.7462,-2.7127,2.971
1.160000,-0.9709,-0.7077,-2.5999,2.864
1.161000,-1.0702,-0.6948,-2.6046,2.900
1.162000,-1.2268,-0.7073,-2.5906,2.952
1.163000,-1.3325,-0.7260,-2.4767,2.905
1.163000,-1.2539,-0.7222,-2.2656,2.688
1.167000,-0.9506,-0.5721,-1.6677,2.003
1.171000,-0.3172,-0.2661,-0.9528,1.039
1.177000,-0.1161,-0.0209,-0.6747,0.685
1.181000,0.3836,0.2703,-0.5061,0.690
1.186000,0.3677,-0.4523,-1.2844,1.410
1.192000,-0.3430,-1.2587,-1.9018,2.306
1.198000,-0.9187,-1.6850,-2.5594,3.199
1.202000,-0.8907,-1.6959,-3.0897,3.635
1.207000,-0.4721,-1.4860,-3.4068,3.747
1.211000,0.0829,-1.1449,-3.5798,3.759
1.217000,0.4064,-0.9621,-3.4440,3.599
1.221000,0.5273,-0.9312,-3.1904,3.365
1.227000,0.5407,-0.9423,-2.9697,3.162
1.231000,0.5039,-1.0216,-2.9061,3.121
1.236000,0.3803,-1.1715,-2.9108,3.161
1.248000,0.1859,-1.3171,-3.0056,3.287
1.253000,-0.1771,-1.4917,-3.2265,3.559
1.254000,-0.6702,-1.6283,-3.4204,3.847
1.257000,-1.1919,-1.6958,-3.4417,4.018
1.280000,-1.5524,-1.6061,-3.2741,3.964
1.282000,-1.5697,-1.3573,-2.9919,3.641
1.282000,-1.5017,-1.0072,-2.6286,3.190
1.283000,-1.5503,-0.8266,-2.2079,2.822
1.283000,-1.6386,-0.7364,-1.9926,2.683
1.286000,-1.5990,-0.6528,-1.9013,2.569
1.292000,-1.3911,-0.5517,-1.9053,2.423
1.296000,-1.1486,-0.4257,-1.8490,2.218
1.301000,-0.8853,-0.2029,-1.4673,1.726
1.306000,0.2065,1.1034,2.8962,3.106
1.310000,1.4455,1.7305,3.7334,4.361
1.317000,1.6395,1.2206,0.9048,2.235
1.320000,1.2125,0.3872,-3.4203,3.649
1.326000,0.1350,-0.4807,-3.6837,3.717
1.330000,-0.5949,-0.8722,-0.4980,1.167
1.335000,-0.7572,-0.7758,0.0132,1.084
1.342000,-0.8161,-0.3834,-0.4768,1.020
1.345000,-0.7331,0.0773,-0.2706,0.785
1.351000,-0.4847,0.5210,0.4367,0.835
1.355000,-0.5093,0.8751,0.6006,1.177
1.360000,-0.9748,1.0044,0.2453,1.421
1.366000,-1.7721,0.9481,-0.2294,2.023
1.369000,-2.3148,0.8560,-0.7576,2.582
1.380000,-2.6286,0.7872,-1.2735,3.025
1.381000,-2.7821,0.6513,-1.6245,3.287
1.385000,-2.8016,0.6774,-1.8122,3.405
1.390000,-2.6791,0.7486,-1.8899,3.363
1.415000,-2.3456,0.9906,-2.0024,3.239
1.416000,-1.9638,1.2566,-2.1724,3.187
1.417000,-1.5213,1.4801,-2.3071,3.135
1.417000,-1.3141,1.5206,-2.5888,3.277
1.418000,-1.1695,1.4973,-2.7422,3.336
1.420000,-1.0704,1.4191,-2.6377,3.181
1.427000,-1.0684,1.4112,-2.2510,2.864
1.430000,-0.8866,1.5847,-1.9616,2.673
1.441000,-0.7552,1.8403,-1.6681,2.596
1.442000,-0.9487,1.9171,-1.1958,2.451
1.446000,-1.1263,1.8607,-0.6957,2.284
1.450000,-1.2422,1.7645,-0.2368,2.171
1.454000,-1.2541,1.6047,0.0493,2.037
1.459000,-1.0700,1.4244,0.2897,1.805
1.465000,-0.6334,1.3043,0.6499,1.589
1.470000,0.0844,1.3061,1.1086,1.715
1.475000,0.8674,1.3356,1.6137,2.267
1.479000,1.4828,1.3088,2.2298,2.981
1.485000,2.0198,1.2462,2.8094,3.678
1.490000,2.3954,1.2285,3.2359,4.209
1.510000,2.6129,1.1516,3.5604,4.564
1.511000,2.8642,1.1149,3.7528,4.851
1.512000,3.2355,1.2161,3.7584,5.106
1.512000,3.1730,1.1823,4.0220,5.258
1.515000,2.6786,0.9758,4.3375,5.190
1.519000,2.1700,0.9083,4.4197,5.007
1.526000,1.7996,0.8721,4.4603,4.888
1.529000,1.4348,0.8480,4.5119,4.810
1.534000,1.0705,0.8250,4.5167,4.715
1.539000,0.6480,0.7891,4.4505,4.566
1.543000,0.1904,0.7413,4.4325,4.498
1.549000,-0.3913,0.5604,4.1944,4.250
1.553000,-0.8527,0.3930,3.9202,4.031
1.562000,-1.0851,0.2132,3.7794,3.938
1.567000,-1.2202,0.0740,3.5683,3.772
1.568000,-1.0970,-0.1009,3.4946,3.664
1.593000,-0.7913,-0.3479,3.6444,3.746
1.594000,-0.2716,-0.5313,3.8004,3.847
1.594000,0.3979,-0.6189,3.9274,3.996
1.595000,1.3519,-0.6428,3.4713,3.780
1.595000,2.0524,-0.6598,3.0135,3.705
1.600000,2.1046,-0.8538,3.6753,4.320
1.603000,1.9719,-0.9599,4.5223,5.026
1.610000,1.9396,-0.9020,4.6334,5.103
1.613000,1.8699,-0.8486,4.3806,4.838
1.618000,1.7734,-0.8546,3.9822,4.442
1.623000,1.7442,-0.8720,3.4979,4.005
1.628000,1.6203,-0.9218,2.9206,3.465
1.634000,1.4304,-0.9242,2.1781,2.765
1.638000,1.2361,-0.8993,1.2841,1.996
1.646000,1.0987,-0.7744,0.3147,1.381
1.647000,1.0304,-0.7198,-0.5855,1.387
1.653000,0.9537,-0.7199,-1.3217,1.782
1.659000,0.8390,-0.7518,-1.9285,2.233
1.663000,0.5972,-0.8144,-2.5195,2.714
1.668000,0.4263,-0.8781,-3.0665,3.218
1.672000,0.3294,-0.9154,-3.3625,3.500
1.679000,0.3657,-0.9575,-3.5325,3.678
1.683000,0.4056,-0.9371,-3.6580,3.798
1.688000,0.4417,-1.0482,-3.5385,3.717
1.699000,0.4696,-1.2763,-3.2672,3.539
1.701000,0.4613,-1.4212,-2.8199,3.191
1.702000,0.4939,-1.4840,-2.3398,2.814
1.736000,0.5489,-1.5161,-1.8546,2.458
1.738000,0.5649,-1.5953,-1.2750,2.119
1.739000,0.5927,-1.6963,-0.7652,1.953
1.739000,0.6351,-1.8107,-0.4247,1.965
1.739000,0.6708,-1.9464,-0.2002,2.068
1.740000,0.6789,-2.0613,-0.0143,2.170
1.740000,0.7337,-2.1560,0.1048,2.280
1.745000,0.7882,-2.2381,0.1002,2.375
1.747000,0.8738,-2.2936,0.0465,2.455
1.752000,0.8428,-2.3199,-0.1498,2.473
1.759000,0.7020,-2.3934,-0.5384,2.552
1.762000,0.4743,-2.4607,-1.1415,2.754
1.767000,0.3256,-2.4421,-1.8135,3.059
1.772000,0.2616,-2.4151,-2.4717,3.466
1.777000,0.1212,-2.4291,-2.9448,3.819
1.782000,-0.0907,-2.4068,-3.2717,4.063
1.787000,-0.2622,-2.3784,-3.5704,4.298
1.793000,-0.3432,-2.4754,-3.7911,4.541
1.796000,-0.3365,-2.4772,-3.9126,4.643
1.801000,-0.1323,-2.4125,-3.9568,4.636
1.807000,0.0754,-2.3629,-3.9283,4.585
1.816000,0.2660,-2.3090,-3.8609,4.507
1.817000,0.4522,-2.2991,-3.7399,4.413
1.821000,0.5680,-2.2994,-3.6730,4.370
1.826000,0.6236,-2.2667,-3.5670,4.272
1.831000,0.6624,-2.2638,-3.3330,4.083
1.836000,0.7660,-2.2549,-2.9974,3.828
1.841000,0.8983,-2.1956,-2.5382,3.474
1.846000,1.0310,-2.1224,-2.0767,3.143
1.851000,1.1665,-2.0504,-1.8422,2.993
1.856000,1.2907,-1.9297,-1.6737,2.862
1.861000,1.3061,-1.8558,-1.4183,2.676
1.866000,1.3061,-1.7932,-1.2072,2.526
1.871000,1.2501,-1.7683,-1.0427,2.404
1.877000,1.2047,-1.7263,-0.8984,2.289
1.881000,1.1965,-1.6672,-0.8815,2.233
1.886000,1.1850,-1.5357,-0.9277,2.150
1.891000,1.2494,-1.3532,-0.9868,2.090
1.896000,1.2672,-1.2034,-1.1498,2.092
1.901000,1.5755,-1.2454,-1.1805,2.330
1.907000,2.1343,-1.3691,-1.5115,2.952
1.918000,1.8237,-0.7742,-2.2179,2.974
1.920000,1.4110,-0.3120,-2.3007,2.717
1.921000,1.0425,-0.0678,-2.2709,2.500
1.956000,0.7721,0.0521,-2.2746,2.403
1.957000,0.6601,0.0644,-2.3116,2.405
1.958000,0.5671,0.0841,-2.2745,2.346
1.958000,0.5096,0.1640,-2.0393,2.108
1.959000,0.5240,0.3736,-1.7642,1.878
1.960000,0.6111,0.6268,-1.3536,1.612
1.960000,0.7095,0.8396,-0.9270,1.438
1.960000,0.7639,0.9755,-0.4743,1.327
1.966000,0.8004,1.0556,0.1770,1.337
1.970000,0.8344,1.1629,0.7596,1.620
1.977000,0.8953,1.2897,1.1475,1.945
1.980000,0.8212,1.3901,1.5517,2.239
1.986000,0.7420,1.5259,1.7741,2.455
2.002000,0.6002,1.6661,1.9057,2.602
2.006000,0.3524,1.8035,2.0065,2.721
2.007000,0.0536,1.8976,2.1265,2.851
2.009000,-0.2197,1.9317,2.2655,2.985
2.010000,-0.4319,2.0136,2.3711,3.141
2.046000,-0.6079,2.1026,2.4526,3.287
2.048000,-0.7533,2.1321,2.5647,3.419
2.049000,-0.8381,2.1451,2.6787,3.533
2.050000,-0.8488,2.1725,2.8496,3.682
2.051000,-0.7527,2.1999,3.1323,3.901
2.051000,-0.5617,2.3059,3.3237,4.084
2.052000,-0.3329,2.3851,3.4121,4.176
2.053000,-0.1042,2.4589,3.4217,4.215
2.056000,0.1320,2.4723,3.4675,4.261
2.060000,0.2900,2.4877,3.3627,4.193
2.065000,0.4166,2.4745,3.2725,4.124
2.069000,0.4434,2.4856,3.0721,3.976
2.075000,0.3208,2.4185,2.9121,3.799
2.080000,0.0592,2.3695,2.8066,3.674
2.085000,-0.1810,2.3437,2.8770,3.715
2.091000,-0.3117,2.2571,2.9846,3.755
2.095000,-0.3935,2.1020,3.3140,3.944
2.099000,-0.5053,1.9376,3.6885,4.197
2.104000,-0.5350,1.7610,3.9673,4.373
2.110000,-0.5348,1.5910,4.1389,4.466
2.115000,-0.5378,1.4560,4.2995,4.571
2.120000,-0.5336,1.2531,4.3868,4.593
2.132000,-0.5291,1.0468,4.4704,4.622
2.133000,-0.5986,0.8969,4.4716,4.600
2.134000,-0.6990,0.7578,4.3425,4.463
2.139000,-0.9074,0.5748,4.0329,4.173
2.173000,-1.0998,0.3937,3.7435,3.922
2.175000,-1.3061,0.2197,3.4955,3.738
2.175000,-1.4704,0.0365,3.3265,3.637
2.176000,-1.6534,-0.1776,3.2412,3.643
2.178000,-1.7696,-0.3291,3.0791,3.567
2.178000,-1.8530,-0.4662,2.8979,3.471
2.179000,-1.8235,-0.6369,2.6474,3.277
2.179000,-1.7226,-0.7621,2.4374,3.080
2.184000,-1.5788,-0.8874,2.3207,2.944
2.189000,-1.5400,-1.0391,2.0293,2.751
2.195000,-1.6512,-1.1743,1.7120,2.653
2.208000,-1.6945,-1.4701,1.1942,2.541
2.210000,-1.7173,-1.4695,1.1913,2.555
2.210000,-1.6278,-1.5941,1.0408,2.505
2.213000,-1.4614,-1.6958,0.8171,2.383
2.218000,-1.2354,-1.8104,0.5276,2.254
2.223000,-1.0091,-1.8901,0.1750,2.150
2.230000,-0.9083,-1.9825,-0.1834,2.188
2.233000,-0.7934,-2.0662,-0.5237,2.274
2.238000,-0.5943,-2.1313,-0.8412,2.367
2.255000,-0.3937,-2.2014,-1.2892,2.581
2.256000,-0.2059,-2.2500,-1.7028,2.829
2.259000,-0.1145,-2.2935,-2.1826,3.168
2.260000,-0.1815,-2.3433,-2.6456,3.539
2.264000,-0.2538,-2.3148,-3.0635,3.848
2.268000,-0.4327,-2.3104,-3.4850,4.204
2.273000,-0.6735,-2.3822,-3.8529,4.580
2.278000,-0.9245,-2.3858,-4.0747,4.811
2.284000,-1.0891,-2.3621,-4.1604,4.907
2.288000,-1.1806,-2.3252,-4.1629,4.912
2.293000,-1.1757,-2.3353,-4.1249,4.884
2.298000,-1.1515,-2.3376,-4.1182,4.873
2.302000,-1.1677,-2.3636,-3.9463,4.746
2.308000,-1.1907,-2.3921,-3.7046,4.568
2.313000,-1.0790,-2.3713,-3.3377,4.234
2.318000,-0.9517,-2.4217,-2.8545,3.862
2.331000,-0.7484,-2.4267,-2.4362,3.519
2.332000,-0.5403,-2.3925,-2.0985,3.228
2.333000,-0.3434,-2.2861,-1.8243,2.945
2.337000,-0.0949,-2.2733,-1.6749,2.825
2.363000,0.1269,-2.2255,-1.5566,2.719
2.364000,0.2219,-2.2243,-1.4858,2.684
2.365000,0.3509,-2.1741,-1.4791,2.653
2.365000,0.5600,-2.1661,-1.5147,2.702
2.365000,0.7290,-2.0999,-1.5853,2.730
2.373000,0.9035,-1.9850,-1.7341,2.786
2.374000,1.0597,-1.8880,-1.9539,2.916
2.377000,1.0987,-1.7893,-2.3073,3.120
2.383000,1.1325,-1.7407,-2.6057,3.332
2.387000,1.1243,-1.6818,-2.9335,3.563
2.392000,1.0949,-1.6309,-3.3295,3.866
2.397000,0.9546,-1.5752,-3.6341,4.074
2.402000,0.7079,-1.4946,-3.7718,4.118
2.408000,0.4475,-1.4125,-3.9297,4.200
2.412000,0.1226,-1.3406,-4.0197,4.239
2.417000,-0.1287,-1.1947,-3.9228,4.103
2.422000,-0.2006,-1.0709,-3.7273,3.883
2.427000,-0.1962,-0.9239,-3.3784,3.508
2.432000,-0.0907,-0.8020,-2.8828,2.994
2.436000,0.0619,-0.6675,-2.4411,2.531
2.447000,0.1235,-0.6169,-2.0119,2.108
2.448000,0.2072,-0.5669,-1.7286,1.831
2.452000,0.3298,-0.5107,-1.4783,1.598
2.481000,0.3908,-0.4748,-1.2154,1.362
2.483000,0.4955,-0.3778,-1.0739,1.242
2.483000,0.5960,-0.2388,-0.9844,1.175
2.483000,0.7210,-0.1103,-0.8536,1.123
2.483000,0.7247,-0.0062,-0.7416,1.037
2.484000,0.6386,0.0998,-0.6031,0.884
2.486000,0.4984,0.2172,-0.4285,0.692
2.492000,0.2295,0.3483,-0.1986,0.462
2.496000,-0.1349,0.4758,-0.0064,0.495
2.501000,-0.4635,0.6190,0.1553,0.789
2.508000,-0.6562,0.7606,0.3680,1.070
2.512000,-0.7281,0.8194,0.5551,1.229
2.517000,-0.7247,0.9246,0.4657,1.264
2.521000,-0.6917,1.0215,0.2000,1.250
2.526000,-0.7178,1.0655,-0.0940,1.288
2.531000,-0.8149,1.1410,-0.3929,1.456
2.536000,-0.8919,1.3232,-0.6690,1.730
2.548000,-0.8965,1.4811,-0.8272,1.919
2.552000,-0.9718,1.6007,-0.7962,2.035
2.552000,-1.1056,1.6920,-0.8659,2.199
2.587000,-1.1998,1.7623,-0.6991,2.244
2.588000,-1.1439,1.8976,0.0939,2.218
2.588000,-1.0574,2.0084,0.7812,2.400
2.591000,-0.9835,2.0728,1.1126,2.550
2.592000,-0.8456,2.0766,1.1575,2.523
2.592000,-0.7122,2.1282,0.9349,2.431
2.592000,-0.6192,2.1898,1.0642,2.512
2.593000,-0.5750,2.1772,1.5165,2.715
2.596000,-0.6375,2.1616,2.1435,3.110
2.601000,-0.6507,2.1300,2.9532,3.699
2.606000,-0.5569,2.1510,3.4797,4.129
2.611000,-0.4306,2.1094,3.7452,4.320
2.616000,-0.3457,2.0670,3.6571,4.215
2.620000,-0.3262,2.0719,3.5600,4.132
2.626000,-0.3082,2.0882,3.5615,4.140
2.631000,-0.1962,2.0913,3.9391,4.464
2.635000,-0.0595,2.1502,4.3366,4.841
2.642000,-0.0746,2.1540,4.1974,4.718
2.645000,-0.1363,2.1412,4.2562,4.766
2.650000,-0.3352,2.1374,4.3484,4.857
2.655000,-0.5891,2.0732,4.0149,4.557
2.660000,-0.7113,2.0758,3.4950,4.127
2.665000,-0.6083,2.1245,3.0417,3.760
2.670000,-0.5474,2.1701,2.7763,3.566
2.688000,-0.4494,2.1483,2.6336,3.428
2.689000,-0.2538,2.0885,2.5030,3.270
2.689000,0.0174,2.0031,2.3127,3.060
2.689000,0.3424,1.9138,2.2679,2.987
2.696000,0.6921,1.8279,2.1197,2.883
2.703000,1.0809,1.6741,2.0377,2.850
2.706000,1.4116,1.4890,1.9688,2.844
2.728000,1.6726,1.3424,1.9627,2.907
2.730000,1.8476,1.1511,2.0551,2.994
2.730000,1.9225,1.0204,2.2024,3.096
2.731000,1.8845,0.9261,2.5031,3.267
2.734000,1.6491,0.8316,2.9692,3.497
2.735000,1.3067,0.7027,3.4480,3.754
2.740000,0.9380,0.5074,4.0001,4.140
2.744000,0.6354,0.2922,4.4374,4.492
2.750000,0.4867,0.1134,4.8279,4.854
2.754000,0.4173,-0.0828,5.1486,5.166
2.759000,0.3747,-0.2998,5.2927,5.314
2.764000,0.4118,-0.4019,5.1990,5.231
2.769000,0.4790,-0.5166,5.1455,5.194
2.786000,0.6347,-0.6273,4.8002,4.882
2.787000,0.7694,-0.6767,4.2160,4.339
2.787000,0.8720,-0.7719,3.6418,3.823
2.789000,0.9647,-0.8596,3.1033,3.362
2.795000,1.0624,-0.9321,2.4712,2.847
2.799000,1.1270,-0.9987,1.6090,2.204
2.804000,1.2137,-1.1032,0.6619,1.769
2.810000,1.3104,-1.1101,-0.4313,1.771
2.814000,1.2757,-1.1428,-1.4631,2.253
2.819000,1.1996,-1.1779,-2.2751,2.829
2.824000,1.1391,-1.2005,-2.8777,3.320
2.829000,1.0360,-1.2623,-3.2888,3.672
2.834000,0.9641,-1.3105,-3.5543,3.909
2.839000,0.8505,-1.3737,-3.7871,4.117
2.845000,0.7854,-1.4853,-3.9277,4.272
2.849000,0.6868,-1.5785,-3.8804,4.245
2.855000,0.6604,-1.6342,-3.8751,4.257
2.865000,0.6535,-1.7434,-3.9165,4.337
2.866000,0.5819,-1.8800,-3.9351,4.400
2.869000,0.5460,-1.9939,-3.9545,4.462
2.910000,0.5340,-2.1261,-3.8958,4.470
2.913000,0.5395,-2.1595,-3.6701,4.292
2.914000,0.5775,-2.2337,-3.3726,4.086
2.915000,0.5551,-2.3253,-3.0890,3.906
2.916000,0.5445,-2.4352,-2.7920,3.745
2.916000,0.5674,-2.5760,-2.6031,3.706
2.917000,0.5742,-2.7242,-2.3468,3.641
2.918000,0.5921,-2.7682,-2.2069,3.589
2.919000,0.6642,-2.8375,-2.1040,3.594
2.919000,0.6884,-2.9181,-2.0111,3.610
2.925000,0.6699,-2.9217,-2.1387,3.682
2.928000,0.6638,-2.9156,-2.1061,3.657
2.933000,0.7827,-2.9404,-2.3868,3.867
2.939000,0.9086,-2.9621,-3.0097,4.319
2.944000,1.0808,-3.0204,-3.7051,4.901
2.949000,1.3340,-3.0499,-4.2968,5.435
2.954000,1.5351,-3.0427,-4.5396,5.676
2.958000,1.6865,-2.9839,-4.6997,5.817
2.962000,1.7112,-2.9450,-4.6893,5.796
2.968000,1.6911,-2.9040,-4.7167,5.791
2.972000,1.5995,-2.9161,-4.5741,5.655
2.991000,1.4554,-2.9597,-4.3187,5.434
2.994000,1.3741,-2.9995,-4.1513,5.303
2.995000,1.4010,-2.9227,-4.0623,5.197
2.995000,1.5842,-2.9068,-3.6926,4.959
2.997000,2.0078,-2.9139,-3.1784,4.757
3.002000,4.0381,-3.0926,-2.8183,5.815
3.009000,5.0222,-3.2806,-2.2744,6.415
3.012000,3.0675,-3.2407,-2.2833,5.013
3.017000,1.3004,-2.8775,-2.0511,3.765
3.022000,0.5772,-2.0409,-0.9826,2.338
3.028000,0.2189,-1.3573,-0.0026,1.375
3.032000,-0.1761,-1.4478,0.2759,1.484
3.037000,-0.6546,-1.9894,0.1798,2.102
3.042000,-0.9634,-2.4795,-0.1998,2.668
3.047000,-0.8322,-2.5314,-0.7467,2.767
3.052000,-0.2517,-2.0720,-1.1299,2.373
3.059000,0.4860,-1.5600,-1.3004,2.088
3.062000,0.9475,-1.1193,-1.1367,1.855
3.067000,1.1666,-0.9434,-1.0149,1.811
3.072000,1.2200,-0.8479,-0.7006,1.643
3.077000,1.2917,-0.7444,-0.5191,1.579
3.082000,1.4028,-0.6044,-0.4677,1.597
3.087000,1.4930,-0.4301,-0.4031,1.605
3.099000,1.6054,-0.2191,-0.3036,1.648
3.108000,1.6064,-0.0239,-0.2295,1.623
3.109000,1.5484,0.0866,-0.0852,1.553
3.109000,1.5686,0.2389,0.6338,1.709
3.136000,1.5646,0.5018,1.2098,2.040
3.137000,1.4832,0.7004,1.5216,2.237
3.138000,1.3249,0.8009,1.8807,2.436
3.138000,1.1233,0.7164,2.2208,2.590
3.139000,0.9881,0.7263,2.7241,2.987
3.139000,1.0013,0.8375,3.2402,3.493
3.145000,1.0262,0.9895,3.6976,3.963
3.147000,0.9537,1.1224,3.9272,4.194
3.152000,0.7576,1.1978,4.1682,4.403
3.158000,0.5197,1.2852,4.0858,4.315
3.161000,0.3022,1.4401,3.8307,4.104
3.166000,0.0661,1.6440,3.4767,3.846
3.171000,-0.1997,1.7826,3.1546,3.629
3.177000,-0.4268,1.8734,2.9572,3.527
3.181000,-0.5344,1.9678,2.5701,3.281
3.187000,-0.6839,2.0254,2.1580,3.038
3.195000,-0.8551,2.0542,1.8328,2.883
3.197000,-0.9124,2.0500,1.7444,2.842
3.203000,-0.9060,1.9989,1.7320,2.796
3.206000,-0.8531,1.8626,1.7957,2.724
3.237000,-0.8377,1.8253,2.0237,2.851
3.239000,-0.7783,1.8123,2.2514,2.993
3.240000,-0.6893,1.7229,2.4383,3.064
3.241000,-0.6971,1.6282,2.4202,2.999
3.242000,-0.6574,1.5997,2.7835,3.277
3.243000,-0.4714,1.6392,3.0189,3.467
3.243000,-0.3945,1.5949,3.1585,3.560
3.247000,-0.3879,1.5052,3.3963,3.735
3.250000,-0.3361,1.3955,3.5510,3.830
3.256000,-0.2120,1.2988,3.6902,3.918
3.261000,-0.0868,1.2582,3.7373,3.944
3.266000,0.0050,1.2231,3.7503,3.945
3.270000,0.0260,1.1861,3.7840,3.966
3.276000,0.0077,1.2049,3.6782,3.871
3.280000,-0.0279,1.1980,3.4212,3.625
3.286000,-0.0930,1.0969,3.0316,3.225
3.292000,-0.2308,0.9592,2.4567,2.647
3.296000,-0.4042,0.8792,1.9425,2.170
3.301000,-0.6403,0.8793,1.6793,2.001
3.305000,-0.8245,0.8306,1.6140,1.994
3.316000,-1.0243,0.7737,1.7774,2.193
3.317000,-1.1756,0.6916,1.9497,2.379
3.320000,-1.2579,0.5788,2.0689,2.489
3.356000,-1.3295,0.4183,2.0804,2.504
3.358000,-1.3693,0.2600,2.0705,2.496
3.360000,-1.3969,0.1302,2.1661,2.581
3.361000,-1.3505,0.0475,2.2526,2.627
3.361000,-1.3494,-0.0200,2.2420,2.617
3.362000,-1.3558,-0.0485,2.2206,2.602
3.362000,-1.3644,-0.1174,2.1027,2.509
3.363000,-1.3631,-0.2436,1.9936,2.427
3.365000,-1.3944,-0.3891,1.8364,2.338
3.369000,-1.4412,-0.4845,1.6597,2.251
3.375000,-1.4815,-0.5780,1.4302,2.139
3.380000,-1.5721,-0.6359,1.3537,2.170
3.385000,-1.6596,-0.6873,1.1981,2.159
3.392000,-1.8533,-0.7941,0.9540,2.231
3.395000,-1.9656,-0.8725,0.5065,2.209
3.400000,-2.0512,-0.8961,0.1572,2.244
3.405000,-2.0883,-0.8930,-0.2690,2.287
3.410000,-2.0384,-0.9110,-0.8080,2.374
3.415000,-2.0590,-0.9541,-1.2951,2.613
3.420000,-1.9870,-0.9594,-1.6759,2.771
3.429000,-1.8365,-0.9930,-2.1663,3.009
3.431000,-1.7108,-1.0569,-2.7449,3.403
3.435000,-1.6704,-1.0474,-2.9962,3.587
3.440000,-1.7087,-1.1027,-3.3514,3.920
3.476000,-1.8788,-1.2316,-3.7631,4.383
3.477000,-2.0930,-1.3087,-4.1291,4.811
3.477000,-2.1853,-1.3528,-4.4068,5.102
3.478000,-2.2388,-1.4257,-4.6229,5.331
3.478000,-2.2826,-1.4531,-4.5960,5.333
3.479000,-2.2338,-1.5545,-4.4077,5.180
3.480000,-2.1931,-1.6463,-4.1824,5.001
3.480000,-2.1202,-1.7600,-3.8363,4.723
3.484000,-2.0219,-1.8578,-3.3475,4.330
3.490000,-1.9321,-1.9477,-2.8806,3.978
3.494000,-1.7790,-2.0496,-2.3967,3.621
3.499000,-1.6438,-2.1143,-1.9094,3.289
3.504000,-1.4904,-2.1571,-1.4133,2.979
3.509000,-1.3663,-2.2031,-0.8669,2.733
3.513000,-1.2687,-2.2004,-0.4252,2.575
3.518000,-1.0694,-2.1956,-0.1400,2.446
3.528000,-0.6938,-2.2035,-0.0369,2.310
3.529000,-0.3089,-2.1718,-0.0224,2.194
3.533000,0.1484,-2.1633,-0.0553,2.169
3.539000,0.5951,-2.0869,-0.2505,2.184
3.582000,0.9647,-2.0502,-0.4286,2.306
3.583000,1.2029,-1.9475,-0.6185,2.371
3.584000,1.2932,-1.8670,-0.8181,2.414
3.584000,1.1833,-1.8061,-1.0682,2.409
3.585000,0.9874,-1.8266,-1.3523,2.478
3.585000,0.8006,-1.8036,-1.6203,2.553
3.585000,0.6487,-1.6938,-1.9466,2.661
3.586000,0.4951,-1.5712,-2.2836,2.816
3.586000,0.3587,-1.4685,-2.5264,2.944
3.589000,0.3140,-1.3421,-2.6493,2.986
3.594000,0.2749,-1.1986,-2.7819,3.042
3.598000,0.2007,-1.1286,-2.7571,2.986
3.603000,0.0575,-1.0555,-2.6084,2.814
3.608000,-0.0281,-0.9671,-2.4559,2.640
3.613000,-0.0348,-0.8372,-2.3520,2.497
3.617000,0.0871,-0.6539,-2.2226,2.318
3.624000,0.1678,-0.5201,-2.0652,2.136
3.628000,0.1591,-0.4120,-1.9062,1.957
3.633000,0.2333,-0.2891,-1.6379,1.679
3.637000,0.3064,-0.1685,-1.5087,1.549
3.654000,0.2018,0.0001,-1.2675,1.283
3.655000,-0.0172,0.1447,-1.0458,1.056
3.655000,-0.3508,0.2081,-0.7170,0.825
3.664000,-0.7152,0.2693,-0.3935,0.860
3.665000,-0.9842,0.4281,-0.1539,1.084
3.668000,-1.0342,0.5953,0.0932,1.197
3.672000,-0.9784,0.7588,0.2380,1.261
3.677000,-0.8530,0.8828,-0.0064,1.228
3.683000,-0.6915,0.9772,-0.3671,1.252
3.688000,-0.5942,1.0501,-0.4860,1.301
3.693000,-0.5363,1.1786,-0.4497,1.371
3.697000,-0.3969,1.3800,-0.5817,1.549
3.702000,-0.3575,1.4918,-0.6477,1.665
3.707000,-0.3581,1.5907,-0.6406,1.752
3.712000,-0.4036,1.6030,-0.6802,1.788
3.717000,-0.4172,1.6657,-0.6307,1.829
3.721000,-0.3486,1.7667,-0.4229,1.850
3.727000,-0.3130,1.8367,-0.2435,1.879
3.732000,-0.2575,1.8471,0.0391,1.865
3.736000,-0.2040,1.8408,0.3125,1.878
3.745000,-0.1480,1.8102,0.6272,1.922
3.747000,-0.1420,1.8102,1.0432,2.094
3.753000,-0.2079,1.8120,1.5244,2.377
3.776000,-0.3546,1.8341,2.0066,2.742
3.777000,-0.4410,1.8477,2.5091,3.147
3.777000,-0.4702,1.8805,2.9703,3.547
3.777000,-0.4736,1.9054,3.3646,3.896
3.778000,-0.4231,1.9579,3.6634,4.175
3.782000,-0.2660,2.0187,3.8816,4.383
3.786000,-0.1628,2.0204,4.2514,4.710
3.792000,-0.0793,1.9814,4.6391,5.045
3.797000,0.0091,1.9344,4.9041,5.272
3.802000,0.1528,1.9318,4.9655,5.330
3.807000,0.2084,1.9495,4.8163,5.200
3.812000,0.2602,1.9638,4.6170,5.024
3.817000,0.3253,1.9368,4.4055,4.823
3.823000,0.3063,1.9193,4.0212,4.466
3.832000,0.2368,1.8472,3.8109,4.242
3.833000,0.2652,1.8214,3.5995,4.043
3.836000,0.3438,1.7923,3.1162,3.611
3.841000,0.4799,1.6772,2.5856,3.119
3.878000,0.6226,1.5636,1.9974,2.612
3.880000,0.7454,1.4384,1.2956,2.074
3.881000,0.8141,1.3272,0.8669,1.782
3.882000,0.7710,1.1497,0.7197,1.560
3.882000,0.6827,0.9544,0.8414,1.444
3.883000,0.5531,0.7122,1.2463,1.538
3.883000,0.4003,0.5156,1.8821,1.992
3.883000,0.3335,0.3393,2.6395,2.682
3.887000,0.3693,0.0666,3.3927,3.413
3.891000,0.3834,-0.1603,4.0950,4.116
3.896000,0.6013,-0.3577,4.5658,4.619
3.901000,0.9179,-0.5530,4.9591,5.074
3.906000,1.1730,-0.6998,5.2257,5.401
3.911000,1.4052,-0.8688,5.4000,5.647
3.916000,1.5963,-1.0512,5.3581,5.689
3.921000,1.6043,-1.2376,4.9355,5.335
3.927000,1.5330,-1.4134,4.4910,4.951
3.931000,1.4480,-1.5234,4.0557,4.568
3.936000,1.4121,-1.5742,3.4641,4.059
3.943000,1.4207,-1.5727,2.6015,3.356
3.946000,1.4211,-1.5748,1.6107,2.663
3.950000,1.3436,-1.6299,0.7019,2.226
3.956000,1.2333,-1.6934,-0.2407,2.109
3.961000,1.0536,-1.7134,-1.1894,2.337
3.966000,0.8875,-1.7295,-2.0134,2.799
3.970000,0.7701,-1.7139,-2.6396,3.240
4.000000,0.6985,-1.6498,-3.1116,3.590
4.001000,0.6098,-1.6344,-3.2674,3.704
4.002000,0.4845,-1.6461,-3.4950,3.894
4.002000,0.3296,-1.6970,-3.7774,4.154
4.002000,0.2523,-1.7339,-4.0314,4.396
4.003000,0.1878,-1.7447,-4.0919,4.452
4.005000,0.0816,-1.7463,-3.8565,4.234
4.010000,-0.0014,-1.7534,-3.6074,4.011
4.015000,-0.1161,-1.8001,-3.2964,3.758
4.020000,-0.2028,-1.8275,-2.9349,3.463
4.025000,-0.3337,-1.8868,-2.5223,3.167
4.030000,-0.4963,-1.9667,-2.1776,2.976
4.036000,-0.5762,-2.0106,-1.9194,2.839
4.041000,-0.5920,-2.0285,-1.7282,2.730
4.047000,-0.5203,-2.0092,-1.6753,2.667
4.050000,-0.3610,-1.9672,-1.6717,2.607
4.055000,-0.2548,-1.9577,-1.8514,2.706
4.060000,-0.2426,-1.9663,-1.8672,2.722
4.065000,-0.2351,-1.9548,-2.0304,2.828
4.069000,-0.2232,-1.9109,-2.3170,3.012
4.098000,-0.1926,-1.8846,-2.5261,3.158
4.099000,-0.1934,-1.8540,-2.7825,3.349
4.100000,-0.2333,-1.8379,-3.0218,3.545
4.100000,-0.2401,-1.8000,-3.2203,3.697
4.101000,-0.2142,-1.7760,-3.3017,3.755
4.102000,-0.1556,-1.7514,-3.3619,3.794
4.104000,-0.1580,-1.7098,-3.2907,3.712
4.109000,-0.1040,-1.6467,-3.1145,3.525
4.114000,-0.0313,-1.6196,-2.9216,3.341
4.120000,0.1228,-1.5855,-2.9417,3.344
4.124000,0.2528,-1.6091,-3.1004,3.502
4.129000,0.3538,-1.5584,-3.1513,3.533
4.134000,0.3350,-1.4813,-3.0373,3.396
4.140000,0.2970,-1.4806,-2.9044,3.273
4.145000,0.2945,-1.4368,-2.8219,3.180
4.150000,0.3246,-1.4197,-2.6341,3.010
4.154000,0.4114,-1.3695,-2.4701,2.854
4.195000,0.5645,-1.2626,-2.4591,2.821
4.196000,0.7096,-1.1659,-2.2062,2.594
4.196000,0.8594,-1.1224,-2.0966,2.529
4.196000,0.9755,-1.0488,-2.0513,2.502
4.197000,1.0507,-1.0263,-1.9170,2.415
4.197000,1.0668,-0.9902,-1.9378,2.424
4.197000,0.9785,-0.9212,-1.8027,2.249
4.197000,0.8554,-0.8602,-1.5885,1.999
4.199000,0.7311,-0.7570,-1.4721,1.810
4.209000,0.6336,-0.6615,-1.5372,1.789
4.209000,0.5769,-0.5380,-1.5111,1.705
4.213000,0.5371,-0.4696,-1.4754,1.639
4.218000,0.5360,-0.3700,-1.5069,1.642
4.226000,0.5494,-0.2890,-1.4551,1.582
4.230000,0.5605,-0.2167,-1.3824,1.507
4.233000,0.4687,-0.1289,-1.2294,1.322
4.238000,0.3527,-0.1475,-1.0201,1.089
4.243000,0.3296,-0.1578,-0.8740,0.947
4.248000,0.3779,-0.0876,-0.6309,0.741
4.253000,0.5447,0.0435,-0.2552,0.603
4.264000,0.7013,0.1108,0.0262,0.710
4.265000,0.7158,0.1597,0.2566,0.777
4.268000,0.7679,0.1924,0.6034,0.995
4.273000,0.8936,0.2230,0.8516,1.254
4.309000,0.9278,0.3205,1.1162,1.486
4.310000,0.9859,0.4227,1.3208,1.701
4.310000,1.0159,0.5031,1.4820,1.866
4.311000,1.0015,0.5311,1.5067,1.885
4.311000,0.9330,0.5618,1.6601,1.985
4.311000,0.9372,0.6002,1.8512,2.160
4.312000,1.0071,0.6441,2.0393,2.364
4.314000,1.0736,0.7078,2.2553,2.596
4.318000,1.1127,0.7675,2.3413,2.703
4.324000,1.1119,0.8495,2.4793,2.847
4.327000,1.0331,0.8151,2.6261,2.937
4.332000,0.9001,0.8461,2.7723,3.035
4.338000,0.7658,0.9498,2.9081,3.154
4.343000,0.5398,0.9520,2.8539,3.057
4.348000,0.1903,0.9559,2.8609,3.022
4.352000,-0.1469,0.9616,3.0868,3.236
4.359000,-0.4396,0.9640,3.3330,3.497
4.363000,-0.5881,1.0248,3.6048,3.794
4.368000,-0.6047,1.0767,3.8782,4.070
4.372000,-0.6139,1.1001,4.1274,4.315
4.378000,-0.5861,1.1181,4.3169,4.498
4.382000,-0.5951,1.0875,4.5330,4.699
4.387000,-0.6163,1.0816,4.6113,4.776
4.398000,-0.6421,1.0837,4.4441,4.619
4.400000,-0.7153,1.1033,4.3069,4.503
4.402000,-0.8424,1.1427,4.1805,4.415
4.443000,-0.9800,1.1308,3.8755,4.154
4.444000,-1.0785,1.1178,3.5286,3.855
4.445000,-1.1568,1.1426,3.1107,3.510
4.446000,-1.2195,1.1268,2.8295,3.281
4.446000,-1.2422,1.1236,2.6822,3.162
4.446000,-1.2580,1.0639,2.5346,3.023
4.447000,-1.2582,1.0291,2.5278,3.005
4.447000,-1.1805,0.9764,2.5418,2.968
4.448000,-1.1379,0.8844,2.4524,2.845
4.452000,-1.1498,0.8033,2.3504,2.737
4.457000,-1.2409,0.6809,2.3027,2.703
4.462000,-1.2393,0.5865,2.5364,2.883
4.468000,-1.0951,0.4865,2.8815,3.121
4.472000,-0.9549,0.3750,3.2786,3.435
4.480000,-0.7974,0.2509,3.6567,3.751
4.481000,-0.6941,0.0825,4.0638,4.124
4.487000,-0.5510,-0.0500,4.4289,4.463
4.491000,-0.4183,-0.2454,4.5108,4.537
4.496000,-0.4734,-0.3494,4.5066,4.545
4.501000,-0.5410,-0.3766,4.3950,4.444
4.506000,-0.6350,-0.4278,4.2216,4.290
4.538000,-0.7879,-0.5128,4.0680,4.175
4.540000,-0.8438,-0.5746,3.6522,3.792
4.540000,-0.9890,-0.6539,3.0703,3.291
4.541000,-1.0822,-0.6734,2.5635,2.863
4.543000,-1.0916,-0.7000,1.9525,2.344
4.544000,-1.1673,-0.6752,1.1363,1.763
4.544000,-1.2157,-0.6723,0.3372,1.430
4.546000,-1.3038,-0.6805,-0.4430,1.536
4.552000,-1.3627,-0.7413,-1.3559,2.060
4.556000,-1.4981,-0.8107,-2.1174,2.717
4.561000,-1.6128,-0.9039,-2.6159,3.203
4.566000,-1.6599,-0.9605,-3.0675,3.618
4.570000,-1.6664,-0.9513,-3.5348,4.022
4.576000,-1.6957,-0.9334,-3.8484,4.308
4.582000,-1.7509,-0.9374,-4.0971,4.553
4.586000,-1.7872,-0.9104,-4.3340,4.776
4.595000,-1.7720,-0.9262,-4.3752,4.810
4.596000,-1.7128,-1.0352,-4.3309,4.771
4.600000,-1.5169,-1.1086,-4.3277,4.718
4.606000,-1.2732,-1.1874,-4.3607,4.695
4.613000,-1.0124,-1.3076,-4.1306,4.449
4.617000,-0.7811,-1.3791,-3.9028,4.212
4.620000,-0.5568,-1.4571,-3.7416,4.054
4.658000,-0.2916,-1.5641,-3.5293,3.871
4.660000,-0.1553,-1.6740,-3.2918,3.696
4.662000,-0.0932,-1.7448,-3.0432,3.509
4.662000,-0.1359,-1.8322,-2.5844,3.171
4.663000,-0.1034,-1.8435,-2.1474,2.832
4.663000,-0.0425,-1.8208,-1.7624,2.534
4.663000,-0.0299,-1.7934,-1.4792,2.325
4.664000,-0.0769,-1.7809,-1.2042,2.151
4.666000,-0.1202,-1.6955,-1.0469,1.996
4.670000,-0.0134,-1.6548,-0.9976,1.932
4.676000,0.1360,-1.6298,-0.9963,1.915
4.680000,0.2513,-1.6038,-1.1220,1.973
4.684000,0.3537,-1.5506,-1.2980,2.053
4.689000,0.4952,-1.4865,-1.3427,2.063
4.695000,0.6994,-1.4471,-1.5267,2.217
4.699000,0.8916,-1.3791,-1.9123,2.521
4.704000,0.9565,-1.3201,-2.3370,2.849
4.713000,0.9224,-1.3146,-2.6531,3.101
4.715000,0.8345,-1.2829,-2.8659,3.249
4.722000,0.6898,-1.1434,-2.9901,3.275
4.724000,0.5317,-1.0274,-2.9782,3.195
4.750000,0.3746,-0.9326,-2.9522,3.119
4.752000,0.2519,-0.8183,-2.8953,3.019
4.752000,0.1111,-0.7325,-2.8053,2.901
4.752000,-0.0518,-0.6325,-2.6770,2.751
4.753000,-0.1857,-0.5686,-2.6180,2.685
4.754000,-0.3814,-0.5166,-2.7170,2.792
4.759000,-0.5902,-0.4496,-2.7206,2.820
4.765000,-0.7452,-0.4032,-2.6912,2.821
4.769000,-0.7852,-0.2219,-2.6816,2.803
4.773000,-0.7348,-0.0015,-2.5769,2.680
4.779000,-0.7425,0.0930,-2.4323,2.545
4.784000,-0.7552,0.1693,-2.1642,2.298
4.790000,-0.8274,0.2895,-1.9519,2.140
4.795000,-0.8997,0.3600,-1.8455,2.084
4.800000,-0.9285,0.5198,-1.5460,1.877
4.805000,-0.9737,0.6608,-1.3501,1.791
4.812000,-1.0991,0.7186,-1.2122,1.787
4.815000,-1.2495,0.8442,-0.9864,1.802
4.819000,-1.3053,0.9515,-0.7951,1.800
4.841000,-1.3027,0.9830,-0.7217,1.784
4.842000,-1.2896,1.0754,-0.6156,1.788
4.842000,-1.3142,1.1282,-0.3860,1.775
4.843000,-1.3407,1.1513,-0.1504,1.774
4.843000,-1.2835,1.1515,0.0842,1.726
4.848000,-1.3225,1.1622,0.3061,1.787
4.854000,-1.4174,1.2214,0.6278,1.974
4.859000,-1.4065,1.2713,1.0086,2.147
4.863000,-1.3562,1.3238,1.2646,2.278
4.868000,-1.2447,1.3884,1.4078,2.336
4.873000,-1.1240,1.4603,1.5411,2.402
4.878000,-1.0413,1.4727,1.7195,2.492
4.883000,-1.0514,1.4854,2.0529,2.743
4.888000,-0.9858,1.5393,2.2230,2.878
4.894000,-0.8659,1.5461,2.3923,2.977
4.898000,-0.6967,1.6039,2.6374,3.164
4.905000,-0.5164,1.5807,2.8197,3.274
4.909000,-0.3612,1.6179,3.1546,3.564
4.913000,-0.2072,1.6214,3.5416,3.901
4.918000,-0.0929,1.6008,3.9188,4.234
4.924000,-0.0093,1.6054,4.2817,4.573
4.928000,0.1005,1.6297,4.6954,4.971
4.933000,0.1667,1.6803,4.8973,5.180
4.938000,0.0697,1.6849,5.1317,5.402
4.947000,-0.0728,1.6432,5.2912,5.541
4.948000,-0.1498,1.6176,5.2706,5.515
4.953000,-0.2133,1.5747,5.2612,5.496
4.980000,-0.0743,1.5765,5.1867,5.422
4.982000,0.0613,1.5394,4.8941,5.131
4.983000,0.1847,1.5310,4.3903,4.653
4.983000,0.2623,1.5046,3.8951,4.184
4.983000,0.3416,1.4947,3.2979,3.637
4.984000,0.4509,1.5111,2.8304,3.240
4.987000,0.5300,1.4808,2.5375,2.985
4.995000,0.5841,1.5361,2.2630,2.797
4.997000,0.6419,1.5334,2.0331,2.626
5.002000,0.6190,1.4587,1.8309,2.421
5.008000,0.5608,1.3745,1.5798,2.168
5.012000,0.5769,1.2763,1.3895,1.973
5.017000,0.5451,1.2147,1.1953,1.789
5.022000,0.5200,1.1202,0.9876,1.581
5.027000,0.4315,0.9570,1.1036,1.523
5.032000,0.3444,0.7298,1.4570,1.666
5.037000,0.2920,0.5476,1.7086,1.818
5.048000,0.2763,0.4406,1.9641,2.032
5.050000,0.3355,0.3863,2.3940,2.448
5.052000,0.4820,0.3212,2.6233,2.687
5.057000,0.6256,0.2328,2.7076,2.789
5.086000,0.7884,0.0873,2.6880,2.803
5.087000,0.9134,-0.0130,2.5170,2.678
5.088000,1.0781,-0.0993,2.4172,2.649
5.089000,1.2446,-0.1238,2.1710,2.506
5.089000,1.3655,-0.1990,1.8528,2.310
5.089000,1.4624,-0.2552,1.4266,2.059
5.096000,1.5162,-0.3135,0.8563,1.769
5.097000,1.5483,-0.3612,0.1442,1.596
5.102000,1.5437,-0.3928,-0.4111,1.645
5.106000,1.5336,-0.4365,-0.8938,1.828
5.111000,1.5008,-0.4798,-1.3641,2.084
5.117000,1.4041,-0.5771,-1.6668,2.255
5.121000,1.2411,-0.6445,-2.0917,2.516
5.126000,1.1592,-0.6932,-2.4932,2.836
5.131000,1.0485,-0.7613,-2.8405,3.122
5.136000,0.9104,-0.8602,-3.1386,3.379
5.149000,0.7805,-0.9349,-3.3279,3.544
5.150000,0.6375,-0.9920,-3.2942,3.499
5.151000,0.5055,-1.0679,-3.2836,3.490
5.193000,0.4849,-1.1510,-3.1669,3.404
5.195000,0.5109,-1.2225,-3.0611,3.336
5.195000,0.5575,-1.3594,-2.9133,3.263
5.196000,0.6439,-1.4379,-2.7064,3.132
5.196000,0.7035,-1.4752,-2.5239,3.007
5.197000,0.7679,-1.4907,-2.4231,2.947
5.197000,0.8157,-1.5806,-2.3389,2.938
5.197000,0.8012,-1.6731,-2.3837,3.020
5.198000,0.7551,-1.7682,-2.3828,3.062
5.201000,0.7869,-1.8444,-2.3410,3.082
5.210000,0.8627,-1.9095,-2.2126,3.047
5.213000,0.9726,-1.9472,-2.0382,2.982
5.216000,1.1070,-1.9915,-1.9322,2.987
5.220000,1.2156,-2.0281,-1.9591,3.071
5.226000,1.2720,-2.0717,-2.0685,3.192
5.231000,1.3408,-2.1483,-2.0688,3.270
5.237000,1.4078,-2.1718,-2.1303,3.352
5.242000,1.4876,-2.1779,-2.2552,3.470
5.246000,1.5375,-2.1687,-2.4436,3.611
5.250000,1.5050,-2.2254,-2.6071,3.744
5.255000,1.3976,-2.2066,-2.6502,3.721
5.265000,1.2589,-2.1889,-2.6997,3.697
5.267000,1.2300,-2.1409,-2.8396,3.763
5.270000,1.2799,-2.0458,-2.8784,3.756
5.309000,1.3823,-1.9657,-3.0149,3.855
5.310000,1.4322,-1.9743,-3.1630,3.994
5.311000,1.3364,-1.9589,-3.1483,3.941
5.312000,1.1841,-1.9381,-3.0814,3.828
5.312000,1.0612,-1.8545,-3.0054,3.687
5.312000,1.0294,-1.7341,-2.8153,3.463
5.313000,1.0856,-1.6678,-2.7051,3.358
5.313000,1.1430,-1.6554,-2.5742,3.267
5.315000,1.2296,-1.6229,-2.2840,3.060
5.320000,1.2879,-1.4678,-1.9157,2.735
5.325000,1.4684,-1.2478,-1.6009,2.505
5.330000,1.5490,-1.0709,-1.2388,2.254
5.335000,1.5371,-0.9923,-0.9680,2.070
5.342000,1.4814,-0.9118,-0.6016,1.841
5.345000,1.4899,-0.8318,-0.2020,1.718
5.349000,1.4149,-0.6762,0.1212,1.573
5.355000,1.5058,-0.4642,0.1671,1.585
5.360000,1.5090,-0.2817,0.2828,1.561
5.365000,1.4489,-0.1739,0.4513,1.528
5.370000,1.3753,-0.0407,0.6822,1.536
5.383000,1.3935,0.1707,1.0041,1.726
5.385000,1.4004,0.4169,1.1635,1.868
5.386000,1.3748,0.6070,1.3019,1.988
5.389000,1.3578,0.8107,1.4692,2.159
5.435000,1.3853,0.9468,1.4141,2.194
5.436000,1.3234,1.1045,1.3996,2.220
5.436000,1.2249,1.2414,1.3082,2.180
5.437000,1.1375,1.3531,1.1562,2.112
5.437000,0.9603,1.4403,1.0270,2.013
5.437000,0.7387,1.5442,1.0398,2.003
5.437000,0.5134,1.6892,1.2013,2.135
5.438000,0.3774,1.7773,1.3820,2.283
5.438000,0.2943,1.8208,1.4622,2.354
5.439000,0.2207,1.8392,1.5016,2.385
5.444000,0.1824,1.8565,1.7703,2.572
5.449000,0.2057,1.8228,1.9882,2.705
5.456000,0.1561,1.7573,2.2008,2.821
5.460000,0.0595,1.6187,2.6643,3.118
5.464000,0.0136,1.4284,3.2568,3.556
5.469000,-0.0198,1.2999,3.7853,4.002
5.478000,-0.0503,1.1633,4.3148,4.469
5.479000,-0.0945,1.0986,4.8581,4.982
5.484000,-0.1143,1.0190,5.2315,5.331
5.488000,-0.0330,0.9185,5.5100,5.586
5.510000,0.0493,0.7821,5.6442,5.698
5.511000,0.1164,0.6809,5.6272,5.669
5.511000,0.1362,0.6194,5.5193,5.556
5.512000,0.0428,0.5907,5.2271,5.261
5.513000,-0.1365,0.5783,4.8366,4.873
5.518000,-0.4087,0.5683,4.3381,4.394
5.525000,-0.6499,0.5591,3.8604,3.954
5.528000,-0.8676,0.5652,3.4296,3.583
5.533000,-1.0314,0.5398,3.0474,3.262
5.544000,-1.1272,0.5001,2.6036,2.881
5.546000,-1.1336,0.5543,2.1743,2.514
5.548000,-1.0844,0.5547,1.8332,2.201
5.553000,-1.0066,0.4706,1.5226,1.885
5.559000,-0.8622,0.3793,1.1584,1.493
5.563000,-0.6995,0.2766,1.0322,1.277
5.569000,-0.5328,0.1743,1.0527,1.193
5.574000,-0.4625,0.1179,1.2749,1.361
5.578000,-0.4433,0.0565,1.6773,1.736
5.583000,-0.5012,0.0131,2.1456,2.203
5.588000,-0.4690,-0.0089,2.6205,2.662
5.612000,-0.4563,-0.0438,2.9880,3.023
5.613000,-0.4942,-0.1595,3.2749,3.316
5.613000,-0.5516,-0.2421,3.4340,3.486
5.613000,-0.6640,-0.3257,3.5617,3.638
5.614000,-0.7642,-0.3532,3.6196,3.716
5.619000,-0.8465,-0.3419,3.6344,3.747
5.623000,-0.9847,-0.3733,3.5371,3.691
5.627000,-1.1204,-0.4548,3.3278,3.541
5.632000,-1.2124,-0.4809,3.1668,3.425
5.637000,-1.2386,-0.5067,2.8843,3.180
5.643000,-1.2658,-0.4819,2.5282,2.868
5.648000,-1.3564,-0.4658,2.1079,2.550
5.654000,-1.3742,-0.4677,1.5421,2.118
5.657000,-1.3994,-0.5177,0.8617,1.723
5.663000,-1.3485,-0.5437,0.1550,1.462
5.668000,-1.3276,-0.6020,-0.5259,1.550
5.672000,-1.4182,-0.6697,-1.2321,1.994
5.678000,-1.4553,-0.6625,-1.9352,2.510
5.682000,-1.5402,-0.6724,-2.7126,3.191
5.687000,-1.6664,-0.6985,-3.4907,3.931
5.698000,-1.8541,-0.7203,-4.1841,4.633
5.699000,-1.9908,-0.7157,-4.6574,5.115
5.702000,-2.1199,-0.7222,-4.8825,5.372
5.741000,-2.2415,-0.7946,-5.0274,5.562
5.742000,-2.3937,-0.8728,-4.9990,5.611
5.742000,-2.5502,-0.9501,-4.8643,5.574
5.743000,-2.6516,-1.0173,-4.6710,5.467
5.743000,-2.7102,-1.1133,-4.3566,5.250
5.744000,-2.7335,-1.2461,-4.0545,5.046
5.745000,-2.7264,-1.3588,-3.7334,4.818
5.745000,-2.6939,-1.4789,-3.4020,4.584
5.746000,-2.5785,-1.6068,-2.9931,4.265
5.751000,-2.4641,-1.7054,-2.5612,3.942
5.756000,-2.2522,-1.7759,-2.2775,3.662
5.761000,-1.9477,-1.8904,-2.0581,3.406
5.766000,-1.5936,-1.9614,-1.8974,3.160
5.771000,-1.1492,-2.0490,-1.7498,2.929
5.777000,-0.6570,-2.1084,-1.6508,2.757
5.781000,-0.2091,-2.1371,-1.6553,2.711
5.786000,0.1780,-2.1616,-1.7321,2.776
5.796000,0.4903,-2.2012,-1.8760,2.933
5.797000,0.7758,-2.2514,-2.0680,3.154
5.801000,0.9823,-2.3096,-2.2505,3.371
5.806000,1.1370,-2.2990,-2.3376,3.470
5.829000,1.2619,-2.2461,-2.5447,3.621
5.830000,1.2720,-2.1696,-2.7140,3.700
5.831000,1.2877,-2.1171,-3.0275,3.912
5.831000,1.1486,-2.0928,-3.3419,4.107
5.832000,0.9529,-2.0578,-3.4853,4.158
5.836000,0.7649,-1.9952,-3.6398,4.221
5.842000,0.5533,-1.8735,-3.8010,4.274
5.846000,0.3274,-1.7637,-3.9047,4.297
5.852000,0.1611,-1.6108,-3.9844,4.301
5.858000,0.1134,-1.4476,-3.9306,4.190
5.861000,0.1218,-1.3317,-3.8534,4.079
5.866000,0.0520,-1.1551,-3.8080,3.980
5.871000,-0.0988,-1.0419,-3.6846,3.830
5.876000,-0.2327,-0.9039,-3.4663,3.590
5.881000,-0.3546,-0.7219,-3.1701,3.271
5.885000,-0.4050,-0.5561,-2.9488,3.028
5.891000,-0.4725,-0.3730,-2.6350,2.703
5.896000,-0.5308,-0.1990,-2.4775,2.541
5.901000,-0.5490,-0.0630,-2.3372,2.402
5.905000,-0.5941,0.0785,-2.2406,2.319
5.910000,-0.6516,0.2589,-2.1518,2.263
5.916000,-0.6738,0.4451,-2.0352,2.190
5.920000,-0.6557,0.6349,-1.8312,2.046
5.930000,-0.6571,0.7876,-1.6021,1.902
5.932000,-0.6352,0.9509,-1.3213,1.748
5.936000,-0.5394,1.1224,-0.9413,1.561
5.975000,-0.5561,1.2156,-0.6985,1.508
5.976000,-0.6298,1.2854,-0.4445,1.499
5.977000,-0.6818,1.3509,-0.0884,1.516
5.977000,-0.7049,1.4357,0.2720,1.622
5.978000,-0.7226,1.5801,0.5961,1.837
5.979000,-0.6968,1.7717,0.8555,2.087
5.980000,-0.6870,1.9291,0.9737,2.267
5.980000,-0.7048,1.9832,1.0394,2.347
5.981000,-0.7139,1.9991,1.0882,2.385
5.985000,-0.8266,2.0319,1.2181,2.509
5.990000,-0.8226,2.0915,1.5412,2.725
5.995000,-0.8597,2.1680,1.7849,2.937
6.000000,-0.9589,2.2135,2.0448,3.162
6.004000,-1.1103,2.2210,2.3019,3.386
6.014000,-1.2950,2.1928,2.3864,3.490
6.016000,-1.4254,2.2009,2.4275,3.573
6.019000,-1.4686,2.2164,2.5642,3.694
6.050000,-1.5058,2.3159,2.7459,3.895
6.052000,-1.5778,2.3347,2.8506,4.008
6.053000,-1.6518,2.3301,2.9787,4.127
6.053000,-1.7210,2.2831,3.2905,4.359
6.053000,-1.6527,2.2436,3.5635,4.524
6.053000,-1.4811,2.3115,3.6952,4.603
6.055000,-1.2215,2.2400,3.8798,4.644
6.060000,-0.9703,2.1555,3.9643,4.616
6.064000,-0.6228,2.0700,4.0111,4.557
6.069000,-0.3346,2.0192,3.8648,4.373
6.075000,-0.2107,1.9578,3.6284,4.128
6.080000,-0.0930,1.9652,3.3543,3.889
6.085000,-0.0763,1.8941,3.0468,3.588
6.089000,-0.0373,1.7450,2.7798,3.282
6.094000,-0.1447,1.6192,2.5839,3.053
6.099000,-0.2664,1.5575,2.6143,3.055
6.105000,-0.4017,1.4762,2.6628,3.071
6.110000,-0.5362,1.3868,2.9233,3.280
6.114000,-0.5982,1.2528,3.5106,3.775
6.119000,-0.4746,1.0779,3.8082,3.986
6.147000,-0.2872,0.8665,4.0318,4.134
6.149000,-0.0672,0.7163,4.1674,4.229
6.149000,0.2355,0.5073,4.0671,4.105
6.149000,0.4888,0.2635,4.0158,4.054
6.150000,0.6084,0.1092,4.0444,4.091
6.150000,0.7598,0.0463,3.9307,4.004
6.153000,0.9062,-0.0951,3.6247,3.737
6.158000,1.0522,-0.2621,3.3321,3.504
6.163000,1.1409,-0.4137,3.0910,3.321
6.168000,1.1985,-0.5642,2.9419,3.226
6.173000,1.3187,-0.6919,2.8416,3.208
6.179000,1.5134,-0.7493,2.5248,3.038
6.184000,1.6272,-0.7335,2.3596,2.959
6.188000,1.6578,-0.7812,2.0927,2.782
6.195000,1.5934,-0.8490,1.7980,2.548
6.199000,1.5179,-0.8576,1.4514,2.269
6.203000,1.4336,-0.8906,1.1081,2.019
6.212000,1.3854,-0.8831,0.6744,1.776
6.214000,1.3614,-0.8805,0.2462,1.640
6.218000,1.3804,-0.9349,-0.0622,1.668
6.223000,1.5093,-0.9411,-0.2794,1.800
6.233000,1.7122,-0.9948,-0.5468,2.054
6.234000,1.8241,-1.0311,-0.7974,2.242
6.238000,1.8955,-1.0667,-1.1701,2.470
