time,ax,ay,az,aT
13.911000,-0.6262,-0.4451,-1.5983,1.773
13.913000,-0.5005,-0.3234,-1.4486,1.566
13.918000,-0.3024,-0.2387,-1.1854,1.246
13.922000,-0.0796,-0.1692,-0.7277,0.751
13.965000,0.1207,-0.1008,-0.0542,0.166
13.966000,0.2540,-0.1060,0.6993,0.751
13.966000,0.4264,-0.0725,1.4299,1.494
13.966000,0.4862,-0.0948,2.2176,2.272
13.967000,0.4081,-0.1520,2.8236,2.857
13.967000,0.2950,-0.2088,3.1578,3.178
13.967000,0.0608,-0.2609,3.2665,3.277
13.967000,-0.2469,-0.2153,3.0688,3.086
13.968000,-0.6578,-0.0648,2.6321,2.714
13.973000,-1.0580,0.1408,2.0949,2.351
13.978000,-1.3673,0.4163,1.5717,2.124
13.984000,-1.5773,0.6737,0.9831,1.977
13.987000,-1.7275,0.8803,0.5344,2.011
13.992000,-1.6800,1.0699,0.0243,1.992
13.998000,-1.6054,1.2553,-0.4115,2.079
14.002000,-1.4948,1.4274,-0.6779,2.175
14.012000,-1.3264,1.6992,-0.8568,2.320
14.014000,-1.0599,2.0446,-1.0418,2.528
14.017000,-0.8003,2.2918,-1.1450,2.684
14.021000,-0.4400,2.5132,-1.0234,2.749
14.066000,0.0310,2.7309,-0.6943,2.818
14.067000,0.5995,2.8325,-0.1629,2.900
14.067000,1.1083,2.9260,0.4508,3.161
14.067000,1.5594,2.9942,1.1158,3.556
14.068000,1.9561,2.9894,1.8848,4.039
14.068000,2.2788,2.8466,2.7219,4.550
14.068000,2.5096,2.5915,3.5009,5.027
14.070000,2.7138,2.3224,4.0878,5.428
14.070000,2.7968,2.0932,4.5794,5.760
14.071000,2.7804,1.9541,5.0450,6.083
14.077000,2.6890,1.9018,5.4759,6.390
14.082000,2.4799,1.7533,5.8178,6.563
14.087000,2.1771,1.6186,5.9873,6.573
14.092000,1.8447,1.4108,5.9281,6.367
14.097000,1.4177,1.1635,5.6689,5.958
14.102000,0.9022,0.9340,5.1913,5.351
14.108000,0.4212,0.6818,4.6246,4.693
14.111000,0.0402,0.4980,4.0836,4.114
14.117000,-0.3259,0.3971,3.5898,3.626
14.121000,-0.5728,0.2622,3.2099,3.271
14.126000,-0.7283,0.2195,2.7719,2.874
14.131000,-0.7622,0.2021,2.3931,2.520
14.136000,-0.7879,0.1622,2.1212,2.269
14.144000,-0.7581,0.1403,1.9059,2.056
14.155000,-0.6775,0.1002,1.7785,1.906
14.156000,-0.5631,0.0705,1.7459,1.836
14.158000,-0.3689,-0.0038,1.7220,1.761
14.228000,-0.1904,-0.0561,1.6878,1.699
14.228000,0.0160,-0.1129,1.6531,1.657
14.229000,0.1741,-0.1290,1.5676,1.583
14.229000,0.3179,-0.1524,1.4651,1.507
14.231000,0.4720,-0.1688,1.3503,1.440
14.231000,0.6129,-0.1326,1.1896,1.345
14.232000,0.7795,-0.1180,1.0165,1.286
14.232000,0.9366,-0.1366,0.7087,1.182
14.232000,1.1060,-0.1453,0.4219,1.193
14.233000,1.2161,-0.1605,0.1152,1.232
14.233000,1.2221,-0.2130,-0.2285,1.261
14.233000,1.2107,-0.2281,-0.6046,1.372
14.233000,1.1460,-0.2367,-0.9465,1.505
14.234000,1.0808,-0.2841,-1.3306,1.738
14.234000,1.0054,-0.3507,-1.6761,1.986
14.235000,0.8840,-0.3957,-1.9638,2.190
14.243000,0.8334,-0.4550,-2.1436,2.345
14.246000,0.7915,-0.4878,-2.3951,2.569
14.250000,0.7290,-0.4821,-2.6991,2.837
14.256000,0.6458,-0.4927,-2.8476,2.961
14.261000,0.6065,-0.4862,-3.0512,3.149
14.266000,0.5104,-0.5006,-3.3052,3.382
14.270000,0.4219,-0.5212,-3.5334,3.596
14.318000,0.3263,-0.5455,-3.7524,3.806
14.319000,0.1924,-0.5685,-3.8023,3.849
14.320000,0.0417,-0.5375,-3.9176,3.955
14.320000,-0.0496,-0.5100,-3.9237,3.957
14.321000,-0.1558,-0.5194,-3.8280,3.866
14.321000,-0.1975,-0.4795,-3.6856,3.722
14.321000,-0.1511,-0.4695,-3.5203,3.555
14.322000,-0.1577,-0.4992,-3.3704,3.411
14.323000,-0.1791,-0.5281,-3.2091,3.257
14.323000,-0.2178,-0.5494,-3.0077,3.065
14.327000,-0.2453,-0.5199,-2.8020,2.860
14.329000,-0.3095,-0.4830,-2.6278,2.690
14.343000,-0.3484,-0.4509,-2.3726,2.440
14.349000,-0.3405,-0.4453,-2.0505,2.126
14.350000,-0.3216,-0.4186,-1.6973,1.778
14.350000,-0.2675,-0.4262,-1.3775,1.467
14.354000,-0.1851,-0.4230,-1.1457,1.235
14.388000,-0.0910,-0.4137,-0.9683,1.057
14.389000,-0.0400,-0.4129,-0.8764,0.970
14.389000,0.0277,-0.3678,-0.8243,0.903
14.390000,0.0956,-0.3646,-0.8146,0.898
14.391000,0.0922,-0.3433,-0.7969,0.873
14.391000,0.1515,-0.3110,-0.8384,0.907
14.391000,0.1587,-0.3177,-0.9320,0.997
14.394000,0.2046,-0.2889,-1.0348,1.094
14.400000,0.2462,-0.2866,-1.0609,1.126
14.405000,0.2908,-0.2532,-1.0008,1.073
14.409000,0.3530,-0.1888,-0.9050,0.990
14.414000,0.3613,-0.1458,-0.8239,0.911
14.419000,0.4043,-0.1555,-0.7740,0.887
14.424000,0.3482,-0.1511,-0.6619,0.763
14.429000,0.1693,-0.1279,-0.6453,0.679
14.434000,0.0155,-0.1267,-0.6285,0.641
14.438000,-0.1639,-0.1451,-0.7023,0.736
14.445000,-0.3338,-0.1448,-0.7493,0.833
14.449000,-0.4487,-0.0973,-0.8124,0.933
14.454000,-0.5453,0.0048,-0.8418,1.003
14.471000,-0.6455,0.0206,-0.8947,1.103
14.473000,-0.7157,0.0505,-0.9355,1.179
14.474000,-0.7468,0.0638,-0.9117,1.180
14.474000,-0.6981,0.0963,-0.8568,1.109
14.530000,-0.5772,0.1457,-0.8115,1.006
14.531000,-0.4272,0.2525,-0.6300,0.802
14.532000,-0.2365,0.3451,-0.4513,0.615
14.532000,-0.0573,0.4428,-0.2059,0.492
14.533000,0.1345,0.4807,0.1371,0.518
14.533000,0.2727,0.5546,0.4653,0.774
14.533000,0.3026,0.6141,0.7333,1.003
14.534000,0.3039,0.6638,1.2857,1.478
14.534000,0.3159,0.6197,1.7898,1.920
14.535000,0.3198,0.5601,2.2727,2.362
14.535000,0.2753,0.5159,2.6795,2.743
14.535000,0.1970,0.4625,2.8314,2.876
14.538000,-0.0658,0.4834,2.7218,2.765
14.545000,-0.3007,0.5836,2.3747,2.464
14.549000,-0.5040,0.7682,1.9791,2.182
14.554000,-0.7195,0.9492,1.4915,1.909
14.561000,-0.8663,1.0392,1.0095,1.688
14.564000,-0.9404,1.1798,0.5923,1.621
14.567000,-0.9426,1.2955,0.2774,1.626
14.572000,-0.9116,1.3553,0.2512,1.653
14.613000,-0.8832,1.4768,0.4603,1.781
14.614000,-0.7783,1.5544,0.7661,1.900
14.615000,-0.6251,1.6785,1.1137,2.109
14.615000,-0.4618,1.7197,1.3717,2.248
14.615000,-0.3387,1.6994,1.6435,2.388
14.615000,-0.2530,1.6578,1.8932,2.529
14.616000,-0.0939,1.6739,2.2168,2.779
14.616000,0.0697,1.6208,2.4729,2.958
14.619000,0.1575,1.5415,2.7979,3.198
14.623000,0.2301,1.4646,3.0078,3.353
14.628000,0.2021,1.3783,3.0523,3.355
14.633000,0.1745,1.3089,3.0032,3.281
14.637000,0.0207,1.2518,2.8676,3.129
14.642000,-0.2090,1.2120,2.6073,2.883
14.647000,-0.4482,1.1776,2.3491,2.666
14.652000,-0.6734,1.0846,2.0232,2.392
14.658000,-0.8922,0.9762,1.6798,2.138
14.662000,-1.0597,0.8981,1.4049,1.976
14.667000,-1.2031,0.8409,1.2103,1.902
14.672000,-1.2871,0.8140,1.0529,1.851
14.682000,-1.2764,0.8436,0.9639,1.808
14.684000,-1.2316,0.8674,0.9554,1.784
14.687000,-1.0667,0.8778,0.9796,1.694
14.743000,-0.9180,0.8484,1.1323,1.687
14.744000,-0.7304,0.8269,1.2964,1.702
14.745000,-0.5101,0.7699,1.4864,1.750
14.745000,-0.3237,0.6679,1.6711,1.829
14.745000,-0.1610,0.5924,1.7837,1.886
14.745000,-0.1000,0.5001,1.7097,1.784
14.746000,-0.1427,0.4176,1.6380,1.696
14.746000,-0.1958,0.3186,1.5207,1.566
14.746000,-0.2613,0.2131,1.2618,1.306
14.746000,-0.3680,0.0799,1.0575,1.123
14.747000,-0.4659,-0.0572,0.9101,1.024
14.747000,-0.5242,-0.2289,0.7667,0.957
14.751000,-0.5072,-0.3564,0.6179,0.875
14.758000,-0.4992,-0.4952,0.6051,0.928
14.761000,-0.5097,-0.5830,0.6253,0.995
14.766000,-0.4719,-0.6348,0.6837,1.046
14.772000,-0.4625,-0.7350,0.7402,1.141
14.778000,-0.4218,-0.8479,0.7376,1.200
14.782000,-0.4335,-0.9718,0.6884,1.267
14.786000,-0.4334,-1.0974,0.5356,1.296
14.795000,-0.3953,-1.1768,0.3557,1.291
14.796000,-0.4555,-1.2700,0.2588,1.374
14.801000,-0.4753,-1.3769,-0.0205,1.457
14.806000,-0.4505,-1.4186,-0.3697,1.534
14.845000,-0.4579,-1.4379,-0.7099,1.668
14.845000,-0.4619,-1.4682,-0.9671,1.818
14.846000,-0.4365,-1.4663,-1.1082,1.889
14.846000,-0.4126,-1.4440,-1.3795,2.039
14.846000,-0.3613,-1.4372,-1.6017,2.182
14.846000,-0.3307,-1.4337,-1.7846,2.313
14.847000,-0.2988,-1.4405,-2.0286,2.506
14.847000,-0.2492,-1.4335,-2.1738,2.616
14.852000,-0.2199,-1.4245,-2.3017,2.716
14.856000,-0.1798,-1.4012,-2.4699,2.845
14.862000,-0.1049,-1.3373,-2.5612,2.891
14.865000,0.0002,-1.2855,-2.6428,2.939
14.870000,0.1333,-1.2405,-2.6981,2.973
14.876000,0.2563,-1.1808,-2.6461,2.909
14.881000,0.3985,-1.1422,-2.5539,2.826
14.885000,0.5144,-1.1104,-2.5674,2.844
14.940000,0.6859,-0.9897,-2.4879,2.764
14.941000,0.8250,-0.9668,-2.4568,2.766
14.941000,0.9534,-0.9770,-2.4501,2.805
14.941000,0.9544,-0.9269,-2.4296,2.770
14.942000,0.9599,-0.9003,-2.4241,2.758
14.942000,0.9123,-0.9425,-2.3547,2.695
14.942000,0.8765,-0.9913,-2.3385,2.687
14.942000,0.8550,-1.0061,-2.2799,2.635
14.943000,0.7780,-1.0994,-2.3151,2.678
14.943000,0.6552,-1.1660,-2.3938,2.742
14.943000,0.5507,-1.2274,-2.3985,2.750
14.946000,0.3972,-1.2789,-2.4085,2.756
14.951000,0.2619,-1.3636,-2.3994,2.772
14.956000,0.1153,-1.3765,-2.4168,2.784
14.961000,-0.0117,-1.4347,-2.4390,2.830
14.965000,-0.1506,-1.4617,-2.4228,2.834
14.970000,-0.2635,-1.4125,-2.3921,2.790
14.976000,-0.3984,-1.3566,-2.3800,2.768
14.981000,-0.5315,-1.3322,-2.4083,2.803
14.985000,-0.6918,-1.3081,-2.4625,2.873
14.991000,-0.7764,-1.2175,-2.4851,2.874
14.996000,-0.8624,-1.1031,-2.5602,2.918
15.000000,-0.9833,-0.9982,-2.5395,2.900
15.004000,-1.0628,-0.8978,-2.5024,2.863
15.061000,-1.1106,-0.7635,-2.3628,2.720
15.065000,-1.1028,-0.6169,-2.1903,2.529
15.068000,-1.0585,-0.4673,-1.9778,2.291
15.070000,-1.0854,-0.3556,-1.7611,2.099
15.070000,-1.0281,-0.2553,-1.4853,1.824
15.071000,-0.9536,-0.1453,-1.1599,1.509
15.072000,-0.8380,-0.0588,-0.8087,1.166
15.073000,-0.6690,0.0232,-0.4534,0.809
15.075000,-0.4966,0.1052,-0.0198,0.508
15.076000,-0.3203,0.1108,0.4277,0.546
15.077000,-0.1277,0.1019,0.9130,0.927
15.078000,0.0700,0.1047,1.2975,1.304
15.078000,0.1803,0.0902,1.6316,1.644
15.079000,0.1486,0.0847,1.8987,1.906
15.079000,0.0594,0.0954,2.1060,2.109
15.084000,-0.0562,0.1103,2.3014,2.305
15.090000,-0.2171,0.1316,2.4922,2.505
15.094000,-0.3564,0.1400,2.4969,2.526
15.099000,-0.5058,0.1378,2.3993,2.456
15.104000,-0.6777,0.2231,2.0947,2.213
15.146000,-0.9013,0.3530,1.6857,1.944
15.147000,-1.1202,0.5206,1.2489,1.757
15.147000,-1.2899,0.7049,0.9059,1.727
15.147000,-1.4305,0.8751,0.6779,1.809
15.148000,-1.5260,1.0816,0.5527,1.950
15.148000,-1.5097,1.2645,0.5040,2.033
15.148000,-1.4393,1.3690,0.4144,2.029
15.148000,-1.3052,1.5821,0.3362,2.078
15.149000,-1.0816,1.8654,0.2240,2.168
15.153000,-0.8254,2.1452,0.1085,2.301
15.159000,-0.4504,2.4101,-0.0228,2.452
15.163000,-0.0191,2.6274,-0.0819,2.629
15.169000,0.5049,2.8026,-0.0217,2.848
15.174000,1.1146,2.9651,0.3604,3.188
15.178000,1.7324,3.0409,0.9201,3.619
15.184000,2.2284,2.9655,1.7125,4.086
15.188000,2.6609,2.7961,2.5530,4.628
15.193000,3.0603,2.5847,3.3921,5.249
15.197000,3.3725,2.3355,4.3735,5.996
15.203000,3.5683,2.0547,5.3353,6.739
15.216000,3.6492,1.8008,6.1443,7.370
15.218000,3.5422,1.5273,6.8683,7.877
15.219000,3.3081,1.2260,7.3888,8.188
15.223000,2.8329,0.8578,7.4555,8.022
15.282000,2.1977,0.4775,7.0452,7.395
15.283000,1.4466,0.2022,6.2904,6.458
15.283000,0.7286,-0.0533,5.4326,5.482
15.283000,0.0673,-0.1884,4.5463,4.551
15.284000,-0.4856,-0.2792,3.8319,3.873
15.284000,-1.0137,-0.4116,3.0574,3.247
15.284000,-1.3066,-0.4444,2.2947,2.678
15.285000,-1.4925,-0.4728,1.7372,2.339
15.285000,-1.5346,-0.5019,1.2653,2.051
15.285000,-1.4891,-0.5369,0.9701,1.857
15.285000,-1.3302,-0.5128,0.8175,1.643
15.285000,-1.0682,-0.5262,0.7289,1.396
15.287000,-0.7605,-0.4937,0.6854,1.137
15.292000,-0.4114,-0.4444,0.7015,0.927
15.297000,-0.0466,-0.4816,0.6530,0.813
15.301000,0.2460,-0.4500,0.5712,0.768
15.307000,0.4810,-0.4047,0.3868,0.738
15.313000,0.7020,-0.3837,0.2097,0.827
15.317000,0.9462,-0.3173,0.0612,1.000
15.322000,1.1431,-0.3223,-0.1070,1.192
15.329000,1.2841,-0.3240,-0.3217,1.363
15.331000,1.4397,-0.3579,-0.4300,1.545
15.336000,1.5653,-0.4023,-0.5614,1.711
15.342000,1.6214,-0.4780,-0.6829,1.823
15.348000,1.6112,-0.5659,-0.8497,1.907
15.351000,1.5880,-0.6752,-1.0691,2.030
15.412000,1.5065,-0.7530,-1.3749,2.174
15.414000,1.3670,-0.8660,-1.7240,2.364
15.415000,1.2340,-0.9854,-2.0400,2.580
15.416000,1.0810,-1.0752,-2.4498,2.885
15.416000,0.8952,-1.1470,-2.8936,3.239
15.416000,0.8311,-1.0977,-3.2042,3.487
15.417000,0.8121,-1.0258,-3.4723,3.711
15.417000,0.7251,-0.9669,-3.7485,3.938
15.418000,0.6702,-0.9499,-3.9702,4.137
15.418000,0.5414,-0.9819,-4.2142,4.361
15.418000,0.3627,-0.9958,-4.4302,4.555
15.419000,0.2554,-0.9795,-4.6542,4.763
15.419000,0.1523,-0.9784,-4.7330,4.836
15.421000,0.0866,-0.9303,-4.8035,4.893
15.426000,0.0192,-0.8973,-4.7888,4.872
15.431000,-0.0759,-0.8246,-4.7036,4.776
15.437000,-0.1866,-0.7769,-4.4759,4.547
15.445000,-0.3010,-0.7786,-4.2802,4.361
15.446000,-0.3715,-0.7701,-4.1401,4.227
15.450000,-0.5108,-0.8375,-3.9264,4.047
15.456000,-0.5727,-0.8328,-3.7155,3.851
15.491000,-0.6624,-0.8301,-3.4285,3.589
15.492000,-0.6625,-0.8197,-3.0800,3.255
15.492000,-0.6299,-0.7445,-2.7488,2.917
15.493000,-0.6214,-0.7530,-2.4062,2.597
15.493000,-0.6152,-0.7448,-2.0543,2.270
15.493000,-0.6351,-0.7561,-1.8485,2.096
15.493000,-0.6356,-0.7198,-1.7623,2.007
15.496000,-0.6266,-0.6908,-1.6857,1.926
15.500000,-0.6533,-0.6354,-1.6953,1.925
15.506000,-0.6374,-0.5343,-1.7004,1.893
15.510000,-0.5860,-0.4446,-1.6246,1.783
15.515000,-0.4823,-0.3496,-1.3414,1.468
15.520000,-0.3259,-0.3021,-0.9775,1.074
15.525000,-0.1594,-0.2831,-0.6358,0.714
15.531000,-0.0188,-0.2836,-0.2871,0.404
15.535000,0.1561,-0.2488,0.0328,0.296
15.541000,0.2361,-0.1627,0.2050,0.352
15.546000,0.2308,-0.0828,0.2919,0.381
15.551000,0.2026,-0.0260,0.3941,0.444
15.556000,0.0633,0.0675,0.4206,0.431
15.561000,-0.0919,0.1139,0.4100,0.435
15.565000,-0.2697,0.1255,0.4314,0.524
15.570000,-0.4104,0.1549,0.6258,0.764
15.618000,-0.6096,0.1305,0.8161,1.027
15.619000,-0.7933,0.0928,0.8660,1.178
15.619000,-0.9591,0.0558,0.9052,1.320
15.620000,-1.1172,0.0315,0.8092,1.380
15.620000,-1.1820,0.0585,0.6570,1.354
15.620000,-1.3048,0.1273,0.3290,1.352
15.620000,-1.4678,0.2191,0.0715,1.486
15.621000,-1.4324,0.3533,-0.0130,1.475
15.621000,-1.3043,0.4895,0.1037,1.397
15.621000,-1.0983,0.5944,0.4023,1.312
15.629000,-0.8187,0.6125,0.8802,1.349
15.630000,-0.5321,0.5796,1.4683,1.666
15.635000,-0.2380,0.5694,1.9251,2.022
15.640000,0.0788,0.6175,2.4687,2.546
15.644000,0.2644,0.6324,2.9916,3.069
15.649000,0.4462,0.6327,3.1715,3.265
15.655000,0.5767,0.6854,3.2409,3.362
15.659000,0.6174,0.7352,3.1450,3.288
15.664000,0.5785,0.8687,2.9315,3.112
15.669000,0.5485,1.0721,2.6503,2.911
15.675000,0.4938,1.2234,2.3564,2.701
15.679000,0.3138,1.3116,2.1115,2.505
15.684000,0.0922,1.3150,1.9084,2.319
15.688000,-0.0732,1.3444,1.6104,2.099
15.734000,-0.2859,1.3284,1.2914,1.875
15.735000,-0.4552,1.3579,1.0352,1.767
15.735000,-0.5744,1.4048,0.8675,1.748
15.735000,-0.7133,1.5386,0.7185,1.842
15.735000,-0.8286,1.6849,0.5359,1.953
15.736000,-0.9068,1.8131,0.3599,2.059
15.736000,-0.9484,1.9015,0.1476,2.130
15.736000,-0.8893,1.9602,-0.0320,2.153
15.736000,-0.8326,2.0110,-0.2677,2.193
15.740000,-0.7951,2.0925,-0.3946,2.273
15.744000,-0.7312,2.1954,-0.3989,2.348
15.748000,-0.6669,2.2765,-0.3813,2.403
15.755000,-0.5782,2.3482,-0.2486,2.431
15.758000,-0.4124,2.4631,-0.0345,2.498
15.764000,-0.1644,2.5442,0.1630,2.555
15.768000,0.0133,2.6107,0.2985,2.628
15.775000,0.2190,2.6602,0.4081,2.700
15.778000,0.3526,2.6568,0.4750,2.722
15.783000,0.4001,2.6463,0.5873,2.740
15.788000,0.5195,2.6936,0.7091,2.833
15.828000,0.6658,2.6955,0.9719,2.942
15.829000,0.7986,2.5688,1.2821,2.980
15.829000,0.9352,2.3612,1.5033,2.951
15.829000,1.0402,2.1517,1.7195,2.944
15.830000,1.1045,1.9236,2.0046,2.990
15.830000,1.1239,1.7267,2.3615,3.134
15.830000,1.1038,1.5035,2.7328,3.309
15.830000,1.0425,1.2342,3.1906,3.576
15.834000,0.9763,0.9207,3.5489,3.794
15.838000,0.8623,0.5387,3.8154,3.949
15.843000,0.7081,0.1305,3.9790,4.044
15.848000,0.5187,-0.2181,3.8393,3.880
15.852000,0.3267,-0.5051,3.5212,3.572
15.858000,0.0691,-0.7164,3.1185,3.201
15.862000,-0.1851,-0.9162,2.6407,2.801
15.867000,-0.4299,-1.0688,2.0495,2.351
15.872000,-0.6015,-1.2286,1.4882,2.021
15.878000,-0.7443,-1.3573,1.0428,1.866
15.882000,-0.7802,-1.4573,0.8040,1.838
15.887000,-0.8260,-1.6027,0.4703,1.863
15.945000,-0.7346,-1.7007,0.1950,1.863
15.946000,-0.7119,-1.7871,0.0140,1.924
15.946000,-0.6985,-1.8215,-0.1182,1.954
15.946000,-0.6830,-1.8954,-0.2682,2.032
15.946000,-0.6868,-1.9036,-0.3857,2.060
15.947000,-0.6842,-1.9421,-0.4563,2.109
15.947000,-0.5817,-2.0040,-0.5921,2.169
15.947000,-0.5016,-2.0273,-0.6832,2.197
15.947000,-0.4153,-2.0672,-0.7675,2.244
15.948000,-0.3342,-2.0733,-0.8717,2.274
15.948000,-0.2320,-2.0746,-0.9236,2.283
15.948000,-0.1756,-2.0759,-1.0312,2.325
15.953000,-0.0500,-2.1033,-1.2325,2.438
15.958000,-0.0274,-2.1233,-1.4392,2.565
15.962000,-0.0380,-2.1453,-1.6392,2.700
15.967000,-0.0437,-2.1235,-1.8545,2.820
15.973000,-0.0516,-2.0648,-2.0255,2.893
15.979000,-0.0516,-2.0362,-2.1689,2.975
15.983000,-0.0224,-2.0131,-2.4192,3.147
15.987000,0.0080,-1.9785,-2.5947,3.263
15.995000,0.0254,-1.9966,-2.6336,3.305
15.997000,0.0257,-1.9572,-2.7108,3.344
16.002000,0.0327,-1.8890,-2.7545,3.340
16.006000,0.0467,-1.8540,-2.7600,3.325
16.058000,0.0986,-1.8023,-2.8421,3.367
16.059000,0.1167,-1.7001,-2.9028,3.366
16.059000,0.1416,-1.6097,-2.9588,3.371
16.060000,0.1733,-1.5216,-3.0387,3.403
16.060000,0.2453,-1.4474,-3.0926,3.423
16.060000,0.3215,-1.3394,-3.1038,3.396
16.060000,0.3900,-1.2716,-3.2086,3.473
16.061000,0.4389,-1.1888,-3.1990,3.441
16.061000,0.4441,-1.1006,-3.1350,3.352
16.061000,0.4707,-1.0499,-3.0813,3.289
16.061000,0.4684,-1.0273,-2.9612,3.169
16.067000,0.4875,-1.0016,-2.8419,3.052
16.072000,0.4969,-0.9561,-2.6371,2.849
16.076000,0.4345,-0.9963,-2.4736,2.702
16.081000,0.3580,-1.0074,-2.2508,2.492
16.087000,0.2771,-0.9870,-2.0166,2.262
16.093000,0.2279,-0.9521,-1.7564,2.011
16.096000,0.1676,-0.9483,-1.5182,1.798
16.101000,0.0820,-0.9447,-1.3087,1.616
16.106000,-0.0050,-0.9151,-1.0802,1.416
16.111000,-0.1555,-0.8525,-1.0237,1.341
16.116000,-0.3025,-0.8430,-1.0362,1.370
16.121000,-0.4679,-0.8002,-1.0988,1.438
16.126000,-0.5994,-0.7935,-1.1683,1.534
16.134000,-0.6852,-0.7674,-1.2690,1.634
16.186000,-0.7854,-0.6884,-1.3963,1.744
16.186000,-0.8813,-0.6300,-1.4643,1.821
16.187000,-0.9278,-0.5082,-1.4520,1.797
16.187000,-0.9348,-0.3661,-1.2806,1.627
16.187000,-0.9001,-0.2109,-0.9528,1.328
16.187000,-0.7925,-0.1647,-0.4373,0.920
16.187000,-0.6358,-0.1346,0.1081,0.659
16.188000,-0.5228,-0.1281,0.5330,0.758
16.188000,-0.4298,-0.1647,0.9072,1.017
16.188000,-0.3994,-0.1633,1.5180,1.578
16.188000,-0.3878,-0.1197,2.0284,2.069
16.197000,-0.4451,-0.0846,2.4699,2.511
16.197000,-0.4177,-0.0034,2.9625,2.992
16.201000,-0.4011,0.1093,3.3270,3.353
16.207000,-0.4520,0.1479,3.4967,3.529
16.211000,-0.5580,0.2486,3.3908,3.445
16.216000,-0.7717,0.3879,3.0189,3.140
16.221000,-0.9837,0.5661,2.4693,2.718
16.226000,-1.2042,0.7765,1.9309,2.404
16.230000,-1.4629,0.9626,1.4292,2.260
16.235000,-1.6673,1.1179,0.8609,2.184
16.288000,-1.6873,1.1856,0.3595,2.093
16.288000,-1.5214,1.3052,0.0439,2.005
16.289000,-1.3282,1.4197,-0.2849,1.965
16.289000,-1.0808,1.6087,-0.5224,2.007
16.289000,-0.7266,1.8705,-0.6573,2.112
16.289000,-0.2827,2.1336,-0.4510,2.199
16.290000,0.2877,2.3502,0.0290,2.368
16.290000,0.9230,2.4844,0.5962,2.717
16.290000,1.5435,2.4854,1.2363,3.176
16.291000,2.0310,2.4463,1.9543,3.732
16.291000,2.4611,2.3429,2.5781,4.265
16.295000,2.7878,2.2442,3.3377,4.894
16.300000,2.9436,2.0326,4.1230,5.458
16.305000,3.0350,1.7985,4.6259,5.818
16.309000,2.9960,1.5506,4.9934,6.026
16.314000,2.8460,1.3913,5.2116,6.099
16.319000,2.5708,1.2267,5.1783,5.910
16.328000,2.0571,0.9945,4.9684,5.469
16.331000,1.3752,0.7779,4.5300,4.798
16.334000,0.6313,0.4845,3.9156,3.996
16.340000,-0.0073,0.2482,3.3768,3.386
16.392000,-0.5162,0.0453,2.8729,2.919
16.393000,-0.8685,-0.1026,2.5686,2.713
16.393000,-1.1425,-0.2508,2.2657,2.550
16.394000,-1.2034,-0.2825,1.9475,2.307
16.394000,-1.1882,-0.3174,1.8176,2.195
16.394000,-1.1356,-0.3632,1.8231,2.178
16.395000,-0.9884,-0.4151,1.8709,2.156
16.395000,-0.7486,-0.4307,1.9683,2.149
16.395000,-0.4348,-0.4462,2.1299,2.219
16.395000,-0.0339,-0.4285,2.2171,2.258
16.395000,0.3211,-0.3944,2.2274,2.285
16.399000,0.6245,-0.3443,2.0082,2.131
16.404000,0.8842,-0.3351,1.7053,1.950
16.411000,0.9504,-0.3212,1.2134,1.574
16.413000,0.9356,-0.3186,0.5943,1.153
16.418000,0.9472,-0.2907,-0.0950,0.995
16.426000,0.8894,-0.2752,-0.6254,1.122
16.429000,0.8486,-0.2379,-1.0213,1.349
16.434000,0.8726,-0.2308,-1.3553,1.628
16.439000,0.9136,-0.2540,-1.6035,1.863
16.484000,1.0221,-0.3049,-1.7828,2.078
16.484000,1.1385,-0.3452,-1.9125,2.252
16.485000,1.2099,-0.3175,-2.0954,2.440
16.486000,1.2702,-0.3080,-2.2430,2.596
16.488000,1.3456,-0.2953,-2.3338,2.710
16.489000,1.4270,-0.3057,-2.4515,2.853
16.490000,1.4616,-0.3226,-2.5672,2.972
16.490000,1.4524,-0.4200,-2.7648,3.151
16.492000,1.4065,-0.4472,-2.9653,3.312
16.494000,1.2688,-0.5332,-3.1327,3.422
16.495000,1.1829,-0.6159,-3.2840,3.544
16.499000,1.1387,-0.6904,-3.4502,3.698
16.503000,1.0432,-0.7518,-3.4999,3.729
16.509000,0.8890,-0.7979,-3.6793,3.868
16.515000,0.7116,-0.8523,-3.8930,4.048
16.519000,0.5730,-0.9054,-4.0427,4.182
16.525000,0.4518,-0.8924,-4.1313,4.251
16.529000,0.3644,-0.8899,-4.1347,4.245
16.533000,0.2150,-0.8884,-4.0770,4.178
16.537000,0.0798,-0.9260,-3.9846,4.092
16.544000,-0.0651,-0.9407,-3.8287,3.943
16.548000,-0.1887,-0.9399,-3.6044,3.730
16.554000,-0.2889,-0.9741,-3.3569,3.507
16.562000,-0.3900,-0.9818,-3.1194,3.293
16.564000,-0.4799,-0.9702,-2.8607,3.059
16.568000,-0.5254,-0.9159,-2.6496,2.852
16.574000,-0.5625,-0.8622,-2.4958,2.700
16.608000,-0.6082,-0.8380,-2.3845,2.600
16.609000,-0.6531,-0.7527,-2.2509,2.462
16.610000,-0.6232,-0.6564,-2.1383,2.322
16.610000,-0.6023,-0.5684,-2.0824,2.241
16.610000,-0.5666,-0.4648,-1.9181,2.053
16.611000,-0.4610,-0.3740,-1.7868,1.883
16.611000,-0.3258,-0.2866,-1.5666,1.626
16.612000,-0.1702,-0.2359,-1.2982,1.330
16.617000,-0.0558,-0.1600,-1.0341,1.048
16.622000,0.0368,-0.1163,-0.7839,0.793
16.627000,0.0961,-0.0881,-0.6266,0.640
16.633000,0.1413,-0.0466,-0.5595,0.579
16.638000,0.1823,-0.0038,-0.4106,0.449
16.641000,0.2360,0.0498,-0.2538,0.350
16.649000,0.2570,0.0857,-0.1612,0.315
16.652000,0.2550,0.1779,-0.0059,0.311
16.657000,0.2616,0.2618,0.1141,0.387
16.663000,0.2650,0.3350,0.2729,0.507
16.668000,0.2487,0.3472,0.5039,0.661
16.673000,0.1914,0.3460,0.6041,0.722
16.685000,0.0764,0.3575,0.5712,0.678
16.686000,-0.0084,0.4271,0.4464,0.618
16.687000,-0.1523,0.4829,0.1819,0.538
16.757000,-0.3057,0.5348,-0.0573,0.619
16.758000,-0.5077,0.6166,-0.2595,0.840
16.758000,-0.6918,0.6589,-0.4702,1.065
16.759000,-0.8111,0.6599,-0.6155,1.213
16.759000,-0.7992,0.7153,-0.6119,1.235
16.759000,-0.7017,0.7631,-0.5146,1.157
16.760000,-0.5350,0.8367,-0.3094,1.040
16.760000,-0.3158,0.9191,-0.0895,0.976
16.760000,-0.0962,1.0150,0.1306,1.028
16.761000,0.0906,1.1314,0.4039,1.205
16.761000,0.2282,1.2370,0.7041,1.441
16.761000,0.2862,1.3865,0.9547,1.708
16.762000,0.2481,1.4913,1.0843,1.860
16.762000,0.2577,1.6594,1.0377,1.974
16.763000,0.2340,1.7471,1.2576,2.165
16.767000,0.0535,1.7835,1.4207,2.281
16.773000,-0.0870,1.8671,1.4094,2.341
16.777000,-0.2236,2.0025,1.3558,2.429
16.784000,-0.3468,2.1065,1.2020,2.450
16.786000,-0.4640,2.2391,0.9575,2.479
16.795000,-0.6355,2.3747,0.5573,2.521
16.797000,-0.7739,2.4784,0.0753,2.597
16.802000,-0.8513,2.5893,-0.2934,2.741
16.806000,-0.9163,2.6895,-0.4874,2.883
16.862000,-0.9020,2.8417,-0.4166,3.010
16.863000,-0.7296,3.0245,0.0499,3.112
16.863000,-0.4466,3.1444,0.6800,3.248
16.863000,-0.0331,3.1746,1.4427,3.487
16.864000,0.4113,3.0810,2.2739,3.851
16.864000,0.7273,2.8820,3.0139,4.233
16.864000,1.0140,2.6820,3.5390,4.555
16.865000,1.1003,2.4926,4.1178,4.938
16.865000,1.0325,2.2680,4.6116,5.242
16.865000,0.9117,2.0387,4.9254,5.408
16.866000,0.7455,1.7997,5.1766,5.531
16.866000,0.4889,1.6030,5.3396,5.596
16.872000,0.1343,1.3502,5.3024,5.473
16.878000,-0.2635,1.1225,5.0271,5.158
16.880000,-0.6484,0.9819,4.7198,4.864
16.887000,-1.0214,0.8159,4.4453,4.634
16.890000,-1.4069,0.7035,3.8448,4.154
16.895000,-1.7206,0.6499,3.2053,3.696
16.900000,-1.8730,0.6197,2.7251,3.364
16.905000,-1.9416,0.5772,2.1599,2.961
16.962000,-1.9394,0.5706,1.6290,2.596
16.963000,-1.8741,0.5981,1.1917,2.300
16.966000,-1.7873,0.5931,0.9337,2.102
16.967000,-1.6168,0.6082,0.8882,1.942
16.968000,-1.3242,0.5741,1.0646,1.793
16.970000,-0.9660,0.5285,1.3648,1.754
16.971000,-0.6228,0.4138,1.6693,1.829
16.971000,-0.2645,0.2846,1.8782,1.918
16.972000,0.0456,0.1527,1.9603,1.967
16.974000,0.2965,0.0278,1.8968,1.920
16.976000,0.4510,-0.1045,1.7977,1.856
16.977000,0.4667,-0.2729,1.5937,1.683
16.978000,0.4494,-0.4649,1.4066,1.548
16.979000,0.4087,-0.6302,1.1214,1.350
16.980000,0.3401,-0.8333,0.8411,1.232
16.986000,0.2746,-1.0670,0.5202,1.218
16.990000,0.2043,-1.2380,0.3119,1.293
17.002000,0.1791,-1.3540,0.2210,1.384
17.006000,0.1368,-1.5326,0.0399,1.539
17.006000,0.0817,-1.6666,-0.2407,1.686
17.062000,-0.0059,-1.7802,-0.6897,1.909
17.062000,-0.0616,-1.8825,-1.1184,2.190
17.063000,-0.1415,-1.9783,-1.4286,2.444
17.064000,-0.2815,-2.0679,-1.6779,2.678
17.064000,-0.3789,-2.1224,-2.0289,2.961
17.065000,-0.4541,-2.1493,-2.3403,3.210
17.065000,-0.5603,-2.1462,-2.5834,3.405
17.065000,-0.6191,-2.0893,-2.7823,3.534
17.066000,-0.5494,-2.0694,-2.9608,3.654
17.066000,-0.5382,-2.0553,-3.0641,3.729
17.066000,-0.5373,-2.0923,-3.2098,3.869
17.067000,-0.5420,-2.1104,-3.4242,4.059
17.070000,-0.5811,-2.0570,-3.5976,4.185
17.075000,-0.5297,-1.9843,-3.6297,4.170
17.081000,-0.5051,-1.9521,-3.6571,4.176
17.084000,-0.4569,-1.8618,-3.6443,4.118
17.088000,-0.3609,-1.7639,-3.5578,3.987
17.093000,-0.2425,-1.6651,-3.4195,3.811
17.098000,-0.1231,-1.5775,-3.2294,3.596
17.103000,0.0816,-1.4628,-2.9805,3.321
17.110000,0.2813,-1.3472,-2.7205,3.049
17.114000,0.4168,-1.2812,-2.4472,2.794
17.118000,0.5346,-1.2218,-2.2274,2.596
17.180000,0.5963,-1.1570,-2.0393,2.419
17.181000,0.6143,-1.1277,-1.9357,2.323
17.185000,0.6057,-1.1505,-1.7824,2.206
17.186000,0.5297,-1.1441,-1.6321,2.062
17.189000,0.5278,-1.1181,-1.4418,1.899
17.190000,0.4899,-1.1757,-1.2639,1.794
17.192000,0.4163,-1.2308,-1.1008,1.703
17.194000,0.3520,-1.2501,-1.0477,1.669
17.195000,0.2730,-1.2700,-1.0852,1.693
17.195000,0.2028,-1.3358,-1.1893,1.800
17.196000,0.1219,-1.3516,-1.3361,1.904
17.196000,-0.0132,-1.3054,-1.5471,2.024
17.197000,-0.1072,-1.3238,-1.6120,2.089
17.197000,-0.2059,-1.3277,-1.6482,2.126
17.198000,-0.2592,-1.2957,-1.5577,2.043
17.198000,-0.3102,-1.3213,-1.3787,1.935
17.203000,-0.3084,-1.3688,-1.1278,1.800
17.213000,-0.3207,-1.3883,-0.9340,1.704
17.215000,-0.3757,-1.4090,-0.9021,1.715
17.217000,-0.4664,-1.3878,-0.9458,1.743
17.223000,-0.5527,-1.3079,-1.0244,1.751
17.281000,-0.6636,-1.1981,-1.1092,1.762
17.283000,-0.7920,-1.0651,-1.1956,1.786
17.284000,-0.8858,-0.9760,-1.1858,1.773
17.284000,-0.9425,-0.8922,-1.0512,1.670
17.285000,-1.0628,-0.9164,-0.8878,1.661
17.286000,-1.0170,-0.9433,-0.7075,1.557
17.290000,-0.9751,-0.9346,-0.4983,1.440
17.292000,-0.9348,-0.8929,-0.3415,1.337
17.293000,-0.7646,-0.8971,-0.2324,1.201
17.294000,-0.5438,-0.8033,-0.0012,0.970
17.295000,-0.3010,-0.6978,0.2991,0.817
17.295000,-0.0211,-0.6307,0.7141,0.953
17.295000,0.1410,-0.6383,1.2509,1.411
17.295000,0.2272,-0.6320,1.6440,1.776
17.299000,0.2598,-0.5406,2.1856,2.266
17.302000,0.0915,-0.5992,2.7423,2.808
17.307000,-0.0666,-0.6957,2.9796,3.060
17.312000,-0.3296,-0.7206,2.9558,3.060
17.317000,-0.6763,-0.6406,2.7479,2.902
17.323000,-1.0910,-0.4866,2.3033,2.595
17.377000,-1.5218,-0.2608,1.6676,2.273
17.378000,-1.9628,0.0185,1.0604,2.231
17.378000,-2.2116,0.2298,0.3376,2.249
17.378000,-2.2459,0.4436,-0.2670,2.305
17.379000,-2.0403,0.7159,-0.7879,2.301
17.379000,-1.7800,0.9655,-1.3690,2.444
17.380000,-1.5056,1.2295,-1.8964,2.716
17.380000,-1.2196,1.5349,-2.2537,2.987
17.380000,-0.9989,1.9108,-2.5037,3.304
17.381000,-0.7047,2.3412,-2.4201,3.440
17.381000,-0.2026,2.7285,-2.1450,3.477
17.381000,0.4582,3.0181,-1.7411,3.514
17.387000,1.2331,3.2796,-1.1347,3.683
17.392000,2.0207,3.4126,-0.5244,4.001
17.396000,2.6885,3.4529,0.2451,4.383
17.401000,3.2475,3.4459,1.0206,4.844
17.406000,3.6066,3.3101,2.0942,5.324
17.411000,3.9776,3.0045,3.2791,5.967
17.416000,4.2473,2.6193,4.2554,6.558
17.420000,4.3743,2.2729,5.1918,7.159
17.472000,4.3667,1.9479,6.0745,7.731
17.473000,4.1157,1.5500,6.8253,8.120
17.474000,3.5909,1.0468,7.4171,8.307
17.474000,2.9027,0.5313,7.7212,8.266
17.474000,2.0367,0.0166,7.6172,7.885
17.475000,1.1081,-0.5071,6.9843,7.090
17.475000,0.2631,-0.9104,6.2032,6.275
17.475000,-0.5302,-1.1958,5.4061,5.562
17.476000,-1.1898,-1.3391,4.6669,4.999
17.476000,-1.5749,-1.3955,3.9737,4.496
17.476000,-1.7855,-1.4324,3.3843,4.086
17.482000,-1.8637,-1.4091,2.7285,3.592
17.486000,-1.7847,-1.3640,2.0592,3.047
17.491000,-1.6721,-1.2806,1.5319,2.604
17.497000,-1.4637,-1.1350,1.0507,2.129
17.500000,-1.1844,-0.9845,0.6871,1.686
17.506000,-0.8293,-0.8266,0.4263,1.246
17.510000,-0.4509,-0.7000,0.2902,0.882
17.516000,-0.0626,-0.5425,0.2807,0.614
17.520000,0.3033,-0.4547,0.2568,0.604
17.527000,0.6456,-0.4054,0.2567,0.804
17.530000,0.8840,-0.3922,0.1200,0.975
17.535000,1.0800,-0.3764,-0.0600,1.145
17.606000,1.2438,-0.3552,-0.4010,1.354
17.607000,1.3576,-0.2921,-0.8434,1.625
17.607000,1.4289,-0.2559,-1.2538,1.918
17.608000,1.4799,-0.1285,-1.6519,2.222
17.608000,1.5903,-0.0459,-1.9357,2.506
17.608000,1.6456,-0.0383,-2.1605,2.716
17.609000,1.6490,-0.0602,-2.3245,2.851
17.609000,1.6825,-0.0779,-2.4445,2.969
17.609000,1.6554,-0.1247,-2.6093,3.093
17.610000,1.6512,-0.1718,-2.7997,3.255
17.610000,1.5405,-0.2048,-2.9559,3.340
17.610000,1.3821,-0.1978,-2.9891,3.299
17.610000,1.2616,-0.1678,-2.9758,3.237
17.611000,1.0974,-0.1177,-2.9203,3.122
17.611000,0.9704,-0.1075,-2.8154,2.980
17.616000,0.8133,-0.1854,-2.7349,2.859
17.621000,0.6779,-0.2367,-2.6329,2.729
17.625000,0.5474,-0.3359,-2.6363,2.713
17.629000,0.3855,-0.4187,-2.6942,2.754
17.634000,0.2253,-0.4159,-2.7826,2.823
17.641000,-0.0123,-0.4108,-2.8611,2.890
17.645000,-0.2344,-0.4204,-2.8674,2.908
17.649000,-0.3978,-0.4515,-2.8114,2.875
17.654000,-0.5363,-0.5185,-2.7218,2.822
17.712000,-0.6764,-0.5833,-2.5172,2.671
17.713000,-0.6911,-0.5766,-2.2623,2.435
17.713000,-0.6809,-0.6016,-2.0166,2.212
17.714000,-0.6647,-0.6322,-1.8280,2.045
17.714000,-0.6425,-0.6134,-1.7010,1.919
17.714000,-0.5974,-0.5668,-1.5663,1.770
17.714000,-0.5388,-0.5258,-1.4646,1.647
17.715000,-0.4352,-0.4735,-1.3673,1.511
17.715000,-0.3174,-0.4195,-1.2863,1.390
17.715000,-0.2167,-0.4045,-1.1094,1.201
17.715000,-0.0967,-0.3422,-0.8222,0.896
17.715000,0.0575,-0.3620,-0.5756,0.682
17.720000,0.1796,-0.3348,-0.2714,0.467
17.724000,0.2509,-0.3280,-0.1533,0.440
17.729000,0.3244,-0.3510,-0.0872,0.486
17.734000,0.3425,-0.3751,-0.1114,0.520
17.738000,0.2983,-0.3357,-0.1875,0.487
17.745000,0.2080,-0.2543,-0.2892,0.438
17.749000,0.0497,-0.1666,-0.4189,0.454
17.753000,-0.0981,-0.1156,-0.5145,0.536
17.822000,-0.1566,-0.0795,-0.5594,0.586
17.823000,-0.2985,-0.0203,-0.6730,0.736
17.824000,-0.4093,0.0267,-0.7025,0.813
17.824000,-0.4939,0.0563,-0.6598,0.826
17.824000,-0.5717,0.1286,-0.5882,0.830
17.824000,-0.5880,0.2147,-0.4923,0.796
17.824000,-0.6405,0.2690,-0.3648,0.785
17.825000,-0.6675,0.3225,-0.3661,0.827
17.825000,-0.6813,0.4041,-0.3645,0.872
17.825000,-0.6866,0.4517,-0.4102,0.919
17.825000,-0.6118,0.4847,-0.4294,0.891
17.826000,-0.5148,0.5202,-0.3265,0.801
17.826000,-0.4671,0.5703,-0.2024,0.764
17.826000,-0.3708,0.6015,0.0314,0.707
17.830000,-0.2210,0.6329,0.3987,0.780
17.834000,-0.0387,0.6597,0.7583,1.006
17.839000,0.0737,0.6766,0.9647,1.181
17.844000,0.2526,0.7723,1.3240,1.553
17.849000,0.3268,0.8027,1.8459,2.039
17.853000,0.3638,0.8199,2.0644,2.251
17.860000,0.4663,0.8766,2.1664,2.383
17.862000,0.4958,0.9271,2.1904,2.430
17.867000,0.4380,0.9644,2.0527,2.310
17.872000,0.2521,1.0461,1.8467,2.137
17.923000,0.0792,1.1440,1.6485,2.008
17.924000,-0.0167,1.2848,1.3764,1.883
17.925000,-0.1008,1.3802,1.0927,1.763
17.925000,-0.1738,1.4497,0.8473,1.688
17.925000,-0.2338,1.4700,0.6588,1.628
17.925000,-0.2236,1.5487,0.5821,1.670
17.925000,-0.1910,1.6693,0.6361,1.797
17.926000,-0.1314,1.8434,0.7658,2.000
17.926000,-0.0324,1.9493,0.8848,2.141
17.926000,0.0941,2.0251,1.0074,2.264
17.928000,0.2674,2.0397,1.0693,2.318
17.933000,0.3683,1.9980,1.2354,2.378
17.938000,0.4569,1.9121,1.4076,2.418
17.942000,0.4308,1.8442,1.6383,2.504
17.947000,0.4273,1.8016,1.8891,2.645
17.952000,0.4587,1.7698,2.0787,2.768
17.958000,0.3651,1.7917,2.2956,2.935
17.962000,0.1857,1.7691,2.5210,3.085
17.967000,-0.0168,1.6970,2.6162,3.118
17.971000,-0.2691,1.6303,2.5121,3.007
17.980000,-0.5718,1.5259,2.4029,2.903
17.983000,-0.9301,1.3767,2.1498,2.717
17.987000,-1.2735,1.3383,1.7962,2.577
18.058000,-1.5170,1.3822,1.4542,2.515
18.059000,-1.5827,1.4391,1.2122,2.459
18.059000,-1.5261,1.4303,1.0674,2.348
18.059000,-1.3788,1.3919,0.9577,2.181
18.060000,-1.2102,1.3428,0.9595,2.047
18.060000,-1.0254,1.3000,1.0750,1.974
18.061000,-0.7544,1.2246,1.3476,1.971
18.061000,-0.4540,1.1622,1.6885,2.099
18.061000,-0.1660,1.0883,1.9881,2.273
18.062000,0.1010,0.9619,2.1318,2.341
18.062000,0.3169,0.8261,2.2154,2.386
18.062000,0.4180,0.6141,2.1697,2.293
18.063000,0.4101,0.4336,2.0639,2.148
18.063000,0.3846,0.2249,1.7976,1.852
18.063000,0.2196,0.0003,1.4999,1.516
18.066000,0.0158,-0.2494,1.2137,1.239
18.071000,-0.1674,-0.5243,0.8936,1.049
18.076000,-0.3401,-0.7883,0.5682,1.030
18.082000,-0.4884,-0.9911,0.2712,1.138
18.087000,-0.6704,-1.1930,0.1126,1.373
18.095000,-0.8310,-1.4276,-0.0437,1.652
18.096000,-0.9450,-1.6354,-0.1998,1.899
18.101000,-1.0650,-1.8216,-0.3482,2.139
18.105000,-1.1201,-1.9172,-0.6513,2.314
18.153000,-1.1833,-2.0162,-0.8525,2.488
18.154000,-1.2952,-2.1088,-1.0263,2.679
18.154000,-1.4326,-2.2577,-1.2774,2.963
18.154000,-1.4790,-2.3099,-1.5460,3.149
18.154000,-1.4974,-2.3183,-1.7220,3.253
18.155000,-1.4383,-2.3643,-1.8628,3.336
18.155000,-1.3684,-2.3930,-1.9613,3.383
18.156000,-1.2715,-2.3807,-2.1393,3.444
18.156000,-1.1787,-2.3919,-2.2916,3.516
18.156000,-1.1237,-2.3788,-2.4637,3.604
18.164000,-1.0632,-2.3150,-2.5768,3.623
18.166000,-1.0091,-2.2385,-2.7004,3.650
18.171000,-0.9206,-2.1996,-2.8155,3.690
18.176000,-0.8335,-2.1238,-2.9030,3.692
18.180000,-0.6445,-2.0133,-2.9131,3.599
18.185000,-0.4870,-1.9540,-2.9105,3.539
18.190000,-0.3078,-1.8261,-2.8952,3.437
18.196000,-0.1705,-1.7753,-2.8701,3.379
18.200000,-0.0145,-1.6959,-2.8472,3.314
18.205000,0.1247,-1.6356,-2.7287,3.184
18.264000,0.2648,-1.5297,-2.6322,3.056
18.265000,0.3919,-1.4523,-2.4760,2.897
18.265000,0.4801,-1.3844,-2.4517,2.856
18.265000,0.5344,-1.3091,-2.4587,2.836
18.265000,0.5403,-1.2504,-2.6286,2.961
18.266000,0.5048,-1.2057,-2.8129,3.102
18.266000,0.4681,-1.1458,-3.0551,3.296
18.266000,0.3559,-1.1183,-3.2549,3.460
18.267000,0.2467,-1.0846,-3.3074,3.489
18.267000,0.1907,-1.0086,-3.2392,3.398
18.267000,0.1210,-1.0125,-3.1149,3.278
18.268000,0.1042,-1.0583,-2.9295,3.117
18.271000,0.0516,-1.0526,-2.6472,2.849
18.276000,-0.0342,-1.0748,-2.2680,2.510
18.279000,-0.1312,-1.1039,-1.9181,2.217
18.284000,-0.2081,-1.1160,-1.6621,2.013
18.289000,-0.3385,-1.1665,-1.4279,1.875
18.295000,-0.4744,-1.1572,-1.2634,1.778
18.299000,-0.6064,-1.1625,-1.2591,1.818
18.304000,-0.7871,-1.1631,-1.2692,1.893
18.311000,-1.0050,-1.0991,-1.4443,2.075
18.315000,-1.1653,-0.9702,-1.5933,2.199
18.319000,-1.2758,-0.8503,-1.6254,2.234
18.373000,-1.2462,-0.7131,-1.6030,2.152
18.374000,-1.2491,-0.6108,-1.4548,2.012
18.374000,-1.1984,-0.4860,-1.2237,1.780
18.375000,-1.0538,-0.3368,-0.9003,1.426
18.375000,-0.9301,-0.1988,-0.5849,1.117
18.376000,-0.8086,-0.1658,-0.2536,0.863
18.376000,-0.6319,-0.0560,0.1659,0.656
18.376000,-0.5342,-0.0038,0.6926,0.875
18.376000,-0.4766,0.0023,1.2073,1.298
18.377000,-0.4042,0.0361,1.8107,1.856
18.377000,-0.3814,0.0973,2.3237,2.357
18.380000,-0.3333,0.1637,2.9190,2.943
18.385000,-0.2780,0.1939,3.4080,3.425
18.389000,-0.3227,0.1376,3.6882,3.705
18.394000,-0.4235,0.1333,3.8557,3.881
18.399000,-0.5796,0.2385,3.8098,3.861
18.404000,-0.7407,0.3457,3.4863,3.581
18.411000,-0.8949,0.5370,2.9111,3.092
18.415000,-0.9808,0.7485,2.2942,2.605
18.418000,-1.0466,0.9789,1.5635,2.121
18.424000,-1.1002,1.1955,0.9334,1.874
18.480000,-1.1328,1.3848,0.4272,1.839
18.481000,-1.0903,1.5618,0.0514,1.905
18.481000,-0.9734,1.7148,-0.2348,1.986
18.481000,-0.8857,1.8945,-0.4748,2.144
18.482000,-0.6575,2.1032,-0.5517,2.272
18.482000,-0.3678,2.3676,-0.4873,2.445
18.482000,0.1030,2.5969,-0.3107,2.617
18.482000,0.6643,2.7171,0.0401,2.797
18.483000,1.2037,2.7882,0.5075,3.079
18.483000,1.6987,2.8244,1.1129,3.479
18.483000,2.1608,2.7731,1.7556,3.930
18.484000,2.5146,2.6725,2.5120,4.447
18.489000,2.7427,2.4601,3.4969,5.080
18.494000,2.9236,2.2167,4.3397,5.683
18.498000,3.0274,1.9579,5.0341,6.192
18.504000,3.0790,1.7766,5.7049,6.722
18.512000,3.0000,1.6285,6.2979,7.163
18.514000,2.7767,1.4790,6.6202,7.330
18.517000,2.3680,1.2749,6.7038,7.223
18.522000,1.7372,1.0064,6.5279,6.830
18.592000,1.0355,0.7326,6.1606,6.290
18.593000,0.3401,0.5111,5.6117,5.645
18.593000,-0.3417,0.3156,5.1161,5.137
18.594000,-0.8641,0.1723,4.5543,4.639
18.594000,-1.2144,0.0503,4.1295,4.305
18.594000,-1.3873,-0.0194,3.8300,4.074
18.594000,-1.4630,-0.0466,3.3854,3.688
18.595000,-1.3179,-0.0718,2.9893,3.268
18.595000,-1.1202,-0.0709,2.7422,2.963
18.595000,-0.8694,-0.0510,2.5216,2.668
18.595000,-0.4309,-0.0477,2.3656,2.405
18.596000,0.1078,-0.0131,2.2835,2.286
18.596000,0.6693,0.0127,2.1192,2.222
18.596000,1.1857,0.0990,1.9611,2.294
18.599000,1.6011,0.1528,1.8689,2.466
18.607000,1.9215,0.1984,1.7105,2.580
18.609000,2.1168,0.1976,1.4691,2.584
18.613000,2.2167,0.1578,1.1972,2.524
18.617000,2.2146,0.0626,0.8707,2.380
18.622000,2.1826,-0.0614,0.4847,2.237
18.629000,2.0489,-0.1564,0.0773,2.056
18.632000,1.9544,-0.2941,-0.3349,2.005
18.637000,1.8342,-0.3740,-0.6729,1.989
18.709000,1.7431,-0.4584,-0.9557,2.040
18.709000,1.6594,-0.5638,-1.3798,2.231
18.709000,1.5440,-0.6449,-1.7128,2.394
18.710000,1.4664,-0.7207,-1.9716,2.561
18.710000,1.3765,-0.8845,-2.2090,2.749
18.710000,1.2423,-0.9856,-2.5469,3.000
18.711000,1.1233,-1.0671,-2.7984,3.199
18.711000,0.9906,-1.1889,-2.9947,3.371
18.711000,0.8081,-1.2913,-3.2770,3.614
18.712000,0.6347,-1.3646,-3.5709,3.875
18.712000,0.4441,-1.4305,-3.7520,4.040
18.712000,0.2928,-1.5126,-4.0263,4.311
18.713000,0.1735,-1.5130,-4.2261,4.492
18.713000,0.0545,-1.5394,-4.3636,4.627
18.713000,-0.0331,-1.5481,-4.5683,4.824
18.717000,-0.0774,-1.5894,-4.7493,5.009
18.722000,-0.1480,-1.5936,-4.7731,5.034
18.726000,-0.1679,-1.5752,-4.7879,5.043
18.732000,-0.1779,-1.5364,-4.8395,5.081
18.736000,-0.1520,-1.5130,-4.8990,5.130
18.744000,-0.1093,-1.3949,-4.8615,5.059
18.748000,-0.0137,-1.2370,-4.6794,4.840
18.751000,0.0755,-1.1302,-4.3912,4.535
18.756000,0.1589,-1.0125,-4.0182,4.147
18.825000,0.2422,-0.9991,-3.5797,3.724
18.826000,0.2848,-1.0302,-3.1664,3.342
18.826000,0.2876,-1.0707,-2.8040,3.015
18.826000,0.3750,-1.0586,-2.5473,2.784
18.826000,0.4102,-1.0229,-2.4222,2.661
18.827000,0.4123,-0.9733,-2.2300,2.468
18.827000,0.4364,-0.8454,-2.0975,2.303
18.827000,0.4854,-0.7370,-2.0486,2.231
18.827000,0.5495,-0.6290,-1.9400,2.112
18.828000,0.5691,-0.6191,-1.8531,2.035
18.828000,0.5710,-0.6380,-1.7496,1.948
18.828000,0.6006,-0.5753,-1.7446,1.933
18.828000,0.5883,-0.5629,-1.7541,1.934
18.829000,0.5770,-0.5407,-1.7111,1.885
18.832000,0.5688,-0.4467,-1.6875,1.836
18.836000,0.5278,-0.3359,-1.6689,1.782
18.841000,0.5183,-0.3062,-1.6003,1.710
18.846000,0.4854,-0.2263,-1.5678,1.657
18.850000,0.4506,-0.1414,-1.5068,1.579
18.855000,0.3946,-0.0779,-1.4342,1.490
18.862000,0.2887,-0.0476,-1.3070,1.339
18.866000,0.2357,0.0305,-1.1320,1.157
18.870000,0.1563,0.1297,-0.9690,0.990
18.942000,0.0622,0.2354,-0.8130,0.849
18.943000,-0.0276,0.2518,-0.6253,0.675
18.943000,-0.1708,0.2432,-0.5734,0.646
18.943000,-0.2652,0.2768,-0.5566,0.676
18.944000,-0.3349,0.3046,-0.4935,0.670
18.944000,-0.3061,0.3509,-0.3152,0.562
18.944000,-0.2671,0.3727,-0.0648,0.463
18.944000,-0.1798,0.4034,0.1500,0.466
18.945000,-0.0514,0.4359,0.3364,0.553
18.945000,0.0441,0.4701,0.5829,0.750
18.945000,0.1625,0.4488,1.0065,1.114
18.945000,0.2759,0.4481,1.2534,1.359
18.946000,0.4179,0.4898,1.4096,1.550
18.946000,0.4642,0.5522,1.6212,1.774
18.946000,0.4655,0.6257,1.9169,2.069
18.949000,0.4272,0.7530,2.2369,2.399
18.954000,0.3976,0.8551,2.4785,2.652
18.960000,0.3268,0.9388,2.5750,2.760
18.964000,0.2671,1.0208,2.4813,2.696
18.969000,0.1989,1.1586,2.2024,2.496
18.979000,0.0620,1.3093,1.8890,2.299
18.980000,-0.0626,1.4421,1.5241,2.099
18.985000,-0.1922,1.5888,1.2032,2.002
18.989000,-0.2703,1.6852,0.9185,1.938
19.046000,-0.3356,1.7628,0.6603,1.912
19.048000,-0.2979,1.8365,0.4138,1.906
19.048000,-0.2413,1.9088,0.3726,1.960
19.048000,-0.1802,2.0135,0.4834,2.079
19.048000,-0.1361,2.1121,0.6747,2.221
19.049000,-0.0798,2.1877,0.9535,2.388
19.049000,0.0490,2.2473,1.3582,2.626
19.049000,0.1813,2.2547,1.6377,2.793
19.049000,0.3012,2.2913,1.8712,2.974
19.050000,0.3712,2.2828,2.0872,3.115
19.050000,0.3729,2.3057,2.1306,3.161
19.050000,0.3309,2.2957,2.1469,3.161
19.055000,0.1975,2.2629,2.1574,3.133
19.059000,-0.0031,2.2217,2.0210,3.003
19.063000,-0.1396,2.1915,1.8714,2.885
19.070000,-0.3298,2.1130,1.7036,2.734
19.074000,-0.4784,2.0701,1.6347,2.681
19.078000,-0.5283,2.0009,1.6547,2.650
19.083000,-0.5348,1.9578,1.7063,2.651
19.088000,-0.5460,1.9405,1.7634,2.678
19.142000,-0.4929,1.9274,1.8668,2.728
19.143000,-0.3903,1.8154,1.9665,2.705
19.143000,-0.3149,1.7120,1.9981,2.650
19.144000,-0.2354,1.6291,2.1818,2.733
19.144000,-0.0989,1.4755,2.4099,2.827
19.144000,0.0327,1.3253,2.5654,2.888
19.144000,0.1313,1.1854,2.8947,3.131
19.145000,0.2312,1.0628,3.2687,3.445
19.145000,0.3666,0.8948,3.5681,3.697
19.145000,0.4595,0.6449,3.7504,3.833
19.146000,0.4267,0.3560,3.7871,3.828
19.149000,0.2421,0.0182,3.6381,3.646
19.154000,0.0231,-0.2940,3.3274,3.340
19.159000,-0.2426,-0.5497,2.9294,2.990
19.163000,-0.5344,-0.7438,2.4417,2.608
19.168000,-0.7328,-0.9384,1.9502,2.285
19.172000,-0.9226,-1.1095,1.5603,2.125
19.178000,-1.0395,-1.2452,1.1307,1.977
19.182000,-1.1013,-1.4006,0.7669,1.940
19.187000,-1.1326,-1.5735,0.3662,1.973
19.193000,-1.1458,-1.6707,0.0698,2.027
19.197000,-1.1034,-1.7619,-0.1389,2.084
19.202000,-1.0293,-1.8475,-0.6760,2.220
19.252000,-0.9723,-1.8746,-1.0723,2.368
19.253000,-0.8898,-1.8671,-1.3641,2.478
19.253000,-0.9038,-1.8443,-1.6613,2.642
19.253000,-0.9307,-1.9065,-1.8780,2.833
19.254000,-0.8441,-1.9317,-2.0238,2.922
19.254000,-0.7178,-2.0011,-2.1970,3.057
19.254000,-0.6112,-2.0284,-2.3187,3.141
19.255000,-0.4933,-2.0278,-2.4968,3.254
19.255000,-0.3372,-1.9657,-2.6692,3.332
19.255000,-0.2575,-1.9497,-2.8048,3.426
19.258000,-0.1820,-1.9076,-2.9543,3.521
19.262000,-0.1034,-1.8248,-3.0749,3.577
19.268000,0.0240,-1.7394,-3.1834,3.628
19.272000,0.1311,-1.6772,-3.2158,3.629
19.277000,0.2160,-1.6599,-3.1313,3.551
19.281000,0.2528,-1.5988,-3.0763,3.476
19.286000,0.3304,-1.5680,-3.0195,3.418
19.339000,0.4677,-1.5582,-2.9823,3.397
19.340000,0.4925,-1.5213,-2.8693,3.285
19.340000,0.4846,-1.4719,-2.6589,3.077
19.340000,0.5206,-1.4532,-2.4801,2.921
19.341000,0.5267,-1.4079,-2.3474,2.787
19.341000,0.5219,-1.4150,-2.2296,2.692
19.342000,0.5759,-1.3788,-2.1001,2.577
19.342000,0.6194,-1.3737,-1.9352,2.453
19.342000,0.6333,-1.3904,-1.7942,2.357
19.343000,0.6325,-1.3740,-1.6509,2.239
19.344000,0.5404,-1.3676,-1.5698,2.151
19.348000,0.4886,-1.4241,-1.5768,2.180
19.351000,0.4123,-1.4478,-1.7126,2.280
19.358000,0.3061,-1.4408,-1.9627,2.454
19.361000,0.1623,-1.4171,-2.1957,2.618
19.367000,0.0045,-1.4006,-2.3376,2.725
19.371000,-0.1603,-1.3549,-2.3579,2.724
19.377000,-0.2675,-1.2847,-2.3283,2.673
19.381000,-0.2502,-1.2525,-2.2490,2.586
19.385000,-0.2520,-1.1939,-2.0790,2.411
19.392000,-0.2633,-1.2142,-2.0048,2.359
19.396000,-0.2748,-1.1489,-1.9711,2.298
19.401000,-0.3198,-1.0432,-1.9371,2.223
19.407000,-0.3768,-0.9475,-1.9555,2.205
19.461000,-0.4625,-0.9044,-2.0625,2.299
19.462000,-0.5939,-0.7822,-2.1479,2.362
19.462000,-0.6444,-0.6430,-2.1571,2.341
19.463000,-0.7219,-0.5079,-2.0712,2.251
19.463000,-0.7764,-0.3937,-1.8879,2.079
19.463000,-0.8054,-0.2597,-1.5908,1.802
19.463000,-0.7537,-0.1610,-1.3398,1.546
19.464000,-0.7050,-0.0857,-1.0205,1.243
19.464000,-0.5707,0.0260,-0.6971,0.901
19.464000,-0.4153,0.1332,-0.4272,0.610
19.465000,-0.2406,0.2169,-0.0409,0.327
19.467000,-0.1709,0.2723,0.3325,0.462
19.473000,-0.1238,0.3472,0.5972,0.702
19.479000,-0.1494,0.3028,0.8133,0.881
19.481000,-0.1254,0.2779,1.0765,1.119
19.485000,-0.1955,0.3181,1.3506,1.401
19.494000,-0.4337,0.3946,1.6478,1.749
19.496000,-0.5765,0.5140,2.0448,2.186
19.500000,-0.7291,0.5777,2.4176,2.590
19.505000,-0.9034,0.5853,2.4822,2.706
19.575000,-1.0688,0.6132,2.1003,2.435
19.576000,-1.1789,0.6546,1.4901,2.010
19.576000,-1.2490,0.7174,0.8210,1.658
19.576000,-1.2420,0.8025,0.0709,1.480
19.576000,-1.1971,0.8441,-0.5768,1.574
19.577000,-1.0843,0.7860,-1.0801,1.721
19.577000,-0.9351,0.8231,-1.1556,1.699
19.577000,-0.7137,0.9054,-0.8661,1.442
19.578000,-0.3576,0.9466,-0.1571,1.024
19.578000,0.1054,1.0206,0.7416,1.266
19.578000,0.5734,1.0471,1.7256,2.098
19.578000,1.0902,1.0564,2.7811,3.168
19.578000,1.5906,0.9561,4.0360,4.442
19.579000,1.9357,0.7765,5.1077,5.517
19.579000,2.1918,0.5907,5.7797,6.210
19.586000,2.4029,0.4291,6.2586,6.718
19.591000,2.5077,0.3530,6.4924,6.969
19.596000,2.4347,0.3338,6.5219,6.970
19.600000,2.1819,0.4142,6.3357,6.714
19.604000,1.7848,0.4603,5.9100,6.191
19.611000,1.2209,0.4343,5.2521,5.410
19.614000,0.5293,0.2938,4.5319,4.572
19.619000,-0.1145,0.1308,3.6414,3.646
19.687000,-0.6597,0.0754,2.8407,2.917
19.687000,-0.9889,0.0781,2.2466,2.456
19.688000,-1.1780,0.1390,1.8491,2.197
19.688000,-1.2279,0.2534,1.6719,2.090
19.688000,-1.1181,0.3347,1.6099,1.989
19.689000,-0.9788,0.3061,1.5246,1.837
19.689000,-0.8083,0.2583,1.6123,1.822
19.689000,-0.5680,0.2390,1.8226,1.924
19.689000,-0.1952,0.2097,2.2250,2.243
19.690000,0.2155,0.2728,2.5920,2.615
19.690000,0.7134,0.3922,2.8713,2.984
19.690000,1.1328,0.4982,3.0964,3.335
19.690000,1.4724,0.6168,3.1959,3.572
19.691000,1.7241,0.7694,3.1171,3.644
19.695000,1.8172,0.8653,2.8506,3.490
19.700000,1.9052,0.9384,2.4798,3.265
19.705000,1.9954,0.9723,2.1125,3.064
19.709000,2.0044,1.0054,1.7433,2.840
19.713000,1.9971,1.0120,1.3147,2.596
19.718000,1.9569,0.9684,0.8289,2.335
19.724000,1.8548,0.8943,0.3334,2.086
19.728000,1.7359,0.8355,-0.0476,1.927
19.733000,1.5880,0.7206,-0.3623,1.781
19.739000,1.4184,0.6094,-0.5893,1.652
19.799000,1.2916,0.4733,-0.7670,1.575
19.800000,1.2023,0.3527,-0.8857,1.534
19.801000,1.0715,0.2353,-1.0120,1.493
19.801000,0.9636,0.1136,-1.1338,1.492
19.801000,0.8686,0.0378,-1.3060,1.569
19.801000,0.7644,-0.0522,-1.4350,1.627
19.802000,0.6390,-0.1541,-1.5877,1.718
19.803000,0.5187,-0.2080,-1.7186,1.807
19.804000,0.4605,-0.2882,-1.8470,1.925
19.804000,0.3831,-0.3898,-1.9895,2.063
19.805000,0.3296,-0.4626,-2.1510,2.225
19.806000,0.2998,-0.5279,-2.3123,2.391
19.807000,0.2792,-0.5164,-2.4425,2.512
19.811000,0.2393,-0.5571,-2.4388,2.513
19.814000,0.2330,-0.5617,-2.3230,2.401
19.818000,0.2488,-0.5567,-2.2504,2.332
19.824000,0.2268,-0.6881,-2.2806,2.393
19.829000,0.1788,-0.7838,-2.3655,2.498
19.833000,0.0617,-0.8245,-2.4695,2.604
19.838000,-0.0600,-0.8173,-2.5062,2.637
19.844000,-0.2031,-0.8985,-2.5693,2.729
19.848000,-0.3560,-0.9724,-2.6634,2.858
19.852000,-0.4522,-0.9935,-2.6999,2.912
19.925000,-0.4945,-1.0241,-2.6551,2.888
19.926000,-0.5043,-1.0520,-2.5768,2.829
19.926000,-0.4985,-1.0800,-2.4291,2.705
19.927000,-0.4241,-1.1009,-2.2743,2.562
19.927000,-0.3674,-1.1126,-2.1623,2.459
19.927000,-0.2494,-1.0627,-2.0619,2.333
19.927000,-0.1658,-1.0447,-1.9610,2.228
19.928000,-0.0853,-1.0060,-1.9289,2.177
19.928000,-0.0172,-0.9587,-1.8460,2.080
19.928000,0.0456,-0.9098,-1.7697,1.990
19.928000,0.0867,-0.8666,-1.7048,1.914
19.929000,0.1495,-0.8623,-1.6036,1.827
19.929000,0.1986,-0.8421,-1.4591,1.696
19.929000,0.2056,-0.8037,-1.3762,1.607
19.930000,0.1515,-0.7902,-1.4052,1.619
19.933000,0.0505,-0.7919,-1.4718,1.672
19.938000,-0.1168,-0.7490,-1.4469,1.634
19.942000,-0.3073,-0.7499,-1.5244,1.726
19.947000,-0.5307,-0.7536,-1.5823,1.831
19.952000,-0.7278,-0.7600,-1.6112,1.924
19.960000,-0.8799,-0.7473,-1.5084,1.899
19.961000,-0.9394,-0.6655,-1.3313,1.760
19.966000,-0.9376,-0.6010,-1.1421,1.595
19.972000,-0.9656,-0.5275,-0.9527,1.455
20.026000,-0.9491,-0.4450,-0.8060,1.322
20.027000,-0.9101,-0.4303,-0.7737,1.270
20.027000,-0.8253,-0.3659,-0.6022,1.085
20.028000,-0.7617,-0.3119,-0.4899,0.958
20.028000,-0.6596,-0.2012,-0.3125,0.757
20.028000,-0.5404,-0.1412,-0.0823,0.565
20.028000,-0.4037,-0.0868,0.2129,0.465
20.029000,-0.2227,-0.0185,0.4651,0.516
20.029000,-0.0615,0.0225,0.7846,0.787
20.029000,0.0109,0.0771,1.0542,1.057
20.029000,0.0453,0.2075,1.2620,1.280
20.032000,0.1043,0.3414,1.5205,1.562
20.037000,0.0470,0.4908,1.7126,1.782
20.042000,-0.0423,0.6267,1.8146,1.920
20.046000,-0.1516,0.7586,1.7383,1.903
20.051000,-0.2812,0.9229,1.5147,1.796
20.060000,-0.4720,0.9784,1.2036,1.621
20.063000,-0.6531,1.0697,0.9123,1.550
20.066000,-0.8327,1.1466,0.6621,1.564
20.070000,-0.9110,1.2002,0.5386,1.600
20.148000,-0.8740,1.2933,0.3977,1.611
20.149000,-0.8417,1.3949,0.3971,1.677
20.149000,-0.7282,1.4670,0.5389,1.724
20.149000,-0.5978,1.6553,0.8301,1.946
20.150000,-0.4522,1.9141,1.1964,2.302
20.150000,-0.2621,2.1807,1.5473,2.687
20.150000,-0.0728,2.3684,1.7469,2.944
20.151000,0.0803,2.4701,1.8313,3.076
20.151000,0.2211,2.4955,1.7481,3.055
20.151000,0.3142,2.4521,1.5497,2.918
20.152000,0.3456,2.3886,1.3886,2.784
20.152000,0.3105,2.3221,1.2381,2.650
20.152000,0.2476,2.2484,1.1959,2.559
20.153000,0.1713,2.2058,1.2974,2.565
20.153000,0.0889,2.1466,1.5065,2.624
20.153000,0.0173,2.0011,1.7708,2.672
20.155000,0.0071,1.8554,2.0663,2.777
20.159000,-0.0202,1.7017,2.3026,2.863
20.166000,-0.0547,1.5520,2.4223,2.877
20.171000,-0.0888,1.4348,2.3874,2.787
20.178000,-0.1844,1.3404,2.2484,2.624
20.182000,-0.3751,1.2667,2.1152,2.494
20.184000,-0.5440,1.1826,1.9303,2.328
20.244000,-0.7063,1.0714,1.7490,2.169
20.245000,-0.8004,0.9573,1.6573,2.075
20.245000,-0.8846,0.7827,1.6625,2.039
20.246000,-0.8874,0.6095,1.7264,2.035
20.246000,-0.8546,0.4065,1.8229,2.054
20.246000,-0.7910,0.2594,1.9332,2.105
20.247000,-0.6918,0.1297,2.0861,2.202
20.247000,-0.6381,0.0527,2.1841,2.276
20.247000,-0.6176,-0.0697,2.2412,2.326
20.247000,-0.6015,-0.2233,2.2628,2.352
20.247000,-0.5821,-0.3845,2.2276,2.334
20.248000,-0.6023,-0.5318,2.2860,2.423
20.251000,-0.6258,-0.7157,2.2877,2.477
20.256000,-0.6545,-0.9120,2.1441,2.420
20.261000,-0.7578,-1.0803,1.9750,2.375
20.265000,-0.8758,-1.2710,1.6395,2.252
20.269000,-1.0468,-1.4262,1.3192,2.207
20.278000,-1.1636,-1.5436,1.0309,2.191
20.280000,-1.2961,-1.6085,0.7624,2.202
20.284000,-1.4160,-1.6905,0.4993,2.261
20.290000,-1.3972,-1.7705,0.2371,2.268
20.355000,-1.3881,-1.7936,0.0236,2.268
20.356000,-1.3774,-1.8436,-0.2056,2.311
20.356000,-1.3253,-1.8684,-0.4766,2.340
20.356000,-1.3230,-1.8966,-0.6745,2.409
20.357000,-1.2705,-1.8543,-1.0120,2.465
20.357000,-1.0968,-1.7033,-1.2833,2.398
20.357000,-0.9555,-1.5921,-1.3689,2.307
20.358000,-0.8298,-1.5089,-1.4003,2.220
20.358000,-0.6765,-1.4682,-1.3465,2.104
20.358000,-0.5480,-1.4751,-1.2646,2.019
20.359000,-0.4034,-1.4676,-1.2262,1.955
20.359000,-0.3191,-1.4436,-1.1881,1.897
20.359000,-0.2969,-1.4389,-1.2436,1.925
20.360000,-0.2768,-1.3912,-1.3160,1.935
20.365000,-0.1986,-1.3386,-1.4248,1.965
20.370000,-0.1863,-1.2998,-1.6513,2.110
20.374000,-0.2229,-1.2624,-1.9195,2.308
20.378000,-0.2265,-1.2519,-2.2871,2.617
20.383000,-0.2066,-1.2105,-2.5273,2.810
20.388000,-0.2279,-1.1613,-2.7079,2.955
20.393000,-0.2258,-1.0635,-2.8672,3.066
20.398000,-0.1878,-1.0004,-3.0463,3.212
20.404000,-0.0978,-0.9075,-3.0922,3.224
20.465000,0.0209,-0.7941,-3.1009,3.201
20.465000,0.1758,-0.7341,-3.0272,3.120
20.466000,0.3026,-0.6489,-2.9381,3.024
20.466000,0.4734,-0.5742,-2.8217,2.918
20.466000,0.6435,-0.5412,-2.7355,2.862
20.467000,0.6955,-0.5022,-2.6434,2.779
20.467000,0.7398,-0.4860,-2.5382,2.688
20.467000,0.7761,-0.4810,-2.3885,2.557
20.468000,0.7617,-0.4752,-2.2852,2.455
20.468000,0.7420,-0.5142,-2.1779,2.358
20.468000,0.6809,-0.5790,-2.0020,2.192
20.468000,0.6072,-0.6531,-1.9367,2.132
20.469000,0.4681,-0.7675,-1.9028,2.104
20.475000,0.2899,-0.8794,-1.9169,2.129
20.477000,0.0481,-0.9648,-1.8141,2.055
20.483000,-0.1813,-1.0023,-1.6275,1.920
20.487000,-0.3671,-1.0305,-1.5414,1.890
20.493000,-0.5286,-1.0783,-1.4742,1.901
20.497000,-0.6589,-1.1003,-1.3444,1.858
20.502000,-0.7847,-1.0631,-1.3600,1.896
20.545000,-0.9228,-1.0315,-1.5495,2.078
20.546000,-1.0378,-0.9262,-1.6953,2.193
20.546000,-1.1948,-0.7900,-1.7523,2.263
20.546000,-1.3031,-0.6779,-1.7850,2.312
20.547000,-1.3342,-0.5921,-1.8559,2.361
20.547000,-1.3438,-0.4847,-1.8908,2.370
20.547000,-1.2770,-0.4225,-1.7990,2.246
20.547000,-1.1677,-0.3456,-1.6188,2.026
20.548000,-1.0208,-0.2208,-1.4747,1.807
20.554000,-0.8429,-0.1699,-1.3594,1.609
20.560000,-0.6412,-0.0827,-1.2468,1.404
20.563000,-0.3796,0.0579,-1.0296,1.099
20.569000,-0.1170,0.1490,-0.7607,0.784
20.572000,0.1806,0.2529,-0.3445,0.464
20.577000,0.4118,0.2857,0.0992,0.511
20.582000,0.5557,0.2855,0.6445,0.898
20.587000,0.6901,0.2833,1.2604,1.465
20.594000,0.7521,0.3071,1.7269,1.908
20.596000,0.6819,0.2204,2.1498,2.266
20.602000,0.5827,0.1972,2.5128,2.587
20.642000,0.3947,0.2252,2.6009,2.640
20.643000,0.1293,0.2851,2.4532,2.473
20.643000,-0.2315,0.2669,2.2468,2.274
20.643000,-0.5522,0.2116,2.0080,2.093
20.643000,-0.8534,0.1054,1.7535,1.953
20.644000,-1.0957,0.0392,1.4571,1.823
20.644000,-1.2777,0.1187,1.3337,1.851
20.644000,-1.3019,0.2934,1.2805,1.849
20.647000,-1.1997,0.5607,1.2639,1.831
20.651000,-1.0573,0.8225,1.1427,1.761
20.656000,-0.9034,1.0933,1.0415,1.760
20.661000,-0.7449,1.2464,0.8380,1.676
20.667000,-0.5723,1.3827,0.7067,1.655
20.672000,-0.3683,1.5483,0.5681,1.690
20.677000,-0.1876,1.7317,0.3570,1.778
20.682000,-0.0203,1.9022,0.1976,1.913
20.687000,0.1411,2.1368,0.0749,2.143
20.693000,0.4504,2.3308,0.0195,2.374
20.698000,0.7880,2.4129,-0.0314,2.538
20.752000,1.1353,2.4291,0.0700,2.682
20.753000,1.4901,2.4539,0.2612,2.883
20.753000,1.7214,2.4038,0.5968,3.016
20.753000,1.9039,2.3316,1.0932,3.203
20.754000,2.0476,2.2086,1.6427,3.431
20.754000,2.2845,2.0635,2.3074,3.847
20.754000,2.4291,1.9289,2.9132,4.255
20.754000,2.5445,1.7762,3.4601,4.648
20.755000,2.6215,1.6616,4.0639,5.114
20.755000,2.5701,1.5369,4.6052,5.493
20.755000,2.4507,1.3986,4.9081,5.661
20.756000,2.2032,1.1575,5.0812,5.658
20.764000,1.8518,0.8235,5.0383,5.431
20.767000,1.5316,0.5104,4.8574,5.119
20.772000,1.1754,0.2327,4.4239,4.583
20.777000,0.7344,-0.0021,3.9579,4.025
20.780000,0.2790,-0.1489,3.5627,3.577
20.785000,-0.1254,-0.3134,3.3773,3.394
20.793000,-0.4863,-0.4837,3.2462,3.318
20.795000,-0.7185,-0.6462,2.9691,3.122
20.800000,-0.9255,-0.8419,2.5701,2.858
20.805000,-1.1294,-1.0206,2.1501,2.634
