SensorId, TimeStamp (s), FrameNumber, AccX (g), AccY (g), AccZ (g), GyroX (deg/s), GyroY (deg/s), GyroZ (deg/s), MagX (uT), MagY (uT), MagZ (uT), EulerX (deg), EulerY (deg), EulerZ (deg), QuatW, QuatX, QuatY, QuatZ, LinAccX (g), LinAccY (g), LinAccZ (g), Pressure (kPa), Altitude (m), Temperature (degC), HeaveMotion (m)
1, 21.5150, 2172, -0.02600098, -0.99627686, 0.28771973, 0.53648424, 0.91492254, -0.59937513, -47.38380432, 2.39696002, -97.22303009, 101.34014893, -8.20506668, 96.62637329, 0.37909839, -0.54697174, -0.54601443, -0.50889540, -0.11672392, 0.02583551, -0.09310953, 100.33200836, 82.98865509, 31.26000023, 0.00000000
1, 21.5200, 2173, -0.02630615, -0.99700928, 0.28851318, 0.25648415, 1.12492275, -0.56437516, -47.38380432, 2.39696002, -97.22303009, 101.34054565, -8.20340538, 96.63251495, 0.37907800, -0.54693758, -0.54605228, -0.50890684, -0.11638685, 0.02656674, -0.09388509, 100.33200836, 82.98865509, 31.26000023, 0.00000000
1, 21.5200, 2441, 0.00831570, -0.99661672, -0.00103478, 1.31072414, 0.26531023, 1.07899404, -35.07746124, 9.96784592, -113.03712463, 89.19327545, 0.81747872, -109.29662323, 0.40790224, -0.41036996, 0.56969917, 0.58365667, 0.00597258, -0.00318131, -0.01468555, 100.41800690, 75.77513885, 32.09999847, 0.00000000
1, 21.5250, 2442, 0.00976576, -0.99547851, 0.00025865, 1.09619343, 0.30405742, 0.83728325, -35.07746124, 9.96784592, -113.03712463, 89.23819733, 0.80244219, -109.29338837, 0.40783334, -0.41047016, 0.56997097, 0.58336902, 0.00434738, -0.00433021, -0.01552876, 100.41800690, 75.77513885, 32.09999847, 0.00000000
1, 21.5250, 2174, -0.02844238, -0.99176025, 0.29174805, 0.15148412, 1.19492257, -0.52937514, -47.85150528, 3.09850907, -96.52148438, 101.34038544, -8.20199013, 96.63896179, 0.37905762, -0.54690093, -0.54608798, -0.50892299, -0.11422729, 0.02131397, -0.09712178, 100.33200836, 82.98865509, 31.26000023, 0.00000000
1, 21.5300, 2175, -0.02825928, -0.99206543, 0.29803467, 0.18648414, 1.29992259, -0.56437516, -47.85150528, 3.09850907, -96.52148438, 101.34033203, -8.20051003, 96.64595795, 0.37903467, -0.54686171, -0.54612708, -0.50894022, -0.11438274, 0.02161503, -0.10340835, 100.33200836, 82.98865509, 31.26000023, 0.00000000
1, 21.5350, 2176, -0.02679443, -0.99017334, 0.30786133, -0.05851592, 1.29992259, -0.59937513, -47.85150528, 3.09850907, -96.52148438, 101.33903503, -8.19885349, 96.65299225, 0.37901834, -0.54681760, -0.54616159, -0.50896275, -0.11582313, 0.01971552, -0.11325397, 100.33200836, 82.98865509, 31.26000023, 0.00000000
1, 21.5300, 2443, 0.01348412, -0.99474812, 0.00427010, 1.27442598, 0.27083200, 0.83422244, -35.48669815, 12.51096153, -113.15404510, 89.24459076, 0.79831105, -109.29196930, 0.40783843, -0.41047919, 0.57001346, 0.58331764, 0.00045031, -0.00507574, -0.01907888, 100.41800690, 75.77513885, 32.09999847, 0.00000000
1, 21.5350, 2444, 0.01493836, -0.99437404, 0.00451569, 1.27568209, 0.16640554, 0.83171737, -35.48669815, 12.51096153, -113.15404510, 89.25099945, 0.79418206, -109.29107666, 0.40784073, -0.41048557, 0.57005781, 0.58326805, -0.00107509, -0.00545263, -0.01920697, 100.41800690, 75.77513885, 32.09999847, 0.00000000
1, 21.5400, 2445, 0.01810913, -0.99582875, 0.00326151, 1.16721404, 0.30552486, 0.80136198, -35.48669815, 12.51096153, -113.15404510, 89.25686646, 0.79021668, -109.28948975, 0.40784770, -0.41049433, 0.57009637, 0.58321929, -0.00431352, -0.00399805, -0.01784330, 100.41800690, 75.77513885, 32.09999847, 0.00000000
1, 21.5400, 2177, -0.02746582, -0.98315430, 0.30584717, 0.01148409, 1.33492267, -0.28437504, -47.64688492, 3.06927800, -95.87839508, 101.33811188, -8.19877148, 96.65988922, 0.37899259, -0.54678142, -0.54619074, -0.50898963, -0.11514232, 0.01269180, -0.11125647, 100.33200836, 82.98865509, 31.26000023, 0.00000000
1, 21.5450, 2178, -0.02801514, -0.98278809, 0.29888916, 0.32648423, 1.19492257, -0.17937499, -47.64688492, 3.06927800, -95.87839508, 101.33887482, -8.19906807, 96.66597748, 0.37896028, -0.54675603, -0.54622203, -0.50900739, -0.11459578, 0.01232702, -0.10429347, 100.33200836, 82.98865509, 31.26000023, 0.00000000
1, 21.5500, 2179, -0.02618408, -0.98516846, 0.29547119, 0.53648424, 0.98492259, -0.07437500, -47.85150528, 2.66004086, -96.57994843, 101.34085083, -8.19967747, 96.67092896, 0.37892565, -0.54674125, -0.54625195, -0.50901687, -0.11643532, 0.01471454, -0.10084598, 100.33200836, 82.98865509, 31.26000023, 0.00000000
1, 21.5450, 2446, 0.02233469, -0.99464357, 0.00138791, 1.16763282, 0.27071601, 0.80052692, -35.54516220, 12.33557415, -113.24173737, 89.26274872, 0.78623080, -109.28807831, 0.40785390, -0.41050225, 0.57013577, 0.58317107, -0.00860221, -0.00518255, -0.01585634, 100.41800690, 75.77513885, 32.09999847, 0.00000000
1, 21.5500, 2447, 0.02552358, -0.99697733, 0.00127044, 1.23865330, 0.27218348, 0.76460564, -35.54516220, 12.33557415, -113.24173737, 89.26897430, 0.78244483, -109.28666687, 0.40785784, -0.41051236, 0.57017606, 0.58312172, -0.01185693, -0.00285087, -0.01562610, 100.41800690, 75.77513885, 32.09999847, 0.00000000
1, 21.5550, 2448, 0.02928440, -0.99674582, 0.00089814, 1.20288193, 0.30500749, 0.83594775, -35.69131851, 10.87401295, -113.12481689, 89.27503204, 0.77829176, -109.28508759, 0.40786505, -0.41052085, 0.57021630, 0.58307141, -0.01568915, -0.00308418, -0.01513698, 100.41800690, 75.77513885, 32.09999847, 0.00000000
1, 21.5600, 2449, 0.03195608, -0.99717462, -0.00027334, 1.09765828, 0.16649027, 0.76388127, -35.69131851, 10.87401295, -113.12481689, 89.28052521, 0.77449727, -109.28419495, 0.40786892, -0.41052571, 0.57025480, 0.58302748, -0.01842564, -0.00265554, -0.01386185, 100.41800690, 75.77513885, 32.09999847, 0.00000000
1, 21.5650, 2450, 0.03557251, -0.99478173, 0.00036958, 1.16815650, 0.23507309, 0.83472288, -35.69131851, 10.87401295, -113.12481689, 89.28640747, 0.77036464, -109.28295135, 0.40787494, -0.41053197, 0.57029527, 0.58297932, -0.02211294, -0.00505173, -0.01439257, 100.41800690, 75.77513885, 32.09999847, 0.00000000
1, 21.5550, 2180, -0.02606201, -0.98669434, 0.29199219, 0.53648424, 0.56492239, 0.13562511, -47.85150528, 2.66004086, -96.57994843, 101.34315491, -8.20089531, 96.67359161, 0.37889636, -0.54674077, -0.54626995, -0.50901979, -0.11657603, 0.01625061, -0.09733014, 100.33200836, 82.98865509, 31.26000023, 0.00000000
1, 21.5600, 2181, -0.02355957, -0.98773193, 0.29058838, 0.53648424, 0.28492227, 0.24062514, -47.85150528, 1.37386727, -97.25226593, 101.34566498, -8.20235825, 96.67476654, 0.37887144, -0.54674906, -0.54628086, -0.50901783, -0.11910494, 0.01730031, -0.09588536, 100.33200836, 82.98865509, 31.26000023, 0.00000000
1, 21.5950, 2451, 0.03619514, -0.99732912, 0.00778887, 1.07308984, -0.67674512, 1.05956483, -35.83747482, 12.80327415, -112.48172760, 89.35857391, 0.81290704, -109.29302979, 0.40735117, -0.41095287, 0.57054424, 0.58280545, -0.02200869, -0.00252102, -0.02055015, 100.41800690, 75.77513885, 32.09999847, 0.00000000
1, 21.6000, 2452, 0.03543136, -0.99661863, 0.00331024, 1.18281436, -0.92029083, 1.08741522, -35.83747482, 12.80327415, -112.48172760, 89.36443329, 0.80742711, -109.29756165, 0.40733457, -0.41092348, 0.57061017, 0.58277309, -0.02132797, -0.00322674, -0.01597153, 100.41800690, 75.77513885, 32.09999847, 0.00000000
1, 21.6050, 2453, 0.03300537, -0.99637079, 0.00453807, 1.10949159, -0.71457362, 1.19840860, -36.18824768, 12.51096153, -113.03712463, 89.36995697, 0.80139536, -109.30106354, 0.40732738, -0.41089535, 0.57067263, 0.58273685, -0.01900703, -0.00347908, -0.01710725, 100.41800690, 75.77513885, 32.09999847, 0.00000000
1, 21.6100, 2454, 0.03015451, -0.99543929, 0.00742099, 0.93115395, -0.68051410, 1.16643822, -36.18824768, 12.51096153, -113.03712463, 89.37457275, 0.79553789, -109.30438232, 0.40732342, -0.41086572, 0.57072926, 0.58270508, -0.01626713, -0.00441785, -0.01991192, 100.41800690, 75.77513885, 32.09999847, 0.00000000
1, 21.6150, 2455, 0.02588428, -0.99761033, 0.00982192, 0.93596983, -1.06507933, 1.22731507, -36.18824768, 12.51096153, -113.03712463, 89.37920380, 0.78935093, -109.30963135, 0.40731120, -0.41082484, 0.57079405, 0.58267891, -0.01210953, -0.00225274, -0.02224790, 100.41800690, 75.77513885, 32.09999847, 0.00000000
1, 21.6200, 2456, 0.02450201, -0.99917936, 0.00876273, 0.93638855, -1.09988809, 1.22648001, -36.21747971, 12.56942368, -113.00788879, 89.38382721, 0.78316206, -109.31506348, 0.40729821, -0.41078311, 0.57085949, 0.58265346, -0.01083262, -0.00068461, -0.02111248, 100.41800690, 75.77513885, 32.09999847, 0.00000000
1, 21.6250, 2457, 0.02471006, -0.99794161, 0.00550626, 0.82655913, -0.85550833, 1.16359866, -36.21747971, 12.56942368, -113.00788879, 89.42448425, 0.80173355, -109.31986237, 0.40703449, -0.41099715, 0.57101613, 0.58253318, -0.01092455, -0.00191950, -0.01745993, 100.41800690, 75.77513885, 32.09999847, 0.00000000
1, 21.6300, 2458, 0.02410872, -0.99900699, 0.00408998, 0.64958119, -0.95818192, 1.02319551, -36.24671173, 12.18941784, -112.65711975, 89.42767334, 0.79657286, -109.32459259, 0.40702498, -0.41095892, 0.57106799, 0.58251595, -0.01019963, -0.00085402, -0.01567042, 100.41800690, 75.77513885, 32.09999847, 0.00000000
1, 21.6250, 2182, -0.01171875, -0.99267578, 0.29058838, -0.09351593, -0.27507791, -0.10937501, -47.41303635, 2.66004086, -96.52148438, 101.37315369, -8.21853256, 96.66767883, 0.37868613, -0.54693520, -0.54630399, -0.50893098, -0.13123436, 0.02238062, -0.09541718, 100.33200836, 82.98865509, 31.26000023, 0.00000000
1, 21.6300, 2183, -0.01318359, -0.99230957, 0.28820801, -0.02351592, -0.06507783, -0.10937501, -47.41303635, 2.66004086, -96.52148438, 101.37307739, -8.21793556, 96.66746521, 0.37869066, -0.54693371, -0.54630500, -0.50892818, -0.12975685, 0.02201248, -0.09303729, 100.33200836, 82.98865509, 31.26000023, 0.00000000
1, 21.6350, 2184, -0.01470947, -0.99407959, 0.28955078, 0.04648410, -0.24007790, -0.24937502, -47.41303635, 3.01081562, -96.43379211, 101.37344360, -8.21647835, 96.66652679, 0.37870079, -0.54693389, -0.54630804, -0.50891721, -0.12821114, 0.02378083, -0.09437377, 100.33200836, 82.98865509, 31.26000023, 0.00000000
1, 21.6400, 2185, -0.01580811, -0.99206543, 0.29229736, -0.16351594, -0.59007800, -0.35437506, -47.41303635, 3.01081562, -96.43379211, 101.37299347, -8.21415901, 96.66396332, 0.37872660, -0.54693580, -0.54630315, -0.50890118, -0.12707749, 0.02176079, -0.09712382, 100.33200836, 82.98865509, 31.26000023, 0.00000000
1, 21.6450, 2186, -0.01672363, -0.98986816, 0.29205322, -0.26851603, -0.94007808, -0.28437504, -47.41303635, 3.01081562, -96.43379211, 101.37227631, -8.21183491, 96.65958405, 0.37876177, -0.54694545, -0.54628843, -0.50888044, -0.12612006, 0.01955533, -0.09689014, 100.33200836, 82.98865509, 31.26000023, 0.00000000
1, 21.6350, 2459, 0.02026181, -0.99867547, 0.00131491, 0.78932011, -0.74806213, 1.02642488, -36.24671173, 12.18941784, -112.65711975, 89.43158722, 0.79141045, -109.32826996, 0.40701830, -0.41092849, 0.57111973, 0.58249140, -0.00643283, -0.00118303, -0.01283936, 100.41800690, 75.77513885, 32.09999847, 0.00000000
1, 21.6500, 2187, -0.01928711, -0.98895264, 0.29370117, -0.02351592, -0.87007815, -0.35437512, -47.50072861, 3.15697169, -97.10610962, 101.37271881, -8.20923996, 96.65563202, 0.37879092, -0.54695588, -0.54628193, -0.50885433, -0.12351169, 0.01863373, -0.09853555, 100.33200836, 82.98865509, 31.26000023, 0.00000000
1, 21.6550, 2188, -0.02301025, -0.99060059, 0.29235840, 0.18648414, -0.45007798, -0.45937508, -47.50072861, 3.15697169, -97.10610962, 101.37390900, -8.20653915, 96.65385437, 0.37880743, -0.54695803, -0.54628962, -0.50883156, -0.11974458, 0.02027887, -0.09717455, 100.33200836, 82.98865509, 31.26000023, 0.00000000
1, 21.6600, 2189, -0.02557373, -0.99169922, 0.28955078, 0.15148413, -0.06507783, -0.63437515, -47.76381302, 3.33235884, -97.19380188, 101.37461853, -8.20337582, 96.65416718, 0.37881941, -0.54694688, -0.54630703, -0.50881594, -0.11712670, 0.02137357, -0.09434649, 100.33200836, 82.98865509, 31.26000023, 0.00000000
1, 21.6400, 2460, 0.01703177, -0.99722719, 0.00281214, 0.82080072, -0.40049127, 1.06936097, -36.24671173, 12.18941784, -112.65711975, 89.43567657, 0.78605163, -109.33020782, 0.40702072, -0.41090637, 0.57116687, 0.58245903, -0.00330142, -0.00263567, -0.01427089, 100.41800690, 75.77513885, 32.09999847, 0.00000000
1, 21.6650, 2190, -0.02648926, -0.99230957, 0.29089355, 0.36148420, -0.24007790, -0.77437520, -47.76381302, 3.33235884, -97.19380188, 101.37648010, -8.19934559, 96.65375519, 0.37883368, -0.54693973, -0.54632956, -0.50878882, -0.11614718, 0.02197936, -0.09566545, 100.33200836, 82.98865509, 31.26000023, 0.00000000
1, 21.6850, 2461, 0.01496602, -0.99463964, -0.00192876, 0.52823496, 0.19623207, 0.77183872, -35.80824280, 12.74481106, -112.36480713, 89.48553467, 0.74654412, -109.32589722, 0.40706268, -0.41090611, 0.57154775, 0.58205611, -0.00191782, -0.00523286, -0.00865620, 100.41800690, 75.77513885, 32.09999847, 0.00000000
1, 21.6900, 2462, 0.01674532, -0.99515474, -0.00000094, 0.70971376, -0.08315742, 0.86802572, -35.80824280, 12.74481106, -112.36480713, 89.48909760, 0.74220967, -109.32627106, 0.40706989, -0.41089514, 0.57158291, 0.58202446, -0.00377616, -0.00472249, -0.01051992, 100.41800690, 75.77513885, 32.09999847, 0.00000000
1, 21.6950, 2463, 0.01842343, -0.99372303, -0.00064633, 0.67498845, -0.15309176, 0.86680084, -35.98363113, 12.21864891, -111.75094604, 89.49247742, 0.73787218, -109.32698822, 0.40707597, -0.41088170, 0.57161832, 0.58199489, -0.00552990, -0.00615470, -0.00980903, 100.41800690, 75.77513885, 32.09999847, 0.00000000
1, 21.7000, 2464, 0.02113846, -0.99327540, -0.00283328, 0.67477834, -0.15142362, 0.79673892, -35.98363113, 12.21864891, -111.75094604, 89.49585724, 0.73388129, -109.32770538, 0.40708032, -0.41087005, 0.57165247, 0.58196652, -0.00830901, -0.00660023, -0.00755569, 100.41800690, 75.77513885, 32.09999847, 0.00000000
1, 21.7050, 2465, 0.02157260, -0.99382496, -0.00254187, 0.85259223, -0.14984016, 0.79451317, -35.89593506, 11.16632557, -112.33557129, 89.50011444, 0.72991097, -109.32841492, 0.40708140, -0.41086167, 0.57169104, 0.58193380, -0.00881475, -0.00605265, -0.00777709, 100.41800690, 75.77513885, 32.09999847, 0.00000000
1, 21.7100, 2466, 0.02249372, -0.99408674, -0.00139591, 0.78146678, -0.15047355, 0.79540348, -35.89593506, 11.16632557, -112.33557129, 89.50403595, 0.72593373, -109.32912445, 0.40708378, -0.41085202, 0.57172787, 0.58190280, -0.00980653, -0.00579427, -0.00884986, 100.41800690, 75.77513885, 32.09999847, 0.00000000
1, 21.7150, 2467, 0.02304764, -0.99474311, -0.00165372, 0.81671578, -0.11618210, 0.83082432, -35.89593506, 11.16632557, -112.33557129, 89.50812531, 0.72179091, -109.32965851, 0.40708727, -0.41084298, 0.57176548, 0.58186972, -0.01043229, -0.00513910, -0.00852345, 100.41800690, 75.77513885, 32.09999847, 0.00000000
1, 21.6700, 2191, -0.02459717, -0.99456787, 0.29571533, 0.25648418, -0.31007791, -0.80937523, -47.76381302, 3.33235884, -97.19380188, 101.37786865, -8.19507790, 96.65302277, 0.37885287, -0.54693156, -0.54634941, -0.50876194, -0.11796643, 0.02423280, -0.10045785, 100.33200836, 82.98865509, 31.26000023, 0.00000000
1, 21.7200, 2468, 0.02667962, -0.99691617, 0.00175380, 0.85374331, -0.25343257, 0.75697714, -36.10055542, 12.68634892, -113.32943726, 89.51239014, 0.71799487, -109.33089447, 0.40708476, -0.41083288, 0.57180530, 0.58183938, -0.01414038, -0.00297301, -0.01184950, 100.41800690, 75.77513885, 32.09999847, 0.00000000
1, 21.7050, 2192, -0.02569580, -0.99102783, 0.29437256, -0.30351603, 1.08992255, -0.49437508, -47.64688492, 3.36159015, -97.10610962, 101.37129974, -8.17365170, 96.66893005, 0.37892702, -0.54675257, -0.54648238, -0.50875628, -0.11648256, 0.02061862, -0.09920245, 100.33200836, 82.98865509, 31.26000023, 0.00000000
1, 21.7100, 2193, -0.02679443, -0.99053955, 0.29241943, -0.19851595, 0.84492242, -0.52937514, -47.85150528, 3.27389646, -96.78456116, 101.36962891, -8.17188931, 96.67365265, 0.37892333, -0.54671782, -0.54650462, -0.50877243, -0.11535524, 0.02012065, -0.09727692, 100.33200836, 82.98865509, 31.26000023, 0.00000000
1, 21.7150, 2194, -0.02709961, -0.98950195, 0.29089355, -0.12851594, 0.98492259, -0.45937508, -47.85150528, 3.27389646, -96.78456116, 101.36823273, -8.17060471, 96.67899323, 0.37891313, -0.54668289, -0.54652905, -0.50879145, -0.11502582, 0.01907462, -0.09577519, 100.33200836, 82.98865509, 31.26000023, 0.00000000
1, 21.7600, 2469, 0.03585314, -0.99533617, 0.00570334, 0.71474254, -0.40644580, 1.28088224, -36.33440399, 12.48173046, -113.15404510, 89.57766724, 0.72447032, -109.35246277, 0.40670863, -0.41098961, 0.57219058, 0.58161294, -0.02319693, -0.00456698, -0.01463454, 100.41800690, 75.77513885, 32.09999847, 0.00000000
1, 21.7650, 2470, 0.03569088, -0.99402070, 0.00159919, 0.78576458, -0.37350586, 1.38591981, -36.33440399, 12.48173046, -113.15404510, 89.58159637, 0.71753716, -109.35427856, 0.40672025, -0.41095960, 0.57224208, 0.58157533, -0.02314407, -0.00587773, -0.01046023, 100.41800690, 75.77513885, 32.09999847, 0.00000000
1, 21.7200, 2195, -0.02770996, -0.98590088, 0.28454590, 0.01148409, 1.08992255, -0.52937514, -47.85150528, 3.27389646, -96.78456116, 101.36743927, -8.16908932, 96.68492126, 0.37889859, -0.54664624, -0.54655993, -0.50880843, -0.11439193, 0.01546666, -0.08944432, 100.33200836, 82.98865509, 31.26000023, 0.00000000
1, 21.7250, 2196, -0.02661133, -0.99023438, 0.29010010, 0.18648414, 1.01992261, -0.35437512, -47.79304123, 3.21543407, -96.90148926, 101.36759949, -8.16836452, 96.69032288, 0.37887767, -0.54661822, -0.54658931, -0.50882250, -0.11547507, 0.01979771, -0.09499951, 100.33200836, 82.98865509, 31.26000023, 0.00000000
1, 21.7300, 2197, -0.02648926, -0.99249268, 0.29577637, 0.04648410, 0.38992232, -0.35437512, -47.79304123, 3.21543407, -96.90148926, 101.36750793, -8.16701031, 96.69261169, 0.37887511, -0.54660183, -0.54660523, -0.50882488, -0.11557586, 0.02205336, -0.10067385, 100.33200836, 82.98865509, 31.26000023, 0.00000000
1, 21.7350, 2198, -0.02435303, -0.99194336, 0.29620361, -0.16351599, 0.03992219, -0.28437504, -47.47150040, 3.53697753, -97.28149414, 101.36662292, -8.16566372, 96.69308472, 0.37888440, -0.54659158, -0.54660904, -0.50882506, -0.11768850, 0.02149871, -0.10111040, 100.33200836, 82.98865509, 31.26000023, 0.00000000
1, 21.7700, 2471, 0.03540866, -0.99775231, 0.00735786, 0.85699505, -0.37370655, 1.42006052, -35.92516708, 12.77404213, -113.06635284, 89.58586884, 0.71043825, -109.35608673, 0.40673152, -0.41093004, 0.57229590, 0.58153540, -0.02300163, -0.00215759, -0.01614944, 100.41800690, 75.77513885, 32.09999847, 0.00000000
1, 21.7750, 2472, 0.03738605, -0.99629927, 0.00598295, 0.64267594, -0.30515492, 1.38937044, -35.92516708, 12.77404213, -113.06635284, 89.62010956, 0.75817668, -109.36165619, 0.40633982, -0.41126382, 0.57231724, 0.58155233, -0.02461820, -0.00360601, -0.01443875, 100.41800690, 75.77513885, 32.09999847, 0.00000000
1, 21.7800, 2473, 0.03505093, -0.99506259, 0.00413200, 0.89706016, -0.72398043, 1.51635814, -35.95439911, 12.42326832, -112.92019653, 89.62458801, 0.75056732, -109.36521912, 0.40634400, -0.41122359, 0.57238024, 0.58151579, -0.02193262, -0.00483754, -0.01224748, 100.41800690, 75.77513885, 32.09999847, 0.00000000
1, 21.7400, 2199, -0.02056885, -0.99218750, 0.29254150, 0.01148409, -0.13507785, -0.14437501, -47.47150040, 3.53697753, -97.28149414, 101.36675262, -8.16482544, 96.69256592, 0.37889054, -0.54659134, -0.54661047, -0.50881922, -0.12145617, 0.02173910, -0.09745524, 100.33200836, 82.98865509, 31.26000023, 0.00000000
1, 21.7850, 2474, 0.03160656, -0.99626279, 0.00448407, 0.93010920, -0.54628325, 1.37996411, -35.95439911, 12.42326832, -112.92019653, 89.62921906, 0.74365443, -109.36788177, 0.40634874, -0.41119200, 0.57243830, 0.58147776, -0.01861424, -0.00364023, -0.01252919, 100.41800690, 75.77513885, 32.09999847, 0.00000000
1, 21.7900, 2475, 0.02922603, -0.99629641, 0.00236514, 1.03512120, -0.43757033, 1.24100995, -36.12978745, 12.24788094, -112.83250427, 89.63437653, 0.73744529, -109.37002563, 0.40635067, -0.41116837, 0.57249457, 0.58143771, -0.01633990, -0.00360508, -0.01032920, 100.41800690, 75.77513885, 32.09999847, 0.00000000
1, 21.7950, 2476, 0.02688320, -0.99688709, 0.00558072, 1.10561943, -0.36898744, 1.31185150, -36.12978745, 12.24788094, -112.83250427, 89.63990784, 0.73088783, -109.37182617, 0.40635476, -0.41114596, 0.57255268, 0.58139336, -0.01411500, -0.00302175, -0.01345677, 100.41800690, 75.77513885, 32.09999847, 0.00000000
1, 21.8000, 2477, 0.02277564, -0.99730992, 0.00862320, 0.99798989, -0.26801327, 1.42078495, -36.12978745, 12.24788094, -112.83250427, 89.64489746, 0.72378212, -109.37310791, 0.40636620, -0.41112155, 0.57260829, 0.58134794, -0.01013733, -0.00260608, -0.01641998, 100.41800690, 75.77513885, 32.09999847, 0.00000000
1, 21.8050, 2478, 0.01734063, -0.99580872, 0.00703070, 0.82132870, -0.34171659, 1.52643359, -36.33440399, 12.86173630, -113.15404510, 89.64899445, 0.71614534, -109.37475586, 0.40638164, -0.41108948, 0.57266259, 0.58130640, -0.00483008, -0.00410676, -0.01476383, 100.41800690, 75.77513885, 32.09999847, 0.00000000
1, 21.7950, 2200, -0.01367188, -0.99121094, 0.28875732, -0.44351605, 0.56492239, -0.42437512, -47.79304123, 3.01081562, -96.69686890, 101.35168457, -8.15320206, 96.70081329, 0.37898728, -0.54645795, -0.54662973, -0.50886977, -0.12815678, 0.02068645, -0.09390651, 100.33200836, 82.98865509, 31.26000023, 0.00000000
1, 21.8000, 2201, -0.01037598, -0.99133301, 0.28894043, -0.54851609, 0.87992251, -0.42437509, -47.52996063, 3.09850907, -96.49225616, 101.34825897, -8.15198803, 96.70559692, 0.37898871, -0.54641914, -0.54664218, -0.50889677, -0.13142869, 0.02079434, -0.09414289, 100.33200836, 82.98865509, 31.26000023, 0.00000000
1, 21.8650, 2479, 0.01695880, -0.99920881, 0.00672164, 0.14833629, -0.78732330, 0.56975579, -36.59748459, 12.21864891, -113.30020142, 89.70529938, 0.75706518, -109.38212585, 0.40593576, -0.41145784, 0.57282686, 0.58119529, -0.00375498, -0.00070279, -0.01346149, 100.41800690, 75.77513885, 32.09999847, 0.00000000
1, 21.8700, 2480, 0.01519078, -0.99902737, 0.00600211, 0.07857046, -0.92468977, 0.46221310, -36.59748459, 12.21864891, -113.30020142, 89.70562744, 0.75472033, -109.38672638, 0.40592307, -0.41142422, 0.57285357, 0.58120173, -0.00202760, -0.00088352, -0.01274180, 100.41800690, 75.77513885, 32.09999847, 0.00000000
1, 21.8050, 2202, -0.01153564, -0.99523926, 0.29107666, -0.65351611, 0.45992237, -0.70437515, -47.52996063, 3.09850907, -96.49225616, 101.34457397, -8.14898396, 96.70858765, 0.37900898, -0.54638129, -0.54665214, -0.50891173, -0.13022548, 0.02468217, -0.09633897, 100.33200836, 82.98865509, 31.26000023, 0.00000000
1, 21.8100, 2203, -0.01385498, -0.99511719, 0.29211426, -0.79351616, 0.28492227, -0.87937528, -47.06226349, 3.01081562, -96.43379211, 101.34027863, -8.14495277, 96.71087646, 0.37904063, -0.54634082, -0.54666024, -0.50892293, -0.12784152, 0.02453664, -0.09744629, 100.33200836, 82.98865509, 31.26000023, 0.00000000
1, 21.8150, 2204, -0.01525879, -0.99328613, 0.28997803, -0.61851609, -0.10007785, -1.05437529, -47.06226349, 3.01081562, -96.43379211, 101.33711243, -8.13968086, 96.71141815, 0.37908116, -0.54630768, -0.54667002, -0.50891781, -0.12635139, 0.02268159, -0.09536687, 100.33200836, 82.98865509, 31.26000023, 0.00000000
1, 21.8750, 2481, 0.01500792, -0.99908423, 0.00575860, 0.07658192, -0.75147969, 0.50141919, -36.59748459, 12.21864891, -113.30020142, 89.76030731, 0.76118910, -109.38638306, 0.40569580, -0.41165209, 0.57310629, 0.58094990, -0.00180965, -0.00082833, -0.01201726, 100.41800690, 75.77513885, 32.09999847, 0.00000000
1, 21.8800, 2482, 0.01490069, -0.99914396, 0.00812688, -0.03513099, -0.33472380, 0.51277483, -36.36363602, 12.92019844, -112.94943237, 89.76011658, 0.75861567, -109.38804626, 0.40570104, -0.41163018, 0.57312053, 0.58094764, -0.00167449, -0.00077431, -0.01391348, 100.41800690, 75.77513885, 32.09999847, 0.00000000
1, 21.8850, 2483, 0.01666917, -0.99881005, 0.01013228, -0.21598093, -0.09181135, 0.48581469, -36.36363602, 12.92019844, -112.94943237, 89.75904083, 0.75618398, -109.38849640, 0.40571487, -0.41161186, 0.57312542, 0.58094603, -0.00349029, -0.00111194, -0.01592663, 100.41800690, 75.77513885, 32.09999847, 0.00000000
1, 21.8200, 2205, -0.01660156, -0.99395752, 0.28594971, -0.65351611, -0.13507785, -0.94937527, -47.23764801, 2.66004086, -97.01841736, 101.33381653, -8.13489342, 96.71169281, 0.37912104, -0.54627728, -0.54667592, -0.50891447, -0.12492385, 0.02333087, -0.09138729, 100.33200836, 82.98865509, 31.26000023, 0.00000000
1, 21.8250, 2206, -0.01745605, -0.99304199, 0.28161621, -0.58351606, -0.03007783, -0.94937527, -47.23764801, 2.66004086, -97.01841736, 101.33078766, -8.13021183, 96.71249390, 0.37915668, -0.54624563, -0.54668510, -0.50891191, -0.12398811, 0.02239263, -0.08710846, 100.33200836, 82.98865509, 31.26000023, 0.00000000
1, 21.8300, 2207, -0.01190186, -0.99157715, 0.28112793, -0.33851606, -0.10007784, -0.91437525, -47.23764801, 2.66004086, -97.01841736, 101.32904053, -8.12563419, 96.71290588, 0.37918743, -0.54622048, -0.54669774, -0.50890249, -0.12946175, 0.02091020, -0.08664899, 100.33200836, 82.98865509, 31.26000023, 0.00000000
1, 21.8900, 2484, 0.01566982, -1.00068080, 0.01161718, -0.46554920, -0.05755120, 0.41970387, -36.86056519, 12.62788677, -113.12481689, 89.75670624, 0.75408697, -109.38877869, 0.40573242, -0.41159168, 0.57312220, 0.58095127, -0.00253431, 0.00075619, -0.01745466, 100.41800690, 75.77513885, 32.09999847, 0.00000000
1, 21.8950, 2485, 0.01556055, -1.00176656, 0.01123157, -0.71605986, 0.04716069, 0.32023215, -36.86056519, 12.62788677, -113.12481689, 89.75313568, 0.75247306, -109.38851929, 0.40575472, -0.41157222, 0.57310903, 0.58096260, -0.00245351, 0.00184235, -0.01712573, 100.41800690, 75.77513885, 32.09999847, 0.00000000
1, 21.9000, 2486, 0.01863392, -1.00111783, 0.00843996, -1.07074666, -0.05793047, 0.21708570, -36.86056519, 12.62788677, -113.12481689, 89.74776459, 0.75138187, -109.38880157, 0.40577805, -0.41154629, 0.57308674, 0.58098656, -0.00554062, 0.00119828, -0.01441275, 100.41800690, 75.77513885, 32.09999847, 0.00000000
1, 21.9050, 2487, 0.01919288, -0.99953365, 0.00360979, -1.20766103, -0.54235047, 0.03202130, -36.45132828, 12.56942368, -113.56328583, 89.74169922, 0.75118703, -109.39151764, 0.40578711, -0.41151032, 0.57306647, 0.58102590, -0.00609565, -0.00037766, -0.00968147, 100.41800690, 75.77513885, 32.09999847, 0.00000000
1, 21.9100, 2488, 0.01993464, -0.99754775, -0.00018034, -1.20003533, -0.69575405, -0.29952487, -36.45132828, 12.56942368, -113.56328583, 89.73564911, 0.75264728, -109.39499664, 0.40578377, -0.41147876, 0.57304299, 0.58107358, -0.00681068, -0.00235667, -0.00599512, 100.41800690, 75.77513885, 32.09999847, 0.00000000
1, 21.8350, 2208, -0.01062012, -0.99072266, 0.28076172, -0.51351607, 0.14492226, -1.01937532, -47.35457230, 3.21543407, -96.95995331, 101.32622528, -8.12077999, 96.71462250, 0.37921885, -0.54618448, -0.54671299, -0.50890130, -0.13065991, 0.02003527, -0.08632424, 100.33200836, 82.98865509, 31.26000023, 0.00000000
1, 21.8400, 2209, -0.01129150, -0.99090576, 0.28143311, -0.54851609, 0.24992231, -0.98437530, -47.35457230, 3.21543407, -96.95995331, 101.32317352, -8.11619663, 96.71683502, 0.37924781, -0.54614633, -0.54672837, -0.50890404, -0.12990937, 0.02019695, -0.08704520, 100.33200836, 82.98865509, 31.26000023, 0.00000000
1, 21.9550, 2489, 0.01701760, -0.99510038, 0.00528415, -0.91292918, -0.36597317, -0.34269437, -35.83747482, 11.31248188, -112.62788391, 89.74071503, 0.77959824, -109.40479279, 0.40557984, -0.41158313, 0.57300663, 0.58117789, -0.00343679, -0.00480704, -0.01137747, 100.41800690, 75.77513885, 32.09999847, 0.00000000
1, 21.9600, 2490, 0.01908399, -0.99571645, 0.00405022, -0.91397673, -0.29468736, -0.41108626, -35.83747482, 11.31248188, -112.62788391, 89.73613739, 0.78163028, -109.40627289, 0.40557855, -0.41156971, 0.57298142, 0.58121324, -0.00546611, -0.00418809, -0.01021954, 100.41800690, 75.77513885, 32.09999847, 0.00000000
1, 21.9350, 2210, -0.01519775, -0.99322510, 0.28363037, -0.44351605, -0.38007796, -0.35437506, -47.06226349, 2.68927217, -96.57994843, 101.27696991, -8.04554081, 96.71248627, 0.37986103, -0.54574496, -0.54678673, -0.50881463, -0.12476940, 0.02218732, -0.08999438, 100.33200836, 82.98865509, 31.26000023, 0.00000000
1, 21.9400, 2211, -0.01757813, -0.99108887, 0.28460693, -0.58351606, -0.20507787, -0.31937510, -47.06226349, 2.68927217, -96.57994843, 101.27414703, -8.04377460, 96.71179199, 0.37988690, -0.54573220, -0.54677796, -0.50881839, -0.12235823, 0.02003744, -0.09101775, 100.33200836, 82.98865509, 31.26000023, 0.00000000
1, 21.9650, 2491, 0.01997891, -0.99472141, 0.00352025, -0.77413273, -0.08540164, -0.37282583, -36.21747971, 11.95556831, -112.94943237, 89.73224640, 0.78349000, -109.40671539, 0.40558088, -0.41156310, 0.57295656, 0.58124077, -0.00632580, -0.00518155, -0.00975807, 100.41800690, 75.77513885, 32.09999847, 0.00000000
1, 21.9700, 2492, 0.02109742, -0.99584794, 0.00531664, -0.77559751, 0.05216553, -0.29942384, -36.21747971, 11.95556831, -112.94943237, 89.72837830, 0.78497553, -109.40646362, 0.40558857, -0.41155815, 0.57293069, 0.58126450, -0.00742126, -0.00405718, -0.01162119, 100.41800690, 75.77513885, 32.09999847, 0.00000000
1, 21.9750, 2493, 0.02135638, -0.99740517, 0.00449525, -0.81189412, 0.08915990, -0.40323657, -36.21747971, 11.95556831, -112.94943237, 89.75833130, 0.81163490, -109.40645599, 0.40534633, -0.41179803, 0.57298636, 0.58120853, -0.00743268, -0.00249614, -0.01057246, 100.41800690, 75.77513885, 32.09999847, 0.00000000
1, 21.9450, 2212, -0.01800537, -0.98681641, 0.28802490, -0.16351599, -0.27507791, -0.24937502, -47.32534409, 1.22771120, -96.72610474, 101.27349091, -8.04228878, 96.71067047, 0.37990287, -0.54572970, -0.54677570, -0.50881159, -0.12190614, 0.01575726, -0.09445570, 100.33200836, 82.98865509, 31.26000023, 0.00000000
1, 21.9500, 2213, -0.01879883, -0.99163818, 0.29272461, 0.04648410, -0.41507795, -0.24937502, -47.32534409, 1.22771120, -96.72610474, 101.27397156, -8.04066277, 96.70885468, 0.37991717, -0.54573375, -0.54677576, -0.50879645, -0.12108339, 0.02057603, -0.09914951, 100.33200836, 82.98865509, 31.26000023, 0.00000000
1, 21.9550, 2214, -0.01879883, -0.99414063, 0.29357910, 0.04648410, -0.41507795, -0.24937502, -47.32534409, 1.22771120, -96.72610474, 101.27445984, -8.03903675, 96.70703888, 0.37993154, -0.54573786, -0.54677588, -0.50878137, -0.12105680, 0.02307648, -0.09999503, 100.33200836, 82.98865509, 31.26000023, 0.00000000
1, 21.9800, 2494, 0.02299542, -0.99738467, 0.00436876, -0.88186872, -0.01506589, -0.43988228, -36.33440399, 11.83864307, -112.62788391, 89.75392151, 0.81381053, -109.40653992, 0.40535077, -0.41179293, 0.57295644, 0.58123857, -0.00881665, -0.00251396, -0.01022062, 100.41800690, 75.77513885, 32.09999847, 0.00000000
1, 21.9850, 2495, 0.02494643, -0.99762487, 0.00508653, -0.95393527, 0.08622499, -0.33139402, -36.33440399, 11.83864307, -112.62788391, 89.74916077, 0.81546021, -109.40612030, 0.40536165, -0.41178647, 0.57292485, 0.58126670, -0.01073755, -0.00227411, -0.01101708, 100.41800690, 75.77513885, 32.09999847, 0.00000000
1, 21.9900, 2496, 0.02475083, -0.99734187, 0.00339188, -0.99023050, 0.15469187, -0.29424790, -35.89593506, 10.26015759, -112.89096832, 89.74420929, 0.81693226, -109.40535736, 0.40537590, -0.41178015, 0.57289165, 0.58129394, -0.01051375, -0.00255367, -0.00940718, 100.41800690, 75.77513885, 32.09999847, 0.00000000
1, 21.9600, 2215, -0.02044678, -0.99322510, 0.28759766, -0.05851592, -0.31007791, -0.21437496, -47.50072861, 2.60157847, -96.69686890, 101.27436066, -8.03768253, 96.70571899, 0.37994507, -0.54573870, -0.54677457, -0.50877184, -0.11938343, 0.02215746, -0.09401279, 100.33200836, 82.98865509, 31.26000023, 0.00000000
1, 21.9650, 2216, -0.02056885, -0.99407959, 0.28411865, 0.11648411, -0.38007796, -0.17937499, -47.50072861, 2.60157847, -96.69686890, 101.27517700, -8.03643799, 96.70401764, 0.37995532, -0.54574478, -0.54677510, -0.50875705, -0.11924040, 0.02301145, -0.09052120, 100.33200836, 82.98865509, 31.26000023, 0.00000000
1, 21.9700, 2217, -0.01910400, -0.99560547, 0.28631592, -0.16351594, -0.24007787, -0.14437498, -47.58842468, 2.36772871, -96.95995331, 101.27450562, -8.03549290, 96.70297241, 0.37996814, -0.54574394, -0.54677093, -0.50875282, -0.12068477, 0.02453351, -0.09272259, 100.33200836, 82.98865509, 31.26000023, 0.00000000
1, 21.9750, 2218, -0.02050781, -0.99353027, 0.28942871, -0.30351603, -0.20507787, 0.06562506, -47.58842468, 2.36772871, -96.95995331, 101.27313232, -8.03561497, 96.70188904, 0.37997878, -0.54574502, -0.54675919, -0.50875628, -0.11927860, 0.02245429, -0.09585418, 100.33200836, 82.98865509, 31.26000023, 0.00000000
1, 21.9800, 2219, -0.02099609, -0.98852539, 0.28771973, -0.47851607, -0.24007787, 0.13562511, -47.58842468, 2.36772871, -96.95995331, 101.27093506, -8.03605556, 96.70056915, 0.37999284, -0.54574567, -0.54674137, -0.50876427, -0.11879794, 0.01744289, -0.09418280, 100.33200836, 82.98865509, 31.26000023, 0.00000000
1, 21.9950, 2497, 0.02287073, -0.99430692, 0.00029938, -0.84400213, -0.19046153, -0.37444058, -35.89593506, 10.26015759, -112.89096832, 89.73997498, 0.81877816, -109.40631866, 0.40537697, -0.41176969, 0.57286698, 0.58132499, -0.00859382, -0.00558261, -0.00639445, 100.41800690, 75.77513885, 32.09999847, 0.00000000
1, 22.0000, 2498, 0.02026806, -0.99563527, -0.00117625, -0.52372855, -0.22075200, -0.44934389, -35.89593506, 10.26015759, -112.89096832, 89.73732758, 0.82101029, -109.40743256, 0.40536946, -0.41176593, 0.57284957, 0.58135003, -0.00595009, -0.00425112, -0.00497821, 100.42000580, 75.60753632, 32.09999847, 0.00000000
1, 22.0300, 2220, -0.02166748, -0.99169922, 0.27673340, -0.40851605, -0.27507791, -0.10937501, -47.38380432, 1.54925454, -96.66764069, 101.24339294, -8.04169559, 96.68782043, 0.38015074, -0.54573661, -0.54653567, -0.50887692, -0.11822993, 0.02053761, -0.08366882, 100.33200836, 82.98865509, 31.26000023, 0.00000000
1, 22.0350, 2221, -0.02349854, -0.99468994, 0.28045654, -0.30351606, 0.31992233, -0.07437500, -47.38380432, 2.39696002, -96.90148926, 101.24164581, -8.04164124, 96.68949127, 0.38015199, -0.54572266, -0.54653603, -0.50889057, -0.11639559, 0.02352262, -0.08741841, 100.33200836, 82.98865509, 31.26000023, 0.00000000
1, 22.0200, 2499, 0.00830731, -0.99537563, 0.00038699, -1.05978894, -0.04728781, -0.61364639, -35.86670685, 12.33557415, -112.89096832, 89.71678925, 0.83316243, -109.41368103, 0.40535027, -0.41172311, 0.57272387, 0.58151758, 0.00621443, -0.00450885, -0.00691693, 100.42000580, 75.60753632, 32.09999847, 0.00000000
1, 22.0250, 2500, 0.00868351, -0.99802601, 0.00695459, -1.02684355, 0.16271594, -0.64411235, -35.86670685, 12.33557415, -112.89096832, 89.74451447, 0.82016838, -109.40660095, 0.40535212, -0.41179129, 0.57288605, 0.58130819, 0.00573656, -0.00187124, -0.01329227, 100.42000580, 75.60753632, 32.09999847, 0.00000000
1, 22.0300, 2501, 0.00974188, -1.00024760, 0.00629965, -1.13468432, 0.23388575, -0.74619985, -36.21747971, 12.42326832, -113.56328583, 89.73883820, 0.82390136, -109.40546417, 0.40535948, -0.41179568, 0.57283968, 0.58134568, 0.00459890, 0.00034923, -0.01244587, 100.42000580, 75.60753632, 32.09999847, 0.00000000
1, 22.0400, 2222, -0.02441406, -0.99273682, 0.28540039, -0.33851606, 0.52992237, -0.07437500, -47.38380432, 2.39696002, -96.90148926, 101.23957825, -8.04178619, 96.69218445, 0.38014907, -0.54570347, -0.54653913, -0.50891000, -0.11548054, 0.02156270, -0.09239703, 100.33200836, 82.98865509, 31.26000023, 0.00000000
1, 22.0450, 2223, -0.02465820, -0.98992920, 0.28741455, -0.40851605, 0.52992237, 0.06562509, -47.38380432, 2.83542824, -96.69686890, 101.23717499, -8.04262638, 96.69474792, 0.38014472, -0.54568648, -0.54653728, -0.50893348, -0.11524761, 0.01874939, -0.09444764, 100.33200836, 82.98865509, 31.26000023, 0.00000000
1, 22.0500, 2224, -0.02337646, -0.99035645, 0.28839111, -0.51351607, 0.38992232, 0.13562511, -47.38380432, 2.83542824, -96.69686890, 101.23434448, -8.04366684, 96.69654846, 0.38014463, -0.54567248, -0.54652911, -0.50895727, -0.11654824, 0.01916969, -0.09547319, 100.33200836, 82.98865509, 31.26000023, 0.00000000
1, 22.0350, 2502, 0.01069711, -1.00011206, 0.00368710, -1.31040621, 0.02678564, -0.88910794, -36.21747971, 12.42326832, -113.56328583, 89.73228455, 0.82832462, -109.40534973, 0.40536121, -0.41179520, 0.57279003, 0.58139360, 0.00372586, 0.00021957, -0.00994362, 100.42000580, 75.60753632, 32.09999847, 0.00000000
1, 22.0400, 2503, 0.01395850, -0.99856579, 0.00401069, -1.24043179, 0.13101143, -0.85246223, -36.56825638, 12.83250523, -113.35866547, 89.72607422, 0.83257657, -109.40472412, 0.40536529, -0.41179776, 0.57274091, 0.58143741, 0.00054100, -0.00132552, -0.01036646, 100.42000580, 75.60753632, 32.09999847, 0.00000000
1, 22.0450, 2504, 0.01615489, -0.99812388, 0.00674578, -1.27588940, 0.12986067, -0.81698614, -36.56825638, 12.83250523, -113.35866547, 89.71971130, 0.83664614, -109.40410614, 0.40537077, -0.41179880, 0.57269174, 0.58148140, -0.00159113, -0.00177016, -0.01320664, 100.42000580, 75.60753632, 32.09999847, 0.00000000
1, 22.0550, 2225, -0.02032471, -0.99029541, 0.28857422, -0.16351599, 0.35492232, 0.17062512, -47.38380432, 2.83542824, -96.69686890, 101.23330688, -8.04484844, 96.69814301, 0.38013628, -0.54566598, -0.54652733, -0.50897247, -0.11961745, 0.01910544, -0.09568491, 100.33200836, 82.98865509, 31.26000023, 0.00000000
1, 22.0600, 2226, -0.02148438, -0.99304199, 0.28955078, -0.26851603, 0.52992237, 0.13562511, -47.96842957, 1.66617942, -96.93071747, 101.23162079, -8.04602909, 96.70063782, 0.38012698, -0.54565299, -0.54652697, -0.50899369, -0.11847909, 0.02185029, -0.09668572, 100.33200836, 82.98865509, 31.26000023, 0.00000000
1, 22.0650, 2227, -0.02270508, -0.99377441, 0.28906250, -0.19851595, 0.59992242, 0.20562513, -47.96842957, 1.66617942, -96.93071747, 101.23023987, -8.04761791, 96.70341492, 0.38011286, -0.54564124, -0.54652768, -0.50901616, -0.11728381, 0.02258140, -0.09622268, 100.33200836, 82.98865509, 31.26000023, 0.00000000
1, 22.0700, 2228, -0.02374268, -0.99279785, 0.28802490, 0.04648410, 0.56492239, 0.38062519, -47.52996063, 3.18620276, -96.72610474, 101.23014069, -8.05003834, 96.70584106, 0.38008979, -0.54563850, -0.54652900, -0.50903481, -0.11628204, 0.02160824, -0.09519392, 100.33200836, 82.98865509, 31.26000023, 0.00000000
1, 22.0750, 2229, -0.02233887, -0.99255371, 0.28381348, -0.02351592, 0.42492232, 0.38062519, -47.52996063, 3.18620276, -96.72610474, 101.22977448, -8.05232048, 96.70757294, 0.38007179, -0.54563779, -0.54652649, -0.50905186, -0.11772767, 0.02136893, -0.09098891, 100.33200836, 82.98865509, 31.26000023, 0.00000000
1, 22.0500, 2505, 0.01663946, -0.99886048, 0.00478572, -1.20539260, 0.16697103, -0.88710338, -36.56825638, 12.83250523, -113.35866547, 89.71366882, 0.84107268, -109.40328979, 0.40537423, -0.41180372, 0.57264215, 0.58152425, -0.00199665, -0.00102892, -0.01135332, 100.42000580, 75.60753632, 32.09999847, 0.00000000
1, 22.0550, 2506, 0.01703106, -0.99693692, 0.00336461, -1.06680632, 0.44921064, -0.98729682, -36.33440399, 11.86787510, -113.38789368, 89.70835876, 0.84600961, -109.40107727, 0.40537965, -0.41182077, 0.57258940, 0.58156037, -0.00229839, -0.00294840, -0.01002396, 100.42000580, 75.60753632, 32.09999847, 0.00000000
1, 22.0600, 2507, 0.01562852, -0.99704337, 0.00215220, -1.06837618, 0.58761197, -0.94892579, -36.33440399, 11.86787510, -113.38789368, 89.70304108, 0.85076237, -109.39817047, 0.40538949, -0.41184038, 0.57253480, 0.58159333, -0.00080992, -0.00283835, -0.00890789, 100.42000580, 75.60753632, 32.09999847, 0.00000000
1, 22.0650, 2508, 0.01380111, -0.99646592, 0.00259489, -1.10592747, 0.76050538, -0.90927464, -36.21747971, 12.74481106, -112.94943237, 89.69757080, 0.85532689, -109.39439392, 0.40540528, -0.41186282, 0.57247704, 0.58162344, 0.00109603, -0.00341474, -0.00944827, 100.42000580, 75.60753632, 32.09999847, 0.00000000
1, 22.1300, 2230, -0.01483154, -0.99365234, 0.27825928, -0.54851609, 0.17992222, 0.48562524, -47.44226837, 2.19234133, -96.93071747, 101.22332764, -8.08589554, 96.71177673, 0.37990627, -0.54572433, -0.54638267, -0.50923681, -0.12581339, 0.02252838, -0.08554891, 100.33200836, 82.98865509, 31.26000023, 0.00000000
1, 22.1350, 2231, -0.01586914, -0.99218750, 0.27893066, -0.40851608, 0.52992237, 0.55562526, -47.44226837, 2.19234133, -96.93071747, 101.22099304, -8.08912945, 96.71385956, 0.37989101, -0.54571897, -0.54636919, -0.50926840, -0.12483028, 0.02106291, -0.08626340, 100.33200836, 82.98865509, 31.26000023, 0.00000000
1, 22.0700, 2509, 0.01577982, -0.99610996, -0.00111011, -1.17705309, 0.75987196, -0.90838432, -36.21747971, 12.74481106, -112.94943237, 89.69173431, 0.85986793, -109.39061737, 0.40542251, -0.41188383, 0.57241738, 0.58165520, -0.00079397, -0.00376270, -0.00583654, 100.42000580, 75.60753632, 32.09999847, 0.00000000
1, 22.1400, 2232, -0.01605225, -0.99536133, 0.28271484, -0.33851597, 0.56492239, 0.45062518, -47.44226837, 2.19234133, -96.93071747, 101.21896362, -8.09188557, 96.71622467, 0.37987563, -0.54571152, -0.54636037, -0.50929743, -0.12469713, 0.02423728, -0.09008133, 100.33200836, 82.98865509, 31.26000023, 0.00000000
1, 22.1450, 2233, -0.01531982, -0.99450684, 0.28332520, -0.47851607, 0.56492239, 0.48562524, -47.23764801, 2.86465931, -96.93071747, 101.21624756, -8.09481335, 96.71855164, 0.37986276, -0.54570258, -0.54634756, -0.50933033, -0.12547895, 0.02338016, -0.09074083, 100.33200836, 82.98865509, 31.26000023, 0.00000000
1, 22.1500, 2234, -0.01794434, -0.99499512, 0.28491211, -0.30351606, 0.35492232, 0.45062518, -47.23764801, 2.86465931, -96.93071747, 101.21454620, -8.09736824, 96.71986389, 0.37985149, -0.54570037, -0.54633594, -0.50935346, -0.12290122, 0.02386880, -0.09236020, 100.33200836, 82.98865509, 31.26000023, 0.00000000
1, 22.0900, 2510, 0.02466396, -0.99735010, -0.00122471, -1.13855779, 0.54799932, -0.77371573, -36.27594376, 12.27711201, -113.27097321, 89.67931366, 0.88200885, -109.37495422, 0.40543488, -0.41202933, 0.57221800, 0.58173966, -0.00929016, -0.00251550, -0.00592165, 100.42000580, 75.60753632, 32.09999847, 0.00000000
1, 22.0950, 2511, 0.02697869, -0.99792838, -0.00142603, -1.20989358, 0.54903406, -0.84288722, -36.27594376, 12.27711201, -113.27097321, 89.67330170, 0.88621855, -109.37224579, 0.40544897, -0.41204274, 0.57216251, 0.58177489, -0.01153219, -0.00193520, -0.00581587, 100.42000580, 75.60753632, 32.09999847, 0.00000000
1, 22.1000, 2512, 0.02651993, -0.99653065, -0.00406967, -1.31407106, 0.30775848, -0.98752081, -36.48056030, 13.15404797, -113.15404510, 89.66674042, 0.89115721, -109.37072754, 0.40545535, -0.41205189, 0.57210594, 0.58181971, -0.01098243, -0.00332673, -0.00328557, 100.42000580, 75.60753632, 32.09999847, 0.00000000
1, 22.1550, 2235, -0.02008057, -0.99261475, 0.28283691, -0.44351608, 0.59992248, 0.41562518, -47.00379944, 2.04618526, -96.52148438, 101.21196747, -8.09998608, 96.72242737, 0.37983856, -0.54568964, -0.54632616, -0.50938523, -0.12080911, 0.02148611, -0.09032912, 100.33200836, 82.98865509, 31.26000023, 0.00000000
1, 22.1600, 2236, -0.02008057, -0.99218750, 0.28649902, -0.26851603, 0.63492244, 0.34562516, -47.00379944, 2.04618526, -96.52148438, 101.21022034, -8.10230827, 96.72523499, 0.37982211, -0.54567933, -0.54632246, -0.50941253, -0.12085065, 0.02105850, -0.09402330, 100.33200836, 82.98865509, 31.26000023, 0.00000000
1, 22.1650, 2237, -0.01953125, -0.99084473, 0.28625488, -0.26851603, 0.84492242, 0.27562514, -47.00379944, 2.04618526, -96.52148438, 101.20833588, -8.10448170, 96.72914124, 0.37980220, -0.54566270, -0.54632396, -0.50944358, -0.12143607, 0.01971466, -0.09381118, 100.33200836, 82.98865509, 31.26000023, 0.00000000
1, 22.1700, 2238, -0.01898193, -0.98950195, 0.28112793, -0.16351594, 0.98492259, 0.27562514, -47.55919266, 2.86465931, -96.87226105, 101.20687103, -8.10679436, 96.73376465, 0.37977645, -0.54564464, -0.54633009, -0.50947553, -0.12202655, 0.01837251, -0.08871144, 100.33200836, 82.98865509, 31.26000023, 0.00000000
1, 22.1750, 2239, -0.01654053, -0.99273682, 0.28204346, -0.16351594, 1.12492251, 0.27562514, -47.55919266, 2.86465931, -96.87226105, 101.20529938, -8.10924530, 96.73906708, 0.37974736, -0.54562348, -0.54633850, -0.50951082, -0.12450996, 0.02160770, -0.08965595, 100.33200836, 82.98865509, 31.26000023, 0.00000000
1, 22.1050, 2513, 0.02761158, -0.99645519, -0.00419327, -1.13311601, 0.06401200, -0.92552978, -36.48056030, 13.15404797, -113.15404510, 89.66104889, 0.89578176, -109.37045288, 0.40545392, -0.41205639, 0.57205927, 0.58186340, -0.01199177, -0.00340004, -0.00326288, 100.42000580, 75.60753632, 32.09999847, 0.00000000
1, 22.1100, 2514, 0.02809760, -0.99507153, -0.00094792, -1.06335008, 0.20137848, -0.81798708, -36.48056030, 13.15404797, -113.15404510, 89.65574646, 0.89985991, -109.36947632, 0.40545738, -0.41206297, 0.57201409, 0.58190078, -0.01241151, -0.00478726, -0.00659898, 100.42000580, 75.60753632, 32.09999847, 0.00000000
1, 22.1150, 2515, 0.02852978, -0.99429142, 0.00210341, -0.98918867, -0.04248405, -0.78969157, -35.86670685, 12.62788677, -113.21250916, 89.65078735, 0.90379643, -109.36972046, 0.40545404, -0.41206396, 0.57197553, 0.58194017, -0.01278121, -0.00557064, -0.00973597, 100.42000580, 75.60753632, 32.09999847, 0.00000000
1, 22.2050, 2240, -0.01757813, -0.99279785, 0.29156494, 0.18648414, -0.17007786, 0.20562513, -47.09149170, 2.54311609, -96.84302521, 101.20044708, -8.11916351, 96.74121094, 0.37970844, -0.54563498, -0.54628718, -0.50958246, -0.12365231, 0.02167565, -0.09927448, 100.33200836, 82.98865509, 31.26000023, 0.00000000
1, 22.2100, 2241, -0.01995850, -0.99163818, 0.28967285, -0.09351593, 0.38992235, 0.10062511, -47.09149170, 2.54311609, -96.84302521, 101.19972229, -8.12003517, 96.74304962, 0.37969911, -0.54562712, -0.54628921, -0.50959563, -0.12128377, 0.02051654, -0.09738827, 100.33200836, 82.98865509, 31.26000023, 0.00000000
1, 22.1200, 2516, 0.02912848, -0.99436462, 0.00039909, -1.02108657, -0.32377365, -0.69083357, -35.86670685, 12.62788677, -113.21250916, 89.64566040, 0.90722394, -109.37136078, 0.40544683, -0.41205481, 0.57194299, 0.58198363, -0.01331595, -0.00549330, -0.00811829, 100.42000580, 75.60753632, 32.09999847, 0.00000000
1, 22.1250, 2517, 0.02624254, -0.99664176, 0.00030277, -0.98615122, -0.25550741, -0.61954677, -36.56825638, 12.48173046, -113.68020630, 89.66152954, 0.93734902, -109.37525177, 0.40521792, -0.41224283, 0.57192862, 0.58202410, -0.01013710, -0.00321180, -0.00793906, 100.42000580, 75.60753632, 32.09999847, 0.00000000
1, 22.1800, 2518, 0.01654147, -1.00056720, 0.00493449, -1.95545423, 0.46942964, -0.69508517, -36.53902435, 12.48173046, -113.38789368, 89.62218475, 0.96584159, -109.36427307, 0.40527135, -0.41230154, 0.57158613, 0.58228171, 0.00028338, 0.00072087, -0.01308454, 100.42000580, 75.60753632, 32.09999847, 0.00000000
1, 22.2150, 2242, -0.01843262, -0.99163818, 0.28662109, 0.08148410, 0.49492240, 0.10062511, -47.09149170, 2.54311609, -96.84302521, 101.19979095, -8.12100792, 96.74540710, 0.37968317, -0.54561985, -0.54629683, -0.50960720, -0.12282617, 0.02051848, -0.09433854, 100.33200836, 82.98865509, 31.26000023, 0.00000000
1, 22.2200, 2243, -0.01574707, -0.99359131, 0.28448486, -0.12851594, 0.91492254, 0.13562511, -48.02689362, 2.86465931, -96.72610474, 101.19853210, -8.12256241, 96.74981689, 0.37966135, -0.54560059, -0.54630589, -0.50963426, -0.12553713, 0.02247203, -0.09221894, 100.33200836, 82.98865509, 31.26000023, 0.00000000
1, 22.2250, 2244, -0.01086426, -0.99353027, 0.28436279, -0.30351603, 0.77492249, 0.06562509, -48.02689362, 2.86465931, -96.72610474, 101.19647217, -8.12363815, 96.75359344, 0.37964866, -0.54557985, -0.54631042, -0.50966108, -0.13044089, 0.02240810, -0.09212694, 100.33200836, 82.98865509, 31.26000023, 0.00000000
1, 22.1850, 2519, 0.02092630, -0.99842370, 0.00125695, -2.10021925, 0.64554334, -0.82925332, -36.53902435, 12.48173046, -113.38789368, 89.61173248, 0.96998805, -109.36107635, 0.40530431, -0.41230130, 0.57150644, 0.58233714, -0.00402297, -0.00141406, -0.00957191, 100.42000580, 75.60753632, 32.09999847, 0.00000000
1, 22.2300, 2245, -0.01043701, -0.99182129, 0.28723145, -0.33851606, 0.49492240, 0.06562506, -47.32534409, 2.86465931, -97.07687378, 101.19444275, -8.12443447, 96.75598145, 0.37964350, -0.54556483, -0.54630965, -0.50968206, -0.13088545, 0.02069413, -0.09503333, 100.33200836, 82.98865509, 31.26000023, 0.00000000
1, 22.2350, 2246, -0.00988770, -0.99615479, 0.28912354, -0.37351605, 0.17992222, -0.07437500, -47.32534409, 2.86465931, -97.07687378, 101.19244385, -8.12423611, 96.75695038, 0.37964976, -0.54555279, -0.54630613, -0.50969398, -0.13143313, 0.02502096, -0.09695802, 100.33200836, 82.98865509, 31.26000023, 0.00000000
1, 22.2400, 2247, -0.01177979, -0.99652100, 0.28497314, -0.51351607, 0.38992235, -0.10937501, -47.32534409, 2.86465931, -97.07687378, 101.18959045, -8.12407875, 96.75900269, 0.37965506, -0.54553294, -0.54630375, -0.50971365, -0.12953681, 0.02537782, -0.09285190, 100.33200836, 82.98865509, 31.26000023, 0.00000000
1, 22.1900, 2520, 0.02222585, -0.99486911, 0.00308470, -1.88715601, 0.68141830, -0.79605830, -36.39286804, 12.74481106, -113.70944214, 89.60234833, 0.97397411, -109.35770416, 0.40533510, -0.41230494, 0.57143217, 0.58238602, -0.00525601, -0.00496932, -0.01156061, 100.42000580, 75.60753632, 32.09999847, 0.00000000
1, 22.1950, 2521, 0.02647172, -0.99457157, 0.00271211, -1.99771512, 1.05752695, -0.54032093, -36.39286804, 12.74481106, -113.70944214, 89.59244537, 0.97669286, -109.35243988, 0.40538377, -0.41230983, 0.57135308, 0.58242631, -0.00944561, -0.00526403, -0.01134680, 100.42000580, 75.60753632, 32.09999847, 0.00000000
1, 22.2000, 2522, 0.02746041, -0.99509060, 0.00446021, -1.89427006, 1.36758602, -0.35898638, -36.62671661, 12.48173046, -113.09558105, 89.58307648, 0.97852707, -109.34561157, 0.40544289, -0.41231996, 0.57127428, 0.58245528, -0.01040509, -0.00474617, -0.01325976, 100.42000580, 75.60753632, 32.09999847, 0.00000000
1, 22.2450, 2248, -0.01098633, -0.99664307, 0.27966309, -0.58351606, 0.63492239, -0.17937499, -47.32534409, 2.83542824, -97.13533783, 101.18620300, -8.12380981, 96.76232147, 0.37965780, -0.54550487, -0.54630560, -0.50973970, -0.13032594, 0.02548867, -0.08759525, 100.33200836, 82.98865509, 31.26000023, 0.00000000
1, 22.2500, 2249, -0.00842285, -0.99774170, 0.28106689, -0.89851618, 1.08992255, -0.28437504, -47.32534409, 2.83542824, -97.13533783, 101.18090820, -8.12347794, 96.76800537, 0.37965953, -0.54545897, -0.54631042, -0.50978237, -0.13288663, 0.02657059, -0.08908162, 100.33200836, 82.98865509, 31.26000023, 0.00000000
1, 22.2050, 2523, 0.03132983, -0.99752581, 0.00628236, -2.00043488, 1.33099306, -0.32345498, -36.62671661, 12.48173046, -113.09558105, 89.57317352, 0.98017687, -109.33896637, 0.40550396, -0.41232631, 0.57119399, 0.58248687, -0.01425020, -0.00231217, -0.01524426, 100.42000580, 75.60753632, 32.09999847, 0.00000000
1, 22.2100, 2524, 0.03294776, -0.99655676, 0.00465607, -2.07019901, 1.22509885, -0.29003876, -36.62671661, 12.48173046, -113.09558105, 89.56291962, 0.98165935, -109.33284760, 0.40556446, -0.41232795, 0.57111448, 0.58252156, -0.01583828, -0.00327682, -0.01378968, 100.42000580, 75.60753632, 32.09999847, 0.00000000
1, 22.2150, 2525, 0.03446009, -0.99881446, -0.00171123, -2.10440063, 1.11952186, -0.25706768, -35.98363113, 12.86173630, -112.83250427, 89.55250549, 0.98296565, -109.32727814, 0.40562370, -0.41232544, 0.57103676, 0.58255833, -0.01731041, -0.00100695, -0.00760443, 100.42000580, 75.60753632, 32.09999847, 0.00000000
1, 22.2750, 2250, -0.00878906, -0.98956299, 0.28320313, -1.10851634, 0.91492254, -0.66937512, -47.47150040, 1.81233561, -97.07687378, 101.15193176, -8.11418343, 96.78673553, 0.37976322, -0.54523826, -0.54630816, -0.50994384, -0.13236609, 0.01827392, -0.09170178, 100.33200836, 82.98865509, 31.26000023, 0.00000000
1, 22.2800, 2251, -0.01043701, -0.99023438, 0.28259277, -1.24851644, 1.15992260, -0.84437525, -47.50072861, 2.63080978, -96.84302521, 101.14476013, -8.11116409, 96.79331207, 0.37978402, -0.54517156, -0.54631966, -0.50998718, -0.13067219, 0.01891551, -0.09120882, 100.33200836, 82.98865509, 31.26000023, 0.00000000
1, 22.2200, 2526, 0.03529895, -0.99778152, -0.00132907, -1.96026456, 0.97988516, -0.19212642, -35.98363113, 12.86173630, -112.83250427, 89.54277802, 0.98394936, -109.32238007, 0.40567863, -0.41232035, 0.57096612, 0.58259290, -0.01813169, -0.00203855, -0.00815707, 100.42000580, 75.60753632, 32.09999847, 0.00000000
1, 22.2250, 2527, 0.03296345, -0.99903452, 0.00163039, -2.02992415, 0.87315714, -0.12367920, -36.10055542, 12.71557999, -113.24173737, 89.55227661, 1.00858271, -109.32039642, 0.40553027, -0.41248757, 0.57091796, 0.58262509, -0.01558151, -0.00078670, -0.01112777, 100.42000580, 75.60753632, 32.09999847, 0.00000000
1, 22.2850, 2252, -0.01257324, -0.98889160, 0.28228760, -1.24851644, 1.12492275, -0.80937517, -47.50072861, 2.63080978, -96.84302521, 101.13762665, -8.10827446, 96.79968262, 0.37980488, -0.54510647, -0.54632980, -0.51003027, -0.12848076, 0.01754123, -0.09102269, 100.33200836, 82.98865509, 31.26000023, 0.00000000
1, 22.2900, 2253, -0.01446533, -0.98925781, 0.28302002, -0.96851623, 1.01992249, -0.77437520, -47.50072861, 2.63080978, -96.84302521, 101.13196564, -8.10546303, 96.80549622, 0.37982082, -0.54504931, -0.54634356, -0.51006478, -0.12654272, 0.01788026, -0.09185944, 100.33200836, 82.98865509, 31.26000023, 0.00000000
1, 22.2950, 2254, -0.01470947, -0.99475098, 0.28521729, -0.86351627, 0.73992246, -0.77437520, -47.41303635, 2.36772871, -97.31072998, 101.12702179, -8.10238171, 96.80991364, 0.37984094, -0.54500008, -0.54635501, -0.51009011, -0.12624526, 0.02334896, -0.09414156, 100.33200836, 82.98865509, 31.26000023, 0.00000000
1, 22.2650, 2528, 0.02935652, -0.99435830, -0.00221362, -1.84519625, 0.41054860, 0.35367337, -36.12978745, 12.86173630, -113.09558105, 89.47171021, 0.99826932, -109.29826355, 0.40598479, -0.41226071, 0.57046598, 0.58291173, -0.01192522, -0.00544535, -0.00852341, 100.42000580, 75.60753632, 32.09999847, 0.00000000
1, 22.2700, 2529, 0.02442039, -0.99370968, -0.00352092, -1.80617893, 0.13156056, 0.38157907, -36.12978745, 12.86173630, -113.09558105, 89.46270752, 0.99634129, -109.29758453, 0.40603033, -0.41222250, 0.57042474, 0.58294737, -0.00701947, -0.00609098, -0.00738296, 100.42000580, 75.60753632, 32.09999847, 0.00000000
1, 22.3000, 2255, -0.01593018, -0.99755859, 0.28466797, -0.65351611, 0.42492232, -0.59937513, -47.41303635, 2.36772871, -97.31072998, 101.12337494, -8.09984589, 96.81259918, 0.37985978, -0.54496551, -0.54636180, -0.51010591, -0.12497988, 0.02613784, -0.09365484, 100.33200836, 82.98865509, 31.26000023, 0.00000000
1, 22.3050, 2256, -0.01574707, -0.99755859, 0.28436279, -0.86351627, 0.70492244, -0.63437515, -47.26688004, 2.42619109, -97.31072998, 101.11847687, -8.09741306, 96.81671143, 0.37987763, -0.54492038, -0.54636931, -0.51013273, -0.12512007, 0.02611655, -0.09342648, 100.33200836, 82.98865509, 31.26000023, 0.00000000
1, 22.3100, 2257, -0.01348877, -0.99432373, 0.28167725, -0.68851620, 0.87992245, -0.52937514, -47.26688004, 2.42619109, -97.31072998, 101.11434937, -8.09566307, 96.82157898, 0.37988484, -0.54487681, -0.54638118, -0.51016128, -0.12734401, 0.02286262, -0.09081224, 100.33200836, 82.98865509, 31.26000023, 0.00000000
1, 22.2750, 2530, 0.02096648, -0.99452603, -0.00395091, -1.80774868, 0.26996177, 0.41995010, -36.59748459, 12.36480522, -113.68020630, 89.46308136, 0.99898309, -109.29602814, 0.40602362, -0.41224483, 0.57041144, 0.58294934, -0.00355677, -0.00527313, -0.00703978, 100.42000580, 75.60753632, 32.09999847, 0.00000000
1, 22.2800, 2531, 0.02003986, -0.99360967, -0.00453717, -1.84414899, 0.33926275, 0.42206526, -36.59748459, 12.36480522, -113.68020630, 89.45388794, 0.99687213, -109.29430389, 0.40607607, -0.41221029, 0.57036620, 0.58298153, -0.00262413, -0.00618762, -0.00653421, 100.42000580, 75.60753632, 32.09999847, 0.00000000
1, 22.2850, 2532, 0.01676912, -0.99402559, -0.00386642, -1.77260327, 0.33655983, 0.56129885, -36.59748459, 12.36480522, -113.68020630, 89.44506836, 0.99405956, -109.29259491, 0.40613070, -0.41217336, 0.57032531, 0.58300948, 0.00059746, -0.00577225, -0.00736779, 100.42000580, 75.60753632, 32.09999847, 0.00000000
1, 22.3150, 2258, -0.01354980, -0.99200439, 0.28247070, -0.68851620, 1.15992260, -0.42437509, -47.26688004, 2.42619109, -97.31072998, 101.11003876, -8.09469604, 96.82774353, 0.37988299, -0.54482943, -0.54639518, -0.51019824, -0.12726367, 0.02052582, -0.09168040, 100.33200836, 82.98865509, 31.26000023, 0.00000000
1, 22.3200, 2259, -0.01586914, -0.99084473, 0.27856445, -0.47851601, 0.94992244, -0.28437504, -47.55919266, 3.06927800, -97.07687378, 101.10694885, -8.09421539, 96.83274078, 0.37987798, -0.54479349, -0.54640704, -0.51022750, -0.12493417, 0.01935366, -0.08783016, 100.33200836, 82.98865509, 31.26000023, 0.00000000
1, 22.2900, 2533, 0.01813870, -0.99217498, -0.00438100, -1.80764222, 0.30060023, 0.59593993, -36.04209137, 12.54019260, -113.35866547, 89.43605804, 0.99107933, -109.29103851, 0.40618598, -0.41213417, 0.57028478, 0.58303839, -0.00082298, -0.00762140, -0.00700229, 100.42000580, 75.60753632, 32.09999847, 0.00000000
1, 22.2950, 2534, 0.01955925, -0.99495780, -0.00674915, -1.80481625, 0.05777252, 0.55506390, -36.04209137, 12.54019260, -113.35866547, 89.42705536, 0.98828548, -109.29072571, 0.40623403, -0.41208977, 0.57024795, 0.58307225, -0.00228643, -0.00483373, -0.00479251, 100.42000580, 75.60753632, 32.09999847, 0.00000000
1, 22.3000, 2535, 0.01796810, -0.99707139, -0.00308024, -1.73358715, 0.02609929, 0.44824567, -36.56825638, 12.30634308, -113.18328094, 89.41839600, 0.98601747, -109.29058075, 0.40627739, -0.41204843, 0.57021159, 0.58310688, -0.00074693, -0.00272564, -0.00862151, 100.42000580, 75.60753632, 32.09999847, 0.00000000
1, 22.3600, 2260, -0.02612305, -0.99230957, 0.28460693, -0.19851600, 0.66992241, 0.52062523, -47.73458099, 2.57234716, -96.55071259, 101.09666443, -8.09976101, 96.83563995, 0.37988463, -0.54476678, -0.54635274, -0.51030928, -0.11475797, 0.02079344, -0.09405792, 100.33200836, 82.98865509, 31.26000023, 0.00000000
1, 22.3650, 2261, -0.02465820, -0.98889160, 0.28179932, -0.33851597, 0.45992237, 0.59062523, -47.82227325, 2.89389062, -96.98918152, 101.09473419, -8.10309601, 96.83735657, 0.37986854, -0.54476494, -0.54633886, -0.51033807, -0.11628193, 0.01737738, -0.09128419, 100.33200836, 82.98865509, 31.26000023, 0.00000000
1, 22.3050, 2536, 0.02071166, -1.00262237, -0.00356368, -2.12467432, -0.00969091, 0.34721446, -36.56825638, 12.30634308, -113.18328094, 89.40776825, 0.98426038, -109.29060364, 0.40632430, -0.41200173, 0.57016391, 0.58315367, -0.00352296, 0.00282727, -0.00831326, 100.42000580, 75.60753632, 32.09999847, 0.00000000
1, 22.3100, 2537, 0.02012434, -1.00136912, -0.00778916, -2.43961239, -0.49402630, 0.09431388, -36.56825638, 12.30634308, -113.18328094, 89.39551544, 0.98373252, -109.29306793, 0.40635845, -0.41194338, 0.57011241, 0.58322155, -0.00294213, 0.00158290, -0.00429458, 100.42000580, 75.60753632, 32.09999847, 0.00000000
1, 22.3700, 2262, -0.02471924, -0.98822021, 0.28460693, -0.12851594, 0.28492227, 0.48562524, -47.82227325, 2.89389062, -96.98918152, 101.09394836, -8.10574913, 96.83829498, 0.37985399, -0.54476798, -0.54632914, -0.51035595, -0.11627055, 0.01670966, -0.09410990, 100.33200836, 82.98865509, 31.26000023, 0.00000000
1, 22.3750, 2263, -0.02832031, -0.98883057, 0.28576660, 0.01148409, -0.06507783, 0.66062522, -47.82227325, 2.89389062, -96.98918152, 101.09414673, -8.10893631, 96.83732605, 0.37984058, -0.54478550, -0.54631263, -0.51036513, -0.11272241, 0.01732761, -0.09526993, 100.33200836, 82.98865509, 31.26000023, 0.00000000
1, 22.3800, 2264, -0.03051758, -0.98803711, 0.28912354, 0.01148409, -0.10007784, 0.76562530, -47.47150040, 2.48465347, -96.72610474, 101.09438324, -8.11260319, 96.83607483, 0.37982562, -0.54480624, -0.54629296, -0.51037514, -0.11058557, 0.01654336, -0.09862460, 100.33200836, 82.98865509, 31.26000023, 0.00000000
1, 22.3700, 2538, 0.01185864, -0.99509132, -0.00466103, -1.31584382, 0.60519058, -0.31441727, -36.48056030, 12.80327415, -113.06635284, 89.29617310, 0.98374951, -109.31139374, 0.40662199, -0.41149998, 0.56967235, 0.58378065, 0.00531151, -0.00467996, -0.00919606, 100.42000580, 75.60753632, 32.09999847, 0.00000000
1, 22.3750, 2539, 0.01401709, -0.99669743, -0.00269533, -1.27766371, 0.39582020, -0.28484154, -35.92516708, 11.54633141, -113.68020630, 89.31821442, 0.97917604, -109.30505371, 0.40659818, -0.41158667, 0.56977844, 0.58363253, 0.00312063, -0.00307926, -0.01102223, 100.42000580, 75.60753632, 32.09999847, 0.00000000
1, 22.3850, 2265, -0.03234863, -0.98681641, 0.29028320, 0.18648414, -0.24007787, 1.01062548, -47.47150040, 2.48465347, -96.72610474, 101.09561920, -8.11733532, 96.83390045, 0.37980443, -0.54483879, -0.54626906, -0.51038176, -0.10882917, 0.01533628, -0.09977024, 100.33200836, 82.98865509, 31.26000023, 0.00000000
1, 22.3900, 2266, -0.02984619, -0.98742676, 0.28582764, 0.11648413, -0.03007782, 1.11562550, -47.47150040, 2.80619693, -96.69686890, 101.09638214, -8.12278175, 96.83265686, 0.37977752, -0.54486805, -0.54624462, -0.51039672, -0.11142336, 0.01596206, -0.09530365, 100.33200836, 82.98865509, 31.26000023, 0.00000000
1, 22.3950, 2267, -0.02819824, -0.99035645, 0.28747559, 0.36148420, 0.03992219, 1.32562554, -47.47150040, 2.80619693, -96.69686890, 101.09834290, -8.12932491, 96.83157349, 0.37973842, -0.54490471, -0.54622179, -0.51041096, -0.11318141, 0.01891318, -0.09692437, 100.33200836, 82.98865509, 31.26000023, 0.00000000
1, 22.4000, 2268, -0.02673340, -0.99212646, 0.28735352, 0.15148413, 0.35492232, 1.32562554, -47.47150040, 2.80619693, -96.69686890, 101.09902954, -8.13617039, 96.83203888, 0.37969685, -0.54493088, -0.54619950, -0.51043779, -0.11476454, 0.02070341, -0.09678695, 100.33200836, 82.98865509, 31.26000023, 0.00000000
1, 22.3800, 2540, 0.01529961, -0.99809217, -0.00473180, -1.24063480, 0.29004219, -0.21772981, -35.92516708, 11.54633141, -113.68020630, 89.31202698, 0.98026907, -109.30360413, 0.40662226, -0.41157740, 0.56973773, 0.58366197, 0.00181120, -0.00168334, -0.00884658, 100.42000580, 75.60753632, 32.09999847, 0.00000000
1, 22.3850, 2541, 0.01781112, -0.99652457, -0.00805008, -1.02600324, 0.15604335, -0.36386466, -35.92516708, 11.54633141, -113.68020630, 89.30690765, 0.98207933, -109.30284119, 0.40663543, -0.41157216, 0.56970239, 0.58369112, -0.00066347, -0.00324383, -0.00561360, 100.42000580, 75.60753632, 32.09999847, 0.00000000
1, 22.3900, 2542, 0.01687096, -0.99861825, -0.00735949, -0.95571518, 0.22629437, -0.36308494, -36.24671173, 12.83250523, -113.50482178, 89.30213928, 0.98389477, -109.30174255, 0.40664899, -0.41156983, 0.56966752, 0.58371723, 0.00030679, -0.00114979, -0.00639156, 100.42000580, 75.60753632, 32.09999847, 0.00000000
1, 22.4050, 2269, -0.02770996, -0.99237061, 0.28753662, 0.15148412, 0.28492233, 1.29062557, -47.88073730, 2.86465931, -96.43379211, 101.09975433, -8.14277649, 96.83219910, 0.37965780, -0.54495782, -0.54617691, -0.51046240, -0.11390243, 0.02096570, -0.09696259, 100.33200836, 82.98865509, 31.26000023, 0.00000000
1, 22.4600, 2270, -0.02093506, -0.99279785, 0.28051758, 0.32648420, 1.71992278, 0.59062523, -47.67611694, 2.39696002, -96.75533295, 101.09880066, -8.20466709, 96.88762665, 0.37908787, -0.54492682, -0.54618686, -0.51090819, -0.12175438, 0.02154157, -0.08998959, 100.33200836, 82.98865509, 31.26000023, 0.00000000
1, 22.4650, 2271, -0.01983643, -0.99035645, 0.28472900, 0.43148422, 1.50992274, 0.59062523, -47.85150528, 2.57234716, -96.69686890, 101.09996796, -8.20902061, 96.89453888, 0.37902844, -0.54491436, -0.54620743, -0.51094359, -0.12292932, 0.01911408, -0.09418713, 100.33200836, 82.98865509, 31.26000023, 0.00000000
1, 22.4700, 2272, -0.01873779, -0.99017334, 0.28808594, 0.60648429, 0.73992246, 0.66062522, -47.85150528, 2.57234716, -96.69686890, 101.10256195, -8.21297359, 96.89756012, 0.37898165, -0.54492360, -0.54621744, -0.51095766, -0.12409944, 0.01894874, -0.09750731, 100.33200836, 82.98865509, 31.26000023, 0.00000000
1, 22.4750, 2273, -0.01617432, -0.99334717, 0.28509521, 0.60648429, 0.24992229, 0.80062532, -47.85150528, 2.57234716, -96.69686890, 101.10552979, -8.21714115, 96.89803314, 0.37894341, -0.54494709, -0.54621607, -0.51096243, -0.12673220, 0.02214196, -0.09446961, 100.33200836, 82.98865509, 31.26000023, 0.00000000
1, 22.4800, 2274, -0.01751709, -0.99304199, 0.28118896, 0.50148422, 0.07492220, 0.76562530, -47.76381302, 2.89389062, -96.46302032, 101.10809326, -8.22096729, 96.89765930, 0.37891266, -0.54497194, -0.54621029, -0.51096493, -0.12545791, 0.02185518, -0.09052104, 100.33200836, 82.98865509, 31.26000023, 0.00000000
1, 22.4850, 2275, -0.01861572, -0.99273682, 0.27984619, 0.39648423, -0.27507791, 0.59062523, -47.76381302, 2.89389062, -96.46302032, 101.11035156, -8.22360229, 96.89572906, 0.37889662, -0.54499871, -0.54620057, -0.51095873, -0.12441012, 0.02156547, -0.08913745, 100.33200836, 82.98865509, 31.26000023, 0.00000000
1, 22.3950, 2543, 0.01736006, -0.99920106, -0.00816234, -1.02443349, 0.01764209, -0.40223566, -36.24671173, 12.83250523, -113.50482178, 89.29700470, 0.98590475, -109.30168152, 0.40665764, -0.41156203, 0.56963384, 0.58374959, -0.00014703, -0.00056414, -0.00567788, 100.42000580, 75.60753632, 32.09999847, 0.00000000
1, 22.4000, 2544, 0.01398445, -0.99702311, -0.00920151, -0.91680264, -0.05185958, -0.37021020, -36.27594376, 10.66939449, -113.38789368, 89.29242706, 0.98774058, -109.30197144, 0.40666342, -0.41155362, 0.56960487, 0.58377981, 0.00326469, -0.00273882, -0.00472681, 100.42000580, 75.60753632, 32.09999847, 0.00000000
1, 22.4050, 2545, 0.01263086, -0.99518418, -0.00794571, -0.88113481, -0.05237697, -0.33562440, -36.27594376, 10.66939449, -113.38789368, 89.28800964, 0.98939371, -109.30225372, 0.40666950, -0.41154486, 0.56957746, 0.58380860, 0.00464573, -0.00457814, -0.00605996, 100.42000580, 75.60753632, 32.09999847, 0.00000000
1, 22.4900, 2276, -0.02154541, -0.99438477, 0.28222656, 0.46648425, -0.24007787, 0.52062529, -47.79304123, 2.45542240, -97.07687378, 101.11292267, -8.22592354, 96.89402771, 0.37887958, -0.54502416, -0.54619461, -0.51095045, -0.12152080, 0.02322739, -0.09147690, 100.33200836, 82.98865509, 31.26000023, 0.00000000
1, 22.4950, 2277, -0.02374268, -0.99627686, 0.28564453, 0.11648413, -0.06507783, 0.48562524, -47.79304123, 2.45542240, -97.07687378, 101.11363220, -8.22825050, 96.89322662, 0.37886757, -0.54503924, -0.54618460, -0.51095420, -0.11936406, 0.02512948, -0.09487443, 100.33200836, 82.98865509, 31.26000023, 0.00000000
1, 22.4100, 2546, 0.01461602, -0.99324596, -0.00682044, -0.88563561, 0.32968608, -0.29140827, -36.27594376, 10.66939449, -113.38789368, 89.28359985, 0.99087614, -109.30062103, 0.40668616, -0.41154474, 0.56954372, 0.58382994, 0.00268345, -0.00651678, -0.00725394, 100.42000580, 75.60753632, 32.09999847, 0.00000000
1, 22.4150, 2547, 0.01488286, -0.99500787, -0.00673472, -0.77601624, 0.08697436, -0.29858884, -36.01286316, 12.89096737, -113.44635773, 89.27972412, 0.99236196, -109.30021667, 0.40669471, -0.41154051, 0.56951708, 0.58385295, 0.00244228, -0.00475358, -0.00741254, 100.42000580, 75.60753632, 32.09999847, 0.00000000
1, 22.4600, 2548, 0.00904939, -0.99645662, 0.00018089, -1.02170968, -0.16140653, -0.19622496, -36.15901566, 11.92633724, -113.38789368, 89.28099060, 1.01715267, -109.30222321, 0.40655512, -0.41165978, 0.56944060, 0.58394057, 0.00869273, -0.00330905, -0.01431652, 100.42000580, 75.60753632, 32.09999847, 0.00000000
1, 22.4650, 2549, 0.01119839, -0.99524546, -0.00362922, -1.09723246, 0.18771656, -0.25704640, -36.15901566, 11.92633724, -113.38789368, 89.27551270, 1.01843536, -109.30130005, 0.40657300, -0.41165137, 0.56940472, 0.58396900, 0.00657570, -0.00451249, -0.01059307, 100.42000580, 75.60753632, 32.09999847, 0.00000000
1, 22.5550, 2278, -0.02130127, -0.99316406, 0.28845215, 0.22148415, 0.59992242, 0.20562513, -47.76381302, 3.09850907, -96.87226105, 101.10035706, -8.25438213, 96.92098236, 0.37866846, -0.54496276, -0.54615206, -0.51121783, -0.12225982, 0.02203727, -0.09791878, 100.33200836, 82.98865509, 31.26000023, 0.00000000
1, 22.5600, 2279, -0.02490234, -0.99011230, 0.28601074, 0.11648411, 0.56492239, 0.17062512, -47.76381302, 3.09850907, -96.87226105, 101.10055542, -8.25576878, 96.92362213, 0.37864846, -0.54495621, -0.54615992, -0.51123142, -0.11868627, 0.01898975, -0.09547662, 100.33200836, 82.98865509, 31.26000023, 0.00000000
1, 22.4700, 2550, 0.01226270, -0.99356377, -0.00481435, -0.95581883, 0.25860095, -0.25715700, -36.15901566, 11.92633724, -113.38789368, 89.27077484, 1.01971591, -109.30003357, 0.40659013, -0.41164735, 0.56937134, 0.58399260, 0.00553684, -0.00619070, -0.00949021, 100.42000580, 75.60753632, 32.09999847, 0.00000000
1, 22.4750, 2551, 0.01678124, -0.99505222, -0.00412977, -0.88710046, 0.46725330, -0.21800628, -36.45132828, 12.39403629, -112.94943237, 89.29509735, 1.01812780, -109.29385376, 0.40654215, -0.41175634, 0.56947887, 0.58384418, 0.00101242, -0.00470560, -0.00999207, 100.42000580, 75.60753632, 32.09999847, 0.00000000
1, 22.4800, 2552, 0.02009104, -0.99692273, -0.00326654, -0.99033552, 0.15552595, -0.32927886, -36.45132828, 12.39403629, -112.94943237, 89.29016113, 1.01977062, -109.29311371, 0.40655541, -0.41175079, 0.56944507, 0.58387184, -0.00229751, -0.00283858, -0.01068259, 100.42000580, 75.60753632, 32.09999847, 0.00000000
1, 22.5650, 2280, -0.02886963, -0.99023438, 0.27984619, 0.39648423, 0.63492244, 0.27562514, -47.76381302, 2.68927217, -97.28149414, 101.10211945, -8.25773525, 96.92650604, 0.37861770, -0.54495513, -0.54617268, -0.51124161, -0.11474792, 0.01911968, -0.08929344, 100.33200836, 82.98865509, 31.26000023, 0.00000000
1, 22.5700, 2281, -0.02862549, -0.99206543, 0.27642822, 0.32648420, 0.91492254, 0.20562513, -47.76381302, 2.68927217, -97.28149414, 101.10314178, -8.25961781, 96.93084717, 0.37858355, -0.54494494, -0.54619026, -0.51125896, -0.11502670, 0.02095979, -0.08585556, 100.33200836, 82.98865509, 31.26000023, 0.00000000
1, 22.5750, 2282, -0.02636719, -0.99285889, 0.27661133, 0.36148420, 0.80992240, 0.20562513, -47.76381302, 2.68927217, -96.75533295, 101.10439301, -8.26140118, 96.93466187, 0.37855107, -0.54493773, -0.54620689, -0.51127303, -0.11731520, 0.02176133, -0.08602034, 100.33200836, 82.98865509, 31.26000023, 0.00000000
1, 22.4850, 2553, 0.01748824, -0.99813557, -0.00449689, -0.95257413, -0.01903560, -0.29886812, -36.48056030, 10.02630806, -113.18328094, 89.28539276, 1.02125478, -109.29322815, 0.40656450, -0.41174072, 0.56941575, 0.58390117, 0.00033565, -0.00162211, -0.00954545, 100.42000580, 75.60753632, 32.09999847, 0.00000000
1, 22.4900, 2554, 0.01871421, -0.99908841, -0.00476279, -1.05915880, -0.05229226, -0.40346053, -36.48056030, 10.02630806, -113.18328094, 89.28008270, 1.02325296, -109.29351807, 0.40657204, -0.41173053, 0.56938249, 0.58393556, -0.00085773, -0.00066716, -0.00936597, 100.42000580, 75.60753632, 32.09999847, 0.00000000
1, 22.4950, 2555, 0.01595139, -0.99813306, -0.00771132, -1.16542995, -0.11952370, -0.54391897, -36.48056030, 10.02630806, -113.18328094, 89.27423859, 1.02594435, -109.29414368, 0.40657634, -0.41172025, 0.56934518, 0.58397627, 0.00195792, -0.00161560, -0.00652312, 100.42000580, 75.60753632, 32.09999847, 0.00000000
1, 22.5800, 2283, -0.02429199, -0.99023438, 0.28149414, 0.43148425, 0.73992246, 0.20562513, -47.38380432, 2.39696002, -96.75533295, 101.10606384, -8.26312542, 96.93814087, 0.37851852, -0.54493326, -0.54622388, -0.51128370, -0.11941984, 0.01914659, -0.09087548, 100.33200836, 82.98865509, 31.26000023, 0.00000000
1, 22.5850, 2284, -0.02587891, -0.99078369, 0.28533936, 0.43148422, 0.59992242, 0.20562513, -47.38380432, 2.39696002, -96.75533295, 101.10781860, -8.26470947, 96.94091797, 0.37848938, -0.54493189, -0.54623854, -0.51129109, -0.11785974, 0.01970566, -0.09469088, 100.33200836, 82.98865509, 31.26000023, 0.00000000
1, 22.5900, 2285, -0.02581787, -0.99096680, 0.28454590, 0.11648411, 0.84492248, 0.20562513, -47.17918777, 2.33849740, -97.04764557, 101.10783386, -8.26653194, 96.94490051, 0.37846187, -0.54491979, -0.54625016, -0.51131177, -0.11795400, 0.01989472, -0.09389286, 100.33200836, 82.98865509, 31.26000023, 0.00000000
1, 22.5000, 2556, 0.01429906, -0.99706471, -0.00738099, -1.06010270, -0.01331306, -0.57778043, -36.53902435, 9.29552746, -112.94943237, 89.26892853, 1.02882230, -109.29425812, 0.40658027, -0.41171530, 0.56930804, 0.58401304, 0.00365800, -0.00268242, -0.00695457, 100.42000580, 75.60753632, 32.09999847, 0.00000000
1, 22.5050, 2557, 0.01200099, -0.99615264, -0.00346759, -0.92214233, 0.36834860, -0.46528292, -36.53902435, 9.29552746, -112.94943237, 89.26435089, 1.03116345, -109.29244232, 0.40659428, -0.41171989, 0.56926972, 0.58403766, 0.00599032, -0.00359904, -0.01095380, 100.42000580, 75.60753632, 32.09999847, 0.00000000
1, 22.5950, 2286, -0.02551270, -0.99108887, 0.28454590, 0.18648414, 0.94992244, 0.17062512, -47.17918777, 2.33849740, -97.04764557, 101.10810089, -8.26828194, 96.94945526, 0.37843099, -0.54490572, -0.54626596, -0.51133275, -0.11828735, 0.02002144, -0.09389004, 100.33200836, 82.98865509, 31.26000023, 0.00000000
1, 22.6000, 2287, -0.02551270, -0.99310303, 0.28594971, 0.04648410, 0.98492259, 0.20562513, -47.88073730, 2.01695418, -96.87226105, 101.10765839, -8.27024364, 96.95413971, 0.37840185, -0.54488945, -0.54627842, -0.51135856, -0.11832062, 0.02203989, -0.09529749, 100.33200836, 82.98865509, 31.26000023, 0.00000000
1, 22.5500, 2558, 0.01477772, -0.99310231, -0.01009843, -0.70635694, 0.19370238, -0.36703604, -36.21747971, 12.74481106, -112.92019653, 89.24636078, 1.03524852, -109.26889801, 0.40675837, -0.41179356, 0.56907856, 0.58405775, 0.00330275, -0.00663303, -0.00462958, 100.42000580, 75.60753632, 32.09999847, 0.00000000
1, 22.5550, 2559, 0.01542072, -0.99218786, -0.01239079, -0.70447350, 0.02132638, -0.44127303, -36.21747971, 12.74481106, -112.92019653, 89.24283600, 1.03744483, -109.26882172, 0.40676033, -0.41179246, 0.56905234, 0.58408266, 0.00270230, -0.00754233, -0.00239405, 100.42000580, 75.60753632, 32.09999847, 0.00000000
1, 22.6200, 2288, -0.01837158, -0.99267578, 0.28228760, -0.12851594, 0.70492238, 0.24062514, -47.09149170, 2.28003502, -96.75533295, 101.10311890, -8.27858543, 96.97277832, 0.37829605, -0.54481745, -0.54631311, -0.51147640, -0.12560847, 0.02161896, -0.09171392, 100.33200836, 82.98865509, 31.26000023, 0.00000000
1, 22.6250, 2289, -0.02221680, -0.99212646, 0.28393555, -0.02351592, 0.24992226, 0.17062512, -48.05612183, 2.54311609, -96.90148926, 101.10284424, -8.27966595, 96.97385406, 0.37828684, -0.54481554, -0.54631263, -0.51148570, -0.12178485, 0.02107024, -0.09337550, 100.33200836, 82.98865509, 31.26000023, 0.00000000
1, 22.5600, 2560, 0.01560368, -0.99040782, -0.00810391, -0.56305975, 0.09221080, -0.44138363, -36.65594864, 12.80327415, -112.97866058, 89.24002075, 1.03965139, -109.26840210, 0.40676153, -0.41179568, 0.56902844, 0.58410287, 0.00254711, -0.00932793, -0.00673121, 100.42000580, 75.60753632, 32.09999847, 0.00000000
1, 22.5650, 2561, 0.01692328, -0.99304664, -0.00652037, -0.45647642, 0.09399495, -0.47775006, -36.65594864, 12.80327415, -112.97866058, 89.23773956, 1.04205275, -109.26797485, 0.40675977, -0.41180176, 0.56900650, 0.58412105, 0.00126523, -0.00669050, -0.00835714, 100.42000580, 75.60753632, 32.09999847, 0.00000000
1, 22.5700, 2562, 0.01544409, -0.99540710, -0.00510433, -0.45616129, 0.09149273, -0.37265718, -36.65594864, 12.80327415, -112.97866058, 89.23545837, 1.04390895, -109.26755524, 0.40676081, -0.41180512, 0.56898659, 0.58413738, 0.00277495, -0.00433117, -0.00982209, 100.42000580, 75.60753632, 32.09999847, 0.00000000
1, 22.6300, 2290, -0.02301025, -0.99365234, 0.28387451, 0.08148410, -0.03007782, 0.10062511, -48.05612183, 2.54311609, -96.90148926, 101.10328674, -8.28013802, 96.97359467, 0.37828335, -0.54482001, -0.54631150, -0.51148468, -0.12100185, 0.02259883, -0.09330781, 100.33200836, 82.98865509, 31.26000023, 0.00000000
1, 22.6350, 2291, -0.02148438, -0.99633789, 0.28436279, -0.02351592, 0.03992219, 0.24062514, -48.05612183, 2.54311609, -96.90148926, 101.10318756, -8.28135777, 96.97355652, 0.37827757, -0.54482454, -0.54630595, -0.51149017, -0.12254383, 0.02528733, -0.09379359, 100.33200836, 82.98865509, 31.26000023, 0.00000000
1, 22.6400, 2292, -0.02160645, -0.99621582, 0.28521729, -0.02351592, -0.27507791, 0.24062514, -47.67611694, 2.39696002, -97.31072998, 101.10329437, -8.28227711, 96.97195435, 0.37827930, -0.54483604, -0.54629511, -0.51148814, -0.12244088, 0.02516813, -0.09464794, 100.33200836, 82.98865509, 31.26000023, 0.00000000
1, 22.5750, 2563, 0.01728182, -0.99671638, -0.00544005, -0.37990475, -0.29494146, -0.20757781, -36.36363602, 12.68634892, -113.59251404, 89.28388214, 1.04342902, -109.26333618, 0.40661067, -0.41199550, 0.56922001, 0.58388031, 0.00094723, -0.00302638, -0.00907833, 100.42000580, 75.60753632, 32.09999847, 0.00000000
1, 22.5800, 2564, 0.01835386, -0.99974108, -0.00556422, -0.45123896, -0.26243415, -0.13579053, -36.36363602, 12.68634892, -113.59251404, 89.28160858, 1.04408824, -109.26466370, 0.40660876, -0.41198415, 0.56921077, 0.58389860, -0.00012451, -0.00000681, -0.00855545, 100.42000580, 75.60753632, 32.09999847, 0.00000000
1, 22.5850, 2565, 0.01659883, -0.99857867, -0.00170841, -0.41588625, -0.26044932, -0.20629764, -36.71440887, 12.65711784, -113.00788879, 89.27949524, 1.04509759, -109.26597595, 0.40660459, -0.41197523, 0.56920111, 0.58391732, 0.00163549, -0.00117465, -0.01245196, 100.42000580, 75.60753632, 32.09999847, 0.00000000
1, 22.6450, 2293, -0.02410889, -0.99353027, 0.28167725, -0.16351594, -0.62507802, 0.10062508, -47.67611694, 2.39696002, -97.31072998, 101.10294342, -8.28216457, 96.96875763, 0.37829584, -0.54484969, -0.54627877, -0.51147878, -0.11994242, 0.02248204, -0.09111342, 100.33200836, 82.98865509, 31.26000023, 0.00000000
1, 22.6500, 2294, -0.02569580, -0.99603271, 0.28411865, 0.08148410, -0.52007800, -0.03937499, -47.20841980, 2.33849740, -96.87226105, 101.10371399, -8.28146935, 96.96621704, 0.37830725, -0.54486173, -0.54627299, -0.51146388, -0.11834379, 0.02498442, -0.09354648, 100.33200836, 82.98865509, 31.26000023, 0.00000000
1, 22.6550, 2295, -0.02441406, -0.99755859, 0.29254150, 0.01148409, 0.00492218, -0.17937499, -47.20841980, 2.33849740, -96.87226105, 101.10373688, -8.28059387, 96.96641541, 0.37831083, -0.54485750, -0.54627758, -0.51146078, -0.11960958, 0.02650870, -0.10196524, 100.33200836, 82.98865509, 31.26000023, 0.00000000
1, 22.6600, 2296, -0.02398682, -0.99548340, 0.29827881, -0.16351594, 0.24992226, -0.17937499, -47.20841980, 2.33849740, -96.87226105, 101.10272217, -8.27995300, 96.96783447, 0.37831274, -0.54484493, -0.54628235, -0.51146764, -0.12002458, 0.02442971, -0.10771272, 100.33200836, 82.98865509, 31.26000023, 0.00000000
1, 22.6650, 2297, -0.02355957, -0.99438477, 0.29388428, -0.26851600, 0.59992242, -0.10937501, -47.90996552, 2.98158431, -97.10610962, 101.10093689, -8.27999306, 96.97091675, 0.37830725, -0.54482448, -0.54628885, -0.51148647, -0.12044956, 0.02332497, -0.10334729, 100.33200836, 82.98865509, 31.26000023, 0.00000000
1, 22.5900, 2566, 0.01428818, -0.99807465, -0.00096185, -0.34444699, -0.29379070, -0.24305393, -36.71440887, 12.65711784, -113.00788879, 89.27775574, 1.04628634, -109.26747131, 0.40659726, -0.41196758, 0.56919324, 0.58393544, 0.00396501, -0.00167914, -0.01323548, 100.42000580, 75.60753632, 32.09999847, 0.00000000
1, 22.6800, 2298, -0.02227783, -0.99328613, 0.28973389, -0.54851609, 1.36992264, 0.13562511, -47.29611206, 3.04004669, -97.19380188, 101.09283447, -8.28409958, 96.98695374, 0.37825242, -0.54473698, -0.54631245, -0.51159507, -0.12179369, 0.02221012, -0.09932672, 100.33200836, 82.98865509, 31.26000023, 0.00000000
1, 22.6850, 2299, -0.02185059, -0.99450684, 0.28594971, -0.51351613, 1.43992257, 0.17062512, -47.29611206, 3.04004669, -97.19380188, 101.08926392, -8.28631115, 96.99393463, 0.37822649, -0.54470032, -0.54632074, -0.51164436, -0.12225855, 0.02342481, -0.09560234, 100.33200836, 82.98865509, 31.26000023, 0.00000000
1, 22.5950, 2567, 0.01224566, -0.99979746, -0.00098924, -0.41400272, -0.43282533, -0.28053463, -36.71440887, 12.65711784, -113.00788879, 89.27562714, 1.04765940, -109.26965332, 0.40658683, -0.41195610, 0.56918526, 0.58395851, 0.00602993, 0.00004468, -0.01325132, 100.42000580, 75.60753632, 32.09999847, 0.00000000
1, 22.6900, 2300, -0.02166748, -0.99353027, 0.28411865, -0.79351616, 1.54492271, 0.20562513, -47.82227325, 2.80619693, -96.81379700, 101.08422852, -8.28880310, 97.00140381, 0.37820390, -0.54465759, -0.54632366, -0.51170337, -0.12248292, 0.02243826, -0.09385327, 100.33200836, 82.98865509, 31.26000023, 0.00000000
1, 22.6950, 2301, -0.01995850, -0.98901367, 0.28363037, -0.75851613, 1.33492267, 0.27562514, -47.82227325, 2.80619693, -96.81379700, 101.07951355, -8.29143715, 97.00775909, 0.37818402, -0.54462188, -0.54632223, -0.51175779, -0.12423737, 0.01791174, -0.09345017, 100.33200836, 82.98865509, 31.26000023, 0.00000000
1, 22.7000, 2302, -0.01849365, -0.98590088, 0.28051758, -0.65351611, 0.80992252, 0.34562516, -48.05612183, 2.77696586, -96.46302032, 101.07571411, -8.29391003, 97.01144409, 0.37817252, -0.54460120, -0.54631281, -0.51179832, -0.12574787, 0.01479260, -0.09040409, 100.33200836, 82.98865509, 31.26000023, 0.00000000
1, 22.6650, 2568, 0.02055321, -0.99283528, -0.00859352, -0.67581725, 0.64319766, -0.21650214, -36.18824768, 10.43554497, -112.97866058, 89.25372314, 1.05523360, -109.23056030, 0.40682673, -0.41211063, 0.56890547, 0.58395505, -0.00212470, -0.00689793, -0.00599104, 100.42000580, 75.60753632, 32.09999847, 0.00000000
1, 22.6700, 2569, 0.01959976, -0.99383998, -0.00769909, -0.70562315, 0.15639132, -0.26277813, -36.18824768, 10.43554497, -112.97866058, 89.25021362, 1.05654538, -109.22979736, 0.40683660, -0.41210848, 0.56888002, 0.58397436, -0.00115059, -0.00589346, -0.00695083, 100.42000580, 75.60753632, 32.09999847, 0.00000000
1, 22.6750, 2570, 0.01862243, -0.99371231, -0.00836154, -0.55897480, -0.19209839, -0.20284699, -36.27594376, 12.68634892, -113.15404510, 89.28050995, 1.05472815, -109.22680664, 0.40675205, -0.41222179, 0.56903028, 0.58380699, -0.00017731, -0.00602312, -0.00605389, 100.42000580, 75.60753632, 32.09999847, 0.00000000
1, 22.6800, 2571, 0.01509903, -0.99328649, -0.00743030, -0.55939209, -0.12581703, -0.06105308, -36.27594376, 12.68634892, -113.15404510, 89.27770233, 1.05502021, -109.22743988, 0.40675744, -0.41221014, 0.56901723, 0.58382422, 0.00332742, -0.00645382, -0.00675336, 100.42000580, 75.60753632, 32.09999847, 0.00000000
1, 22.7050, 2303, -0.01708984, -0.98706055, 0.28363037, -0.23351601, 0.63492244, 0.31062517, -48.05612183, 2.77696586, -96.46302032, 101.07413483, -8.29603958, 97.01428223, 0.37815601, -0.54459059, -0.54631072, -0.51182407, -0.12718964, 0.01595092, -0.09355289, 100.33200836, 82.98865509, 31.26000023, 0.00000000
1, 22.7100, 2304, -0.01623535, -0.98797607, 0.28344727, -0.30351603, 0.38992232, 0.27562514, -48.05612183, 2.77696586, -96.46302032, 101.07237244, -8.29776955, 97.01595306, 0.37814778, -0.54458344, -0.54630381, -0.51184517, -0.12807512, 0.01686424, -0.09340432, 100.33200836, 82.98865509, 31.26000023, 0.00000000
1, 22.7150, 2305, -0.01885986, -0.98852539, 0.28198242, 0.01148409, -0.06507784, 0.27562514, -48.34843445, 2.68927217, -97.36918640, 101.07251740, -8.29905605, 97.01536560, 0.37814289, -0.54459161, -0.54629642, -0.51184785, -0.12547696, 0.01741630, -0.09194560, 100.33200836, 82.98865509, 31.26000023, 0.00000000
1, 22.6850, 2572, 0.01736123, -0.99805665, -0.00528461, -0.62915784, -0.26318353, -0.16859572, -36.07132339, 12.33557415, -113.32943726, 89.27453613, 1.05584168, -109.22878265, 0.40675783, -0.41219634, 0.56900293, 0.58384758, 0.00107106, -0.00168637, -0.00895334, 100.42000580, 75.60753632, 32.09999847, 0.00000000
1, 22.6900, 2573, 0.01632867, -0.99858427, -0.00650658, -0.72715968, -1.02575767, -0.36078539, -36.07132339, 12.33557415, -113.32943726, 89.27080536, 1.05756509, -109.23393250, 0.40673631, -0.41216618, 0.56899613, 0.58389038, 0.00213039, -0.00115537, -0.00779821, 100.42000580, 75.60753632, 32.09999847, 0.00000000
1, 22.6950, 2574, 0.01510122, -0.99791265, -0.00715744, -0.83248830, -1.16344059, -0.46788290, -36.07132339, 12.33557415, -113.32943726, 89.26653290, 1.05980206, -109.23978424, 0.40671068, -0.41213328, 0.56898725, 0.58394021, 0.00340024, -0.00182431, -0.00722075, 100.42000580, 75.60753632, 32.09999847, 0.00000000
1, 22.7200, 2306, -0.02050781, -0.99237061, 0.28289795, 0.15148413, -0.45007798, 0.31062517, -48.34843445, 2.68927217, -97.36918640, 101.07363129, -8.30014801, 97.01283264, 0.37814310, -0.54461151, -0.54628491, -0.51183867, -0.12384724, 0.02126712, -0.09284639, 100.33200836, 82.98865509, 31.26000023, 0.00000000
1, 22.7250, 2307, -0.02484131, -0.99481201, 0.28198242, 0.29148418, -0.62507802, 0.38062519, -47.58842468, 2.39696002, -96.69686890, 101.07558441, -8.30141068, 97.00936890, 0.37814263, -0.54463935, -0.54627216, -0.51182324, -0.11953373, 0.02371750, -0.09190071, 100.33200836, 82.98865509, 31.26000023, 0.00000000
1, 22.7000, 2575, 0.01084435, -0.99782026, -0.00780978, -0.86888987, -1.12561226, -0.60672665, -36.65594864, 8.65244102, -113.27097321, 89.26207733, 1.06274998, -109.24546051, 0.40668291, -0.41210407, 0.56897426, 0.58399278, 0.00770549, -0.00191379, -0.00665654, 100.42000580, 75.60753632, 32.09999847, 0.00000000
1, 22.7600, 2308, -0.03314209, -0.99096680, 0.28833008, 0.74648434, -0.48507795, 0.38062519, -46.88687515, 3.21543407, -96.93071747, 101.09912872, -8.31268787, 96.98840332, 0.37806454, -0.54486001, -0.54623216, -0.51168865, -0.11142573, 0.01997650, -0.09786216, 100.33200836, 82.98865509, 31.26000023, 0.00000000
1, 22.7650, 2309, -0.03479004, -0.99206543, 0.29150391, 0.57148427, -0.38007793, 0.34562516, -47.47150040, 2.19234133, -96.52148438, 101.10229492, -8.31402206, 96.98618317, 0.37805232, -0.54488611, -0.54623038, -0.51167172, -0.10980253, 0.02108976, -0.10098019, 100.33200836, 82.98865509, 31.26000023, 0.00000000
1, 22.7200, 2576, -0.00169018, -0.99578822, -0.00687776, -0.77078438, -0.39534485, -0.52046484, -36.59748459, 12.94942951, -112.94943237, 89.24732971, 1.07343221, -109.26116180, 0.40660220, -0.41202757, 0.56891668, 0.58415920, 0.02042580, -0.00394055, -0.00787849, 100.42000580, 75.60753632, 32.09999847, 0.00000000
1, 22.7250, 2577, -0.00119932, -0.99511397, -0.00443618, -0.56107122, -0.08099928, -0.48058966, -36.59748459, 12.71557999, -113.03712463, 89.28907776, 0.99174362, -109.23587799, 0.40699196, -0.41189036, 0.56933582, 0.58357584, 0.01923841, -0.00463538, -0.00998287, 100.42000580, 75.60753632, 32.09999847, 0.00000000
1, 22.7700, 2310, -0.03479004, -0.99407959, 0.29528809, 0.43148422, 0.52992237, 0.38062519, -47.47150040, 2.19234133, -96.52148438, 101.10412598, -8.31639767, 96.98844147, 0.37802094, -0.54489046, -0.54623973, -0.51168031, -0.10983920, 0.02311677, -0.10472678, 100.33200836, 82.98865509, 31.26000023, 0.00000000
1, 22.7750, 2311, -0.03192139, -0.99432373, 0.29449463, 0.08148412, 0.87992257, 0.34562516, -48.61151505, 2.83542824, -96.69686890, 101.10395050, -8.31894207, 96.99246216, 0.37799034, -0.54488039, -0.54624778, -0.51170498, -0.11275030, 0.02336836, -0.10392756, 100.33200836, 82.98865509, 31.26000023, 0.00000000
1, 22.7800, 2312, -0.03039551, -0.99066162, 0.29241943, 0.15148413, 1.01992249, 0.45062518, -48.61151505, 2.83542824, -96.69686890, 101.10404205, -8.32213688, 96.99708557, 0.37795240, -0.54487091, -0.54625732, -0.51173311, -0.11432931, 0.01971364, -0.10185496, 100.33200836, 82.98865509, 31.26000023, 0.00000000
1, 22.7300, 2578, 0.00156903, -0.99764359, -0.00419167, -0.63774496, 0.37171620, -0.50387514, -36.59748459, 12.71557999, -113.03712463, 89.28592682, 0.99427140, -109.23405457, 0.40699983, -0.41190088, 0.56930399, 0.58359390, 0.01577866, -0.00212317, -0.00988645, 100.42000580, 75.60753632, 32.09999847, 0.00000000
1, 22.7350, 2579, 0.00392677, -0.99676931, -0.00412139, -0.77937025, 0.27102742, -0.71478540, -36.53902435, 12.77404213, -113.27097321, 89.28204346, 0.99785942, -109.23274994, 0.40700242, -0.41191167, 0.56926650, 0.58362114, 0.01347866, -0.00299558, -0.01001563, 100.42000580, 75.60753632, 32.09999847, 0.00000000
1, 22.7400, 2580, 0.00705231, -0.99874818, -0.00386715, -0.70698857, 0.16723432, -0.71818078, -36.53902435, 12.77404213, -113.27097321, 89.27850342, 1.00145614, -109.23196411, 0.40700093, -0.41192102, 0.56923258, 0.58364850, 0.01041521, -0.00101529, -0.01032847, 100.42000580, 75.60753632, 32.09999847, 0.00000000
1, 22.7850, 2313, -0.02758789, -0.99090576, 0.28540039, 0.25648415, 1.12492251, 0.34562516, -48.61151505, 2.83542824, -96.69686890, 101.10456085, -8.32491207, 97.00232697, 0.37791175, -0.54485822, -0.54627335, -0.51175940, -0.11718667, 0.01996541, -0.09483454, 100.33200836, 82.98865509, 31.26000023, 0.00000000
1, 22.7900, 2314, -0.02667236, -0.99090576, 0.28247070, 0.25648415, 1.29992259, 0.34562516, -48.08535385, 3.04004669, -96.66764069, 101.10496521, -8.32786083, 97.00843048, 0.37786701, -0.54484171, -0.54629230, -0.51178992, -0.11815429, 0.01997435, -0.09189937, 100.33200836, 82.98865509, 31.26000023, 0.00000000
1, 22.7950, 2315, -0.02447510, -0.99243164, 0.28198242, 0.32648420, 1.29992270, 0.27562514, -48.08535385, 3.04004669, -96.66764069, 101.10569000, -8.33045483, 97.01461029, 0.37782207, -0.54482448, -0.54631448, -0.51181751, -0.12039730, 0.02150959, -0.09139796, 100.33200836, 82.98865509, 31.26000023, 0.00000000
1, 22.8000, 2316, -0.02429199, -0.99438477, 0.28778076, 0.08148412, 1.36992264, 0.13562511, -48.14381790, 3.30312777, -96.63841248, 101.10513306, -8.33244038, 97.02127075, 0.37778449, -0.54479849, -0.54633564, -0.51185042, -0.12061730, 0.02346769, -0.09719910, 100.33200836, 82.98865509, 31.26000023, 0.00000000
1, 22.8050, 2317, -0.02325439, -0.99249268, 0.28906250, -0.05851592, 1.29992270, 0.13562511, -48.14381790, 3.30312777, -96.63841248, 101.10391998, -8.33436203, 97.02758789, 0.37775189, -0.54477179, -0.54635257, -0.51188499, -0.12168571, 0.02157593, -0.09850270, 100.33200836, 82.98865509, 31.26000023, 0.00000000
1, 22.7450, 2581, 0.01055448, -0.99661601, -0.00256081, -0.71421176, 0.75981861, -0.73901647, -36.53902435, 12.77404213, -112.83250427, 89.27499390, 1.00519264, -109.22822571, 0.40701389, -0.41194600, 0.56918764, 0.58366579, 0.00697520, -0.00314768, -0.01168397, 100.42000580, 75.60753632, 32.09999847, 0.00000000
1, 22.7500, 2582, 0.01267554, -0.99611461, -0.00225414, -0.67917114, 0.82725072, -0.63269866, -36.68518066, 12.92019844, -112.83250427, 89.27165985, 1.00839996, -109.22413635, 0.40703055, -0.41197062, 0.56914431, 0.58367908, 0.00491090, -0.00364765, -0.01204410, 100.42000580, 75.60753632, 32.09999847, 0.00000000
1, 22.7550, 2583, 0.01284320, -0.99860156, 0.00006516, -0.74778450, 0.61776423, -0.63681841, -36.68518066, 12.92019844, -112.83250427, 89.26798248, 1.01162255, -109.22108459, 0.40704310, -0.41198885, 0.56910288, 0.58369786, 0.00479367, -0.00116283, -0.01442833, 100.42000580, 75.60753632, 32.09999847, 0.00000000
1, 22.8300, 2318, -0.02612305, -0.99078369, 0.28588867, -0.19851595, 0.84492248, 0.27562514, -46.97456741, 2.28003502, -96.49225616, 101.09803009, -8.34716892, 97.05095673, 0.37760758, -0.54468989, -0.54638571, -0.51204324, -0.11903854, 0.01987946, -0.09543330, 100.33200836, 82.98865509, 31.26000023, 0.00000000
1, 22.8350, 2319, -0.02410889, -0.99346924, 0.28649902, 0.08148410, 0.63492244, 0.38062519, -46.97456741, 2.28003502, -96.90148926, 101.09803772, -8.34964657, 97.05373383, 0.37758201, -0.54468608, -0.54638892, -0.51206267, -0.12109310, 0.02256972, -0.09605120, 100.33200836, 82.98865509, 31.26000023, 0.00000000
1, 22.7600, 2584, 0.01069332, -0.99777770, -0.00221979, -0.60103261, 0.23696798, -0.68281525, -36.27594376, 12.71557999, -113.21250916, 89.26499176, 1.01504517, -109.21996307, 0.40704238, -0.41200104, 0.56907111, 0.58372068, 0.00700741, -0.00198123, -0.01220115, 100.42000580, 75.60753632, 32.09999847, 0.00000000
1, 22.7650, 2585, 0.01041265, -0.99659109, -0.00608312, -0.71306062, 0.65622616, -0.77655250, -36.27594376, 12.71557999, -113.21250916, 89.26147461, 1.01896453, -109.21672821, 0.40705180, -0.41202435, 0.56902730, 0.58374041, 0.00736469, -0.00315967, -0.00839490, 100.42000580, 75.60753632, 32.09999847, 0.00000000
1, 22.8400, 2320, -0.02661133, -0.99560547, 0.28369141, 0.08148410, 0.59992248, 0.27562514, -47.32534409, 3.44928384, -96.90148926, 101.09805298, -8.35157299, 97.05643463, 0.37755966, -0.54468060, -0.54639405, -0.51207948, -0.11862716, 0.02471120, -0.09324454, 100.33200836, 82.98865509, 31.26000023, 0.00000000
1, 22.8450, 2321, -0.02636719, -0.99536133, 0.28076172, 0.11648411, 0.91492254, 0.24062514, -47.32534409, 3.44928384, -96.90148926, 101.09799957, -8.35363483, 97.06073761, 0.37752971, -0.54466778, -0.54640597, -0.51210243, -0.11890808, 0.02447245, -0.09031530, 100.33200836, 82.98865509, 31.26000023, 0.00000000
1, 22.8500, 2322, -0.02606201, -0.99334717, 0.28253174, 0.11648411, 1.29992270, 0.10062511, -47.32534409, 2.71850324, -97.07687378, 101.09765625, -8.35538292, 97.06709290, 0.37749371, -0.54464298, -0.54642755, -0.51213223, -0.11924347, 0.02246162, -0.09209094, 100.33200836, 82.98865509, 31.26000023, 0.00000000
1, 22.8550, 2323, -0.02819824, -0.99542236, 0.28387451, 0.18648414, 1.08992255, 0.03062505, -47.32534409, 2.71850324, -97.07687378, 101.09780121, -8.35657883, 97.07245636, 0.37746263, -0.54462248, -0.54644895, -0.51215416, -0.11713086, 0.02454028, -0.09343433, 100.33200836, 82.98865509, 31.26000023, 0.00000000
1, 22.8600, 2324, -0.02813721, -0.99316406, 0.28271484, 0.04648410, 1.01992249, -0.00437495, -47.96842957, 2.83542824, -96.69686890, 101.09729767, -8.35754490, 97.07752228, 0.37743729, -0.54460037, -0.54646683, -0.51217723, -0.11721063, 0.02228296, -0.09228409, 100.33200836, 82.98865509, 31.26000023, 0.00000000
1, 22.8650, 2325, -0.02844238, -0.99041748, 0.28338623, 0.15148413, 0.94992244, -0.00437498, -47.96842957, 2.83542824, -96.69686890, 101.09737396, -8.35842991, 97.08222198, 0.37741125, -0.54458159, -0.54648602, -0.51219612, -0.11691899, 0.01953829, -0.09295604, 100.33200836, 82.98865509, 31.26000023, 0.00000000
1, 22.8700, 2326, -0.02832031, -0.98992920, 0.28900146, 0.22148417, 1.08992255, -0.10937497, -47.96842957, 2.83542824, -96.69686890, 101.09768677, -8.35894394, 97.08773041, 0.37738240, -0.54455829, -0.54651147, -0.51221484, -0.11705375, 0.01905298, -0.09856571, 100.33200836, 82.98865509, 31.26000023, 0.00000000
1, 22.8750, 2327, -0.02618408, -0.99200439, 0.28961182, 0.29148418, 1.26492262, -0.14437501, -46.68225479, 2.42619109, -96.46302032, 101.09821320, -8.35945129, 97.09414673, 0.37734854, -0.54453135, -0.54654229, -0.51223558, -0.11919638, 0.02113038, -0.09916971, 100.33200836, 82.98865509, 31.26000023, 0.00000000
1, 22.8100, 2586, 0.01530647, -0.99806297, -0.00345557, -0.31202805, -0.11108907, -0.58963370, -36.50979233, 12.04326248, -113.00788879, 89.26776886, 1.02305293, -109.18862915, 0.40715167, -0.41220677, 0.56894344, 0.58362365, 0.00254144, -0.00169188, -0.01091346, 100.42000580, 75.60753632, 32.09999847, 0.00000000
1, 22.8150, 2587, 0.01427260, -0.99749351, -0.00234746, -0.45490655, -0.04440631, -0.51612109, -36.50979233, 12.04326248, -113.00788879, 89.26548767, 1.02562845, -109.18888855, 0.40714565, -0.41221035, 0.56892335, 0.58364493, 0.00361760, -0.00226199, -0.01205697, 100.42000580, 75.60753632, 32.09999847, 0.00000000
1, 22.9050, 2328, -0.02191162, -0.99359131, 0.29089355, 0.18648414, 1.43992257, -0.03937499, -47.41303635, 2.30926633, -96.46302032, 101.10208893, -8.36652660, 97.13598633, 0.37710556, -0.54437160, -0.54672986, -0.51238418, -0.12358724, 0.02274791, -0.10038566, 100.33200836, 82.98865509, 31.26000023, 0.00000000
1, 22.9100, 2329, -0.02264404, -0.99029541, 0.28955078, 0.32648420, 1.36992264, -0.00437495, -48.14381790, 2.25080395, -96.19994354, 101.10272980, -8.36782169, 97.14278412, 0.37706524, -0.54434621, -0.54675984, -0.51240885, -0.12287629, 0.01945687, -0.09903457, 100.33200836, 82.98865509, 31.26000023, 0.00000000
1, 22.8200, 2588, 0.01312737, -0.99748397, -0.00076409, -0.66430759, -0.42419916, -0.73282111, -36.36363602, 12.07249355, -112.68634796, 89.26210785, 1.02925253, -109.19105530, 0.40712851, -0.41220579, 0.56890070, 0.58368206, 0.00481591, -0.00227222, -0.01370028, 100.42000580, 75.60753632, 32.09999847, 0.00000000
1, 22.8250, 2589, 0.01211441, -0.99519885, -0.00265938, -0.62937206, -0.35593298, -0.66153431, -36.36363602, 12.07249355, -112.68634796, 89.28517914, 1.01762748, -109.18740845, 0.40712255, -0.41224739, 0.56904739, 0.58351380, 0.00576369, -0.00455764, -0.01163185, 100.42000580, 75.60753632, 32.09999847, 0.00000000
1, 22.8300, 2590, 0.00792579, -0.99622834, -0.00460983, -0.52498746, -0.17927057, -0.72875661, -36.36363602, 12.07249355, -112.68634796, 89.28254700, 1.02123427, -109.18836212, 0.40710902, -0.41225147, 0.56902438, 0.58354294, 0.00988723, -0.00352847, -0.00951212, 100.42000580, 75.60753632, 32.09999847, 0.00000000
1, 22.9150, 2330, -0.02459717, -0.99102783, 0.28656006, 0.57148427, 1.12492251, 0.06562509, -48.14381790, 2.25080395, -96.19994354, 101.10477448, -8.36923218, 97.14830017, 0.37702334, -0.54433203, -0.54678953, -0.51242304, -0.12094861, 0.02019820, -0.09601811, 100.33200836, 82.98865509, 31.26000023, 0.00000000
1, 22.9200, 2331, -0.02612305, -0.99139404, 0.28649902, 0.67648429, 1.08992255, 0.03062505, -48.14381790, 2.25080395, -96.19994354, 101.10737610, -8.37043381, 97.15367889, 0.37698057, -0.54431951, -0.54682183, -0.51243329, -0.11944322, 0.02057606, -0.09591337, 100.33200836, 82.98865509, 31.26000023, 0.00000000
1, 22.9250, 2332, -0.02532959, -0.99163818, 0.28845215, 0.36148420, 1.29992270, 0.06562506, -48.34843445, 3.01081562, -96.14147949, 101.10825348, -8.37200260, 97.16005707, 0.37693954, -0.54429793, -0.54684973, -0.51245660, -0.12026469, 0.02082869, -0.09784451, 100.33200836, 82.98865509, 31.26000023, 0.00000000
1, 22.8350, 2591, 0.00689148, -0.99559975, -0.00343980, -0.70834976, 0.27249482, -0.75070667, -36.50979233, 12.74481106, -113.09558105, 89.27899933, 1.02500176, -109.18704224, 0.40710956, -0.41226435, 0.56898779, 0.58356905, 0.01098445, -0.00415731, -0.01073910, 100.42000580, 75.60753632, 32.09999847, 0.00000000
1, 22.8400, 2592, 0.00520446, -0.99596071, -0.00186198, -0.74244767, 0.13461103, -0.82366347, -36.50979233, 12.74481106, -113.09558105, 89.27529907, 1.02911401, -109.18643188, 0.40710533, -0.41227493, 0.56895179, 0.58359975, 0.01273938, -0.00379687, -0.01238801, 100.42000580, 75.60753632, 32.09999847, 0.00000000
1, 22.8450, 2593, 0.00715682, -0.99793017, -0.00494473, -0.88951480, 0.51790959, -0.88275963, -35.74977875, 12.18941784, -112.80327606, 89.27087402, 1.03355789, -109.18390656, 0.40711170, -0.41229409, 0.56890398, 0.58362824, 0.01086924, -0.00181986, -0.00937604, 100.42000580, 75.60753632, 32.09999847, 0.00000000
1, 22.9300, 2333, -0.02722168, -0.99176025, 0.29150391, 0.15148413, 1.12492251, -0.03937499, -48.34843445, 3.01081562, -96.14147949, 101.10819244, -8.37289143, 97.16567230, 0.37691003, -0.54427433, -0.54687256, -0.51247907, -0.11839025, 0.02095387, -0.10089398, 100.33200836, 82.98865509, 31.26000023, 0.00000000
1, 22.9350, 2334, -0.02551270, -0.98931885, 0.29199219, 0.11648413, 1.08992255, 0.13562511, -47.90996552, 2.13387895, -96.34609985, 101.10800934, -8.37460327, 97.17094421, 0.37687817, -0.54425508, -0.54688984, -0.51250434, -0.12012612, 0.01851601, -0.10138498, 100.33200836, 82.98865509, 31.26000023, 0.00000000
1, 22.9400, 2335, -0.02172852, -0.98736572, 0.29113770, 0.22148415, 1.12492251, 0.13562511, -47.90996552, 2.13387895, -96.34609985, 101.10831451, -8.37635231, 97.17638397, 0.37684312, -0.54423684, -0.54691011, -0.51252806, -0.12393874, 0.01656738, -0.10052883, 100.33200836, 82.98865509, 31.26000023, 0.00000000
1, 22.9450, 2336, -0.02429199, -0.99090576, 0.28704834, 0.15148413, 1.12492275, 0.03062505, -47.90996552, 2.13387895, -96.34609985, 101.10827637, -8.37758350, 97.18193817, 0.37681195, -0.54421484, -0.54693127, -0.51255161, -0.12139893, 0.02011135, -0.09643747, 100.33200836, 82.98865509, 31.26000023, 0.00000000
1, 22.8500, 2594, 0.00805879, -0.99736631, -0.00524027, -0.82205254, 0.83098835, -0.84110385, -35.74977875, 12.18941784, -112.80327606, 89.26683807, 1.03781724, -109.17980194, 0.40712571, -0.41232151, 0.56885314, 0.58364868, 0.01004379, -0.00238112, -0.00915103, 100.42000580, 75.60753632, 32.09999847, 0.00000000
1, 22.8550, 2595, 0.01090302, -1.00041711, -0.00354842, -0.71683043, 0.93803310, -0.90999627, -35.74977875, 12.18941784, -112.80327606, 89.26331329, 1.04242504, -109.17517853, 0.40713876, -0.41235512, 0.56880176, 0.58366585, 0.00727272, 0.00066901, -0.01090360, 100.42000580, 75.60753632, 32.09999847, 0.00000000
1, 22.9500, 2337, -0.02246094, -0.99169922, 0.28533936, 0.01148409, 1.08992255, 0.13562511, -47.96842957, 2.77696586, -96.87226105, 101.10755920, -8.37930202, 97.18721008, 0.37678266, -0.54419392, -0.54694617, -0.51257944, -0.12325577, 0.02090663, -0.09473891, 100.33200836, 82.98865509, 31.26000023, 0.00000000
1, 22.8850, 2596, 0.01256834, -0.99801338, -0.00417452, -0.50010264, 0.69293511, -0.77838838, -36.15901566, 11.57556248, -112.89096832, 89.26342773, 1.05411160, -109.14968872, 0.40720943, -0.41254079, 0.56866801, 0.58361578, 0.00581736, -0.00172970, -0.01027225, 100.42000580, 75.60753632, 32.09999847, 0.00000000
1, 22.8900, 2597, 0.01398211, -0.99818289, -0.00163120, -0.71525919, 0.83110440, -0.80740839, -36.15901566, 11.57556248, -112.89096832, 89.25991058, 1.05820191, -109.14560699, 0.40722233, -0.41256920, 0.56862050, 0.58363301, 0.00446873, -0.00156242, -0.01286740, 100.42000580, 75.60753632, 32.09999847, 0.00000000
1, 22.9650, 2338, -0.02343750, -0.99261475, 0.28649902, -0.23351601, 1.01992249, 0.34562516, -48.11458588, 3.30312777, -96.81379700, 101.10232544, -8.38591957, 97.20147705, 0.37670860, -0.54413396, -0.54696387, -0.51267874, -0.12238878, 0.02182129, -0.09598731, 100.33200836, 82.98865509, 31.26000023, 0.00000000
1, 22.9700, 2339, -0.02276611, -0.99304199, 0.28344727, -0.40851605, 1.29992270, 0.31062517, -48.11458588, 3.30312777, -96.81379700, 101.09938049, -8.38868999, 97.20761871, 0.37668034, -0.54410553, -0.54696870, -0.51272446, -0.12310890, 0.02224583, -0.09298633, 100.33200836, 82.98865509, 31.26000023, 0.00000000
1, 22.9750, 2340, -0.02227783, -0.99188232, 0.28424072, -0.33851606, 1.22992265, 0.17062512, -48.34843445, 3.09850907, -97.13533783, 101.09681702, -8.39070702, 97.21354675, 0.37665525, -0.54407650, -0.54697728, -0.51276451, -0.12363493, 0.02108318, -0.09382411, 100.33200836, 82.98865509, 31.26000023, 0.00000000
1, 22.8950, 2598, 0.01443070, -0.99647307, -0.00421091, -0.96252388, 0.68965220, -0.80763233, -36.30517197, 13.12481689, -113.53404999, 89.25515747, 1.06227160, -109.14221191, 0.40723628, -0.41258961, 0.56856924, 0.58365881, 0.00409769, -0.00326564, -0.01036362, 100.42000580, 75.60753632, 32.09999847, 0.00000000
1, 22.9000, 2599, 0.01336870, -0.99394941, -0.00348922, -0.81734031, 0.47872964, -0.67429918, -36.30517197, 13.12481689, -113.53404999, 89.25110626, 1.06566703, -109.13987732, 0.40724564, -0.41260380, 0.56852776, 0.58368248, 0.00522016, -0.00578821, -0.01115757, 100.42000580, 75.60753632, 32.09999847, 0.00000000
1, 22.9050, 2600, 0.01285470, -0.99228764, -0.00454805, -0.67603153, 0.55044818, -0.70944077, -36.30517197, 13.12481689, -113.53404999, 89.24776459, 1.06925011, -109.13716125, 0.40725353, -0.41262341, 0.56848788, 0.58370203, 0.00579766, -0.00744630, -0.01016029, 100.42000580, 75.60753632, 32.09999847, 0.00000000
1, 22.9800, 2341, -0.01989746, -0.99340820, 0.28887939, -0.26851600, 1.01992261, 0.20562513, -48.34843445, 3.09850907, -97.13533783, 101.09477234, -8.39269066, 97.21840668, 0.37663272, -0.54405415, -0.54698318, -0.51279849, -0.12605014, 0.02260664, -0.09850159, 100.33200836, 82.98865509, 31.26000023, 0.00000000
1, 22.9850, 2342, -0.02197266, -0.99578857, 0.28497314, -0.26851603, 0.38992235, 0.24062514, -47.76381302, 3.04004669, -96.84302521, 101.09317780, -8.39424419, 97.22010803, 0.37662444, -0.54404676, -0.54697794, -0.51281816, -0.12400411, 0.02498594, -0.09462339, 100.33200836, 82.98865509, 31.26000023, 0.00000000
1, 22.9900, 2343, -0.02227783, -0.99243164, 0.28167725, -0.23351601, 0.17992227, 0.20562513, -47.76381302, 3.04004669, -96.84302521, 101.09191132, -8.39542198, 97.22080994, 0.37662104, -0.54404372, -0.54697078, -0.51283133, -0.12372276, 0.02162790, -0.09135149, 100.33200836, 82.98865509, 31.26000023, 0.00000000
1, 22.9950, 2344, -0.02014160, -0.99176025, 0.28686523, 0.11648413, -0.06507783, 0.13562511, -47.76381302, 3.04004669, -96.84302521, 101.09256744, -8.39602280, 97.22035217, 0.37661678, -0.54405034, -0.54696912, -0.51282918, -0.12587027, 0.02095819, -0.09653973, 100.33200836, 82.98865509, 31.26000023, 0.00000000
1, 23.0000, 2345, -0.02276611, -0.99462891, 0.29113770, 0.01148409, 0.03992219, 0.03062505, -47.90996552, 3.04004669, -96.72610474, 101.09259796, -8.39621544, 97.22052002, 0.37661484, -0.54405040, -0.54696929, -0.51283038, -0.12325174, 0.02382893, -0.10080559, 100.33200836, 82.98865509, 31.26000023, 0.00000000
1, 22.9100, 2601, 0.01291684, -0.99315464, -0.00632706, -0.81755030, 0.48039779, -0.74436110, -36.18824768, 12.74481106, -113.15404510, 89.24371338, 1.07299352, -109.13481903, 0.40726119, -0.41263944, 0.56844521, 0.58372694, 0.00580381, -0.00657436, -0.00844704, 100.42000580, 75.60753632, 32.09999847, 0.00000000
1, 22.9150, 2602, 0.01266741, -0.99318802, -0.00754182, -0.84955472, 0.16846979, -0.82149303, -36.18824768, 12.74481106, -113.15404510, 89.23946381, 1.07709575, -109.13403320, 0.40725985, -0.41264886, 0.56840575, 0.58375955, 0.00612789, -0.00653671, -0.00730848, 100.42000580, 75.60753632, 32.09999847, 0.00000000
1, 22.9200, 2603, 0.01455081, -0.99374533, -0.00877400, -0.74537867, 0.37827280, -0.81781840, -35.92516708, 12.36480522, -113.06635284, 89.23577881, 1.08120656, -109.13220978, 0.40726182, -0.41266549, 0.56836540, 0.58378583, 0.00431770, -0.00597523, -0.00613872, 100.42000580, 75.60753632, 32.09999847, 0.00000000
1, 22.9250, 2604, 0.01518101, -0.99314344, -0.00335774, -0.39320418, 0.69221699, -0.70966196, -35.92516708, 12.36480522, -113.06635284, 89.25938416, 1.07674551, -109.12545013, 0.40723366, -0.41276050, 0.56847757, 0.58362907, 0.00366940, -0.00658843, -0.01137096, 100.42000580, 75.60753632, 32.09999847, 0.00000000
1, 22.9300, 2605, 0.01448599, -0.99587560, -0.00377403, -0.71096563, 0.51365453, -0.63976866, -35.92516708, 12.36480522, -113.06635284, 89.25585938, 1.07996166, -109.12291718, 0.40724304, -0.41277668, 0.56843877, 0.58364880, 0.00435150, -0.00385803, -0.01079179, 100.42000580, 75.60753632, 32.09999847, 0.00000000
1, 23.0600, 2346, -0.02416992, -0.99102783, 0.28790283, -0.12851594, 0.77492249, 0.27562514, -48.37766647, 3.62467122, -96.52148438, 101.08654022, -8.40682888, 97.25458527, 0.37643477, -0.54390848, -0.54706120, -0.51301515, -0.12201911, 0.02023363, -0.09767310, 100.33200836, 82.98865509, 31.26000023, 0.00000000
1, 23.0650, 2347, -0.02471924, -0.99127197, 0.28796387, -0.02351592, 0.63492244, 0.34562516, -48.37766647, 3.62467122, -96.52148438, 101.08600616, -8.40912819, 97.25740814, 0.37641245, -0.54390204, -0.54706287, -0.51303643, -0.12151331, 0.02048134, -0.09774940, 100.33200836, 82.98865509, 31.26000023, 0.00000000
1, 22.9700, 2606, 0.01671553, -0.99884510, -0.00317198, -0.59694904, -0.07881373, -0.58523744, -36.33440399, 10.49400711, -112.94943237, 89.23502350, 1.10364616, -109.10566711, 0.40728688, -0.41290724, 0.56818408, 0.58377385, 0.00253802, -0.00087665, -0.01176109, 100.42000580, 75.60753632, 32.09999847, 0.00000000
1, 22.9750, 2607, 0.01526100, -0.99927545, -0.00360093, -0.66974938, 0.05978821, -0.58100712, -36.33440399, 10.49400711, -112.94943237, 89.25777435, 1.09446979, -109.10092163, 0.40727526, -0.41296554, 0.56831634, 0.58361202, 0.00393753, -0.00044916, -0.01116277, 100.42000580, 75.60753632, 32.09999847, 0.00000000
1, 22.9800, 2608, 0.01414168, -0.99808800, -0.00539611, -0.88522118, 0.20045969, -0.71511996, -36.33440399, 10.49400711, -112.94943237, 89.25334930, 1.09804952, -109.09996796, 0.40727800, -0.41297251, 0.56827730, 0.58364308, 0.00501540, -0.00163651, -0.00921476, 100.42000580, 75.60753632, 32.09999847, 0.00000000
1, 22.9850, 2609, 0.01277929, -0.99807203, 0.00074406, -0.70813972, 0.27082667, -0.68064475, -36.42210007, 12.51096153, -112.48172760, 89.24980927, 1.10147214, -109.09865570, 0.40728024, -0.41298363, 0.56824207, 0.58366799, 0.00642359, -0.00166042, -0.01542448, 100.42000580, 75.60753632, 32.09999847, 0.00000000
1, 22.9900, 2610, 0.01280405, -0.99903572, 0.00285102, -0.74411970, 0.33679140, -0.53840566, -36.42210007, 12.51096153, -112.48172760, 89.24612427, 1.10416865, -109.09701538, 0.40728834, -0.41299224, 0.56820756, 0.58368993, 0.00644237, -0.00069859, -0.01759273, 100.42000580, 75.60753632, 32.09999847, 0.00000000
1, 23.0700, 2348, -0.02355957, -0.99096680, 0.28778076, 0.01148409, 0.38992232, 0.27562514, -48.37766647, 3.62467122, -96.52148438, 101.08582306, -8.41085529, 97.25906372, 0.37639672, -0.54390007, -0.54706299, -0.51304996, -0.12270189, 0.02017960, -0.09757077, 100.33200836, 82.98865509, 31.26000023, 0.00000000
1, 23.0750, 2349, -0.02423096, -0.99151611, 0.28900146, -0.05851592, 0.49492234, 0.31062517, -47.88073730, 3.44928384, -96.19994354, 101.08521271, -8.41285419, 97.26122284, 0.37637937, -0.54389548, -0.54706252, -0.51306826, -0.12206472, 0.02073223, -0.09880109, 100.33200836, 82.98865509, 31.26000023, 0.00000000
1, 23.0800, 2350, -0.02478027, -0.99389648, 0.28692627, 0.15148412, 0.35492232, 0.41562518, -47.88073730, 3.44928384, -96.19994354, 101.08576202, -8.41524029, 97.26258087, 0.37635797, -0.54389989, -0.54706174, -0.51307988, -0.12155568, 0.02311957, -0.09672111, 100.33200836, 82.98865509, 31.26000023, 0.00000000
1, 22.9950, 2611, 0.01195042, -0.99705696, -0.00378906, -0.99274695, 0.26912725, -0.71211445, -35.98363113, 11.10786343, -112.92019653, 89.24118042, 1.10774171, -109.09572601, 0.40729475, -0.41299897, 0.56816465, 0.58372235, 0.00737178, -0.00266430, -0.01103322, 100.42000580, 75.60753632, 32.09999847, 0.00000000
1, 23.0000, 2612, 0.01369788, -0.99675179, -0.00555042, -0.99002463, 0.05860615, -0.64706254, -35.98363113, 11.10786343, -112.92019653, 89.23623657, 1.11095738, -109.09547424, 0.40729770, -0.41299886, 0.56812686, 0.58375728, 0.00568646, -0.00296423, -0.00935495, 100.42000580, 75.60753632, 32.09999847, 0.00000000
1, 23.0050, 2613, 0.01258180, -0.99523282, -0.00600263, -0.81545532, 0.33782616, -0.60757732, -35.98363113, 11.10786343, -112.92019653, 89.23218536, 1.11401284, -109.09383392, 0.40730530, -0.41300792, 0.56808913, 0.58378226, 0.00685845, -0.00448042, -0.00897841, 100.42000580, 75.60753632, 32.09999847, 0.00000000
1, 23.0850, 2351, -0.02392578, -0.99365234, 0.28344727, 0.04648410, 0.38992232, 0.48562524, -47.88073730, 3.06927800, -96.11224365, 101.08578491, -8.41799641, 97.26403809, 0.37633678, -0.54390359, -0.54705769, -0.51309603, -0.12245630, 0.02288270, -0.09324019, 100.33200836, 82.98865509, 31.26000023, 0.00000000
1, 23.0900, 2352, -0.02478027, -0.99468994, 0.27960205, 0.25648415, 0.10992221, 0.45062518, -47.88073730, 3.06927800, -96.11224365, 101.08704376, -8.42031097, 97.26413727, 0.37631801, -0.54391611, -0.54705453, -0.51309991, -0.12164444, 0.02392918, -0.08938298, 100.33200836, 82.98865509, 31.26000023, 0.00000000
1, 23.0950, 2353, -0.02532959, -0.99658203, 0.28192139, 0.22148415, 0.10992221, 0.45062518, -47.88073730, 3.06927800, -96.05378723, 101.08813477, -8.42262363, 97.26425171, 0.37630004, -0.54392797, -0.54705060, -0.51310462, -0.12113624, 0.02583173, -0.09168029, 100.33200836, 82.98865509, 31.26000023, 0.00000000
1, 23.1000, 2354, -0.02478027, -0.99890137, 0.28466797, 0.36148420, -0.17007785, 0.48562524, -46.44840622, 1.75387311, -96.05378723, 101.09013367, -8.42484093, 97.26293945, 0.37628466, -0.54394931, -0.54704440, -0.51309997, -0.12172206, 0.02816195, -0.09439951, 100.33200836, 82.98865509, 31.26000023, 0.00000000
1, 23.1050, 2355, -0.02374268, -0.99597168, 0.28692627, -0.16351599, -0.20507787, 0.52062529, -46.44840622, 1.75387311, -96.05378723, 101.08953857, -8.42719841, 97.26141357, 0.37628177, -0.54396361, -0.54702502, -0.51310754, -0.12280035, 0.02523891, -0.09665565, 100.33200836, 82.98865509, 31.26000023, 0.00000000
1, 23.1300, 2356, -0.02783203, -0.99060059, 0.29431152, -0.12851597, -0.17007786, 0.27562514, -48.14381790, 3.21543407, -96.08301544, 101.09188080, -8.43674850, 97.25695801, 0.37623987, -0.54402912, -0.54697585, -0.51312113, -0.11888053, 0.01989895, -0.10401199, 100.33200836, 82.98865509, 31.26000023, 0.00000000
1, 23.1350, 2357, -0.02966309, -0.99011230, 0.29449463, -0.09351593, -0.31007791, 0.24062514, -47.99766159, 1.54925454, -96.14147949, 101.09168243, -8.43763256, 97.25518036, 0.37624407, -0.54404032, -0.54696298, -0.51311994, -0.11706601, 0.01941338, -0.10419434, 100.33200836, 82.98865509, 31.26000023, 0.00000000
1, 23.0100, 2614, 0.01215633, -0.99494863, -0.00538814, -0.92507470, 0.58053797, -0.60039675, -36.45132828, 12.59865570, -112.65711975, 89.22759247, 1.11704588, -109.09097290, 0.40732118, -0.41302106, 0.56804436, 0.58380544, 0.00733385, -0.00476355, -0.00967026, 100.42000580, 75.60753632, 32.09999847, 0.00000000
1, 23.0150, 2615, 0.00971722, -0.99435973, -0.00567217, -0.95603168, 0.19732408, -0.60913676, -36.45132828, 12.59865570, -112.65711975, 89.22282410, 1.12009799, -109.09003448, 0.40732780, -0.41302407, 0.56800550, 0.58383644, 0.00982832, -0.00534978, -0.00947447, 100.42000580, 75.60753632, 32.09999847, 0.00000000
1, 23.1400, 2358, -0.03063965, -0.99096680, 0.29296875, -0.12851594, -0.03007782, 0.20562513, -47.99766159, 1.54925454, -96.14147949, 101.09109497, -8.43861294, 97.25482178, 0.37624323, -0.54404384, -0.54695475, -0.51312566, -0.11610549, 0.02026782, -0.10268115, 100.33200836, 82.98865509, 31.26000023, 0.00000000
1, 23.1450, 2359, -0.02923584, -0.98864746, 0.29156494, -0.16351594, 0.00492218, 0.34562516, -48.08535385, 2.51388478, -96.02455139, 101.09032440, -8.44031429, 97.25450897, 0.37623924, -0.54404926, -0.54694295, -0.51313531, -0.11753538, 0.01795030, -0.10128801, 100.33200836, 82.98865509, 31.26000023, 0.00000000
1, 23.1500, 2360, -0.02795410, -0.98785400, 0.28454590, -0.12851594, 0.28492227, 0.34562516, -48.08535385, 2.51388478, -96.02455139, 101.08953094, -8.44227982, 97.25559235, 0.37622774, -0.54404902, -0.54693657, -0.51315081, -0.11884992, 0.01715860, -0.09428555, 100.33200836, 82.98865509, 31.26000023, 0.00000000
1, 23.1550, 2361, -0.02722168, -0.98718262, 0.28271484, 0.11648411, 0.63492244, 0.27562514, -48.08535385, 2.51388478, -96.02455139, 101.08968353, -8.44424343, 97.25846863, 0.37620372, -0.54404330, -0.54694307, -0.51316768, -0.11961655, 0.01649204, -0.09245639, 100.33200836, 82.98865509, 31.26000023, 0.00000000
1, 23.1600, 2362, -0.02502441, -0.98858643, 0.28442383, 0.08148410, 0.77492249, 0.17062512, -48.31920624, 2.95235300, -96.02455139, 101.08954620, -8.44582844, 97.26215363, 0.37617946, -0.54403138, -0.54695356, -0.51318693, -0.12184592, 0.01790005, -0.09416862, 100.33200836, 82.98865509, 31.26000023, 0.00000000
1, 23.1650, 2363, -0.02838135, -0.99340820, 0.28765869, 0.01148409, 0.52992237, 0.20562513, -48.31920624, 2.95235300, -96.02455139, 101.08924866, -8.44734192, 97.26457977, 0.37616196, -0.54402459, -0.54695761, -0.51320261, -0.11851276, 0.02272499, -0.09740539, 100.33200836, 82.98865509, 31.26000023, 0.00000000
1, 23.1050, 2616, 0.01219896, -0.99719226, -0.00312436, -0.52142632, -0.42793685, -0.52441591, -36.10055542, 11.63402462, -112.62788391, 89.21835327, 1.13637590, -109.08649445, 0.40728012, -0.41310751, 0.56791049, 0.58390307, 0.00762573, -0.00251448, -0.01210814, 100.42000580, 75.60753632, 32.09999847, 0.00000000
1, 23.1100, 2617, 0.01079942, -0.99708128, -0.00329978, -0.48711964, -0.32319364, -0.52235603, -36.10055542, 11.63402462, -112.62788391, 89.21587372, 1.13896322, -109.08815765, 0.40726760, -0.41310346, 0.56789440, 0.58393037, 0.00907074, -0.00262376, -0.01197921, 100.42000580, 75.60753632, 32.09999847, 0.00000000
1, 23.1700, 2364, -0.02661133, -0.99218750, 0.28930664, -0.19851600, 0.59992248, 0.13562511, -48.02689362, 2.95235300, -96.05378723, 101.08783722, -8.44857597, 97.26743317, 0.37614933, -0.54401106, -0.54695988, -0.51322383, -0.12030505, 0.02150384, -0.09907292, 100.33200836, 82.98865509, 31.26000023, 0.00000000
1, 23.1750, 2365, -0.02758789, -0.99121094, 0.28967285, -0.19851595, 0.42492235, 0.13562511, -48.02689362, 2.95235300, -96.05378723, 101.08655548, -8.44964790, 97.26940918, 0.37614086, -0.54400152, -0.54695922, -0.51324087, -0.11934809, 0.02052546, -0.09946380, 100.33200836, 82.98865509, 31.26000023, 0.00000000
1, 23.1150, 2618, 0.00925398, -0.99907494, -0.00199775, -0.63104695, -0.21669762, -0.65819424, -36.10055542, 11.63402462, -112.62788391, 89.21268463, 1.14222372, -109.08929443, 0.40725690, -0.41310290, 0.56787032, 0.58396161, 0.01066695, -0.00063062, -0.01334089, 100.42000580, 75.60753632, 32.09999847, 0.00000000
1, 23.1200, 2619, 0.00665158, -0.99509764, -0.00172817, -0.27602565, -0.22442177, -0.21735157, -36.33440399, 12.74481106, -113.30020142, 89.21127319, 1.14329791, -109.09042358, 0.40725079, -0.41309768, 0.56786335, 0.58397639, 0.01330496, -0.00460694, -0.01365039, 100.42000580, 75.60753632, 32.09999847, 0.00000000
1, 23.1250, 2620, 0.00723484, -0.99349833, -0.00224514, 0.00692767, -0.16232757, 0.19102052, -36.33440399, 12.74481106, -113.30020142, 89.33034515, 1.03503847, -109.05668640, 0.40753764, -0.41314447, 0.56874311, 0.58288604, 0.01177152, -0.00623672, -0.01209053, 100.42000580, 75.60753632, 32.09999847, 0.00000000
1, 23.2150, 2366, -0.03167725, -0.99127197, 0.29089355, -0.54851609, 0.35492232, 0.13562511, -48.43613052, 3.15697169, -96.28763580, 101.07520294, -8.45952988, 97.27723694, 0.37610716, -0.54396462, -0.54690570, -0.51336157, -0.11542934, 0.02057493, -0.10087578, 100.33200836, 82.98865509, 31.26000023, 0.00000000
1, 23.2200, 2367, -0.03106689, -0.99060059, 0.28942871, -0.40851605, 0.38992232, 0.20562513, -48.72844315, 3.42005253, -96.84302521, 101.07289124, -8.46091461, 97.27896881, 0.37610298, -0.54395407, -0.54689801, -0.51338398, -0.11606149, 0.01989853, -0.09945316, 100.33200836, 82.98865509, 31.26000023, 0.00000000
1, 23.1300, 2621, 0.00799279, -0.99510431, -0.00088228, 0.11120876, 0.04664141, 0.22972609, -36.45132828, 12.83250523, -113.03712463, 89.33091736, 1.03389275, -109.05644226, 0.40754256, -0.41314188, 0.56874925, 0.58287835, 0.01005410, -0.00466437, -0.01240906, 100.42000580, 75.60753632, 32.09999847, 0.00000000
1, 23.1350, 2622, 0.00816620, -0.99564099, -0.00368780, 0.03830331, 0.18607745, 0.19892550, -36.45132828, 12.83250523, -113.03712463, 89.33111572, 1.03291237, -109.05549622, 0.40755156, -0.41314238, 0.56875044, 0.58287048, 0.00986907, -0.00412383, -0.00959729, 100.42000580, 75.60753632, 32.09999847, 0.00000000
1, 23.1400, 2623, 0.01004576, -0.99572277, -0.00448532, 0.07260995, 0.29082063, 0.20098539, -36.45132828, 12.83250523, -113.03712463, 89.33151245, 1.03192508, -109.05403137, 0.40756264, -0.41314620, 0.56875080, 0.58285987, 0.00797582, -0.00404088, -0.00878996, 100.42000580, 75.60753632, 32.09999847, 0.00000000
1, 23.1450, 2624, 0.01159397, -0.99732327, -0.00300346, 0.03589606, 0.39409634, 0.23896654, -36.53902435, 13.06635475, -112.89096832, 89.33172607, 1.03076041, -109.05205536, 0.40757775, -0.41315091, 0.56874901, 0.58284765, 0.00640358, -0.00244316, -0.01026522, 100.42000580, 75.60753632, 32.09999847, 0.00000000
1, 23.1500, 2625, 0.01246538, -0.99860775, -0.00230282, 0.03851337, 0.18440926, 0.26898745, -36.53902435, 13.06635475, -112.89096832, 89.33193970, 1.02943516, -109.05109406, 0.40758854, -0.41314971, 0.56875145, 0.58283859, 0.00550867, -0.00116024, -0.01096213, 100.42000580, 75.60753632, 32.09999847, 0.00000000
