SensorId, TimeStamp (s), FrameNumber, AccX (g), AccY (g), AccZ (g), GyroX (deg/s), GyroY (deg/s), GyroZ (deg/s), MagX (uT), MagY (uT), MagZ (uT), EulerX (deg), EulerY (deg), EulerZ (deg), QuatW, QuatX, QuatY, QuatZ, LinAccX (g), LinAccY (g), LinAccZ (g), Pressure (kPa), Altitude (m), Temperature (degC), HeaveMotion (m)
1, -0.0000, 0, 0.25573730, -0.90002441, 0.33642578, -2.23015785, 3.59351611, -5.29211187, -22.06957054, 8.50628471, -56.41625214, 119.75889587, 21.60869598, -64.05603790, 0.33190647, -0.77020192, 0.37084082, 0.39887884, 0.11247315, 0.09289212, 0.12504843, 100.33100128, 83.07315826, 31.21999931, 0.00000000
1, 0.0000, 0, 0.15586920, -0.98654819, 0.07789107, 7.90393925, 3.49120235, 0.85288012, -23.67728615, 8.91552162, -67.08564758, 97.77915955, 6.80003357, 87.35011292, -0.50557822, 0.51705396, 0.54759157, 0.42093885, -0.03763322, 0.00257206, 0.05511163, 100.40400696, 76.94911194, 32.06999969, 0.00000000
1, 0.0550, 1, 0.29241943, -0.95208740, 0.37335205, -2.16015768, -5.15648699, -6.79711151, -21.77725792, 8.68167210, -56.41625214, 119.64255524, 21.94484329, -63.99524689, 0.33134431, -0.77042198, 0.36854526, 0.40104285, 0.08112097, 0.14589739, 0.08547823, 100.33100128, 83.07315826, 31.21999931, 0.00000000
1, 0.0600, 2, 0.28375244, -0.95257568, 0.37030029, -1.91515779, -4.91148710, -7.07711172, -21.77725792, 7.74627304, -56.41625214, 119.63143158, 21.98774147, -63.99939346, 0.33120584, -0.77042210, 0.36834484, 0.40134105, 0.09047896, 0.14653499, 0.08822899, 100.33100128, 83.07315826, 31.21999931, 0.00000000
1, 0.0050, 1, 0.18645015, -0.96886683, 0.11337315, 8.29886913, 6.10900116, 0.77004039, -23.67728615, 8.91552162, -67.08564758, 97.82421112, 6.79221535, 87.38009644, -0.50523126, 0.51714247, 0.54786205, 0.42089468, -0.06843153, -0.01508156, 0.02047656, 100.40400696, 76.94911194, 32.06999969, 0.00000000
1, 0.0100, 2, 0.22201930, -0.98220432, 0.17392018, 8.38308144, 5.02972698, 0.77829564, -24.49576187, 7.42472935, -67.43642426, 97.86903381, 6.78507471, 87.40467834, -0.50490803, 0.51725274, 0.54811001, 0.42082426, -0.10428117, -0.00174976, -0.03921027, 100.40400696, 76.94911194, 32.06999969, 0.00000000
1, 0.0150, 3, 0.21442091, -1.00049615, 0.17297556, 6.74987316, -0.95530033, 1.39252603, -24.49576187, 7.42472935, -67.43642426, 97.90212250, 6.77891493, 87.39896393, -0.50475317, 0.51745188, 0.54818189, 0.42067158, -0.09678994, 0.01661672, -0.03769084, 100.40400696, 76.94911194, 32.06999969, 0.00000000
1, 0.0650, 3, 0.27453613, -0.94842529, 0.36505127, -1.67015755, -4.84148645, -7.56711292, -21.77725792, 7.74627304, -56.41625214, 119.62213135, 22.03259468, -64.00192261, 0.33105165, -0.77043474, 0.36813119, 0.40163997, 0.10041592, 0.14256024, 0.09319816, 100.33100128, 83.07315826, 31.21999931, 0.00000000
1, 0.0700, 4, 0.26196289, -0.94189453, 0.36322021, -1.56515765, -4.63148642, -7.91711235, -21.92341423, 8.94475269, -56.09470749, 119.61408234, 22.07845497, -64.00253296, 0.33089110, -0.77045810, 0.36790448, 0.40193516, 0.11372814, 0.13622253, 0.09476329, 100.33100128, 83.07315826, 31.21999931, 0.00000000
1, 0.0750, 5, 0.25091553, -0.93212891, 0.36138916, -1.70515752, -4.52648640, -8.16211319, -21.92341423, 8.94475269, -56.09470749, 119.60573578, 22.12511635, -64.00200653, 0.33073258, -0.77048498, 0.36766550, 0.40223247, 0.12552522, 0.12665635, 0.09632953, 100.33100128, 83.07315826, 31.21999931, 0.00000000
1, 0.0200, 4, 0.18137676, -1.00001824, 0.14193119, 5.61325884, -3.90387225, 1.93260145, -24.46652985, 8.91552162, -67.26103210, 97.92776489, 6.77205229, 87.37818146, -0.50468415, 0.51769328, 0.54815555, 0.42049152, -0.06378105, 0.01624040, -0.00626525, 100.40400696, 76.94911194, 32.06999969, 0.00000000
1, 0.0250, 5, 0.15537620, -0.99007618, 0.15393780, 5.92788649, -3.32261729, 2.50328588, -24.46652985, 8.91552162, -67.26103210, 97.96150970, 6.77566290, 87.35868073, -0.50461864, 0.51791990, 0.54820520, 0.42022619, -0.03785512, 0.00634529, -0.01780416, 100.40400696, 76.94911194, 32.06999969, 0.00000000
1, 0.0300, 6, 0.11766444, -0.99104953, 0.17463586, 5.58084393, -3.99215579, 2.70205784, -24.46652985, 8.91552162, -67.26103210, 97.98689270, 6.76508665, 87.33690643, -0.50453836, 0.51818055, 0.54815894, 0.42006171, -0.00025812, 0.00734852, -0.03808771, 100.40400696, 76.94911194, 32.06999969, 0.00000000
1, 0.0350, 7, 0.07828782, -0.98394382, 0.14568749, 3.80594873, -4.28562641, 2.68260455, -23.76498032, 7.71704149, -67.37796021, 98.00320435, 6.75479507, 87.31369781, -0.50450540, 0.51840693, 0.54807395, 0.41993275, 0.03901258, 0.00031318, -0.00891106, 100.40400696, 76.94911194, 32.06999969, 0.00000000
1, 0.0800, 6, 0.23547363, -0.92529297, 0.35748291, -2.19515777, -4.52648640, -8.12711143, -21.30955887, 8.27243519, -56.21163177, 119.59491730, 22.17162514, -64.00159454, 0.33059111, -0.77050412, 0.36741906, 0.40253714, 0.14172149, 0.12000680, 0.09994240, 100.33100128, 83.07315826, 31.21999931, 0.00000000
1, 0.0850, 7, 0.22674561, -0.92120361, 0.34826660, -2.61515808, -4.52648640, -7.95211172, -21.30955887, 8.27243519, -56.21163177, 119.58183289, 22.21737671, -64.00164032, 0.33046675, -0.77051437, 0.36717108, 0.40284592, 0.15119264, 0.11607963, 0.10883087, 100.33100128, 83.07315826, 31.21999931, 0.00000000
1, 0.0900, 8, 0.22766113, -0.92089844, 0.34301758, -2.93015814, -4.42148638, -7.95211172, -21.30955887, 8.27243519, -56.21163177, 119.56733704, 22.26286316, -64.00121307, 0.33035463, -0.77052170, 0.36691594, 0.40315610, 0.15101145, 0.11592228, 0.11373240, 100.33100128, 83.07315826, 31.21999931, 0.00000000
1, 0.0950, 9, 0.24072266, -0.91870117, 0.34637451, -2.79015803, -3.89648628, -7.84711218, -21.83572006, 8.50628471, -56.67933273, 119.55438995, 22.30660057, -63.99860001, 0.33024800, -0.77053851, 0.36665916, 0.40344480, 0.13866572, 0.11387319, 0.11004238, 100.33100128, 83.07315826, 31.21999931, 0.00000000
1, 0.1000, 10, 0.25219727, -0.91656494, 0.35192871, -2.75515795, -3.68648624, -7.74211264, -21.83572006, 8.50628471, -56.67933273, 119.54186249, 22.34936905, -63.99530029, 0.33014536, -0.77055782, 0.36640349, 0.40372440, 0.12788482, 0.11188360, 0.10416949, 100.33100128, 83.07315826, 31.21999931, 0.00000000
1, 0.1400, 11, 0.18627930, -0.92199707, 0.32427979, -3.70015860, -6.24148703, -4.06711102, -21.33878899, 9.17860222, -55.97778320, 119.40551758, 22.67068100, -64.08341980, 0.32925731, -0.77021831, 0.36508825, 0.40628076, 0.19902277, 0.11814460, 0.12889065, 100.33100128, 83.07315826, 31.21999931, 0.00000000
1, 0.1450, 12, 0.17028809, -0.93121338, 0.31622314, -4.05015850, -5.99648714, -3.71711063, -21.42648315, 8.82782841, -56.24086380, 119.37815857, 22.70158768, -64.10183716, 0.32923198, -0.77011299, 0.36497766, 0.40660018, 0.21552069, 0.12733164, 0.13646397, 100.33100128, 83.07315826, 31.21999931, 0.00000000
1, 0.0400, 8, 0.05961160, -0.97840011, 0.13225171, 3.93728709, -0.38879111, 2.91402411, -23.76498032, 7.71704149, -67.37796021, 98.02248383, 6.74066401, 87.30973816, -0.50437206, 0.51857042, 0.54807204, 0.41989368, 0.05749886, -0.00519155, 0.00479793, 100.40400696, 76.94911194, 32.06999969, 0.00000000
1, 0.1500, 13, 0.16772461, -0.94635010, 0.31390381, -4.33015823, -5.43648720, -3.68211055, -21.42648315, 8.82782841, -56.24086380, 119.35037231, 22.73095894, -64.11773682, 0.32922557, -0.77001292, 0.36485520, 0.40690470, 0.21856265, 0.14242342, 0.13829535, 100.33100128, 83.07315826, 31.21999931, 0.00000000
1, 0.1550, 14, 0.17773438, -0.96319580, 0.31512451, -4.50515842, -5.12148666, -3.89211130, -20.95878410, 8.44782257, -56.35778809, 119.32248688, 22.76047325, -64.13161469, 0.32922626, -0.76991916, 0.36471802, 0.40720439, 0.20902506, 0.15922178, 0.13658650, 100.33100128, 83.07315826, 31.21999931, 0.00000000
1, 0.1600, 15, 0.19140625, -0.98040771, 0.31738281, -4.64515877, -4.87648678, -4.06711102, -20.95878410, 8.44782257, -56.35778809, 119.29450989, 22.79014015, -64.14387512, 0.32923245, -0.76983047, 0.36456889, 0.40750057, 0.19583093, 0.17638883, 0.13383885, 100.33100128, 83.07315826, 31.21999931, 0.00000000
1, 0.1650, 16, 0.20605469, -1.00268555, 0.32141113, -4.82015896, -4.70148659, -4.59211111, -20.95878410, 8.44782257, -56.35778809, 119.26651001, 22.82166290, -64.15393829, 0.32923788, -0.76975054, 0.36439642, 0.40780106, 0.18168254, 0.19862962, 0.12931459, 100.33100128, 83.07315826, 31.21999931, 0.00000000
1, 0.1700, 17, 0.22241211, -1.02166748, 0.33184814, -4.78515863, -3.61648607, -5.15211153, -21.48494530, 9.29552746, -56.24086380, 119.24124146, 22.85297394, -64.15738678, 0.32924944, -0.76969945, 0.36419016, 0.40807262, 0.16582823, 0.21759117, 0.11840810, 100.33100128, 83.07315826, 31.21999931, 0.00000000
1, 0.1750, 18, 0.22888184, -1.02752686, 0.33569336, -4.85515881, -2.63648605, -5.53711176, -21.48494530, 9.29552746, -56.24086380, 119.21782684, 22.88356781, -64.15520477, 0.32927197, -0.76967067, 0.36395559, 0.40831780, 0.15985540, 0.22344530, 0.11412460, 100.33100128, 83.07315826, 31.21999931, 0.00000000
1, 0.0750, 9, 0.13846464, -0.96596444, 0.15234493, 1.45387220, -0.61586428, 4.23715544, -24.58345413, 9.73399544, -66.38409424, 98.14065552, 6.60106850, 87.38613129, -0.50295621, 0.51931357, 0.54831159, 0.42036048, -0.02388854, -0.01766469, -0.01304170, 100.40400696, 76.94911194, 32.06999969, 0.00000000
1, 0.0800, 10, 0.11241018, -0.96871269, 0.14660555, 0.93529683, -1.80911934, 4.42562771, -24.58345413, 9.73399544, -66.38409424, 98.14399719, 6.58041763, 87.37400818, -0.50289649, 0.51947331, 0.54818910, 0.42039418, 0.00190893, -0.01491435, -0.00720144, 100.40400696, 76.94911194, 32.06999969, 0.00000000
1, 0.0850, 11, 0.08793682, -0.96635556, 0.13172860, -0.61037999, -6.22429657, 4.97100639, -24.52499199, 9.47091484, -67.11487579, 98.13706207, 6.56016350, 87.33948517, -0.50296742, 0.51969337, 0.54792875, 0.42037690, 0.02606841, -0.01729657, 0.00755826, 100.40400696, 76.94911194, 32.06999969, 0.00000000
1, 0.1800, 19, 0.22442627, -1.02539063, 0.33404541, -5.20515871, -1.41148555, -5.92211151, -20.98801422, 8.82782841, -56.44548416, 119.19529724, 22.91286469, -64.14620209, 0.32931882, -0.76966482, 0.36368421, 0.40853292, 0.16478886, 0.22130847, 0.11535797, 100.33100128, 83.07315826, 31.21999931, 0.00000000
1, 0.1850, 20, 0.21679688, -1.01306152, 0.32971191, -5.48515844, -0.22148506, -6.13211203, -20.98801422, 8.82782841, -56.44548416, 119.17378235, 22.94017410, -64.13101959, 0.32939020, -0.76967931, 0.36338368, 0.40871552, 0.17286643, 0.20897365, 0.11929265, 100.33100128, 83.07315826, 31.21999931, 0.00000000
1, 0.0900, 12, 0.07162803, -0.95681703, 0.12735458, -1.99512851, -6.38005304, 5.16018200, -24.52499199, 9.47091484, -67.11487579, 98.12311554, 6.53904963, 87.30404663, -0.50306970, 0.51989055, 0.54763520, 0.42039335, 0.04202484, -0.02689982, 0.01169921, 100.40400696, 76.94911194, 32.06999969, 0.00000000
1, 0.0950, 13, 0.05628464, -0.95216680, 0.13181023, -2.31676459, -6.27597475, 5.06159925, -24.55422401, 9.29552746, -67.26103210, 98.10763550, 6.51834679, 87.26921082, -0.50317860, 0.52007616, 0.54734015, 0.42041761, 0.05699346, -0.03163584, 0.00695775, 100.40400696, 76.94911194, 32.06999969, 0.00000000
1, 0.1000, 14, 0.04378203, -0.95122254, 0.12512733, -2.70439863, -6.62254238, 4.84796143, -24.55422401, 9.29552746, -67.26103210, 98.09004974, 6.49892044, 87.23281097, -0.50330830, 0.52025455, 0.54703510, 0.42043856, 0.06917123, -0.03265003, 0.01332025, 100.40400696, 76.94911194, 32.06999969, 0.00000000
1, 0.1050, 15, 0.03836700, -0.96068382, 0.11214037, -2.41811633, -6.76007795, 4.87609053, -24.55422401, 9.29552746, -67.26103210, 98.07382202, 6.47944593, 87.19570923, -0.50343430, 0.52044231, 0.54673153, 0.42045012, 0.07428139, -0.02324601, 0.02599837, 100.40400696, 76.94911194, 32.06999969, 0.00000000
1, 0.2100, 21, 0.19238281, -0.92858887, 0.31463623, -6.32515860, 7.33851767, -5.25711155, -21.25109673, 9.38322163, -55.68547058, 119.08647919, 23.02157784, -63.96587753, 0.33018684, -0.77003396, 0.36159906, 0.40898728, 0.19868091, 0.12431884, 0.13282199, 100.33100128, 83.07315826, 31.21999931, 0.00000000
1, 0.2150, 22, 0.20660400, -0.92333984, 0.32141113, -6.60515881, 9.12351894, -4.83711147, -21.25109673, 9.38322163, -55.68547058, 119.07538605, 23.02054214, -63.90978622, 0.33046636, -0.77017784, 0.36118719, 0.40885460, 0.18446675, 0.11898328, 0.12588546, 100.33100128, 83.07315826, 31.21999931, 0.00000000
1, 0.1100, 16, 0.05568612, -0.97613692, 0.12016023, -2.40935540, -4.62641382, 4.50620985, -25.05115509, 9.44168377, -67.17333984, 98.05887604, 6.46030998, 87.16950226, -0.50351608, 0.52058220, 0.54648346, 0.42050180, 0.05660766, -0.00788038, 0.01774230, 100.40400696, 76.94911194, 32.06999969, 0.00000000
1, 0.2200, 23, 0.21856689, -0.91485596, 0.32910156, -6.85015965, 10.66351891, -4.45211077, -21.10494041, 9.26629639, -56.18240356, 119.06552124, 23.01408577, -63.84741592, 0.33078519, -0.77033925, 0.36076155, 0.40866831, 0.17241992, 0.11038758, 0.11806719, 100.33100128, 83.07315826, 31.21999931, 0.00000000
1, 0.2250, 24, 0.22503662, -0.90893555, 0.33819580, -6.46515894, 11.39851952, -4.20711088, -21.10494041, 9.26629639, -56.18240356, 119.05870819, 23.00478935, -63.78218460, 0.33110681, -0.77051532, 0.36034030, 0.40844756, 0.16580926, 0.10435480, 0.10889395, 100.33100128, 83.07315826, 31.21999931, 0.00000000
1, 0.2300, 25, 0.22991943, -0.90753174, 0.35021973, -5.73015833, 11.08351898, -4.06711102, -20.66647148, 8.97398376, -55.65623856, 119.05481720, 22.99564552, -63.71882248, 0.33140117, -0.77069390, 0.35994124, 0.40822369, 0.16077796, 0.10286121, 0.09683824, 100.33100128, 83.07315826, 31.21999931, 0.00000000
1, 0.1600, 17, 0.03937063, -0.99985051, 0.13316934, -3.08318043, 3.25327539, 1.02212417, -24.05729294, 9.20783424, -67.23180389, 97.86161804, 6.34689045, 87.08388519, -0.50423920, 0.52059972, 0.54492837, 0.42162991, 0.07087123, 0.01511278, 0.00129261, 100.40400696, 76.94911194, 32.06999969, 0.00000000
1, 0.1650, 18, 0.05275380, -0.99493110, 0.12678355, -3.26937413, 3.82197881, 0.47721460, -24.05729294, 9.20783424, -67.23180389, 97.84734344, 6.34191847, 87.10260773, -0.50421381, 0.52046883, 0.54494154, 0.42180493, 0.05740765, 0.01015877, 0.00747289, 100.40400696, 76.94911194, 32.06999969, 0.00000000
1, 0.2350, 26, 0.24426270, -0.91174316, 0.36853027, -5.48515844, 10.76851940, -3.99711084, -20.66647148, 8.97398376, -55.65623856, 119.05146790, 22.98696709, -63.65715408, 0.33168349, -0.77086902, 0.35955337, 0.40800542, 0.14629304, 0.10699335, 0.07850889, 100.33100128, 83.07315826, 31.21999931, 0.00000000
1, 0.2400, 27, 0.25299072, -0.91729736, 0.37695313, -5.10015869, 9.33351803, -3.78711057, -20.66647148, 8.97398376, -55.65623856, 119.04718018, 22.98086166, -63.60285187, 0.33193403, -0.77102071, 0.35920009, 0.40782627, 0.13745418, 0.11247610, 0.07005408, 100.33100128, 83.07315826, 31.21999931, 0.00000000
1, 0.2450, 28, 0.25732422, -0.91979980, 0.37866211, -4.85515833, 7.96851826, -3.47211075, -20.98801422, 7.10318613, -55.42238998, 119.04123688, 22.97669029, -63.55586624, 0.33216044, -0.77114648, 0.35888141, 0.40768450, 0.13304672, 0.11490757, 0.06828197, 100.33100128, 83.07315826, 31.21999931, 0.00000000
1, 0.1700, 19, 0.06866070, -0.99152255, 0.13341992, -2.81815886, 4.63837576, 0.00019931, -24.14498711, 8.97398376, -67.75796509, 97.83580017, 6.33874655, 87.12570953, -0.50416756, 0.52032155, 0.54499161, 0.42197731, 0.04142126, 0.00670380, 0.00067348, 100.40400696, 76.94911194, 32.06999969, 0.00000000
1, 0.1750, 20, 0.09096049, -0.98876393, 0.15186785, -2.57037354, 4.68123960, -0.24729845, -24.14498711, 8.97398376, -67.75796509, 97.83902740, 6.32820177, 87.15264893, -0.50400835, 0.52025193, 0.54508466, 0.42213294, 0.01896323, 0.00389389, -0.01777563, 100.40400696, 76.94911194, 32.06999969, 0.00000000
1, 0.1800, 21, 0.10130284, -0.98909187, 0.16464470, -2.69954038, 3.56859279, -0.37733120, -24.14498711, 8.97398376, -67.75796509, 97.82750702, 6.32763481, 87.17068481, -0.50399172, 0.52011788, 0.54512191, 0.42226988, 0.00850063, 0.00418071, -0.03060069, 100.40400696, 76.94911194, 32.06999969, 0.00000000
1, 0.1850, 22, 0.09617139, -0.98810399, 0.16182612, -3.07293653, 2.06999755, -0.47840202, -23.70651817, 9.00321579, -67.08564758, 97.81331635, 6.32857895, 87.18132782, -0.50402099, 0.52000087, 0.54512161, 0.42237949, 0.01364740, 0.00316649, -0.02802657, 100.40400696, 76.94911194, 32.06999969, 0.00000000
1, 0.1900, 23, 0.08576992, -0.97355008, 0.16117668, -3.23881793, 1.06062627, -0.57045352, -23.70651817, 9.00321579, -67.08564758, 97.79774475, 6.33065367, 87.18701172, -0.50407970, 0.51989663, 0.54509807, 0.42246830, 0.02408351, -0.01141892, -0.02764238, 100.40400696, 76.94911194, 32.06999969, 0.00000000
1, 0.1950, 24, 0.07904141, -0.97338736, 0.16399641, -3.23662066, 0.85427541, -0.68055648, -24.17421722, 9.58784008, -67.29026794, 97.78208160, 6.33340979, 87.19171906, -0.50414521, 0.51979375, 0.54507244, 0.42254975, 0.03084531, -0.01161863, -0.03074849, 100.40400696, 76.94911194, 32.06999969, 0.00000000
1, 0.2500, 29, 0.25927734, -0.92266846, 0.37579346, -4.54015827, 6.32351685, -3.29711056, -20.98801422, 7.10318613, -55.42238998, 119.03365326, 22.97576332, -63.51714706, 0.33235356, -0.77124476, 0.35859802, 0.40759060, 0.13106608, 0.11771065, 0.07105653, 100.33100128, 83.07315826, 31.21999931, 0.00000000
1, 0.2550, 30, 0.26007080, -0.92816162, 0.37152100, -4.64515877, 4.85351658, -2.94711065, -21.33878899, 8.94475269, -55.97778320, 119.02246857, 22.97687149, -63.48632813, 0.33253339, -0.77130985, 0.35834584, 0.40754268, 0.13028154, 0.12312882, 0.07518610, 100.33100128, 83.07315826, 31.21999931, 0.00000000
1, 0.2000, 25, 0.06948095, -0.97472656, 0.16734245, -3.59225130, 0.78816354, -0.95802271, -24.17421722, 9.58784008, -67.29026794, 97.76461792, 6.33757877, 87.19629669, -0.50422543, 0.51967752, 0.54504496, 0.42263222, 0.04046663, -0.01031719, -0.03441392, 100.40400696, 76.94911194, 32.06999969, 0.00000000
1, 0.2050, 26, 0.06523242, -0.97773397, 0.17160989, -3.77467227, 1.13800466, -1.08757091, -24.17421722, 9.58784008, -67.29026794, 97.74643707, 6.34215403, 87.20267487, -0.50430399, 0.51954782, 0.54502469, 0.42272404, 0.04478273, -0.00735031, -0.03900694, 100.40400696, 76.94911194, 32.06999969, 0.00000000
1, 0.2750, 31, 0.27545166, -0.96350098, 0.32629395, -6.85015965, 0.89851534, -0.98710996, -21.33878899, 9.47091484, -55.68547058, 118.92617798, 22.98876190, -63.43403244, 0.33331251, -0.77120548, 0.35759801, 0.40776050, 0.11509261, 0.15782991, 0.11909273, 100.33100128, 83.07315826, 31.21999931, 0.00000000
1, 0.2800, 32, 0.28820801, -0.96606445, 0.32702637, -7.37515879, 0.96851540, -0.49710989, -21.60187149, 9.14937115, -56.24086380, 118.89160156, 22.98859787, -63.42811584, 0.33356693, -0.77112317, 0.35743597, 0.40785021, 0.10234436, 0.16013077, 0.11787781, 100.33100128, 83.07315826, 31.21999931, 0.00000000
1, 0.2850, 33, 0.29644775, -0.96032715, 0.32873535, -7.83015871, 1.14351535, -0.28710976, -21.60187149, 9.14937115, -56.24086380, 118.85486603, 22.98709106, -63.42193604, 0.33384311, -0.77103388, 0.35727030, 0.40793797, 0.09408351, 0.15410456, 0.11566371, 100.33100128, 83.07315826, 31.21999931, 0.00000000
1, 0.2900, 34, 0.29998779, -0.95538330, 0.33514404, -7.86515999, 1.45851552, -0.18210979, -21.60187149, 9.14937115, -56.24086380, 118.81843567, 22.98436546, -63.41451645, 0.33412722, -0.77094811, 0.35710293, 0.40801415, 0.09050295, 0.14886141, 0.10874701, 100.33100128, 83.07315826, 31.21999931, 0.00000000
1, 0.2950, 35, 0.30554199, -0.94525146, 0.34155273, -7.58515835, 1.84351563, -0.18210971, -21.36802101, 8.76936531, -56.62086868, 118.78411865, 22.98072243, -63.40526199, 0.33440784, -0.77087313, 0.35693485, 0.40807292, 0.08489303, 0.13843875, 0.10185871, 100.33100128, 83.07315826, 31.21999931, 0.00000000
1, 0.2250, 27, 0.08166108, -0.98429036, 0.12920728, -5.04313993, 2.92135477, -1.83511662, -24.14498711, 9.12014008, -67.67027283, 97.65911102, 6.35454226, 87.25423431, -0.50456256, 0.51886600, 0.54498428, 0.42330477, 0.02876149, -0.00089288, 0.00192980, 100.40400696, 76.94911194, 32.06999969, 0.00000000
1, 0.2300, 28, 0.10663448, -0.99210203, 0.13382994, -5.55253124, 3.92137265, -1.59448349, -24.05729294, 9.29552746, -67.72873688, 97.63361359, 6.35980034, 87.27483368, -0.50462443, 0.51863354, 0.54500383, 0.42349058, 0.00377931, 0.00685553, -0.00305906, 100.40400696, 76.94911194, 32.06999969, 0.00000000
1, 0.3000, 36, 0.30529785, -0.93719482, 0.34863281, -7.30515957, 2.33351564, -0.14710973, -21.36802101, 8.76936531, -56.62086868, 118.75209045, 22.97575188, -63.39376831, 0.33468729, -0.77081043, 0.35676578, 0.40811032, 0.08506445, 0.13010362, 0.09433588, 100.33100128, 83.07315826, 31.21999931, 0.00000000
1, 0.3050, 37, 0.30273438, -0.92510986, 0.35400391, -7.06015921, 2.57851601, -0.07710972, -21.63110161, 8.71090317, -56.24086380, 118.72164917, 22.96988487, -63.38128281, 0.33496350, -0.77075434, 0.35659978, 0.40813455, 0.08753760, 0.11774716, 0.08854921, 100.33100128, 83.07315826, 31.21999931, 0.00000000
1, 0.3100, 38, 0.29400635, -0.91455078, 0.35772705, -6.67515898, 2.57851601, 0.09789035, -21.63110161, 8.71090317, -56.24086380, 118.69297791, 22.96327209, -63.36925507, 0.33522984, -0.77070123, 0.35644650, 0.40815032, 0.09616229, 0.10692472, 0.08443666, 100.33100128, 83.07315826, 31.21999931, 0.00000000
1, 0.2350, 29, 0.12925664, -0.99044800, 0.12090989, -5.39604378, 2.73913908, -1.62465453, -24.05729294, 9.29552746, -67.72873688, 97.60824585, 6.36599493, 87.28955078, -0.50471145, 0.51842564, 0.54500085, 0.42364535, -0.01871007, 0.00517469, 0.00947627, 100.40400696, 76.94911194, 32.06999969, 0.00000000
1, 0.2400, 30, 0.13857210, -0.99532902, 0.11337148, -4.78425503, 2.12046623, -1.75234520, -24.05729294, 9.29552746, -67.72873688, 97.58559418, 6.37324667, 87.30126953, -0.50480169, 0.51823950, 0.54499835, 0.42376867, -0.02788470, 0.01002861, 0.01663116, 100.40400696, 76.94911194, 32.06999969, 0.00000000
1, 0.2450, 31, 0.13583045, -0.99766147, 0.12785269, -5.17921638, 2.36731720, -2.02185130, -23.70651817, 9.47091484, -67.52411652, 97.56112671, 6.38167095, 87.31439972, -0.50489998, 0.51803368, 0.54500014, 0.42390111, -0.02503994, 0.01229802, 0.00172700, 100.40400696, 76.94911194, 32.06999969, 0.00000000
1, 0.3150, 39, 0.28607178, -0.90881348, 0.35845947, -6.43015909, 2.15851569, 0.30789042, -21.19263268, 8.91552162, -56.41625214, 118.66451263, 22.95673561, -63.35977936, 0.33548510, -0.77064067, 0.35631073, 0.40817317, 0.10398870, 0.10092735, 0.08332413, 100.33100128, 83.07315826, 31.21999931, 0.00000000
1, 0.3200, 40, 0.27465820, -0.90594482, 0.35675049, -5.94015884, 1.07351542, 0.62289053, -21.19263268, 8.91552162, -56.41625214, 118.63617706, 22.95143127, -63.35628128, 0.33571267, -0.77056319, 0.35621017, 0.40822035, 0.11531006, 0.09780571, 0.08465171, 100.33100128, 83.07315826, 31.21999931, 0.00000000
1, 0.2500, 32, 0.14453186, -0.99432456, 0.14902975, -5.34928513, 1.70603371, -2.10555291, -23.70651817, 9.47091484, -67.52411652, 97.53546143, 6.39092350, 87.32427979, -0.50501907, 0.51783442, 0.54498589, 0.42402074, -0.03363589, 0.00888614, -0.01986245, 100.40400696, 76.94911194, 32.06999969, 0.00000000
1, 0.2550, 33, 0.14789209, -0.99617231, 0.15882295, -5.71629381, -0.28405535, -2.04315901, -24.49576187, 9.61707115, -67.75796509, 97.50683594, 6.40117359, 87.32417297, -0.50519282, 0.51766545, 0.54491955, 0.42410558, -0.03684695, 0.01067389, -0.03013048, 100.40400696, 76.94911194, 32.06999969, 0.00000000
1, 0.2600, 34, 0.13773519, -0.99650800, 0.15575175, -6.05820799, -1.40360713, -1.96033502, -24.49576187, 9.61707115, -67.75796509, 97.47588348, 6.41172171, 87.31842804, -0.50539911, 0.51751161, 0.54482013, 0.42417505, -0.02650063, 0.01096628, -0.02760899, 100.40400696, 76.94911194, 32.06999969, 0.00000000
1, 0.2650, 35, 0.12310097, -0.98941362, 0.16244033, -6.77009010, -1.34199154, -1.87969995, -24.49576187, 9.61707115, -67.75796509, 97.44140625, 6.42181587, 87.31294250, -0.50561839, 0.51734287, 0.54470712, 0.42426467, -0.01170374, 0.00380500, -0.03490324, 100.40400696, 76.94911194, 32.06999969, 0.00000000
1, 0.2700, 36, 0.11733385, -0.97927439, 0.16533297, -7.05522203, -1.30804789, -1.94536555, -23.61882401, 9.50014591, -67.81642914, 97.40550995, 6.43220997, 87.30764771, -0.50584459, 0.51716560, 0.54459095, 0.42436042, -0.00576525, -0.00639930, -0.03841170, 100.40400696, 76.94911194, 32.06999969, 0.00000000
1, 0.3550, 41, 0.31414795, -0.93225098, 0.36401367, -3.59515834, -13.80148983, 1.98789096, -20.57877731, 8.41859055, -56.97164536, 118.39071655, 23.01944923, -63.58963013, 0.33621421, -0.76918775, 0.35659510, 0.41006127, 0.07679604, 0.12262726, 0.07379004, 100.33100128, 83.07315826, 31.21999931, 0.00000000
1, 0.3600, 42, 0.31225586, -0.93670654, 0.36700439, -3.59515834, -15.34148979, 2.30289102, -20.57877731, 8.41859055, -56.97164536, 118.34171295, 23.04575539, -63.66891479, 0.33613735, -0.76882446, 0.35683304, 0.41059822, 0.07910310, 0.12687050, 0.07003535, 100.33100128, 83.07315826, 31.21999931, 0.00000000
1, 0.3500, 37, 0.12907168, -0.99823952, 0.15568528, -13.15472221, -14.18533325, -0.21173407, -23.96959877, 8.91552162, -67.69950104, 96.50492859, 6.54342413, 86.86265564, -0.51202446, 0.51479882, 0.53968257, 0.42609382, -0.01554631, 0.01092513, -0.04412878, 100.40400696, 76.94911194, 32.06999969, 0.00000000
1, 0.3550, 38, 0.12377491, -0.98757160, 0.15706816, -13.48638153, -16.23638344, -0.50176507, -23.73575020, 8.74013424, -67.58258057, 96.42826843, 6.55475616, 86.78169250, -0.51271778, 0.51478887, 0.53907871, 0.42603660, -0.01006882, 0.00012718, -0.04681937, 100.40400696, 76.94911194, 32.06999969, 0.00000000
1, 0.3650, 43, 0.30865479, -0.93957520, 0.37078857, -3.35015821, -16.49649048, 2.68789124, -21.51417732, 8.91552162, -56.76702499, 118.29133606, 23.07304955, -63.75475693, 0.33604100, -0.76843774, 0.35710505, 0.41116422, 0.08313894, 0.12951989, 0.06545470, 100.33100128, 83.07315826, 31.21999931, 0.00000000
1, 0.3700, 44, 0.29962158, -0.94274902, 0.36627197, -3.56015825, -17.23149109, 3.17789149, -21.51417732, 8.91552162, -56.76702499, 118.23797607, 23.09985352, -63.84543228, 0.33594880, -0.76802665, 0.35740030, 0.41175073, 0.09260415, 0.13245581, 0.06914034, 100.33100128, 83.07315826, 31.21999931, 0.00000000
1, 0.3750, 45, 0.29046631, -0.94415283, 0.36096191, -3.59515834, -18.03649139, 3.52789164, -21.51417732, 8.91552162, -56.76702499, 118.18253326, 23.12693024, -63.94090652, 0.33585125, -0.76759458, 0.35771823, 0.41235933, 0.10219336, 0.13360611, 0.07358630, 100.33100128, 83.07315826, 31.21999931, 0.00000000
1, 0.3800, 46, 0.28692627, -0.94696045, 0.35467529, -3.98015833, -19.05149078, 4.05289173, -21.07570839, 8.74013424, -57.14703369, 118.12265778, 23.15400887, -64.04264069, 0.33576000, -0.76712996, 0.35806143, 0.41300002, 0.10617025, 0.13613325, 0.07895409, 100.33100128, 83.07315826, 31.21999931, 0.00000000
1, 0.3850, 47, 0.27197266, -0.94683838, 0.34735107, -4.40015793, -19.50649261, 4.64789200, -21.07570839, 8.74013424, -57.14703369, 118.05913544, 23.17943001, -64.14813995, 0.33568621, -0.76664096, 0.35842335, 0.41365340, 0.12153994, 0.13569468, 0.08530770, 100.33100128, 83.07315826, 31.21999931, 0.00000000
1, 0.3900, 48, 0.26287842, -0.94079590, 0.34411621, -4.54015827, -19.05149269, 5.20789194, -19.99415398, 7.60011673, -57.08856964, 117.99516296, 23.20119858, -64.25292969, 0.33563402, -0.76614892, 0.35879457, 0.41428527, 0.13100688, 0.12930933, 0.08755945, 100.33100128, 83.07315826, 31.21999931, 0.00000000
1, 0.3600, 39, 0.12765713, -0.97896624, 0.15485668, -13.60267735, -18.52168846, -1.11559093, -23.73575020, 8.74013424, -67.58258057, 96.34973145, 6.57028675, 86.68963623, -0.51347822, 0.51480389, 0.53843480, 0.42591670, -0.01369091, -0.00859678, -0.04593416, 100.40400696, 76.94911194, 32.06999969, 0.00000000
1, 0.3650, 40, 0.11733849, -0.97398663, 0.16780676, -14.44077110, -22.83839417, -1.52328265, -23.73575020, 8.74013424, -67.58258057, 96.26449585, 6.59004164, 86.57616425, -0.51436603, 0.51487029, 0.53768671, 0.42571026, -0.00308351, -0.01372045, -0.06034574, 100.40400696, 76.94911194, 32.06999969, 0.00000000
1, 0.3700, 41, 0.09476688, -0.97722733, 0.18591937, -14.84774399, -24.54199028, -1.80407298, -23.23881912, 7.60011673, -67.52411652, 96.17622375, 6.61192226, 86.45429993, -0.51530719, 0.51495194, 0.53689837, 0.42546824, 0.01981306, -0.01063129, -0.08002721, 100.40400696, 76.94911194, 32.06999969, 0.00000000
1, 0.3950, 49, 0.25323486, -0.93017578, 0.34472656, -4.50515842, -18.03649139, 5.90789270, -19.99415398, 7.60011673, -57.08856964, 117.93255615, 23.21739197, -64.35466766, 0.33560890, -0.76566404, 0.35917464, 0.41487202, 0.14092463, 0.11831883, 0.08600134, 100.33100128, 83.07315826, 31.21999931, 0.00000000
1, 0.4000, 50, 0.24291992, -0.92077637, 0.34881592, -4.26015806, -17.30149078, 6.53789282, -19.99415398, 7.60011673, -57.08856964, 117.87189484, 23.22898293, -64.45450592, 0.33559832, -0.76518577, 0.35956919, 0.41542092, 0.15144418, 0.10853855, 0.08100569, 100.33100128, 83.07315826, 31.21999931, 0.00000000
1, 0.3750, 42, 0.06117715, -0.97287226, 0.17481761, -15.52592564, -27.39263916, -2.28401279, -23.23881912, 7.60011673, -67.52411652, 96.09009552, 6.63088083, 86.32052612, -0.51627022, 0.51510978, 0.53605306, 0.42517537, 0.05379838, -0.01509055, -0.07053562, 100.40400696, 76.94911194, 32.06999969, 0.00000000
1, 0.3800, 43, 0.01806541, -0.96351790, 0.15655667, -15.48000526, -28.38759422, -2.90419984, -23.32651329, 7.89242887, -67.90412140, 95.99637604, 6.65985203, 86.17990112, -0.51733422, 0.51522106, 0.53518903, 0.42483556, 0.09738947, -0.02453000, -0.05392694, 100.40400696, 76.94911194, 32.06999969, 0.00000000
1, 0.3850, 44, -0.01803135, -0.95220399, 0.14809154, -14.33711052, -25.92968750, -3.31584167, -23.32651329, 7.89242887, -67.90412140, 95.90974426, 6.68940496, 86.05174255, -0.51832199, 0.51530194, 0.53441006, 0.42451414, 0.13401932, -0.03593075, -0.04707012, 100.40400696, 76.94911194, 32.06999969, 0.00000000
1, 0.4350, 51, 0.18835449, -0.93804932, 0.32220459, -3.17515826, -26.96149445, 13.88789463, -20.75416565, 7.95089149, -57.64396286, 117.39750671, 23.24537849, -65.34439850, 0.33543804, -0.76100659, 0.36369240, 0.41961676, 0.20631213, 0.12243462, 0.10089213, 100.33100128, 83.07315826, 31.21999931, 0.00000000
1, 0.4400, 52, 0.19879150, -0.94842529, 0.31756592, -2.93015814, -28.15149498, 14.30789566, -20.05261612, 8.68167210, -57.49780655, 117.31504059, 23.24652672, -65.51624298, 0.33535025, -0.76022047, 0.36452553, 0.42038825, 0.19589144, 0.13221145, 0.10435836, 100.33100128, 83.07315826, 31.21999931, 0.00000000
1, 0.3900, 45, -0.03710610, -0.95204353, 0.14815761, -13.27381802, -22.80686760, -3.88588238, -23.32651329, 7.89242887, -67.90412140, 95.83022308, 6.72004652, 85.93943787, -0.51922297, 0.51533484, 0.53373343, 0.42422432, 0.15361661, -0.03617459, -0.04858873, 100.40400696, 76.94911194, 32.06999969, 0.00000000
1, 0.3950, 46, -0.04991869, -0.96232200, 0.13554336, -12.98725891, -20.20814896, -4.66884136, -23.64805603, 8.53551579, -68.92721558, 95.75361633, 6.75314617, 85.84051514, -0.52007097, 0.51530701, 0.53313798, 0.42396790, 0.16702393, -0.02594473, -0.03735997, 100.40400696, 76.94911194, 32.06999969, 0.00000000
1, 0.4450, 53, 0.21270752, -0.95721436, 0.31530762, -2.79015803, -29.02649689, 14.55289650, -20.05261612, 8.68167210, -57.49780655, 117.23136139, 23.24835587, -65.69292450, 0.33524770, -0.75941503, 0.36538145, 0.42118213, 0.18200122, 0.14039719, 0.10542357, 100.33100128, 83.07315826, 31.21999931, 0.00000000
1, 0.4500, 54, 0.22650146, -0.97125244, 0.31604004, -2.54515815, -29.37649727, 14.65789509, -20.05261612, 8.68167210, -57.49780655, 117.14810181, 23.25028229, -65.87157440, 0.33513272, -0.75860333, 0.36624971, 0.42198122, 0.16823833, 0.15383437, 0.10349321, 100.33100128, 83.07315826, 31.21999931, 0.00000000
1, 0.4550, 55, 0.24285889, -0.97912598, 0.32128906, -2.47515821, -29.41149521, 14.58789539, -19.35106659, 8.36012840, -57.35165024, 117.06520844, 23.25236130, -66.05022430, 0.33501285, -0.75779176, 0.36711672, 0.42278057, 0.15191147, 0.16111380, 0.09705560, 100.33100128, 83.07315826, 31.21999931, 0.00000000
1, 0.4150, 47, 0.10699058, -1.02926815, 0.12039682, -11.85213375, -5.69571638, -6.65082502, -23.26804924, 7.95089149, -68.81028748, 95.49113464, 6.89456654, 85.66265106, -0.52249300, 0.51433671, 0.53193736, 0.42367619, 0.01259430, 0.04086375, -0.02654723, 100.40400696, 76.94911194, 32.06999969, 0.00000000
1, 0.4200, 48, 0.16850464, -1.01957035, 0.08648964, -12.14865398, -7.83752966, -7.50430107, -23.32651329, 8.21397209, -68.43028259, 95.42601013, 6.93542814, 85.62686920, -0.52308589, 0.51403129, 0.53170079, 0.42361212, -0.04815275, 0.03119753, 0.00641038, 100.40400696, 76.94911194, 32.06999969, 0.00000000
1, 0.4600, 56, 0.26989746, -0.98974609, 0.33428955, -2.40515804, -29.27149582, 14.02789497, -19.35106659, 8.36012840, -57.35165024, 116.98345947, 23.25638199, -66.22682190, 0.33488193, -0.75699121, 0.36796370, 0.42358151, 0.12493340, 0.17115809, 0.08287003, 100.33100128, 83.07315826, 31.21999931, 0.00000000
1, 0.4650, 57, 0.28210449, -0.99017334, 0.33880615, -2.68515778, -28.67649460, 13.85289574, -20.14031029, 7.86319780, -57.64396286, 116.90161133, 23.25960541, -66.40010071, 0.33476585, -0.75619876, 0.36879027, 0.42436895, 0.11278087, 0.17101246, 0.07717548, 100.33100128, 83.07315826, 31.21999931, 0.00000000
1, 0.4700, 58, 0.29632568, -0.98388672, 0.34033203, -3.17515826, -28.74649429, 13.50289440, -20.14031029, 7.86319780, -57.64396286, 116.81750488, 23.26431656, -66.57288361, 0.33465776, -0.75540215, 0.36959657, 0.42517099, 0.09862681, 0.16414614, 0.07444239, 100.33100128, 83.07315826, 31.21999931, 0.00000000
1, 0.4250, 49, 0.21756656, -1.01245165, 0.06794124, -11.63337040, -12.25246525, -7.68619728, -23.32651329, 8.21397209, -68.43028259, 95.35739899, 6.99346447, 85.56617737, -0.52385676, 0.51375151, 0.53140932, 0.42336482, -0.09629772, 0.02410527, 0.02392628, 100.40400696, 76.94911194, 32.06999969, 0.00000000
1, 0.4300, 50, 0.24309956, -1.01082945, 0.09686510, -11.75018978, -14.43918133, -8.05230236, -22.85881233, 7.92166042, -68.86875153, 95.29013824, 7.04000521, 85.49742889, -0.52460331, 0.51356369, 0.53104067, 0.42313069, -0.12098673, 0.02243782, -0.00611909, 100.40400696, 76.94911194, 32.06999969, 0.00000000
1, 0.4350, 51, 0.26227772, -1.01011324, 0.12773587, -11.53427315, -17.63667488, -8.27147293, -22.85881233, 7.92166042, -68.86875153, 95.22195435, 7.08898258, 85.41268158, -0.52542251, 0.51343447, 0.53060716, 0.42281470, -0.13940179, 0.02166631, -0.03812082, 100.40400696, 76.94911194, 32.06999969, 0.00000000
1, 0.4750, 59, 0.30291748, -0.97979736, 0.34167480, -3.28015804, -29.23649406, 13.25789547, -20.14031029, 7.86319780, -57.64396286, 116.73213959, 23.27099228, -66.74745178, 0.33453998, -0.75459725, 0.37039924, 0.42599347, 0.09213285, 0.15947881, 0.07186185, 100.33100128, 83.07315826, 31.21999931, 0.00000000
1, 0.4800, 60, 0.30212402, -0.98016357, 0.34136963, -2.82515812, -30.18149567, 12.94289494, -20.46185303, 8.06781673, -57.49780655, 116.64752960, 23.28095627, -66.92587280, 0.33438537, -0.75378507, 0.37121305, 0.42684349, 0.09307324, 0.15928955, 0.07092262, 100.33100128, 83.07315826, 31.21999931, 0.00000000
1, 0.4400, 52, 0.24905072, -1.01544118, 0.12858517, -12.20058918, -24.23303986, -7.96454000, -22.85881233, 7.92166042, -68.86875153, 95.14622498, 7.13922930, 85.29459381, -0.52640289, 0.51341861, 0.53000224, 0.42237324, -0.12531072, 0.02698506, -0.04028871, 100.40400696, 76.94911194, 32.06999969, 0.00000000
1, 0.4450, 53, 0.19658801, -1.01684487, 0.09647413, -13.34021378, -29.92765808, -7.66513920, -22.85881233, 8.27243519, -68.98567963, 95.06109619, 7.19031668, 85.14772034, -0.52753371, 0.51348746, 0.52923763, 0.42183685, -0.07188836, 0.02842302, -0.00974988, 100.40400696, 76.94911194, 32.06999969, 0.00000000
1, 0.4500, 54, 0.13987635, -1.00123417, 0.07255030, -13.87907219, -32.47042847, -7.85909653, -22.85881233, 8.27243519, -68.98567963, 94.97154236, 7.24323273, 84.98804474, -0.52873772, 0.51358533, 0.52840751, 0.42125058, -0.01420868, 0.01283121, 0.01251786, 100.40400696, 76.94911194, 32.06999969, 0.00000000
1, 0.4550, 55, 0.09826631, -0.97465169, 0.08086794, -14.36805534, -33.26962662, -8.11728668, -22.30341911, 7.01549244, -68.92721558, 94.87888336, 7.29750204, 84.82437897, -0.52997440, 0.51367939, 0.52755439, 0.42065078, 0.02831412, -0.01378383, 0.00254495, 100.40400696, 76.94911194, 32.06999969, 0.00000000
1, 0.4600, 56, 0.06525074, -0.95538628, 0.09873172, -14.71604729, -33.99460983, -8.51571083, -22.30341911, 7.01549244, -68.92721558, 94.78388214, 7.35379314, 84.65711975, -0.53124142, 0.51376826, 0.52668560, 0.42003238, 0.06224833, -0.03309346, -0.01700794, 100.40400696, 76.94911194, 32.06999969, 0.00000000
1, 0.5000, 61, 0.23132324, -0.92382813, 0.36944580, -4.12015867, -31.72150040, 15.49789619, -19.93569183, 7.86319780, -56.88395309, 116.29473114, 23.31337738, -67.66868591, 0.33376697, -0.75037962, 0.37462050, 0.43033668, 0.16443819, 0.10067442, 0.03772834, 100.33100128, 83.07315826, 31.21999931, 0.00000000
1, 0.5050, 62, 0.20825195, -0.90856934, 0.35943604, -4.75015831, -32.49149323, 16.93289566, -19.81876564, 8.06781673, -57.55627060, 116.19206238, 23.30927658, -67.86811066, 0.33370891, -0.74942261, 0.37555835, 0.43123096, 0.18746275, 0.08467825, 0.04628940, 100.33100128, 83.07315826, 31.21999931, 0.00000000
1, 0.4900, 57, 0.05366226, -0.99200070, 0.14384751, -14.32971764, -31.08810616, -10.48437691, -22.12803268, 8.41859055, -69.01490784, 94.21205902, 7.71001482, 83.66839600, -0.53883749, 0.51409847, 0.52162695, 0.41624802, 0.07986030, 0.00347235, -0.07215796, 100.40400696, 76.94911194, 32.06999969, 0.00000000
1, 0.4950, 58, 0.04610226, -0.99778521, 0.13610387, -13.92756653, -29.06289101, -10.54638195, -21.98187637, 7.86319780, -69.13182831, 94.12310028, 7.77276468, 83.52589417, -0.54000181, 0.51405978, 0.52092397, 0.41566682, 0.08852845, 0.00930345, -0.06600364, 100.40400696, 76.94911194, 32.06999969, 0.00000000
1, 0.5100, 63, 0.18646240, -0.90527344, 0.35205078, -4.85515833, -34.03149796, 18.36789703, -19.81876564, 8.06781673, -57.55627060, 116.08455658, 23.30179596, -68.07847595, 0.33365512, -0.74840957, 0.37656257, 0.43215528, 0.20914663, 0.08059113, 0.05216745, 100.33100128, 83.07315826, 31.21999931, 0.00000000
1, 0.5150, 64, 0.16992188, -0.91467285, 0.35266113, -5.17015886, -35.43149948, 20.04789543, -19.84799767, 7.57088566, -57.55627060, 115.97121429, 23.28945923, -68.29969788, 0.33361933, -0.74733555, 0.37763494, 0.43310469, 0.22550757, 0.08913345, 0.04998025, 100.33100128, 83.07315826, 31.21999931, 0.00000000
1, 0.5200, 65, 0.16442871, -0.91961670, 0.34997559, -5.41515875, -36.76149750, 21.30789566, -19.84799767, 7.57088566, -57.55627060, 115.85297394, 23.27395058, -68.53035736, 0.33359227, -0.74620956, 0.37876189, 0.43408170, 0.23076430, 0.09316442, 0.05102191, 100.33100128, 83.07315826, 31.21999931, 0.00000000
1, 0.5000, 59, 0.04569986, -1.00439644, 0.13536681, -13.38525486, -26.83089066, -10.46503258, -21.98187637, 7.86319780, -69.13182831, 94.03820801, 7.83412123, 83.39447784, -0.54110068, 0.51399416, 0.52028072, 0.41512430, 0.09000365, 0.01595578, -0.06676944, 100.40400696, 76.94911194, 32.06999969, 0.00000000
1, 0.5050, 60, 0.04943515, -1.00988388, 0.12783478, -13.19982529, -24.46616173, -10.23576736, -21.42648315, 8.09704781, -69.92107391, 93.95570374, 7.89334679, 83.27478790, -0.54213667, 0.51389420, 0.51969063, 0.41463515, 0.08731818, 0.02149684, -0.06067751, 100.40400696, 76.94911194, 32.06999969, 0.00000000
1, 0.5100, 61, 0.04953757, -1.02039742, 0.11061732, -13.65275097, -22.34161758, -10.38967609, -21.42648315, 8.09704781, -69.92107391, 93.87228394, 7.95245504, 83.16573334, -0.54313666, 0.51374072, 0.51914525, 0.41419956, 0.08827733, 0.03208140, -0.04491791, 100.40400696, 76.94911194, 32.06999969, 0.00000000
1, 0.5250, 66, 0.16400146, -0.93157959, 0.34448242, -5.73015881, -37.60149765, 22.42789650, -19.84799767, 7.57088566, -57.55627060, 115.73056030, 23.25478172, -68.76773071, 0.33358166, -0.74504197, 0.37993026, 0.43507347, 0.23089889, 0.10416608, 0.05481749, 100.33100128, 83.07315826, 31.21999931, 0.00000000
1, 0.5300, 67, 0.16937256, -0.93975830, 0.33032227, -6.18515873, -38.05649948, 23.44289780, -18.59105492, 6.13855600, -57.73165512, 115.60417175, 23.23154831, -69.00963593, 0.33359623, -0.74383938, 0.38112807, 0.43607104, 0.22516938, 0.11133371, 0.06723165, 100.33100128, 83.07315826, 31.21999931, 0.00000000
1, 0.5350, 68, 0.17968750, -0.95227051, 0.31738281, -6.29015923, -38.65149689, 23.96789932, -18.59105492, 6.13855600, -57.73165512, 115.47575378, 23.20673943, -69.25559998, 0.33361298, -0.74261236, 0.38234818, 0.43708038, 0.21446243, 0.12280696, 0.07838968, 100.33100128, 83.07315826, 31.21999931, 0.00000000
1, 0.5150, 62, 0.06306496, -1.02662277, 0.09289379, -14.84412575, -21.07726669, -11.25573063, -21.42648315, 8.09704781, -69.92107391, 93.78368378, 8.01528835, 83.06323242, -0.54414958, 0.51351583, 0.51862681, 0.41379818, 0.07586012, 0.03838357, -0.02868471, 100.40400696, 76.94911194, 32.06999969, 0.00000000
1, 0.5200, 63, 0.10510518, -1.01927245, 0.07917207, -15.59305000, -21.16165161, -12.36987782, -21.89418221, 4.85238218, -70.18415833, 93.69119263, 8.08354664, 82.96054077, -0.54520059, 0.51324868, 0.51811695, 0.41338485, 0.03501007, 0.03111453, -0.01643894, 100.40400696, 76.94911194, 32.06999969, 0.00000000
1, 0.5250, 64, 0.16181818, -1.01266170, 0.06970032, -15.23952579, -21.20475197, -13.35686684, -21.89418221, 4.85238218, -70.18415833, 93.60095215, 8.15993214, 82.85742950, -0.54627317, 0.51295793, 0.51764810, 0.41291678, -0.02041017, 0.02459870, -0.00839894, 100.40400696, 76.94911194, 32.06999969, 0.00000000
1, 0.5400, 69, 0.20751953, -0.96423340, 0.32409668, -5.69515896, -40.89149475, 24.35289764, -19.11721611, 7.01549244, -58.84244156, 115.34576416, 23.18449211, -69.51335907, 0.33357897, -0.74134171, 0.38362300, 0.43814486, 0.18625841, 0.13373347, 0.06986839, 100.33100128, 83.07315826, 31.21999931, 0.00000000
1, 0.5300, 65, 0.18699326, -1.01597130, 0.06687893, -14.56132507, -21.53347588, -13.93417072, -21.57263947, 8.27243519, -69.74568939, 93.51309204, 8.23579407, 82.75309753, -0.54733604, 0.51268482, 0.51718116, 0.41243327, -0.04424872, 0.02800789, -0.00706514, 100.40400696, 76.94911194, 32.06999969, 0.00000000
1, 0.5350, 66, 0.18491904, -1.02622366, 0.06273424, -13.61052513, -23.74799919, -14.20937157, -21.57263947, 8.27243519, -69.74568939, 93.42823029, 8.31355000, 82.63752747, -0.54843169, 0.51246721, 0.51668364, 0.41187146, -0.04082531, 0.03837161, -0.00441711, 100.40400696, 76.94911194, 32.06999969, 0.00000000
1, 0.5450, 70, 0.22308350, -0.97320557, 0.33068848, -5.24015856, -42.92150116, 24.38789940, -19.11721611, 7.01549244, -58.84244156, 115.21418762, 23.16587639, -69.78108978, 0.33349553, -0.74003500, 0.38493556, 0.43926501, 0.17038064, 0.14168386, 0.06143084, 100.33100128, 83.07315826, 31.21999931, 0.00000000
1, 0.5750, 71, 0.21118164, -1.01977539, 0.31469727, -4.50515842, -47.75150299, 23.19789886, -18.85413551, 7.36626720, -58.69628525, 114.41138458, 23.09330177, -71.47317505, 0.33246964, -0.73185211, 0.39303455, 0.44652030, 0.18106659, 0.18237750, 0.06596753, 100.33100128, 83.07315826, 31.21999931, 0.00000000
1, 0.5800, 72, 0.20220947, -1.02142334, 0.30322266, -5.03015852, -48.38150024, 22.63789749, -18.85413551, 7.36626720, -58.69628525, 114.27236938, 23.08988380, -71.76349640, 0.33224070, -0.73044628, 0.39436027, 0.44782192, 0.18997939, 0.18308558, 0.07542934, 100.33100128, 83.07315826, 31.21999931, 0.00000000
1, 0.5850, 73, 0.19122314, -1.01519775, 0.28997803, -5.55515862, -47.71650314, 21.93789864, -18.85413551, 7.36626720, -58.69628525, 114.13266754, 23.08764839, -72.04892731, 0.33202443, -0.72905397, 0.39564157, 0.44911906, 0.20092341, 0.17592248, 0.08663551, 100.33100128, 83.07315826, 31.21999931, 0.00000000
1, 0.5650, 67, 0.03866508, -0.99233902, 0.04791128, -12.84366322, -19.46256638, -13.97677898, -20.63723946, 7.16164875, -70.50569916, 92.91188049, 8.76480865, 81.92668915, -0.55500764, 0.51124054, 0.51355267, 0.40848923, 0.11326785, 0.00518056, 0.00110106, 100.40400696, 76.94911194, 32.06999969, 0.00000000
1, 0.5700, 68, 0.04027036, -0.99179769, 0.05374833, -12.06487370, -16.31081200, -14.40229988, -20.63723946, 7.16164875, -70.50569916, 92.83929443, 8.84054565, 81.84778595, -0.55589902, 0.51091683, 0.51326108, 0.40804836, 0.11294875, 0.00476587, -0.00601861, 100.40400696, 76.94911194, 32.06999969, 0.00000000
1, 0.5900, 74, 0.18066406, -1.00891113, 0.28723145, -5.55515862, -46.63150406, 20.99289703, -18.47413063, 5.37854433, -58.46243668, 113.99590302, 23.08688164, -72.32688904, 0.33180666, -0.72769547, 0.39687508, 0.45039311, 0.21146390, 0.16872641, 0.08736849, 100.33100128, 83.07315826, 31.21999931, 0.00000000
1, 0.5950, 75, 0.16961670, -1.00311279, 0.28613281, -5.48515844, -45.47650146, 20.39789581, -18.47413063, 5.37854433, -58.46243668, 113.86224365, 23.08588600, -72.59778595, 0.33159336, -0.72636741, 0.39807239, 0.45163566, 0.22249520, 0.16204530, 0.08649769, 100.33100128, 83.07315826, 31.21999931, 0.00000000
1, 0.6000, 76, 0.15698242, -0.99389648, 0.28430176, -5.41515875, -44.49650192, 19.83789635, -18.50336075, 6.46009922, -59.19321823, 113.73134613, 23.08490181, -72.86258698, 0.33138224, -0.72506595, 0.39923730, 0.45285189, 0.23511557, 0.15196992, 0.08639818, 100.33100128, 83.07315826, 31.21999931, 0.00000000
1, 0.5750, 69, 0.04773215, -0.99678087, 0.06182578, -11.70697403, -13.61870575, -14.69321060, -20.63723946, 7.16164875, -70.50569916, 92.77254486, 8.90345383, 81.78485870, -0.55665791, 0.51060414, 0.51300806, 0.40772301, 0.10666822, 0.00986445, -0.01527729, 100.40400696, 76.94911194, 32.06999969, 0.00000000
1, 0.5800, 70, 0.06453876, -1.00076938, 0.07056032, -11.52155018, -11.34839439, -14.88682079, -20.25723457, 7.65857935, -70.65185547, 92.70637512, 8.98028088, 81.73094940, -0.55743372, 0.51019335, 0.51285666, 0.40736783, 0.09104404, 0.01397312, -0.02511598, 100.40400696, 76.94911194, 32.06999969, 0.00000000
1, 0.5850, 71, 0.08066219, -0.99805439, 0.07092540, -11.39908409, -9.74175072, -15.02534580, -20.25723457, 7.65857935, -70.65185547, 92.64200592, 9.05739689, 81.68510437, -0.55817294, 0.50975323, 0.51274914, 0.40704170, 0.07624908, 0.01141535, -0.02656073, 100.40400696, 76.94911194, 32.06999969, 0.00000000
1, 0.5900, 72, 0.08949628, -0.98979712, 0.06279830, -11.11073780, -7.12573624, -15.07181931, -20.69570351, 6.89856768, -70.73954773, 92.58110809, 9.13410187, 81.65241241, -0.55884761, 0.50927228, 0.51271123, 0.40676588, 0.06876029, 0.00333385, -0.01947639, 100.40400696, 76.94911194, 32.06999969, 0.00000000
1, 0.5950, 73, 0.09162882, -0.98426616, 0.06618109, -10.48442554, -5.97134447, -15.05227661, -20.69570351, 6.89856768, -70.73954773, 92.52419281, 9.21045494, 81.62545776, -0.55948192, 0.50878590, 0.51271176, 0.40650168, 0.06793482, -0.00203545, -0.02384920, 100.40400696, 76.94911194, 32.06999969, 0.00000000
1, 0.6000, 74, 0.09650727, -0.98504293, 0.06772903, -10.13895321, -5.16340399, -15.21267700, -20.69570351, 6.89856768, -70.73954773, 92.46961975, 9.28740501, 81.60253906, -0.56009305, 0.50828981, 0.51274133, 0.40624347, 0.06437346, -0.00108850, -0.02634358, 100.40400696, 76.94911194, 32.06999969, 0.00000000
1, 0.6050, 77, 0.14453125, -0.98767090, 0.28033447, -5.66015863, -43.30650330, 19.31289673, -18.50336075, 6.46009922, -59.19321823, 113.60199738, 23.08337593, -73.12030792, 0.33118781, -0.72379035, 0.40036181, 0.45404035, 0.24754560, 0.14489892, 0.08846197, 100.33100128, 83.07315826, 31.21999931, 0.00000000
1, 0.6100, 78, 0.12792969, -0.98486328, 0.27880859, -5.80015898, -42.36149979, 18.92789459, -18.50336075, 6.46009922, -59.19321823, 113.47412872, 23.08119774, -73.37248230, 0.33100531, -0.72253513, 0.40145606, 0.45520508, 0.26411474, 0.14125617, 0.08810826, 100.33100128, 83.07315826, 31.21999931, 0.00000000
1, 0.6050, 75, 0.09740770, -0.98952925, 0.05536649, -9.90477657, -3.97351646, -15.36255932, -20.02338409, 5.90470600, -71.20724487, 92.41716003, 9.36484528, 81.58560944, -0.56067455, 0.50777453, 0.51280725, 0.40600240, 0.06483778, 0.00359717, -0.01491145, 100.40400696, 76.94911194, 32.06999969, 0.00000000
1, 0.6100, 76, 0.09205485, -1.00028002, 0.05031155, -9.52876568, -2.77902579, -15.65434265, -20.02338409, 5.90470600, -71.20724487, 92.36753845, 9.44350338, 81.57472229, -0.56122595, 0.50724024, 0.51291519, 0.40577191, 0.07155152, 0.01454292, -0.01075881, 100.40400696, 76.94911194, 32.06999969, 0.00000000
1, 0.6400, 79, 0.12689209, -0.96295166, 0.30023193, -9.86016083, -27.41649437, 15.74289608, -18.24028015, 6.51856184, -59.51476288, 112.74514771, 22.98438072, -74.56726074, 0.33129606, -0.71605420, 0.40649149, 0.46073195, 0.26366636, 0.11414190, 0.05611883, 100.33100128, 83.07315826, 31.21999931, 0.00000000
1, 0.6450, 80, 0.13201904, -0.96209717, 0.30737305, -10.07015991, -27.03149414, 15.04289532, -18.24028015, 6.51856184, -59.51476288, 112.62962341, 22.96711731, -74.73422241, 0.33143327, -0.71509767, 0.40714943, 0.46153721, 0.25824925, 0.11245757, 0.04731391, 100.33100128, 83.07315826, 31.21999931, 0.00000000
1, 0.6300, 77, 0.02516097, -1.00632393, 0.05460393, -10.92413425, 0.48619670, -17.24125862, -19.84799767, 6.51856184, -70.68108368, 92.16062927, 9.75234795, 81.57109833, -0.56329906, 0.50490230, 0.51347017, 0.40511271, 0.14371720, 0.02132959, -0.01880200, 100.40400696, 76.94911194, 32.06999969, 0.00000000
1, 0.6350, 78, 0.00346382, -1.00436521, 0.05702262, -11.06139565, 2.86892867, -17.88376236, -19.84799767, 6.51856184, -70.68108368, 92.10813141, 9.84106731, 81.58887482, -0.56379557, 0.50417876, 0.51373690, 0.40498483, 0.16692066, 0.01959304, -0.02219196, 100.40400696, 76.94911194, 32.06999969, 0.00000000
1, 0.6500, 81, 0.13739014, -0.95947266, 0.31298828, -10.10516071, -26.82149506, 14.55289459, -17.97719955, 6.46009922, -60.09938431, 112.51480103, 22.95140266, -74.89905548, 0.33156484, -0.71415222, 0.40778759, 0.46234277, 0.25261998, 0.10902187, 0.04003483, 100.33100128, 83.07315826, 31.21999931, 0.00000000
1, 0.6550, 82, 0.14782715, -0.96282959, 0.32293701, -10.28016090, -26.61149597, 14.13289547, -17.97719955, 6.46009922, -60.09938431, 112.39992523, 22.93692398, -75.06189728, 0.33169645, -0.71321446, 0.40840518, 0.46314999, 0.24195103, 0.11158291, 0.02842018, 100.33100128, 83.07315826, 31.21999931, 0.00000000
1, 0.6600, 83, 0.15039063, -0.96124268, 0.31500244, -10.80516148, -26.26149559, 14.02789497, -17.97719955, 6.46009922, -60.09938431, 112.28325653, 22.92196274, -75.22270966, 0.33184788, -0.71227670, 0.40900299, 0.46395624, 0.23914541, 0.10919046, 0.03466672, 100.33100128, 83.07315826, 31.21999931, 0.00000000
1, 0.6400, 79, 0.00112554, -1.00451493, 0.06206930, -10.80202389, 4.77115726, -18.68297195, -19.93569183, 7.10318613, -70.76878357, 92.05860901, 9.93344975, 81.61635590, -0.56425744, 0.50340962, 0.51407212, 0.40487298, 0.17082308, 0.01997707, -0.02811479, 100.40400696, 76.94911194, 32.06999969, 0.00000000
1, 0.6450, 80, 0.03481445, -0.99983013, 0.06897604, -11.20060539, 11.12186337, -19.29767799, -19.93569183, 7.10318613, -70.76878357, 92.01273346, 10.02786446, 81.67611694, -0.56459618, 0.50250387, 0.51457000, 0.40489382, 0.13872974, 0.01553516, -0.03574541, 100.40400696, 76.94911194, 32.06999969, 0.00000000
1, 0.6500, 81, 0.07947509, -0.99202895, 0.05780596, -11.53190422, 14.92266941, -19.58844185, -19.93569183, 7.10318613, -70.76878357, 91.96864319, 10.12315369, 81.75512695, -0.56486142, 0.50151533, 0.51516116, 0.40499744, 0.09573248, 0.00801508, -0.02522850, 100.40400696, 76.94911194, 32.06999969, 0.00000000
1, 0.6650, 84, 0.14532471, -0.95983887, 0.30084229, -10.94516087, -25.66649437, 13.92289543, -18.09412384, 6.16778708, -59.98246002, 112.16717529, 22.90605927, -75.38027191, 0.33201158, -0.71134949, 0.40958542, 0.46474725, 0.24396040, 0.10697971, 0.04713501, 100.33100128, 83.07315826, 31.21999931, 0.00000000
1, 0.6700, 85, 0.13769531, -0.96752930, 0.28344727, -10.91016006, -24.68649483, 13.88789463, -18.09412384, 6.16778708, -59.98246002, 112.05328369, 22.88818359, -75.53277588, 0.33219039, -0.71044201, 0.41015247, 0.46550685, 0.25131384, 0.11386806, 0.06286786, 100.33100128, 83.07315826, 31.21999931, 0.00000000
1, 0.6750, 86, 0.12567139, -0.98199463, 0.26446533, -10.94516182, -23.25149345, 14.20289516, -18.03566170, 6.05086231, -60.07015610, 111.94185638, 22.86588287, -75.67863464, 0.33240178, -0.70955640, 0.41070718, 0.46621725, 0.26299632, 0.12752484, 0.08023540, 100.33100128, 83.07315826, 31.21999931, 0.00000000
1, 0.6800, 87, 0.11053467, -1.00622559, 0.24389648, -11.19016075, -21.36149216, 14.37789440, -18.03566170, 6.05086231, -60.07015610, 111.83284760, 22.83899498, -75.81526947, 0.33265761, -0.70870137, 0.41123414, 0.46687019, 0.27772146, 0.15093605, 0.09923136, 100.33100128, 83.07315826, 31.21999931, 0.00000000
1, 0.6850, 88, 0.10211182, -1.02349854, 0.22326660, -11.89016151, -18.42149162, 14.62289524, -18.03566170, 6.05086231, -60.07015610, 111.72599030, 22.80526924, -75.93750000, 0.33299243, -0.70789069, 0.41171128, 0.46744066, 0.28562862, 0.16736621, 0.11833914, 100.33100128, 83.07315826, 31.21999931, 0.00000000
1, 0.6550, 82, 0.10985350, -0.99113941, 0.03980328, -11.16563225, 16.88712311, -20.03700829, -19.90645981, 4.56007004, -71.20724487, 91.92829895, 10.22040367, 81.84414673, -0.56508160, 0.50049037, 0.51581639, 0.40512419, 0.06705923, 0.00742773, -0.00786708, 100.40400696, 76.94911194, 32.06999969, 0.00000000
1, 0.6600, 83, 0.12259262, -0.99379551, 0.01996616, -10.70991802, 17.25851059, -20.84015846, -19.90645981, 4.56007004, -71.20724487, 91.89071655, 10.32168388, 81.93516541, -0.56529689, 0.49945113, 0.51650566, 0.40522841, 0.05608755, 0.01040493, 0.01133015, 100.40400696, 76.94911194, 32.06999969, 0.00000000
1, 0.6650, 84, 0.12454607, -0.99910247, 0.00928480, -10.46088219, 17.03958893, -21.79495621, -19.52645493, 7.10318613, -71.38263702, 91.85436249, 10.42782974, 82.02516174, -0.56552774, 0.49839953, 0.51721370, 0.40529794, 0.05596301, 0.01603755, 0.02136998, 100.40400696, 76.94911194, 32.06999969, 0.00000000
1, 0.6700, 85, 0.12308928, -1.00316358, 0.01066709, -10.59434891, 16.14997482, -22.51550484, -19.52645493, 7.10318613, -71.38263702, 91.81667328, 10.53777599, 82.11072540, -0.56579340, 0.49734309, 0.51791215, 0.40533274, 0.05928987, 0.02042145, 0.01932601, 100.40400696, 76.94911194, 32.06999969, 0.00000000
1, 0.7150, 89, 0.15637207, -0.99566650, 0.18237305, -13.95516205, -9.21648788, 14.69289589, -17.50950050, 4.99853849, -60.53785324, 111.10913086, 22.52419090, -76.48458099, 0.33599401, -0.70359641, 0.41386977, 0.46986371, 0.22690925, 0.13415539, 0.15063438, 100.33100128, 83.07315826, 31.21999931, 0.00000000
1, 0.7200, 90, 0.17700195, -1.00701904, 0.18121338, -13.53516197, -9.07648754, 14.02789497, -17.50950050, 4.99853849, -60.53785324, 111.01348114, 22.47504616, -76.55770111, 0.33653307, -0.70295835, 0.41415578, 0.47018090, 0.20547086, 0.14463666, 0.15046559, 100.33100128, 83.07315826, 31.21999931, 0.00000000
1, 0.7250, 91, 0.18994141, -1.01800537, 0.18133545, -13.53516197, -9.11148739, 13.25789547, -17.71411896, 5.26161957, -60.88862991, 110.91841888, 22.42944908, -76.62938690, 0.33705541, -0.70233279, 0.41441834, 0.47051007, 0.19178489, 0.15478626, 0.14902441, 100.33100128, 83.07315826, 31.21999931, 0.00000000
1, 0.7300, 92, 0.19952393, -1.02319336, 0.18090820, -14.23516273, -9.35648823, 12.59289455, -17.71411896, 5.26161957, -60.88862991, 110.81997681, 22.38728333, -76.70092773, 0.33758086, -0.70170337, 0.41464940, 0.47086880, 0.18150960, 0.15914640, 0.14808442, 100.33100128, 83.07315826, 31.21999931, 0.00000000
1, 0.7350, 93, 0.20581055, -1.02453613, 0.17382813, -15.28516293, -9.18148708, 11.89289379, -17.71411896, 5.26161957, -60.88862991, 110.71720886, 22.34796333, -76.77013397, 0.33812696, -0.70107412, 0.41483450, 0.47125107, 0.17457534, 0.15965882, 0.15372893, 100.33100128, 83.07315826, 31.21999931, 0.00000000
1, 0.6750, 86, 0.13295315, -1.00783670, 0.01461202, -11.08783436, 15.70136547, -22.87043762, -19.52645493, 7.10318613, -71.38263702, 91.77469635, 10.64449978, 82.19438934, -0.56607193, 0.49628687, 0.51857239, 0.40539446, 0.05128498, 0.02541473, 0.01469714, 100.40400696, 76.94911194, 32.06999969, 0.00000000
1, 0.7400, 94, 0.21215820, -1.02148438, 0.16284180, -16.26516151, -8.58648777, 11.36789417, -17.97719955, 4.99853849, -60.71324158, 110.61113739, 22.30992889, -76.83525085, 0.33870277, -0.70045155, 0.41497430, 0.47164026, 0.16760862, 0.15576750, 0.16321227, 100.33100128, 83.07315826, 31.21999931, 0.00000000
1, 0.7450, 95, 0.21722412, -1.01519775, 0.15167236, -17.17516136, -7.71148777, 10.52789402, -17.97719955, 4.99853849, -60.71324158, 110.50287628, 22.27418137, -76.89424133, 0.33930460, -0.69984806, 0.41505635, 0.47203112, 0.16195609, 0.14864305, 0.17283520, 100.33100128, 83.07315826, 31.21999931, 0.00000000
1, 0.7500, 96, 0.23095703, -1.00811768, 0.13519287, -17.80516434, -6.24148703, 9.54789352, -18.53259277, 4.67699480, -60.91785812, 110.39505005, 22.24035454, -76.94384766, 0.33993179, -0.69928271, 0.41507336, 0.47240260, 0.14766999, 0.14074111, 0.18776116, 100.33100128, 83.07315826, 31.21999931, 0.00000000
1, 0.7000, 87, 0.22216514, -1.02891481, -0.01641191, -11.73862362, 16.97669601, -21.07914734, -19.38029861, 6.86933661, -70.97339630, 91.56457520, 11.18123150, 82.63687134, -0.56738073, 0.49085820, 0.52196807, 0.40581608, -0.02865231, 0.04820614, 0.04224937, 100.40400696, 76.94911194, 32.06999969, 0.00000000
1, 0.7050, 88, 0.24492092, -1.01685154, -0.00288391, -12.97515011, 16.42846680, -20.44552994, -19.52645493, 7.04472351, -71.06109619, 91.51625824, 11.28119946, 82.72322083, -0.56764781, 0.48977941, 0.52258068, 0.40595755, -0.04971600, 0.03644088, 0.02799020, 100.40400696, 76.94911194, 32.06999969, 0.00000000
1, 0.7100, 89, 0.27163276, -1.00811338, 0.00424761, -13.49622917, 15.63289738, -19.40629768, -19.52645493, 7.04472351, -71.06109619, 91.46469116, 11.37611675, 82.80533600, -0.56792450, 0.48872501, 0.52314138, 0.40611899, -0.07479751, 0.02799726, 0.02005760, 100.40400696, 76.94911194, 32.06999969, 0.00000000
1, 0.7550, 97, 0.25506592, -0.99517822, 0.11682129, -18.36516190, -4.98148680, 8.53289318, -18.53259277, 4.67699480, -60.91785812, 110.28762817, 22.20900726, -76.98509979, 0.34057769, -0.69875282, 0.41502887, 0.47276044, 0.12304249, 0.12699881, 0.20457938, 100.33100128, 83.07315826, 31.21999931, 0.00000000
1, 0.7600, 98, 0.28405762, -0.98052979, 0.10363770, -19.06516266, -3.93148637, 6.92289257, -18.53259277, 4.67699480, -60.91785812, 110.17989349, 22.18332100, -77.01793671, 0.34123048, -0.69826275, 0.41490486, 0.47312245, 0.09361143, 0.11157890, 0.21619067, 100.33100128, 83.07315826, 31.21999931, 0.00000000
1, 0.7150, 90, 0.29821748, -1.00065470, -0.00328563, -13.81743431, 15.98542118, -18.23708344, -18.88336754, 7.10318613, -71.76264191, 91.41196442, 11.46522713, 82.88903809, -0.56817847, 0.48768234, 0.52367955, 0.40632367, -0.09981437, 0.02084061, 0.02676191, 100.40400696, 76.94911194, 32.06999969, 0.00000000
1, 0.7200, 91, 0.32583937, -0.99690235, -0.00797986, -13.86491776, 17.24467278, -17.01469231, -18.88336754, 7.10318613, -71.76264191, 91.36035919, 11.54815483, 82.97895813, -0.56838208, 0.48664337, 0.52422130, 0.40658584, -0.12597817, 0.01736782, 0.03063489, 100.40400696, 76.94911194, 32.06999969, 0.00000000
1, 0.7250, 92, 0.35545468, -0.99795163, -0.00445352, -13.96834946, 17.24933624, -15.78643608, -18.88336754, 7.10318613, -71.76264191, 91.30561829, 11.64068794, 83.06578064, -0.56864434, 0.48555857, 0.52477705, 0.40679914, -0.15412927, 0.01869156, 0.02626533, 100.40400696, 76.94911194, 32.06999969, 0.00000000
1, 0.7300, 93, 0.37827399, -0.99735415, -0.00652156, -14.05806637, 16.16909218, -14.33885002, -19.73107338, 6.16778708, -71.32417297, 91.25216675, 11.71051311, 83.14982605, -0.56882721, 0.48459393, 0.52523077, 0.40710804, -0.17558432, 0.01835666, 0.02745785, 100.40400696, 76.94911194, 32.06999969, 0.00000000
1, 0.7350, 94, 0.39403290, -1.00121307, -0.01084143, -14.36775112, 15.67452621, -12.69924355, -19.73107338, 6.16778708, -71.32417297, 91.19670868, 11.77226639, 83.23112488, -0.56899804, 0.48366749, 0.52563143, 0.40745386, -0.19024163, 0.02242864, 0.03086377, 100.40400696, 76.94911194, 32.06999969, 0.00000000
1, 0.8200, 99, 0.42608643, -1.02355957, 0.08312988, -27.46516609, -11.28148842, -1.40711021, -17.68488693, 3.62467122, -61.61940765, 108.60725403, 22.25545502, -77.69474030, 0.34757733, -0.69123954, 0.41211936, 0.48118150, -0.04745382, 0.14659730, 0.21279903, 100.33100128, 83.07315826, 31.21999931, 0.00000000
1, 0.8250, 100, 0.41192627, -1.01782227, 0.08746338, -28.02516747, -11.45648861, -2.31711054, -17.80181122, 4.23852682, -61.64863968, 108.44639587, 22.28464127, -77.74945831, 0.34816766, -0.69061500, 0.41163450, 0.48206577, -0.03284224, 0.14021198, 0.20595591, 100.33100128, 83.07315826, 31.21999931, 0.00000000
1, 0.7900, 95, 0.43103144, -0.97299373, -0.00791403, -14.34425831, 0.25359312, 5.89612436, -19.20491028, 6.31394339, -71.82110596, 90.51999664, 11.97372150, 83.75886536, -0.57068139, 0.47696632, 0.52625269, 0.41216984, -0.22341380, -0.00516510, 0.01657486, 100.40400696, 76.94911194, 32.06999969, 0.00000000
1, 0.7950, 96, 0.42584431, -0.97721922, -0.01132164, -14.14412880, -1.14991021, 7.85809755, -19.20491028, 6.31394339, -71.82110596, 90.44809723, 11.93430614, 83.75270844, -0.57085943, 0.47681627, 0.52580601, 0.41266698, -0.21885063, -0.00107879, 0.01873608, 100.40400696, 76.94911194, 32.06999969, 0.00000000
1, 0.8300, 101, 0.39196777, -1.01544189, 0.09875488, -28.62016678, -12.15648842, -3.33211088, -17.80181122, 4.23852682, -61.64863968, 108.28178406, 22.31960487, -77.80612946, 0.34874129, -0.68998373, 0.41111633, 0.48299623, -0.01234716, 0.13720582, 0.19208719, 100.33100128, 83.07315826, 31.21999931, 0.00000000
1, 0.8350, 102, 0.38293457, -1.01361084, 0.10333252, -29.28516960, -12.99648857, -4.20711088, -17.36334419, 2.30926633, -62.05787659, 108.11269379, 22.35987854, -77.86576080, 0.34930083, -0.68933904, 0.41056988, 0.48397636, -0.00268532, 0.13477464, 0.18486348, 100.33100128, 83.07315826, 31.21999931, 0.00000000
1, 0.8400, 103, 0.37799072, -1.00231934, 0.11279297, -30.19516945, -14.29148960, -5.25711155, -17.36334419, 2.30926633, -62.05787659, 107.93708801, 22.40698814, -77.93045044, 0.34984162, -0.68867046, 0.40999144, 0.48502675, 0.00299817, 0.12289771, 0.17262681, 100.33100128, 83.07315826, 31.21999931, 0.00000000
1, 0.8000, 97, 0.42054546, -0.97867036, -0.00653395, -13.93939018, -2.90483809, 9.95184517, -19.20491028, 6.31394339, -71.82110596, 90.37539673, 11.88445377, 83.73757935, -0.57103515, 0.47675073, 0.52527541, 0.41317484, -0.21436968, 0.00018511, 0.01269874, 100.40400696, 76.94911194, 32.06999969, 0.00000000
1, 0.8050, 98, 0.41327307, -0.97260606, 0.01055830, -13.79488945, -5.53395605, 12.16573238, -19.20491028, 6.95702982, -71.90879822, 90.30071259, 11.82357025, 83.70903778, -0.57122755, 0.47678682, 0.52463567, 0.41367966, -0.20812300, -0.00612161, -0.00566889, 100.40400696, 76.94911194, 32.06999969, 0.00000000
1, 0.8100, 99, 0.39815837, -0.97187984, 0.01402432, -13.47436047, -8.11583996, 13.92282486, -19.20491028, 6.95702982, -71.90879822, 90.22499084, 11.75390148, 83.66736603, -0.57144004, 0.47691754, 0.52390045, 0.41416699, -0.19417331, -0.00710157, -0.01045736, 100.40400696, 76.94911194, 32.06999969, 0.00000000
1, 0.8450, 104, 0.37615967, -0.99420166, 0.12078857, -30.26516533, -15.06148911, -6.09711123, -17.36334419, 2.30926633, -62.05787659, 107.76001740, 22.45908546, -77.99789429, 0.35035220, -0.68799800, 0.40939716, 0.48611325, 0.00564886, 0.11422493, 0.16181147, 100.33100128, 83.07315826, 31.21999931, 0.00000000
1, 0.8500, 105, 0.37701416, -0.98541260, 0.13116455, -29.98516846, -15.90149021, -6.76211166, -16.89564514, 3.01081562, -61.91172028, 107.58298492, 22.51543808, -78.06877136, 0.35082445, -0.68732238, 0.40880081, 0.48722908, 0.00568582, 0.10491876, 0.14860450, 100.33100128, 83.07315826, 31.21999931, 0.00000000
1, 0.8550, 106, 0.38153076, -0.97882080, 0.14849854, -29.35516548, -17.02149200, -7.32211208, -16.89564514, 3.01081562, -61.91172028, 107.40708160, 22.57593727, -78.14474487, 0.35124511, -0.68664098, 0.40821722, 0.48837468, 0.00212833, 0.09785064, 0.12844321, 100.33100128, 83.07315826, 31.21999931, 0.00000000
1, 0.8600, 107, 0.38861084, -0.98382568, 0.16271973, -28.79516792, -19.05149269, -7.84711123, -17.71411896, 3.09850907, -62.23326492, 107.23010254, 22.64174843, -78.23060608, 0.35160089, -0.68593264, 0.40766001, 0.48957804, -0.00391360, 0.10241880, 0.11137757, 100.33100128, 83.07315826, 31.21999931, 0.00000000
1, 0.8650, 108, 0.39385986, -0.98815918, 0.17169189, -28.23516655, -21.46649361, -8.26711178, -17.71411896, 3.09850907, -62.23326492, 107.05114746, 22.71288300, -78.32855988, 0.35188711, -0.68518704, 0.40713826, 0.49084899, -0.00803772, 0.10635142, 0.09951997, 100.33100128, 83.07315826, 31.21999931, 0.00000000
1, 0.8150, 100, 0.36939943, -0.97121191, 0.02136117, -13.00037766, -11.57251453, 15.90247822, -19.29260445, 6.25548077, -71.93802643, 90.14817047, 11.67431736, 83.60813904, -0.57168508, 0.47716755, 0.52304602, 0.41462058, -0.16675913, -0.00806172, -0.01917304, 100.40400696, 76.94911194, 32.06999969, 0.00000000
1, 0.8200, 101, 0.34986514, -0.96468854, 0.01955014, -13.14990807, -13.49881649, 17.75128555, -19.29260445, 6.25548077, -71.93802643, 90.06874084, 11.58543205, 83.53919983, -0.57194299, 0.47749031, 0.52210194, 0.41508302, -0.14869721, -0.01488972, -0.01874446, 100.40400696, 76.94911194, 32.06999969, 0.00000000
1, 0.8250, 102, 0.32586834, -0.96169639, 0.02588463, -12.89651394, -16.17597008, 20.55852699, -19.29260445, 6.25548077, -71.93802643, 89.99089813, 11.49490070, 83.45573425, -0.57224160, 0.47789353, 0.52109474, 0.41547281, -0.12630332, -0.01821809, -0.02648529, 100.40400696, 76.94911194, 32.06999969, 0.00000000
1, 0.8300, 103, 0.28830147, -0.97119129, 0.02011035, -12.80888557, -19.58008003, 24.57737923, -19.02952385, 5.61239386, -72.52265167, 89.90744019, 11.37160015, 83.35618591, -0.57250428, 0.47848925, 0.51986146, 0.41597012, -0.09063064, -0.00909983, -0.02220980, 100.40400696, 76.94911194, 32.06999969, 0.00000000
1, 0.8350, 104, 0.22838920, -0.98276067, 0.00015405, -13.08462334, -22.17029572, 29.39140511, -19.02952385, 5.61239386, -72.52265167, 89.82034302, 11.22403526, 83.24375916, -0.57274216, 0.47923324, 0.51845688, 0.41653877, -0.03308793, 0.00202048, -0.00389826, 100.40400696, 76.94911194, 32.06999969, 0.00000000
1, 0.8800, 109, 0.38366699, -0.97943115, 0.15307617, -26.34516525, -28.15149498, -11.10211372, -16.45717621, 3.06927800, -62.81789017, 106.50588989, 22.96879005, -78.68636322, 0.35228652, -0.68279386, 0.40569273, 0.49507597, 0.00618020, 0.09670821, 0.10925698, 100.33100128, 83.07315826, 31.21999931, 0.00000000
1, 0.8850, 110, 0.37084961, -0.97406006, 0.14166260, -25.68016624, -29.83149719, -12.32711411, -17.21718788, 3.24466538, -62.84711838, 106.32409668, 23.07006645, -78.82289124, 0.35225666, -0.68197185, 0.40522864, 0.49660799, 0.02059207, 0.09115882, 0.11767933, 100.33100128, 83.07315826, 31.21999931, 0.00000000
1, 0.8600, 105, 0.05941657, -0.99390125, 0.08310544, -11.73027897, -25.48567963, 54.98839569, -18.79567337, 5.23238802, -72.23033905, 89.40341949, 10.09516239, 82.61318970, -0.57270998, 0.48506904, 0.50949228, 0.42086700, 0.11686959, 0.00951309, -0.09449034, 100.40400696, 76.94911194, 32.06999969, 0.00000000
1, 0.8650, 106, 0.04437762, -1.01566935, 0.07944368, -12.12703705, -26.67220116, 60.78382874, -19.46799088, 4.79392004, -73.07804871, 89.32086182, 9.78940487, 82.48175812, -0.57243401, 0.48660859, 0.50731808, 0.42208973, 0.12676257, 0.03039213, -0.09232195, 100.40400696, 76.94911194, 32.06999969, 0.00000000
1, 0.8900, 111, 0.35717773, -0.96826172, 0.12609863, -25.12016487, -31.12649345, -13.34211445, -17.21718788, 3.24466538, -62.84711838, 106.14264679, 23.17761612, -78.96509552, 0.35216412, -0.68114603, 0.40476504, 0.49818259, 0.03596628, 0.08523975, 0.13023934, 100.33100128, 83.07315826, 31.21999931, 0.00000000
1, 0.8950, 112, 0.34368896, -0.96575928, 0.11364746, -24.21016502, -32.59649658, -14.28711414, -17.21718788, 3.24466538, -62.84711838, 105.96282959, 23.29133606, -79.11404419, 0.35199675, -0.68031657, 0.40431431, 0.49979758, 0.05125431, 0.08267701, 0.13969986, 100.33100128, 83.07315826, 31.21999931, 0.00000000
1, 0.9000, 113, 0.33239746, -0.96667480, 0.10235596, -23.37016678, -33.82149506, -15.09211445, -16.39871407, 3.01081562, -63.46097565, 105.78467560, 23.41017151, -79.26874542, 0.35176405, -0.67948508, 0.40387544, 0.50144476, 0.06443213, 0.08359046, 0.14801872, 100.33100128, 83.07315826, 31.21999931, 0.00000000
1, 0.8700, 107, 0.01779857, -1.03780389, 0.05370110, -12.86704540, -31.95796967, 65.99517822, -19.46799088, 4.79392004, -73.07804871, 89.23105621, 9.45701218, 82.32447052, -0.57218874, 0.48833820, 0.50488287, 0.42334294, 0.14782430, 0.05163325, -0.06820457, 100.40400696, 76.94911194, 32.06999969, 0.00000000
1, 0.8750, 108, 0.02790933, -1.03739667, 0.08089011, -13.34646797, -32.73864746, 69.34769440, -20.34492874, 5.58316278, -71.76264191, 89.14422607, 9.10182190, 82.16603851, -0.57185370, 0.49018052, 0.50234360, 0.42468500, 0.13164479, 0.05021292, -0.09690708, 100.40400696, 76.94911194, 32.06999969, 0.00000000
1, 0.8800, 109, 0.05395764, -1.02119410, 0.09558266, -14.10527229, -34.16071701, 71.74205780, -20.34492874, 5.58316278, -71.76264191, 89.04876709, 8.74001503, 81.99948883, -0.57156312, 0.49203533, 0.49969661, 0.42605191, 0.09932511, 0.03302208, -0.11311245, 100.40400696, 76.94911194, 32.06999969, 0.00000000
1, 0.9050, 114, 0.31829834, -0.97393799, 0.09790039, -21.90016556, -34.73149490, -15.47711468, -16.39871407, 3.01081562, -63.46097565, 105.61167145, 23.53165054, -79.42817688, 0.35146204, -0.67866045, 0.40346974, 0.50309700, 0.08046871, 0.09090129, 0.14954709, 100.33100128, 83.07315826, 31.21999931, 0.00000000
1, 0.9100, 115, 0.30828857, -0.98022461, 0.09814453, -20.39516449, -35.11649704, -15.65211487, -15.87255192, 3.15697169, -63.51943970, 105.44496918, 23.65406418, -79.58991241, 0.35110348, -0.67785120, 0.40309638, 0.50473505, 0.09243327, 0.09728611, 0.14647976, 100.33100128, 83.07315826, 31.21999931, 0.00000000
1, 0.9150, 116, 0.29516602, -0.98840332, 0.10656738, -18.15516281, -35.22149658, -15.61711502, -15.87255192, 3.15697169, -63.51943970, 105.28869629, 23.77603149, -79.75277710, 0.35067639, -0.67707092, 0.40277347, 0.50633442, 0.10751161, 0.10561831, 0.13538460, 100.33100128, 83.07315826, 31.21999931, 0.00000000
1, 0.9200, 117, 0.28668213, -0.99035645, 0.12182617, -16.12516403, -35.11649704, -15.58211517, -15.87255192, 3.15697169, -63.51943970, 105.14225769, 23.89729118, -79.91564941, 0.35019076, -0.67632109, 0.40249357, 0.50789285, 0.11793588, 0.10777161, 0.11760584, 100.33100128, 83.07315826, 31.21999931, 0.00000000
1, 0.9250, 118, 0.27899170, -0.99224854, 0.13153076, -13.81516171, -35.25650024, -14.98711491, -15.81408882, 2.86465931, -63.87021255, 105.00620270, 24.01549149, -80.08059692, 0.34964666, -0.67559081, 0.40228322, 0.50940412, 0.12752554, 0.10990104, 0.10554753, 100.33100128, 83.07315826, 31.21999931, 0.00000000
1, 0.8850, 110, 0.07236405, -1.00783050, 0.05223158, -14.60229015, -33.73120880, 74.00196075, -20.34492874, 5.58316278, -71.76264191, 88.95236206, 8.36667919, 81.83612061, -0.57122445, 0.49391276, 0.49699643, 0.42748982, 0.07463285, 0.01878571, -0.07137464, 100.40400696, 76.94911194, 32.06999969, 0.00000000
1, 0.8900, 111, 0.09166011, -1.00165021, 0.00970726, -15.10276413, -33.02239227, 76.23350525, -20.84185982, 5.46623802, -72.81496429, 88.85523224, 7.98198366, 81.67735291, -0.57083166, 0.49580646, 0.49425012, 0.42900363, 0.04884940, 0.01174832, -0.03048080, 100.40400696, 76.94911194, 32.06999969, 0.00000000
1, 0.8950, 112, 0.10482685, -0.99814343, -0.00599997, -15.65465164, -36.81487656, 78.77905273, -20.84185982, 5.46623802, -72.81496429, 88.75400543, 7.58385038, 81.50055695, -0.57047647, 0.49780563, 0.49133694, 0.43050477, 0.02889753, 0.00735819, -0.01648258, 100.40400696, 76.94911194, 32.06999969, 0.00000000
1, 0.9000, 113, 0.09816089, -0.98796570, -0.02223866, -15.99282074, -43.56703186, 81.35649872, -21.25109673, 4.61853266, -73.34112549, 88.64814758, 7.17170048, 81.29094696, -0.57021546, 0.49997079, 0.48818558, 0.43192405, 0.02853243, -0.00368054, -0.00207755, 100.40400696, 76.94911194, 32.06999969, 0.00000000
1, 0.9050, 114, 0.07807289, -0.97839057, -0.03953846, -15.52288246, -49.47815704, 84.01378632, -21.25109673, 4.61853266, -73.34112549, 88.54273987, 6.74511814, 81.05287933, -0.57000965, 0.50230712, 0.48482952, 0.43326309, 0.04133865, -0.01409053, 0.01333201, 100.40400696, 76.94911194, 32.06999969, 0.00000000
1, 0.9550, 119, 0.21032715, -1.02227783, 0.15509033, -6.57015944, -32.42149734, -7.25211191, -15.60947037, 2.42619109, -63.69482422, 104.33269501, 24.59424210, -81.11600494, 0.34594190, -0.67122012, 0.40250483, 0.51747251, 0.20557112, 0.14127138, 0.07042267, 100.33100128, 83.07315826, 31.21999931, 0.00000000
1, 0.9600, 120, 0.20526123, -1.01025391, 0.16186523, -7.30515862, -30.35649681, -6.16711140, -15.49254608, 2.86465931, -64.27944946, 104.23222351, 24.66157341, -81.26943970, 0.34548312, -0.67053205, 0.40261698, 0.51858240, 0.21173613, 0.12934132, 0.06197856, 100.33100128, 83.07315826, 31.21999931, 0.00000000
1, 0.9400, 115, -0.15259422, -0.91508257, -0.04657535, -8.24404812, -66.94814301, 93.28427887, -22.56650162, 4.23852682, -73.69190216, 87.96591949, 3.49063158, 78.95045471, -0.56860638, 0.52186018, 0.45820042, 0.44090936, 0.21567635, -0.08223569, 0.00952780, 100.40400696, 76.94911194, 32.06999969, 0.00000000
1, 0.9450, 116, -0.16770001, -0.91975713, -0.04345930, -7.61543226, -65.96946716, 93.36970520, -22.56650162, 4.23852682, -73.69190216, 87.91127014, 3.01161885, 78.63790894, -0.56828463, 0.52480590, 0.45429090, 0.44187251, 0.22242925, -0.07802262, 0.00537414, 100.40400696, 76.94911194, 32.06999969, 0.00000000
1, 0.9650, 121, 0.19787598, -0.98461914, 0.16308594, -8.21515942, -28.50149536, -5.04711103, -15.49254608, 2.86465931, -64.27944946, 104.13046265, 24.72094727, -81.41471100, 0.34510830, -0.66985136, 0.40271279, 0.51963627, 0.22009575, 0.10374580, 0.05908885, 100.33100128, 83.07315826, 31.21999931, 0.00000000
1, 0.9700, 122, 0.18798828, -0.95416260, 0.16418457, -8.56516075, -27.17149544, -3.82211065, -15.49254608, 2.86465931, -64.27944946, 104.02903748, 24.77252960, -81.55469513, 0.34479430, -0.66917294, 0.40281573, 0.52063811, 0.23083167, 0.07327558, 0.05633226, 100.33100128, 83.07315826, 31.21999931, 0.00000000
1, 0.9750, 123, 0.18060303, -0.92602539, 0.16711426, -8.56516075, -26.29649353, -2.56211042, -15.02484608, 2.98158431, -64.27944946, 103.92870331, 24.81672478, -81.69182587, 0.34452373, -0.66849124, 0.40294167, 0.52159464, 0.23894596, 0.04507935, 0.05177516, 100.33100128, 83.07315826, 31.21999931, 0.00000000
1, 0.9500, 117, -0.18472520, -0.91979885, -0.04662354, -7.37423897, -65.33902740, 93.31156158, -23.06343079, 4.00467682, -74.51037598, 87.86064148, 2.53271699, 78.32907867, -0.56793159, 0.52773124, 0.45039159, 0.44283277, 0.23111108, -0.07836436, 0.00758190, 100.40400696, 76.94911194, 32.06999969, 0.00000000
1, 0.9550, 118, -0.20818463, -0.92082238, -0.06199598, -6.96203995, -64.21216583, 92.94760895, -23.06343079, 4.00467682, -74.51037598, 87.81486511, 2.05560970, 78.02632904, -0.56754023, 0.53062481, 0.44652551, 0.44379091, 0.24628180, -0.07763550, 0.02206067, 100.40400696, 76.94911194, 32.06999969, 0.00000000
1, 0.9600, 119, -0.23430596, -0.92139983, -0.07443499, -6.53416824, -61.47878265, 92.41142273, -23.06343079, 4.00467682, -74.51037598, 87.77419281, 1.58150947, 77.73757935, -0.56708264, 0.53345281, 0.44273728, 0.44477993, 0.26414865, -0.07728982, 0.03369260, 100.40400696, 76.94911194, 32.06999969, 0.00000000
1, 0.9650, 120, -0.25617981, -0.91540301, -0.08299156, -6.18747568, -57.97356415, 91.61425018, -23.47266769, 3.80005836, -74.36421967, 87.73800659, 1.11193097, 77.46656036, -0.56655204, 0.53619337, 0.43905091, 0.44581375, 0.27783000, -0.08345696, 0.04154572, 100.40400696, 76.94911194, 32.06999969, 0.00000000
1, 0.9700, 121, -0.26959586, -0.91330910, -0.08740107, -5.98502445, -54.35934448, 90.57614899, -23.47266769, 3.80005836, -74.36421967, 87.70531464, 0.64811534, 77.21371460, -0.56595540, 0.53883690, 0.43547249, 0.44689268, 0.28313640, -0.08566189, 0.04533877, 100.40400696, 76.94911194, 32.06999969, 0.00000000
1, 0.9750, 122, -0.27509746, -0.90716743, -0.08987340, -6.05775738, -51.48282242, 89.69923401, -24.14498711, 1.66617942, -73.83805847, 87.67240143, 0.17818804, 76.97657776, -0.56527466, 0.54142302, 0.43191946, 0.44807506, 0.28052443, -0.09185172, 0.04723959, 100.40400696, 76.94911194, 32.06999969, 0.00000000
1, 0.9800, 124, 0.16198730, -0.89245605, 0.16717529, -7.97016001, -26.08649445, -0.60210985, -15.02484608, 2.98158431, -64.27944946, 103.83057404, 24.85093117, -81.83057404, 0.34428364, -0.66778779, 0.40313461, 0.52250439, 0.25815323, 0.01139909, 0.05012725, 100.33100128, 83.07315826, 31.21999931, 0.00000000
1, 0.9850, 125, 0.14605713, -0.88031006, 0.16644287, -7.16515970, -26.54149628, 1.49789083, -14.67407131, 2.39696002, -64.92253876, 103.73419952, 24.87528419, -81.97457123, 0.34405947, -0.66704822, 0.40341321, 0.52338088, 0.27449948, -0.00092489, 0.04932807, 100.33100128, 83.07315826, 31.21999931, 0.00000000
1, 0.9900, 126, 0.12719727, -0.87432861, 0.16644287, -6.50015926, -27.48649597, 3.17789149, -14.67407131, 2.39696002, -64.92253876, 103.63800812, 24.89236069, -82.12591553, 0.34383717, -0.66626650, 0.40376958, 0.52424723, 0.29365736, -0.00713277, 0.04781640, 100.33100128, 83.07315826, 31.21999931, 0.00000000
1, 0.9800, 123, -0.27033734, -0.90621400, -0.09442618, -5.72911215, -43.86795425, 87.45796204, -24.14498711, 1.66617942, -73.83805847, 87.64498901, -0.26809111, 76.77603912, -0.56451219, 0.54378670, 0.42866123, 0.44930118, 0.26782686, -0.09278699, 0.05129376, 100.40400696, 76.94911194, 32.06999969, 0.00000000
1, 0.9850, 124, -0.26299897, -0.90829718, -0.09060387, -5.35000277, -40.24298096, 86.03228760, -24.14498711, 1.66617942, -73.83805847, 87.62085724, -0.70656699, 76.59346771, -0.56369114, 0.54605234, 0.42552584, 0.45056295, 0.25279319, -0.09064160, 0.04705346, 100.40400696, 76.94911194, 32.06999969, 0.00000000
1, 1.0000, 125, -0.22531383, -0.92804205, -0.08953974, -5.91286564, -33.15187454, 80.60011292, -25.19731140, 3.24466538, -74.13037109, 87.54940033, -1.96754491, 76.12276459, -0.56111258, 0.55227113, 0.41668934, 0.45444402, 0.19297577, -0.07037117, 0.04482868, 100.40900421, 76.53004456, 32.06999969, 0.00000000
1, 1.0050, 126, -0.20837367, -0.93334305, -0.08174283, -6.20984888, -32.64601135, 78.26745605, -25.19731140, 3.24466538, -74.13037109, 87.52482605, -2.36584830, 75.97705841, -0.56029159, 0.55418903, 0.41388330, 0.45568454, 0.16901438, -0.06481227, 0.03664846, 100.40900421, 76.53004456, 32.06999969, 0.00000000
1, 0.9950, 127, 0.11242676, -0.86962891, 0.16491699, -5.73015881, -28.78149414, 5.06789207, -14.67407131, 2.39696002, -64.92253876, 103.54167175, 24.90153694, -82.28668976, 0.34361234, -0.66543227, 0.40421730, 0.52510840, 0.30860668, -0.01211107, 0.04783962, 100.33100128, 83.07315826, 31.21999931, 0.00000000
1, 1.0000, 128, 0.09802246, -0.86712646, 0.16040039, -4.64515877, -30.60149765, 6.85289240, -14.79099655, 2.92312193, -65.18561554, 103.44566345, 24.90392303, -82.45954895, 0.34336418, -0.66453999, 0.40476832, 0.52597564, 0.32307267, -0.01494104, 0.05087137, 100.33100128, 83.07315826, 31.21999931, 0.00000000
1, 1.0100, 127, -0.18979466, -0.93071008, -0.07701375, -6.50180721, -32.55785370, 75.92477417, -25.19731140, 3.24466538, -74.13037109, 87.49977875, -2.75249386, 75.83138275, -0.55951530, 0.55604839, 0.41112465, 0.45686907, 0.14363307, -0.06714285, 0.03155150, 100.40900421, 76.53004456, 32.06999969, 0.00000000
1, 1.0150, 128, -0.17028730, -0.92304158, -0.07887010, -6.90390825, -32.19133759, 73.55509186, -26.07424736, 3.53697753, -74.53960419, 87.47357178, -3.12730026, 75.68713379, -0.55878258, 0.55784100, 0.40841889, 0.45800620, 0.11754539, -0.07446158, 0.03303105, 100.40900421, 76.53004456, 32.06999969, 0.00000000
1, 1.0200, 129, -0.15530470, -0.91102314, -0.08651776, -7.33728123, -32.20553970, 71.07156372, -26.07424736, 3.53697753, -74.53960419, 87.44611359, -3.48975849, 75.54238129, -0.55810374, 0.55957210, 0.40575945, 0.45908460, 0.09620965, -0.08608870, 0.04027734, 100.40900421, 76.53004456, 32.06999969, 0.00000000
1, 1.0150, 129, 0.05175781, -0.89276123, 0.14416504, -0.65515727, -38.79150009, 12.31289482, -13.68021011, 2.10464764, -65.03945923, 103.15441132, 24.87292862, -83.07618713, 0.34237552, -0.66140991, 0.40714872, 0.52872097, 0.36891752, 0.00944304, 0.06267081, 100.33100128, 83.07315826, 31.21999931, 0.00000000
1, 1.0200, 130, 0.04327393, -0.89935303, 0.13665771, 0.74484318, -42.29150009, 14.20289516, -13.68021011, 2.10464764, -65.03945923, 103.05522919, 24.85170746, -83.32091522, 0.34192976, -0.66019177, 0.40820679, 0.52971512, 0.37709618, 0.01554295, 0.06869190, 100.33100128, 83.07315826, 31.21999931, 0.00000000
1, 1.0250, 131, 0.02978516, -0.91076660, 0.12493896, 2.56484365, -46.59650421, 16.93289566, -14.76176548, 1.87079799, -64.48406982, 102.95416260, 24.82163811, -83.59206390, 0.34141657, -0.65884990, 0.40944815, 0.53075790, 0.39013350, 0.02639142, 0.07889624, 100.33100128, 83.07315826, 31.21999931, 0.00000000
1, 1.0300, 132, 0.02239990, -0.91467285, 0.10961914, 4.17484426, -47.29650116, 18.22789574, -14.76176548, 1.87079799, -64.48406982, 102.85909271, 24.78562164, -83.86842346, 0.34087285, -0.65748942, 0.41077238, 0.53177011, 0.39697286, 0.02970824, 0.09277640, 100.33100128, 83.07315826, 31.21999931, 0.00000000
1, 1.0350, 133, 0.01452637, -0.91400146, 0.09191895, 5.88984489, -46.31649780, 19.55789566, -13.94329166, 2.42619109, -65.59485626, 102.77435303, 24.74164009, -84.14100647, 0.34032673, -0.65615016, 0.41215804, 0.53270119, 0.40418392, 0.02843044, 0.10919186, 100.33100128, 83.07315826, 31.21999931, 0.00000000
1, 1.0250, 130, -0.14179906, -0.90079975, -0.09103730, -7.58896732, -32.56373978, 68.47235870, -25.84039688, 2.89389062, -73.77959442, 87.41563416, -3.84368014, 75.39587402, -0.55747831, 0.56125224, 0.40311432, 0.46012247, 0.07653327, -0.09589595, 0.04435830, 100.40900421, 76.53004456, 32.06999969, 0.00000000
1, 1.0300, 131, -0.12719579, -0.87954724, -0.10111295, -8.04733849, -33.63814163, 65.15769196, -25.84039688, 2.89389062, -73.77959442, 87.38692474, -4.17711115, 75.24280548, -0.55694866, 0.56287825, 0.40054089, 0.46102437, 0.05602501, -0.11670232, 0.05400763, 100.40900421, 76.53004456, 32.06999969, 0.00000000
1, 1.0350, 132, -0.12979347, -0.87238860, -0.11396230, -8.38352489, -35.87363815, 62.37461472, -25.84039688, 2.89389062, -73.77959442, 87.35826111, -4.49725342, 75.07797241, -0.55651677, 0.56448656, 0.39797014, 0.46180496, 0.05302547, -0.12339845, 0.06637834, 100.40900421, 76.53004456, 32.06999969, 0.00000000
1, 1.0400, 133, -0.14007737, -0.86574686, -0.13378236, -8.24483871, -39.30663681, 58.85591125, -26.13270950, 3.33235884, -74.24729156, 87.33259583, -4.80071068, 74.89517975, -0.55620676, 0.56610084, 0.39540130, 0.46240875, 0.05801945, -0.12955983, 0.08574291, 100.40900421, 76.53004456, 32.06999969, 0.00000000
1, 1.0450, 134, -0.15886272, -0.87312973, -0.14316078, -8.30374622, -40.94701004, 56.04843903, -26.13270950, 3.33235884, -74.24729156, 87.30831146, -5.09064722, 74.70352936, -0.55597794, 0.56769294, 0.39285660, 0.46290064, 0.07172809, -0.12170754, 0.09465645, 100.40900421, 76.53004456, 32.06999969, 0.00000000
1, 1.0400, 134, 0.00988770, -0.91430664, 0.07623291, 8.02484608, -43.48149872, 21.02789497, -13.94329166, 2.42619109, -65.59485626, 102.70620728, 24.68702698, -84.39997864, 0.33980304, -0.65487891, 0.41359136, 0.53348827, 0.40800041, 0.02811229, 0.12383961, 100.33100128, 83.07315826, 31.21999931, 0.00000000
1, 1.0450, 135, 0.00140381, -0.91998291, 0.06237793, 9.94984531, -39.49149704, 22.35789680, -13.94329166, 2.42619109, -65.59485626, 102.65626526, 24.62130547, -84.63894653, 0.33932588, -0.65370232, 0.41504654, 0.53410465, 0.41548756, 0.03315206, 0.13695236, 100.33100128, 83.07315826, 31.21999931, 0.00000000
1, 1.0500, 136, -0.01477051, -0.92706299, 0.03515625, 11.20984650, -35.22149277, 24.07289696, -14.70330334, 2.22157264, -64.95176697, 102.62165070, 24.54239273, -84.85686493, 0.33892870, -0.65261024, 0.41651505, 0.53454882, 0.43046510, 0.03956491, 0.16370308, 100.33100128, 83.07315826, 31.21999931, 0.00000000
1, 1.0750, 135, -0.26135132, -0.88167417, -0.16607557, -6.46301603, -39.03794861, 35.07424927, -27.27272606, -0.55539316, -74.68576050, 87.20967865, -6.51384830, 73.50930786, -0.55578005, 0.57630056, 0.37906992, 0.46399599, 0.14919466, -0.11052704, 0.11573903, 100.40900421, 76.53004456, 32.06999969, 0.00000000
1, 1.0800, 136, -0.24888940, -0.87459636, -0.16919605, -6.71338987, -36.98295975, 30.60468483, -27.27272606, -0.55539316, -74.68576050, 87.19694519, -6.67607498, 73.33117676, -0.55593544, 0.57739347, 0.37726760, 0.46392009, 0.13372827, -0.11723994, 0.11862172, 100.40900421, 76.53004456, 32.06999969, 0.00000000
1, 1.0550, 137, -0.03540039, -0.93859863, 0.01330566, 11.69984627, -31.93149757, 26.34789658, -14.70330334, 2.22157264, -64.95176697, 102.59605408, 24.44867897, -85.05968475, 0.33862919, -0.65155852, 0.41800970, 0.53485489, 0.44965053, 0.05036360, 0.18527727, 100.33100128, 83.07315826, 31.21999931, 0.00000000
1, 1.0600, 138, -0.05816650, -0.94891357, -0.00476074, 12.64484692, -25.59649467, 28.41290092, -14.23560333, 1.49079216, -65.50716400, 102.58858490, 24.33793640, -85.23083496, 0.33846545, -0.65062875, 0.41949007, 0.53493130, 0.47073495, 0.05988982, 0.20331517, 100.33100128, 83.07315826, 31.21999931, 0.00000000
1, 1.0850, 137, -0.24588490, -0.87031174, -0.18631229, -6.52058506, -36.50285339, 25.14553642, -27.27272606, -0.55539316, -74.68576050, 87.18546295, -6.81096792, 73.15403748, -0.55618674, 0.57838905, 0.37561625, 0.46371865, 0.12828548, -0.12119501, 0.13555890, 100.40900421, 76.53004456, 32.06999969, 0.00000000
1, 1.0900, 138, -0.24792421, -0.87668502, -0.17525448, -6.03500032, -36.52672195, 20.47684288, -27.71119499, 2.74773455, -74.71499634, 87.17688751, -6.92256689, 72.97556305, -0.55651903, 0.57931805, 0.37409031, 0.46339363, 0.12825854, -0.11458741, 0.12433365, 100.40900421, 76.53004456, 32.06999969, 0.00000000
1, 1.0950, 139, -0.24927206, -0.89322674, -0.14107376, -6.07942247, -37.27526093, 13.86975765, -27.71119499, 2.74773455, -74.71499634, 87.16897583, -7.00139904, 72.79160309, -0.55699706, 0.58015132, 0.37271044, 0.46288854, 0.12803531, -0.09791476, 0.09000055, 100.40900421, 76.53004456, 32.06999969, 0.00000000
1, 1.0900, 139, -0.08996582, -0.94726563, 0.03924561, 19.74985123, -14.60649109, 34.04790497, -14.93715286, 2.16311026, -65.36100769, 102.74623108, 23.52398300, -86.05342865, 0.33810169, -0.64594167, 0.42884454, 0.53342193, 0.48970795, 0.05317926, 0.16278225, 100.33100128, 83.07315826, 31.21999931, 0.00000000
1, 1.0950, 140, -0.09246826, -0.95483398, 0.04980469, 21.60485077, -13.55648899, 35.06290436, -14.76176548, 1.98772287, -65.36100769, 102.80876923, 23.36800003, -86.16773224, 0.33805466, -0.64528769, 0.43053487, 0.53288156, 0.48974282, 0.05990783, 0.15336937, 100.33100128, 83.07315826, 31.21999931, 0.00000000
1, 1.1000, 141, -0.09429932, -0.97235107, 0.06646729, 24.12485123, -12.19148922, 36.49790192, -14.76176548, 1.98772287, -65.36100769, 102.88635254, 23.20363998, -86.27661133, 0.33799431, -0.64467311, 0.43230230, 0.53223217, 0.48896167, 0.07659507, 0.13813503, 100.33100128, 83.07315826, 31.21999931, 0.00000000
1, 1.1000, 140, -0.26605877, -0.90805864, -0.12612557, -7.24520779, -39.39398193, 7.34944391, -27.06810760, 0.20461853, -74.56884003, 87.15686035, -7.04827166, 72.59529114, -0.55766934, 0.58089119, 0.37141863, 0.46218899, 0.14382783, -0.08298061, 0.07480446, 100.40900421, 76.53004456, 32.06999969, 0.00000000
1, 1.1050, 141, -0.28410572, -0.91443920, -0.13147734, -8.07421780, -40.13197708, 0.01649975, -27.06810760, 0.20461853, -74.56884003, 87.14129639, -7.05875254, 72.39337921, -0.55852139, 0.58150476, 0.37027612, 0.46130431, 0.16154447, -0.07653609, 0.07984567, 100.40900421, 76.53004456, 32.06999969, 0.00000000
1, 1.1100, 142, -0.29198211, -0.90582275, -0.16128935, -7.88480949, -36.85494232, -7.33886576, -27.06810760, 0.20461853, -74.56884003, 87.12477112, -7.03171682, 72.20603180, -0.55946296, 0.58193624, 0.36940229, 0.46031892, 0.16980298, -0.08512739, 0.10936521, 100.40900421, 76.53004456, 32.06999969, 0.00000000
1, 1.1050, 142, -0.09179688, -0.99041748, 0.08129883, 25.20985031, -11.00148869, 37.75790405, -14.76176548, 1.98772287, -65.36100769, 102.97147369, 23.03195000, -86.38082886, 0.33795381, -0.64407587, 0.43411115, 0.53150821, 0.48373687, 0.09382565, 0.12486948, 100.33100128, 83.07315826, 31.21999931, 0.00000000
1, 1.1100, 143, -0.08538818, -1.00775146, 0.09332275, 25.55985260, -9.70648766, 39.12290573, -14.79099655, 2.04618526, -65.59485626, 103.06060791, 22.85229492, -86.48001862, 0.33795819, -0.64348525, 0.43594560, 0.53071880, 0.47447586, 0.11029963, 0.11450016, 100.33100128, 83.07315826, 31.21999931, 0.00000000
1, 1.1150, 144, -0.08093262, -1.02032471, 0.09790039, 25.34985161, -8.06148815, 40.76790237, -14.79099655, 2.04618526, -65.59485626, 103.15150452, 22.66290665, -86.57271576, 0.33803636, -0.64289546, 0.43779516, 0.52986062, 0.46701354, 0.12197085, 0.11162543, 100.33100128, 83.07315826, 31.21999931, 0.00000000
1, 1.1150, 143, -0.29644638, -0.90447640, -0.19550881, -5.99458551, -29.92498398, -13.89271641, -27.00964546, 1.84156680, -74.51037598, 87.11343384, -6.97018480, 72.05185699, -0.56037581, 0.58216709, 0.36890092, 0.45931751, 0.17527500, -0.08651957, 0.14334384, 100.40900421, 76.53004456, 32.06999969, 0.00000000
1, 1.1200, 144, -0.31258947, -0.92508233, -0.18766290, -3.18610311, -22.21205330, -19.35297394, -27.00964546, 1.84156680, -74.51037598, 87.11135101, -6.87937737, 71.93506622, -0.56120235, 0.58222264, 0.36878243, 0.45833206, 0.19284806, -0.06609934, 0.13534006, 100.40900421, 76.53004456, 32.06999969, 0.00000000
1, 1.1200, 145, -0.08538818, -1.02923584, 0.09991455, 25.10485077, -6.17148685, 42.34290314, -15.11254025, 2.16311026, -64.92253876, 103.24445343, 22.46384048, -86.65759277, 0.33819240, -0.64231271, 0.43965328, 0.52892840, 0.46830076, 0.12993704, 0.11136448, 100.33100128, 83.07315826, 31.21999931, 0.00000000
1, 1.1250, 146, -0.08166504, -1.03186035, 0.10424805, 25.06985283, -4.24648619, 43.77790833, -15.11254025, 2.16311026, -64.92253876, 103.34059906, 22.25569344, -86.73435974, 0.33841786, -0.64174330, 0.44152042, 0.52791929, 0.46125638, 0.13158084, 0.10883968, 100.33100128, 83.07315826, 31.21999931, 0.00000000
1, 1.1450, 145, -0.38166639, -0.96962082, -0.11226287, -1.89717126, 21.16741562, -45.74621964, -26.42502213, 2.54311609, -75.21192932, 87.07066345, -6.06059265, 71.93134308, -0.56454641, 0.57922274, 0.37294963, 0.45463935, 0.27534509, -0.02320361, 0.05899792, 100.40900421, 76.53004456, 32.06999969, 0.00000000
1, 1.1500, 146, -0.29006737, -0.94987106, -0.08751088, -3.02571797, 39.33832169, -52.97517395, -26.19117165, 2.92312193, -74.91961670, 87.03597260, -5.78570318, 72.11468506, -0.56503713, 0.57750106, 0.37519264, 0.45437455, 0.18824479, -0.04344389, 0.03394833, 100.40900421, 76.53004456, 32.06999969, 0.00000000
1, 1.2050, 147, 0.07958984, -1.02716064, 0.05444336, 26.11985016, 34.95352554, 43.60290527, -17.36334419, 1.57848585, -63.54866791, 105.23995972, 18.15750504, -87.02679443, 0.34842992, -0.63501173, 0.47079307, 0.50369698, 0.23309991, 0.11052525, 0.19456038, 100.33100128, 83.07315826, 31.21999931, 0.00000000
1, 1.2100, 148, 0.13458252, -1.01995850, 0.07800293, 25.48985100, 40.02853012, 41.46790695, -17.74334908, 0.81847411, -63.31481934, 105.41239166, 17.90463829, -86.88143158, 0.34945604, -0.63542473, 0.47189188, 0.50143194, 0.17389771, 0.10274561, 0.17410544, 100.33100128, 83.07315826, 31.21999931, 0.00000000
1, 1.2150, 149, 0.17443848, -1.01080322, 0.10943604, 24.96485138, 43.77352905, 39.36790466, -17.74334908, 0.81847411, -63.31481934, 105.58798218, 17.65646935, -86.71517944, 0.35052517, -0.63595009, 0.47286025, 0.49910200, 0.12989725, 0.09307857, 0.14582743, 100.33100128, 83.07315826, 31.21999931, 0.00000000
1, 1.2200, 150, 0.19873047, -1.00305176, 0.13616943, 24.54484940, 46.43352890, 37.23290253, -18.24028015, 1.84156680, -62.93481445, 105.76545715, 17.41449738, -86.53350067, 0.35161158, -0.63656604, 0.47371584, 0.49673566, 0.10154955, 0.08488257, 0.12227890, 100.33100128, 83.07315826, 31.21999931, 0.00000000
1, 1.2250, 151, 0.21765137, -0.99957275, 0.17163086, 24.78985214, 47.37852859, 35.23789978, -18.24028015, 1.84156680, -62.93481445, 105.94538116, 17.18029022, -86.34523773, 0.35266477, -0.63724244, 0.47450316, 0.49436477, 0.07869612, 0.08103491, 0.09002688, 100.33100128, 83.07315826, 31.21999931, 0.00000000
1, 1.2300, 152, 0.22058105, -1.00048828, 0.20263672, 24.50985146, 47.13352966, 33.87290573, -18.24028015, 1.84156680, -62.93481445, 106.12310028, 16.95241356, -86.15723419, 0.35368848, -0.63793254, 0.47524655, 0.49202359, 0.07194210, 0.08163784, 0.06220768, 100.33100128, 83.07315826, 31.21999931, 0.00000000
1, 1.2350, 153, 0.21002197, -1.00042725, 0.21081543, 24.68485260, 46.18852997, 33.20790100, -19.26337242, 1.72464192, -63.02250671, 106.29961395, 16.72850227, -85.97396851, 0.35467079, -0.63861418, 0.47598630, 0.48971176, 0.07874919, 0.08130378, 0.05718027, 100.33100128, 83.07315826, 31.21999931, 0.00000000
1, 1.2400, 154, 0.16650391, -1.00842285, 0.22137451, 25.27985001, 44.71852875, 33.38290405, -19.26337242, 1.72464192, -63.02250671, 106.47598267, 16.50528336, -85.79925537, 0.35560718, -0.63926536, 0.47676295, 0.48742226, 0.11853769, 0.08905804, 0.04976772, 100.33100128, 83.07315826, 31.21999931, 0.00000000
1, 1.1550, 147, -0.19301547, -0.93943310, -0.08695600, -2.41552901, 46.56994247, -58.03334427, -26.19117165, 2.92312193, -74.91961670, 87.00176239, -5.48348618, 72.33269501, -0.56548977, 0.57556224, 0.37774983, 0.45415255, 0.09633020, -0.05436380, 0.03301407, 100.40900421, 76.53004456, 32.06999969, 0.00000000
1, 1.1600, 148, -0.08811820, -0.96441936, -0.07121298, 0.43087152, 51.68344879, -61.10239410, -26.19117165, 2.92312193, -74.91961670, 86.98065948, -5.16443014, 72.57522583, -0.56584162, 0.57353497, 0.38056242, 0.45393080, -0.00311824, -0.02989918, 0.01703597, 100.40900421, 76.53004456, 32.06999969, 0.00000000
1, 1.1650, 149, 0.00203752, -1.01449776, -0.05731541, 2.53648114, 54.06694794, -60.96722794, -26.01578522, 2.57234716, -74.68576050, 86.97039032, -4.84529877, 72.82953644, -0.56609172, 0.57150733, 0.38346773, 0.45373121, -0.08774249, 0.01967339, 0.00303595, 100.40900421, 76.53004456, 32.06999969, 0.00000000
1, 1.2450, 155, 0.12133789, -1.01690674, 0.22747803, 25.10485077, 43.70352554, 34.08290100, -18.15258598, 0.55539316, -62.37942123, 106.64883423, 16.27964973, -85.63156128, 0.35653973, -0.63987315, 0.47756779, 0.48515046, 0.15993552, 0.09730275, 0.04677033, 100.33100128, 83.07315826, 31.21999931, 0.00000000
1, 1.2500, 156, 0.08630371, -1.01727295, 0.22253418, 25.27985001, 43.49353409, 34.88790512, -18.15258598, 0.55539316, -62.37942123, 106.82103729, 16.04997826, -85.46702576, 0.35747746, -0.64045781, 0.47839862, 0.48286486, 0.19113828, 0.09742941, 0.05479648, 100.33100128, 83.07315826, 31.21999931, 0.00000000
1, 1.1700, 150, 0.03758171, -1.08307457, -0.06601942, 2.89101958, 51.96997833, -57.62166595, -26.01578522, 2.57234716, -74.68576050, 86.96410370, -4.54341173, 73.07411194, -0.56629461, 0.56957924, 0.38624045, 0.45355076, -0.11792131, 0.08782506, 0.01157408, 100.40900421, 76.53004456, 32.06999969, 0.00000000
1, 1.1750, 151, 0.00479378, -1.14045048, -0.08016867, 1.83011127, 46.84539413, -51.98174286, -25.60654831, 2.60157847, -74.51037598, 86.95489502, -4.26759529, 73.29404449, -0.56651050, 0.56780082, 0.38873470, 0.45338023, -0.08019315, 0.14484775, 0.02538757, 100.40900421, 76.53004456, 32.06999969, 0.00000000
1, 1.1800, 152, -0.06333326, -1.15289032, -0.05127517, 0.66482997, 41.79592514, -45.14693451, -25.60654831, 2.60157847, -74.51037598, 86.94342041, -4.03074408, 73.49084473, -0.56668150, 0.56622010, 0.39089572, 0.45328528, -0.00782807, 0.15693361, -0.00390823, 100.40900421, 76.53004456, 32.06999969, 0.00000000
1, 1.2850, 157, 0.39044189, -1.27691650, 0.11145020, 14.60484791, 50.07353592, 36.77790451, -20.92955208, 2.04618526, -61.88248825, 107.92558289, 14.31017685, -84.24721527, 0.36539584, -0.64424318, 0.48380393, 0.46622998, -0.14221515, 0.35508621, 0.18622561, 100.33100128, 83.07315826, 31.21999931, 0.00000000
1, 1.2900, 158, 0.46820068, -1.24468994, 0.05737305, 13.16984749, 49.33853149, 35.09790039, -20.92955208, 2.04618526, -61.88248825, 108.03706360, 14.06710339, -84.06106567, 0.36677986, -0.64471358, 0.48427010, 0.46400377, -0.22412549, 0.32244837, 0.24245396, 100.33100128, 83.07315826, 31.21999931, 0.00000000
1, 1.1850, 153, -0.12949805, -1.11739695, -0.00339732, 0.26287070, 38.16412354, -39.05919647, -25.31423569, -0.96463019, -74.80268860, 86.93190002, -3.82523298, 73.67104340, -0.56679970, 0.56480175, 0.39280647, 0.45325506, 0.06192289, 0.12111478, -0.05210734, 100.40900421, 76.53004456, 32.06999969, 0.00000000
1, 1.1900, 154, -0.19075094, -1.06549478, 0.01721049, -0.31643081, 36.91913986, -35.26081085, -25.31423569, -0.96463019, -74.80268860, 86.91851044, -3.63900089, 73.84597778, -0.56687492, 0.56345606, 0.39457959, 0.45329568, 0.12643376, 0.06897240, -0.07301494, 100.40900421, 76.53004456, 32.06999969, 0.00000000
1, 1.2950, 159, 0.54461670, -1.19848633, 0.01171875, 11.48984718, 48.07852936, 33.13790512, -21.68956375, 1.95849168, -60.77170181, 108.13848877, 13.83496094, -83.87861633, 0.36814228, -0.64516842, 0.48466384, 0.46187660, -0.30452031, 0.27584681, 0.29009041, 100.33100128, 83.07315826, 31.21999931, 0.00000000
1, 1.3000, 160, 0.60943604, -1.14398193, -0.00335693, 10.85984612, 45.94353104, 30.82789803, -21.68956375, 1.95849168, -60.77170181, 108.23434448, 13.61682510, -83.70347595, 0.36942831, -0.64561492, 0.48501104, 0.45985699, -0.37310052, 0.22097823, 0.30701584, 100.33100128, 83.07315826, 31.21999931, 0.00000000
1, 1.3050, 161, 0.66076660, -1.09881592, 0.00140381, 9.59984589, 40.97352600, 28.51789856, -21.68956375, 1.95849168, -60.77170181, 108.31835938, 13.41718197, -83.54939270, 0.37059629, -0.64598674, 0.48534533, 0.45803878, -0.42790014, 0.17548232, 0.30392754, 100.33100128, 83.07315826, 31.21999931, 0.00000000
1, 1.2250, 155, 0.03348086, -1.04610062, 0.04692450, 5.74084282, 77.57995605, -46.70711899, -24.29114342, 2.92312193, -74.33499146, 86.83962250, -2.01314378, 75.78624725, -0.56569028, 0.55017179, 0.41202214, 0.45556915, -0.06987619, 0.04820748, -0.10376842, 100.40900421, 76.53004456, 32.06999969, 0.00000000
1, 1.2300, 156, 0.19875932, -1.17299175, 0.06051116, 6.94922733, 80.87034607, -45.48735046, -24.29114342, 2.92312193, -74.33499146, 86.86092377, -1.76310265, 76.17727661, -0.56497622, 0.54790956, 0.41524446, 0.45625556, -0.23076740, 0.17490393, -0.11676519, 100.40900421, 76.53004456, 32.06999969, 0.00000000
1, 1.2350, 157, 0.36256987, -1.26309884, -0.04489964, 4.69231367, 85.26226807, -44.96836472, -24.64191818, 2.71850324, -74.10114288, 86.87200928, -1.51456273, 76.59043121, -0.56421643, 0.54550421, 0.41851068, 0.45709291, -0.38997906, 0.26504099, -0.01084586, 100.40900421, 76.53004456, 32.06999969, 0.00000000
1, 1.3100, 162, 0.67297363, -1.03759766, 0.00061035, 8.61984634, 33.51852798, 26.55789948, -21.60187149, 0.78924292, -60.80093384, 108.38924408, 13.23838139, -83.42889404, 0.37159324, -0.64623249, 0.48572332, 0.45648122, -0.44323292, 0.11395397, 0.30614859, 100.33100128, 83.07315826, 31.21999931, 0.00000000
1, 1.3150, 163, 0.61523438, -0.96557617, -0.00292969, 8.61984539, 26.44852257, 24.59789658, -21.60187149, 0.78924292, -60.80093384, 108.45259094, 13.07990742, -83.33995056, 0.37240019, -0.64637685, 0.48615906, 0.45515332, -0.38825125, 0.04166460, 0.31093222, 100.33100128, 83.07315826, 31.21999931, 0.00000000
1, 1.3200, 164, 0.50115967, -0.92645264, 0.01623535, 11.90984631, 7.47851849, 22.70789719, -22.33265114, 1.72464192, -60.77170181, 108.51201630, 12.96037197, -83.34047699, 0.37267363, -0.64623684, 0.48691416, 0.45432043, -0.27640182, 0.00237602, 0.29290220, 100.33100128, 83.07315826, 31.21999931, 0.00000000
1, 1.2400, 158, 0.51371109, -1.25764263, -0.20055722, 1.15440345, 89.61714172, -44.81952667, -24.64191818, 2.71850324, -74.10114288, 86.86667633, -1.26561618, 77.02532959, -0.56344783, 0.54291761, 0.42180216, 0.45809379, -0.53638744, 0.25973091, 0.14516570, 100.40900421, 76.53004456, 32.06999969, 0.00000000
1, 1.2450, 159, 0.65202051, -1.18411362, -0.28545237, -0.28834912, 85.61061096, -43.84509277, -24.64191818, 2.71850324, -74.10114288, 86.85639191, -1.02261078, 77.44041443, -0.56275719, 0.54038376, 0.42493534, 0.45904210, -0.67020792, 0.18626137, 0.23034146, 100.40900421, 76.53004456, 32.06999969, 0.00000000
1, 1.2500, 160, 0.72917378, -1.10115755, -0.27155033, 1.38410687, 71.38999176, -41.40116119, -24.52499199, 2.30926633, -73.77959442, 86.85731506, -0.79575127, 77.78514099, -0.56223273, 0.53821331, 0.42768860, 0.45967749, -0.74335718, 0.10321710, 0.21671642, 100.40900421, 76.53004456, 32.06999969, 0.00000000
1, 1.3250, 165, 0.40368652, -0.92199707, 0.05572510, 14.49984741, -2.63648605, 21.13289642, -22.33265114, 1.72464192, -60.77170181, 108.57395172, 12.86438656, -83.38777161, 0.37262744, -0.64597100, 0.48784000, 0.45374274, -0.18065739, -0.00212508, 0.25452653, 100.33100128, 83.07315826, 31.21999931, 0.00000000
1, 1.3300, 166, 0.31866455, -0.93524170, 0.11206055, 16.03985023, -9.74148941, 19.66289520, -22.33265114, 1.72464192, -60.77170181, 108.63650513, 12.78675461, -83.46727753, 0.37235701, -0.64561999, 0.48886982, 0.45335585, -0.09702625, 0.01115921, 0.19930404, 100.33100128, 83.07315826, 31.21999931, 0.00000000
1, 1.2550, 161, 0.72356766, -1.04840147, -0.23701595, 3.92961478, 58.46938324, -39.11262131, -24.52499199, 2.30926633, -73.77959442, 86.87307739, -0.58397776, 78.06604004, -0.56183684, 0.53640133, 0.43011725, 0.46001339, -0.73409688, 0.05034326, 0.18247983, 100.40900421, 76.53004456, 32.06999969, 0.00000000
1, 1.2600, 162, 0.65421832, -1.04747152, -0.18890086, 9.31068134, 32.17735672, -34.51491928, -24.23267937, 2.22157264, -73.75036621, 86.91790009, -0.40257299, 78.21703339, -0.56171125, 0.53533244, 0.43189844, 0.45974290, -0.66155356, 0.04926813, 0.13483678, 100.40900421, 76.53004456, 32.06999969, 0.00000000
1, 1.2950, 163, 0.23982500, -0.96289933, -0.03612030, 9.37029934, -13.52883148, -19.62131500, -23.82344246, 3.21543407, -73.86728668, 87.29287720, 0.55550307, 78.03485107, -0.56431425, 0.53404415, 0.43724403, 0.45295027, -0.23044562, -0.03587396, -0.01229224, 100.40900421, 76.53004456, 32.06999969, 0.00000000
1, 1.3000, 164, 0.18145016, -0.94056809, -0.00565921, 9.57427406, -12.31885242, -17.70225334, -23.56036186, 3.15697169, -73.01958466, 87.33983612, 0.64103365, 77.96902466, -0.56467736, 0.53418481, 0.43754065, 0.45204458, -0.17061502, -0.05827799, -0.04204971, 100.40900421, 76.53004456, 32.06999969, 0.00000000
1, 1.3450, 167, 0.15093994, -0.92724609, 0.21545410, 15.86484814, -15.41149044, 15.74289513, -21.71879578, 0.08769365, -60.85939789, 108.80960846, 12.61657906, -83.77204132, 0.37104872, -0.64440328, 0.49199963, 0.45277327, 0.06769085, 0.00347131, 0.09893541, 100.33100128, 83.07315826, 31.21999931, 0.00000000
1, 1.3500, 168, 0.11248779, -0.92248535, 0.22906494, 16.63484955, -13.17148781, 14.02789497, -21.71879578, 0.08769365, -60.85939789, 108.87380219, 12.57146168, -83.85910797, 0.37057519, -0.64411092, 0.49293566, 0.45255911, 0.10535102, -0.00111583, 0.08638208, 100.33100128, 83.07315826, 31.21999931, 0.00000000
1, 1.3550, 169, 0.08636475, -0.92541504, 0.22619629, 17.05484772, -10.51148796, 12.62789536, -23.03420067, 2.25080395, -60.36246490, 108.94344330, 12.52875710, -83.93101501, 0.37011898, -0.64390713, 0.49379706, 0.45228329, 0.13074698, 0.00203633, 0.09040152, 100.33100128, 83.07315826, 31.21999931, 0.00000000
1, 1.3050, 165, 0.13815980, -0.92671442, 0.02999067, 9.87551212, -10.40340805, -16.11813736, -23.56036186, 3.15697169, -73.01958466, 87.38835144, 0.71918839, 77.91322327, -0.56496513, 0.53432477, 0.43785343, 0.45121616, -0.12602054, -0.07221287, -0.07694224, 100.40900421, 76.53004456, 32.06999969, 0.00000000
1, 1.3100, 166, 0.10635158, -0.91813433, 0.04296141, 10.11355400, -6.19089651, -14.47846413, -23.73575020, 3.42005253, -73.39958954, 87.43830109, 0.79016536, 77.87889862, -0.56513393, 0.53441858, 0.43823633, 0.45052129, -0.09296867, -0.08083704, -0.08911438, 100.40900421, 76.53004456, 32.06999969, 0.00000000
1, 1.3150, 167, 0.10417065, -0.91875458, 0.04253110, 10.44446087, -0.92316061, -13.23544788, -23.73575020, 3.42005253, -73.39958954, 87.49024200, 0.85619456, 77.87123871, -0.56516981, 0.53444022, 0.43872672, 0.44997302, -0.08961566, -0.08023933, -0.08779540, 100.40900421, 76.53004456, 32.06999969, 0.00000000
1, 1.3600, 170, 0.06408691, -0.92864990, 0.22198486, 16.84484863, -6.10148716, 11.05289459, -23.03420067, 2.25080395, -60.36246490, 109.01728058, 12.48641872, -83.97896576, 0.36973223, -0.64382035, 0.49453834, 0.45191306, 0.15230049, 0.00552523, 0.09584722, 100.33100128, 83.07315826, 31.21999931, 0.00000000
1, 1.3650, 171, 0.05047607, -0.93029785, 0.23126221, 16.42484856, -2.98648596, 9.65289497, -23.03420067, 2.25080395, -60.36246490, 109.09280396, 12.44566727, -84.00955200, 0.36939663, -0.64381796, 0.49518135, 0.45148659, 0.16520947, 0.00744403, 0.08783082, 100.33100128, 83.07315826, 31.21999931, 0.00000000
1, 1.3700, 172, 0.04382324, -0.93493652, 0.24688721, 15.86484814, -0.18648505, 8.28789234, -23.26804924, 1.95849168, -60.83016586, 109.16893768, 12.40682507, -84.02436066, 0.36911011, -0.64389074, 0.49572957, 0.45101535, 0.17119241, 0.01236865, 0.07348236, 100.33100128, 83.07315826, 31.21999931, 0.00000000
1, 1.3750, 173, 0.02947998, -0.93768311, 0.25762939, 14.81484795, 2.22851586, 7.34289312, -23.26804924, 1.95849168, -60.83016586, 109.24267578, 12.36848545, -84.02595520, 0.36888647, -0.64401418, 0.49619135, 0.45051384, 0.18487951, 0.01539579, 0.06398523, 100.33100128, 83.07315826, 31.21999931, 0.00000000
1, 1.3800, 174, 0.00970459, -0.94482422, 0.25762939, 13.65984726, 3.73351622, 6.32789230, -22.82958221, 2.39696002, -60.56708527, 109.31255341, 12.33245850, -84.01859283, 0.36870778, -0.64417034, 0.49657747, 0.45001122, 0.20403130, 0.02280605, 0.06516991, 100.33100128, 83.07315826, 31.21999931, 0.00000000
1, 1.3850, 175, -0.00329590, -0.95239258, 0.26354980, 13.13484764, 5.23851681, 5.55789232, -22.82958221, 2.39696002, -60.56708527, 109.38160706, 12.29756165, -84.00272369, 0.36856115, -0.64436394, 0.49690714, 0.44948980, 0.21643268, 0.03064141, 0.06040613, 100.33100128, 83.07315826, 31.21999931, 0.00000000
1, 1.3200, 168, 0.10721222, -0.92722964, 0.04490458, 10.92931652, 6.39320707, -11.66514301, -23.73575020, 3.42005253, -73.39958954, 87.54519653, 0.91603595, 77.90055084, -0.56502324, 0.53435963, 0.43937072, 0.44962433, -0.09159501, -0.07179332, -0.08922787, 100.40900421, 76.53004456, 32.06999969, 0.00000000
1, 1.3250, 169, 0.12246085, -0.93517148, 0.04815956, 11.13419724, 10.27149200, -10.62890244, -23.53113174, 3.24466538, -73.63343811, 87.61843872, 0.99232280, 77.94836426, -0.56478071, 0.53423208, 0.44025218, 0.44921812, -0.10568494, -0.06388569, -0.09132952, 100.40900421, 76.53004456, 32.06999969, 0.00000000
1, 1.3300, 170, 0.14860815, -0.94448924, 0.05274852, 11.07467175, 12.47642231, -9.62917900, -23.53113174, 3.24466538, -73.63343811, 87.67476654, 1.04322243, 78.00863647, -0.56447327, 0.53407413, 0.44100124, 0.44905767, -0.13075282, -0.05460341, -0.09473604, 100.40900421, 76.53004456, 32.06999969, 0.00000000
1, 1.3900, 176, -0.01342773, -0.96862793, 0.26550293, 12.88984680, 6.28851700, 4.92789173, -22.82958221, 2.39696002, -60.56708527, 109.45073700, 12.26386738, -83.98075104, 0.36843169, -0.64458764, 0.49719727, 0.44895416, 0.22598560, 0.04714890, 0.05960536, 100.33100128, 83.07315826, 31.21999931, 0.00000000
1, 1.3350, 171, 0.17159285, -0.95704031, 0.04908315, 10.39270782, 13.21284580, -8.62148476, -23.85267448, 3.39082146, -73.77959442, 87.72782898, 1.08918059, 78.07285309, -0.56414723, 0.53390396, 0.44173145, 0.44895202, -0.15290637, -0.04206930, -0.09009197, 100.40900421, 76.53004456, 32.06999969, 0.00000000
1, 1.3400, 172, 0.18552494, -0.96630037, 0.03135892, 9.82528400, 13.32115650, -7.52506161, -23.85267448, 3.39082146, -73.77959442, 87.77810669, 1.12962127, 78.13785553, -0.56381053, 0.53373849, 0.44242728, 0.44888648, -0.16606240, -0.03280104, -0.07146198, 100.40900421, 76.53004456, 32.06999969, 0.00000000
1, 1.3950, 177, -0.01464844, -0.97845459, 0.25238037, 12.01484680, 9.36851883, 4.82289219, -22.91727448, 2.45542240, -60.36246490, 109.51864624, 12.22550774, -83.94379425, 0.36839142, -0.64485949, 0.49741757, 0.44835237, 0.22657372, 0.05723245, 0.07386707, 100.33100128, 83.07315826, 31.21999931, 0.00000000
1, 1.4450, 178, 0.13183594, -1.04931641, 0.23040771, 11.34984589, 2.85851574, 6.43289232, -22.65419388, 2.22157264, -60.30400467, 110.15099335, 11.76370811, -83.47549438, 0.36901280, -0.64765012, 0.49917835, 0.44181445, 0.07218747, 0.13019197, 0.10661535, 100.33100128, 83.07315826, 31.21999931, 0.00000000
1, 1.4500, 179, 0.12310791, -1.05523682, 0.24206543, 10.92984676, 0.96851540, 6.74789286, -22.65419388, 2.22157264, -60.30400467, 110.20417023, 11.73036861, -83.48273468, 0.36885503, -0.64769769, 0.49956402, 0.44144022, 0.08034047, 0.13631894, 0.09586746, 100.33100128, 83.07315826, 31.21999931, 0.00000000
1, 1.4550, 180, 0.12213135, -1.05603027, 0.24407959, 10.68484592, -0.22148508, 6.95789289, -23.76498032, 3.01081562, -60.27477264, 110.25488281, 11.69810867, -83.49607849, 0.36868221, -0.64771366, 0.49996999, 0.44110155, 0.08076315, 0.13730703, 0.09471434, 100.33100128, 83.07315826, 31.21999931, 0.00000000
1, 1.4300, 173, 0.15140103, -1.02585125, -0.03057549, 8.67012501, -1.66123319, -1.90859759, -23.56036186, 3.47851491, -73.31189728, 88.60474396, 1.51420414, 78.57598877, -0.55970025, 0.53454220, 0.44954860, 0.44598925, -0.12494679, 0.02654911, 0.00474101, 100.40900421, 76.53004456, 32.06999969, 0.00000000
1, 1.4350, 174, 0.14441988, -1.01994240, -0.02672994, 8.56984901, -5.20716238, -2.23720551, -23.79421234, 2.66004086, -72.72727203, 88.64686584, 1.52481508, 78.54966736, -0.55964643, 0.53480864, 0.44964039, 0.44564480, -0.11779435, 0.02062087, 0.00162695, 100.40900421, 76.53004456, 32.06999969, 0.00000000
1, 1.4600, 181, 0.11395264, -1.05322266, 0.24932861, 10.57984543, -1.06148541, 7.06289291, -23.76498032, 3.01081562, -60.27477264, 110.30422974, 11.66682625, -83.51365662, 0.36849588, -0.64770931, 0.50039023, 0.44078702, 0.08840036, 0.13468766, 0.09029882, 100.33100128, 83.07315826, 31.21999931, 0.00000000
1, 1.4650, 182, 0.10906982, -1.04418945, 0.25555420, 10.15984631, -2.25148606, 7.41289234, -23.76498032, 3.01081562, -60.27477264, 110.35020447, 11.63597584, -83.53758240, 0.36830211, -0.64766741, 0.50083125, 0.44050953, 0.09275648, 0.12583081, 0.08486234, 100.33100128, 83.07315826, 31.21999931, 0.00000000
1, 1.4700, 183, 0.10089111, -1.03259277, 0.25024414, 9.87984657, -3.09148598, 7.58789301, -23.18035698, 2.86465931, -60.27477264, 110.39390564, 11.60578918, -83.56585693, 0.36810115, -0.64760083, 0.50128520, 0.44025898, 0.10041457, 0.11439660, 0.09091825, 100.33100128, 83.07315826, 31.21999931, 0.00000000
1, 1.4750, 184, 0.09002686, -1.02172852, 0.24761963, 9.94984627, -4.59648657, 7.72789288, -23.18035698, 2.86465931, -60.27477264, 110.43646240, 11.57759190, -83.60161591, 0.36786789, -0.64750320, 0.50176847, 0.44004709, 0.11078554, 0.10369307, 0.09426527, 100.33100128, 83.07315826, 31.21999931, 0.00000000
1, 1.4800, 185, 0.08233643, -1.01416016, 0.25164795, 9.91484642, -5.96148729, 7.79789305, -23.56036186, 2.28003502, -59.66091537, 110.47753906, 11.55147266, -83.64402008, 0.36760688, -0.64737695, 0.50227469, 0.43987310, 0.11802018, 0.09628567, 0.09093575, 100.33100128, 83.07315826, 31.21999931, 0.00000000
1, 1.4400, 175, 0.13025151, -1.01431203, -0.02699695, 8.68200779, -8.61779404, -2.31992698, -23.79421234, 2.66004086, -72.72727203, 88.68907928, 1.53545737, 78.50627136, -0.55965835, 0.53514236, 0.44965273, 0.44521636, -0.10343991, 0.01497857, 0.00260406, 100.40900421, 76.53004456, 32.06999969, 0.00000000
1, 1.4450, 176, 0.10490777, -1.00799406, -0.02545185, 9.02866268, -10.77809525, -2.16551852, -23.79421234, 2.66004086, -72.72727203, 88.73274231, 1.54509151, 78.45211792, -0.55970120, 0.53552943, 0.44961536, 0.44473451, -0.07792461, 0.00864578, 0.00175923, 100.40900421, 76.53004456, 32.06999969, 0.00000000
1, 1.4500, 177, 0.07758363, -1.00583780, -0.01869771, 9.39643669, -11.72143936, -1.91226757, -23.47266769, 3.82928967, -72.90265656, 88.77811432, 1.55339444, 78.39327240, -0.55974889, 0.53594869, 0.44955593, 0.44422942, -0.05046963, 0.00646508, -0.00427373, 100.40900421, 76.53004456, 32.06999969, 0.00000000
1, 1.5150, 186, -0.00335693, -0.97619629, 0.26208496, 10.19484615, -8.58648777, 8.91789341, -23.47266769, 3.12774038, -59.71937943, 110.73658752, 11.38252258, -84.05742645, 0.36542761, -0.64591843, 0.50630349, 0.43921399, 0.20083094, 0.05933231, 0.08485080, 100.33100128, 83.07315826, 31.21999931, 0.00000000
1, 1.5200, 187, -0.01318359, -0.98260498, 0.26544189, 10.57984543, -7.71148777, 8.49789333, -23.15112495, 2.51388478, -60.21630859, 110.77922058, 11.35645103, -84.10955811, 0.36512187, -0.64575148, 0.50686860, 0.43906197, 0.21020849, 0.06591109, 0.08219805, 100.33100128, 83.07315826, 31.21999931, 0.00000000
1, 1.4550, 178, 0.04988749, -1.00250494, -0.01052189, 9.61976051, -12.49117279, -1.68809211, -23.47266769, 3.82928967, -72.90265656, 88.82449341, 1.56054020, 78.33061981, -0.55980164, 0.53639239, 0.44947660, 0.44370714, -0.02266185, 0.00310546, -0.01170979, 100.40900421, 76.53004456, 32.06999969, 0.00000000
1, 1.4600, 179, 0.01902517, -1.00373220, -0.00364085, 9.76944828, -13.02121353, -1.31705725, -23.23881912, 3.30312777, -72.93189240, 88.87155914, 1.56583190, 78.26535797, -0.55985391, 0.53685713, 0.44937843, 0.44317845, 0.00828440, 0.00430762, -0.01785007, 100.40900421, 76.53004456, 32.06999969, 0.00000000
1, 1.4650, 180, -0.00384859, -0.99922192, 0.00077613, 9.58619118, -12.53880882, -1.16301727, -23.23881912, 3.30312777, -72.93189240, 88.91774750, 1.57045257, 78.20253754, -0.55989772, 0.53731066, 0.44928461, 0.44266823, 0.03122921, -0.00022335, -0.02150619, 100.40900421, 76.53004456, 32.06999969, 0.00000000
1, 1.5250, 188, -0.02117920, -0.99230957, 0.27044678, 10.57984638, -6.94148779, 8.32289314, -23.15112495, 2.51388478, -60.21630859, 110.82264709, 11.32987690, -84.15773010, 0.36482963, -0.64560282, 0.50741625, 0.43889087, 0.21775150, 0.07579435, 0.07791954, 100.33100128, 83.07315826, 31.21999931, 0.00000000
1, 1.5300, 189, -0.02307129, -0.99365234, 0.26574707, 9.98484612, -6.38148737, 8.21789265, -24.11575508, 2.63080978, -60.21630859, 110.86367798, 11.30282593, -84.20304871, 0.36456436, -0.64545751, 0.50794047, 0.43871865, 0.21918255, 0.07730485, 0.08331975, 100.33100128, 83.07315826, 31.21999931, 0.00000000
1, 1.5350, 190, -0.01867676, -0.99053955, 0.26519775, 9.59984589, -5.40148687, 7.97289276, -24.11575508, 2.63080978, -60.21630859, 110.90380096, 11.27520561, -84.24327087, 0.36432683, -0.64532995, 0.50843459, 0.43853107, 0.21431620, 0.07434968, 0.08454683, 100.33100128, 83.07315826, 31.21999931, 0.00000000
1, 1.4700, 181, -0.01526090, -0.99526608, 0.00058836, 9.28755856, -11.35867786, -1.09603465, -23.23881912, 3.30312777, -72.93189240, 88.96261597, 1.57490361, 78.14561462, -0.55992389, 0.53773534, 0.44921216, 0.44219285, 0.04271964, -0.00419159, -0.02055040, 100.40900421, 76.53004456, 32.06999969, 0.00000000
1, 1.4750, 182, -0.01652961, -0.99017286, 0.00300176, 9.16098309, -9.69047070, -0.98455656, -23.15112495, 4.44314528, -72.72727203, 89.01390839, 1.56564569, 78.09922791, -0.55982691, 0.53820467, 0.44914794, 0.44180959, 0.04393886, -0.00930482, -0.02212397, 100.40900421, 76.53004456, 32.06999969, 0.00000000
1, 1.4950, 183, 0.01312197, -0.99048877, 0.00393041, 9.57804966, -2.93646073, -0.68867218, -23.70651817, 4.00467682, -72.69804382, 89.19940186, 1.57996202, 77.99597931, -0.55940640, 0.53945839, 0.44944498, 0.44050920, 0.01442165, -0.00903867, -0.01969533, 100.40900421, 76.53004456, 32.06999969, 0.00000000
1, 1.5000, 184, 0.02206670, -0.99502301, 0.00678769, 9.46434879, -2.34649444, -0.63811052, -23.18035698, 2.83542824, -72.69804382, 89.24641418, 1.58308434, 77.98419189, -0.55924225, 0.53972167, 0.44958502, 0.44025224, 0.00552599, -0.00451886, -0.02171502, 100.40900421, 76.53004456, 32.06999969, 0.00000000
1, 1.5400, 191, -0.01104736, -0.98919678, 0.26483154, 9.49484539, -4.31648636, 7.72789288, -24.11575508, 2.63080978, -60.21630859, 110.94451904, 11.24681950, -84.27789307, 0.36411151, -0.64522678, 0.50890243, 0.43831903, 0.20620854, 0.07316459, 0.08559253, 100.33100128, 83.07315826, 31.21999931, 0.00000000
1, 1.5450, 192, 0.00128174, -0.99383545, 0.26763916, 9.42484570, -2.63648605, 7.34289312, -23.70651817, 3.18620276, -59.71937943, 110.98659515, 11.21725273, -84.30383301, 0.36392805, -0.64516294, 0.50933123, 0.43806723, 0.19337368, 0.07796642, 0.08349210, 100.33100128, 83.07315826, 31.21999931, 0.00000000
1, 1.5500, 193, 0.01196289, -0.99487305, 0.26818848, 8.75984573, -2.04148579, 7.16789246, -23.70651817, 3.18620276, -59.71937943, 111.02595520, 11.18744850, -84.32663727, 0.36377308, -0.64510363, 0.50973278, 0.43781611, 0.18218324, 0.07915584, 0.08362012, 100.33100128, 83.07315826, 31.21999931, 0.00000000
1, 1.5550, 194, 0.02160645, -0.99438477, 0.26599121, 8.82984543, -1.83148551, 6.78289270, -23.18035698, 3.42005253, -59.07629395, 111.06600952, 11.15908909, -84.34776306, 0.36361334, -0.64505792, 0.51012141, 0.43756360, 0.17204916, 0.07882107, 0.08648650, 100.33100128, 83.07315826, 31.21999931, 0.00000000
1, 1.5600, 195, 0.03161621, -1.00341797, 0.27001953, 8.75984573, -1.58648551, 6.71289301, -23.18035698, 3.42005253, -59.07629395, 111.10598755, 11.13062572, -84.36761475, 0.36345956, -0.64501715, 0.51050276, 0.43730667, 0.16155021, 0.08801217, 0.08313639, 100.33100128, 83.07315826, 31.21999931, 0.00000000
1, 1.5050, 185, 0.03262379, -0.99787593, 0.00870101, 9.31749439, -1.93339169, -0.48618585, -23.18035698, 2.83542824, -72.69804382, 89.29271698, 1.58548975, 77.97448730, -0.55907047, 0.53997612, 0.44972867, 0.44001162, -0.00498924, -0.00167842, -0.02279732, 100.40900421, 76.53004456, 32.06999969, 0.00000000
1, 1.5100, 186, 0.04273897, -0.99974477, 0.00996706, 9.06834793, -1.87099516, -0.27121395, -23.56036186, 4.70622635, -72.61034393, 89.33780670, 1.58683932, 77.96510315, -0.55889910, 0.54022753, 0.44986391, 0.43978235, -0.01508099, 0.00017956, -0.02324874, 100.40900421, 76.53004456, 32.06999969, 0.00000000
1, 1.5150, 187, 0.05039695, -0.99828708, 0.00347083, 8.78688335, -2.05507946, 0.04345095, -23.56036186, 4.70622635, -72.61034393, 89.38143921, 1.58658969, 77.95483398, -0.55873179, 0.54048163, 0.44998175, 0.43956214, -0.02271928, -0.00127620, -0.01596193, 100.40900421, 76.53004456, 32.06999969, 0.00000000
1, 1.5850, 196, 0.06262207, -0.99560547, 0.25280762, 6.97484541, -2.14648533, 6.15289259, -23.47266769, 2.95235300, -59.77784348, 111.28250885, 10.99756813, -84.45588684, 0.36281714, -0.64481235, 0.51221800, 0.43613482, 0.12824984, 0.08088530, 0.10335948, 100.33100128, 83.07315826, 31.21999931, 0.00000000
1, 1.5900, 197, 0.06921387, -0.99273682, 0.25146484, 7.60484600, -2.67148590, 6.04789257, -23.47266769, 2.95235300, -59.77784348, 111.31598663, 10.97424698, -84.47975159, 0.36265850, -0.64474666, 0.51257509, 0.43594420, 0.12125209, 0.07814742, 0.10525484, 100.33100128, 83.07315826, 31.21999931, 0.00000000
1, 1.5200, 188, 0.05351515, -1.00109768, 0.00048907, 8.47132206, -2.37704802, 0.28515899, -22.77112007, 3.44928384, -72.55188751, 89.42346954, 1.58512771, 77.94295502, -0.55857348, 0.54073900, 0.45007989, 0.43934619, -0.02585102, 0.00153090, -0.01223434, 100.40900421, 76.53004456, 32.06999969, 0.00000000
