SensorId, TimeStamp (s), FrameNumber, AccX (g), AccY (g), AccZ (g), GyroX (deg/s), GyroY (deg/s), GyroZ (deg/s), MagX (uT), MagY (uT), MagZ (uT), EulerX (deg), EulerY (deg), EulerZ (deg), QuatW, QuatX, QuatY, QuatZ, LinAccX (g), LinAccY (g), LinAccZ (g), Pressure (kPa), Altitude (m), Temperature (degC), HeaveMotion (m)
1, 85.9100, 9257, -0.02166748, -0.98657227, 0.29669189, 0.21929704, 0.05632802, 0.23679745, -45.62993240, -16.07716942, -95.38146973, 99.41270447, -3.55043626, 113.13184357, -0.33643067, 0.43676952, 0.62517804, 0.55244845, -0.04025564, 0.00192887, -0.13346536, 100.33200836, 82.98865509, 31.23999977, 0.00000000
1, 85.9149, 9258, -0.02282715, -0.98651123, 0.29711914, 0.21929704, -0.01367206, 0.37679756, -43.99298477, -16.39871407, -95.00145721, 99.41382599, -3.55228615, 113.13146973, -0.33641776, 0.43678331, 0.62517589, 0.55244774, -0.03912292, 0.00187233, -0.13387561, 100.33200836, 82.98865509, 31.23999977, 0.00000000
1, 85.9100, 9485, -0.01259597, -0.99620461, 0.00772904, -0.45958924, 0.32386163, -0.39555389, -36.91902924, -3.56620860, -110.02630615, 90.42831421, -0.55694246, -110.66333771, -0.40354654, 0.40090004, -0.58567613, -0.57741928, 0.00284458, -0.00373399, -0.00190941, 100.41700745, 75.85894775, 32.02000046, 0.00000000
1, 85.9650, 9259, -0.00811768, -0.98828125, 0.29290771, -0.27070311, -0.11867204, 0.23679754, -45.62993240, -15.28792763, -94.91376495, 99.41075134, -3.56746006, 113.12062836, -0.33639601, 0.43690312, 0.62506998, 0.55248606, -0.05410447, 0.00365216, -0.12970918, 100.33200836, 82.98865509, 31.23999977, 0.00000000
1, 85.9699, 9260, -0.00799561, -0.98931885, 0.29595947, -0.02570305, -0.39867213, 0.13179748, -45.62993240, -15.28792763, -94.91376495, 99.41075897, -3.56777740, 113.11855316, -0.33640423, 0.43691596, 0.62506109, 0.55248111, -0.05423310, 0.00468904, -0.13276729, 100.33200836, 82.98865509, 31.23999977, 0.00000000
1, 85.9750, 9261, -0.01062012, -0.98937988, 0.29687500, -0.06070306, -0.50367218, 0.09679750, -45.62993240, -15.28792763, -94.91376495, 99.41061401, -3.56784081, 113.11598969, -0.33641678, 0.43692982, 0.62505043, 0.55247456, -0.05161019, 0.00475016, -0.13368246, 100.33200836, 82.98865509, 31.23999977, 0.00000000
1, 85.9799, 9262, -0.01092529, -0.99035645, 0.29638672, -0.13070308, -0.43367222, 0.09679750, -44.54837799, -16.22332573, -95.52762604, 99.41010284, -3.56796741, 113.11376953, -0.33642873, 0.43694100, 0.62503904, 0.55247128, -0.05130618, 0.00572601, -0.13319960, 100.33200836, 82.98865509, 31.23999977, 0.00000000
1, 85.9850, 9263, -0.01312256, -0.98785400, 0.29437256, -0.02570302, -0.25867215, -0.00820262, -44.54837799, -16.22332573, -95.52762604, 99.41005707, -3.56771779, 113.11250305, -0.33643642, 0.43694663, 0.62503481, 0.55246693, -0.04910733, 0.00322261, -0.13119063, 100.33200836, 82.98865509, 31.23999977, 0.00000000
1, 85.9150, 9486, -0.01087036, -0.99743867, 0.00921756, -0.42444518, 0.35898721, -0.39516401, -36.91902924, -3.56620860, -110.02630615, 90.42617035, -0.55497879, -110.66152954, -0.40355319, 0.40091169, -0.58565217, -0.57743084, 0.00114942, -0.00250303, -0.00343311, 100.41700745, 75.85894775, 32.02000046, 0.00000000
1, 85.9200, 9487, -0.00876396, -0.99681997, 0.00721825, -0.28146023, 0.32294285, -0.29268676, -36.91902924, -3.56620860, -110.02630615, 90.42474365, -0.55352896, -110.65989685, -0.40355903, 0.40092230, -0.58563417, -0.57743752, -0.00092364, -0.00311894, -0.00145543, 100.41700745, 75.85894775, 32.02000046, 0.00000000
1, 85.9250, 9488, -0.00888963, -0.99634421, 0.00759256, -0.24432763, 0.18485832, -0.33150294, -37.79596710, -2.63080978, -109.20783234, 90.42932129, -0.54956388, -110.66661072, -0.40348899, 0.40092427, -0.58566701, -0.57745177, -0.00075310, -0.00359554, -0.00180169, 100.41700745, 75.85894775, 32.02000046, 0.00000000
1, 85.9900, 9264, -0.01269531, -0.98675537, 0.29949951, -0.02570302, -0.04867204, -0.04320259, -45.51300812, -15.11254025, -94.67991638, 99.40995026, -3.56746483, 113.11229706, -0.33643925, 0.43694624, 0.62503433, 0.55246603, -0.04953143, 0.00212342, -0.13631934, 100.33200836, 82.98865509, 31.23999977, 0.00000000
1, 85.9949, 9265, -0.01251221, -0.98712158, 0.30401611, -0.09570310, 0.02132798, -0.00820262, -45.51300812, -15.11254025, -94.67991638, 99.40946198, -3.56743574, 113.11241150, -0.33644068, 0.43694407, 0.62503254, 0.55246890, -0.04971205, 0.00248834, -0.14084253, 100.33200836, 82.98865509, 31.23999977, 0.00000000
1, 86.0000, 9266, -0.01702881, -0.98748779, 0.30621338, -0.20070310, -0.15367202, -0.07820264, -45.51300812, -15.11254025, -94.67991638, 99.40850830, -3.56692290, 113.11171722, -0.33645058, 0.43694267, 0.62502694, 0.55247027, -0.04518850, 0.00285220, -0.14305183, 100.33200836, 82.98865509, 31.23999977, 0.00000000
1, 85.9300, 9489, -0.00821040, -0.99747479, 0.00689973, -0.24401395, 0.15088359, -0.36736891, -37.79596710, -2.63080978, -109.20783234, 90.42808533, -0.54772639, -110.66584015, -0.40348792, 0.40093318, -0.58565176, -0.57746196, -0.00137842, -0.00246425, -0.00107824, 100.41700745, 75.85894775, 32.02000046, 0.00000000
1, 85.9350, 9490, -0.00873799, -0.99819076, 0.00858818, -0.06462878, 0.04553829, -0.26700681, -37.62057877, -2.92312193, -109.29552460, 90.42776489, -0.54639798, -110.66560364, -0.40348342, 0.40093994, -0.58564466, -0.57746744, -0.00082880, -0.00175134, -0.00278112, 100.41700745, 75.85894775, 32.02000046, 0.00000000
1, 85.9400, 9491, -0.00908768, -0.99894452, 0.00942485, -0.13721915, 0.18247209, -0.19271453, -37.62057877, -2.92312193, -109.29552460, 90.42706299, -0.54544169, -110.66468811, -0.40348566, 0.40094703, -0.58563459, -0.57747120, -0.00046286, -0.00099917, -0.00362739, 100.41700745, 75.85894775, 32.02000046, 0.00000000
1, 86.0050, 9267, -0.02044678, -0.99017334, 0.30511475, -0.13070311, -0.22367211, 0.06179747, -45.36685181, -15.25869656, -94.79684448, 99.40792847, -3.56704164, 113.11056519, -0.33645770, 0.43694782, 0.62501937, 0.55247051, -0.04176987, 0.00553531, -0.14196786, 100.33200836, 82.98865509, 31.23999977, 0.00000000
1, 86.0099, 9268, -0.02380371, -0.98687744, 0.30169678, -0.06070306, -0.04867204, 0.06179747, -45.36685181, -15.25869656, -94.79684448, 99.40764618, -3.56730747, 113.11027527, -0.33645868, 0.43694979, 0.62501603, 0.55247211, -0.03841552, 0.00223851, -0.13855606, 100.33200836, 82.98865509, 31.23999977, 0.00000000
1, 85.9450, 9492, -0.01053600, -0.99911308, 0.01070196, -0.20698355, 0.07657816, -0.15929827, -37.62057877, -2.92312193, -109.29552460, 90.42602539, -0.54464597, -110.66429901, -0.40348721, 0.40094939, -0.58562523, -0.57747793, 0.00099601, -0.00083291, -0.00492819, 100.41700745, 75.85894775, 32.02000046, 0.00000000
1, 85.9500, 9493, -0.00923288, -0.99672234, 0.01044128, -0.16922216, -0.09798339, -0.12888756, -37.12364578, -3.71236467, -109.44168091, 90.42517853, -0.54399699, -110.66479492, -0.40348440, 0.40094715, -0.58562040, -0.57748634, -0.00029386, -0.00322349, -0.00467519, 100.41700745, 75.85894775, 32.02000046, 0.00000000
1, 86.0499, 9269, -0.01977539, -0.99157715, 0.30096436, -0.06835982, 0.47742179, -0.49492207, -45.33761978, -15.05407715, -95.00145721, 99.41534424, -3.55600905, 113.11357880, -0.33647722, 0.43690249, 0.62510282, 0.55240005, -0.04225750, 0.00694895, -0.13768762, 100.33200836, 82.98865509, 31.23999977, 0.00000000
1, 86.0550, 9270, -0.01934814, -0.98992920, 0.29901123, -0.24335986, 0.61742181, -0.35492206, -45.16223145, -16.77871895, -94.94300079, 99.41392517, -3.55476260, 113.11692810, -0.33647355, 0.43687436, 0.62511283, 0.55241328, -0.04265979, 0.00529575, -0.13575712, 100.33200836, 82.98865509, 31.23999977, 0.00000000
1, 85.9700, 9494, -0.01579712, -0.99734581, 0.00826371, -0.06203140, -0.35824522, 0.11986345, -37.26980209, -2.28003502, -109.79245758, 90.42398834, -0.54532039, -110.66962433, -0.40347096, 0.40091163, -0.58563590, -0.57750469, 0.00625832, -0.00259634, -0.00253659, 100.41700745, 75.85894775, 32.02000046, 0.00000000
1, 85.9750, 9495, -0.01671345, -0.99652922, 0.00925484, -0.09853665, -0.28811020, 0.08694763, -36.68518066, -4.99853849, -109.50014496, 90.44520569, -0.58763373, -110.69162750, -0.40350074, 0.40065914, -0.58596671, -0.57732368, 0.00679605, -0.00340952, -0.00334768, 100.41700745, 75.85894775, 32.02000046, 0.00000000
1, 86.0600, 9271, -0.01947021, -0.98907471, 0.29937744, -0.13835977, 0.75742191, -0.28492209, -45.16223145, -16.77871895, -94.94300079, 99.41298676, -3.55398154, 113.12089539, -0.33646235, 0.43684629, 0.62512600, 0.55242729, -0.04252232, 0.00443709, -0.13614219, 100.33200836, 82.98865509, 31.23999977, 0.00000000
1, 86.0649, 9272, -0.01678467, -0.99121094, 0.30145264, -0.06835978, 0.72242188, -0.24992204, -45.33761978, -15.84332085, -95.00145721, 99.41240692, -3.55334306, 113.12467194, -0.33644998, 0.43682110, 0.62513971, 0.55243927, -0.04519803, 0.00657189, -0.13822256, 100.33200836, 82.98865509, 31.23999977, 0.00000000
1, 86.0700, 9273, -0.01690674, -0.98974609, 0.29895020, -0.13835983, 0.61742181, -0.14492206, -45.33761978, -15.84332085, -95.00145721, 99.41151428, -3.55313611, 113.12783813, -0.33643928, 0.43680024, 0.62514818, 0.55245274, -0.04506834, 0.00510401, -0.13573566, 100.33200836, 82.98865509, 31.23999977, 0.00000000
1, 85.9800, 9496, -0.01821018, -0.99818552, 0.00922698, -0.13441452, -0.28592464, -0.01770012, -36.68518066, -4.99853849, -109.50014496, 90.44454956, -0.58753806, -110.69305420, -0.40349534, 0.40065002, -0.58596808, -0.57733238, 0.00792905, -0.00174824, -0.00314836, 100.41700745, 75.85894775, 32.02000046, 0.00000000
1, 85.9850, 9497, -0.01859749, -0.99694622, 0.00809862, 0.07969600, -0.32133561, 0.08388685, -37.50365448, -2.54311609, -109.41245270, 90.44496918, -0.58795148, -110.69467163, -0.40348777, 0.40064111, -0.58597726, -0.57733440, 0.00831506, -0.00298574, -0.00201630, 100.41700745, 75.85894775, 32.02000046, 0.00000000
1, 85.9900, 9498, -0.02000589, -0.99610913, 0.00805909, -0.03212055, 0.12772699, 0.20117040, -37.50365448, -2.54311609, -109.41245270, 90.44480896, -0.58896071, -110.69404602, -0.40349665, 0.40063864, -0.58597773, -0.57732946, 0.00970622, -0.00382237, -0.00197683, 100.41700745, 75.85894775, 32.02000046, 0.00000000
1, 85.9950, 9499, -0.01905974, -0.99415493, 0.00809467, -0.17604795, 0.23422299, 0.06533217, -37.53288651, -2.80619693, -109.35398865, 90.44392395, -0.58929884, -110.69287109, -0.40350738, 0.40063977, -0.58597028, -0.57732868, 0.00875107, -0.00577653, -0.00202080, 100.41700745, 75.85894775, 32.02000046, 0.00000000
1, 86.0000, 9500, -0.01918637, -0.99379039, 0.00804156, 0.07498510, 0.06239568, 0.05804101, -37.53288651, -2.80619693, -109.35398865, 90.44428253, -0.58958739, -110.69256592, -0.40350914, 0.40064120, -0.58597207, -0.57732469, 0.00887412, -0.00614111, -0.00196871, 100.41700745, 75.85894775, 32.02000046, 0.00000000
1, 86.0050, 9501, -0.01878570, -0.99617636, 0.00884344, 0.17905757, 0.30450535, 0.16764362, -37.53288651, -2.80619693, -109.35398865, 90.44516754, -0.59043097, -110.69104004, -0.40351802, 0.40064782, -0.58597410, -0.57731181, 0.00845851, -0.00375630, -0.00275648, 100.41700745, 75.85894775, 32.02000046, 0.00000000
1, 86.0750, 9274, -0.01855469, -0.98687744, 0.29998779, -0.03335978, 0.51242185, -0.14492206, -45.33761978, -15.84332085, -95.00145721, 99.41118622, -3.55283999, 113.13049316, -0.33642945, 0.43678346, 0.62515765, 0.55246127, -0.04341548, 0.00223357, -0.13678201, 100.33200836, 82.98865509, 31.23999977, 0.00000000
1, 86.0799, 9275, -0.01953125, -0.98785400, 0.29931641, 0.00164023, 0.54742187, -0.17992206, -45.42531204, -15.55100822, -95.49839020, 99.41101837, -3.55240154, 113.13333893, -0.33641881, 0.43676543, 0.62516916, 0.55246902, -0.04243276, 0.00320888, -0.13611636, 100.33200836, 82.98865509, 31.23999977, 0.00000000
1, 86.0850, 9276, -0.02020264, -0.98828125, 0.29840088, 0.10664029, 0.40742174, -0.10992197, -45.42531204, -15.55100822, -95.49839020, 99.41141510, -3.55218911, 113.13543701, -0.33640832, 0.43675414, 0.62517977, 0.55247217, -0.04175370, 0.00363637, -0.13519554, 100.33200836, 82.98865509, 31.23999977, 0.00000000
1, 86.0900, 9277, -0.01953125, -0.99139404, 0.30010986, 0.31664035, -0.01257837, -0.07492199, -45.92224503, -15.34638977, -95.35223389, 99.41300964, -3.55181193, 113.13543701, -0.33640447, 0.43675712, 0.62518865, 0.55246222, -0.04242150, 0.00675273, -0.13688232, 100.33200836, 82.98865509, 31.23999977, 0.00000000
1, 86.0949, 9278, -0.02050781, -0.99139404, 0.29815674, 0.21164031, -0.01257837, -0.07492199, -45.92224503, -15.34638977, -95.35223389, 99.41406250, -3.55143237, 113.13542938, -0.33640257, 0.43675849, 0.62519497, 0.55245507, -0.04143834, 0.00675577, -0.13490790, 100.33200836, 82.98865509, 31.23999977, 0.00000000
1, 86.0100, 9502, -0.01706079, -0.99803972, 0.00874011, -0.10921314, 0.61525130, 0.17872000, -37.50365448, -2.74773455, -109.06167603, 90.44458771, -0.59133953, -110.68797302, -0.40354007, 0.40065682, -0.58596361, -0.57730073, 0.00671815, -0.00189263, -0.00265571, 100.41700745, 75.85894775, 32.02000046, 0.00000000
1, 86.0150, 9503, -0.01852583, -0.99848437, 0.00642778, -0.17667814, 0.23922747, -0.14485362, -37.50365448, -2.74773455, -109.06167603, 90.44369507, -0.59063071, -110.68676758, -0.40354568, 0.40066344, -0.58595252, -0.57730365, 0.00819343, -0.00144449, -0.00036524, 100.41700745, 75.85894775, 32.02000046, 0.00000000
1, 86.1300, 9279, -0.01782227, -0.99035645, 0.29547119, 0.21164031, 0.47742179, -0.10992204, -45.04530716, -15.49254608, -95.08915710, 99.41944122, -3.55361152, 113.15700531, -0.33626574, 0.43666655, 0.62529600, 0.55249673, -0.04416184, 0.00573602, -0.13212971, 100.33200836, 82.98865509, 31.23999977, 0.00000000
1, 86.1349, 9280, -0.01562500, -0.99005127, 0.29937744, 0.35164034, 0.26742175, -0.17992206, -45.04530716, -15.49254608, -95.08915710, 99.42110443, -3.55293965, 113.15847778, -0.33625612, 0.43666035, 0.62531179, 0.55248958, -0.04634966, 0.00543439, -0.13601053, 100.33200836, 82.98865509, 31.23999977, 0.00000000
1, 86.0800, 9504, -0.01795282, -0.99621081, 0.00568121, 0.09875552, 0.54753280, -0.28450605, -38.17597198, -4.03390837, -109.47091675, 90.43787384, -0.63965213, -110.65044403, -0.40399784, 0.40057993, -0.58596623, -0.57703137, 0.00676456, -0.00370818, 0.00028050, 100.41700745, 75.85894775, 32.02000046, 0.00000000
1, 86.0850, 9505, -0.01464584, -0.99755263, 0.00728388, 0.38545778, 0.40666065, -0.11625256, -37.94212341, -4.76468849, -109.76322937, 90.43977356, -0.63908184, -110.64839172, -0.40399858, 0.40059999, -0.58596665, -0.57701641, 0.00346804, -0.00236915, -0.00128921, 100.41700745, 75.85894775, 32.02000046, 0.00000000
1, 86.1400, 9281, -0.01574707, -0.98999023, 0.30163574, -0.03335978, 0.30242172, 0.03007807, -44.43145370, -15.96024513, -95.38146973, 99.42084503, -3.55334139, 113.15993500, -0.33624780, 0.43665347, 0.62531483, 0.55249673, -0.04622754, 0.00537446, -0.13826253, 100.33200836, 82.98865509, 31.23999977, 0.00000000
1, 86.1450, 9282, -0.01361084, -0.98992920, 0.29919434, 0.00164023, 0.26742169, 0.06507807, -44.43145370, -15.96024513, -95.38146973, 99.42077637, -3.55388522, 113.16120148, -0.33623892, 0.43664885, 0.62531751, 0.55250275, -0.04837554, 0.00531361, -0.13582420, 100.33200836, 82.98865509, 31.23999977, 0.00000000
1, 86.1499, 9283, -0.01300049, -0.98553467, 0.29260254, -0.20835985, 0.54742187, 0.03007807, -45.51300812, -16.45717621, -95.32300568, 99.41957092, -3.55448413, 113.16387939, -0.33622721, 0.43663344, 0.62531996, 0.55251932, -0.04899382, 0.00091612, -0.12925291, 100.33200836, 82.98865509, 31.23999977, 0.00000000
1, 86.1550, 9284, -0.01300049, -0.98797607, 0.29479980, 0.00164023, 0.54742187, -0.03992201, -45.51300812, -16.45717621, -95.32300568, 99.41941071, -3.55473685, 113.16661835, -0.33621320, 0.43661922, 0.62532878, 0.55252910, -0.04900271, 0.00335717, -0.13145597, 100.33200836, 82.98865509, 31.23999977, 0.00000000
1, 86.1600, 9285, -0.01275635, -0.99151611, 0.29565430, 0.00164023, 0.23242171, -0.31992206, -45.51300812, -16.45717621, -95.32300568, 99.41932678, -3.55335331, 113.16802216, -0.33621457, 0.43660495, 0.62533826, 0.55252880, -0.04922723, 0.00689572, -0.13231216, 100.33200836, 82.98865509, 31.23999977, 0.00000000
1, 86.1649, 9286, -0.01239014, -0.99157715, 0.29803467, -0.13835983, -0.11757842, -0.28492209, -45.48377609, -15.40485191, -95.41069794, 99.41865540, -3.55185318, 113.16767120, -0.33622727, 0.43659800, 0.62533861, 0.55252612, -0.04956834, 0.00695390, -0.13469963, 100.33200836, 82.98865509, 31.23999977, 0.00000000
1, 86.0900, 9506, -0.01229994, -0.99680221, 0.00498265, 0.38462037, 0.47627831, -0.11458254, -37.94212341, -4.76468849, -109.76322937, 90.44167328, -0.63851660, -110.64601898, -0.40400106, 0.40062168, -0.58596587, -0.57700032, 0.00113630, -0.00311554, 0.00105370, 100.41700745, 75.85894775, 32.02000046, 0.00000000
1, 86.0950, 9507, -0.01015125, -0.99813831, 0.00586030, 0.24090302, 0.58110619, -0.18035881, -37.91289139, -2.68927217, -109.64630127, 90.44284058, -0.63762176, -110.64310455, -0.40400714, 0.40064526, -0.58595854, -0.57698733, -0.00100064, -0.00178087, 0.00020117, 100.41700745, 75.85894775, 32.02000046, 0.00000000
1, 86.1000, 9508, -0.00999346, -0.99625480, 0.00595783, 0.35114977, 0.27044490, -0.25927129, -37.91289139, -2.68927217, -109.64630127, 90.44457245, -0.63633078, -110.64173889, -0.40400138, 0.40066487, -0.58595794, -0.57697821, -0.00113788, -0.00366458, 0.00013423, 100.41700745, 75.85894775, 32.02000046, 0.00000000
1, 86.1050, 9509, -0.00912733, -0.99677062, 0.00752416, 0.45836329, 0.26722461, -0.08545194, -37.91289139, -2.68927217, -109.64630127, 90.44686127, -0.63591754, -110.64039612, -0.40399805, 0.40068188, -0.58596331, -0.57696325, -0.00199434, -0.00315121, -0.00139255, 100.41700745, 75.85894775, 32.02000046, 0.00000000
1, 86.1100, 9510, -0.01006734, -0.99407530, 0.00873481, 0.31527469, 0.33557549, -0.08200136, -37.64981079, -4.67699480, -109.76322937, 90.44841003, -0.63551104, -110.63871765, -0.40399903, 0.40069807, -0.58596390, -0.57695085, -0.00105175, -0.00584831, -0.00257081, 100.41700745, 75.85894775, 32.02000046, 0.00000000
1, 86.1150, 9511, -0.00836142, -0.99373460, 0.01043682, 0.35324472, 0.12787330, -0.12248752, -37.64981079, -4.67699480, -109.76322937, 90.45017242, -0.63488775, -110.63806915, -0.40399295, 0.40071070, -0.58596832, -0.57694179, -0.00275296, -0.00619167, -0.00423900, 100.41700745, 75.85894775, 32.02000046, 0.00000000
1, 86.1700, 9287, -0.01190186, -0.98913574, 0.29956055, -0.34835988, -0.01257837, -0.07492199, -45.48377609, -15.40485191, -95.41069794, 99.41691589, -3.55147147, 113.16767120, -0.33623609, 0.43659115, 0.62533140, 0.55253428, -0.05004296, 0.00450781, -0.13624901, 100.33200836, 82.98865509, 31.23999977, 0.00000000
1, 86.1749, 9288, -0.01312256, -0.98608398, 0.29901123, -0.24335986, 0.37242174, -0.10992204, -44.10990906, -15.28792763, -94.82607269, 99.41558075, -3.55123758, 113.16958618, -0.33623320, 0.43657562, 0.62533307, 0.55254638, -0.04881893, 0.00145105, -0.13572833, 100.33200836, 82.98865509, 31.23999977, 0.00000000
1, 86.1200, 9512, -0.00867844, -0.99379790, 0.00794602, 0.35450226, 0.05491934, 0.01596630, -37.79596710, -2.60157847, -110.28939056, 90.45195007, -0.63497150, -110.63780212, -0.40398854, 0.40071797, -0.58597666, -0.57693142, -0.00242653, -0.00612391, -0.00171813, 100.41700745, 75.85894775, 32.02000046, 0.00000000
1, 86.1250, 9513, -0.00968233, -0.99582243, 0.00827371, 0.35345620, 0.15767767, 0.08853326, -37.79596710, -2.60157847, -110.28939056, 90.47209167, -0.63427985, -110.65972900, -0.40380418, 0.40068030, -0.58615232, -0.57690817, -0.00141970, -0.00409858, -0.00185888, 100.41700745, 75.85894775, 32.02000046, 0.00000000
1, 86.1899, 9289, -0.01550293, -0.99182129, 0.29382324, 0.14164029, 0.26742169, -0.07492199, -44.98684692, -15.58023930, -94.91376495, 99.41636658, -3.55136752, 113.17720032, -0.33619279, 0.43653703, 0.62536544, 0.55256486, -0.04644110, 0.00718975, -0.13053298, 100.33200836, 82.98865509, 31.23999977, 0.00000000
1, 86.1950, 9290, -0.01409912, -0.98828125, 0.29980469, 0.07164028, -0.11757840, -0.00492191, -44.98684692, -15.58023930, -94.91376495, 99.41675568, -3.55125403, 113.17661285, -0.33619478, 0.43654087, 0.62536550, 0.55256063, -0.04784312, 0.00365090, -0.13650683, 100.33200836, 82.98865509, 31.23999977, 0.00000000
1, 86.1650, 9514, -0.01484371, -0.99720287, 0.00534758, 0.01524167, -0.06077702, 0.02081290, -37.76673508, -2.54311609, -109.41245270, 90.47496033, -0.63109344, -110.66783142, -0.40373716, 0.40066510, -0.58618402, -0.57693332, 0.00381137, -0.00271225, 0.00126832, 100.41700745, 75.85894775, 32.02000046, 0.00000000
1, 86.1700, 9515, -0.01428247, -0.99760187, 0.00697798, 0.05310668, -0.26764518, -0.05470426, -37.70827103, -5.02776957, -109.64630127, 90.47523499, -0.63081336, -110.66916656, -0.40372807, 0.40066072, -0.58618915, -0.57693762, 0.00325083, -0.00231586, -0.00035808, 100.41700745, 75.85894775, 32.02000046, 0.00000000
1, 86.2000, 9291, -0.01666260, -0.98895264, 0.30041504, 0.14164029, -0.46757853, -0.03992195, -45.54224014, -15.02484608, -95.41069794, 99.41761017, -3.55067158, 113.17433929, -0.33620578, 0.43655309, 0.62536281, 0.55254722, -0.04527203, 0.00432378, -0.13710430, 100.33200836, 82.98865509, 31.23999977, 0.00000000
1, 86.2049, 9292, -0.02014160, -0.99053955, 0.29736328, 0.21164031, -0.64257860, 0.03007807, -45.54224014, -15.02484608, -95.41069794, 99.41887665, -3.55029440, 113.17113495, -0.33621854, 0.43657252, 0.62535793, 0.55252963, -0.04178370, 0.00591367, -0.13403240, 100.33200836, 82.98865509, 31.23999977, 0.00000000
1, 86.2100, 9293, -0.02032471, -0.99127197, 0.29742432, 0.17664030, -0.36257848, -0.03992195, -45.54224014, -15.02484608, -95.41069794, 99.41986084, -3.54980373, 113.16938019, -0.33622602, 0.43658277, 0.62535763, 0.55251735, -0.04159403, 0.00664896, -0.13407296, 100.33200836, 82.98865509, 31.23999977, 0.00000000
1, 86.1750, 9516, -0.01598456, -0.99721146, 0.00765953, 0.19535781, -0.26637840, -0.05648488, -37.70827103, -5.02776957, -109.64630127, 90.47850800, -0.65527046, -110.66938782, -0.40383965, 0.40054700, -0.58629119, -0.57683480, 0.00474042, -0.00270489, -0.00100906, 100.41700745, 75.85894775, 32.02000046, 0.00000000
1, 86.1800, 9517, -0.01615055, -0.99490380, 0.00521518, 0.08866946, -0.26732847, -0.05514941, -37.70827103, -5.02776957, -109.64630127, 90.47896576, -0.65498346, -110.67072296, -0.40382990, 0.40054324, -0.58629715, -0.57683820, 0.00470006, -0.00500580, 0.00147107, 100.41700745, 75.85894775, 32.02000046, 0.00000000
1, 86.1850, 9518, -0.01487766, -0.99373066, 0.00748182, 0.05226925, -0.19802752, -0.05303423, -37.82519531, -3.06927800, -109.55860901, 90.47922516, -0.65470856, -110.67170715, -0.40382260, 0.40054050, -0.58630097, -0.57684129, 0.00342626, -0.00618264, -0.00078573, 100.41700745, 75.85894775, 32.02000046, 0.00000000
1, 86.1900, 9519, -0.01517517, -0.99462104, 0.00649323, 0.19577655, -0.30118725, -0.05731989, -37.82519531, -3.06927800, -109.55860901, 90.48023224, -0.65442002, -110.67321777, -0.40381002, 0.40053776, -0.58631027, -0.57684249, 0.00373279, -0.00529057, 0.00021172, 100.41700745, 75.85894775, 32.02000046, 0.00000000
1, 86.1950, 9520, -0.01526574, -0.99676037, 0.00693714, 0.30026770, -0.09388641, 0.05144758, -37.62057877, -4.23852682, -109.23706055, 90.48172760, -0.65466583, -110.67369080, -0.40380368, 0.40053940, -0.58632034, -0.57683563, 0.00382125, -0.00315178, -0.00020783, 100.41700745, 75.85894775, 32.02000046, 0.00000000
1, 86.2000, 9521, -0.01320520, -0.99643314, 0.00687608, 0.15602800, 0.07805692, 0.09243426, -37.62057877, -4.23852682, -109.23706055, 90.48252106, -0.65512699, -110.67330933, -0.40380520, 0.40054178, -0.58632451, -0.57682860, 0.00175125, -0.00347873, -0.00012603, 100.41700745, 75.85894775, 32.02000046, 0.00000000
1, 86.2150, 9294, -0.01806641, -0.98858643, 0.29907227, 0.10664029, 0.26742169, 0.10007805, -45.83454895, -16.63256264, -95.14761353, 99.42032623, -3.55051494, 113.17060852, -0.33621430, 0.43658066, 0.62536222, 0.55252099, -0.04385825, 0.00396508, -0.13571388, 100.33200836, 82.98865509, 31.23999977, 0.00000000
1, 86.2199, 9295, -0.01593018, -0.98785400, 0.30035400, 0.10664029, 0.58242184, 0.17007807, -45.83454895, -16.63256264, -95.14761353, 99.42068481, -3.55183458, 113.17334747, -0.33619225, 0.43657285, 0.62537009, 0.55253166, -0.04601617, 0.00323525, -0.13698760, 100.33200836, 82.98865509, 31.23999977, 0.00000000
1, 86.2250, 9296, -0.01544189, -0.98718262, 0.29766846, 0.10664026, 0.30242172, 0.24007811, -45.45454407, -15.78485775, -94.97222900, 99.42113495, -3.55326295, 113.17464447, -0.33617619, 0.43657365, 0.62537253, 0.55253804, -0.04652965, 0.00256708, -0.13429222, 100.33200836, 82.98865509, 31.23999977, 0.00000000
1, 86.2050, 9522, -0.01293512, -0.99757636, 0.00897866, 0.16167994, -0.40759858, 0.01068214, -37.62057877, -4.23852682, -109.23706055, 90.48333740, -0.65516454, -110.67534637, -0.40379226, 0.40053409, -0.58633590, -0.57683140, 0.00147341, -0.00233876, -0.00221565, 100.41700745, 75.85894775, 32.02000046, 0.00000000
1, 86.2100, 9523, -0.01409852, -0.99634314, 0.01022185, 0.37704659, -0.54743600, 0.10976400, -37.41595840, -2.45542240, -109.64630127, 90.48526764, -0.65568537, -110.67808533, -0.40377438, 0.40052420, -0.58635700, -0.57682937, 0.00262763, -0.00357379, -0.00342919, 100.41700745, 75.85894775, 32.02000046, 0.00000000
1, 86.2299, 9297, -0.01519775, -0.98748779, 0.29638672, 0.10664029, 0.05742165, 0.17007807, -45.45454407, -15.78485775, -94.97222900, 99.42166138, -3.55415058, 113.17479706, -0.33616850, 0.43657848, 0.62537271, 0.55253875, -0.04678975, 0.00287402, -0.13300635, 100.33200836, 82.98865509, 31.23999977, 0.00000000
1, 86.2350, 9298, -0.01666260, -0.98895264, 0.29870605, 0.07164028, 0.05742165, 0.10007805, -45.45454407, -15.78485775, -94.97222900, 99.42200470, -3.55468941, 113.17499542, -0.33616316, 0.43658087, 0.62537336, 0.55253935, -0.04533680, 0.00434110, -0.13531663, 100.33200836, 82.98865509, 31.23999977, 0.00000000
1, 86.2600, 9524, -0.01643719, -0.99578142, 0.00617068, 0.27245322, -0.69095773, 0.24788339, -37.56211472, -4.23852682, -109.79245758, 90.52027893, -0.65832877, -110.72406769, -0.40343401, 0.40039879, -0.58670312, -0.57680273, 0.00493318, -0.00412303, 0.00122791, 100.41700745, 75.85894775, 32.02000046, 0.00000000
1, 86.2650, 9525, -0.01919971, -0.99818015, 0.00613229, 0.42754096, -0.44631472, 0.42946595, -37.56211472, -4.23852682, -109.79245758, 90.52245331, -0.66045314, -110.72631073, -0.40342587, 0.40038413, -0.58672923, -0.57679194, 0.00766368, -0.00172329, 0.00129298, 100.41700745, 75.85894775, 32.02000046, 0.00000000
1, 86.2749, 9299, -0.01568604, -0.98858643, 0.29315186, 0.71968758, -1.02976561, -0.26195213, -44.86991882, -14.87869072, -94.97222900, 99.43649292, -3.55545950, 113.16687775, -0.33614278, 0.43667126, 0.62540978, 0.55243915, -0.04633905, 0.00401470, -0.12953219, 100.33200836, 82.98865509, 31.23999977, 0.00000000
1, 86.2800, 9300, -0.01824951, -0.99316406, 0.29901123, 0.68468755, -0.85476547, -0.29695219, -44.86991882, -14.87869072, -94.97222900, 99.44017029, -3.55329037, 113.16290283, -0.33616015, 0.43669373, 0.62541938, 0.55239975, -0.04373503, 0.00860095, -0.13532458, 100.33200836, 82.98865509, 31.23999977, 0.00000000
1, 86.2850, 9301, -0.01751709, -0.99224854, 0.29998779, 0.50968754, -0.57476538, -0.36695212, -44.86991882, -14.87869072, -94.97222900, 99.44287872, -3.55100775, 113.16035461, -0.33617502, 0.43670508, 0.62543029, 0.55236953, -0.04443070, 0.00769252, -0.13624462, 100.33200836, 82.98865509, 31.23999977, 0.00000000
1, 86.2899, 9302, -0.01721191, -0.98754883, 0.30102539, 0.29968745, -0.36476532, -0.36695212, -45.24992752, -15.05407715, -95.29376984, 99.44446564, -3.54890013, 113.15885162, -0.33618811, 0.43670827, 0.62543917, 0.55234903, -0.04469587, 0.00299460, -0.13725591, 100.33200836, 82.98865509, 31.23999977, 0.00000000
1, 86.2950, 9303, -0.01519775, -0.99188232, 0.30926514, 0.26468742, -0.46976531, -0.29695210, -45.24992752, -15.05407715, -95.29376984, 99.44592285, -3.54704881, 113.15677643, -0.33620304, 0.43671539, 0.62544429, 0.55232847, -0.04667857, 0.00733051, -0.14546910, 100.33200836, 82.98865509, 31.23999977, 0.00000000
1, 86.2700, 9526, -0.01903759, -1.00058699, 0.00766350, 0.15294152, -0.02475520, 0.34031770, -37.06518555, -3.85852075, -109.20783234, 90.52322388, -0.66215050, -110.72644806, -0.40343115, 0.40037757, -0.58673948, -0.57678246, 0.00746536, 0.00068128, -0.00022184, 100.41700745, 75.85894775, 32.02000046, 0.00000000
1, 86.2750, 9527, -0.01922450, -0.99878836, 0.01104078, -0.06022653, -0.05979605, 0.27209169, -37.06518555, -3.85852075, -109.20783234, 90.54420471, -0.70283747, -110.74473572, -0.40347251, 0.40015125, -0.58704966, -0.57659483, 0.00727533, -0.00111672, -0.00341321, 100.41700745, 75.85894775, 32.02000046, 0.00000000
1, 86.2800, 9528, -0.01715791, -0.99865818, 0.01158325, 0.05054393, -0.40610021, 0.22737516, -37.06518555, -3.85852075, -109.20783234, 90.54449463, -0.70396799, -110.74677277, -0.40346697, 0.40013611, -0.58706218, -0.57659650, 0.00484280, -0.00124163, -0.00376155, 100.41700745, 75.85894775, 32.02000046, 0.00000000
1, 86.2999, 9304, -0.01574707, -0.99108887, 0.30993652, 0.08968738, -0.43476531, -0.29695210, -45.04530716, -16.63256264, -95.05992126, 99.44649506, -3.54522681, 113.15486908, -0.33622032, 0.43671909, 0.62544572, 0.55231333, -0.04609726, 0.00653732, -0.14612725, 100.33200836, 82.98865509, 31.23999977, 0.00000000
1, 86.3050, 9305, -0.01306152, -0.99005127, 0.30712891, -0.50531280, -0.04976518, -0.19195211, -45.04530716, -16.63256264, -95.05992126, 99.44397736, -3.54423976, 113.15478516, -0.33623594, 0.43670765, 0.62543648, 0.55232334, -0.04875936, 0.00549346, -0.14334857, 100.33200836, 82.98865509, 31.23999977, 0.00000000
1, 86.3100, 9306, -0.01330566, -0.98785400, 0.30780029, -0.50531280, 0.30023488, -0.05195208, -45.04530716, -16.63256264, -95.05992126, 99.44135284, -3.54422641, 113.15631104, -0.33623862, 0.43669155, 0.62542975, 0.55234206, -0.04851222, 0.00328833, -0.14406598, 100.33200836, 82.98865509, 31.23999977, 0.00000000
1, 86.2850, 9529, -0.01589026, -0.99855530, 0.01042693, 0.01173646, -0.12878032, 0.26953137, -37.85442734, -3.27389646, -109.76322937, 90.54455566, -0.70530844, -110.74741364, -0.40347034, 0.40012628, -0.58706945, -0.57659370, 0.00355647, -0.00134225, -0.00259882, 100.41700745, 75.85894775, 32.02000046, 0.00000000
1, 86.2900, 9530, -0.01342604, -0.99669886, 0.01015183, 0.00911915, 0.08090675, 0.23951051, -37.85442734, -3.27389646, -109.76322937, 90.54460144, -0.70650393, -110.74702454, -0.40347821, 0.40012228, -0.58707237, -0.57658786, 0.00107048, -0.00319792, -0.00231386, 100.41700745, 75.85894775, 32.02000046, 0.00000000
1, 86.2950, 9531, -0.01389563, -0.99814987, 0.00963868, 0.01079400, -0.05832860, 0.23617046, -37.70827103, -3.53697753, -109.90938568, 90.54467010, -0.70769060, -110.74733734, -0.40348247, 0.40011498, -0.58707792, -0.57658434, 0.00152066, -0.00174588, -0.00180470, 100.41700745, 75.85894775, 32.02000046, 0.00000000
1, 86.3000, 9532, -0.01407126, -0.99817896, 0.01073212, 0.22657797, -0.26444736, 0.19345853, -37.70827103, -3.53697753, -109.90938568, 90.54582214, -0.70864195, -110.74867249, -0.40347654, 0.40010732, -0.58709162, -0.57657975, 0.00167677, -0.00171830, -0.00288326, 100.41700745, 75.85894775, 32.02000046, 0.00000000
1, 86.3050, 9533, -0.01689692, -0.99577892, 0.01078896, 0.26151335, -0.19618116, 0.26474524, -37.70827103, -3.53697753, -109.90938568, 90.54713440, -0.70995337, -110.74964905, -0.40347368, 0.40010029, -0.58710623, -0.57657182, 0.00448103, -0.00411782, -0.00291856, 100.41700745, 75.85894775, 32.02000046, 0.00000000
1, 86.3700, 9534, -0.01541354, -0.99759328, 0.01105187, -0.10534003, -0.06183733, 0.02177491, -37.50365448, -3.09850907, -109.20783234, 90.55097961, -0.73604327, -110.75220490, -0.40357995, 0.39996833, -0.58722472, -0.57646841, 0.00253618, -0.00229754, -0.00310889, 100.41700745, 75.85894775, 32.02000046, 0.00000000
1, 86.3750, 9535, -0.01585562, -0.99678111, 0.00997598, -0.10408390, -0.16626382, 0.01926987, -37.50365448, -3.09850907, -109.20783234, 90.56819153, -0.76340586, -110.76866150, -0.40357608, 0.39980567, -0.58746320, -0.57634079, 0.00274147, -0.00310333, -0.00188700, 100.41700745, 75.85894775, 32.02000046, 0.00000000
1, 86.3149, 9307, -0.01361084, -0.98577881, 0.30468750, -0.47031280, 0.47523496, 0.05304798, -45.30838776, -15.14177132, -95.49839020, 99.43886566, -3.54487658, 113.15861511, -0.33623332, 0.43667462, 0.62542439, 0.55236471, -0.04821484, 0.00120622, -0.14099738, 100.33200836, 82.98865509, 31.23999977, 0.00000000
1, 86.3200, 9308, -0.01586914, -0.98852539, 0.30090332, -0.47031280, 0.61523497, -0.01695204, -45.30838776, -15.14177132, -95.49839020, 99.43632507, -3.54529572, 113.16167450, -0.33622590, 0.43665242, 0.62542242, 0.55238903, -0.04596637, 0.00394619, -0.13725677, 100.33200836, 82.98865509, 31.23999977, 0.00000000
1, 86.3800, 9536, -0.01561412, -0.99619806, 0.01108016, -0.03358569, -0.09768093, 0.09011157, -37.67903900, -3.24466538, -109.70476532, 90.56803131, -0.76384115, -110.76916504, -0.40357637, 0.39980039, -0.58746570, -0.57634187, 0.00225304, -0.00368345, -0.00283940, 100.41700745, 75.85894775, 32.02000046, 0.00000000
1, 86.3850, 9537, -0.01411956, -0.99545217, 0.00859941, 0.03649379, 0.00571078, 0.16178824, -37.67903900, -3.24466538, -109.70476532, 90.56822205, -0.76465571, -110.76914215, -0.40357995, 0.39979702, -0.58746940, -0.57633793, 0.00075069, -0.00442503, -0.00034887, 100.41700745, 75.85894775, 32.02000046, 0.00000000
1, 86.3900, 9538, -0.01437018, -0.99479115, 0.00879556, 0.07132417, 0.07481106, 0.19804409, -37.67903900, -3.24466538, -109.70476532, 90.56856537, -0.76564801, -110.76877594, -0.40358561, 0.39979506, -0.58747321, -0.57633132, 0.00098657, -0.00508624, -0.00054307, 100.41700745, 75.85894775, 32.02000046, 0.00000000
1, 86.3950, 9539, -0.01422657, -0.99660468, 0.00845545, 0.10751432, 0.00717824, 0.12586699, -37.70827103, -2.98158431, -110.08477020, 90.56911469, -0.76627994, -110.76873779, -0.40358704, 0.39979392, -0.58747804, -0.57632613, 0.00082969, -0.00327187, -0.00019611, 100.41700745, 75.85894775, 32.02000046, 0.00000000
1, 86.4000, 9540, -0.01271554, -0.99627113, 0.00791035, 0.14412600, -0.03231836, 0.33477256, -37.70827103, -2.98158431, -110.08477020, 90.56983185, -0.76793975, -110.76892853, -0.40359208, 0.39978713, -0.58748806, -0.57631719, -0.00070308, -0.00360406, 0.00036439, 100.41700745, 75.85894775, 32.02000046, 0.00000000
1, 86.4050, 9541, -0.01108362, -0.99576175, 0.00767208, 0.14402097, -0.03148428, 0.29974160, -37.47442245, -3.82928967, -110.05553436, 90.57057190, -0.76944238, -110.76908875, -0.40359634, 0.39978126, -0.58749753, -0.57630867, -0.00236196, -0.00411255, 0.00062185, 100.41700745, 75.85894775, 32.02000046, 0.00000000
1, 86.3750, 9309, -0.01916504, -0.98474121, 0.30029297, -0.02898498, -0.50749987, 0.07710984, -44.84069061, -15.60947037, -94.62145233, 99.43890381, -3.54563236, 113.15596771, -0.33624166, 0.43669268, 0.62541205, 0.55235940, -0.04267855, 0.00016832, -0.13661169, 100.33200836, 82.98865509, 31.23999977, 0.00000000
1, 86.3800, 9310, -0.01873779, -0.98834229, 0.30432129, 0.35601515, -0.22749981, 0.11210982, -44.84069061, -15.60947037, -94.62145233, 99.44076538, -3.54599380, 113.15475464, -0.33623838, 0.43670642, 0.62541515, 0.55234694, -0.04310937, 0.00377369, -0.14061522, 100.33200836, 82.98865509, 31.23999977, 0.00000000
1, 86.4100, 9542, -0.01108567, -0.99586821, 0.00706251, 0.03513402, 0.14244393, 0.27022117, -37.47442245, -3.82928967, -110.05553436, 90.57073975, -0.77079833, -110.76838684, -0.40360618, 0.39977854, -0.58750063, -0.57630056, -0.00238347, -0.00400464, 0.00123578, 100.41700745, 75.85894775, 32.02000046, 0.00000000
1, 86.4150, 9543, -0.00986988, -0.99620461, 0.00644438, 0.17769884, 0.10973590, 0.23257458, -37.47442245, -3.82928967, -110.05553436, 90.57160950, -0.77194929, -110.76785278, -0.40361163, 0.39977852, -0.58750713, -0.57629007, -0.00361809, -0.00366676, 0.00186704, 100.41700745, 75.85894775, 32.02000046, 0.00000000
1, 86.4350, 9544, -0.00956114, -0.99559021, 0.00876388, 0.14569724, -0.13924707, 0.43736044, -37.50365448, -3.30312777, -109.52937317, 90.58525085, -0.76633960, -110.78406525, -0.40345401, 0.39977187, -0.58761287, -0.57629716, -0.00382855, -0.00428416, -0.00021306, 100.41700745, 75.85894775, 32.02000046, 0.00000000
1, 86.4400, 9545, -0.00968394, -0.99598825, 0.00760223, 0.14444110, -0.03482059, 0.43986550, -37.50365448, -3.30312777, -109.52937317, 90.58596802, -0.76853061, -110.78426361, -0.40346166, 0.39976227, -0.58762473, -0.57628638, -0.00374250, -0.00388350, 0.00096664, 100.41700745, 75.85894775, 32.02000046, 0.00000000
1, 86.4450, 9546, -0.00742279, -0.99648154, 0.00886067, -0.03379153, -0.00159521, 0.44292632, -37.91289139, -3.39082146, -109.47091675, 90.58580780, -0.77074707, -110.78427887, -0.40347344, 0.39975041, -0.58763164, -0.57627940, -0.00604551, -0.00339153, -0.00028988, 100.41700745, 75.85894775, 32.02000046, 0.00000000
1, 86.3849, 9311, -0.01965332, -0.98950195, 0.30767822, 0.18101507, -0.15749972, 0.14710982, -44.92838287, -14.93715286, -94.62145233, 99.44171906, -3.54659081, 113.15384674, -0.33623570, 0.43671688, 0.62541437, 0.55234116, -0.04220274, 0.00493741, -0.14395125, 100.33200836, 82.98865509, 31.23999977, 0.00000000
1, 86.3900, 9312, -0.01867676, -0.99188232, 0.30212402, -0.13398503, -0.05249973, 0.18210980, -44.92838287, -14.93715286, -94.62145233, 99.44107056, -3.54744172, 113.15345001, -0.33623531, 0.43672112, 0.62540692, 0.55234647, -0.04319387, 0.00731760, -0.13840368, 100.33200836, 82.98865509, 31.23999977, 0.00000000
1, 86.3950, 9313, -0.01696777, -0.99267578, 0.29577637, -0.30898511, 0.01750029, 0.21710980, -44.92838287, -14.93715286, -94.62145233, 99.43953705, -3.54851890, 113.15335846, -0.33623552, 0.43672204, 0.62539566, 0.55235845, -0.04491938, 0.00810847, -0.13207786, 100.33200836, 82.98865509, 31.23999977, 0.00000000
1, 86.3999, 9314, -0.01562500, -0.99212646, 0.28979492, -0.13398503, -0.01749969, 0.18210980, -44.28529739, -15.20023346, -95.26454163, 99.43888092, -3.54940295, 113.15312958, -0.33623418, 0.43672544, 0.62538868, 0.55236447, -0.04627903, 0.00755766, -0.12611246, 100.33200836, 82.98865509, 31.23999977, 0.00000000
1, 86.4050, 9315, -0.01458740, -0.99169922, 0.29016113, -0.02898497, -0.08749970, 0.18210980, -44.28529739, -15.20023346, -95.26454163, 99.43876648, -3.55022812, 113.15254211, -0.33623275, 0.43673208, 0.62538320, 0.55236626, -0.04733200, 0.00713032, -0.12648413, 100.33200836, 82.98865509, 31.23999977, 0.00000000
1, 86.4100, 9316, -0.01281738, -0.98730469, 0.29467773, 0.04101504, -0.19249977, 0.14710979, -45.33761978, -15.52177715, -95.43992615, 99.43903351, -3.55079603, 113.15146637, -0.33623371, 0.43674135, 0.62537855, 0.55236363, -0.04911415, 0.00273681, -0.13099948, 100.33200836, 82.98865509, 31.23999977, 0.00000000
1, 86.4500, 9547, -0.00652724, -0.99571908, 0.00790088, 0.04131112, -0.34738204, 0.36362386, -37.91289139, -3.39082146, -109.47091675, 90.58602905, -0.77254379, -110.78604126, -0.40347287, 0.39973301, -0.58764511, -0.57627803, -0.00697190, -0.00415221, 0.00067557, 100.41700745, 75.85894775, 32.02000046, 0.00000000
1, 86.4550, 9548, -0.00787318, -0.99419892, 0.00975781, 0.22017534, -0.35413933, 0.71170777, -37.53288651, -3.15697169, -110.20169067, 90.58717346, -0.77609217, -110.78783417, -0.40347794, 0.39970982, -0.58766937, -0.57626593, -0.00568310, -0.00567440, -0.00116546, 100.41700745, 75.85894775, 32.02000046, 0.00000000
1, 86.4600, 9549, -0.00711133, -0.99662530, 0.00988949, 0.18429746, -0.35195377, 0.60705996, -37.53288651, -3.15697169, -110.20169067, 90.58811188, -0.77910972, -110.78961945, -0.40348101, 0.39968869, -0.58769077, -0.57625663, -0.00650269, -0.00324725, -0.00128266, 100.41700745, 75.85894775, 32.02000046, 0.00000000
1, 86.4149, 9317, -0.01214600, -0.98760986, 0.29864502, 0.11101506, -0.57749993, 0.14710979, -45.33761978, -15.52177715, -95.43992615, 99.43977356, -3.55104423, 113.14849091, -0.33624384, 0.43676090, 0.62536997, 0.55235177, -0.04979142, 0.00304487, -0.13495168, 100.33200836, 82.98865509, 31.23999977, 0.00000000
1, 86.4650, 9550, -0.00807280, -0.99851656, 0.00730386, 0.04236001, -0.38719526, 0.57297468, -37.53288651, -3.15697169, -110.20169067, 90.58837128, -0.78195316, -110.79158783, -0.40348464, 0.39966506, -0.58770871, -0.57625210, -0.00558448, -0.00135112, 0.00130647, 100.41700745, 75.85894775, 32.02000046, 0.00000000
1, 86.4700, 9551, -0.00971759, -0.99828362, 0.00701017, 0.20694983, -0.57475019, 0.48644608, -38.02981567, -2.77696586, -109.14936829, 90.58946228, -0.78436261, -110.79448700, -0.40347853, 0.39964181, -0.58773261, -0.57624817, -0.00398463, -0.00158281, 0.00160669, 100.41700745, 75.85894775, 32.02000046, 0.00000000
1, 86.5150, 9552, -0.01885995, -0.99861264, 0.01146827, -0.02582665, -0.24449027, 0.45237046, -37.73750305, -2.42619109, -109.20783234, 90.58686066, -0.80159694, -110.80895996, -0.40350232, 0.39947087, -0.58782953, -0.57625115, 0.00484769, -0.00125743, -0.00291045, 100.41700745, 75.85894775, 32.02000046, 0.00000000
1, 86.5200, 9553, -0.01766236, -0.99829972, 0.00916217, -0.16839288, -0.24325480, 0.34905821, -37.21134186, -3.59543991, -109.52937317, 90.58605194, -0.80333197, -110.81019592, -0.40350777, 0.39945287, -0.58783567, -0.57625347, 0.00362258, -0.00156612, -0.00061046, 100.41700745, 75.85894775, 32.02000046, 0.00000000
1, 86.4200, 9318, -0.01422119, -0.98547363, 0.30004883, 0.14601506, -1.20750022, 0.04210980, -45.33761978, -15.52177715, -95.43992615, 99.44086456, -3.55026174, 113.14248657, -0.33627301, 0.43679330, 0.62535495, 0.55232543, -0.04770607, 0.00091046, -0.13634029, 100.33200836, 82.98865509, 31.23999977, 0.00000000
1, 86.5250, 9554, -0.01983375, -0.99930394, 0.00951392, -0.16954398, -0.13966237, 0.38659418, -37.21134186, -3.59543991, -109.52937317, 90.59232330, -0.83622259, -110.81278992, -0.40364000, 0.39929461, -0.58798969, -0.57611346, 0.00549090, -0.00055772, -0.00092481, 100.41700745, 75.85894775, 32.02000046, 0.00000000
1, 86.4799, 9319, -0.00927734, -0.99359131, 0.29046631, 0.00054625, -0.20617200, -0.34835902, -45.86378098, -14.93715286, -94.85530090, 99.44217682, -3.54607582, 113.12593079, -0.33637145, 0.43686825, 0.62531185, 0.55225492, -0.05258315, 0.00902861, -0.12672997, 100.33200836, 82.98865509, 31.23999977, 0.00000000
1, 86.4850, 9320, -0.00836182, -0.98937988, 0.29156494, 0.03554625, -0.34617203, -0.34835902, -45.22069550, -15.02484608, -94.82607269, 99.44244385, -3.54407573, 113.12450409, -0.33638862, 0.43686765, 0.62531424, 0.55224222, -0.05346261, 0.00481567, -0.12782377, 100.33200836, 82.98865509, 31.23999977, 0.00000000
1, 86.4900, 9321, -0.01019287, -0.98608398, 0.29119873, 0.03554625, -0.27617198, -0.31335899, -45.22069550, -15.02484608, -94.82607269, 99.44268799, -3.54231048, 113.12339783, -0.33640301, 0.43686631, 0.62531698, 0.55223143, -0.05160052, 0.00151837, -0.12745447, 100.33200836, 82.98865509, 31.23999977, 0.00000000
1, 86.5300, 9555, -0.01869585, -0.99744451, 0.01100489, -0.31661102, 0.24363622, 0.32749805, -38.00058365, -3.06927800, -109.93861389, 90.59072113, -0.83787400, -110.81157684, -0.40366006, 0.39928684, -0.58798319, -0.57611156, 0.00404760, -0.00241482, -0.00236944, 100.41700745, 75.85894775, 32.02000046, 0.00000000
1, 86.5350, 9556, -0.01698753, -0.99849272, 0.00988507, -0.56408572, 0.10385216, 0.25721210, -38.00058365, -3.06927800, -109.93861389, 90.58789063, -0.83917367, -110.81108093, -0.40367901, 0.39927283, -0.58797169, -0.57611966, 0.00231933, -0.00136482, -0.00129191, 100.41700745, 75.85894775, 32.02000046, 0.00000000
1, 86.5400, 9557, -0.01410387, -0.99672341, 0.00839195, -0.45519879, -0.07007598, 0.28673258, -38.00058365, -3.06927800, -109.93861389, 90.58562469, -0.84060985, -110.81143951, -0.40369242, 0.39925572, -0.58796644, -0.57612741, -0.00058578, -0.00313187, 0.00016857, 100.41700745, 75.85894775, 32.02000046, 0.00000000
1, 86.5450, 9558, -0.01258482, -0.99762964, 0.00636437, -0.31493616, 0.10440084, 0.32415798, -37.97135162, -3.06927800, -109.64630127, 90.58404541, -0.84223199, -110.81092072, -0.40370876, 0.39924455, -0.58796239, -0.57612801, -0.00212659, -0.00222240, 0.00216643, 100.41700745, 75.85894775, 32.02000046, 0.00000000
1, 86.5500, 9559, -0.01208198, -0.99815369, 0.00811397, -0.24454302, 0.17381781, 0.35996869, -37.97135162, -3.06927800, -109.64630127, 90.58281708, -0.84404922, -110.81006622, -0.40372652, 0.39923534, -0.58795947, -0.57612479, -0.00266686, -0.00170066, 0.00039729, 100.41700745, 75.85894775, 32.02000046, 0.00000000
1, 86.5550, 9560, -0.01514408, -0.99942350, 0.01143997, -0.38512066, 0.00184321, 0.21745032, -37.67903900, -3.36159015, -109.67552948, 90.58090210, -0.84513879, -110.81006622, -0.40373874, 0.39922303, -0.58795357, -0.57613075, 0.00036626, -0.00043641, -0.00297046, 100.41700745, 75.85894775, 32.02000046, 0.00000000
1, 86.4949, 9322, -0.01196289, -0.98876953, 0.29534912, 0.10554627, -0.20617197, -0.45335904, -45.22069550, -15.02484608, -94.82607269, 99.44325256, -3.53990793, 113.12274933, -0.33641756, 0.43686047, 0.62532514, 0.55221802, -0.04979145, 0.00420296, -0.13159618, 100.33200836, 82.98865509, 31.23999977, 0.00000000
1, 86.5000, 9323, -0.01013184, -0.99157715, 0.29492188, 0.24554633, -0.34617203, -0.45335910, -45.22069550, -15.37562084, -94.65068817, 99.44455719, -3.53739476, 113.12140656, -0.33643323, 0.43686005, 0.62533456, 0.55219811, -0.05157768, 0.00701177, -0.13114472, 100.33200836, 82.98865509, 31.23999977, 0.00000000
1, 86.5050, 9324, -0.01080322, -0.99371338, 0.29559326, 0.03554625, -0.41617209, -0.38335910, -45.22069550, -15.37562084, -94.65068817, 99.44483948, -3.53516340, 113.11966705, -0.33645317, 0.43686017, 0.62533659, 0.55218363, -0.05086773, 0.00914678, -0.13180950, 100.33200836, 82.98865509, 31.23999977, 0.00000000
1, 86.5600, 9561, -0.01570098, -0.99961674, 0.00919036, -0.38344583, -0.13739213, 0.21411027, -37.67903900, -3.36159015, -109.67552948, 90.57900238, -0.84620947, -110.81076813, -0.40374732, 0.39920732, -0.58795011, -0.57613915, 0.00090989, -0.00023948, -0.00075748, 100.41700745, 75.85894775, 32.02000046, 0.00000000
1, 86.5650, 9562, -0.01772057, -0.99888527, 0.00823957, -0.34683555, -0.20836125, 0.28205702, -37.67903900, -3.36159015, -109.67552948, 90.57727051, -0.84760988, -110.81182098, -0.40375513, 0.39918876, -0.58794993, -0.57614672, 0.00291045, -0.00096950, 0.00015950, 100.41700745, 75.85894775, 32.02000046, 0.00000000
1, 86.5850, 9563, -0.01453803, -0.99646091, 0.00742664, -0.13436359, 0.23797412, 0.28834683, -37.94212341, -3.36159015, -109.70476532, 90.57452393, -0.85402757, -110.81231689, -0.40379483, 0.39914390, -0.58795995, -0.57613975, -0.00038392, -0.00339129, 0.00093241, 100.41700745, 75.85894775, 32.02000046, 0.00000000
1, 86.5900, 9564, -0.01328765, -0.99467826, 0.00715408, -0.17097387, 0.30894327, 0.22040009, -37.94212341, -3.36159015, -109.70476532, 90.57363892, -0.85513926, -110.81077576, -0.40381131, 0.39914304, -0.58795398, -0.57613492, -0.00165314, -0.00517337, 0.00119731, 100.41700745, 75.85894775, 32.02000046, 0.00000000
1, 86.5099, 9325, -0.01080322, -0.99127197, 0.29669189, -0.03445376, -0.48617208, -0.38335901, -45.01607513, -15.96024513, -95.52762604, 99.44479370, -3.53287482, 113.11757660, -0.33647633, 0.43686092, 0.62533593, 0.55216968, -0.05082608, 0.00670314, -0.13290542, 100.33200836, 82.98865509, 31.23999977, 0.00000000
1, 86.5150, 9326, -0.01251221, -0.98760986, 0.29510498, -0.20945385, -0.41617206, -0.41835904, -45.01607513, -15.96024513, -95.52762604, 99.44386292, -3.53046846, 113.11586761, -0.33650172, 0.43685642, 0.62533271, 0.55216122, -0.04907792, 0.00303650, -0.13133106, 100.33200836, 82.98865509, 31.23999977, 0.00000000
1, 86.5550, 9327, -0.01348877, -0.99005127, 0.30145264, 0.17554627, -0.17117199, -0.27835903, -45.42531204, -15.75562668, -95.70301056, 99.45257568, -3.50981212, 113.10544586, -0.33663538, 0.43684405, 0.62540275, 0.55201030, -0.04773622, 0.00547940, -0.13753249, 100.33200836, 82.98865509, 31.23999977, 0.00000000
1, 86.5600, 9328, -0.00952148, -0.98937988, 0.30236816, 0.10554627, -0.24117199, -0.17335898, -45.27915955, -15.98947620, -95.29376984, 99.45317078, -3.50876355, 113.10440063, -0.33664408, 0.43684667, 0.62540501, 0.55200028, -0.05168426, 0.00480852, -0.13843784, 100.33200836, 82.98865509, 31.23999977, 0.00000000
1, 86.5649, 9329, -0.01104736, -0.98907471, 0.30114746, -0.06945377, -0.27617198, -0.24335906, -45.27915955, -15.98947620, -95.29376984, 99.45289612, -3.50733805, 113.10323334, -0.33665881, 0.43684572, 0.62540400, 0.55199337, -0.05013231, 0.00450170, -0.13721719, 100.33200836, 82.98865509, 31.23999977, 0.00000000
1, 86.5700, 9330, -0.01385498, -0.98669434, 0.29614258, -0.06316455, -0.28082034, -0.00136709, -45.27915955, -15.98947620, -95.29376984, 99.45265961, -3.50710368, 113.10184479, -0.33666772, 0.43685153, 0.62539834, 0.55198973, -0.04731701, 0.00212023, -0.13221622, 100.33200836, 82.98865509, 31.23999977, 0.00000000
1, 86.5750, 9331, -0.01354980, -0.98504639, 0.29589844, 0.11812471, 0.09953144, -0.03937520, -45.42531204, -15.58023930, -95.43992615, 99.45321655, -3.50698924, 113.10237122, -0.33666369, 0.43684977, 0.62540340, 0.55198783, -0.04762072, 0.00047281, -0.13196816, 100.33200836, 82.98865509, 31.23999977, 0.00000000
1, 86.5950, 9565, -0.01210406, -0.99639666, 0.00833108, -0.27494130, 0.06599951, 0.14582855, -37.91289139, -3.59543991, -109.67552948, 90.57226563, -0.85587537, -110.81045532, -0.40382135, 0.39913604, -0.58794850, -0.57613820, -0.00285573, -0.00345697, -0.00000216, 100.41700745, 75.85894775, 32.02000046, 0.00000000
1, 86.6000, 9566, -0.01116134, -0.99431348, 0.00806549, -0.13216642, 0.03162336, 0.17824388, -37.91289139, -3.59543991, -109.67552948, 90.57160950, -0.85676324, -110.81030273, -0.40382898, 0.39913005, -0.58794773, -0.57613790, -0.00381032, -0.00553959, 0.00025453, 100.41700745, 75.85894775, 32.02000046, 0.00000000
1, 86.6050, 9567, -0.01162436, -0.99550426, 0.00931910, -0.20203583, -0.07343650, 0.17662914, -37.21134186, -2.98158431, -109.96784210, 90.57061005, -0.85765296, -110.81067657, -0.40383512, 0.39912009, -0.58794707, -0.57614118, -0.00336738, -0.00435089, -0.00101660, 100.41700745, 75.85894775, 32.02000046, 0.00000000
1, 86.5799, 9332, -0.01538086, -0.98913574, 0.29815674, 0.18812475, 0.34453151, 0.10062484, -45.42531204, -15.58023930, -95.43992615, 99.45406342, -3.50777411, 113.10398865, -0.33664823, 0.43684697, 0.62541103, 0.55199075, -0.04579932, 0.00456557, -0.13421027, 100.33200836, 82.98865509, 31.23999977, 0.00000000
1, 86.5850, 9333, -0.01800537, -0.99182129, 0.29565430, 0.18812473, 0.16953146, 0.03062476, -45.36685181, -15.81408882, -95.67378235, 99.45494843, -3.50806046, 113.10480499, -0.33663929, 0.43684646, 0.62541747, 0.55198926, -0.04318282, 0.00725377, -0.13169463, 100.33200836, 82.98865509, 31.23999977, 0.00000000
1, 86.5900, 9334, -0.01702881, -0.99554443, 0.29193115, -0.05687534, -0.14546865, 0.06562480, -45.36685181, -15.81408882, -95.67378235, 99.45471191, -3.50826192, 113.10402679, -0.33664280, 0.43685097, 0.62541276, 0.55198902, -0.04416236, 0.01097733, -0.12796989, 100.33200836, 82.98865509, 31.23999977, 0.00000000
1, 86.6100, 9568, -0.01015016, -0.99693608, 0.00886066, -0.20371068, 0.06579881, 0.17996919, -37.21134186, -2.98158431, -109.96784210, 90.56958008, -0.85855979, -110.81036377, -0.40384489, 0.39911354, -0.58794397, -0.57614207, -0.00485621, -0.00291814, -0.00057618, 100.41700745, 75.85894775, 32.02000046, 0.00000000
1, 86.6150, 9569, -0.00888794, -0.99623621, 0.00814141, -0.20098834, -0.14472233, 0.24502105, -37.21134186, -2.98158431, -109.96784210, 90.56859589, -0.85978413, -110.81108856, -0.40385091, 0.39910010, -0.58794576, -0.57614541, -0.00613662, -0.00361666, 0.00012989, 100.41700745, 75.85894775, 32.02000046, 0.00000000
1, 86.6200, 9570, -0.00810383, -0.99505639, 0.00992383, -0.23466623, -0.28594249, 0.31218806, -37.82519531, -3.80005836, -109.17860413, 90.56743622, -0.86132801, -110.81253815, -0.40385547, 0.39908075, -0.58795029, -0.57615089, -0.00694925, -0.00479934, -0.00166880, 100.41700745, 75.85894775, 32.02000046, 0.00000000
1, 86.5949, 9335, -0.01214600, -0.99291992, 0.30096436, -0.26687545, -0.07546859, 0.10062484, -45.36685181, -15.81408882, -95.67378235, 99.45340729, -3.50869107, 113.10356903, -0.33664757, 0.43685162, 0.62540329, 0.55199629, -0.04905069, 0.00835022, -0.13702092, 100.33200836, 82.98865509, 31.23999977, 0.00000000
1, 86.6000, 9336, -0.01147461, -0.99157715, 0.30035400, -0.23187540, -0.04046862, 0.17062491, -45.22069550, -15.46331501, -95.17684937, 99.45227051, -3.50950265, 113.10321808, -0.33664900, 0.43685386, 0.62539381, 0.55200434, -0.04973565, 0.00700453, -0.13643309, 100.33200836, 82.98865509, 31.23999977, 0.00000000
1, 86.6250, 9571, -0.00888383, -0.99573600, 0.01003443, -0.09074022, -0.42391109, 0.30706739, -37.82519531, -3.80005836, -109.17860413, 90.56631470, -0.84624028, -110.81700897, -0.40376022, 0.39913043, -0.58790821, -0.57622612, -0.00605429, -0.00412175, -0.00179751, 100.41700745, 75.85894775, 32.02000046, 0.00000000
1, 86.6300, 9572, -0.01246352, -0.99688065, 0.00807970, -0.08885530, -0.56481451, 0.37378925, -38.32212830, -5.84624386, -109.73399353, 90.56591797, -0.84809482, -110.81985474, -0.40375671, 0.39910504, -0.58792257, -0.57623160, -0.00235417, -0.00297583, 0.00013170, 100.41700745, 75.85894775, 32.02000046, 0.00000000
1, 86.7049, 9337, -0.02087402, -0.99261475, 0.29351807, 0.18156242, -0.58515662, 0.27179733, -45.19146347, -15.84332085, -95.14761353, 99.47319031, -3.52804375, 113.06580353, -0.33664471, 0.43720463, 0.62529105, 0.55184561, -0.04065742, 0.00812015, -0.12924907, 100.33200836, 82.98865509, 31.23999977, 0.00000000
1, 86.7100, 9338, -0.01849365, -0.98907471, 0.29180908, -0.13343765, 0.46484378, 0.27179733, -45.30838776, -15.84332085, -95.87839508, 99.47238922, -3.52976680, 113.06787872, -0.33662802, 0.43719885, 0.62528944, 0.55186212, -0.04306654, 0.00458091, -0.12754650, 100.33200836, 82.98865509, 31.23999977, 0.00000000
1, 86.6700, 9573, -0.02117853, -0.99784613, 0.01143035, -0.16887888, 0.16637161, 0.35718390, -37.79596710, -3.74159598, -109.00321198, 90.56381989, -0.86009502, -110.82993317, -0.40377432, 0.39898497, -0.58798844, -0.57623518, 0.00614198, -0.00201292, -0.00327685, 100.41700745, 75.85894775, 32.02000046, 0.00000000
1, 86.6750, 9574, -0.01711711, -0.99748385, 0.01081667, -0.07064396, 0.36933959, 0.18879640, -37.79596710, -3.74159598, -109.00321198, 90.57420349, -0.86662030, -110.83806610, -0.40373045, 0.39894664, -0.58809143, -0.57618737, 0.00201248, -0.00237239, -0.00256789, 100.41700745, 75.85894775, 32.02000046, 0.00000000
1, 86.6800, 9575, -0.01409277, -0.99659657, 0.01064203, 0.03041834, 0.36095226, 0.12049168, -37.94212341, -3.36159015, -109.64630127, 90.57433319, -0.86724550, -110.83626556, -0.40374219, 0.39895314, -0.58808792, -0.57617807, -0.00107244, -0.00325758, -0.00228977, 100.41700745, 75.85894775, 32.02000046, 0.00000000
1, 86.6850, 9576, -0.01293976, -0.99824679, 0.00659630, 0.02968594, 0.42973590, 0.15719268, -37.94212341, -3.36159015, -109.64630127, 90.57444763, -0.86804980, -110.83411407, -0.40375671, 0.39896053, -0.58808380, -0.57616705, -0.00222786, -0.00160037, 0.00175977, 100.41700745, 75.85894775, 32.02000046, 0.00000000
1, 86.6900, 9577, -0.01338615, -0.99626780, 0.00748741, 0.10311373, 0.22318441, 0.08123035, -38.40982056, -2.54311609, -109.50014496, 90.57495117, -0.86846125, -110.83300018, -0.40376267, 0.39896595, -0.58808392, -0.57615912, -0.00179261, -0.00358058, 0.00087633, 100.41700745, 75.85894775, 32.02000046, 0.00000000
1, 86.7150, 9339, -0.01672363, -0.99029541, 0.29534912, 0.14656241, 0.63984382, 0.16679731, -45.30838776, -15.84332085, -95.87839508, 99.47293854, -3.53111792, 113.07090759, -0.33660376, 0.43719018, 0.62529927, 0.55187285, -0.04485856, 0.00580346, -0.13108340, 100.33200836, 82.98865509, 31.23999977, 0.00000000
1, 86.7199, 9340, -0.01696777, -0.99169922, 0.29882813, 0.14656241, 0.56984377, 0.16679733, -44.84069061, -15.60947037, -95.52762604, 99.47351074, -3.53240418, 113.07358551, -0.33658138, 0.43718311, 0.62530804, 0.55188215, -0.04463939, 0.00721031, -0.13455324, 100.33200836, 82.98865509, 31.23999977, 0.00000000
1, 86.7250, 9341, -0.01477051, -0.99224854, 0.29980469, -0.02843762, 0.07984363, 0.09679732, -44.84069061, -15.60947037, -95.52762604, 99.47335052, -3.53294492, 113.07390594, -0.33657742, 0.43718338, 0.62530667, 0.55188584, -0.04685085, 0.00776077, -0.13552877, 100.33200836, 82.98865509, 31.23999977, 0.00000000
1, 86.6950, 9578, -0.01325894, -0.99651992, 0.00790722, 0.06807469, 0.18722482, 0.11587145, -38.40982056, -2.54311609, -109.50014496, 90.57526398, -0.86904711, -110.83207703, -0.40376914, 0.39896882, -0.58808428, -0.57615209, -0.00192795, -0.00332883, 0.00046525, 100.41700745, 75.85894775, 32.02000046, 0.00000000
1, 86.7000, 9579, -0.01277203, -0.99617434, 0.00888439, 0.10520869, 0.08061279, 0.21801417, -38.40982056, -2.54311609, -109.50014496, 90.57580566, -0.87013841, -110.83168030, -0.40377483, 0.39896718, -0.58808935, -0.57614410, -0.00243494, -0.00367592, -0.00050427, 100.41700745, 75.85894775, 32.02000046, 0.00000000
1, 86.7050, 9580, -0.01275558, -0.99687397, 0.01014616, 0.10426625, 0.15106452, 0.18465321, -38.76059723, -3.97544575, -109.67552948, 90.57630920, -0.87106740, -110.83093262, -0.40378153, 0.39896807, -0.58809251, -0.57613558, -0.00247210, -0.00297794, -0.00175808, 100.41700745, 75.85894775, 32.02000046, 0.00000000
1, 86.7100, 9581, -0.01403908, -0.99708402, 0.00826310, 0.14307512, -0.09478283, 0.28345585, -38.76059723, -3.97544575, -109.67552948, 90.57704926, -0.87247968, -110.83142090, -0.40378368, 0.39896098, -0.58810276, -0.57612842, -0.00120572, -0.00276422, 0.00013544, 100.41700745, 75.85894775, 32.02000046, 0.00000000
1, 86.7299, 9342, -0.01336670, -0.98999023, 0.30010986, -0.23843774, 0.11484358, 0.16679733, -44.84069061, -15.60947037, -95.52762604, 99.47212982, -3.53386021, 113.07434082, -0.33657476, 0.43718162, 0.62529945, 0.55189699, -0.04826859, 0.00550061, -0.13585031, 100.33200836, 82.98865509, 31.23999977, 0.00000000
1, 86.7350, 9343, -0.01098633, -0.98846436, 0.30462646, -0.02843762, 0.07984354, 0.16679731, -45.57146835, -15.69716454, -95.43992615, 99.47196198, -3.53475356, 113.07460022, -0.33656910, 0.43718383, 0.62529671, 0.55190176, -0.05066600, 0.00397480, -0.14037287, 100.33200836, 82.98865509, 31.23999977, 0.00000000
1, 86.7400, 9344, -0.01049805, -0.98913574, 0.30596924, -0.02843763, 0.35984373, 0.27179733, -45.57146835, -15.69716454, -95.43992615, 99.47173309, -3.53638792, 113.07616425, -0.33655325, 0.43718213, 0.62529618, 0.55191338, -0.05117673, 0.00464717, -0.14171788, 100.33200836, 82.98865509, 31.23999977, 0.00000000
1, 86.7150, 9582, -0.01468979, -0.99762213, 0.01007697, 0.17696305, 0.04476919, 0.28635076, -38.08827972, -3.21543407, -109.70476532, 90.57791901, -0.87390888, -110.83119965, -0.40378904, 0.39895797, -0.58811140, -0.57611817, -0.00058590, -0.00222873, -0.00166681, 100.41700745, 75.85894775, 32.02000046, 0.00000000
1, 86.7700, 9583, -0.01853217, -0.99713671, 0.00845911, -0.11088894, 0.32070628, 0.29659209, -37.76673508, -3.06927800, -109.12014008, 90.59214020, -0.88597423, -110.85720825, -0.40367007, 0.39881325, -0.58831495, -0.57609385, 0.00305034, -0.00270566, 0.00019811, 100.41700745, 75.85894775, 32.02000046, 0.00000000
1, 86.7750, 9584, -0.01594973, -0.99930823, 0.00889357, -0.32363963, 0.21938412, 0.08657221, -37.76673508, -3.06927800, -109.12014008, 90.58374023, -0.88566864, -110.84968567, -0.40373555, 0.39882383, -0.58824545, -0.57611150, 0.00046082, -0.00053559, -0.00031799, 100.41700745, 75.85894775, 32.02000046, 0.00000000
1, 86.7800, 9585, -0.01349559, -0.99781239, 0.00599927, -0.36941612, 0.05441499, -0.11011084, -37.26980209, -5.46623802, -109.64630127, 90.58188629, -0.88512719, -110.84939575, -0.40374073, 0.39882153, -0.58823329, -0.57612199, -0.00197440, -0.00202764, 0.00249373, 100.41700745, 75.85894775, 32.02000046, 0.00000000
1, 86.7449, 9345, -0.01104736, -0.98846436, 0.30194092, -0.16843766, 0.67484385, 0.16679733, -45.36685181, -15.96024513, -95.23531342, 99.47069550, -3.53776479, 113.07936096, -0.33653402, 0.43716794, 0.62529886, 0.55193329, -0.05065367, 0.00397456, -0.13770738, 100.33200836, 82.98865509, 31.23999977, 0.00000000
1, 86.7500, 9346, -0.01196289, -0.98974609, 0.30126953, -0.13343769, 0.70984387, 0.27179733, -45.36685181, -15.96024513, -95.23531342, 99.46982574, -3.53969073, 113.08264160, -0.33651066, 0.43715632, 0.62530094, 0.55195451, -0.04977017, 0.00525588, -0.13704973, 100.33200836, 82.98865509, 31.23999977, 0.00000000
1, 86.7850, 9586, -0.01292493, -0.99570191, 0.00445979, -0.19160222, 0.05599844, -0.11233661, -37.26980209, -5.46623802, -109.64630127, 90.58091736, -0.88457239, -110.84912109, -0.40374261, 0.39882231, -0.58822548, -0.57612789, -0.00253153, -0.00413619, 0.00401659, 100.41700745, 75.85894775, 32.02000046, 0.00000000
1, 86.7900, 9587, -0.01126848, -0.99626994, 0.00602248, -0.26419255, 0.19293220, -0.03804433, -37.88365936, -3.36159015, -109.88014984, 90.57958221, -0.88439125, -110.84815216, -0.40375122, 0.39882350, -0.58821481, -0.57613206, -0.00418556, -0.00357109, 0.00243530, 100.41700745, 75.85894775, 32.02000046, 0.00000000
1, 86.7950, 9588, -0.01018073, -0.99445450, 0.00927438, -0.19118349, 0.02118959, -0.11317163, -37.88365936, -3.36159015, -109.88014984, 90.57861328, -0.88382405, -110.84803772, -0.40375233, 0.39882359, -0.58820766, -0.57613868, -0.00527334, -0.00539197, -0.00082787, 100.41700745, 75.85894775, 32.02000046, 0.00000000
1, 86.8000, 9589, -0.01075452, -0.99638009, 0.01069606, -0.11796296, -0.12074867, 0.02272184, -37.88365936, -3.36159015, -109.88014984, 90.57804108, -0.88393354, -110.84865570, -0.40375179, 0.39881784, -0.58820719, -0.57614332, -0.00470200, -0.00346900, -0.00226582, 100.41700745, 75.85894775, 32.02000046, 0.00000000
1, 86.8050, 9347, -0.01629639, -0.99017334, 0.28631592, 0.46156257, 0.18484360, 0.02679731, -45.10377121, -15.40485191, -95.49839020, 99.46906281, -3.55132580, 113.06706238, -0.33652294, 0.43729255, 0.62519962, 0.55195391, -0.04564765, 0.00569075, -0.12213026, 100.33200836, 82.98865509, 31.23999977, 0.00000000
1, 86.8100, 9348, -0.01812744, -0.99029541, 0.28936768, 0.60156262, -0.02515645, -0.11320280, -45.24992752, -15.63870239, -94.82607269, 99.47207642, -3.55074644, 113.06703186, -0.33651480, 0.43729883, 0.62521589, 0.55193532, -0.04381026, 0.00582102, -0.12513041, 100.33200836, 82.98865509, 31.23999977, 0.00000000
1, 86.8050, 9590, -0.01269888, -0.99593735, 0.01162243, -0.15300199, -0.15670827, 0.05736295, -38.46828461, -3.27389646, -109.64630127, 90.57729340, -0.88422388, -110.84943390, -0.40375191, 0.39880973, -0.58820719, -0.57614887, -0.00276489, -0.00391317, -0.00320945, 100.41700745, 75.85894775, 32.02000046, 0.00000000
1, 86.8149, 9349, -0.01800537, -0.99243164, 0.29425049, 0.42656255, -0.20015649, -0.18320282, -45.24992752, -15.63870239, -94.82607269, 99.47425079, -3.54968143, 113.06620026, -0.33651659, 0.43730497, 0.62522674, 0.55191725, -0.04391575, 0.00796345, -0.12996975, 100.33200836, 82.98865509, 31.23999977, 0.00000000
1, 86.8200, 9350, -0.01696777, -0.98999023, 0.29748535, 0.25156248, -0.27015653, -0.07820275, -45.13300323, -15.72639561, -95.14761353, 99.47557831, -3.54907179, 113.06491852, -0.33652103, 0.43731296, 0.62523025, 0.55190408, -0.04493823, 0.00552511, -0.13318014, 100.33200836, 82.98865509, 31.23999977, 0.00000000
1, 86.8250, 9351, -0.01495361, -0.98889160, 0.29913330, 0.07656240, 0.04484357, -0.11320280, -45.13300323, -15.72639561, -95.14761353, 99.47595215, -3.54855084, 113.06523895, -0.33652103, 0.43730992, 0.62523496, 0.55190116, -0.04694506, 0.00442830, -0.13481519, 100.33200836, 82.98865509, 31.23999977, 0.00000000
1, 86.8500, 9591, -0.02557104, -1.00024533, 0.01315897, -0.19526842, 0.30549878, -0.35170832, -38.55597687, -3.18620276, -110.17246246, 90.58930206, -0.92727482, -110.85778046, -0.40388685, 0.39859039, -0.58844477, -0.57596338, 0.00934312, 0.00040632, -0.00457380, 100.41700745, 75.85894775, 32.02000046, 0.00000000
1, 86.8550, 9592, -0.02282680, -0.99955249, 0.00599559, -0.30091065, 0.20179036, -0.42293975, -38.17597198, -4.03390837, -109.88014984, 90.58776855, -0.92516750, -110.85675049, -0.40388665, 0.39860100, -0.58842629, -0.57597512, 0.00665188, -0.00027536, 0.00257257, 100.41700745, 75.85894775, 32.02000046, 0.00000000
1, 86.8299, 9352, -0.01409912, -0.98870850, 0.30340576, 0.04156239, 0.28984371, -0.21820284, -45.13300323, -15.72639561, -95.14761353, 99.47606659, -3.54771471, 113.06685638, -0.33651754, 0.43729758, 0.62524438, 0.55190235, -0.04778600, 0.00424469, -0.13908543, 100.33200836, 82.98865509, 31.23999977, 0.00000000
1, 86.8350, 9353, -0.01678467, -0.98999023, 0.30761719, 0.07656240, 0.14984362, -0.28820285, -45.16223145, -16.01870728, -95.23531342, 99.47639465, -3.54642177, 113.06784058, -0.33651888, 0.43728724, 0.62525392, 0.55189890, -0.04507791, 0.00552607, -0.14329101, 100.33200836, 82.98865509, 31.23999977, 0.00000000
1, 86.8400, 9354, -0.01928711, -0.99383545, 0.30364990, -0.09843764, -0.02515642, -0.25320283, -45.16223145, -16.01870728, -95.23531342, 99.47588348, -3.54515362, 113.06792450, -0.33652756, 0.43727949, 0.62525600, 0.55189741, -0.04255411, 0.00936866, -0.13933086, 100.33200836, 82.98865509, 31.23999977, 0.00000000
1, 86.8600, 9593, -0.02138454, -0.99826753, 0.00625926, -0.37287369, 0.27077463, -0.42037940, -38.17597198, -4.03390837, -109.88014984, 90.58587646, -0.92308384, -110.85538483, -0.40388957, 0.39861196, -0.58840483, -0.57598746, 0.00524543, -0.00156178, 0.00228307, 100.41700745, 75.85894775, 32.02000046, 0.00000000
1, 86.8650, 9594, -0.01816905, -0.99879396, 0.00435510, -0.08837142, 0.27330813, -0.42394066, -39.02367783, -3.50774622, -109.50014496, 90.58541107, -0.92098337, -110.85400391, -0.40388745, 0.39862809, -0.58839047, -0.57599247, 0.00207138, -0.00103300, 0.00418001, 100.41700745, 75.85894775, 32.02000046, 0.00000000
1, 86.8700, 9595, -0.02028935, -0.99872375, 0.00551766, -0.12246802, 0.16689683, -0.35593867, -39.02367783, -3.50774622, -109.50014496, 90.58477783, -0.91921228, -110.85314941, -0.40388492, 0.39863923, -0.58837825, -0.57599902, 0.00422114, -0.00110580, 0.00300124, 100.41700745, 75.85894775, 32.02000046, 0.00000000
1, 86.8449, 9355, -0.01702881, -0.99395752, 0.30059814, -0.30843776, 0.11484364, -0.32320285, -45.13300323, -16.16486359, -94.62145233, 99.47428894, -3.54365683, 113.06875610, -0.33653808, 0.43726337, 0.62525642, 0.55190331, -0.04478711, 0.00948542, -0.13630149, 100.33200836, 82.98865509, 31.23999977, 0.00000000
1, 86.8500, 9356, -0.01440430, -0.98858643, 0.29931641, -0.37843776, 0.18484366, -0.25320283, -45.13300323, -16.16486359, -94.62145233, 99.47233582, -3.54255843, 113.06988525, -0.33654630, 0.43724644, 0.62525493, 0.55191344, -0.04738951, 0.00410756, -0.13505170, 100.33200836, 82.98865509, 31.23999977, 0.00000000
1, 86.8750, 9596, -0.02241175, -0.99841487, 0.00686719, -0.12121327, 0.03099783, -0.49940261, -39.02367783, -3.50774622, -109.50014496, 90.57939148, -0.94354302, -110.84281158, -0.40407917, 0.39854962, -0.58839893, -0.57590359, 0.00614645, -0.00141411, 0.00159452, 100.41700745, 75.85894775, 32.02000046, 0.00000000
1, 86.8800, 9597, -0.02284850, -0.99750972, 0.00694730, 0.05516124, 0.15026954, -0.50756788, -38.23443222, -3.74159598, -109.38321686, 90.57965851, -0.94101888, -110.84204102, -0.40406933, 0.39856738, -0.58838892, -0.57590854, 0.00639420, -0.00231678, 0.00147298, 100.41700745, 75.85894775, 32.02000046, 0.00000000
1, 86.8850, 9598, -0.02143524, -0.99415183, 0.00694839, 0.09273935, -0.01103022, -0.48560154, -38.23443222, -3.74159598, -109.38321686, 90.58010864, -0.93857503, -110.84207916, -0.40405518, 0.39858121, -0.58838290, -0.57591504, 0.00502334, -0.00567524, 0.00149035, 100.41700745, 75.85894775, 32.02000046, 0.00000000
1, 86.8849, 9357, -0.01794434, -0.99096680, 0.30487061, 0.00656238, -0.72515666, 0.20179734, -45.48377609, -15.78485775, -95.14761353, 99.46888733, -3.54137588, 113.06137848, -0.33660716, 0.43727735, 0.62520975, 0.55190313, -0.04382158, 0.00647509, -0.14067216, 100.33200836, 82.98865509, 31.23999977, 0.00000000
1, 86.8900, 9358, -0.01806641, -0.98828125, 0.30047607, -0.16843770, -0.65515667, 0.34179735, -45.48377609, -15.78485775, -95.14761353, 99.46825409, -3.54252195, 113.05786133, -0.33662003, 0.43729994, 0.62518954, 0.55190027, -0.04371724, 0.00378937, -0.13628539, 100.33200836, 82.98865509, 31.23999977, 0.00000000
1, 86.8950, 9359, -0.01916504, -0.99096680, 0.29711914, -0.16843766, -0.27015653, 0.55179745, -45.27915955, -15.58023930, -95.17684937, 99.46752167, -3.54501820, 113.05606842, -0.33661735, 0.43731901, 0.62517095, 0.55190778, -0.04265684, 0.00647500, -0.13294274, 100.33200836, 82.98865509, 31.23999977, 0.00000000
1, 86.8999, 9360, -0.01788330, -0.98510742, 0.29620361, 0.07656240, -0.20015652, 0.48179743, -45.27915955, -15.58023930, -95.17684937, 99.46798706, -3.54722691, 113.05467987, -0.33660978, 0.43733808, 0.62516069, 0.55190897, -0.04398130, 0.00061855, -0.13202551, 100.33200836, 82.98865509, 31.23999977, 0.00000000
1, 86.9050, 9361, -0.01568604, -0.98956299, 0.29943848, 0.56656259, -0.48015660, 0.48179743, -45.62993240, -15.75562668, -94.59222412, 99.47099304, -3.54920626, 113.05191803, -0.33660045, 0.43737108, 0.62515813, 0.55189145, -0.04621103, 0.00508314, -0.13521850, 100.33200836, 82.98865509, 31.23999977, 0.00000000
1, 86.8900, 9599, -0.01992195, -0.99388504, 0.00664495, 0.05832909, -0.08346682, -0.38173345, -38.43905258, -4.38468266, -109.14936829, 90.58040619, -0.93666911, -110.84247589, -0.40404245, 0.39858991, -0.58837926, -0.57592171, 0.00354565, -0.00594203, 0.00180462, 100.41700745, 75.85894775, 32.02000046, 0.00000000
1, 86.8950, 9600, -0.02066905, -0.99376023, 0.00373407, 0.09305444, -0.01353245, -0.38050857, -38.43905258, -4.38468266, -109.14936829, 90.58086395, -0.93477178, -110.84252930, -0.40403095, 0.39860091, -0.58837521, -0.57592630, 0.00433322, -0.00606263, 0.00471891, 100.41700745, 75.85894775, 32.02000046, 0.00000000
1, 86.9100, 9362, -0.01824951, -0.99157715, 0.29992676, 0.46156257, -0.83015674, 0.65679753, -45.62993240, -15.75562668, -94.59222412, 99.47358704, -3.55175734, 113.04727173, -0.33659849, 0.43741569, 0.62514442, 0.55187261, -0.04368878, 0.00710768, -0.13566014, 100.33200836, 82.98865509, 31.23999977, 0.00000000
1, 86.9149, 9363, -0.02026367, -0.98986816, 0.29772949, 0.14656241, -0.97015679, 0.58679742, -45.62993240, -15.75562668, -94.59222412, 99.47464752, -3.55385280, 113.04199982, -0.33660802, 0.43745723, 0.62512255, 0.55185872, -0.04171311, 0.00540483, -0.13344070, 100.33200836, 82.98865509, 31.23999977, 0.00000000
1, 86.9200, 9364, -0.02203369, -0.98693848, 0.29919434, 0.00656238, -0.62015665, 0.58679742, -45.98070526, -15.63870239, -95.46916199, 99.47489929, -3.55623269, 113.03844452, -0.33661070, 0.43748829, 0.62510246, 0.55185533, -0.03998308, 0.00247869, -0.13489951, 100.33200836, 82.98865509, 31.23999977, 0.00000000
1, 86.9300, 9601, -0.02067658, -0.99633527, 0.00708489, 0.12746330, 0.02743160, -0.62533557, -38.05904770, -3.47851491, -110.05553436, 90.57859802, -0.93187720, -110.83338165, -0.40407011, 0.39865458, -0.58832204, -0.57591599, 0.00437668, -0.00349422, 0.00132442, 100.41700745, 75.85894775, 32.02000046, 0.00000000
1, 86.9350, 9602, -0.01915037, -0.99715602, 0.00651689, 0.20005508, -0.07802968, -0.55866897, -38.05904770, -3.47851491, -110.05553436, 90.57959747, -0.92907310, -110.83373260, -0.40405059, 0.39867049, -0.58831859, -0.57592207, 0.00290373, -0.00267332, 0.00191068, 100.41700745, 75.85894775, 32.02000046, 0.00000000
1, 86.9249, 9365, -0.02282715, -0.98522949, 0.29620361, 0.00656238, -0.16515648, 0.65679753, -45.98070526, -15.63870239, -95.46916199, 99.47501373, -3.55933452, 113.03708649, -0.33659932, 0.43751028, 0.62508762, 0.55186164, -0.03924038, 0.00077343, -0.13190524, 100.33200836, 82.98865509, 31.23999977, 0.00000000
1, 86.9300, 9366, -0.02331543, -0.98693848, 0.29187012, 0.21656244, 0.32484370, 0.48179743, -45.33761978, -15.81408882, -95.67378235, 99.47601318, -3.56197596, 113.03829956, -0.33657473, 0.43751872, 0.62508839, 0.55186903, -0.03880237, 0.00248727, -0.12756182, 100.33200836, 82.98865509, 31.23999977, 0.00000000
1, 87.0200, 9367, -0.01770020, -0.98864746, 0.29956055, -0.34343776, 0.21984364, 0.30679736, -44.86991882, -16.07716942, -94.47529602, 99.47412109, -3.60998750, 113.05305481, -0.33623964, 0.43765286, 0.62497795, 0.55209190, -0.04525591, 0.00424516, -0.13527861, 100.33200836, 82.98865509, 31.23999977, 0.00000000
1, 87.0249, 9368, -0.01824951, -0.98895264, 0.29846191, -0.44843772, 0.46484372, 0.20179732, -44.86991882, -16.07716942, -94.47529602, 99.47174835, -3.61137152, 113.05519104, -0.33623064, 0.43764061, 0.62497008, 0.55211598, -0.04473267, 0.00454569, -0.13421771, 100.33200836, 82.98865509, 31.23999977, 0.00000000
1, 86.9400, 9603, -0.01688154, -0.99739349, 0.00972425, 0.16156128, 0.16531545, -0.55237871, -38.35136032, -3.09850907, -109.61707306, 90.58039093, -0.92631507, -110.83288574, -0.40403810, 0.39869165, -0.58831012, -0.57592487, 0.00067384, -0.00244156, -0.00127594, 100.41700745, 75.85894775, 32.02000046, 0.00000000
1, 86.9450, 9604, -0.01644422, -0.99847341, 0.00933695, 0.19817016, 0.06287381, -0.62539089, -38.35136032, -3.09850907, -109.61707306, 90.58135986, -0.92319643, -110.83253479, -0.40402067, 0.39871275, -0.58830309, -0.57592976, 0.00029025, -0.00136173, -0.00087396, 100.41700745, 75.85894775, 32.02000046, 0.00000000
1, 86.9500, 9605, -0.01849102, -0.99966168, 0.00980614, 0.19984502, -0.07636152, -0.62873095, -38.35136032, -3.09850907, -109.61707306, 90.58237457, -0.92004406, -110.83290100, -0.40399927, 0.39873046, -0.58829856, -0.57593703, 0.00239235, -0.00017509, -0.00133273, 100.41700745, 75.85894775, 32.02000046, 0.00000000
1, 87.0300, 9369, -0.01776123, -0.98809814, 0.29864502, -0.27343771, 0.70984387, 0.27179733, -45.33761978, -16.16486359, -94.70914459, 99.47017670, -3.61329293, 113.05847168, -0.33620992, 0.43762690, 0.62496877, 0.55214095, -0.04525096, 0.00368759, -0.13443395, 100.33200836, 82.98865509, 31.23999977, 0.00000000
1, 87.0350, 9370, -0.01708984, -0.98809814, 0.29986572, -0.34343773, 0.84984386, 0.16679733, -45.33761978, -16.16486359, -94.70914459, 99.46820831, -3.61481404, 113.06253815, -0.33618927, 0.43760592, 0.62496978, 0.55216897, -0.04595260, 0.00368491, -0.13568243, 100.33200836, 82.98865509, 31.23999977, 0.00000000
1, 87.0399, 9371, -0.01293945, -0.98614502, 0.30029297, -0.27343774, 0.88484389, 0.20179732, -45.33761978, -16.16486359, -94.70914459, 99.46657562, -3.61653829, 113.06674957, -0.33616549, 0.43758613, 0.62497240, 0.55219632, -0.05013203, 0.00172806, -0.13614273, 100.33200836, 82.98865509, 31.23999977, 0.00000000
1, 86.9550, 9606, -0.01910275, -1.00022459, 0.00773164, 0.20089249, -0.14764732, -0.56033897, -38.26366425, -3.59543991, -109.23706055, 90.58337402, -0.91723466, -110.83360291, -0.40397799, 0.39874464, -0.58829641, -0.57594442, 0.00305967, 0.00039071, 0.00075533, 100.41700745, 75.85894775, 32.02000046, 0.00000000
1, 86.9600, 9607, -0.01857277, -0.99848413, 0.00885778, 0.12714961, 0.06140636, -0.58946955, -38.26366425, -3.59543991, -109.23706055, 90.58400726, -0.91428733, -110.83328247, -0.40396240, 0.39876351, -0.58828825, -0.57595044, 0.00257713, -0.00135225, -0.00035090, 100.41700745, 75.85894775, 32.02000046, 0.00000000
1, 86.9650, 9608, -0.01942394, -0.99802983, 0.00978078, 0.16145626, 0.16614953, -0.58740968, -38.02981567, -3.18620276, -109.90938568, 90.58479309, -0.91135329, -110.83243561, -0.40394908, 0.39878553, -0.58827913, -0.57595390, 0.00347714, -0.00180892, -0.00126463, 100.41700745, 75.85894775, 32.02000046, 0.00000000
1, 86.9700, 9609, -0.01726915, -0.99621046, 0.00841254, 0.12421861, 0.30506817, -0.58362448, -38.02981567, -3.18620276, -109.90938568, 90.58538055, -0.90844834, -110.83087158, -0.40394014, 0.39881045, -0.58826673, -0.57595575, 0.00137807, -0.00362677, 0.00012230, 100.41700745, 75.85894775, 32.02000046, 0.00000000
1, 86.9750, 9610, -0.01647155, -0.99657989, 0.00894931, 0.12442867, 0.30340001, -0.51356256, -38.02981567, -3.18620276, -109.99707794, 90.58773804, -0.90814090, -110.83062744, -0.40393159, 0.39882153, -0.58827662, -0.57594389, 0.00060414, -0.00325815, -0.00038428, 100.41700745, 75.85894775, 32.02000046, 0.00000000
1, 87.0450, 9372, -0.01226807, -0.98651123, 0.30096436, -0.20343770, 0.53484374, 0.09679726, -44.89915085, -15.96024513, -94.62145233, 99.46540070, -3.61745715, 113.06932068, -0.33615240, 0.43757290, 0.62497354, 0.55221349, -0.05082563, 0.00209197, -0.13683662, 100.33200836, 82.98865509, 31.23999977, 0.00000000
1, 87.0499, 9373, -0.01159668, -0.98748779, 0.29608154, 0.00656238, 0.11484358, 0.09679732, -44.89915085, -15.96024513, -94.62145233, 99.46539307, -3.61803222, 113.06980896, -0.33614680, 0.43757284, 0.62497348, 0.55221695, -0.05150631, 0.00306830, -0.13195872, 100.33200836, 82.98865509, 31.23999977, 0.00000000
1, 87.0550, 9374, -0.01342773, -0.98828125, 0.29345703, 0.14656243, 0.14984362, -0.04320277, -45.62993240, -15.75562668, -95.05992126, 99.46607971, -3.61794686, 113.07057953, -0.33614093, 0.43757018, 0.62497997, 0.55221522, -0.04967676, 0.00386307, -0.12932706, 100.33200836, 82.98865509, 31.23999977, 0.00000000
1, 87.0600, 9375, -0.01470947, -0.98925781, 0.29388428, 0.18156242, 0.35984367, -0.11320280, -45.62993240, -15.75562668, -95.05992126, 99.46686554, -3.61768866, 113.07245636, -0.33613038, 0.43756109, 0.62499177, 0.55221552, -0.04839128, 0.00484192, -0.12973899, 100.33200836, 82.98865509, 31.23999977, 0.00000000
1, 87.0649, 9376, -0.01342773, -0.99060059, 0.29431152, 0.25156248, 0.25484368, -0.25320283, -45.62993240, -15.75562668, -95.05992126, 99.46803284, -3.61665177, 113.07392883, -0.33612469, 0.43755174, 0.62500644, 0.55220979, -0.04965644, 0.00618672, -0.13014747, 100.33200836, 82.98865509, 31.23999977, 0.00000000
1, 87.0350, 9611, -0.01335997, -0.99781191, 0.00848943, -0.09341887, 0.46693292, -0.19197048, -38.23443222, -3.27389646, -109.00321198, 90.59117889, -0.88605458, -110.81230927, -0.40389949, 0.39903992, -0.58815408, -0.57594025, -0.00213333, -0.00203054, 0.00016091, 100.41700745, 75.85894775, 32.02000046, 0.00000000
1, 87.0400, 9612, -0.01425834, -0.99463534, 0.00746186, 0.01347954, 0.46621484, -0.12324408, -38.08827972, -5.40777540, -109.55860901, 90.59121704, -0.88545519, -110.80997467, -0.40390807, 0.39905506, -0.58814400, -0.57593399, -0.00122055, -0.00520555, 0.00118735, 100.41700745, 75.85894775, 32.02000046, 0.00000000
1, 87.0450, 9613, -0.01552691, -0.99548149, 0.00672034, 0.01505077, 0.35928613, -0.02065623, -38.08827972, -5.40777540, -109.55860901, 90.59126282, -0.88535953, -110.80817413, -0.40391645, 0.39906496, -0.58813769, -0.57592773, 0.00005439, -0.00435830, 0.00192673, 100.41700745, 75.85894775, 32.02000046, 0.00000000
1, 87.0500, 9614, -0.01846069, -0.99792719, 0.00850397, 0.12173913, 0.36023620, -0.02199170, -38.70213318, -3.27389646, -109.44168091, 90.59184265, -0.88527572, -110.80637360, -0.40392309, 0.39907670, -0.58813405, -0.57591873, 0.00298537, -0.00191531, 0.00013882, 100.41700745, 75.85894775, 32.02000046, 0.00000000
1, 87.0550, 9615, -0.01852293, -0.99757695, 0.00905783, 0.08617634, 0.35991949, -0.02154654, -38.70213318, -3.27389646, -109.44168091, 90.59224701, -0.88518536, -110.80458069, -0.40393025, 0.39908779, -0.58812946, -0.57591063, 0.00304627, -0.00226653, -0.00040764, 100.41700745, 75.85894775, 32.02000046, 0.00000000
1, 87.1199, 9377, -0.01800537, -0.98724365, 0.30047607, -0.16843770, 0.49984378, 0.06179728, -44.84069061, -16.25255775, -94.91376495, 99.46017456, -3.61686850, 113.09613800, -0.33604643, 0.43740860, 0.62505269, 0.55231857, -0.04507632, 0.00280851, -0.13643935, 100.33200836, 82.98865509, 31.23999977, 0.00000000
1, 87.1250, 9378, -0.01568604, -0.98937988, 0.30047607, -0.20343770, 0.74484384, 0.30679736, -44.84069061, -16.25255775, -94.91376495, 99.45894623, -3.61899328, 113.09957123, -0.33602259, 0.43739602, 0.62505287, 0.55234283, -0.04742546, 0.00494361, -0.13645744, 100.33200836, 82.98865509, 31.23999977, 0.00000000
1, 87.1300, 9379, -0.01708984, -0.98815918, 0.29614258, -0.13343769, 0.46484372, 0.27179733, -45.27915955, -15.66793346, -95.52762604, 99.45814514, -3.62071395, 113.10164642, -0.33600584, 0.43739018, 0.62505126, 0.55235928, -0.04605560, 0.00372264, -0.13213831, 100.33200836, 82.98865509, 31.23999977, 0.00000000
1, 87.1349, 9380, -0.01989746, -0.98785400, 0.29602051, -0.09843764, 0.32484370, 0.30679736, -45.27915955, -15.66793346, -95.52762604, 99.45757294, -3.62249660, 113.10300446, -0.33599144, 0.43738925, 0.62504780, 0.55237269, -0.04327652, 0.00341681, -0.13203123, 100.33200836, 82.98865509, 31.23999977, 0.00000000
1, 87.1400, 9381, -0.01916504, -0.98675537, 0.29675293, -0.02843762, 0.18484366, 0.30679736, -45.01607513, -15.66793346, -95.11838531, 99.45737457, -3.62416244, 113.10366821, -0.33597958, 0.43739277, 0.62504399, 0.55238158, -0.04403820, 0.00231925, -0.13276881, 100.33200836, 82.98865509, 31.23999977, 0.00000000
1, 87.1450, 9382, -0.01678467, -0.98907471, 0.30053711, -0.16843766, -0.02515642, 0.27179733, -45.01607513, -16.31101990, -95.11838531, 99.45655823, -3.62548327, 113.10331726, -0.33597693, 0.43739831, 0.62503433, 0.55238968, -0.04644561, 0.00463855, -0.13656321, 100.33200836, 82.98865509, 31.23999977, 0.00000000
1, 87.1499, 9383, -0.01489258, -0.98535156, 0.30157471, -0.23843774, -0.13015647, 0.27179733, -45.01607513, -16.31101990, -95.11838531, 99.45542145, -3.62671208, 113.10245514, -0.33597848, 0.43740532, 0.62502152, 0.55239767, -0.04835811, 0.00091362, -0.13761924, 100.33200836, 82.98865509, 31.23999977, 0.00000000
1, 87.1550, 9384, -0.01147461, -0.98339844, 0.30139160, 0.07656240, -0.20015649, 0.27179733, -45.10377121, -16.22332573, -95.00145721, 99.45587158, -3.62788773, 113.10124207, -0.33597594, 0.43741864, 0.62501520, 0.55239576, -0.05179627, -0.00103787, -0.13743447, 100.33200836, 82.98865509, 31.23999977, 0.00000000
1, 87.0600, 9616, -0.01783085, -0.99853039, 0.01104129, 0.08931600, 0.08311702, -0.09828859, -38.70213318, -3.27389646, -109.44168091, 90.59268951, -0.88468510, -110.80416107, -0.40392822, 0.39909399, -0.58812851, -0.57590866, 0.00235615, -0.00131639, -0.00238177, 100.41700745, 75.85894775, 32.02000046, 0.00000000
1, 87.0650, 9617, -0.01846449, -0.99687719, 0.01028641, -0.05105164, -0.09052575, -0.17074494, -37.97135162, -6.19701815, -109.41245270, 90.59244537, -0.88383615, -110.80459595, -0.40392259, 0.39909524, -0.58812594, -0.57591450, 0.00300499, -0.00296843, -0.00162553, 100.41700745, 75.85894775, 32.02000046, 0.00000000
1, 87.0700, 9618, -0.01989191, -0.99561727, 0.00788622, 0.02028259, -0.12303303, -0.24253218, -37.97135162, -6.19701815, -109.41245270, 90.59255219, -0.88261348, -110.80522156, -0.40391287, 0.39909863, -0.58812439, -0.57592046, 0.00445966, -0.00422466, 0.00077205, 100.41700745, 75.85894775, 32.02000046, 0.00000000
1, 87.1600, 9385, -0.01269531, -0.98724365, 0.30236816, 0.28656247, -0.09515642, 0.37679738, -45.10377121, -16.22332573, -95.00145721, 99.45735931, -3.62966633, 113.10046387, -0.33596402, 0.43743545, 0.62501359, 0.55239171, -0.05060507, 0.00281242, -0.13839191, 100.33200836, 82.98865509, 31.23999977, 0.00000000
1, 87.1649, 9386, -0.01507568, -0.98773193, 0.30084229, 0.49656254, -0.09515642, 0.41179743, -45.10377121, -15.43408298, -94.53376007, 99.45989990, -3.63161540, 113.09965515, -0.33594722, 0.43745622, 0.62501633, 0.55238235, -0.04825714, 0.00330895, -0.13682884, 100.33200836, 82.98865509, 31.23999977, 0.00000000
1, 87.0750, 9619, -0.02166444, -0.99409580, 0.00950160, 0.01881779, 0.01453413, -0.16913021, -38.35136032, -3.47851491, -109.17860413, 90.60428619, -0.92783320, -110.80759430, -0.40408972, 0.39889807, -0.58834743, -0.57570755, 0.00584258, -0.00574166, -0.00074196, 100.41700745, 75.85894775, 32.02000046, 0.00000000
1, 87.0800, 9620, -0.02321791, -0.99605656, 0.00946789, 0.26786232, 0.01591689, -0.13721533, -38.35136032, -3.47851491, -109.17860413, 90.60562897, -0.92714322, -110.80751038, -0.40408203, 0.39890677, -0.58835149, -0.57570285, 0.00700610, -0.00377351, -0.00059670, 100.41700745, 75.85894775, 32.02000046, 0.00000000
1, 87.2100, 9387, -0.01623535, -0.99420166, 0.31085205, 0.17281218, -0.81211013, 0.27726513, -45.68839645, -15.60947037, -95.03069305, 99.47072601, -3.64808035, 113.09159851, -0.33585158, 0.43760744, 0.62498373, 0.55235755, -0.04739023, 0.00982976, -0.14664561, 100.33200836, 82.98865509, 31.23999977, 0.00000000
1, 87.2150, 9388, -0.01751709, -0.99206543, 0.30065918, 0.06781214, -0.70711011, 0.24226514, -45.86378098, -15.60947037, -95.23531342, 99.47131348, -3.64869308, 113.08791351, -0.33586374, 0.43763208, 0.62497038, 0.55234575, -0.04612040, 0.00769630, -0.13644141, 100.33200836, 82.98865509, 31.23999977, 0.00000000
1, 87.2199, 9389, -0.01599121, -0.99255371, 0.29974365, -0.07218789, -0.42711005, 0.20726512, -45.86378098, -15.60947037, -95.23531342, 99.47109222, -3.64937258, 113.08563232, -0.33587173, 0.43764701, 0.62495840, 0.55234259, -0.04765707, 0.00818509, -0.13552622, 100.33200836, 82.98865509, 31.23999977, 0.00000000
1, 87.2250, 9390, -0.01519775, -0.99133301, 0.29949951, -0.07218789, -0.25210994, 0.17226511, -45.86378098, -15.60947037, -95.23531342, 99.47082520, -3.65001583, 113.08422852, -0.33587581, 0.43765676, 0.62494963, 0.55234224, -0.04846250, 0.00696445, -0.13528651, 100.33200836, 82.98865509, 31.23999977, 0.00000000
1, 87.2299, 9391, -0.01153564, -0.98889160, 0.29846191, -0.24718799, -0.28710997, 0.17226511, -45.71762466, -15.63870239, -95.11838531, 99.46968842, -3.65063190, 113.08267975, -0.33588415, 0.43766475, 0.62493622, 0.55234605, -0.05213435, 0.00452083, -0.13426569, 100.33200836, 82.98865509, 31.23999977, 0.00000000
1, 87.1450, 9621, -0.01709694, -0.99605250, 0.00701794, 0.23848245, -0.58347112, -0.32364947, -38.58520889, -3.59543991, -109.50014496, 90.62004852, -0.92886633, -110.80919647, -0.40403205, 0.39894021, -0.58843577, -0.57562858, 0.00085621, -0.00377036, 0.00212142, 100.41700745, 75.85894775, 32.02000046, 0.00000000
1, 87.1500, 9622, -0.01662505, -0.99530041, 0.00630232, 0.12823573, -0.27280992, -0.24473698, -38.23443222, -3.27389646, -109.17860413, 90.62070465, -0.92761803, -110.81053925, -0.40401667, 0.39894193, -0.58843946, -0.57563442, 0.00041112, -0.00452146, 0.00285576, 100.41700745, 75.85894775, 32.02000046, 0.00000000
1, 87.2350, 9392, -0.01104736, -0.98632813, 0.29791260, -0.31718802, -0.42711005, 0.17226511, -45.71762466, -15.63870239, -95.11838531, 99.46824646, -3.65113091, 113.08042908, -0.33589771, 0.43767512, 0.62491906, 0.55234909, -0.05263311, 0.00195417, -0.13373986, 100.33200836, 82.98865509, 31.23999977, 0.00000000
1, 87.2400, 9393, -0.01220703, -0.98455811, 0.29858398, -0.14218791, -0.56711006, 0.03226505, -45.33761978, -15.93101406, -95.32300568, 99.46771240, -3.65083170, 113.07759094, -0.33591509, 0.43768761, 0.62490666, 0.55234265, -0.05146821, 0.00018179, -0.13442338, 100.33200836, 82.98865509, 31.23999977, 0.00000000
1, 87.2449, 9394, -0.01385498, -0.98480225, 0.29791260, -0.21218796, -0.53211004, -0.00273499, -45.33761978, -15.93101406, -95.32300568, 99.46681213, -3.65038395, 113.07496643, -0.33593369, 0.43769723, 0.62489378, 0.55233824, -0.04981571, 0.00042328, -0.13376591, 100.33200836, 82.98865509, 31.23999977, 0.00000000
1, 87.2500, 9395, -0.01513672, -0.98480225, 0.29638672, -0.07218789, -0.53211004, -0.21273501, -45.33761978, -15.93101406, -95.32300568, 99.46661377, -3.64889884, 113.07251740, -0.33595467, 0.43770319, 0.62488830, 0.55232692, -0.04851285, 0.00042033, -0.13224934, 100.33200836, 82.98865509, 31.23999977, 0.00000000
1, 87.1550, 9623, -0.01552033, -0.99522114, 0.00848711, 0.20124622, -0.41308004, -0.17890543, -38.23443222, -3.27389646, -109.17860413, 90.62174225, -0.92671812, -110.81260681, -0.40399814, 0.39893958, -0.58844870, -0.57563955, -0.00068168, -0.00460441, 0.00068883, 100.41700745, 75.85894775, 32.02000046, 0.00000000
1, 87.1600, 9624, -0.01862167, -0.99715424, 0.01404771, 0.12875947, -0.30845284, -0.21054105, -38.23443222, -3.27389646, -109.17860413, 90.62241364, -0.92564219, -110.81413269, -0.40398264, 0.39893955, -0.58845371, -0.57564533, 0.00242309, -0.00268047, -0.00486938, 100.41700745, 75.85894775, 32.02000046, 0.00000000
1, 87.1650, 9625, -0.01788402, -0.99787247, 0.01390956, -0.04790334, -0.41362867, -0.24585125, -38.05904770, -3.65390229, -109.67552948, 90.62220764, -0.92439532, -110.81619263, -0.40396672, 0.39893460, -0.58845556, -0.57565814, 0.00170743, -0.00196249, -0.00473138, 100.41700745, 75.85894775, 32.02000046, 0.00000000
1, 87.2550, 9396, -0.01660156, -0.98846436, 0.29699707, 0.03281213, -0.21710993, -0.38773513, -45.51300812, -15.81408882, -94.97222900, 99.46683502, -3.64680958, 113.07176971, -0.33596924, 0.43769833, 0.62489337, 0.55231619, -0.04701462, 0.00408107, -0.13285494, 100.33200836, 82.98865509, 31.23999977, 0.00000000
1, 87.1700, 9626, -0.01614780, -0.99757850, 0.01014339, -0.08294237, -0.44958833, -0.21121019, -38.05904770, -3.65390229, -109.67552948, 90.62181854, -0.92331254, -110.81844330, -0.40395129, 0.39892718, -0.58845770, -0.57567191, -0.00000054, -0.00225053, -0.00096550, 100.41700745, 75.85894775, 32.02000046, 0.00000000
1, 87.1750, 9627, -0.01510166, -0.99928999, 0.00852665, 0.02447837, -0.51742178, -0.24924661, -38.20520401, -3.30312777, -109.64630127, 90.62184906, -0.92048985, -110.82116699, -0.40392309, 0.39892757, -0.58845758, -0.57569140, -0.00100695, -0.00053702, 0.00064787, 100.41700745, 75.85894775, 32.02000046, 0.00000000
1, 87.1800, 9628, -0.01680035, -0.99931574, 0.00883547, 0.09361541, -0.34357837, -0.21093091, -38.20520401, -3.30312777, -109.64630127, 90.62232971, -0.91940898, -110.82286835, -0.40390736, 0.39892602, -0.58846223, -0.57569873, 0.00072349, -0.00051221, 0.00034388, 100.41700745, 75.85894775, 32.02000046, 0.00000000
1, 87.2749, 9397, -0.01293945, -0.98699951, 0.30554199, 0.06781214, -0.04210986, -0.35273510, -44.72376633, -15.96024513, -95.55685425, 99.46612549, -3.64012289, 113.07132721, -0.33601189, 0.43766800, 0.62491018, 0.55229521, -0.05055729, 0.00260624, -0.14141390, 100.33200836, 82.98865509, 31.23999977, 0.00000000
1, 87.2800, 9398, -0.01165771, -0.98742676, 0.30407715, 0.10281216, -0.11210991, -0.35273510, -44.48991394, -16.92487526, -95.43992615, 99.46665955, -3.63829875, 113.07105255, -0.33602148, 0.43766269, 0.62491775, 0.55228513, -0.05180899, 0.00303292, -0.13994119, 100.33200836, 82.98865509, 31.23999977, 0.00000000
1, 87.2850, 9399, -0.01379395, -0.98895264, 0.30432129, 0.06781214, -0.21710993, -0.35273510, -44.48991394, -16.92487526, -95.43992615, 99.46704865, -3.63638234, 113.07026672, -0.33603460, 0.43765935, 0.62492293, 0.55227393, -0.04964090, 0.00455892, -0.14017221, 100.33200836, 82.98865509, 31.23999977, 0.00000000
1, 87.1850, 9629, -0.01722161, -0.99830186, 0.01189425, 0.02280352, -0.37818646, -0.24590655, -38.20520401, -3.30312777, -109.64630127, 90.62248230, -0.91816556, -110.82474518, -0.40389109, 0.39892322, -0.58846521, -0.57570904, 0.00115881, -0.00153160, -0.00271036, 100.41700745, 75.85894775, 32.02000046, 0.00000000
1, 87.1900, 9630, -0.01907767, -0.99935079, 0.01418795, -0.07543726, -0.24617015, -0.02024134, -38.20520401, -3.15697169, -109.32476044, 90.62212372, -0.91805792, -110.82598877, -0.40388560, 0.39891618, -0.58846742, -0.57571566, 0.00301521, -0.00048651, -0.00501594, 100.41700745, 75.85894775, 32.02000046, 0.00000000
1, 87.2899, 9400, -0.01696777, -0.99249268, 0.29925537, -0.00218788, -0.39211005, -0.31773511, -45.39608383, -15.55100822, -94.97222900, 99.46714783, -3.63450027, 113.06859589, -0.33605292, 0.43766013, 0.62492317, 0.55226183, -0.04643199, 0.00809699, -0.13510452, 100.33200836, 82.98865509, 31.23999977, 0.00000000
1, 87.2950, 9401, -0.01824951, -0.99127197, 0.29443359, 0.06781214, -0.28710994, -0.38773513, -45.39608383, -15.55100822, -94.97222900, 99.46756744, -3.63235307, 113.06749725, -0.33606875, 0.43765748, 0.62492806, 0.55224878, -0.04511539, 0.00687486, -0.13027799, 100.33200836, 82.98865509, 31.23999977, 0.00000000
1, 87.2999, 9402, -0.01892090, -0.99041748, 0.29858398, 0.15749963, -0.10171915, -0.30488330, -45.39608383, -15.55100822, -94.97222900, 99.46837616, -3.63076329, 113.06724548, -0.33607587, 0.43765393, 0.62493616, 0.55223805, -0.04441021, 0.00602049, -0.13441470, 100.33200836, 82.98865509, 31.23999977, 0.00000000
1, 87.2250, 9631, -0.01461270, -0.99393344, 0.01087872, -0.07522579, -0.21636577, 0.19077946, -38.38058853, -5.93393755, -109.52937317, 90.62125397, -0.92151952, -110.82878876, -0.40389216, 0.39888114, -0.58848470, -0.57571769, -0.00149215, -0.00589796, -0.00173220, 100.41700745, 75.85894775, 32.02000046, 0.00000000
1, 87.2300, 9632, -0.01820662, -0.99381292, 0.00937430, -0.00326278, -0.28535005, 0.18821912, -38.38058853, -5.93393755, -109.52937317, 90.62126160, -0.92245013, -110.83023071, -0.40388963, 0.39886907, -0.58849299, -0.57571942, 0.00208409, -0.00601555, -0.00020924, 100.41700745, 75.85894775, 32.02000046, 0.00000000
1, 87.3050, 9403, -0.01806641, -0.98913574, 0.29809570, 0.14218712, 0.04867168, -0.22203155, -44.16837311, -15.90178299, -95.17684937, 99.46905518, -3.62970471, 113.06767273, -0.33607718, 0.43764874, 0.62494457, 0.55223185, -0.04524599, 0.00473946, -0.13391438, 100.33200836, 82.98865509, 31.23999977, 0.00000000
1, 87.3100, 9404, -0.01501465, -0.98748779, 0.29968262, 0.07218710, 0.32867175, -0.11703143, -44.16837311, -15.90178299, -95.17684937, 99.46929932, -3.62939692, 113.06939697, -0.33606967, 0.43763867, 0.62495339, 0.55223447, -0.04829013, 0.00309202, -0.13549516, 100.33200836, 82.98865509, 31.23999977, 0.00000000
1, 87.2350, 9633, -0.01880889, -0.99349535, 0.01102272, -0.04102417, -0.11078852, 0.15780838, -38.38058853, -5.93393755, -109.52937317, 90.62106323, -0.92323238, -110.83079529, -0.40389144, 0.39886150, -0.58849663, -0.57571959, 0.00266879, -0.00633553, -0.00186032, 100.41700745, 75.85894775, 32.02000046, 0.00000000
1, 87.2400, 9634, -0.01909786, -0.99424851, 0.01185921, -0.07972661, 0.16569728, 0.23499556, -38.81905746, -4.18006420, -109.52937317, 90.62065887, -0.92441922, -110.82997131, -0.40390301, 0.39885825, -0.58849585, -0.57571459, 0.00293677, -0.00558354, -0.00270422, 100.41700745, 75.85894775, 32.02000046, 0.00000000
1, 87.2450, 9635, -0.01795353, -0.99812424, 0.01177868, -0.11528939, 0.16538058, 0.23544072, -38.81905746, -4.18006420, -109.52937317, 90.62005615, -0.92559779, -110.82916260, -0.40391514, 0.39885432, -0.58849400, -0.57571054, 0.00177201, -0.00170725, -0.00263592, 100.41700745, 75.85894775, 32.02000046, 0.00000000
1, 87.3449, 9405, -0.01605225, -0.99035645, 0.30767822, -0.38281307, -0.40632853, 0.44296873, -45.51300812, -16.01870728, -94.32913971, 99.46504974, -3.63317132, 113.07119751, -0.33605587, 0.43763363, 0.62492734, 0.55227619, -0.04730725, 0.00595325, -0.14355649, 100.33200836, 82.98865509, 31.23999977, 0.00000000
1, 87.3500, 9406, -0.01538086, -0.98980713, 0.29937744, -0.34781307, -0.19632842, 0.44296873, -45.51300812, -16.01870728, -94.32913971, 99.46340179, -3.63519239, 113.06986237, -0.33605719, 0.43764535, 0.62490767, 0.55228841, -0.04801283, 0.00540134, -0.13528402, 100.33200836, 82.98865509, 31.23999977, 0.00000000
1, 87.2500, 9636, -0.01761187, -1.00103533, 0.01165917, -0.04364008, 0.13037109, 0.26874638, -37.85442734, -5.61239386, -109.17860413, 90.61983490, -0.92694181, -110.82852173, -0.40392596, 0.39884996, -0.58849525, -0.57570463, 0.00140713, 0.00120414, -0.00252583, 100.41700745, 75.85894775, 32.02000046, 0.00000000
1, 87.2550, 9637, -0.01874923, -1.00243735, 0.01133142, -0.18704371, 0.20122424, 0.16710415, -37.85442734, -5.61239386, -109.17860413, 90.61888885, -0.92779732, -110.82751465, -0.40393865, 0.39884743, -0.58849001, -0.57570297, 0.00252586, 0.00260689, -0.00221523, 100.41700745, 75.85894775, 32.02000046, 0.00000000
1, 87.2600, 9638, -0.01937940, -1.00125813, 0.01008118, -0.18735881, 0.20372647, 0.06201129, -37.85442734, -5.61239386, -109.17860413, 90.61793518, -0.92812026, -110.82649994, -0.40394869, 0.39884764, -0.58848274, -0.57570308, 0.00315347, 0.00142963, -0.00098591, 100.41700745, 75.85894775, 32.02000046, 0.00000000
1, 87.3549, 9407, -0.01208496, -0.99017334, 0.29821777, -0.03281293, -0.16132841, 0.51296872, -45.39608383, -16.07716942, -94.85530090, 99.46331024, -3.63759065, 113.06863403, -0.33604988, 0.43766281, 0.62489474, 0.55229378, -0.05135049, 0.00576875, -0.13413379, 100.33200836, 82.98865509, 31.23999977, 0.00000000
1, 87.3600, 9408, -0.01147461, -0.98846436, 0.29431152, -0.24281304, 0.18867171, 0.47796875, -45.39608383, -16.07716942, -94.85530090, 99.46205902, -3.64010739, 113.06917572, -0.33603784, 0.43766773, 0.62488246, 0.55231100, -0.05200493, 0.00406003, -0.13024302, 100.33200836, 82.98865509, 31.23999977, 0.00000000
1, 87.3650, 9409, -0.01324463, -0.98919678, 0.29486084, -0.27781299, 0.39867178, 0.40796873, -45.22069550, -16.28178787, -94.88453674, 99.46056366, -3.64244461, 113.07080841, -0.33602247, 0.43766516, 0.62487382, 0.55233216, -0.05027689, 0.00479135, -0.13081533, 100.33200836, 82.98865509, 31.23999977, 0.00000000
1, 87.2650, 9639, -0.02135386, -0.99781883, 0.01270714, -0.11361594, -0.00532725, 0.09114182, -38.05904770, -5.37854433, -109.47091675, 90.61736298, -0.92857093, -110.82653809, -0.40395284, 0.39884317, -0.58848161, -0.57570463, 0.00511330, -0.00201403, -0.00362115, 100.41700745, 75.85894775, 32.02000046, 0.00000000
1, 87.2700, 9640, -0.02340906, -0.99556196, 0.00905309, -0.14813122, -0.07692975, 0.15997887, -38.05904770, -5.37854433, -109.47091675, 90.61663818, -0.92936856, -110.82692719, -0.40395743, 0.39883453, -0.58848202, -0.57570684, 0.00716674, -0.00426468, 0.00002023, 100.41700745, 75.85894775, 32.02000046, 0.00000000
1, 87.3699, 9410, -0.01239014, -0.98754883, 0.29663086, -0.31281307, 0.11867169, 0.33796871, -45.22069550, -16.28178787, -94.88453674, 99.45898438, -3.64420867, 113.07112122, -0.33601707, 0.43766695, 0.62486160, 0.55234796, -0.05116463, 0.00314057, -0.13261476, 100.33200836, 82.98865509, 31.23999977, 0.00000000
1, 87.3750, 9411, -0.01196289, -0.98474121, 0.29663086, -0.34781304, -0.23132843, 0.33796871, -45.22069550, -16.28178787, -94.88453674, 99.45734406, -3.64568377, 113.06969452, -0.33602187, 0.43767661, 0.62484336, 0.55235791, -0.05161551, 0.00032949, -0.13264519, 100.33200836, 82.98865509, 31.23999977, 0.00000000
1, 87.3800, 9412, -0.01196289, -0.98498535, 0.29705811, -0.24281304, -0.54632854, 0.37296870, -44.69453430, -15.87255192, -94.38760376, 99.45631409, -3.64707422, 113.06668091, -0.33603242, 0.43769643, 0.62482238, 0.55235958, -0.05164326, 0.00057209, -0.13309246, 100.33200836, 82.98865509, 31.23999977, 0.00000000
1, 87.3849, 9413, -0.01324463, -0.98413086, 0.29687500, -0.10281298, -0.65132856, 0.30296871, -44.69453430, -15.87255192, -94.38760376, 99.45602417, -3.64803767, 113.06321716, -0.33604485, 0.43771893, 0.62480456, 0.55235440, -0.05037753, -0.00028297, -0.13291885, 100.33200836, 82.98865509, 31.23999977, 0.00000000
1, 87.3900, 9414, -0.01446533, -0.98455811, 0.29785156, -0.10281298, -0.65132856, 0.23296869, -45.30838776, -15.40485191, -95.08915710, 99.45572662, -3.64865470, 113.05979919, -0.33605894, 0.43773946, 0.62478799, 0.55234814, -0.04917058, 0.00014427, -0.13390064, 100.33200836, 82.98865509, 31.23999977, 0.00000000
1, 87.3300, 9641, -0.01670051, -0.99612272, 0.01248240, -0.08203548, -0.02103481, -0.01479127, -38.11750793, -3.18620276, -109.61707306, 90.62803650, -0.99836481, -110.82511902, -0.40427721, 0.39853340, -0.58877039, -0.57539600, -0.00075899, -0.00368712, -0.00319660, 100.41700745, 75.85894775, 32.02000046, 0.00000000
1, 87.3350, 9642, -0.01689820, -0.99652076, 0.00883040, -0.00860769, -0.22758625, -0.09075365, -38.61444092, -3.71236467, -109.41245270, 90.62802124, -0.99789876, -110.82625580, -0.40426916, 0.39852986, -0.58877265, -0.57540172, -0.00054731, -0.00328339, 0.00045211, 100.41700745, 75.85894775, 32.02000046, 0.00000000
1, 87.3400, 9643, -0.01628652, -0.99681938, 0.00888321, -0.15316245, -0.05314070, -0.15485993, -38.61444092, -3.71236467, -109.41245270, 90.62725067, -0.99712676, -110.82649994, -0.40426672, 0.39852983, -0.58876705, -0.57540935, -0.00114536, -0.00298502, 0.00039192, 100.41700745, 75.85894775, 32.02000046, 0.00000000
1, 87.3450, 9644, -0.01672089, -0.99638379, 0.00828581, -0.15337110, -0.02000003, -0.08396295, -38.61444092, -3.71236467, -109.41245270, 90.62648773, -0.99671179, -110.82661438, -0.40426672, 0.39852867, -0.58876210, -0.57541507, -0.00070078, -0.00341998, 0.00097550, 100.41700745, 75.85894775, 32.02000046, 0.00000000
1, 87.3500, 9645, -0.01632684, -0.99378085, 0.00888277, -0.15263872, -0.08878361, -0.12066396, -38.00058365, -3.68313360, -110.02630615, 90.62574005, -0.99611068, -110.82705688, -0.40426400, 0.39852679, -0.58875781, -0.57542264, -0.00108570, -0.00602437, 0.00036906, 100.41700745, 75.85894775, 32.02000046, 0.00000000
1, 87.4249, 9415, -0.01776123, -0.98852539, 0.29827881, 0.19960901, 0.40085939, -0.02132840, -45.60070038, -16.54487038, -95.14761353, 99.45270538, -3.65031052, 113.05667877, -0.33607620, 0.43775526, 0.62475610, 0.55236131, -0.04590613, 0.00410432, -0.13438368, 100.33200836, 82.98865509, 31.23999977, 0.00000000
1, 87.4300, 9416, -0.01647949, -0.98913574, 0.29754639, 0.26960906, 0.05085923, -0.02132840, -45.60070038, -16.54487038, -95.14761353, 99.45403290, -3.65024137, 113.05694580, -0.33607021, 0.43775737, 0.62476379, 0.55235463, -0.04718644, 0.00471830, -0.13362890, 100.33200836, 82.98865509, 31.23999977, 0.00000000
1, 87.3550, 9646, -0.01632236, -0.99448872, 0.00801829, -0.08182683, -0.05417548, -0.08568827, -38.00058365, -3.68313360, -110.02630615, 90.62533569, -0.99567515, -110.82732391, -0.40426189, 0.39852625, -0.58875531, -0.57542723, -0.00108059, -0.00531522, 0.00122392, 100.41700745, 75.85894775, 32.02000046, 0.00000000
1, 87.3600, 9647, -0.01594370, -0.99517548, 0.00891463, -0.22523049, 0.01667764, -0.18733050, -38.00058365, -3.15697169, -109.73399353, 90.62421417, -0.99474591, -110.82722473, -0.40426156, 0.39852750, -0.58874613, -0.57543600, -0.00144661, -0.00463030, 0.00031249, 100.41700745, 75.85894775, 32.02000046, 0.00000000
1, 87.3650, 9648, -0.01799137, -0.99624515, 0.00950767, -0.33265120, 0.08451115, -0.14929409, -38.00058365, -3.15697169, -109.73399353, 90.62254333, -0.99401003, -110.82679749, -0.40426573, 0.39852750, -0.58873367, -0.57544565, 0.00061249, -0.00356210, -0.00031340, 100.41700745, 75.85894775, 32.02000046, 0.00000000
1, 87.4350, 9417, -0.01550293, -0.98956299, 0.30145264, 0.19960901, -0.05414076, 0.04867165, -45.60070038, -16.54487038, -95.14761353, 99.45504761, -3.65043521, 113.05663300, -0.33606672, 0.43776289, 0.62476683, 0.55234885, -0.04816711, 0.00514895, -0.13751656, 100.33200836, 82.98865509, 31.23999977, 0.00000000
1, 87.4399, 9418, -0.01550293, -0.99029541, 0.30206299, 0.23460902, -0.12414075, 0.04867162, -45.27915955, -16.04793930, -95.00145721, 99.45625305, -3.65057254, 113.05597687, -0.33606446, 0.43777063, 0.62476969, 0.55234081, -0.04816801, 0.00588465, -0.13810766, 100.33200836, 82.98865509, 31.23999977, 0.00000000
1, 87.4450, 9419, -0.01525879, -0.99084473, 0.30212402, 0.05960898, 0.01585925, 0.15367171, -45.27915955, -16.04793930, -95.00145721, 99.45655060, -3.65134025, 113.05593872, -0.33605921, 0.43777528, 0.62476844, 0.55234176, -0.04842175, 0.00643587, -0.13816038, 100.33200836, 82.98865509, 31.23999977, 0.00000000
1, 87.4500, 9420, -0.01776123, -0.98919678, 0.30139160, 0.09460899, 0.22585936, 0.11867169, -45.39608383, -18.29874229, -94.82607269, 99.45696259, -3.65210509, 113.05695343, -0.33604842, 0.43777445, 0.62477177, 0.55234522, -0.04593314, 0.00478953, -0.13742371, 100.33200836, 82.98865509, 31.23999977, 0.00000000
1, 87.4549, 9421, -0.01641846, -0.99273682, 0.30029297, 0.26960906, 0.36585939, 0.11867169, -45.39608383, -18.29874229, -94.82607269, 99.45820618, -3.65298963, 113.05866241, -0.33603045, 0.43777281, 0.62478137, 0.55234659, -0.04729107, 0.00833386, -0.13630538, 100.33200836, 82.98865509, 31.23999977, 0.00000000
1, 87.4600, 9422, -0.01635742, -0.99157715, 0.30065918, 0.12960899, 0.22585936, 0.18867171, -45.39608383, -18.29874229, -94.82607269, 99.45878601, -3.65410376, 113.05962372, -0.33601731, 0.43777442, 0.62478417, 0.55235010, -0.04737051, 0.00717804, -0.13665593, 100.33200836, 82.98865509, 31.23999977, 0.00000000
1, 87.3700, 9649, -0.01696349, -0.99575567, 0.00981770, -0.43944460, 0.08439516, -0.18298955, -38.00058365, -3.15697169, -109.73399353, 90.62035370, -0.99310321, -110.82637024, -0.40427095, 0.39852661, -0.58871806, -0.57545865, -0.00040038, -0.00405274, -0.00065691, 100.41700745, 75.85894775, 32.02000046, 0.00000000
1, 87.3750, 9650, -0.01691099, -0.99554884, 0.00884968, -0.43766472, -0.05567423, -0.15129869, -38.20520401, -2.60157847, -109.26629639, 90.61681366, -0.99236876, -110.82544708, -0.40428418, 0.39852262, -0.58869457, -0.57547623, -0.00043754, -0.00425884, 0.00026151, 100.41700745, 75.85894775, 32.02000046, 0.00000000
1, 87.4250, 9651, -0.02232536, -1.00012851, 0.00737969, 0.03239204, 0.26113853, -0.00678373, -37.88365936, -3.24466538, -109.44168091, 90.59922791, -1.02181649, -110.80054474, -0.40461984, 0.39843875, -0.58862096, -0.57537365, 0.00477111, 0.00032381, 0.00141304, 100.41700745, 75.85894775, 32.02000046, 0.00000000
1, 87.4300, 9652, -0.02120056, -0.99764073, 0.00803270, -0.03601260, 0.01851150, -0.08180051, -37.88365936, -3.24466538, -109.44168091, 90.59904480, -1.02140164, -110.80046082, -0.40461880, 0.39844066, -0.58861828, -0.57537574, 0.00334787, -0.00216014, 0.00073393, 100.41700745, 75.85894775, 32.02000046, 0.00000000
1, 87.4350, 9653, -0.02102274, -0.99762082, 0.00730356, -0.03423271, -0.12155789, -0.05010957, -37.91289139, -3.39082146, -109.29552460, 90.59887695, -1.02115071, -110.80106354, -0.40461504, 0.39843827, -0.58861870, -0.57537955, 0.00317944, -0.00217907, 0.00146067, 100.41700745, 75.85894775, 32.02000046, 0.00000000
1, 87.4650, 9423, -0.01593018, -0.98626709, 0.29895020, -0.01039103, 0.12085930, 0.36367175, -45.80532074, -17.21718788, -94.41683960, 99.45871735, -3.65599442, 113.05992126, -0.33600548, 0.43778124, 0.62477875, 0.55235803, -0.04782690, 0.00186953, -0.13494879, 100.33200836, 82.98865509, 31.23999977, 0.00000000
1, 87.4699, 9424, -0.01715088, -0.98730469, 0.29901123, -0.04539104, 0.05085923, 0.46867180, -45.80532074, -17.21718788, -94.41683960, 99.45849609, -3.65834665, 113.05978394, -0.33599368, 0.43779215, 0.62476951, 0.55236715, -0.04664567, 0.00290892, -0.13501404, 100.33200836, 82.98865509, 31.23999977, 0.00000000
1, 87.4400, 9654, -0.02163244, -0.99715781, 0.00798295, -0.14322469, 0.05320434, -0.11466102, -37.91289139, -3.39082146, -109.29552460, 90.59815216, -1.02057326, -110.80078888, -0.40461606, 0.39844006, -0.58861214, -0.57538444, 0.00379446, -0.00264336, 0.00076949, 100.41700745, 75.85894775, 32.02000046, 0.00000000
1, 87.4450, 9655, -0.02123296, -0.99515176, 0.00814285, -0.10734823, 0.01954628, -0.15097213, -37.91289139, -3.39082146, -109.29552460, 90.59761047, -1.01981843, -110.80068207, -0.40461463, 0.39844257, -0.58860648, -0.57538950, 0.00340618, -0.00465007, 0.00060285, 100.41700745, 75.85894775, 32.02000046, 0.00000000
1, 87.4500, 9656, -0.01885029, -0.99598885, 0.00860438, -0.14500459, 0.19327372, -0.14635190, -37.50365448, -3.06927800, -109.29552460, 90.59686279, -1.01909423, -110.79970551, -0.40461847, 0.39844859, -0.58859682, -0.57539254, 0.00103666, -0.00381406, 0.00013460, 100.41700745, 75.85894775, 32.02000046, 0.00000000
1, 87.4949, 9425, -0.01385498, -0.99005127, 0.29730225, 0.30460906, -0.36914086, 0.39867178, -45.80532074, -15.90178299, -94.82607269, 99.46415710, -3.66796827, 113.05485535, -0.33594143, 0.43787974, 0.62474626, 0.55235565, -0.05011193, 0.00568140, -0.13321608, 100.33200836, 82.98865509, 31.23999977, 0.00000000
1, 87.5000, 9426, -0.01458740, -0.98980713, 0.29681396, 0.12960900, -0.19414081, 0.32867175, -45.48377609, -16.10640144, -94.88453674, 99.46488190, -3.66942739, 113.05362701, -0.33593637, 0.43789530, 0.62474030, 0.55235326, -0.04940717, 0.00544170, -0.13271230, 100.33200836, 82.98865509, 31.23999977, 0.00000000
1, 87.4550, 9657, -0.01696905, -0.99596274, 0.00835571, -0.00003110, -0.01598063, -0.08308067, -37.50365448, -3.06927800, -109.29552460, 90.59687042, -1.01867926, -110.79978180, -0.40461594, 0.39845029, -0.58859569, -0.57539427, -0.00083695, -0.00384003, 0.00038469, 100.41700745, 75.85894775, 32.02000046, 0.00000000
1, 87.4600, 9658, -0.01653308, -0.99651992, 0.00895070, -0.03664137, 0.05498849, -0.15102743, -38.08827972, -3.30312777, -109.09090424, 90.59667969, -1.01793647, -110.79949951, -0.40461424, 0.39845487, -0.58859116, -0.57539684, -0.00126110, -0.00328410, -0.00021179, 100.41700745, 75.85894775, 32.02000046, 0.00000000
1, 87.5050, 9427, -0.01544189, -0.99212646, 0.29333496, 0.19113243, 0.08039060, 0.28300750, -45.48377609, -16.10640144, -94.88453674, 99.46582794, -3.67088556, 113.05378723, -0.33592370, 0.43790382, 0.62474066, 0.55235368, -0.04857859, 0.00776553, -0.12921640, 100.33200836, 82.98865509, 31.23999977, 0.00000000
1, 87.5099, 9428, -0.01428223, -0.99407959, 0.29376221, 0.18265584, 0.56492203, 0.27234322, -45.48377609, -16.10640144, -94.88453674, 99.46657562, -3.67269611, 113.05635071, -0.33589825, 0.43790033, 0.62474811, 0.55236351, -0.04976903, 0.00972283, -0.12963080, 100.33200836, 82.98865509, 31.23999977, 0.00000000
1, 87.5150, 9429, -0.01531982, -0.99304199, 0.29632568, -0.13234426, 0.73992211, 0.13234319, -45.16223145, -15.78485775, -94.65068817, 99.46568298, -3.67395997, 113.05989075, -0.33587745, 0.43788421, 0.62475324, 0.55238324, -0.04875443, 0.00868484, -0.13220511, 100.33200836, 82.98865509, 31.23999977, 0.00000000
1, 87.5100, 9659, -0.01891498, -0.99511123, 0.00995839, 0.21051116, -0.05840587, 0.10601491, -37.18210983, -4.06313944, -109.82168579, 90.62109375, -0.98359078, -110.82465363, -0.40422869, 0.39858639, -0.58868307, -0.57548267, 0.00172234, -0.00470043, -0.00080487, 100.41700745, 75.85894775, 32.02000046, 0.00000000
1, 87.5150, 9660, -0.01768352, -0.99579930, 0.01127712, 0.21092989, -0.09321471, 0.10517992, -37.18210983, -4.06313944, -109.82168579, 90.62214661, -0.98410285, -110.82512665, -0.40422529, 0.39858514, -0.58869183, -0.57547712, 0.00047706, -0.00401392, -0.00210158, 100.41700745, 75.85894775, 32.02000046, 0.00000000
1, 87.5200, 9430, -0.01477051, -0.99029541, 0.29888916, -0.30734432, 0.45992199, 0.06234317, -45.16223145, -15.78485775, -94.65068817, 99.46400452, -3.67464423, 113.06211090, -0.33586931, 0.43787035, 0.62475139, 0.55240130, -0.04931843, 0.00593537, -0.13479206, 100.33200836, 82.98865509, 31.23999977, 0.00000000
1, 87.5249, 9431, -0.01525879, -0.98547363, 0.29980469, -0.20234430, 0.03992189, 0.02734316, -45.68839645, -16.10640144, -95.49839020, 99.46298218, -3.67480731, 113.06228638, -0.33587143, 0.43786713, 0.62474656, 0.55240792, -0.04883400, 0.00111026, -0.13572854, 100.33200836, 82.98865509, 31.23999977, 0.00000000
1, 87.5300, 9432, -0.01660156, -0.98461914, 0.30249023, -0.06234422, -0.10007814, 0.02734313, -45.68839645, -16.10640144, -95.49839020, 99.46270752, -3.67486024, 113.06176758, -0.33587471, 0.43786937, 0.62474304, 0.55240810, -0.04749413, 0.00025469, -0.13842207, 100.33200836, 82.98865509, 31.23999977, 0.00000000
1, 87.5200, 9661, -0.01601437, -0.99756885, 0.01226926, 0.17505339, -0.05955664, 0.14149104, -37.18210983, -4.06313944, -109.82168579, 90.62303925, -0.98481172, -110.82543945, -0.40422419, 0.39858305, -0.58869982, -0.57547110, -0.00120369, -0.00224588, -0.00307390, 100.41700745, 75.85894775, 32.02000046, 0.00000000
1, 87.5250, 9662, -0.01767627, -0.99548435, 0.01328796, 0.21145362, -0.12885760, 0.13937585, -38.05904770, -3.24466538, -109.61707306, 90.63641357, -0.99160719, -110.83484650, -0.40416491, 0.39854735, -0.58882308, -0.57541132, 0.00039024, -0.00432949, -0.00397194, 100.41700745, 75.85894775, 32.02000046, 0.00000000
1, 87.5300, 9663, -0.01892274, -0.99780035, 0.01300322, 0.24544659, 0.00986032, 0.17730172, -38.05904770, -3.24466538, -109.61707306, 90.63764191, -0.99249172, -110.83480072, -0.40416536, 0.39854741, -0.58883214, -0.57540172, 0.00156886, -0.00201055, -0.00356207, 100.41700745, 75.85894775, 32.02000046, 0.00000000
1, 87.5350, 9433, -0.01507568, -0.98468018, 0.30023193, 0.07765581, 0.10992185, 0.02734316, -45.68839645, -16.10640144, -95.49839020, 99.46306610, -3.67508435, 113.06228638, -0.33586958, 0.43786865, 0.62474602, 0.55240846, -0.04902166, 0.00031638, -0.13616040, 100.33200836, 82.98865509, 31.23999977, 0.00000000
1, 87.5399, 9434, -0.01416016, -0.98419189, 0.30389404, -0.02734421, 0.28492197, -0.11265693, -44.86991882, -16.01870728, -95.55685425, 99.46283722, -3.67475700, 113.06378937, -0.33586508, 0.43785831, 0.62475175, 0.55241299, -0.04993254, -0.00017259, -0.13982472, 100.33200836, 82.98865509, 31.23999977, 0.00000000
1, 87.5350, 9664, -0.01857920, -0.99615932, 0.01315608, 0.17170370, 0.21891402, 0.14817114, -38.43905258, -2.95235300, -109.70476532, 90.63848877, -0.99324155, -110.83370972, -0.40417168, 0.39855215, -0.58883512, -0.57539082, 0.00121041, -0.00365133, -0.00369815, 100.41700745, 75.85894775, 32.02000046, 0.00000000
1, 87.5400, 9665, -0.01940985, -0.99797273, 0.01239395, 0.20611538, 0.32282314, 0.18526199, -38.43905258, -2.95235300, -109.70476532, 90.63948059, -0.99417716, -110.83209991, -0.40418109, 0.39855921, -0.58883780, -0.57537675, 0.00202807, -0.00183623, -0.00292355, 100.41700745, 75.85894775, 32.02000046, 0.00000000
1, 87.5450, 9666, -0.01965183, -0.99907100, 0.01000390, 0.31301379, 0.32210505, 0.25398847, -38.43905258, -2.95235300, -109.70476532, 90.64102173, -0.99546838, -110.83050537, -0.40419030, 0.39856628, -0.58884442, -0.57535863, 0.00225508, -0.00073340, -0.00051217, 100.41700745, 75.85894775, 32.02000046, 0.00000000
1, 87.5649, 9435, -0.01867676, -0.98712158, 0.29553223, -0.02734421, -0.38007829, -0.18265690, -45.51300812, -16.01870728, -94.76760864, 99.46479034, -3.67011046, 113.05526733, -0.33592489, 0.43788913, 0.62474388, 0.55236095, -0.04534120, 0.00275818, -0.13142756, 100.33200836, 82.98865509, 31.23999977, 0.00000000
1, 87.5700, 9436, -0.01855469, -0.98846436, 0.29968262, 0.18265584, -0.03007818, -0.35765702, -45.51300812, -16.01870728, -94.76760864, 99.46569824, -3.66832137, 113.05541229, -0.33593085, 0.43788278, 0.62475467, 0.55235016, -0.04543386, 0.00410065, -0.13556761, 100.33200836, 82.98865509, 31.23999977, 0.00000000
1, 87.5500, 9667, -0.02113004, -0.99882948, 0.00697625, 0.31071016, 0.49781734, 0.18810160, -38.23443222, -3.15697169, -109.26629639, 90.64254761, -0.99641985, -110.82802582, -0.40420225, 0.39857954, -0.58884668, -0.57533860, 0.00372265, -0.00096944, 0.00253883, 100.41700745, 75.85894775, 32.02000046, 0.00000000
1, 87.5550, 9668, -0.01904685, -0.99922729, 0.00920911, 0.23948096, 0.52949059, 0.29491982, -38.23443222, -3.15697169, -109.26629639, 90.64372253, -0.99792105, -110.82539368, -0.40421897, 0.39858955, -0.58884859, -0.57531792, 0.00161088, -0.00057457, 0.00033238, 100.41700745, 75.85894775, 32.02000046, 0.00000000
1, 87.6100, 9669, -0.02353333, -0.99624133, 0.00697468, 0.18933775, 0.20893784, 0.25341311, -37.85442734, -3.53697753, -109.73399353, 90.64953613, -1.00795078, -110.80844116, -0.40433484, 0.39864630, -0.58885330, -0.57519245, 0.00592855, -0.00355270, 0.00266318, 100.41700745, 75.85894775, 32.02000046, 0.00000000
1, 87.6150, 9670, -0.02126075, -0.99718392, 0.00919613, 0.11548984, 0.41882560, 0.18925154, -37.85442734, -3.53697753, -109.73399353, 90.65008545, -1.00891745, -110.80635071, -0.40434831, 0.39865401, -0.58885211, -0.57517886, 0.00362915, -0.00261317, 0.00045848, 100.41700745, 75.85894775, 32.02000046, 0.00000000
1, 87.5750, 9437, -0.01708984, -0.99243164, 0.30767822, 0.11265582, 0.24992193, -0.46265700, -45.48377609, -15.90178299, -95.29376984, 99.46614838, -3.66624403, 113.05702972, -0.33593306, 0.43786579, 0.62476987, 0.55234510, -0.04686382, 0.00806719, -0.14355496, 100.33200836, 82.98865509, 31.23999977, 0.00000000
1, 87.5799, 9438, -0.01800537, -0.99542236, 0.30731201, -0.20234427, 0.21492191, -0.35765702, -45.48377609, -15.90178299, -95.29376984, 99.46504974, -3.66466117, 113.05838776, -0.33593971, 0.43784791, 0.62477493, 0.55234951, -0.04591721, 0.01105473, -0.14319517, 100.33200836, 82.98865509, 31.23999977, 0.00000000
1, 87.5850, 9439, -0.01654053, -0.99041748, 0.30163574, -0.55234438, 0.63492209, -0.35765702, -45.48377609, -15.90178299, -95.29376984, 99.46205902, -3.66341686, 113.06181335, -0.33594161, 0.43781477, 0.62477773, 0.55237150, -0.04736064, 0.00604111, -0.13756350, 100.33200836, 82.98865509, 31.23999977, 0.00000000
1, 87.6200, 9671, -0.01937600, -0.99705732, 0.00979988, 0.11559487, 0.41799155, 0.22428252, -37.85442734, -3.53697753, -109.73399353, 90.65063477, -1.01005137, -110.80426788, -0.40436259, 0.39866087, -0.58885151, -0.57516462, 0.00172446, -0.00274045, -0.00013083, 100.41700745, 75.85894775, 32.02000046, 0.00000000
1, 87.6250, 9672, -0.01768024, -0.99701953, 0.00900534, 0.11538481, 0.41965970, 0.15422060, -38.08827972, -2.60157847, -109.99707794, 90.64603424, -1.01257229, -110.79798889, -0.40442294, 0.39866412, -0.58881521, -0.57515705, 0.00000031, -0.00277675, 0.00063107, 100.41700745, 75.85894775, 32.02000046, 0.00000000
1, 87.6300, 9673, -0.01680142, -0.99561357, 0.00660043, 0.15356492, 0.21028931, 0.18379630, -38.08827972, -2.60157847, -109.99707794, 90.64678192, -1.01350641, -110.79693604, -0.40443033, 0.39866740, -0.58881855, -0.57514620, -0.00090391, -0.00417855, 0.00301028, 100.41700745, 75.85894775, 32.02000046, 0.00000000
1, 87.5900, 9440, -0.01519775, -0.98931885, 0.29937744, -0.41234437, 0.77492213, -0.32265696, -45.95147705, -15.69716454, -95.43992615, 99.45973206, -3.66245723, 113.06591034, -0.33593619, 0.43778121, 0.62478530, 0.55239278, -0.04868670, 0.00493366, -0.13535097, 100.33200836, 82.98865509, 31.23999977, 0.00000000
1, 87.5949, 9441, -0.01477051, -0.98712158, 0.29620361, -0.20234428, 1.05492210, -0.28765693, -45.95147705, -15.69716454, -95.43992615, 99.45837402, -3.66190767, 113.07135773, -0.33591822, 0.43774500, 0.62480140, 0.55241424, -0.04910108, 0.00273106, -0.13220425, 100.33200836, 82.98865509, 31.23999977, 0.00000000
1, 87.6000, 9442, -0.01379395, -0.98840332, 0.30017090, 0.00765580, 1.22992229, -0.60265702, -44.78222656, -16.57410049, -95.05992126, 99.45800018, -3.65993977, 113.07793427, -0.33589908, 0.43769905, 0.62483120, 0.55242866, -0.05004917, 0.00400940, -0.13618055, 100.33200836, 82.98865509, 31.23999977, 0.00000000
1, 87.6350, 9674, -0.01495378, -0.99702120, 0.00778139, 0.22291200, 0.38246459, 0.29217401, -38.29289627, -2.86465931, -109.61707306, 90.64786530, -1.01497507, -110.79503632, -0.40444356, 0.39867353, -0.58882242, -0.57512867, -0.00277709, -0.00277233, 0.00184756, 100.41700745, 75.85894775, 32.02000046, 0.00000000
1, 87.6400, 9675, -0.01579194, -0.99742460, 0.00899109, 0.04802907, 0.13721931, 0.28855470, -38.29289627, -2.86465931, -109.61707306, 90.64810944, -1.01643181, -110.79437256, -0.40445346, 0.39867041, -0.58882636, -0.57511991, -0.00196745, -0.00237030, 0.00064208, 100.41700745, 75.85894775, 32.02000046, 0.00000000
1, 87.6450, 9676, -0.01638130, -0.99848175, 0.00970105, 0.15628725, -0.00023188, 0.24884818, -38.29289627, -2.86465931, -109.61707306, 90.64888000, -1.01767170, -110.79437256, -0.40445703, 0.39866683, -0.58883452, -0.57511151, -0.00140323, -0.00131388, -0.00006057, 100.41700745, 75.85894775, 32.02000046, 0.00000000
1, 87.6049, 9443, -0.01422119, -0.98992920, 0.29895020, 0.00765580, 1.61492240, -0.49765703, -44.78222656, -16.57410049, -95.05992126, 99.45750427, -3.65881014, 113.08632660, -0.33586690, 0.43764666, 0.62486458, 0.55245197, -0.04959798, 0.00553259, -0.13496763, 100.33200836, 82.98865509, 31.23999977, 0.00000000
1, 87.6100, 9444, -0.01483154, -0.98931885, 0.30023193, -0.10336000, 1.39125025, -0.43640676, -44.78222656, -16.57410049, -95.05992126, 99.45652771, -3.65779757, 113.09355927, -0.33584145, 0.43759969, 0.62489080, 0.55247492, -0.04896999, 0.00491917, -0.13626075, 100.33200836, 82.98865509, 31.23999977, 0.00000000
