SensorId, TimeStamp (s), FrameNumber, AccX (g), AccY (g), AccZ (g), GyroX (deg/s), GyroY (deg/s), GyroZ (deg/s), MagX (uT), MagY (uT), MagZ (uT), EulerX (deg), EulerY (deg), EulerZ (deg), QuatW, QuatX, QuatY, QuatZ, LinAccX (g), LinAccY (g), LinAccZ (g), Pressure (kPa), Altitude (m), Temperature (degC), HeaveMotion (m)
1, 64.4399, 6857, -0.07934570, -0.98248291, 0.31518555, -0.33632886, 0.24117149, -0.09187511, -24.52499199, 10.23092651, -62.37942123, 111.39564514, 8.65031910, -70.80832672, -0.42194697, 0.69602877, -0.44257411, -0.37634164, 0.22974953, 0.06199251, 0.04547475, 100.32900238, 83.24089050, 31.25000000, 0.00000000
1, 64.4450, 6858, -0.08026123, -0.98339844, 0.31445313, -0.26632884, 0.20617151, -0.02187509, -24.52499199, 10.23092651, -62.37942123, 111.39447021, 8.65004444, -70.80731201, -0.42195863, 0.69602764, -0.44256523, -0.37634087, 0.23066226, 0.06290007, 0.04618835, 100.32900238, 83.24089050, 31.25000000, 0.00000000
1, 64.4500, 6859, -0.08087158, -0.98370361, 0.31408691, -0.12632874, -0.17882864, -0.02187509, -23.94036865, 9.50014591, -63.02250671, 111.39370728, 8.65047646, -70.80812073, -0.42195866, 0.69602281, -0.44256577, -0.37634915, 0.23127979, 0.06320125, 0.04654133, 100.32900238, 83.24089050, 31.25000000, 0.00000000
1, 64.4549, 6860, -0.08050537, -0.98388672, 0.31262207, -0.12632874, -0.17882860, 0.04812492, -23.94036865, 9.50014591, -63.02250671, 111.39292908, 8.65057659, -70.80904388, -0.42195988, 0.69601661, -0.44256848, -0.37635618, 0.23091511, 0.06337885, 0.04799151, 100.32900238, 83.24089050, 31.25000000, 0.00000000
1, 64.4600, 6861, -0.08166504, -0.98486328, 0.31268311, -0.16132878, -0.21382864, 0.08312491, -23.56036186, 11.22478771, -62.43788147, 111.39195251, 8.65057850, -70.81021118, -0.42196205, 0.69600856, -0.44257230, -0.37636426, 0.23207229, 0.06434894, 0.04791524, 100.32900238, 83.24089050, 31.25000000, 0.00000000
1, 64.4650, 6862, -0.08343506, -0.98413086, 0.31091309, -0.09132874, -0.21382862, 0.04812492, -23.56036186, 11.22478771, -62.43788147, 111.39134216, 8.65074444, -70.81130219, -0.42196143, 0.69600242, -0.44257617, -0.37637156, 0.23384428, 0.06361228, 0.04967346, 100.32900238, 83.24089050, 31.25000000, 0.00000000
1, 64.4699, 6863, -0.08386230, -0.98352051, 0.31182861, 0.04867129, -0.28382868, 0.04812492, -23.56036186, 11.22478771, -62.43788147, 111.39137268, 8.65103626, -70.81272125, -0.42195526, 0.69599777, -0.44258368, -0.37637836, 0.23427750, 0.06300314, 0.04875842, 100.32900238, 83.24089050, 31.25000000, 0.00000000
1, 64.4750, 6864, -0.08618164, -0.98376465, 0.31219482, 0.11867134, -0.10882861, 0.15312499, -24.32037354, 11.51710033, -62.73019409, 111.39184570, 8.65052414, -70.81352234, -0.42195204, 0.69599521, -0.44259226, -0.37637654, 0.23659158, 0.06324865, 0.04839800, 100.32900238, 83.24089050, 31.25000000, 0.00000000
1, 64.4799, 6865, -0.08612061, -0.98376465, 0.31079102, 0.08367130, -0.00382859, 0.18812501, -24.32037354, 11.51710033, -62.73019409, 111.39221191, 8.64965916, -70.81388855, -0.42195246, 0.69599307, -0.44259942, -0.37637159, 0.23651695, 0.06324905, 0.04980853, 100.32900238, 83.24089050, 31.25000000, 0.00000000
1, 64.4850, 6866, -0.08807373, -0.98431396, 0.31072998, 0.08367130, -0.03882853, 0.15312499, -23.85267448, 11.13709450, -62.78865814, 111.39256287, 8.64901924, -70.81435394, -0.42195165, 0.69599098, -0.44260615, -0.37636834, 0.23845658, 0.06379882, 0.04987626, 100.32900238, 83.24089050, 31.25000000, 0.00000000
1, 64.4700, 6965, -0.02751358, -0.99639964, 0.01166213, -0.24135472, 0.54138744, -0.30935162, -24.08652496, 11.51710033, -71.32417297, 90.67489624, -1.65313864, 68.52693939, 0.57510489, -0.59347314, -0.39201581, -0.40418774, -0.00137505, -0.00313510, -0.00158607, 100.41500854, 76.02655792, 32.09000015, 0.00000000
1, 64.4750, 6966, -0.02690021, -0.99659026, 0.01226379, -0.24135475, 0.54138744, -0.30935162, -24.05729294, 11.60479355, -71.00263214, 90.67835999, -1.64760268, 68.52884674, 0.57509989, -0.59346527, -0.39206627, -0.40415731, -0.00192829, -0.00294678, -0.00216603, 100.41500854, 76.02655792, 32.09000015, 0.00000000
1, 64.4800, 6967, -0.02657742, -0.99428952, 0.01030366, -0.31530768, 0.75210935, -0.40854415, -24.05729294, 11.60479355, -71.00263214, 90.67666626, -1.64559722, 68.53263092, 0.57510251, -0.59343702, -0.39209014, -0.40417194, -0.00217910, -0.00524634, -0.00018756, 100.41500854, 76.02655792, 32.09000015, 0.00000000
1, 64.4850, 6968, -0.02665537, -0.99295521, 0.01039109, -0.31562138, 0.78608412, -0.37267813, -23.96959877, 9.58784008, -70.97339630, 90.67498779, -1.64379132, 68.53657532, 0.57510376, -0.59340900, -0.39211392, -0.40418833, -0.00206652, -0.00658197, -0.00030244, 100.41500854, 76.02655792, 32.09000015, 0.00000000
1, 64.4900, 6969, -0.02665987, -0.99374127, 0.00776345, -0.28183702, 0.95794272, -0.26385534, -23.96959877, 9.58784008, -70.97339630, 90.67343140, -1.64251888, 68.54137421, 0.57509941, -0.59338045, -0.39213979, -0.40421128, -0.00203183, -0.00579263, 0.00229535, 100.41500854, 76.02655792, 32.09000015, 0.00000000
1, 64.5200, 6867, -0.08532715, -0.98413086, 0.31036377, -0.02460918, 0.52773374, 0.19468762, -24.14498711, 10.90324497, -63.11020279, 111.39776611, 8.63955021, -70.80209351, -0.42200261, 0.69603485, -0.44258964, -0.37624964, 0.23555107, 0.06362535, 0.05033317, 100.32900238, 83.24089050, 31.25000000, 0.00000000
1, 64.5249, 6868, -0.08367920, -0.98291016, 0.31085205, 0.04539083, 0.77273381, 0.08968756, -24.20344925, 11.02016926, -62.78865814, 111.39852142, 8.63772011, -70.79861450, -0.42201763, 0.69604665, -0.44257888, -0.37622362, 0.23387294, 0.06240465, 0.04985762, 100.32900238, 83.24089050, 31.25000000, 0.00000000
1, 64.4950, 6970, -0.02386438, -0.99400604, 0.00738451, -0.31844735, 1.02891159, -0.33180210, -23.96959877, 9.58784008, -70.97339630, 90.67167664, -1.64091659, 68.54654694, 0.57509595, -0.59334856, -0.39216858, -0.40423506, -0.00479984, -0.00552846, 0.00265047, 100.41500854, 76.02655792, 32.09000015, 0.00000000
1, 64.5000, 6971, -0.02255557, -0.99642825, 0.00757522, -0.42387810, 0.95500779, -0.19201282, -24.29114342, 8.06781673, -70.82723999, 90.66942596, -1.64000928, 68.55132294, 0.57509398, -0.59331787, -0.39219004, -0.40426216, -0.00609038, -0.00310757, 0.00242416, 100.41500854, 76.02655792, 32.09000015, 0.00000000
1, 64.5050, 6972, -0.02349758, -0.99759471, 0.01010656, -0.38747790, 0.88570678, -0.19412801, -24.29114342, 8.06781673, -70.82723999, 90.66735840, -1.63908195, 68.55576324, 0.57509232, -0.59328908, -0.39221045, -0.40428683, -0.00513865, -0.00194583, -0.00015053, 100.41500854, 76.02655792, 32.09000015, 0.00000000
1, 64.5300, 6869, -0.08380127, -0.98162842, 0.31140137, -0.30460927, 0.87773389, 0.05468758, -24.20344925, 11.02016926, -62.78865814, 111.39760590, 8.63586712, -70.79457855, -0.42204469, 0.69605440, -0.44255936, -0.37620184, 0.23396489, 0.06111617, 0.04930351, 100.32900238, 83.24089050, 31.25000000, 0.00000000
1, 64.5350, 6870, -0.08111572, -0.98272705, 0.31170654, -0.16460924, 0.87773383, 0.05468752, -24.34960556, 11.31248188, -62.11634064, 111.39738464, 8.63401127, -70.79055023, -0.42206755, 0.69606465, -0.44254214, -0.37617737, 0.23124647, 0.06220755, 0.04899354, 100.32900238, 83.24089050, 31.25000000, 0.00000000
1, 64.5399, 6871, -0.08007813, -0.98236084, 0.31036377, -0.16460919, 0.87773383, 0.08968756, -24.34960556, 11.31248188, -62.11634064, 111.39715576, 8.63198948, -70.78659821, -0.42209101, 0.69607431, -0.44252607, -0.37615231, 0.23017544, 0.06183571, 0.05033591, 100.32900238, 83.24089050, 31.25000000, 0.00000000
1, 64.5100, 6973, -0.02173926, -0.99635732, 0.01243362, -0.34961289, 0.67883873, -0.26964515, -24.08652496, 11.40017509, -71.49955750, 90.66551208, -1.63778198, 68.55916595, 0.57509452, -0.59326380, -0.39222825, -0.40430361, -0.00688310, -0.00318810, -0.00250200, 100.41500854, 76.02655792, 32.09000015, 0.00000000
1, 64.5150, 6974, -0.02137813, -0.99605274, 0.01255995, -0.38130224, 0.36440834, -0.24168421, -24.08652496, 11.40017509, -71.49955750, 90.66354370, -1.63659108, 68.56100464, 0.57510245, -0.59324366, -0.39223695, -0.40431353, -0.00722265, -0.00349398, -0.00266151, 100.41500854, 76.02655792, 32.09000015, 0.00000000
1, 64.5350, 6975, -0.02705843, -0.99720800, 0.01504641, -0.37816113, 0.11907841, -0.17746733, -24.02806091, 10.26015759, -71.20724487, 90.66793060, -1.62552702, 68.56483459, 0.57510573, -0.59321511, -0.39232883, -0.40426153, -0.00135393, -0.00234765, -0.00508928, 100.41500854, 76.02655792, 32.09000015, 0.00000000
1, 64.5400, 6976, -0.02717739, -0.99808145, 0.01345010, -0.37920722, 0.22183678, -0.10490035, -24.02806091, 10.26015759, -71.20724487, 90.66600800, -1.62501240, 68.56594849, 0.57511365, -0.59319991, -0.39233044, -0.40427113, -0.00122192, -0.00147206, -0.00352504, 100.41500854, 76.02655792, 32.09000015, 0.00000000
1, 64.5450, 6872, -0.07989502, -0.98217773, 0.31085205, -0.26960930, 0.80773383, 0.19468768, -24.34960556, 11.31248188, -62.11634064, 111.39630890, 8.62960815, -70.78314972, -0.42211804, 0.69607878, -0.44251269, -0.37612939, 0.22995156, 0.06164224, 0.04983835, 100.32900238, 83.24089050, 31.25000000, 0.00000000
1, 64.5499, 6873, -0.07965088, -0.98126221, 0.30993652, -0.40960929, 0.94773382, 0.05468758, -24.23267937, 10.11400127, -62.32095718, 111.39492035, 8.62761879, -70.77878571, -0.42214969, 0.69608569, -0.44249016, -0.37610748, 0.22966996, 0.06071299, 0.05073425, 100.32900238, 83.24089050, 31.25000000, 0.00000000
1, 64.5550, 6874, -0.07891846, -0.98150635, 0.30981445, -0.37460929, 0.87773383, -0.01531244, -24.23267937, 10.11400127, -62.32095718, 111.39366150, 8.62608719, -70.77462769, -0.42217785, 0.69609350, -0.44246742, -0.37608838, 0.22890998, 0.06094498, 0.05083665, 100.32900238, 83.24089050, 31.25000000, 0.00000000
1, 64.5450, 6977, -0.02573504, -0.99748611, 0.01212071, -0.52480948, 0.46756810, -0.23739855, -24.02806091, 10.26015759, -71.20724487, 90.66331482, -1.62385619, 68.56829071, 0.57512343, -0.59317446, -0.39233899, -0.40428624, -0.00264219, -0.00206618, -0.00223640, 100.41500854, 76.02655792, 32.09000015, 0.00000000
1, 64.5500, 6978, -0.02387141, -0.99549150, 0.01336899, -0.45368391, 0.46820146, -0.23828880, -24.08652496, 11.16632557, -71.03186035, 90.66097260, -1.62268972, 68.57064819, 0.57513136, -0.59315068, -0.39234886, -0.40430009, -0.00448714, -0.00406409, -0.00351897, 100.41500854, 76.02655792, 32.09000015, 0.00000000
1, 64.5550, 6979, -0.02179570, -0.99539888, 0.01542936, -0.45431128, 0.53615099, -0.16655689, -24.08652496, 11.16632557, -71.03186035, 90.65863800, -1.62190199, 68.57332611, 0.57513684, -0.59312713, -0.39235857, -0.40431759, -0.00655249, -0.00416103, -0.00561637, 100.41500854, 76.02655792, 32.09000015, 0.00000000
1, 64.5600, 6875, -0.07806396, -0.98260498, 0.30798340, -0.12960921, 0.73773384, 0.05468752, -23.91113663, 10.93247604, -61.99941635, 111.39352417, 8.62448788, -70.77125549, -0.42219687, 0.69610214, -0.44245332, -0.37606740, 0.22802876, 0.06203681, 0.05266161, 100.32900238, 83.24089050, 31.25000000, 0.00000000
1, 64.5649, 6876, -0.08020020, -0.98101807, 0.30841064, -0.19960929, 0.80773383, 0.08968762, -23.91113663, 10.93247604, -61.99941635, 111.39307404, 8.62259197, -70.76761627, -0.42222002, 0.69610995, -0.44243789, -0.37604505, 0.23013085, 0.06044334, 0.05223166, 100.32900238, 83.24089050, 31.25000000, 0.00000000
1, 64.6049, 6877, -0.08178711, -0.98339844, 0.31066895, -0.02242131, 0.50749916, -0.27726564, -23.94036865, 11.07863140, -62.32095718, 111.39984131, 8.62163925, -70.74851227, -0.42224583, 0.69620645, -0.44234818, -0.37594315, 0.23169416, 0.06286116, 0.05007873, 100.32900238, 83.24089050, 31.25000000, 0.00000000
1, 64.6100, 6878, -0.08178711, -0.98468018, 0.31109619, -0.02242131, 0.61249918, -0.27726564, -23.82344246, 11.28325081, -62.26249695, 111.40023804, 8.62181282, -70.74511719, -0.42225379, 0.69622141, -0.44232810, -0.37593010, 0.23169716, 0.06414579, 0.04965764, 100.32900238, 83.24089050, 31.25000000, 0.00000000
1, 64.6150, 6879, -0.08233643, -0.98620605, 0.31243896, -0.05742134, 0.85749930, -0.48726577, -23.82344246, 11.28325081, -62.26249695, 111.40068817, 8.62251949, -70.74018097, -0.42226410, 0.69624382, -0.44229653, -0.37591413, 0.23225549, 0.06567539, 0.04832098, 100.32900238, 83.24089050, 31.25000000, 0.00000000
1, 64.5600, 6980, -0.02514684, -0.99515998, 0.01416946, -0.42094570, 0.74281847, -0.05689906, -24.05729294, 11.28325081, -71.17801666, 90.65641785, -1.62165070, 68.57705688, 0.57513607, -0.59310240, -0.39237133, -0.40434262, -0.00319233, -0.00439822, -0.00440114, 100.41500854, 76.02655792, 32.09000015, 0.00000000
1, 64.5650, 6981, -0.02433873, -0.99672210, 0.01377139, -0.59917831, 0.77604389, -0.05383826, -24.05729294, 11.28325081, -71.17801666, 90.65332031, -1.62143576, 68.58094025, 0.57513911, -0.59307283, -0.39238161, -0.40437159, -0.00399715, -0.00283628, -0.00405468, 100.41500854, 76.02655792, 32.09000015, 0.00000000
1, 64.5700, 6982, -0.02276050, -0.99693155, 0.01309382, -0.32180387, 0.59971476, 0.10300864, -24.05729294, 11.28325081, -71.17801666, 90.65161896, -1.62198412, 68.58394623, 0.57513535, -0.59305584, -0.39238834, -0.40439528, -0.00557790, -0.00262605, -0.00341223, 100.41500854, 76.02655792, 32.09000015, 0.00000000
1, 64.6199, 6880, -0.08270264, -0.98590088, 0.31304932, -0.23242135, 0.92749935, -0.38226572, -23.82344246, 11.28325081, -62.26249695, 111.40028381, 8.62259960, -70.73509979, -0.42228281, 0.69626212, -0.44226405, -0.37589747, 0.23262818, 0.06537177, 0.04771164, 100.32900238, 83.24089050, 31.25000000, 0.00000000
1, 64.6250, 6881, -0.08184814, -0.98571777, 0.31304932, -0.33742142, 1.13749933, -0.45226577, -23.99883080, 11.04940033, -61.99941635, 111.39952087, 8.62262630, -70.72891998, -0.42230764, 0.69628322, -0.44222382, -0.37587777, 0.23177437, 0.06518374, 0.04769862, 100.32900238, 83.24089050, 31.25000000, 0.00000000
1, 64.6300, 6882, -0.08142090, -0.98577881, 0.31268311, -0.37242138, 1.24249935, -0.45226577, -23.99883080, 11.04940033, -61.99941635, 111.39865112, 8.62245750, -70.72223663, -0.42233557, 0.69630539, -0.44218111, -0.37585554, 0.23134479, 0.06523884, 0.04805083, 100.32900238, 83.24089050, 31.25000000, 0.00000000
1, 64.5750, 6983, -0.02165912, -0.99770057, 0.01271049, -0.19045044, 0.70392585, 0.12819234, -23.76498032, 11.31248188, -71.38263702, 90.65673065, -1.60752869, 68.58604431, 0.57515311, -0.59302539, -0.39249122, -0.40431497, -0.00655952, -0.00185920, -0.00299194, 100.41500854, 76.02655792, 32.09000015, 0.00000000
1, 64.6349, 6883, -0.08117676, -0.98632813, 0.31091309, -0.33742142, 1.31249940, -0.55726576, -24.37883568, 11.25401878, -62.05787659, 111.39805603, 8.62265778, -70.71503448, -0.42236197, 0.69633144, -0.44213450, -0.37583244, 0.23110265, 0.06578455, 0.04981092, 100.32900238, 83.24089050, 31.25000000, 0.00000000
1, 64.6400, 6884, -0.08062744, -0.98657227, 0.30950928, -0.47742143, 1.41749954, -0.52226573, -24.37883568, 11.25401878, -62.05787659, 111.39682770, 8.62250805, -70.70738983, -0.42239523, 0.69635606, -0.44208467, -0.37580818, 0.23055130, 0.06602173, 0.05119767, 100.32900238, 83.24089050, 31.25000000, 0.00000000
1, 64.6899, 6885, -0.08001709, -0.98327637, 0.30639648, 0.01257867, 0.05249901, -0.76726586, -24.20344925, 10.90324497, -62.40865326, 111.38926697, 8.64313316, -70.66156769, -0.42249936, 0.69655430, -0.44169241, -0.37578487, 0.23028184, 0.06272487, 0.05416634, 100.32900238, 83.24089050, 31.25000000, 0.00000000
1, 64.6950, 6886, -0.08087158, -0.98425293, 0.30566406, -0.09242132, 0.22749908, -0.69726580, -24.20344925, 10.90324497, -62.43788147, 111.38916016, 8.64596176, -70.65921021, -0.42249516, 0.69656974, -0.44166550, -0.37579259, 0.23118851, 0.06370705, 0.05489126, 100.32900238, 83.24089050, 31.25000000, 0.00000000
1, 64.5800, 6984, -0.02014738, -0.99765742, 0.01161293, -0.33280656, 0.70349312, 0.09494194, -23.76498032, 11.31248188, -71.38263702, 90.65496063, -1.60804141, 68.58956909, 0.57514799, -0.59300619, -0.39250058, -0.40434128, -0.00794533, -0.00190382, -0.00186458, 100.41500854, 76.02655792, 32.09000015, 0.00000000
1, 64.6400, 6985, -0.02212156, -1.00027275, 0.01083869, -0.54565674, 0.72889519, 0.41372660, -24.02806091, 11.37094402, -70.91493988, 90.63034058, -1.62492704, 68.63563538, 0.57505250, -0.59278202, -0.39256561, -0.40474251, -0.00625617, 0.00071619, -0.00152440, 100.41500854, 76.02655792, 32.09000015, 0.00000000
1, 64.6450, 6986, -0.02155199, -0.99815750, 0.00911706, -0.51009399, 0.72921187, 0.41328144, -24.02806091, 11.37094402, -70.91493988, 90.62770081, -1.62703705, 68.63925171, 0.57504582, -0.59276342, -0.39256418, -0.40478045, -0.00685961, -0.00139569, 0.00015590, 100.41500854, 76.02655792, 32.09000015, 0.00000000
1, 64.6500, 6987, -0.02237963, -0.99605572, 0.00733903, -0.54450560, 0.62530279, 0.37619054, -23.82344246, 11.72171879, -71.29494476, 90.62487030, -1.62894344, 68.64236450, 0.57504267, -0.59274507, -0.39256051, -0.40481541, -0.00606113, -0.00349415, 0.00188603, 100.41500854, 76.02655792, 32.09000015, 0.00000000
1, 64.7000, 6887, -0.08386230, -0.98382568, 0.30743408, -0.09242132, 0.15749906, -0.73226583, -24.08652496, 10.78631973, -62.43788147, 111.38900757, 8.64908218, -70.65711975, -0.42248902, 0.69658470, -0.44163883, -0.37580308, 0.23423165, 0.06328738, 0.05311862, 100.32900238, 83.24089050, 31.25000000, 0.00000000
1, 64.7049, 6888, -0.08422852, -0.98303223, 0.30731201, -0.23242141, 0.40249914, -0.69726580, -24.08652496, 10.78631973, -62.43788147, 111.38832855, 8.65159225, -70.65393829, -0.42249241, 0.69660044, -0.44160640, -0.37580818, 0.23464338, 0.06249681, 0.05322916, 100.32900238, 83.24089050, 31.25000000, 0.00000000
1, 64.7100, 6889, -0.08563232, -0.98413086, 0.30987549, -0.23242141, 0.50749916, -0.69726580, -23.91113663, 10.72785759, -62.52557755, 111.38771057, 8.65391254, -70.65026855, -0.42249784, 0.69661790, -0.44157204, -0.37581009, 0.23608974, 0.06359741, 0.05065316, 100.32900238, 83.24089050, 31.25000000, 0.00000000
1, 64.7150, 6890, -0.08581543, -0.98504639, 0.30712891, -0.26742139, 0.61249912, -0.80226582, -23.91113663, 10.72785759, -62.52557755, 111.38703156, 8.65652847, -70.64589691, -0.42250463, 0.69663846, -0.44153199, -0.37581140, 0.23631431, 0.06451499, 0.05338748, 100.32900238, 83.24089050, 31.25000000, 0.00000000
1, 64.6550, 6988, -0.02390040, -0.99583197, 0.00746996, -0.54408687, 0.59049386, 0.37535554, -23.82344246, 11.72171879, -71.29494476, 90.62206268, -1.63085663, 68.64530182, 0.57503992, -0.59272736, -0.39255601, -0.40484947, -0.00457405, -0.00371773, 0.00170266, 100.41500854, 76.02655792, 32.09000015, 0.00000000
1, 64.6600, 6989, -0.02398701, -0.99394512, 0.00732538, -0.50601184, 0.38195759, 0.36990029, -24.11575508, 11.42940617, -71.49955750, 90.61948395, -1.63272011, 68.64719391, 0.57503998, -0.59271431, -0.39254719, -0.40487731, -0.00451996, -0.00560393, 0.00180328, 100.41500854, 76.02655792, 32.09000015, 0.00000000
1, 64.6650, 6990, -0.02454541, -0.99719799, 0.00835623, -0.43498990, 0.41489756, 0.47493792, -24.11575508, 11.42940617, -71.49955750, 90.61727142, -1.63513207, 68.64926147, 0.57503557, -0.59270430, -0.39253765, -0.40490746, -0.00400433, -0.00235205, 0.00072690, 100.41500854, 76.02655792, 32.09000015, 0.00000000
1, 64.7199, 6891, -0.08471680, -0.98193359, 0.30761719, -0.30242139, 0.71749926, -0.87226576, -23.91113663, 10.87401295, -62.58403778, 111.38626862, 8.65927792, -70.64091492, -0.42251337, 0.69666141, -0.44148731, -0.37581152, 0.23526257, 0.06140304, 0.05288171, 100.32900238, 83.24089050, 31.25000000, 0.00000000
1, 64.7250, 6892, -0.08624268, -0.98187256, 0.30621338, -0.33742142, 0.78749919, -0.83726579, -23.91113663, 10.87401295, -62.58403778, 111.38537598, 8.66174126, -70.63565826, -0.42252508, 0.69668430, -0.44144180, -0.37580952, 0.23683150, 0.06134242, 0.05426858, 100.32900238, 83.24089050, 31.25000000, 0.00000000
1, 64.7299, 6893, -0.08740234, -0.98370361, 0.30755615, -0.33742142, 0.68249917, -0.80226582, -23.91113663, 10.87401295, -62.58403778, 111.38439178, 8.66423416, -70.63096619, -0.42253530, 0.69670475, -0.44139934, -0.37581006, 0.23803505, 0.06317467, 0.05291078, 100.32900238, 83.24089050, 31.25000000, 0.00000000
1, 64.7350, 6894, -0.08691406, -0.98510742, 0.30767822, -0.37242138, 0.61249912, -0.76726586, -23.06343079, 10.49400711, -62.84711838, 111.38317871, 8.66668606, -70.62667084, -0.42254585, 0.69672269, -0.44135866, -0.37581277, 0.23758800, 0.06457684, 0.05276729, 100.32900238, 83.24089050, 31.25000000, 0.00000000
1, 64.6700, 6991, -0.02357789, -0.99671066, 0.00872717, -0.50559312, 0.34714881, 0.36906534, -24.11575508, 11.42940617, -71.49955750, 90.61470795, -1.63699961, 68.65097046, 0.57503605, -0.59269184, -0.39252791, -0.40493432, -0.00500844, -0.00283937, 0.00031586, 100.41500854, 76.02655792, 32.09000015, 0.00000000
1, 64.6750, 6992, -0.02078195, -0.99674749, 0.00896021, -0.50381470, 0.17560682, 0.25979733, -24.26191139, 11.45863724, -71.32417297, 90.61304474, -1.62343609, 68.65109253, 0.57509261, -0.59263712, -0.39259207, -0.40487179, -0.00769827, -0.00280647, 0.00005155, 100.41500854, 76.02655792, 32.09000015, 0.00000000
1, 64.7400, 6895, -0.08575439, -0.98516846, 0.31018066, -0.33742142, 0.47249916, -0.83726579, -23.06343079, 10.49400711, -62.84711838, 111.38206482, 8.66972637, -70.62288666, -0.42255142, 0.69674033, -0.44131887, -0.37582028, 0.23648016, 0.06463721, 0.05024139, 100.32900238, 83.24089050, 31.25000000, 0.00000000
1, 64.7999, 6896, -0.08026123, -0.98449707, 0.29248047, 0.11757878, -0.33250117, -2.41226649, -23.94036865, 11.02016926, -62.43788147, 111.39096069, 8.75007439, -70.61538696, -0.42216370, 0.69699389, -0.44095543, -0.37621236, 0.23233345, 0.06421233, 0.06800526, 100.32900238, 83.24089050, 31.25000000, 0.00000000
1, 64.8050, 6897, -0.08074951, -0.98431396, 0.30291748, -0.02242131, -0.47250113, -2.58726621, -23.94036865, 11.02016926, -62.43788147, 111.39122772, 8.76298714, -70.61283875, -0.42211279, 0.69703549, -0.44088510, -0.37627482, 0.23303860, 0.06406267, 0.05756238, 100.32900238, 83.24089050, 31.25000000, 0.00000000
1, 64.7250, 6993, -0.01814426, -0.99335921, 0.01071950, -0.43739712, 0.62291658, 0.51497895, -23.79421234, 11.13709450, -71.09032440, 90.59295654, -1.62802434, 68.66699982, 0.57512391, -0.59249741, -0.39257991, -0.40504375, -0.01042330, -0.00619884, -0.00204828, 100.41500854, 76.02655792, 32.09000015, 0.00000000
1, 64.7300, 6994, -0.01954183, -0.99457788, 0.00778416, -0.14703289, 0.13812639, 0.49972752, -23.79421234, 11.13709450, -71.09032440, 90.59221649, -1.63053167, 68.66767883, 0.57511646, -0.59249991, -0.39256796, -0.40506241, -0.00892524, -0.00497814, 0.00086912, 100.41500854, 76.02655792, 32.09000015, 0.00000000
1, 64.8100, 6898, -0.07934570, -0.98950195, 0.31994629, -0.33742139, -0.71750128, -2.72726655, -24.14498711, 10.52323914, -62.05787659, 111.38979340, 8.77699375, -70.61119080, -0.42206445, 0.69706994, -0.44080982, -0.37635338, 0.23187333, 0.06927939, 0.04050600, 100.32900238, 83.24089050, 31.25000000, 0.00000000
1, 64.8149, 6899, -0.08203125, -0.99078369, 0.32214355, -0.40742141, -1.20750129, -2.90226674, -24.14498711, 10.52323914, -62.05787659, 111.38771057, 8.79270840, -70.61153412, -0.42200595, 0.69709843, -0.44073710, -0.37645140, 0.23481718, 0.07058449, 0.03825881, 100.32900238, 83.24089050, 31.25000000, 0.00000000
1, 64.8200, 6900, -0.09075928, -0.99603271, 0.31463623, -0.05742132, -1.90750170, -3.42726660, -24.14498711, 9.70476437, -62.37942123, 111.38701630, 8.81214046, -70.61418915, -0.42191473, 0.69713193, -0.44066703, -0.37657362, 0.24386692, 0.07587220, 0.04572856, 100.32900238, 83.24089050, 31.25000000, 0.00000000
1, 64.7350, 6995, -0.02053761, -0.99420214, 0.00445384, -0.00823511, 0.45017040, 0.61055493, -23.61882401, 11.07863140, -71.35340118, 90.59210968, -1.63360333, 68.66990662, 0.57509816, -0.59250212, -0.39256331, -0.40508950, -0.00797278, -0.00534703, 0.00419630, 100.41500854, 76.02655792, 32.09000015, 0.00000000
1, 64.7400, 6996, -0.02052717, -0.99413013, 0.00645986, -0.25958320, 0.62450004, 0.51275319, -23.61882401, 11.07863140, -71.35340118, 90.59071350, -1.63619161, 68.67300415, 0.57508510, -0.59249324, -0.39256117, -0.40512294, -0.00803486, -0.00542116, 0.00217245, 100.41500854, 76.02655792, 32.09000015, 0.00000000
1, 64.7450, 6997, -0.01747183, -0.99116635, 0.00590101, -0.22276431, 0.52039015, 0.50980306, -23.61882401, 11.07863140, -71.35340118, 90.58953857, -1.63876760, 68.67558289, 0.57507288, -0.59248722, -0.39255714, -0.40515298, -0.01113235, -0.00838314, 0.00271674, 100.41500854, 76.02655792, 32.09000015, 0.00000000
1, 64.8250, 6901, -0.09619141, -1.00708008, 0.30316162, 0.60757887, -2.43250179, -4.23226690, -24.14498711, 9.70476437, -62.37942123, 111.38948822, 8.83627510, -70.61785126, -0.42177993, 0.69718444, -0.44059306, -0.37671384, 0.24969402, 0.08698700, 0.05720717, 100.32900238, 83.24089050, 31.25000000, 0.00000000
1, 64.8299, 6902, -0.09936523, -1.02136230, 0.28826904, 1.37757921, -3.06250215, -5.07226706, -24.14498711, 9.70476437, -62.37942123, 111.39559174, 8.86547279, -70.62290955, -0.42159578, 0.69725698, -0.44051778, -0.37687385, 0.25334570, 0.10137129, 0.07215638, 100.32900238, 83.24089050, 31.25000000, 0.00000000
1, 64.8350, 6903, -0.09545898, -1.03790283, 0.28485107, 2.04257941, -4.00750208, -6.19226789, -23.82344246, 11.04940033, -62.35018921, 111.40466309, 8.90161514, -70.63035583, -0.42135471, 0.69734764, -0.44043663, -0.37707037, 0.25003469, 0.11805121, 0.07567529, 100.32900238, 83.24089050, 31.25000000, 0.00000000
1, 64.7500, 6998, -0.01467152, -0.99150836, 0.00618874, -0.01095604, 0.69216412, 0.68646204, -23.53113174, 11.40017509, -70.94416809, 90.58939362, -1.64222515, 68.67902374, 0.57504916, -0.59248644, -0.39255673, -0.40518829, -0.01398891, -0.00803994, 0.00243161, 100.41500854, 76.02655792, 32.09000015, 0.00000000
1, 64.7550, 6999, -0.01323545, -0.99452770, 0.00600272, -0.29922527, 1.03438258, 0.83849722, -23.53113174, 11.40017509, -70.94416809, 90.58776093, -1.64647651, 68.68415833, 0.57502425, -0.59247512, -0.39255577, -0.40524122, -0.01549837, -0.00501855, 0.00259564, 100.41500854, 76.02655792, 32.09000015, 0.00000000
1, 64.7600, 7000, -0.01064064, -0.99270737, 0.00724513, -0.22391261, 0.68692768, 0.82925677, -23.64805603, 11.13709450, -71.44110107, 90.58656311, -1.65065014, 68.68756104, 0.57500350, -0.59247154, -0.39254773, -0.40528354, -0.01816796, -0.00683902, 0.00133829, 100.41500854, 76.02655792, 32.09000015, 0.00000000
1, 64.8400, 6904, -0.08776855, -1.05401611, 0.28765869, 2.28757977, -5.16250229, -7.13726759, -23.82344246, 11.04940033, -62.35018921, 111.41437531, 8.94425964, -70.64150238, -0.42106843, 0.69744182, -0.44035199, -0.37731469, 0.24305306, 0.13432868, 0.07298223, 100.32900238, 83.24089050, 31.25000000, 0.00000000
1, 64.7650, 7001, -0.00836040, -0.99027097, 0.00801481, -0.00645240, 0.37304604, 0.92416358, -23.64805603, 11.13709450, -71.44110107, 90.58647919, -1.65528309, 68.68937683, 0.57498091, -0.59248060, -0.39253312, -0.40531641, -0.02052827, -0.00927448, 0.00057203, 100.41500854, 76.02655792, 32.09000015, 0.00000000
1, 64.7700, 7002, -0.00708344, -0.98725557, 0.00460778, -0.07872627, 0.53895015, 1.24450767, -23.82344246, 11.22478771, -71.58725739, 90.58604431, -1.66153669, 68.69203186, 0.57495153, -0.59249055, -0.39251330, -0.40536296, -0.02189934, -0.01228150, 0.00398258, 100.41500854, 76.02655792, 32.09000015, 0.00000000
1, 64.8150, 7003, 0.05278806, -0.98095739, -0.00560954, 4.60743284, 2.06207490, 4.79648113, -23.79421234, 11.22478771, -70.97339630, 90.66120911, -1.75584233, 68.70459747, 0.57418096, -0.59314370, -0.39236158, -0.40564665, -0.08330980, -0.01850316, 0.01556273, 100.41500854, 76.02655792, 32.09000015, 0.00000000
1, 64.8200, 7004, 0.07837047, -0.96677542, -0.00280097, 5.02110767, 3.30314541, 5.48678827, -23.99883080, 11.13709450, -71.32417297, 90.68589783, -1.78338802, 68.72082520, 0.57389706, -0.59330493, -0.39239204, -0.40578309, -0.10936493, -0.03267044, 0.01326744, 100.41500854, 76.02655792, 32.09000015, 0.00000000
1, 64.8449, 6905, -0.07812500, -1.05480957, 0.27960205, 2.63757968, -5.86250257, -8.15226841, -23.76498032, 11.63402462, -62.58403778, 111.42559814, 8.99290848, -70.65405273, -0.42074129, 0.69755036, -0.44025499, -0.37759215, 0.23422274, 0.13530914, 0.08116430, 100.32900238, 83.24089050, 31.25000000, 0.00000000
1, 64.8699, 6906, 0.01269531, -1.05798340, 0.23254395, 0.39757887, -0.26250112, -16.93727112, -23.47266769, 10.37708282, -62.55480957, 111.48653412, 9.32326984, -70.59170532, -0.41909751, 0.69879299, -0.43864578, -0.37899300, 0.14896071, 0.13970996, 0.12889928, 100.32900238, 83.24089050, 31.25000000, 0.00000000
1, 64.8750, 6907, 0.02130127, -1.03295898, 0.20324707, -0.30242139, 0.99749929, -19.24727058, -23.47266769, 10.37708282, -62.55480957, 111.49160767, 9.41099167, -70.55125427, -0.41880736, 0.69917214, -0.43803546, -0.37932014, 0.14182661, 0.11494207, 0.15818644, 100.32900238, 83.24089050, 31.25000000, 0.00000000
1, 64.8800, 6908, 0.03308105, -1.02056885, 0.20159912, 0.08257871, 1.38249946, -21.76727486, -23.47266769, 10.37708282, -62.55480957, 111.49974060, 9.50972652, -70.50430298, -0.41847077, 0.69961226, -0.43734729, -0.37967396, 0.13169493, 0.10285398, 0.15985382, 100.32900238, 83.24089050, 31.25000000, 0.00000000
1, 64.8250, 7005, 0.10565895, -0.96252203, -0.00086285, 5.55686188, 3.32101846, 6.39175177, -23.99883080, 11.13709450, -71.32417297, 90.71170807, -1.79560459, 68.73642731, 0.57366443, -0.59342206, -0.39250171, -0.40583476, -0.13702042, -0.03691042, 0.01185172, 100.41500854, 76.02655792, 32.09000015, 0.00000000
1, 64.8300, 7006, 0.12913340, -0.96544719, -0.00275982, 6.66811466, 2.91457582, 7.77000570, -23.99883080, 11.13709450, -71.32417297, 90.74468994, -1.83453071, 68.75057220, 0.57330388, -0.59367025, -0.39249265, -0.40598989, -0.16096437, -0.03396027, 0.01433883, 100.41500854, 76.02655792, 32.09000015, 0.00000000
1, 64.8350, 7007, 0.14946744, -0.97192645, -0.00975875, 7.52352428, 3.15894341, 9.51755047, -24.11575508, 11.34171295, -71.17801666, 90.78193665, -1.88221300, 68.76581573, 0.57288575, -0.59396541, -0.39245981, -0.40618035, -0.18207443, -0.02743557, 0.02201153, 100.41500854, 76.02655792, 32.09000015, 0.00000000
1, 64.8400, 7008, 0.16647699, -0.97003925, -0.00503926, 7.72979879, 4.13026333, 11.22058105, -24.11575508, 11.34171295, -71.17801666, 90.82005310, -1.93846512, 68.78579712, 0.57241517, -0.59427732, -0.39241087, -0.40643483, -0.20004101, -0.02929018, 0.01799966, 100.41500854, 76.02655792, 32.09000015, 0.00000000
1, 64.8450, 7009, 0.19328474, -0.96560228, 0.00893182, 7.80292749, 4.27241230, 12.59007263, -23.70651817, 10.66939449, -71.35340118, 90.85852051, -2.00158477, 68.80633545, 0.57191563, -0.59461182, -0.39233103, -0.40672556, -0.22795400, -0.03370364, 0.00477108, 100.41500854, 76.02655792, 32.09000015, 0.00000000
1, 64.8500, 7010, 0.21968527, -0.96179807, 0.01390128, 8.24540043, 3.36428809, 14.31540394, -23.70651817, 10.66939449, -71.35340118, 90.89936066, -2.07328558, 68.82217407, 0.57138902, -0.59500283, -0.39219171, -0.40702817, -0.25557864, -0.03746280, 0.00057000, 100.41500854, 76.02655792, 32.09000015, 0.00000000
1, 64.8849, 6909, 0.04223633, -1.01684570, 0.18969727, -0.12742136, 0.50749916, -24.81227493, -23.70651817, 11.63402462, -62.32095718, 111.50716400, 9.62422180, -70.45579529, -0.41807303, 0.70009136, -0.43657821, -0.38011369, 0.12442949, 0.09947717, 0.17176832, 100.32900238, 83.24089050, 31.25000000, 0.00000000
1, 64.8900, 6910, 0.04150391, -1.01501465, 0.18457031, -0.68742156, 0.05249901, -27.22727394, -23.70651817, 11.63402462, -62.32095718, 111.51229095, 9.75077534, -70.40490723, -0.41764322, 0.70059788, -0.43573385, -0.38062158, 0.12728982, 0.09801793, 0.17685102, 100.32900238, 83.24089050, 31.25000000, 0.00000000
1, 64.8950, 6911, 0.04516602, -1.02001953, 0.18493652, -2.19242215, 1.48749959, -30.55227661, -23.58959389, 11.45863724, -62.43788147, 111.51222229, 9.89016247, -70.34104156, -0.41723073, 0.70116282, -0.43473601, -0.38117421, 0.12598063, 0.10340980, 0.17635973, 100.32900238, 83.24089050, 31.25000000, 0.00000000
1, 64.8550, 7011, 0.24558242, -0.97093654, 0.02833550, 8.75533485, 2.76924300, 16.08238983, -23.70651817, 10.66939449, -71.35340118, 90.94287109, -2.15378809, 68.83487701, 0.57082742, -0.59544706, -0.39200062, -0.40735042, -0.28287774, -0.02828592, -0.01306045, 100.41500854, 76.02655792, 32.09000015, 0.00000000
1, 64.8600, 7012, 0.27188152, -0.97759926, 0.03376623, 7.73115063, 2.57745147, 17.91357040, -24.29114342, 11.16632557, -71.14878845, 90.98130798, -2.24344063, 68.84640503, 0.57026273, -0.59590018, -0.39173877, -0.40773058, -0.31072319, -0.02156243, -0.01774753, 100.41500854, 76.02655792, 32.09000015, 0.00000000
1, 64.9200, 7013, 0.00064135, -1.03544438, 0.02221638, -0.21127138, 22.81154251, 51.72643280, -25.46039200, 9.12014008, -70.68108368, 91.38024139, -4.41665649, 68.91870880, 0.55993557, -0.60480118, -0.38239163, -0.41768950, -0.07656044, 0.03857920, 0.00015781, 100.41500854, 76.02655792, 32.09000015, 0.00000000
1, 64.9250, 7014, -0.04196515, -1.00072277, 0.01314282, -1.19796872, 19.77187729, 54.68103027, -25.46039200, 9.12014008, -70.68108368, 91.36703491, -4.69161558, 69.01174927, 0.55863929, -0.60531867, -0.38141537, -0.41956401, -0.03865349, 0.00423767, 0.00894465, 100.41500854, 76.02655792, 32.09000015, 0.00000000
1, 64.8999, 6912, 0.05517578, -1.02343750, 0.19866943, -4.04742289, 2.81749988, -33.73728180, -23.58959389, 11.45863724, -62.43788147, 111.50515747, 10.04193306, -70.26493835, -0.41684648, 0.70177525, -0.43358487, -0.38177857, 0.11852452, 0.10721005, 0.16237777, 100.32900238, 83.24089050, 31.25000000, 0.00000000
1, 64.9050, 6913, 0.06762695, -1.02618408, 0.20153809, -5.48242331, 2.64249945, -37.06227875, -23.58959389, 11.45863724, -62.43788147, 111.49206543, 10.20950699, -70.18346405, -0.41644642, 0.70241976, -0.43231001, -0.38247493, 0.10888318, 0.11034779, 0.15913832, 100.32900238, 83.24089050, 31.25000000, 0.00000000
1, 64.9549, 6914, -0.04766846, -0.88653564, 0.20422363, -20.21742821, 17.34250450, -89.03729248, -21.92341423, 10.78631973, -63.16866302, 111.11920929, 13.10986233, -68.56806183, -0.41120115, 0.71333724, -0.40817779, -0.39427722, 0.27285695, -0.02226412, 0.14701751, 100.32900238, 83.24089050, 31.25000000, 0.00000000
1, 64.9600, 6915, -0.11883545, -0.88299561, 0.15447998, -24.59242821, 34.56251144, -92.22229767, -21.39725113, 11.45863724, -63.16866302, 111.07363892, 13.47787571, -68.23183441, -0.41099110, 0.71512651, -0.40426034, -0.39528996, 0.35038465, -0.02469648, 0.19548795, 100.32900238, 83.24089050, 31.25000000, 0.00000000
1, 64.9300, 7015, -0.14484060, -0.98448122, -0.04135386, 0.77976036, 21.63069916, 57.78474808, -25.46039200, 9.12014008, -70.68108368, 91.36303711, -4.98285532, 69.11383057, 0.55719417, -0.60590219, -0.38043517, -0.42152852, 0.05936214, -0.01150095, 0.06308774, 100.41500854, 76.02655792, 32.09000015, 0.00000000
1, 64.9350, 7016, -0.26074144, -0.98400843, -0.10529252, 2.94036198, 28.64450264, 59.50177002, -26.33732796, 10.84478188, -70.53492737, 91.36621094, -5.28343058, 69.25096893, 0.55553973, -0.60643297, -0.37961757, -0.42368069, 0.17023027, -0.01140883, 0.12675567, 100.41500854, 76.02655792, 32.09000015, 0.00000000
1, 64.9400, 7017, -0.38074797, -1.00015998, -0.11815558, 4.41011000, 33.72686386, 60.16503906, -26.33732796, 10.84478188, -70.53492737, 91.37358856, -5.58787680, 69.41358948, 0.55374527, -0.60691082, -0.37892979, -0.42595506, 0.28498608, 0.00526189, 0.13939692, 100.41500854, 76.02655792, 32.09000015, 0.00000000
1, 64.9650, 6916, -0.18078613, -0.90753174, 0.11688232, -28.23243141, 55.31751633, -95.16230011, -21.39725113, 11.45863724, -63.16866302, 111.03671265, 13.82256031, -67.79028320, -0.41120115, 0.71724427, -0.39980704, -0.39576334, 0.41825897, 0.00093365, 0.23195064, 100.32900238, 83.24089050, 31.25000000, 0.00000000
1, 64.9699, 6917, -0.24639893, -0.94635010, 0.10302734, -29.87742996, 67.95252228, -97.61229706, -20.92955208, 12.13095570, -63.25635529, 111.00998688, 14.15625286, -67.28299713, -0.41162995, 0.71957433, -0.39501140, -0.39590356, 0.48955929, 0.04088855, 0.24483819, 100.32900238, 83.24089050, 31.25000000, 0.00000000
1, 64.9750, 6918, -0.31634521, -0.99487305, 0.10058594, -30.92743111, 76.59752655, -99.67729187, -20.92955208, 12.13095570, -63.25635529, 110.99224091, 14.48427868, -66.72963715, -0.41219261, 0.72204864, -0.38996556, -0.39581555, 0.56507981, 0.09061159, 0.24645917, 100.32900238, 83.24089050, 31.25000000, 0.00000000
1, 64.9799, 6919, -0.37554932, -1.04193115, 0.09741211, -32.46743011, 83.17752838, -101.21729279, -21.36802101, 11.92633724, -62.29172516, 110.97875977, 14.80785656, -66.14096832, -0.41287550, 0.72461098, -0.38471326, -0.39556092, 0.62976992, 0.13891385, 0.24889660, 100.32900238, 83.24089050, 31.25000000, 0.00000000
1, 64.9850, 6920, -0.40850830, -1.07263184, 0.09393311, -33.83243179, 89.26753235, -101.84729767, -21.36802101, 11.92633724, -62.29172516, 110.96974945, 15.12358761, -65.52088928, -0.41367802, 0.72723848, -0.37929404, -0.39513388, 0.66809309, 0.17088251, 0.25169969, 100.32900238, 83.24089050, 31.25000000, 0.00000000
1, 64.9900, 6921, -0.39007568, -1.09802246, 0.11218262, -34.42742920, 96.54753113, -101.11229706, -21.36802101, 11.92633724, -62.29172516, 110.97013855, 15.42291546, -64.86606598, -0.41461664, 0.72994077, -0.37374189, -0.39445722, 0.65478140, 0.19755992, 0.23292102, 100.32900238, 83.24089050, 31.25000000, 0.00000000
1, 64.9450, 7018, -0.50957811, -1.02294838, -0.08519685, 4.24566269, 35.47604752, 59.78819656, -26.54194641, 9.88015175, -71.03186035, 91.37841034, -5.89066553, 69.58511353, 0.55192828, -0.60734040, -0.37828779, -0.42826551, 0.40846306, 0.02852134, 0.10616818, 100.41500854, 76.02655792, 32.09000015, 0.00000000
1, 64.9500, 7019, -0.61243635, -1.01630914, -0.04147491, 3.42013717, 38.67671967, 58.19249344, -26.54194641, 9.88015175, -71.03186035, 91.37644958, -6.18583918, 69.77297211, 0.55010527, -0.60765809, -0.37774613, -0.43063185, 0.50605041, 0.02234944, 0.06218581, 100.41500854, 76.02655792, 32.09000015, 0.00000000
1, 64.9550, 7020, -0.66680288, -0.99117327, -0.03666714, 3.51583529, 48.01928711, 56.45103455, -26.54194641, 9.88015175, -71.03186035, 91.36877441, -6.47333622, 70.00814056, 0.54815352, -0.60776752, -0.37747312, -0.43319789, 0.55538535, -0.00224680, 0.05716144, 100.41500854, 76.02655792, 32.09000015, 0.00000000
1, 64.9600, 7021, -0.67787886, -0.97002590, -0.06579524, 4.69040394, 62.37528229, 55.20091629, -27.18503380, 11.51710033, -71.32417297, 91.35742950, -6.75612545, 70.31588745, 0.54595196, -0.60760540, -0.37759498, -0.43608975, 0.56161433, -0.02278659, 0.08610041, 100.41500854, 76.02655792, 32.09000015, 0.00000000
1, 64.9650, 7022, -0.71416217, -0.95633698, -0.10154850, 6.04236984, 76.83062744, 54.23132706, -27.18503380, 11.51710033, -71.32417297, 91.34255981, -7.03556538, 70.69675446, 0.54348719, -0.60717487, -0.37810755, -0.43931216, 0.59312958, -0.03584156, 0.12152789, 100.41500854, 76.02655792, 32.09000015, 0.00000000
1, 65.0000, 7023, -1.59323311, -0.89805853, 0.46003282, 43.80667496, 268.95010376, 15.91670799, -29.87430573, 11.89710617, -70.21338654, 91.58656311, -8.36797142, 76.39830017, 0.51414263, -0.59328848, -0.40212524, -0.47112781, 1.44703734, -0.09174396, -0.43812889, 100.41500854, 76.02655792, 32.09000015, 0.00000000
1, 65.0050, 7024, -1.62774229, -0.94514287, 0.49839550, 46.04809570, 318.66458130, 14.89990616, -29.87430573, 11.89710617, -70.21338654, 91.58130646, -8.48333549, 78.00650024, 0.50701427, -0.58796293, -0.40981239, -0.47884244, 1.47947931, -0.04443125, -0.47664696, 100.41500854, 76.02655792, 32.09000015, 0.00000000
1, 64.9949, 6922, -0.33465576, -1.12292480, 0.14868164, -36.10743332, 104.91253662, -98.55729675, -21.54340744, 12.16018677, -62.87635040, 110.97512817, 15.69529533, -64.17452240, -0.41577238, 0.73268533, -0.36807576, -0.39347917, 0.60406673, 0.22370738, 0.19602735, 100.32900238, 83.24089050, 31.25000000, 0.00000000
1, 65.0000, 6923, -0.27935791, -1.11834717, 0.15545654, -40.69243240, 116.25254059, -92.81729126, -21.54340744, 12.16018677, -62.87635040, 110.97237396, 15.92057514, -63.43778610, -0.41733730, 0.73541719, -0.36229259, -0.39209101, 0.55274725, 0.22017241, 0.18883903, 100.32900238, 83.24089050, 31.25000000, 0.00000000
1, 65.0300, 6924, -0.21246338, -1.05718994, 0.04882813, -35.09243011, 135.67753601, -86.41229248, -21.68956375, 11.72171879, -62.35018921, 111.12797546, 16.96422958, -58.72764587, -0.42779100, 0.75183415, -0.32730603, -0.38027781, 0.50358278, 0.16471121, 0.29574513, 100.32900238, 83.24089050, 31.25000000, 0.00000000
1, 65.0350, 6925, -0.22644043, -1.04821777, 0.07421875, -33.90243149, 138.33753967, -86.62229156, -21.68956375, 11.72171879, -62.35018921, 111.20410156, 17.11837387, -57.88943863, -0.42943022, 0.75471383, -0.32131106, -0.37783068, 0.52014542, 0.15692215, 0.27122152, 100.32900238, 83.24089050, 31.25000000, 0.00000000
1, 65.0399, 6926, -0.23803711, -1.04748535, 0.11517334, -32.01243210, 144.95252991, -87.11228943, -21.68956375, 11.72171879, -62.35018921, 111.30187225, 17.26160431, -57.01712036, -0.43106821, 0.75770366, -0.31518960, -0.37512773, 0.53418219, 0.15744540, 0.23141947, 100.32900238, 83.24089050, 31.25000000, 0.00000000
1, 65.0100, 7025, -1.58061182, -1.02893198, 0.56905103, 48.53017044, 372.28738403, 15.12992001, -31.24817276, 11.78018093, -69.97953796, 91.54481506, -8.60616970, 79.88623047, 0.49874216, -0.58143753, -0.41863805, -0.48777953, 1.43008530, 0.03954167, -0.54779792, 100.41500854, 76.02655792, 32.09000015, 0.00000000
1, 65.0150, 7026, -1.40155399, -1.09552693, 0.56149244, 45.74607468, 423.39974976, 16.48880386, -31.24817276, 11.78018093, -69.97953796, 91.45121002, -8.74000549, 82.02496338, 0.48942649, -0.57360893, -0.42835540, -0.49794191, 1.24879026, 0.10645581, -0.54126966, 100.41500854, 76.02655792, 32.09000015, 0.00000000
1, 65.0200, 7027, -1.14997172, -1.11607504, 0.52222884, 43.60219193, 465.95532227, 19.03766632, -33.70359421, 11.69248772, -69.59953308, 91.30864716, -8.88698196, 84.37975311, 0.47912842, -0.56463760, -0.43870962, -0.50907195, 0.99482906, 0.12739478, -0.50368941, 100.41500854, 76.02655792, 32.09000015, 0.00000000
1, 65.0450, 6927, -0.22906494, -1.04406738, 0.15814209, -31.80243301, 149.01254272, -87.35729218, -22.74188805, 12.01403046, -62.64250183, 111.40901947, 17.39708519, -56.12360764, -0.43272638, 0.76072377, -0.30896911, -0.37227073, 0.52750301, 0.15532963, 0.18982258, 100.32900238, 83.24089050, 31.25000000, 0.00000000
1, 65.0499, 6928, -0.20013428, -1.04711914, 0.20709229, -32.18743134, 151.42753601, -87.25229645, -22.74188805, 12.01403046, -62.64250183, 111.51994324, 17.52603340, -55.21759415, -0.43440592, 0.76372910, -0.30268180, -0.36931458, 0.50074446, 0.15968877, 0.14233643, 100.32900238, 83.24089050, 31.25000000, 0.00000000
1, 65.0550, 6929, -0.16601563, -1.03497314, 0.25366211, -33.09743118, 152.75753784, -86.65728760, -22.91727448, 11.16632557, -62.17480087, 111.63008881, 17.64810562, -54.30535889, -0.43611667, 0.76668453, -0.29635617, -0.36629260, 0.46868286, 0.14882250, 0.09723561, 100.32900238, 83.24089050, 31.25000000, 0.00000000
1, 65.0250, 7028, -0.70351779, -1.15699685, 0.52286214, 42.15669632, 501.22268677, 23.64726639, -33.70359421, 11.69248772, -69.59953308, 91.12592316, -9.05497074, 86.91379547, 0.46786281, -0.55469668, -0.44945946, -0.52096283, 0.54559422, 0.16868721, -0.50626338, 100.41500854, 76.02655792, 32.09000015, 0.00000000
1, 65.0300, 7029, -0.47242337, -1.17377651, 0.55341655, 39.29455566, 524.12310791, 27.80486679, -33.70359421, 11.69248772, -69.59953308, 90.90132141, -9.23576164, 89.56542969, 0.45589721, -0.54396802, -0.46028441, -0.53328687, 0.31136572, 0.18583892, -0.53991240, 100.41500854, 76.02655792, 32.09000015, 0.00000000
1, 65.0350, 7030, -0.11099324, -1.18157363, 0.59131241, 33.06145096, 540.70141602, 32.94130325, -36.24671173, 12.97866154, -70.62262726, 90.62301636, -9.43167591, 92.30294800, 0.44337970, -0.53253615, -0.47092283, -0.54594094, -0.05350576, 0.19405448, -0.58155882, 100.41500854, 76.02655792, 32.09000015, 0.00000000
1, 65.0600, 6930, -0.12683105, -1.02642822, 0.29400635, -33.86742783, 153.52754211, -86.27228546, -22.91727448, 11.16632557, -62.17480087, 111.73937988, 17.76529503, -53.38927460, -0.43784264, 0.76958579, -0.28999838, -0.36322510, 0.43146718, 0.14153269, 0.05835177, 100.32900238, 83.24089050, 31.25000000, 0.00000000
1, 65.0649, 6931, -0.08599854, -1.01287842, 0.31237793, -34.21743011, 154.75254822, -86.16728973, -22.91727448, 11.16632557, -62.17480087, 111.85070038, 17.87804985, -52.46657562, -0.43957055, 0.77245116, -0.28359726, -0.36009651, 0.39252758, 0.12922800, 0.04146001, 100.32900238, 83.24089050, 31.25000000, 0.00000000
1, 65.0700, 6932, -0.03723145, -0.96911621, 0.31372070, -33.90243149, 156.71253967, -86.34228516, -23.91113663, 11.72171879, -61.70710373, 111.96858215, 17.98620605, -51.53318024, -0.44128186, 0.77530724, -0.27713987, -0.35687885, 0.34557810, 0.08672844, 0.04168571, 100.32900238, 83.24089050, 31.25000000, 0.00000000
1, 65.0400, 7031, 0.14229330, -1.14685178, 0.59620667, 28.01625824, 532.15167236, 36.16674805, -36.24671173, 12.97866154, -70.62262726, 90.31706238, -9.62971210, 94.99957275, 0.43083242, -0.52098328, -0.48094079, -0.55826139, -0.31020486, 0.15984347, -0.59093690, 100.41500854, 76.02655792, 32.09000015, 0.00000000
1, 65.0450, 7032, 0.34019071, -1.10305369, 0.52741373, 25.11821556, 513.72509766, 39.51501846, -39.19906235, 12.62788677, -71.64571381, 90.00276184, -9.82996368, 97.60533905, 0.41842902, -0.50962204, -0.49021307, -0.56999445, -0.51136631, 0.11672209, -0.52697730, 100.41500854, 76.02655792, 32.09000015, 0.00000000
1, 65.0750, 6933, 0.01855469, -0.92004395, 0.31152344, -31.31243324, 160.52755737, -86.51728821, -23.91113663, 11.72171879, -61.70710373, 112.10714722, 18.08608246, -50.58004379, -0.44292027, 0.77822506, -0.27062547, -0.35348156, 0.29149932, 0.03897692, 0.04566946, 100.32900238, 83.24089050, 31.25000000, 0.00000000
1, 65.1600, 6934, 0.12133789, -0.86730957, 0.67480469, 30.67258644, 116.35752869, -27.57727814, -27.30195808, 12.24788094, -59.89476776, 116.03858948, 18.16832733, -36.75337219, -0.45410007, 0.82123691, -0.18470322, -0.29197249, 0.19101109, 0.01314414, -0.25906783, 100.32900238, 83.24089050, 31.25000000, 0.00000000
1, 65.1649, 6935, 0.19409180, -0.95257568, 0.60986328, 28.78258705, 109.95252991, -24.53227615, -27.30195808, 12.24788094, -59.89476776, 116.36145020, 18.03565788, -36.17744446, -0.45363644, 0.82339507, -0.18200995, -0.28828290, 0.11607102, 0.10017484, -0.18890047, 100.32900238, 83.24089050, 31.25000000, 0.00000000
1, 65.1050, 7033, 0.55890691, -0.55572498, -0.19634362, 55.73710251, 178.89663696, 0.26349056, -47.64688492, 14.29406548, -75.70885468, 88.30134583, -10.99883461, 118.49595642, 0.30782399, -0.41361612, -0.56068921, -0.64791501, -0.74938214, -0.42510480, 0.16721413, 100.41500854, 76.02655792, 32.09000015, 0.00000000
1, 65.1100, 7034, 0.44117370, -0.53221047, -0.16548112, 59.34231567, 142.46560669, -13.19943619, -47.64688492, 14.29406548, -75.70885468, 88.46038055, -10.91075230, 119.21916199, 0.30364633, -0.41004336, -0.56451130, -0.64883780, -0.63049400, -0.44898051, 0.13859004, 100.41500854, 76.02655792, 32.09000015, 0.00000000
1, 65.1700, 6936, 0.28564453, -1.00238037, 0.52520752, 24.54758644, 106.20753479, -22.22227478, -27.91581345, 12.92019844, -59.74861145, 116.65437317, 17.89805984, -35.62574005, -0.45331311, 0.82538360, -0.17941605, -0.28470859, 0.02225510, 0.15153736, -0.09945852, 100.32900238, 83.24089050, 31.25000000, 0.00000000
1, 65.1749, 6937, 0.39849854, -1.00872803, 0.44824219, 21.92258644, 104.80754089, -20.57727432, -27.91581345, 12.92019844, -59.74861145, 116.92932892, 17.75369072, -35.08565903, -0.45308331, 0.82727098, -0.17687230, -0.28116623, -0.09296674, 0.15928444, -0.01801640, 100.32900238, 83.24089050, 31.25000000, 0.00000000
1, 65.1800, 6938, 0.52551270, -0.99468994, 0.41259766, 21.43258667, 102.81253815, -18.75727272, -28.32505035, 13.09558582, -59.54399109, 117.19600677, 17.60333252, -34.56040573, -0.45286801, 0.82909191, -0.17442372, -0.27765748, -0.22245519, 0.14656779, 0.02196320, 100.32900238, 83.24089050, 31.25000000, 0.00000000
1, 65.1150, 7035, 0.30456448, -0.57471490, -0.14722328, 60.40367889, 110.09696960, -28.49607277, -47.64688492, 14.29406548, -75.70885468, 88.65742493, -10.75279617, 119.77555084, 0.30066782, -0.40701014, -0.56818402, -0.64892882, -0.49152154, -0.40705192, 0.12314852, 100.41500854, 76.02655792, 32.09000015, 0.00000000
1, 65.1200, 7036, 0.12626666, -0.71738088, -0.23802844, 59.27900314, 88.35536957, -41.79402161, -47.99766159, 14.11867905, -75.32884979, 88.87116241, -10.53287506, 120.22001648, 0.29861620, -0.40423781, -0.57175791, -0.64846975, -0.30947667, -0.26498368, 0.21687591, 100.41500854, 76.02655792, 32.09000015, 0.00000000
1, 65.1250, 7037, -0.06268581, -0.99492192, -0.37022543, 56.42821121, 81.29329681, -49.04165268, -47.99766159, 14.11867905, -75.32884979, 89.07460785, -10.27809715, 120.62910461, 0.29700509, -0.40141836, -0.57525414, -0.64786875, -0.11593543, 0.01191914, 0.35171464, 100.41500854, 76.02655792, 32.09000015, 0.00000000
1, 65.1850, 6939, 0.58557129, -0.98193359, 0.38977051, 21.99258423, 91.61252594, -13.50727081, -28.32505035, 13.09558582, -59.54399109, 117.44431305, 17.45310593, -34.10111618, -0.45260200, 0.83073199, -0.17238973, -0.27444044, -0.28502488, 0.13504086, 0.04891295, 100.32900238, 83.24089050, 31.25000000, 0.00000000
1, 65.1899, 6940, 0.55841064, -0.98724365, 0.35333252, 20.62758446, 76.52752686, -7.80226803, -28.32505035, 13.09558582, -59.54399109, 117.65929413, 17.31070900, -33.72673035, -0.45233372, 0.83210939, -0.17084159, -0.27166381, -0.26027834, 0.14140533, 0.08901756, 100.32900238, 83.24089050, 31.25000000, 0.00000000
1, 65.1950, 6941, 0.44226074, -1.01867676, 0.24914551, 16.81258392, 55.52751541, -1.04726601, -28.55890083, 11.07863140, -59.69014740, 117.82041931, 17.18611908, -33.46688461, -0.45212331, 0.83310467, -0.16990641, -0.26954225, -0.14628641, 0.17360534, 0.19611043, 100.32900238, 83.24089050, 31.25000000, 0.00000000
1, 65.1300, 7038, -0.19204879, -1.32982850, -0.46505955, 50.60847473, 83.75414276, -46.24494934, -47.79304123, 14.00175381, -74.68576050, 89.25273895, -10.03949165, 121.05065155, 0.29533163, -0.39853564, -0.57857412, -0.64745700, 0.01789095, 0.34616959, 0.44884050, 100.41500854, 76.02655792, 32.09000015, 0.00000000
1, 65.1350, 7039, -0.18595327, -1.65602934, -0.60305482, 39.97262573, 83.61753845, -34.12496185, -47.79304123, 14.00175381, -74.68576050, 89.37926483, -9.86273003, 121.47273254, 0.29349625, -0.39581800, -0.58137000, -0.64745420, 0.01548136, 0.67197561, 0.58872133, 100.41500854, 76.02655792, 32.09000015, 0.00000000
1, 65.1400, 7040, -0.07029222, -1.74928975, -0.64835203, 21.94427109, 79.22436523, -12.68845367, -47.79304123, 14.00175381, -74.68576050, 89.42034912, -9.79422569, 121.87393188, 0.29147041, -0.39353204, -0.58322179, -0.64809710, -0.09850824, 0.76502812, 0.63516104, 100.41500854, 76.02655792, 32.09000015, 0.00000000
1, 65.2000, 6942, 0.25482178, -1.06463623, 0.11065674, 11.07258224, 32.77750778, 5.98773623, -28.55890083, 11.07863140, -59.69014740, 117.91613770, 17.08304596, -33.32992172, -0.45203361, 0.83366323, -0.16960751, -0.26815024, 0.03934677, 0.21994370, 0.33651119, 100.32900238, 83.24089050, 31.25000000, 0.00000000
1, 65.2049, 6943, 0.05688477, -1.10693359, 0.00354004, 7.18758106, 14.85750389, 12.53273869, -28.90967560, 12.86173630, -59.33937454, 117.96319580, 16.99288368, -33.29198837, -0.45202848, 0.83388579, -0.16985439, -0.26730931, 0.23573585, 0.26227042, 0.44469783, 100.32900238, 83.24089050, 31.25000000, 0.00000000
1, 65.1450, 7041, 0.17372701, -1.51091254, -0.76191932, 2.52709413, 56.13610458, 3.44787574, -47.90996552, 14.44022179, -75.67962646, 89.38452148, -9.80805969, 122.15895844, 0.28990245, -0.39206085, -0.58394831, -0.64903718, -0.34207916, 0.52681130, 0.74949265, 100.41500854, 76.02655792, 32.09000015, 0.00000000
1, 65.1500, 7042, 0.36827067, -1.25841856, -0.88014656, -8.93106937, 34.11865616, 8.22161007, -47.90996552, 14.44022179, -75.67962646, 89.31034088, -9.84707165, 122.33261108, 0.28895286, -0.39118981, -0.58398688, -0.64995086, -0.53693205, 0.27462867, 0.86748183, 100.41500854, 76.02655792, 32.09000015, 0.00000000
1, 65.1950, 7043, -0.93366718, -1.33954716, 0.41764873, 58.94315720, -154.36665344, -28.33148384, -46.71148682, 13.76790428, -73.34112549, 91.24195862, -9.24463177, 117.56584930, 0.31205034, -0.41742837, -0.58004296, -0.62604183, 0.77129728, 0.35215545, -0.40258127, 100.41500854, 76.02655792, 32.09000015, 0.00000000
1, 65.2000, 7044, -1.17342210, -1.46114230, 0.51747751, 52.34098434, -96.76471710, -28.80234146, -46.71148682, 13.76790428, -73.34112549, 91.58086395, -9.08892059, 117.07927704, 0.31433025, -0.42005140, -0.58066964, -0.62255615, 1.01348543, 0.47329575, -0.49693188, 100.41500854, 76.02655792, 32.09000015, 0.00000000
1, 65.2700, 6944, 0.26580811, -0.92938232, 0.25494385, 13.94258308, 107.88753510, -3.18226647, -30.92663002, 13.24174213, -58.31628036, 119.45008850, 14.45278454, -30.98918343, -0.45294717, 0.84255964, -0.16776778, -0.23829882, -0.01518902, 0.08600093, 0.22034158, 100.32900238, 83.24089050, 31.25000000, 0.00000000
1, 65.2749, 6945, 0.34979248, -0.92285156, 0.15362549, 9.53258133, 100.18753815, -6.29726744, -30.92663002, 13.24174213, -58.31628036, 119.61315155, 14.23325539, -30.52328873, -0.45326030, 0.84382749, -0.16565372, -0.23466788, -0.10303620, 0.08002872, 0.32466280, 100.32900238, 83.24089050, 31.25000000, 0.00000000
1, 65.2800, 6946, 0.40716553, -0.91094971, 0.09936523, 6.62758112, 87.76252747, -9.48226833, -31.36509705, 13.35866737, -58.95936966, 119.74828339, 14.05716133, -30.10591316, -0.45355025, 0.84491950, -0.16363551, -0.23157446, -0.16358081, 0.06861637, 0.38140532, 100.32900238, 83.24089050, 31.25000000, 0.00000000
1, 65.2850, 6947, 0.42889404, -0.90759277, 0.10308838, 4.66758060, 72.74752045, -12.52726936, -31.36509705, 13.35866737, -58.95936966, 119.85803223, 13.93072414, -29.74854660, -0.45376873, 0.84583193, -0.16178030, -0.22910590, -0.18766171, 0.06572457, 0.37967905, 100.32900238, 83.24089050, 31.25000000, 0.00000000
1, 65.2899, 6948, 0.39935303, -0.90411377, 0.17529297, 3.65257978, 57.06752014, -14.62726974, -33.03127670, 13.38789845, -58.31628036, 119.94647980, 13.85187817, -29.45618057, -0.45388907, 0.84657514, -0.16014650, -0.22726281, -0.15965298, 0.06270543, 0.30903727, 100.32900238, 83.24089050, 31.25000000, 0.00000000
1, 65.2050, 7045, -1.20584559, -1.45206642, 0.43399519, 45.37903976, -53.58091354, -29.50712776, -45.36685181, 13.73867321, -73.48728180, 91.84922791, -8.93335152, 116.81237030, 0.31565875, -0.42137936, -0.58170283, -0.62001681, 1.04880810, 0.46406913, -0.40858126, 100.41500854, 76.02655792, 32.09000015, 0.00000000
1, 65.2100, 7046, -1.13475072, -1.38400853, 0.26623410, 40.62262344, -10.00480366, -28.33782196, -45.36685181, 13.73867321, -73.48728180, 92.05908966, -8.78964806, 116.76645660, 0.31593606, -0.42148763, -0.58318269, -0.61840975, 0.98067164, 0.39601597, -0.23666193, 100.41500854, 76.02655792, 32.09000015, 0.00000000
1, 65.2150, 7047, -0.87770051, -1.27174866, 0.13105211, 36.29333115, 30.99120903, -25.44778442, -45.36685181, 13.73867321, -73.48728180, 92.21579742, -8.66760731, 116.92771149, 0.31517148, -0.42049998, -0.58505589, -0.61770248, 0.72616458, 0.28374487, -0.09772260, 100.41500854, 76.02655792, 32.09000015, 0.00000000
1, 65.2950, 6949, 0.30322266, -0.90979004, 0.24645996, 3.47757983, 45.93751526, -15.78227043, -33.03127670, 13.38789845, -58.31628036, 120.02254486, 13.80543995, -29.21068382, -0.45392409, 0.84720796, -0.15868789, -0.22585371, -0.06439999, 0.06885444, 0.23912305, 100.32900238, 83.24089050, 31.25000000, 0.00000000
1, 65.2999, 6950, 0.14257813, -0.92364502, 0.34283447, 4.59758043, 31.13250732, -16.51727104, -33.03127670, 13.38789845, -58.31628036, 120.08879852, 13.79895782, -29.02934837, -0.45380640, 0.84771919, -0.15750580, -0.22499789, 0.09595943, 0.08323102, 0.14379068, 100.32900238, 83.24089050, 31.25000000, 0.00000000
1, 65.3050, 6951, 0.00885010, -0.93682861, 0.41223145, 5.68258047, 30.81751060, -16.23727226, -32.59280777, 13.91405964, -58.69628525, 120.15992737, 13.79184818, -28.85015869, -0.45364806, 0.84824485, -0.15635057, -0.22414020, 0.22958010, 0.09698293, 0.07542646, 100.32900238, 83.24089050, 31.25000000, 0.00000000
1, 65.2200, 7048, -0.47587511, -1.15005112, 0.08682033, 33.25426102, 59.67480469, -21.39545631, -45.57146835, 12.07249355, -72.78573608, 92.33600616, -8.57167816, 117.23342133, 0.31361964, -0.41879648, -0.58716393, -0.61764944, 0.32621950, 0.16193776, -0.05007424, 100.41500854, 76.02655792, 32.09000015, 0.00000000
1, 65.2250, 7049, -0.05368625, -1.03564954, 0.10300165, 31.33522797, 75.00787354, -17.99106789, -45.57146835, 12.07249355, -72.78573608, 92.43711090, -8.49222088, 117.61563873, 0.31163535, -0.41672039, -0.58938289, -0.61794448, -0.09459364, 0.04737116, -0.06321227, 100.41500854, 76.02655792, 32.09000015, 0.00000000
1, 65.2300, 7050, 0.32478601, -0.93296778, 0.12699206, 32.73754883, 77.03839874, -16.45327759, -46.06840134, 13.91405964, -73.10727692, 92.54285431, -8.42571163, 118.00823975, 0.30950740, -0.41465712, -0.59161061, -0.61827308, -0.47191542, -0.05545317, -0.08430675, 100.41500854, 76.02655792, 32.09000015, 0.00000000
1, 65.3100, 6952, -0.10308838, -0.94470215, 0.47357178, 7.01258135, 35.36751175, -15.92226887, -32.59280777, 13.91405964, -58.69628525, 120.24230957, 13.77169800, -28.65155983, -0.45347336, 0.84883684, -0.15512954, -0.22309816, 0.34124619, 0.10547440, 0.01528151, 100.32900238, 83.24089050, 31.25000000, 0.00000000
1, 65.3149, 6953, -0.17926025, -0.94940186, 0.52288818, 8.16758156, 42.99751663, -15.43227100, -33.46974564, 13.70944118, -58.63782501, 120.33811188, 13.72989178, -28.42037582, -0.45331073, 0.84951985, -0.15378641, -0.22175527, 0.41680807, 0.11083407, -0.03260784, 100.32900238, 83.24089050, 31.25000000, 0.00000000
1, 65.2800, 7051, -0.86728877, -1.11106634, 0.13650805, 32.60874176, -8.30940914, -11.75591850, -45.77608871, 15.25869656, -71.73341370, 94.62967682, -7.70331526, 117.11095428, 0.31075251, -0.42146406, -0.60196441, -0.60285968, 0.73263538, 0.12307905, -0.06119303, 100.41500854, 76.02655792, 32.09000015, 0.00000000
1, 65.2850, 7052, -0.74797297, -1.05670869, 0.19186260, 30.91740417, 13.74194050, -12.47066498, -45.77608871, 15.25869656, -71.73341370, 94.77422333, -7.64630365, 117.18514252, 0.31015426, -0.42119130, -0.60319340, -0.60212946, 0.61419064, 0.06870534, -0.11357117, 100.41500854, 76.02655792, 32.09000015, 0.00000000
1, 65.3250, 6954, -0.25311279, -0.96893311, 0.58502197, 10.30258274, 63.43752289, -14.62727165, -33.46974564, 13.70944118, -58.63782501, 120.57547760, 13.56363487, -27.82823563, -0.45307204, 0.85121620, -0.15057777, -0.21790601, 0.48808444, 0.13179722, -0.09106717, 100.32900238, 83.24089050, 31.25000000, 0.00000000
1, 65.3299, 6955, -0.23992920, -0.98785400, 0.60498047, 10.33758163, 74.28752899, -14.66226959, -32.03741455, 12.74481106, -59.25167847, 120.71286011, 13.43738174, -27.46116447, -0.45303431, 0.85221857, -0.14866214, -0.21536763, 0.47287536, 0.15146682, -0.10880320, 100.32900238, 83.24089050, 31.25000000, 0.00000000
1, 65.3350, 6956, -0.20007324, -0.99505615, 0.59881592, 9.56758213, 84.29752350, -15.01227283, -32.03741455, 12.74481106, -59.25167847, 120.85582733, 13.28612900, -27.04950905, -0.45308101, 0.85329121, -0.14652655, -0.21246611, 0.43060589, 0.15939783, -0.10028921, 100.32900238, 83.24089050, 31.25000000, 0.00000000
1, 65.3400, 6957, -0.15460205, -0.99859619, 0.58764648, 7.95758104, 97.49253082, -15.74726963, -33.64513397, 13.32943535, -59.13475418, 121.00314331, 13.10311604, -26.57846451, -0.45325783, 0.85444492, -0.14408532, -0.20909470, 0.38210297, 0.16361216, -0.08660373, 100.32900238, 83.24089050, 31.25000000, 0.00000000
1, 65.3449, 6958, -0.10015869, -0.99346924, 0.55718994, 6.24258089, 103.75753784, -16.41227150, -33.64513397, 13.32943535, -59.13475418, 121.14675140, 12.90562344, -26.07896423, -0.45352295, 0.85560930, -0.14147690, -0.20550957, 0.32435679, 0.15909670, -0.05364589, 100.32900238, 83.24089050, 31.25000000, 0.00000000
1, 65.2900, 7053, -0.55297536, -1.00948918, 0.21936895, 30.39278793, 30.57010651, -12.83402729, -45.77608871, 15.25869656, -71.73341370, 94.90492249, -7.59464598, 117.34420776, 0.30913210, -0.42045784, -0.60464144, -0.60171539, 0.42004260, 0.02151209, -0.13820055, 100.41500854, 76.02655792, 32.09000015, 0.00000000
1, 65.3500, 6959, -0.05688477, -0.99243164, 0.52722168, 4.42258024, 107.95754242, -16.90227127, -33.64513397, 13.32943535, -59.13475418, 121.28372192, 12.69814587, -25.56064224, -0.45386755, 0.85675943, -0.13874766, -0.20178403, 0.27759165, 0.15860313, -0.02124012, 100.32900238, 83.24089050, 31.25000000, 0.00000000
1, 65.3549, 6960, 0.02453613, -0.97387695, 0.49334717, 2.39257932, 110.61753082, -17.56727219, -33.82051849, 13.65097904, -58.90090561, 121.41139221, 12.48542404, -25.02983665, -0.45428774, 0.85787684, -0.13591976, -0.19797981, 0.19256225, 0.14050700, 0.01494575, 100.32900238, 83.24089050, 31.25000000, 0.00000000
1, 65.3600, 6961, 0.11511230, -0.95581055, 0.45697021, 0.36257881, 110.72253418, -18.37227249, -33.82051849, 13.65097904, -58.90090561, 121.52737427, 12.27475739, -24.49731064, -0.45476669, 0.85893911, -0.13303885, -0.19419487, 0.09838013, 0.12282120, 0.05346949, 100.32900238, 83.24089050, 31.25000000, 0.00000000
1, 65.2950, 7054, -0.34849963, -0.97980809, 0.22772616, 30.37626839, 40.77421570, -12.76585960, -45.98070526, 15.40485191, -71.67494965, 95.02891541, -7.54798555, 117.55464172, 0.30783832, -0.41945544, -0.60622305, -0.60148686, 0.21637523, -0.00810567, -0.14382897, 100.41500854, 76.02655792, 32.09000015, 0.00000000
1, 65.3000, 7055, -0.18701023, -0.96858835, 0.23907912, 29.47680092, 44.53180313, -12.91020966, -45.98070526, 15.40485191, -71.67494965, 95.14609528, -7.50270081, 117.78408813, 0.30646378, -0.41833621, -0.60783088, -0.60134548, 0.05564242, -0.01926653, -0.15270646, 100.41500854, 76.02655792, 32.09000015, 0.00000000
1, 65.3050, 7056, -0.02522522, -0.95981991, 0.22189257, 29.22963905, 44.29510117, -13.29827881, -45.16223145, 14.67407131, -71.26570892, 95.26234436, -7.45582867, 118.01258087, 0.30510858, -0.41720718, -0.60943270, -0.60119778, -0.10529974, -0.02793026, -0.13309500, 100.41500854, 76.02655792, 32.09000015, 0.00000000
1, 65.3650, 6962, 0.17730713, -0.94805908, 0.42584229, -1.21242177, 108.58753204, -19.35227585, -34.40514374, 12.39403629, -59.07629395, 121.63202667, 12.07285500, -23.97230148, -0.45527327, 0.85993755, -0.13014713, -0.19051400, 0.03269800, 0.11538577, 0.08655611, 100.32900238, 83.24089050, 31.25000000, 0.00000000
1, 65.3699, 6963, 0.21264648, -0.95227051, 0.40515137, -2.82242203, 105.71753693, -20.75227356, -34.40514374, 12.39403629, -59.07629395, 121.72489929, 11.88356590, -23.45675659, -0.45580196, 0.86086851, -0.12724349, -0.18697345, -0.00591408, 0.11985514, 0.10899413, 100.32900238, 83.24089050, 31.25000000, 0.00000000
1, 65.3100, 7057, 0.02938107, -0.96361530, 0.20219855, 29.35750198, 39.53192902, -13.62375259, -45.16223145, 14.67407131, -71.26570892, 95.38245392, -7.40563011, 118.21737671, 0.30388451, -0.41619408, -0.61097687, -0.60095263, -0.15900843, -0.02402352, -0.11121601, 100.41500854, 76.02655792, 32.09000015, 0.00000000
1, 65.3150, 7058, 0.06885625, -0.97847426, 0.16623762, 28.61756897, 30.05882835, -13.94528580, -45.16223145, 14.67407131, -71.26570892, 95.50514221, -7.34985542, 118.37487030, 0.30293307, -0.41540962, -0.61237895, -0.60054851, -0.19744760, -0.00902727, -0.07305312, 100.41500854, 76.02655792, 32.09000015, 0.00000000
1, 65.3200, 7059, 0.05526163, -0.98796725, 0.14610897, 27.65994072, 23.89181709, -14.22029781, -45.71762466, 14.70330334, -71.55802155, 95.62710571, -7.29012632, 118.50160980, 0.30216968, -0.41476592, -0.61367708, -0.60005277, -0.18278448, 0.00057175, -0.05085996, 100.41500854, 76.02655792, 32.09000015, 0.00000000
1, 65.3250, 7060, 0.03109763, -0.99823773, 0.14549930, 27.37654114, 17.93133545, -14.14844704, -45.71762466, 14.70330334, -71.55802155, 95.75400543, -7.22087240, 118.59798431, 0.30160376, -0.41425014, -0.61492097, -0.59941989, -0.15749098, 0.01091346, -0.04815955, 100.41500854, 76.02655792, 32.09000015, 0.00000000
1, 65.3800, 6964, 0.19348145, -0.96752930, 0.42474365, -3.66242266, 95.39253235, -23.02727318, -35.54516220, 13.35866737, -58.43320465, 121.88609314, 11.56524086, -22.49515343, -0.45674837, 0.86252993, -0.12163728, -0.18063071, 0.00765339, 0.13560884, 0.09241448, 100.32900238, 83.24089050, 31.25000000, 0.00000000
1, 65.3849, 6965, 0.15661621, -0.97973633, 0.45684814, -3.62742257, 95.04253387, -23.48227310, -35.54516220, 13.35866737, -58.43320465, 121.96256256, 11.41359997, -22.02021408, -0.45720005, 0.86332345, -0.11882970, -0.17753939, 0.04192392, 0.14805844, 0.06170100, 100.32900238, 83.24089050, 31.25000000, 0.00000000
1, 65.3300, 7061, -0.01311559, -1.01478577, 0.16153663, 27.05308533, 12.38407326, -13.89097691, -45.68839645, 15.58023930, -71.38263702, 95.88045502, -7.15759897, 118.66709137, 0.30114907, -0.41390693, -0.61604238, -0.59873378, -0.11216433, 0.02751204, -0.06212767, 100.41500854, 76.02655792, 32.09000015, 0.00000000
1, 65.3350, 7062, -0.08605376, -1.03796756, 0.16314048, 26.13947678, 8.60532665, -13.51373768, -45.68839645, 15.58023930, -71.38263702, 96.00476837, -7.09443521, 118.71720886, 0.30080172, -0.41365990, -0.61708212, -0.59800792, -0.03813458, 0.05077782, -0.06177955, 100.41500854, 76.02655792, 32.09000015, 0.00000000
1, 65.3400, 7063, -0.17566089, -1.06203604, 0.16885172, 25.38784218, 9.07765865, -13.14238930, -45.68839645, 15.58023930, -71.38263702, 96.12509918, -7.03349400, 118.76959991, 0.30044496, -0.41340017, -0.61810064, -0.59731466, 0.05252634, 0.07492604, -0.06564645, 100.41500854, 76.02655792, 32.09000015, 0.00000000
1, 65.3900, 6966, 0.10449219, -0.99353027, 0.51257324, -3.52242255, 97.21253204, -23.90227509, -35.69131851, 13.41712952, -58.52090073, 122.04027557, 11.25736713, -21.53522301, -0.45764723, 0.86412191, -0.11596160, -0.17437086, 0.09139787, 0.16210057, 0.00737962, 100.32900238, 83.24089050, 31.25000000, 0.00000000
1, 65.3950, 6967, 0.06561279, -1.00317383, 0.56335449, -3.48742247, 99.83753204, -24.77727509, -35.69131851, 13.41712952, -58.52090073, 122.11941528, 11.09721756, -21.03701019, -0.45809078, 0.86492854, -0.11300607, -0.17111722, 0.12755290, 0.17200230, -0.04197139, 100.32900238, 83.24089050, 31.25000000, 0.00000000
1, 65.3999, 6968, 0.04370117, -1.01934814, 0.60156250, -3.69742250, 102.84753418, -25.72227669, -35.69131851, 13.41712952, -58.52090073, 122.19898224, 10.93237686, -20.52375984, -0.45854050, 0.86574006, -0.10995081, -0.16776632, 0.14666010, 0.18843801, -0.07873348, 100.32900238, 83.24089050, 31.25000000, 0.00000000
1, 65.3450, 7064, -0.26080731, -1.08555686, 0.19120353, 23.99511337, 12.54233742, -12.86681747, -46.03916931, 14.52791595, -71.38263702, 96.23641968, -6.97589111, 118.83933258, 0.30001205, -0.41303852, -0.61912233, -0.59672397, 0.13863134, 0.09849753, -0.08627330, 100.41500854, 76.02655792, 32.09000015, 0.00000000
1, 65.3500, 7065, -0.32717779, -1.09793842, 0.20867212, 21.94256783, 17.57438469, -12.82590485, -46.03916931, 14.52791595, -71.38263702, 96.33447266, -6.92134476, 118.93434143, 0.29947880, -0.41251916, -0.62015468, -0.59627897, 0.20591246, 0.11092644, -0.10216716, 100.41500854, 76.02655792, 32.09000015, 0.00000000
1, 65.3550, 7066, -0.34365386, -1.09842730, 0.22627240, 20.56945419, 25.19529533, -13.01235104, -45.89301300, 15.28792763, -71.17801666, 96.42115784, -6.87022066, 119.06766510, 0.29876849, -0.41177759, -0.62125307, -0.59600437, 0.22324803, 0.11144887, -0.11825958, 100.41500854, 76.02655792, 32.09000015, 0.00000000
1, 65.3600, 7067, -0.30117479, -1.09799349, 0.27364445, 19.57570267, 33.82663727, -13.07438755, -45.89301300, 15.28792763, -71.17801666, 96.49781036, -6.82376432, 119.24430847, 0.29784322, -0.41079533, -0.62243778, -0.59590930, 0.18147589, 0.11099268, -0.16415095, 100.41500854, 76.02655792, 32.09000015, 0.00000000
1, 65.3650, 7068, -0.24216914, -1.09369195, 0.27742282, 18.43805504, 39.66835403, -13.06087303, -45.89301300, 15.28792763, -71.17801666, 96.56548309, -6.78089142, 119.45018768, 0.29677838, -0.40964526, -0.62366652, -0.59594762, 0.12322721, 0.10673358, -0.16654229, 100.41500854, 76.02655792, 32.09000015, 0.00000000
1, 65.3700, 7069, -0.16316184, -1.08280265, 0.25690645, 16.97228241, 46.20090103, -12.92156124, -45.74685669, 15.46331501, -71.82110596, 96.62209320, -6.74263525, 119.68869781, 0.29555723, -0.40830791, -0.62493652, -0.59614170, 0.04494538, 0.09591351, -0.14480363, 100.41500854, 76.02655792, 32.09000015, 0.00000000
1, 65.4050, 6969, 0.05578613, -1.02990723, 0.61926270, -4.46742249, 105.57753754, -26.24727440, -35.83747482, 13.65097904, -58.52090073, 122.27561951, 10.76178932, -19.99784851, -0.45901847, 0.86653972, -0.10681308, -0.16432279, 0.13167685, 0.19923615, -0.09500836, 100.32900238, 83.24089050, 31.25000000, 0.00000000
1, 65.4100, 6970, 0.04577637, -1.01892090, 0.61639404, -5.55242300, 107.22253418, -26.35227585, -35.83747482, 13.65097904, -58.52090073, 122.34654236, 10.58657837, -19.46510315, -0.45953381, 0.86731011, -0.10362822, -0.16082045, 0.13870873, 0.18843873, -0.09078606, 100.32900238, 83.24089050, 31.25000000, 0.00000000
1, 65.4149, 6971, 0.04620361, -0.97509766, 0.58337402, -7.79242373, 109.14753723, -27.05227470, -36.56825638, 12.92019844, -58.57936096, 122.40641785, 10.40857983, -18.92269516, -0.46012682, 0.86803162, -0.10036006, -0.15726565, 0.13522494, 0.14470787, -0.05655733, 100.32900238, 83.24089050, 31.25000000, 0.00000000
1, 65.4150, 7070, -0.16976275, -0.98638713, 0.19693713, 10.46508408, 40.18749619, -12.87690163, -46.36071396, 15.37562084, -72.08418274, 96.98421478, -6.41273785, 121.74345398, 0.28549814, -0.39633152, -0.63508952, -0.59839249, 0.05740374, -0.00030161, -0.07826488, 100.41500854, 76.02655792, 32.09000015, 0.00000000
1, 65.4200, 7071, -0.20101906, -0.98722970, 0.21020545, 10.38400364, 40.76966476, -13.94861221, -46.53609848, 13.38789845, -72.31803131, 97.01237488, -6.36787176, 121.95555878, 0.28455606, -0.39500663, -0.63610905, -0.59863424, 0.08938587, 0.00049416, -0.09111641, 100.41500854, 76.02655792, 32.09000015, 0.00000000
1, 65.4200, 6972, 0.07073975, -0.94396973, 0.54876709, -8.73742485, 109.32253265, -27.85727501, -36.56825638, 12.92019844, -58.57936096, 122.46035004, 10.23298073, -18.37783051, -0.46073964, 0.86871767, -0.09704895, -0.15372069, 0.10766025, 0.11362159, -0.02085162, 100.32900238, 83.24089050, 31.25000000, 0.00000000
1, 65.4249, 6973, 0.09741211, -0.92462158, 0.51708984, -9.50742531, 108.34253693, -28.66227722, -36.56825638, 12.92019844, -58.57936096, 122.50837708, 10.06292725, -17.83542061, -0.46136105, 0.86936426, -0.09371953, -0.15022860, 0.07804151, 0.09428288, 0.01182708, 100.32900238, 83.24089050, 31.25000000, 0.00000000
1, 65.4250, 7072, -0.22986411, -0.99239683, 0.21013749, 10.40123653, 42.04895782, -15.00495815, -46.53609848, 13.38789845, -72.31803131, 97.04358673, -6.32360363, 122.17440796, 0.28356475, -0.39365232, -0.63716304, -0.59887582, 0.11901964, 0.00563722, -0.09060647, 100.41500854, 76.02655792, 32.09000015, 0.00000000
1, 65.4300, 7073, -0.23639704, -0.99017799, 0.19872195, 9.77761269, 43.51721573, -15.45275116, -46.74071884, 15.31715870, -72.23033905, 97.06741333, -6.27316475, 122.40113068, 0.28259400, -0.39220330, -0.63822132, -0.59915835, 0.12641014, 0.00340281, -0.07873333, 100.41500854, 76.02655792, 32.09000015, 0.00000000
1, 65.4350, 7074, -0.24477786, -0.99220216, 0.18358369, 9.15273285, 45.08991241, -15.89804268, -46.74071884, 15.31715870, -72.23033905, 97.08742523, -6.22155571, 122.63599396, 0.28160065, -0.39069119, -0.63928759, -0.59947723, 0.13571867, 0.00539971, -0.06324564, 100.41500854, 76.02655792, 32.09000015, 0.00000000
1, 65.4549, 6974, -0.00024414, -0.93872070, 0.49621582, -9.08742428, 97.52753448, -31.70727921, -38.23443222, 12.68634892, -59.01782990, 122.73119354, 9.20707417, -14.72637081, -0.46470630, 0.87257856, -0.07397591, -0.13108112, 0.16080789, 0.10833558, 0.03733784, 100.32900238, 83.24089050, 31.25000000, 0.00000000
1, 65.4600, 6975, -0.03161621, -0.95874023, 0.51062012, -9.19242477, 97.03752899, -31.00727654, -38.23443222, 12.68634892, -59.01782990, 122.76437378, 9.07500839, -14.22810936, -0.46518758, 0.87303859, -0.07077448, -0.12804367, 0.18991683, 0.12836471, 0.02362437, 100.32900238, 83.24089050, 31.25000000, 0.00000000
1, 65.4400, 7075, -0.26078296, -0.98599315, 0.17142795, 8.62868023, 47.15087509, -16.33297920, -46.76995087, 15.46331501, -72.69804382, 97.10387421, -6.16913795, 122.88138580, 0.28056887, -0.38910481, -0.64036971, -0.59983760, 0.15266120, -0.00085017, -0.05080917, 100.41500854, 76.02655792, 32.09000015, 0.00000000
1, 65.4450, 7076, -0.27270371, -0.97618353, 0.17026435, 8.30659103, 50.12294006, -16.92402840, -46.76995087, 15.46331501, -72.69804382, 97.11730957, -6.11565018, 123.14197540, 0.27947378, -0.38741797, -0.64148670, -0.60024714, 0.16550553, -0.01072633, -0.04940583, 100.41500854, 76.02655792, 32.09000015, 0.00000000
1, 65.4500, 7077, -0.27340055, -0.96875453, 0.17187168, 7.91630745, 52.81923676, -17.66098976, -46.76995087, 15.46331501, -72.69804382, 97.12757874, -6.06022978, 123.41645050, 0.27832755, -0.38563293, -0.64263505, -0.60070068, 0.16715086, -0.01823462, -0.05079558, 100.41500854, 76.02655792, 32.09000015, 0.00000000
1, 65.4650, 6976, -0.05242920, -0.97052002, 0.52069092, -9.92742443, 97.98253632, -30.20227432, -38.93598175, 12.42326832, -59.60245514, 122.79297638, 8.93673611, -13.72828960, -0.46569487, 0.87346894, -0.06757902, -0.12495358, 0.20837748, 0.14010818, 0.01418853, 100.32900238, 83.24089050, 31.25000000, 0.00000000
1, 65.4699, 6977, -0.06597900, -0.96697998, 0.51818848, -10.73242474, 100.04753876, -29.39727783, -38.93598175, 12.42326832, -59.60245514, 122.81730652, 8.78925896, -13.22215366, -0.46623370, 0.87387389, -0.06436648, -0.12176824, 0.21942782, 0.13647549, 0.01726955, 100.32900238, 83.24089050, 31.25000000, 0.00000000
1, 65.4750, 6978, -0.06872559, -0.95703125, 0.51281738, -11.36242485, 102.53253937, -28.73227692, -38.93598175, 12.42326832, -59.74861145, 122.83842468, 8.63205242, -12.70754623, -0.46679711, 0.87425870, -0.06112403, -0.11847377, 0.21949936, 0.12638561, 0.02318135, 100.32900238, 83.24089050, 31.25000000, 0.00000000
1, 65.4550, 7078, -0.26018557, -0.96151841, 0.16267721, 7.35658216, 54.78630447, -18.55338860, -46.88687515, 15.55100822, -72.75650024, 97.13420105, -6.00162697, 123.70128632, 0.27715737, -0.38376194, -0.64380366, -0.60118848, 0.15496087, -0.02554528, -0.04141618, 100.41500854, 76.02655792, 32.09000015, 0.00000000
1, 65.4600, 7079, -0.22409959, -0.95399177, 0.14910012, 7.40069389, 56.92195511, -18.99378014, -46.88687515, 15.55100822, -72.75650024, 97.14019012, -5.94217205, 123.99701691, 0.27593631, -0.38182032, -0.64500219, -0.60170138, 0.11994204, -0.03314416, -0.02762039, 100.41500854, 76.02655792, 32.09000015, 0.00000000
1, 65.4900, 7080, -0.13738887, -1.00653517, 0.19236140, 4.16043043, 62.74854660, -20.56626320, -47.06226349, 14.70330334, -72.34726715, 97.13271332, -5.57450438, 125.88269806, 0.26821023, -0.36930433, -0.65223038, -0.60520512, 0.03948868, 0.01868369, -0.07072011, 100.41500854, 76.02655792, 32.09000015, 0.00000000
1, 65.4950, 7081, -0.13655218, -1.01089799, 0.21183252, 3.24602556, 64.76788330, -20.85700989, -47.06226349, 14.70330334, -72.34726715, 97.11625671, -5.51060200, 126.21844482, 0.26686907, -0.36703384, -0.65340734, -0.60590917, 0.03971490, 0.02287439, -0.09044670, 100.41500854, 76.02655792, 32.09000015, 0.00000000
1, 65.4799, 6979, -0.07550049, -0.95214844, 0.49890137, -11.71242619, 103.65253448, -28.03227806, -39.46214676, 12.80327415, -59.74861145, 122.85677338, 8.46869373, -12.19037342, -0.46737024, 0.87462109, -0.05788232, -0.11512066, 0.22347838, 0.12132668, 0.03760309, 100.32900238, 83.24089050, 31.25000000, 0.00000000
1, 65.4850, 6980, -0.08001709, -0.95867920, 0.49383545, -12.41242599, 104.21253204, -27.85727501, -39.46214676, 12.80327415, -59.74861145, 122.87037659, 8.30293751, -11.67157078, -0.46796194, 0.87495196, -0.05463106, -0.11174180, 0.22514114, 0.12764134, 0.04311377, 100.32900238, 83.24089050, 31.25000000, 0.00000000
1, 65.4900, 6981, -0.07702637, -0.96331787, 0.48571777, -13.25242615, 105.50753784, -27.96227455, -39.84215164, 12.92019844, -60.18708038, 122.87906647, 8.13400841, -11.14724064, -0.46857765, 0.87525237, -0.05134401, -0.10831511, 0.21924645, 0.13201852, 0.05160359, 100.32900238, 83.24089050, 31.25000000, 0.00000000
1, 65.5000, 7082, -0.13369161, -1.01353931, 0.23874210, 2.22985220, 66.40086365, -21.05051804, -47.06226349, 14.70330334, -72.34726715, 97.09429169, -5.44664812, 126.56238556, 0.26550040, -0.36469960, -0.65457350, -0.60666078, 0.03789555, 0.02532182, -0.11769241, 100.41500854, 76.02655792, 32.09000015, 0.00000000
1, 65.5050, 7083, -0.12987888, -1.01413286, 0.23489076, 0.61894959, 67.16326141, -21.46751785, -47.35457230, 15.11254025, -73.16574097, 97.06428528, -5.38093567, 126.91032410, 0.26414412, -0.36231109, -0.65570647, -0.60746008, 0.03522484, 0.02575499, -0.11430188, 100.41500854, 76.02655792, 32.09000015, 0.00000000
1, 65.5100, 7084, -0.12826926, -1.00998616, 0.21783714, 0.43746969, 67.41117859, -21.70466423, -47.35457230, 15.11254025, -73.16574097, 97.03366089, -5.31402493, 127.25956726, 0.26278737, -0.35990384, -0.65683490, -0.60825986, 0.03481825, 0.02146217, -0.09775594, 100.41500854, 76.02655792, 32.09000015, 0.00000000
1, 65.4949, 6982, -0.06884766, -0.95965576, 0.48352051, -14.51242542, 107.36254120, -28.45227623, -39.84215164, 12.92019844, -60.18708038, 122.88117218, 7.96205091, -10.61394215, -0.46923235, 0.87551630, -0.04799317, -0.10482787, 0.20811187, 0.12803939, 0.05408460, 100.32900238, 83.24089050, 31.25000000, 0.00000000
1, 65.5150, 7085, -0.12952273, -1.00980258, 0.22215790, 0.45220315, 69.18257141, -21.48736763, -47.44226837, 16.04793930, -73.04881287, 97.00270844, -5.24907064, 127.61743164, 0.26137137, -0.35745230, -0.65797424, -0.60908365, 0.03720022, 0.02110123, -0.10259593, 100.41500854, 76.02655792, 32.09000015, 0.00000000
1, 65.5200, 7086, -0.11986341, -1.00915670, 0.23459178, -0.14307530, 71.36962891, -21.39260864, -47.44226837, 16.04793930, -73.04881287, 96.96820068, -5.18570614, 127.98605347, 0.25989667, -0.35493487, -0.65911448, -0.60995334, 0.02861844, 0.02026317, -0.11557265, 100.41500854, 76.02655792, 32.09000015, 0.00000000
1, 65.5250, 7087, -0.10705032, -1.00972342, 0.24334650, -0.73280418, 73.13481140, -21.13271523, -47.44226837, 16.04793930, -73.04881287, 96.93412781, -5.12472296, 128.36286926, 0.25835958, -0.35237938, -0.66026610, -0.61084193, 0.01685411, 0.02064528, -0.12489275, 100.41500854, 76.02655792, 32.09000015, 0.00000000
1, 65.5000, 6983, -0.05865479, -0.95056152, 0.48114014, -15.80742645, 109.35754395, -28.87227440, -40.22215652, 12.54019260, -59.98246002, 122.87647247, 7.78645515, -10.07125378, -0.46992737, 0.87574255, -0.04457834, -0.10127320, 0.19490254, 0.11856505, 0.05664973, 100.32900238, 83.24089050, 31.25000000, 0.00000000
1, 65.5300, 6984, 0.00329590, -0.95739746, 0.48535156, -20.32242966, 119.01753235, -34.92727661, -41.71294785, 12.30634308, -60.50862122, 122.75112152, 6.70530128, -6.61549234, -0.47448805, 0.87643296, -0.02259043, -0.07884254, 0.11422398, 0.12226854, 0.05200136, 100.32900238, 83.24089050, 31.25000000, 0.00000000
1, 65.5350, 6985, 0.00897217, -0.95715332, 0.49353027, -20.11242867, 119.92753601, -35.97727585, -41.71294785, 12.30634308, -60.50862122, 122.72037506, 6.53235197, -6.00978041, -0.47524440, 0.87645119, -0.01866219, -0.07501981, 0.10554017, 0.12144233, 0.04356704, 100.32900238, 83.24089050, 31.25000000, 0.00000000
1, 65.5399, 6986, 0.01037598, -0.96630859, 0.49847412, -20.60242844, 121.53755188, -36.99227524, -42.38526535, 11.86787510, -61.50248337, 122.68642426, 6.35966349, -5.39460468, -0.47600266, 0.87643802, -0.01465957, -0.07115462, 0.10113859, 0.13000081, 0.03832496, 100.32900238, 83.24089050, 31.25000000, 0.00000000
1, 65.5300, 7088, -0.07531301, -1.01776540, 0.24053128, -1.05590236, 73.43939209, -20.87597656, -47.03303146, 14.58637810, -73.31189728, 96.89498901, -5.06470203, 128.74134827, 0.25681993, -0.34980366, -0.66138321, -0.61176234, -0.01383098, 0.02852147, -0.12263925, 100.41500854, 76.02655792, 32.09000015, 0.00000000
1, 65.5350, 7089, -0.03687986, -1.01955235, 0.23344408, -1.84738040, 74.41769409, -19.82607079, -47.03303146, 14.58637810, -73.31189728, 96.85192108, -5.01021481, 129.12402344, 0.25523317, -0.34721947, -0.66246688, -0.61272538, -0.05126990, 0.03014717, -0.11617149, 100.41500854, 76.02655792, 32.09000015, 0.00000000
1, 65.5450, 6987, 0.01397705, -0.97906494, 0.50903320, -21.30242729, 123.98754120, -38.14727783, -42.38526535, 11.86787510, -61.50248337, 122.64860535, 6.18560410, -4.76601696, -0.47677034, 0.87639058, -0.01055926, -0.06721788, 0.09452948, 0.14213385, 0.02741060, 100.32900238, 83.24089050, 31.25000000, 0.00000000
1, 65.5499, 6988, 0.02624512, -0.98797607, 0.52618408, -23.12242889, 126.99755096, -39.30228043, -42.35603714, 11.80941200, -61.12247849, 122.60143280, 6.00875664, -4.12163019, -0.47758949, 0.87628496, -0.00634648, -0.06318862, 0.07920597, 0.15035024, 0.00978449, 100.32900238, 83.24089050, 31.25000000, 0.00000000
1, 65.5550, 6989, 0.04638672, -0.97900391, 0.53344727, -24.38242912, 128.95751953, -40.56228256, -42.35603714, 11.80941200, -61.12247849, 122.54718781, 5.83251572, -3.46558237, -0.47843704, 0.87612790, -0.00204096, -0.05910884, 0.05599843, 0.14061283, 0.00191906, 100.32900238, 83.24089050, 31.25000000, 0.00000000
1, 65.5600, 7090, 0.04973149, -1.01252365, 0.22728381, -4.23554230, 78.15425873, -18.16430855, -48.02689362, 15.11254025, -74.13037109, 96.60546875, -4.76237154, 131.08509827, 0.24692607, -0.33402491, -0.66764104, -0.61782718, -0.13352102, 0.02226167, -0.11394607, 100.41500854, 76.02655792, 32.09000015, 0.00000000
1, 65.5650, 7091, 0.07224617, -1.01240551, 0.23462294, -5.14341927, 76.91102600, -17.48134422, -47.90996552, 15.11254025, -74.10114288, 96.54703522, -4.71899700, 131.47839355, 0.24523488, -0.33138192, -0.66858202, -0.61890554, -0.15528908, 0.02195318, -0.12221628, 100.41500854, 76.02655792, 32.09000015, 0.00000000
1, 65.5700, 7092, 0.07518642, -1.01042569, 0.22219947, -5.86898041, 75.31880951, -16.70385742, -47.90996552, 15.11254025, -74.10114288, 96.48595428, -4.67819834, 131.86325073, 0.24357659, -0.32879311, -0.66946733, -0.61998314, -0.15747604, 0.01981528, -0.11081988, 100.41500854, 76.02655792, 32.09000015, 0.00000000
1, 65.5750, 7093, 0.06172216, -1.00359440, 0.22037452, -6.42709017, 74.56605530, -16.01365089, -47.90996552, 15.11254025, -74.10114288, 96.42622375, -4.63563490, 132.24339294, 0.24194583, -0.32622293, -0.67034107, -0.62103438, -0.14329439, 0.01280931, -0.11006656, 100.41500854, 76.02655792, 32.09000015, 0.00000000
1, 65.5800, 7094, 0.03787256, -0.99825609, 0.24740870, -7.06669283, 74.61914063, -15.54856491, -48.26074219, 14.96638393, -74.65653229, 96.36006165, -4.59938240, 132.62399292, 0.24028797, -0.32366690, -0.67115515, -0.62213528, -0.11883517, 0.00724884, -0.13824400, 100.41500854, 76.02655792, 32.09000015, 0.00000000
1, 65.5850, 7095, 0.01610314, -0.98429871, 0.27582160, -7.74479055, 74.88408661, -15.21814919, -48.26074219, 14.96638393, -74.65653229, 96.29066467, -4.56447268, 133.00569153, 0.23862021, -0.32110262, -0.67194140, -0.62325621, -0.09652460, -0.00693552, -0.16786668, 100.41500854, 76.02655792, 32.09000015, 0.00000000
1, 65.5900, 7096, 0.01278861, -0.97637534, 0.28826016, -8.06527138, 74.97898865, -14.93138981, -48.52382278, 15.05407715, -75.41654205, 96.21987915, -4.53058529, 133.38761902, 0.23694363, -0.31853735, -0.67270839, -0.62438387, -0.09264301, -0.01506066, -0.18151510, 100.41500854, 76.02655792, 32.09000015, 0.00000000
1, 65.5950, 7097, 0.00807556, -0.97432113, 0.28673697, -8.60655975, 75.72919464, -14.45093918, -48.52382278, 15.05407715, -75.41654205, 96.14632416, -4.49901581, 133.77297974, 0.23523669, -0.31595647, -0.67345399, -0.62553573, -0.08737057, -0.01729278, -0.18125339, 100.41500854, 76.02655792, 32.09000015, 0.00000000
1, 65.5600, 6990, 0.07482910, -0.95574951, 0.53759766, -27.00743103, 133.22752380, -41.71728134, -42.35603714, 11.80941200, -61.12247849, 122.47991180, 5.65035725, -2.78834319, -0.47936448, 0.87589455, 0.00240467, -0.05488795, 0.02441970, 0.11649583, -0.00299293, 100.32900238, 83.24089050, 31.25000000, 0.00000000
1, 65.5649, 6991, 0.09362793, -0.93499756, 0.52789307, -27.70742989, 134.62753296, -42.17227936, -43.20374298, 11.51710033, -61.00555420, 122.40766144, 5.46718597, -2.10393381, -0.48029888, 0.87561578, 0.00689857, -0.05062088, 0.00244300, 0.09481747, 0.00583634, 100.32900238, 83.24089050, 31.25000000, 0.00000000
1, 65.6199, 6992, 0.22003174, -0.89874268, 0.48791504, -27.95243073, 125.10753632, -50.95728683, -45.74685669, 10.49400711, -63.72405624, 121.45939636, 3.78820992, 5.49536085, -0.48948386, 0.87006897, 0.05793599, -0.00537376, -0.15349361, 0.04783944, 0.03317624, 100.32900238, 83.24089050, 31.25000000, 0.00000000
1, 65.6250, 6993, 0.21331787, -0.87847900, 0.50549316, -27.91743088, 124.86254120, -51.16728210, -46.03916931, 10.78631973, -63.92867661, 121.36329651, 3.68117452, 6.16293001, -0.49020728, 0.86935705, 0.06255075, -0.00165568, -0.14865102, 0.02659971, 0.01423717, 100.32900238, 83.24089050, 31.25000000, 0.00000000
1, 65.6000, 7098, 0.00311624, -0.98384595, 0.27897146, -9.29208565, 76.68281555, -13.78854179, -48.52382278, 15.05407715, -75.41654205, 96.06922913, -4.47073889, 134.16265869, 0.23349047, -0.31335849, -0.67417383, -0.62672037, -0.08188258, -0.00793687, -0.17483240, 100.41500854, 76.02655792, 32.09000015, 0.00000000
1, 65.6050, 7099, 0.00081964, -0.99217415, 0.28294483, -10.01966476, 78.15990448, -13.18323994, -48.78690338, 14.79099655, -75.65039063, 95.98812103, -4.44571495, 134.55937195, 0.23169120, -0.31072655, -0.67487252, -0.62794530, -0.07914598, 0.00020357, -0.18020411, 100.41500854, 76.02655792, 32.09000015, 0.00000000
1, 65.6300, 6994, 0.20654297, -0.86718750, 0.52551270, -27.25243187, 125.31754303, -51.97228241, -46.03916931, 10.78631973, -63.92867661, 121.26956177, 3.57749867, 6.83464289, -0.49088627, 0.86862546, 0.06720345, 0.00206070, -0.14369413, 0.01435485, -0.00712460, 100.32900238, 83.24089050, 31.25000000, 0.00000000
1, 65.6349, 6995, 0.19470215, -0.86297607, 0.53680420, -26.62243080, 125.24754333, -52.60228348, -46.03916931, 10.78631973, -63.92867661, 121.17785645, 3.47778535, 7.50778341, -0.49152383, 0.86787391, 0.07187615, 0.00575899, -0.13361354, 0.00921518, -0.01973537, 100.32900238, 83.24089050, 31.25000000, 0.00000000
1, 65.6400, 6996, 0.18853760, -0.85925293, 0.53924561, -26.69242859, 125.21254730, -53.19728470, -46.74071884, 10.52323914, -64.33791351, 121.08474731, 3.38179064, 8.18240452, -0.49214634, 0.86708730, 0.07656797, 0.00944321, -0.12913367, 0.00457049, -0.02350453, 100.32900238, 83.24089050, 31.25000000, 0.00000000
1, 65.6300, 7100, 0.07790790, -1.01421952, 0.22193314, -13.36780930, 85.53771973, -8.26777172, -48.99152374, 13.47559166, -76.32270813, 95.52537537, -4.38928461, 136.64775085, 0.22175577, -0.29718256, -0.67800027, -0.63468313, -0.15499008, 0.02146187, -0.12696061, 100.41500854, 76.02655792, 32.09000015, 0.00000000
1, 65.6350, 7101, 0.09386836, -1.01713884, 0.20183720, -13.83670807, 86.37296295, -6.94496298, -48.99152374, 13.47559166, -76.32270813, 95.42282867, -4.39537859, 137.08222961, 0.21957421, -0.29444608, -0.67853868, -0.63613987, -0.17097872, 0.02425013, -0.10859744, 100.41500854, 76.02655792, 32.09000015, 0.00000000
1, 65.6450, 6997, 0.17657471, -0.85797119, 0.53411865, -26.48242950, 125.59754944, -53.89728546, -46.74071884, 10.52323914, -64.33791351, 120.99179077, 3.28889656, 8.86057568, -0.49274176, 0.86627072, 0.08129181, 0.01312592, -0.11880165, 0.00237075, -0.01971636, 100.32900238, 83.24089050, 31.25000000, 0.00000000
1, 65.6499, 6998, 0.16320801, -0.86480713, 0.52185059, -26.09743118, 126.85752869, -54.73728561, -47.14995575, 9.99707699, -65.15638733, 120.90010071, 3.19745779, 9.54640770, -0.49330038, 0.86542654, 0.08607170, 0.01683632, -0.10703436, 0.00830215, -0.00877822, 100.32900238, 83.24089050, 31.25000000, 0.00000000
1, 65.6550, 6999, 0.15026855, -0.87359619, 0.50286865, -26.13243103, 128.32752991, -55.78728485, -47.14995575, 9.99707699, -65.15638733, 120.80766296, 3.10785627, 10.24134350, -0.49383670, 0.86454356, 0.09091957, 0.02057914, -0.09566437, 0.01619247, 0.00887063, 100.32900238, 83.24089050, 31.25000000, 0.00000000
1, 65.6400, 7102, 0.10025274, -1.01790261, 0.16911957, -14.33530140, 86.81497955, -5.21052408, -48.58228683, 13.18327999, -76.81964111, 95.31763458, -4.40952253, 137.51814270, 0.21733445, -0.29173946, -0.67903548, -0.63762426, -0.17748505, 0.02491219, -0.07767667, 100.41500854, 76.02655792, 32.09000015, 0.00000000
1, 65.6450, 7103, 0.09351552, -1.02187860, 0.15004949, -14.74895477, 86.07746887, -3.64548922, -48.58228683, 13.18327999, -76.81964111, 95.21058655, -4.43033457, 137.94969177, 0.21507488, -0.28909165, -0.67948395, -0.63911694, -0.17103308, 0.02877408, -0.06047727, 100.41500854, 76.02655792, 32.09000015, 0.00000000
1, 65.6500, 7104, 0.06381879, -1.02959418, 0.12241586, -15.29815292, 84.90764618, -1.52819884, -48.58228683, 13.18327999, -76.81964111, 95.10116577, -4.46037912, 138.37451172, 0.21279442, -0.28653002, -0.67986983, -0.64062172, -0.14175856, 0.03640157, -0.03482125, 100.41500854, 76.02655792, 32.09000015, 0.00000000
1, 65.6550, 7105, 0.03465170, -1.03365481, 0.12170266, -16.15824699, 85.67646027, -0.48241127, -49.66384125, 14.93715286, -77.34580231, 94.98693848, -4.49514389, 138.80279541, 0.21046963, -0.28396583, -0.68021595, -0.64216208, -0.11317724, 0.04033534, -0.03614809, 100.41500854, 76.02655792, 32.09000015, 0.00000000
1, 65.6600, 7106, 0.02804086, -1.03805506, 0.13457628, -17.42041969, 87.28387451, 0.30806470, -49.66384125, 14.93715286, -77.34580231, 94.86551666, -4.53366041, 139.23886108, 0.20808746, -0.28136423, -0.68052173, -0.64375770, -0.10725289, 0.04458652, -0.05111919, 100.41500854, 76.02655792, 32.09000015, 0.00000000
1, 65.6650, 7107, 0.03231487, -1.03247178, 0.15149945, -18.17539597, 88.09761810, 0.96801102, -50.42385101, 14.14791012, -77.14118958, 94.73970032, -4.57487869, 139.67881775, 0.20566861, -0.27874833, -0.68079519, -0.64538193, -0.11227690, 0.03884821, -0.07019696, 100.41500854, 76.02655792, 32.09000015, 0.00000000
1, 65.6600, 7000, 0.13983154, -0.88299561, 0.48602295, -25.43243027, 129.51753235, -57.01228333, -47.14995575, 9.99707699, -65.15638733, 120.71808624, 3.02158070, 10.94461823, -0.49432379, 0.86363608, 0.09583639, 0.02433683, -0.08674820, 0.02471299, 0.02440122, 100.32900238, 83.24089050, 31.25000000, 0.00000000
1, 65.6649, 7001, 0.14959717, -0.91314697, 0.48345947, -24.45243073, 129.69255066, -59.00728226, -47.00379944, 7.74627304, -64.92253876, 120.63272858, 2.94450760, 11.65381813, -0.49475577, 0.86270696, 0.10082938, 0.02805305, -0.09791027, 0.05403338, 0.02570847, 100.32900238, 83.24089050, 31.25000000, 0.00000000
1, 65.7100, 7002, 0.15942383, -0.95758057, 0.44433594, -28.19743156, 141.73254395, -68.42228699, -47.82227325, 9.29552746, -66.44255829, 119.72251892, 2.38199186, 18.37891579, -0.49841544, 0.85186166, 0.14838247, 0.06242247, -0.11763228, 0.09013144, 0.05143126, 100.32900238, 83.24089050, 31.25000000, 0.00000000
1, 65.7150, 7003, 0.14221191, -0.97656250, 0.44842529, -27.04243088, 139.77255249, -68.94728851, -48.05612183, 7.92166042, -66.93949127, 119.61934662, 2.33557701, 19.15745163, -0.49869165, 0.85042620, 0.15390766, 0.06629188, -0.10126390, 0.10818617, 0.04578683, 100.32900238, 83.24089050, 31.25000000, 0.00000000
1, 65.6700, 7108, 0.03276556, -1.03349161, 0.15360387, -18.63383675, 87.84233856, 1.28323150, -50.42385101, 14.14791012, -77.14118958, 94.61141205, -4.61658001, 140.11750793, 0.20325083, -0.27614048, -0.68103927, -0.64700931, -0.11345864, 0.03974036, -0.07451825, 100.41500854, 76.02655792, 32.09000015, 0.00000000
1, 65.6750, 7109, 0.00173770, -1.03942335, 0.14174323, -19.84621811, 88.01478577, 0.91720116, -50.42385101, 14.14791012, -77.14118958, 94.47830963, -4.65336990, 140.55708313, 0.20086035, -0.27349445, -0.68125820, -0.64864731, -0.08307580, 0.04556264, -0.06504005, 100.41500854, 76.02655792, 32.09000015, 0.00000000
1, 65.7199, 7004, 0.12750244, -0.99682617, 0.44244385, -27.49743271, 137.60253906, -68.87728882, -48.05612183, 7.92166042, -66.93949127, 119.51293182, 2.29563141, 19.92643166, -0.49897549, 0.84894741, 0.15937442, 0.07008223, -0.08727905, 0.12751654, 0.05018441, 100.32900238, 83.24089050, 31.25000000, 0.00000000
1, 65.7250, 7005, 0.11358643, -1.01397705, 0.42834473, -28.47743225, 137.07754517, -68.45729065, -48.46535873, 8.53551579, -67.58258057, 119.40095520, 2.25660920, 20.69213867, -0.49927485, 0.84741265, 0.16480380, 0.07386585, -0.07403879, 0.14369543, 0.06261919, 100.32900238, 83.24089050, 31.25000000, 0.00000000
1, 65.7299, 7006, 0.10119629, -1.02636719, 0.39855957, -29.98242950, 138.68753052, -67.79228973, -48.46535873, 8.53551579, -67.58258057, 119.28111267, 2.21229267, 21.46329880, -0.49959287, 0.84580517, 0.17023116, 0.07773088, -0.06239136, 0.15505305, 0.09062900, 100.32900238, 83.24089050, 31.25000000, 0.00000000
1, 65.7200, 7110, -0.38995677, -0.95684898, 0.13689451, -22.07877922, 102.75724030, -9.00832844, -50.59923935, 13.62174797, -79.39199066, 93.14201355, -4.74356508, 144.79606628, 0.17906371, -0.24654238, -0.68302876, -0.66379577, 0.30683345, -0.03840979, -0.08414529, 100.41500854, 76.02655792, 32.09000015, 0.00000000
1, 65.7250, 7111, -0.42758688, -0.95007253, 0.16868006, -21.42717934, 104.40283966, -10.58979988, -50.59923935, 13.62174797, -79.39199066, 92.99426270, -4.72616720, 145.32188416, 0.17643592, -0.24308012, -0.68333077, -0.66546333, 0.34471780, -0.04540703, -0.11861566, 100.41500854, 76.02655792, 32.09000015, 0.00000000
1, 65.7350, 7007, 0.08880615, -1.02191162, 0.37481689, -31.17243385, 141.17254639, -66.88228607, -48.46535873, 8.53551579, -67.69950104, 119.15499878, 2.15959549, 22.24315453, -0.49990937, 0.84412962, 0.17566693, 0.08171255, -0.05088348, 0.14950587, 0.11249185, 100.32900238, 83.24089050, 31.25000000, 0.00000000
1, 65.7400, 7008, 0.06286621, -1.00567627, 0.36083984, -31.13743210, 141.59254456, -65.37728119, -48.84536743, 7.71704149, -67.69950104, 119.02825928, 2.10102773, 23.02127266, -0.50019193, 0.84242427, 0.18104814, 0.08573828, -0.02594458, 0.13215819, 0.12454920, 100.32900238, 83.24089050, 31.25000000, 0.00000000
1, 65.7449, 7009, 0.03466797, -1.00878906, 0.37347412, -30.82243538, 139.24755859, -63.52228546, -48.84536743, 7.71704149, -67.69950104, 118.90173340, 2.04173446, 23.78472900, -0.50045085, 0.84070933, 0.18630254, 0.08971180, 0.00121813, 0.13417195, 0.11000969, 100.32900238, 83.24089050, 31.25000000, 0.00000000
1, 65.7300, 7112, -0.47807828, -0.94622934, 0.18574937, -20.60529900, 106.64508820, -12.29942608, -51.44694519, 13.47559166, -80.06430817, 92.84696198, -4.69127989, 145.85929871, 0.17383453, -0.23945203, -0.68367642, -0.66710633, 0.39566243, -0.04945093, -0.13835439, 100.41500854, 76.02655792, 32.09000015, 0.00000000
1, 65.7350, 7113, -0.54338396, -0.94085908, 0.21826653, -19.13150024, 110.78221130, -14.35776234, -51.44694519, 13.47559166, -80.06430817, 92.70565796, -4.64572430, 146.41778564, 0.17115055, -0.23564748, -0.68410164, -0.66871727, 0.46163177, -0.05505729, -0.17350262, 100.41500854, 76.02655792, 32.09000015, 0.00000000
1, 65.7400, 7114, -0.61504340, -0.93421519, 0.25799793, -17.75824165, 117.23027802, -16.95561981, -51.38848114, 13.50482273, -81.08740234, 92.56905365, -4.58724785, 147.00903320, 0.16833198, -0.23158096, -0.68462390, -0.67031687, 0.53414953, -0.06195524, -0.21578854, 100.41500854, 76.02655792, 32.09000015, 0.00000000
1, 65.7500, 7010, -0.00152588, -1.00714111, 0.37200928, -31.24243355, 136.34252930, -61.63228607, -48.90382767, 7.54165459, -68.31335449, 118.77174377, 1.98287845, 24.53099632, -0.50071865, 0.83897376, 0.19141410, 0.09361937, 0.03638463, 0.13140382, 0.10951827, 100.32900238, 83.24089050, 31.25000000, 0.00000000
1, 65.7550, 7011, -0.04193115, -1.00573730, 0.37091064, -31.38243103, 135.04753113, -59.81228638, -48.90382767, 7.54165459, -68.31335449, 118.63990784, 1.92085516, 25.26731300, -0.50097293, 0.83721876, 0.19642176, 0.09751634, 0.07572603, 0.12886605, 0.10862491, 100.32900238, 83.24089050, 31.25000000, 0.00000000
1, 65.7450, 7115, -0.68417108, -0.92311978, 0.31542552, -16.73426247, 125.95390320, -20.16078568, -51.38848114, 13.50482273, -81.08740234, 92.43471527, -4.51319313, 147.64447021, 0.16533197, -0.22716396, -0.68525243, -0.67193079, 0.60435140, -0.07334580, -0.27570930, 100.41500854, 76.02655792, 32.09000015, 0.00000000
1, 65.7500, 7116, -0.74836230, -0.90901649, 0.39342859, -15.44127464, 135.90504456, -23.62053490, -51.38848114, 13.50482273, -81.08740234, 92.30377960, -4.42234898, 148.33023071, 0.16211818, -0.22235280, -0.68600148, -0.67355692, 0.66985905, -0.08779150, -0.35613713, 100.41500854, 76.02655792, 32.09000015, 0.00000000
1, 65.7550, 7117, -0.78780836, -0.89699781, 0.43856660, -14.16658306, 144.27050781, -27.78383827, -51.79771805, 12.80327415, -81.08740234, 92.17716217, -4.31072330, 149.05838013, 0.15875840, -0.21717121, -0.68686062, -0.67517036, 0.71105957, -0.10011532, -0.40356380, 100.41500854, 76.02655792, 32.09000015, 0.00000000
1, 65.8100, 7012, -0.37402344, -0.94610596, 0.50378418, -24.27742958, 161.29754639, -42.24228287, -50.24846649, 5.93393755, -72.05495453, 117.22590637, 0.49731418, 33.67542267, -0.49955752, 0.81640840, 0.24943613, 0.14731336, 0.38351259, 0.05716093, -0.04586959, 100.32900238, 83.24089050, 31.25000000, 0.00000000
1, 65.8149, 7013, -0.36865234, -0.89367676, 0.50500488, -23.40242958, 164.02755737, -41.12227631, -50.24846649, 5.93393755, -72.05495453, 117.11466980, 0.30572933, 34.49896622, -0.49885640, 0.81437385, 0.25431895, 0.15251061, 0.37482256, 0.00382036, -0.04880703, 100.32900238, 83.24089050, 31.25000000, 0.00000000
1, 65.7600, 7118, -0.80797124, -0.87714040, 0.47486657, -9.14285851, 166.43176270, -30.68457222, -51.79771805, 12.80327415, -81.08740234, 92.06888580, -4.18694830, 149.89775085, 0.15476653, -0.21127269, -0.68801594, -0.67679048, 0.73322397, -0.12026300, -0.44185477, 100.41500854, 76.02655792, 32.09000015, 0.00000000
1, 65.7650, 7119, -0.81481791, -0.87869942, 0.49563342, -5.11448145, 179.92475891, -32.69263458, -51.91464615, 13.35866737, -82.78281403, 91.97772980, -4.05390406, 150.80470276, 0.15038374, -0.20492928, -0.68935919, -0.67836028, 0.74229687, -0.11896263, -0.46429610, 100.41500854, 76.02655792, 32.09000015, 0.00000000
1, 65.8200, 7014, -0.36718750, -0.84680176, 0.50018311, -21.30242729, 171.79754639, -39.93227768, -50.24846649, 5.93393755, -72.05495453, 117.01113892, 0.09272499, 35.35474396, -0.49795765, 0.81229943, 0.25932798, 0.15797769, 0.36975086, -0.04391003, -0.04562312, 100.32900238, 83.24089050, 31.25000000, 0.00000000
1, 65.8250, 7015, -0.36254883, -0.81884766, 0.50872803, -19.62243080, 176.94255066, -38.95228195, -50.59923935, 6.43086815, -72.81496429, 116.91271973, -0.13480419, 36.23159790, -0.49690366, 0.81018698, 0.26440960, 0.16361962, 0.36120549, -0.07265500, -0.05571584, 100.32900238, 83.24089050, 31.25000000, 0.00000000
1, 65.8299, 7016, -0.35839844, -0.79803467, 0.52221680, -18.60742569, 183.10253906, -38.21727753, -50.59923935, 6.43086815, -72.81496429, 116.81564331, -0.37803492, 37.13466263, -0.49570513, 0.80800837, 0.26958883, 0.16947290, 0.35288125, -0.09422353, -0.07072626, 100.32900238, 83.24089050, 31.25000000, 0.00000000
1, 65.8050, 7120, -0.61650676, -0.71708548, 0.62513942, 13.77143955, 268.55712891, -57.35495758, -52.14849472, 11.72171879, -85.35515594, 91.67447662, -2.56301570, 160.16555786, 0.10415557, -0.13886605, -0.70378393, -0.68888026, 0.56911767, -0.28246325, -0.59869087, 100.41500854, 76.02655792, 32.09000015, 0.00000000
1, 65.8100, 7121, -0.49570128, -0.71730340, 0.61210155, 15.67310905, 275.23876953, -60.79521942, -52.14849472, 11.72171879, -85.35515594, 91.69335175, -2.29714322, 161.55090332, 0.09744689, -0.12877437, -0.70581883, -0.68973994, 0.45293504, -0.28241584, -0.58507144, 100.41500854, 76.02655792, 32.09000015, 0.00000000
1, 65.8350, 7017, -0.35876465, -0.77917480, 0.54296875, -17.17242622, 189.47256470, -37.34227753, -50.83308792, 6.13855600, -73.57497406, 116.72154999, -0.63801283, 38.06462097, -0.49434003, 0.80576766, 0.27486679, 0.17554098, 0.34878445, -0.11379920, -0.09297279, 100.32900238, 83.24089050, 31.25000000, 0.00000000
1, 65.8400, 7018, -0.35858154, -0.76928711, 0.57678223, -15.45742702, 196.40257263, -36.53727722, -50.83308792, 6.13855600, -73.57497406, 116.63125610, -0.91563976, 39.02420807, -0.49278894, 0.80346096, 0.28025880, 0.18183653, 0.34383249, -0.12434961, -0.12823555, 100.32900238, 83.24089050, 31.25000000, 0.00000000
1, 65.8449, 7019, -0.35638428, -0.77447510, 0.60913086, -13.67242622, 203.96257019, -35.73227692, -50.83308792, 6.13855600, -73.57497406, 116.54448700, -1.21230078, 40.01630783, -0.49103743, 0.80107898, 0.28577715, 0.18837819, 0.33654132, -0.11976801, -0.16199130, 100.32900238, 83.24089050, 31.25000000, 0.00000000
1, 65.8150, 7122, -0.28487298, -0.77368915, 0.65020001, 20.78741837, 291.95751953, -67.68257904, -52.00233841, 12.56942368, -86.29055786, 91.74132538, -1.99995053, 163.02070618, 0.09038784, -0.11796735, -0.70800263, -0.69039559, 0.24703895, -0.22626613, -0.62202966, 100.41500854, 76.02655792, 32.09000015, 0.00000000
1, 65.8200, 7123, -0.10806345, -0.83533800, 0.61128026, 21.27421570, 297.96765137, -71.22600555, -52.00233841, 12.56942368, -86.29055786, 91.79851532, -1.68727279, 164.52108765, 0.08323204, -0.10685089, -0.71011847, -0.69093210, 0.07571959, -0.16470465, -0.58180141, 100.41500854, 76.02655792, 32.09000015, 0.00000000
1, 65.8250, 7124, 0.02357405, -0.92504680, 0.51035714, 20.19157410, 301.60885620, -73.85951233, -51.85618210, 12.16018677, -88.16135406, 91.86183929, -1.36287403, 166.03988647, 0.07603549, -0.09551990, -0.71212071, -0.69136006, -0.05005753, -0.07495394, -0.47962970, 100.41500854, 76.02655792, 32.09000015, 0.00000000
1, 65.8500, 7020, -0.33929443, -0.79302979, 0.65112305, -11.43242550, 212.18756104, -35.20727921, -51.18386459, 6.08009338, -74.13037109, 116.46274567, -1.52819383, 41.04459381, -0.48905894, 0.79861557, 0.29144746, 0.19517452, 0.31402510, -0.10175547, -0.20534426, 100.32900238, 83.24089050, 31.25000000, 0.00000000
1, 65.8549, 7021, -0.29583740, -0.81182861, 0.67077637, -9.82242489, 220.86756897, -35.24227905, -51.18386459, 6.08009338, -74.13037109, 116.38206482, -1.86178875, 42.11244583, -0.48686922, 0.79603881, 0.29729113, 0.20223410, 0.26486251, -0.08343668, -0.22632366, 100.32900238, 83.24089050, 31.25000000, 0.00000000
1, 65.8999, 7022, 0.43109131, -1.07843018, 0.50616455, -24.76742935, 213.65757751, -50.74728394, -52.52849960, 5.32008171, -77.72580719, 115.14671326, -4.67583704, 52.14993668, -0.46610746, 0.76715159, 0.35105535, 0.26642531, -0.51164579, 0.17654590, -0.08176611, 100.32900238, 83.24089050, 31.25000000, 0.00000000
1, 65.9050, 7023, 0.52764893, -1.07116699, 0.45715332, -27.67243004, 209.91255188, -52.25228500, -52.52849960, 5.32008171, -77.72580719, 114.91958618, -4.88325787, 53.21514511, -0.46440470, 0.76331353, 0.35673571, 0.27280089, -0.61189234, 0.16791610, -0.03639302, 100.32900238, 83.24089050, 31.25000000, 0.00000000
1, 65.8300, 7125, 0.13793068, -1.01973295, 0.44596168, 19.44589424, 301.24679565, -75.01536560, -51.85618210, 12.16018677, -88.16135406, 91.92637634, -1.03504539, 167.55747986, 0.06887124, -0.08414398, -0.71394986, -0.69170237, -0.15853743, 0.01974713, -0.41396663, 100.41500854, 76.02655792, 32.09000015, 0.00000000
1, 65.8350, 7126, 0.20859697, -1.10969460, 0.40033144, 17.07704163, 297.30667114, -74.23786926, -51.85618210, 12.16018677, -88.16135406, 91.98799896, -0.71218693, 169.05545044, 0.06180187, -0.07288932, -0.71556324, -0.69198054, -0.22342470, 0.10972637, -0.36720395, 100.41500854, 76.02655792, 32.09000015, 0.00000000
1, 65.8400, 7127, 0.23721412, -1.15527916, 0.34867203, 13.49124336, 291.30899048, -72.33720398, -52.14849472, 11.54633141, -89.88599396, 92.04032898, -0.39935935, 170.52336121, 0.05486222, -0.06185310, -0.71692050, -0.69223511, -0.24640849, 0.15536785, -0.31459036, 100.41500854, 76.02655792, 32.09000015, 0.00000000
1, 65.9100, 7024, 0.62036133, -1.05468750, 0.38946533, -30.78742981, 205.71255493, -53.05728149, -52.96696854, 5.11546326, -78.69043732, 114.67459869, -5.07384109, 54.26407623, -0.46283937, 0.75938189, 0.36228889, 0.27904448, -0.70798934, 0.14994426, 0.02737876, 100.32900238, 83.24089050, 31.25000000, 0.00000000
1, 65.9149, 7025, 0.69158936, -1.04675293, 0.31921387, -33.79743195, 201.65257263, -53.61728287, -52.96696854, 5.11546326, -78.69043732, 114.41270447, -5.24882078, 55.29676819, -0.46140462, 0.75536430, 0.36771068, 0.28516567, -0.78232533, 0.14039613, 0.09343906, 100.32900238, 83.24089050, 31.25000000, 0.00000000
1, 65.9200, 7026, 0.72607422, -1.04425049, 0.26232910, -37.43743515, 199.06256104, -54.42228317, -52.96696854, 5.11546326, -78.69043732, 114.13043213, -5.40992737, 56.32037354, -0.46010250, 0.75122905, 0.37303051, 0.29121965, -0.81967032, 0.13615301, 0.14583357, 100.32900238, 83.24089050, 31.25000000, 0.00000000
1, 65.8450, 7128, 0.25126499, -1.16596019, 0.29507902, 9.40128708, 285.89199829, -70.13586426, -52.14849472, 11.54633141, -89.88599396, 92.08020782, -0.09784211, 171.96400452, 0.04802655, -0.05102964, -0.71801460, -0.69249153, -0.25501320, 0.16613351, -0.26022595, 100.41500854, 76.02655792, 32.09000015, 0.00000000
1, 65.8500, 7129, 0.27091399, -1.15704191, 0.20346412, 5.29497147, 284.69714355, -68.25430298, -51.76848984, 11.04940033, -90.00292206, 92.10705566, 0.19359978, 173.39852905, 0.04117227, -0.04028448, -0.71886039, -0.69276392, -0.26930511, 0.15738219, -0.16802529, 100.41500854, 76.02655792, 32.09000015, 0.00000000
1, 65.9249, 7027, 0.71612549, -1.05792236, 0.19244385, -42.93243408, 199.09756470, -56.83728790, -52.58696365, 5.46623802, -80.00584412, 113.81735992, -5.55479288, 57.35013962, -0.45897180, 0.74688029, 0.37832871, 0.29729128, -0.81231809, 0.14790064, 0.21079923, 100.32900238, 83.24089050, 31.25000000, 0.00000000
1, 65.9300, 7028, 0.68237305, -1.06756592, 0.16400146, -48.74243927, 201.93255615, -60.12728119, -52.58696365, 5.46623802, -80.00584412, 113.47075653, -5.68434429, 58.40065002, -0.45798641, 0.74225909, 0.38368282, 0.30345932, -0.78087497, 0.15537696, 0.23374969, 100.32900238, 83.24089050, 31.25000000, 0.00000000
1, 65.9350, 7029, 0.63427734, -1.07128906, 0.13787842, -52.87243652, 204.83755493, -63.66228867, -52.67465591, 5.34931278, -80.97047424, 113.09914398, -5.79684734, 59.47261047, -0.45709127, 0.73739010, 0.38911980, 0.30969229, -0.73480952, 0.15676661, 0.25396222, 100.32900238, 83.24089050, 31.25000000, 0.00000000
1, 65.9050, 7130, -0.12393892, -0.97878158, -0.02691307, -18.24120903, 278.86795044, -11.94004631, -49.83922958, 10.66939449, -95.29376984, 91.83361816, 1.96965027, -171.46939087, -0.03942330, 0.06534252, -0.71534556, -0.69459122, 0.15832323, -0.02006894, 0.05715701, 100.41500854, 76.02655792, 32.09000015, 0.00000000
1, 65.9100, 7131, -0.22774275, -0.96322131, 0.06364172, -16.65708160, 292.82965088, -8.19231415, -49.83922958, 10.66939449, -95.29376984, 91.80058289, 1.96636796, -170.00382996, -0.04834522, 0.07445199, -0.71425337, -0.69423473, 0.26192546, -0.03579661, -0.03424936, 100.41500854, 76.02655792, 32.09000015, 0.00000000
1, 65.9399, 7030, 0.58142090, -1.07513428, 0.13360596, -55.67243958, 206.93756104, -67.23228455, -52.67465591, 5.34931278, -80.97047424, 112.70983124, -5.88990307, 60.56219482, -0.45625561, 0.73230660, 0.39463893, 0.31593984, -0.68365753, 0.15815882, 0.25201118, 100.32900238, 83.24089050, 31.25000000, 0.00000000
1, 65.9450, 7031, 0.51782227, -1.07189941, 0.14721680, -57.94744110, 207.32257080, -70.45229340, -52.67465591, 5.34931278, -80.97047424, 112.30667877, -5.96131849, 61.66054535, -0.45548624, 0.72704613, 0.40019909, 0.32214415, -0.62139201, 0.15238011, 0.23193254, 100.32900238, 83.24089050, 31.25000000, 0.00000000
1, 65.9150, 7132, -0.25425920, -0.95506704, 0.16242096, -16.44478989, 311.25436401, -5.12693834, -50.48231506, 10.31861973, -96.84302521, 91.77146149, 1.94583678, -168.44660950, -0.05792425, 0.08401256, -0.71301419, -0.69368404, 0.28791356, -0.04413865, -0.13359720, 100.41500854, 76.02655792, 32.09000015, 0.00000000
1, 65.9200, 7133, -0.20700352, -0.96982920, 0.28802112, -16.64186668, 328.37243652, -1.45656097, -50.48231506, 10.31861973, -96.84302521, 91.74346924, 1.90525210, -166.80432129, -0.06813553, 0.09396118, -0.71160024, -0.69293141, 0.23973852, -0.02961791, -0.25959638, 100.41500854, 76.02655792, 32.09000015, 0.00000000
1, 65.9250, 7134, -0.16627716, -0.99784160, 0.33465341, -17.14642906, 341.26391602, 1.13552868, -49.78076553, 10.20169544, -98.47997284, 91.71668243, 1.84919643, -165.09800720, -0.07881881, 0.10419103, -0.71001047, -0.69196612, 0.19799176, -0.00172635, -0.30665010, 100.41500854, 76.02655792, 32.09000015, 0.00000000
1, 65.9900, 7032, -0.11444092, -0.99182129, 0.22393799, -44.61243439, 207.14755249, -85.81729126, -51.38848114, 2.92312193, -86.29055786, 108.94569397, -5.75881863, 71.49844360, -0.44712088, 0.67671824, 0.45118591, 0.37224537, 0.01380631, 0.05127206, 0.10046542, 100.33300781, 82.90479279, 31.25000000, 0.00000000
1, 65.9949, 7033, -0.11285400, -0.99475098, 0.21801758, -44.99743652, 211.03256226, -85.99228668, -50.83308792, 2.92312193, -86.84594727, 108.60667419, -5.69136906, 72.64154053, -0.44566873, 0.67068529, 0.45708799, 0.37766555, 0.01339208, 0.05219300, 0.10087050, 100.33300781, 82.90479279, 31.25000000, 0.00000000
1, 65.9300, 7135, -0.07327645, -1.04885101, 0.38740069, -19.41785049, 356.19024658, 3.93882036, -49.78076553, 10.20169544, -98.47997284, 91.67601776, 1.77943587, -163.31745911, -0.09003469, 0.11475994, -0.70812905, -0.69085246, 0.10367574, 0.04914004, -0.35987288, 100.41500854, 76.02655792, 32.09000015, 0.00000000
1, 65.9350, 7136, 0.00348790, -1.07883012, 0.37914288, -22.54948235, 359.70465088, 5.88516426, -49.78076553, 10.20169544, -98.47997284, 91.61795807, 1.70095623, -161.51962280, -0.10141164, 0.12533428, -0.70597613, -0.68964106, 0.02559904, 0.07906477, -0.35240588, 100.41500854, 76.02655792, 32.09000015, 0.00000000
1, 65.9400, 7137, 0.06188211, -1.09767520, 0.32815778, -25.28234863, 359.66839600, 7.88201046, -49.28383636, 10.72785759, -99.97076416, 91.54364014, 1.61455441, -159.72219849, -0.11283760, 0.13580285, -0.70357740, -0.68833429, -0.03414087, 0.09791592, -0.30253407, 100.41500854, 76.02655792, 32.09000015, 0.00000000
1, 66.0000, 7034, -0.06530762, -0.98486328, 0.21594238, -46.08243561, 213.65757751, -85.50229645, -50.83308792, 2.83542824, -86.84594727, 108.26246643, -5.62360382, 73.79580688, -0.44414172, 0.66452807, 0.46296144, 0.38315451, -0.03298696, 0.04030085, 0.09732701, 100.33300781, 82.90479279, 31.25000000, 0.00000000
1, 66.0050, 7035, -0.00671387, -0.96771240, 0.22485352, -48.42743683, 216.07255554, -81.65229034, -50.83308792, 2.83542824, -86.84594727, 107.90727234, -5.57089281, 74.95505524, -0.44252253, 0.65829283, 0.46868205, 0.38879508, -0.09058587, 0.02114886, 0.08263282, 100.33300781, 82.90479279, 31.25000000, 0.00000000
1, 66.0099, 7036, 0.03021240, -0.95489502, 0.24548340, -48.56743622, 213.79756165, -78.32728577, -50.27769470, 2.07541656, -88.21981812, 107.55396271, -5.52341366, 76.09788513, -0.44085130, 0.65209252, 0.47421187, 0.39439672, -0.12666753, 0.00637019, 0.05617011, 100.33300781, 82.90479279, 31.25000000, 0.00000000
1, 65.9450, 7138, 0.10074264, -1.11101329, 0.26240262, -27.45654678, 357.61041260, 10.13902760, -49.28383636, 10.72785759, -99.97076416, 91.45536041, 1.51964045, -157.93531799, -0.12425362, 0.14609604, -0.70096385, -0.68692553, -0.07445683, 0.11127771, -0.23818307, 100.41500854, 76.02655792, 32.09000015, 0.00000000
1, 65.9500, 7139, 0.11269366, -1.10869837, 0.20099469, -29.39517784, 353.74096680, 12.49007607, -48.64074707, 9.93861389, -101.22770691, 91.35382843, 1.41636038, -156.16793823, -0.13560441, 0.15615532, -0.69815826, -0.68542117, -0.08801784, 0.10897465, -0.17845660, 100.41500854, 76.02655792, 32.09000015, 0.00000000
1, 66.0150, 7037, 0.06738281, -0.93353271, 0.27325439, -47.93743515, 208.96754456, -74.58229065, -50.27769470, 2.07541656, -88.21981812, 107.20750427, -5.47964430, 77.21153259, -0.43915322, 0.64599931, 0.47950527, 0.39988017, -0.16306251, -0.01688022, 0.02264846, 100.33300781, 82.90479279, 31.25000000, 0.00000000
1, 66.0200, 7038, 0.09234619, -0.92382813, 0.30230713, -47.06243896, 203.15757751, -71.18728638, -50.19000244, 2.19234133, -88.86290741, 106.86942291, -5.43697166, 78.29191589, -0.43745098, 0.64003372, 0.48456120, 0.40520853, -0.18728136, -0.02839231, -0.01202902, 100.33300781, 82.90479279, 31.25000000, 0.00000000
1, 66.0249, 7039, 0.09875488, -0.91656494, 0.32379150, -46.57243729, 197.73255920, -67.79228973, -50.19000244, 2.19234133, -88.86290741, 106.53753662, -5.39647770, 79.34096527, -0.43575040, 0.63418770, 0.48938403, 0.41040349, -0.19297233, -0.03739253, -0.03903530, 100.33300781, 82.90479279, 31.25000000, 0.00000000
1, 65.9950, 7140, 0.39253059, -0.98342860, -0.11612193, -31.43423080, 257.75094604, 26.03660202, -46.18532562, 11.28325081, -105.37854004, 90.19582367, 0.19011188, -142.09866333, -0.22813159, 0.23113537, -0.66954094, -0.66801757, -0.38833725, -0.01636600, 0.11956760, 100.41500854, 76.02655792, 32.09000015, 0.00000000
1, 66.0000, 7141, 0.38042772, -0.97651124, -0.14540692, -32.22851563, 235.49005127, 27.33882713, -46.06840134, 11.42940617, -106.22624969, 90.03752899, 0.05252418, -140.92127991, -0.23611224, 0.23687792, -0.66649538, -0.66627604, -0.37854797, -0.02324920, 0.14610520, 100.41500854, 76.02655792, 32.09000015, 0.00000000
1, 66.0300, 7040, 0.10113525, -0.91864014, 0.33752441, -47.27243805, 193.56756592, -64.53729248, -50.19000244, 2.19234133, -88.86290741, 106.20520020, -5.35968351, 80.36502075, -0.43406251, 0.62841821, 0.49398312, 0.41552493, -0.19469708, -0.03701038, -0.05828234, 100.33300781, 82.90479279, 31.25000000, 0.00000000
1, 66.0350, 7041, 0.11602783, -0.92718506, 0.33685303, -49.44243622, 189.92755127, -60.09228516, -48.81613541, 1.66617942, -89.97369385, 105.86483002, -5.33324814, 81.36505127, -0.43239635, 0.62271816, 0.49831176, 0.42064354, -0.20906352, -0.03014321, -0.06323870, 100.33300781, 82.90479279, 31.25000000, 0.00000000
1, 66.0050, 7142, 0.32864261, -0.96124279, -0.15829797, -33.06788254, 214.09152222, 28.97765350, -46.06840134, 11.42940617, -106.22624969, 89.87222290, -0.09020124, -139.85047913, -0.24350457, 0.24191757, -0.66359669, -0.66469616, -0.32919800, -0.03849692, 0.15603530, 100.41500854, 76.02655792, 32.09000015, 0.00000000
1, 66.0100, 7143, 0.26534516, -0.93994439, -0.15207884, -33.75979233, 195.23397827, 30.74526978, -46.06840134, 11.42940617, -106.22624969, 89.70100403, -0.23912741, -138.87348938, -0.25038999, 0.24633068, -0.66084170, -0.66326040, -0.26848674, -0.05979100, 0.14673106, 100.41500854, 76.02655792, 32.09000015, 0.00000000
1, 66.0150, 7144, 0.20249024, -0.90848184, -0.15112704, -34.40663910, 178.59896851, 32.81065369, -45.57146835, 10.93247604, -107.83396912, 89.52443695, -0.39611670, -137.97914124, -0.25684562, 0.25017765, -0.65822560, -0.66195208, -0.20833698, -0.09122351, 0.14261326, 100.41500854, 76.02655792, 32.09000015, 0.00000000
1, 66.0200, 7145, 0.12896578, -0.87571585, -0.17550613, -34.08379364, 164.10037231, 34.73935699, -45.57146835, 10.93247604, -107.83396912, 89.34759521, -0.56082058, -137.15666199, -0.26292235, 0.25353858, -0.65576297, -0.66073072, -0.13759606, -0.12389979, 0.16377203, 100.41500854, 76.02655792, 32.09000015, 0.00000000
1, 66.0250, 7146, 0.03606183, -0.87070036, -0.21173042, -32.62476349, 152.52218628, 35.84690094, -44.63607025, 10.84478188, -108.53551483, 89.17247772, -0.72893083, -136.39128113, -0.26867741, 0.25653189, -0.65342981, -0.65957057, -0.04752718, -0.12878799, 0.19672495, 100.41500854, 76.02655792, 32.09000015, 0.00000000
1, 66.0300, 7147, -0.06519635, -0.89291835, -0.23176125, -31.75286865, 145.26974487, 36.46913528, -44.63607025, 10.84478188, -108.53551483, 89.00381470, -0.89889866, -135.66175842, -0.27421424, 0.25930214, -0.65120679, -0.65840620, 0.05082396, -0.10645223, 0.21348664, 100.41500854, 76.02655792, 32.09000015, 0.00000000
1, 66.0700, 7042, 0.16320801, -0.95257568, 0.21899414, -46.25743484, 126.75253296, -36.08227539, -47.70534897, 1.84156680, -92.86758423, 103.54428864, -5.19801855, 86.97128296, -0.42398611, 0.58868134, 0.51968354, 0.45124188, -0.25390863, -0.01530624, 0.01547633, 100.33300781, 82.90479279, 31.25000000, 0.00000000
1, 66.0750, 7043, 0.14599609, -0.97570801, 0.19726563, -50.77243805, 125.38755035, -31.88227844, -47.70534897, 1.84156680, -92.86758423, 103.23162842, -5.18810272, 87.62075043, -0.42306703, 0.58453953, 0.52181280, 0.45501572, -0.23646879, 0.00656009, 0.03200541, 100.33300781, 82.90479279, 31.25000000, 0.00000000
1, 66.0799, 7044, 0.12762451, -0.97668457, 0.17175293, -55.49744034, 124.58254242, -26.49227524, -47.70534897, 1.84156680, -92.86758423, 102.89627838, -5.19989061, 88.26010132, -0.42216399, 0.58042789, 0.52367681, 0.45895940, -0.21818441, 0.00624511, 0.05195235, 100.33300781, 82.90479279, 31.25000000, 0.00000000
1, 66.0850, 7045, 0.10601807, -0.97009277, 0.16619873, -58.33243942, 123.46253967, -21.55727196, -47.32534409, 1.19848001, -93.10143280, 102.54749298, -5.23070574, 88.88860321, -0.42124414, 0.57637787, 0.52531934, 0.46301365, -0.19703263, -0.00163904, 0.05163454, 100.33300781, 82.90479279, 31.25000000, 0.00000000
1, 66.0900, 7046, 0.08081055, -0.95849609, 0.18060303, -59.59243774, 121.29253387, -16.83227348, -47.32534409, 1.19848001, -93.10143280, 102.19341278, -5.27843189, 89.50160217, -0.42029509, 0.57243615, 0.52675885, 0.46711236, -0.17258050, -0.01449228, 0.03122118, 100.33300781, 82.90479279, 31.25000000, 0.00000000
1, 66.0350, 7148, -0.13420275, -0.91325510, -0.21571718, -31.73273277, 140.89163208, 37.48619843, -44.63607025, 10.84478188, -108.53551483, 88.83342743, -1.07223010, -134.95350647, -0.27964392, 0.26190659, -0.64901996, -0.65724981, 0.11677568, -0.08603840, 0.19427490, 100.41500854, 76.02655792, 32.09000015, 0.00000000
1, 66.0400, 7149, -0.20727701, -0.93136525, -0.15138315, -32.62743759, 129.72277832, 38.10767365, -45.13300323, 11.54633141, -109.03244781, 88.65755463, -1.24787045, -134.30044556, -0.28477499, 0.26415130, -0.64692551, -0.65621239, 0.18663889, -0.06790984, 0.12668765, 100.41500854, 76.02655792, 32.09000015, 0.00000000
1, 66.0950, 7150, -0.12082668, -0.94087136, 0.11761361, -30.31706047, 83.22870636, 13.80056572, -43.72990417, 12.86173630, -111.54633331, 86.64496613, -2.47120690, -128.12036133, -0.33146033, 0.28594345, -0.62370014, -0.64758676, 0.07759723, -0.05673060, -0.17719251, 100.41500854, 76.02655792, 32.09000015, 0.00000000
1, 66.1000, 7151, -0.15291882, -0.95808756, 0.14866281, -29.80702972, 78.85547638, 11.86712074, -43.87606049, 13.12481689, -112.13095093, 86.47881317, -2.50651765, -127.72279358, -0.33430988, 0.28741801, -0.62186110, -0.64723778, 0.10895609, -0.03936462, -0.21125105, 100.41500854, 76.02655792, 32.09000015, 0.00000000
1, 66.0949, 7047, 0.06018066, -0.94561768, 0.20989990, -59.55743790, 118.63254547, -12.63226986, -47.03303146, 1.75387311, -94.27068329, 101.84048462, -5.34015131, 90.09747314, -0.41930631, 0.56862599, 0.52802718, 0.47120476, -0.15296552, -0.02856714, -0.00410248, 100.33300781, 82.90479279, 31.25000000, 0.00000000
1, 66.1000, 7048, 0.05603027, -0.92858887, 0.24652100, -58.08744049, 115.79753876, -9.16726780, -47.03303146, 1.75387311, -94.27068329, 101.49581146, -5.41235399, 90.67631531, -0.41826138, 0.56496215, 0.52917057, 0.47524086, -0.15002960, -0.04671353, -0.04665305, 100.33300781, 82.90479279, 31.25000000, 0.00000000
