SensorId, TimeStamp (s), FrameNumber, AccX (g), AccY (g), AccZ (g), GyroX (deg/s), GyroY (deg/s), GyroZ (deg/s), MagX (uT), MagY (uT), MagZ (uT), EulerX (deg), EulerY (deg), EulerZ (deg), QuatW, QuatX, QuatY, QuatZ, LinAccX (g), LinAccY (g), LinAccZ (g), Pressure (kPa), Altitude (m), Temperature (degC), HeaveMotion (m)
1, -0.0000, 0, -0.01665986, -1.00267434, 0.06848200, -6.87084436, 7.03189754, -2.09780526, -35.77901077, 3.47851491, -85.15054321, 93.03864288, -0.57770818, 8.80235958, -0.68579161, 0.72372365, 0.05222315, 0.05645189, 0.00636530, 0.00402587, -0.01700811, 99.98900604, 111.80941772, 33.43999863, 0.00000000
1, 0.0050, 1, -0.01449013, -1.00241041, 0.06611098, -6.97847319, 7.13287163, -1.98887169, -36.15901566, 4.09237051, -84.30283356, 93.00337219, -0.56969297, 8.83848381, -0.68600065, 0.72349256, 0.05248187, 0.05663365, 0.00434307, 0.00373195, -0.01524301, 99.98900604, 111.80941772, 33.43999863, 0.00000000
1, 0.0100, 2, -0.01247263, -1.00290322, 0.06724874, -7.23055267, 7.40745783, -1.90901351, -36.15901566, 4.09237051, -84.30283356, 92.96681976, -0.56211269, 8.87595272, -0.68621683, 0.72325325, 0.05274572, 0.05682696, 0.00245701, 0.00418884, -0.01700724, 99.98900604, 111.80941772, 33.43999863, 0.00000000
1, 0.0150, 3, -0.00918747, -1.00421286, 0.06508586, -7.62509537, 7.65097189, -2.03839564, -36.39286804, 4.20929527, -84.94592285, 92.92827606, -0.55393118, 8.91466141, -0.68644506, 0.72300094, 0.05301989, 0.05702499, -0.00068258, 0.00546625, -0.01550043, 99.98900604, 111.80941772, 33.43999863, 0.00000000
1, 0.0200, 4, -0.00514556, -1.00423002, 0.06015174, -7.80311918, 7.65105629, -2.10623217, -36.39286804, 4.20929527, -84.94592285, 92.88886261, -0.54539257, 8.95338631, -0.68667877, 0.72274309, 0.05329572, 0.05722146, -0.00456498, 0.00545538, -0.01124328, 99.98900604, 111.80941772, 33.43999863, 0.00000000
1, 0.0250, 5, 0.00032492, -1.00585675, 0.05700343, -7.87267303, 7.54349518, -2.00275350, -36.39286804, 4.20929527, -84.94592285, 92.84912872, -0.53731209, 8.99154472, -0.68691450, 0.72248363, 0.05356495, 0.05741778, -0.00988238, 0.00705103, -0.00877532, 99.98900604, 111.80941772, 33.43999863, 0.00000000
1, 0.0300, 6, 0.00128600, -1.00425124, 0.05885445, -8.08521080, 7.50345039, -1.86079371, -36.10055542, 3.82928967, -85.15054321, 92.80832672, -0.52990824, 9.02946472, -0.68715656, 0.72221798, 0.05382793, 0.05761760, -0.01071732, 0.00540632, -0.01132467, 99.98900604, 111.80941772, 33.43999863, 0.00000000
1, 0.0350, 7, 0.00243684, -1.00319195, 0.06075476, -8.36835194, 7.39565611, -1.82470644, -36.10055542, 3.82928967, -85.15054321, 92.76878357, -0.52059829, 9.06674767, -0.68739188, 0.72195905, 0.05409882, 0.05780121, -0.01172673, 0.00430803, -0.01392830, 99.98900604, 111.80941772, 33.43999863, 0.00000000
1, 0.0400, 8, 0.00404797, -1.00259709, 0.05705570, -8.65264416, 7.39145327, -1.75108349, -36.36363602, 3.77082729, -84.82899475, 92.72516632, -0.51367098, 9.10406876, -0.68765140, 0.72167653, 0.05435347, 0.05800217, -0.01318852, 0.00368270, -0.01095526, 99.98900604, 111.80941772, 33.43999863, 0.00000000
1, 0.0700, 9, 0.02169000, -1.00222301, 0.05196301, -10.17293930, 6.80337858, -1.00965154, -36.30517197, 3.94621444, -85.93978119, 92.43689728, -0.48526916, 9.31013203, -0.68937427, 0.71983266, 0.05567292, 0.05920015, -0.03030781, 0.00308637, -0.01080998, 99.98900604, 111.80941772, 33.43999863, 0.00000000
1, 0.0750, 10, 0.02786905, -1.00393128, 0.04504448, -10.45660210, 6.76270056, -0.86680138, -36.30517197, 3.94621444, -85.93978119, 92.38431549, -0.48243442, 9.34408855, -0.68968844, 0.71949846, 0.05587604, 0.05941228, -0.03641617, 0.00476687, -0.00478970, 99.98900604, 111.80941772, 33.43999863, 0.00000000
1, 0.0800, 11, 0.03662865, -0.99943078, 0.03641801, -10.55145645, 5.88068676, -0.43093887, -36.50979233, 3.94621444, -85.73516083, 92.33129883, -0.48157728, 9.37354946, -0.69000638, 0.71916449, 0.05603860, 0.05961014, -0.04512852, 0.00024222, 0.00294261, 99.98900604, 111.80941772, 33.43999863, 0.00000000
1, 0.0850, 12, 0.04066101, -0.99693811, 0.03566438, -10.39318371, 4.68427324, 0.13441652, -36.50979233, 3.94621444, -85.73516083, 92.27896118, -0.47210726, 9.39672756, -0.69032788, 0.71883345, 0.05621385, 0.05971599, -0.04908248, -0.00228695, 0.00279232, 99.98900604, 111.80941772, 33.43999863, 0.00000000
1, 0.0900, 13, 0.04213458, -0.99913442, 0.04399900, -10.30876160, 3.66627598, 0.49465144, -36.18824768, 3.65390229, -85.67670441, 92.22726440, -0.47540209, 9.41494942, -0.69064081, 0.71851456, 0.05628130, 0.05987182, -0.05053040, -0.00014044, -0.00644578, 99.98900604, 111.80941772, 33.43999863, 0.00000000
1, 0.0950, 14, 0.04083007, -1.00257397, 0.05225742, -10.66302395, 3.62079334, 0.81354666, -36.18824768, 3.65390229, -85.67670441, 92.17381287, -0.48026490, 9.43288803, -0.69096386, 0.71818584, 0.05633645, 0.06003669, -0.04932304, 0.00325055, -0.01563433, 99.98900604, 111.80941772, 33.43999863, 0.00000000
1, 0.1000, 15, 0.03777975, -0.99888980, 0.03715389, -11.16330719, 3.91879654, 1.28269660, -36.18824768, 3.65390229, -85.67670441, 92.11784363, -0.48751891, 9.45223999, -0.69130039, 0.71784216, 0.05638455, 0.06022635, -0.04634934, -0.00044438, -0.00149770, 99.98900604, 111.80941772, 33.43999863, 0.00000000
1, 0.1050, 16, 0.03544613, -0.99708474, 0.03689360, -11.23160172, 3.76975274, 1.66558743, -35.98363113, 3.91698337, -86.52440643, 92.06153870, -0.49663624, 9.47077942, -0.69163835, 0.71749759, 0.05641596, 0.06042300, -0.04416544, -0.00228383, -0.00222388, 99.98900604, 111.80941772, 33.43999863, 0.00000000
1, 0.1100, 17, 0.03920785, -0.99639714, 0.03774526, -11.11643124, 3.16810966, 2.10545921, -35.98363113, 3.91698337, -86.52440643, 92.00585175, -0.50782579, 9.48625088, -0.69197273, 0.71715903, 0.05641579, 0.06061382, -0.04811793, -0.00300580, -0.00403820, 99.98900604, 111.80941772, 33.43999863, 0.00000000
1, 0.1150, 18, 0.04066006, -0.99704909, 0.03523696, -11.18273354, 2.90880132, 2.73106217, -35.57439423, 2.57234716, -85.82286072, 91.94985962, -0.52209127, 9.50033474, -0.69230771, 0.71682072, 0.05638801, 0.06081562, -0.04979778, -0.00238173, -0.00250281, 99.98900604, 111.80941772, 33.43999863, 0.00000000
1, 0.2250, 19, 0.20349933, -1.00422502, 0.04877251, -10.67647171, -1.24436724, 26.63636971, -37.09441757, 1.87079799, -86.96287537, 90.74522400, -1.78962517, 9.81198311, -0.69888407, 0.70993453, 0.04992659, 0.07114428, -0.23426230, 0.00470093, -0.03668373, 99.98900604, 111.80941772, 33.43999863, 0.00000000
1, 0.2300, 20, 0.21230303, -0.99956107, 0.04828912, -9.98515606, -1.99207819, 29.02835083, -37.09441757, 3.36159015, -86.96287537, 90.69602966, -1.93477082, 9.80043030, -0.69910449, 0.70970094, 0.04893643, 0.07199163, -0.24554251, 0.00010540, -0.03704927, 99.98900604, 111.80941772, 33.43999863, 0.00000000
1, 0.2350, 21, 0.22496778, -1.00034320, 0.04112456, -9.26696587, -2.00932097, 31.47244835, -37.09441757, 3.36159015, -86.96287537, 90.65277100, -2.07114577, 9.78834057, -0.69929326, 0.70949876, 0.04799961, 0.07277817, -0.26069784, 0.00097629, -0.03064427, 99.98900604, 111.80941772, 33.43999863, 0.00000000
1, 0.2400, 22, 0.24365272, -1.00570989, 0.03512504, -9.00690460, -2.31582355, 34.19590378, -37.44519043, 3.80005836, -86.84594727, 90.60865021, -2.24212360, 9.77514744, -0.69946468, 0.70930451, 0.04684280, 0.07377100, -0.28210452, 0.00644579, -0.02536190, 99.98900604, 111.80941772, 33.43999863, 0.00000000
1, 0.2450, 23, 0.26051155, -1.00826347, 0.03501888, -8.80865097, -3.38958836, 36.93691254, -37.44519043, 3.80005836, -86.84594727, 90.56583405, -2.42676568, 9.75659370, -0.69962126, 0.70912385, 0.04556906, 0.07481384, -0.30212283, 0.00911790, -0.02597278, 99.98900604, 111.80941772, 33.43999863, 0.00000000
1, 0.2500, 24, 0.27560249, -1.01324213, 0.03881903, -8.25549889, -4.32845783, 39.99208069, -37.79596710, 3.97544575, -86.99210358, 90.52609253, -2.62664628, 9.73335457, -0.69975024, 0.70896733, 0.04417403, 0.07591967, -0.32064205, 0.01423154, -0.03045360, 99.98900604, 111.80941772, 33.43999863, 0.00000000
1, 0.2550, 25, 0.28193828, -1.01781487, 0.04210937, -7.28846741, -4.18528652, 43.10282135, -37.79596710, 3.97544575, -86.99210358, 90.49125671, -2.84209418, 9.71084404, -0.69983619, 0.70884347, 0.04269041, 0.07712291, -0.33067328, 0.01896586, -0.03436632, 99.98900604, 111.80941772, 33.43999863, 0.00000000
1, 0.2600, 26, 0.29178628, -1.02196312, 0.04448535, -6.78929949, -3.56141138, 46.33614349, -37.79596710, 3.97544575, -86.99210358, 90.45887756, -3.07373667, 9.69147015, -0.69989163, 0.70873618, 0.04112758, 0.07844299, -0.34449601, 0.02330649, -0.03730001, 99.98900604, 111.80941772, 33.43999863, 0.00000000
1, 0.2650, 27, 0.29104879, -1.02456129, 0.05828647, -5.99652481, -3.73143506, 49.37154007, -38.29289627, 4.18006420, -87.48903656, 90.43064117, -3.32054114, 9.67126751, -0.69990915, 0.70865631, 0.03946851, 0.07984877, -0.34802708, 0.02611011, -0.05162037, 99.98900604, 111.80941772, 33.43999863, 0.00000000
1, 0.2700, 28, 0.27900735, -1.03862917, 0.07633219, -5.18398571, -2.42187834, 53.17804337, -38.29289627, 4.18006420, -87.48903656, 90.40621185, -3.58642650, 9.65762711, -0.69988203, 0.70859987, 0.03773465, 0.08140960, -0.34056434, 0.04041362, -0.07016195, 99.98900604, 111.80941772, 33.43999863, 0.00000000
1, 0.3250, 29, 0.10932775, -1.28595161, 0.32785702, -6.15378380, -13.11786079, 80.69677734, -40.89447403, 4.64776373, -88.10289001, 90.26272583, -7.42947006, 9.36685467, -0.69790190, 0.70860761, 0.01219112, 0.10324615, -0.23768817, 0.29359198, -0.32504395, 99.98900604, 111.80941772, 33.43999863, 0.00000000
1, 0.3300, 30, 0.07116332, -1.30616403, 0.32017156, -7.58985233, -14.43901253, 82.99702454, -40.89447403, 4.64776373, -88.10289001, 90.23565674, -7.84434843, 9.29286194, -0.69775885, 0.70848656, 0.00915468, 0.10533571, -0.20662260, 0.31475607, -0.31792399, 99.98900604, 111.80941772, 33.43999863, 0.00000000
1, 0.3350, 31, 0.00810652, -1.28576994, 0.29180744, -9.67337894, -15.14097404, 85.39034271, -40.89447403, 4.64776373, -88.10289001, 90.20399475, -8.26809502, 9.21473122, -0.69763362, 0.70832551, 0.00603257, 0.10745212, -0.15081799, 0.29542893, -0.29025114, 99.98900604, 111.80941772, 33.43999863, 0.00000000
1, 0.3400, 32, -0.02931076, -1.27397680, 0.26586124, -8.93229961, -14.27016354, 87.11923218, -41.97602844, 5.61239386, -87.92750549, 90.17113495, -8.70368576, 9.14187145, -0.69749302, 0.70814389, 0.00286765, 0.10967030, -0.12078905, 0.28477430, -0.26493442, 99.98900604, 111.80941772, 33.43999863, 0.00000000
1, 0.3450, 33, -0.07239382, -1.23081136, 0.25677422, -8.15818214, -13.44196320, 87.72500610, -41.97602844, 5.61239386, -87.92750549, 90.14207458, -9.14233398, 9.07335281, -0.69731468, 0.70797157, -0.00028692, 0.11193062, -0.08524998, 0.24279544, -0.25639749, 99.98900604, 111.80941772, 33.43999863, 0.00000000
1, 0.3500, 34, -0.07028740, -1.21589863, 0.23470803, -7.31284809, -12.92868805, 86.95532990, -42.67757797, 5.23238802, -87.75212097, 90.11730194, -9.57716084, 9.00756645, -0.69710368, 0.70781183, -0.00339793, 0.11418165, -0.09480853, 0.22914031, -0.23475666, 99.98900604, 111.80941772, 33.43999863, 0.00000000
1, 0.3550, 35, -0.10234055, -1.25499201, 0.18945186, -6.14723396, -12.31981564, 86.67458344, -42.67757797, 5.23238802, -87.75212097, 90.09828949, -10.01059341, 8.94495678, -0.69684798, 0.70767397, -0.00647576, 0.11644131, -0.07010439, 0.26958072, -0.18999645, 99.98900604, 111.80941772, 33.43999863, 0.00000000
1, 0.3600, 36, -0.15664904, -1.26499403, 0.13312116, -5.01710653, -8.75302601, 86.49985504, -42.67757797, 5.23238802, -87.75212097, 90.08215332, -10.44315338, 8.90051270, -0.69654930, 0.70754212, -0.00943370, 0.11880408, -0.02309104, 0.28100145, -0.13411005, 99.98900604, 111.80941772, 33.43999863, 0.00000000
1, 0.3800, 37, -0.15791430, -1.11391723, 0.20980217, 7.06521893, -8.32183933, 84.46350861, -44.40222168, 6.31394339, -88.24904633, 90.17869568, -12.14739323, 8.74379539, -0.69428539, 0.70787829, -0.02079947, 0.12823227, -0.05124317, 0.13558346, -0.20916919, 99.98900604, 111.80941772, 33.43999863, 0.00000000
1, 0.3850, 38, -0.09365691, -1.11465681, 0.19602923, 8.03949261, -7.07192135, 82.06230164, -44.40222168, 6.31394339, -88.24904633, 90.23349762, -12.55141640, 8.70545959, -0.69353437, 0.70812309, -0.02346190, 0.13046624, -0.12250148, 0.13787547, -0.19437647, 99.98900604, 111.80941772, 33.43999863, 0.00000000
1, 0.3900, 39, 0.02579421, -1.11969519, 0.13649027, 8.33103561, -5.80360889, 77.18151093, -45.13300323, 7.19087982, -88.10289001, 90.28292084, -12.93713760, 8.67457199, -0.69282198, 0.70833015, -0.02596947, 0.13263406, -0.24839683, 0.14449468, -0.13365196, 99.98900604, 111.80941772, 33.43999863, 0.00000000
1, 0.3950, 40, 0.13668728, -1.08603048, 0.06158746, 7.92257118, -7.99908590, 74.15494537, -45.13300323, 7.19087982, -88.10289001, 90.33309937, -13.30766296, 8.63208961, -0.69212961, 0.70853299, -0.02845219, 0.13464059, -0.36546528, 0.11242905, -0.05758989, 99.98900604, 111.80941772, 33.43999863, 0.00000000
1, 0.4000, 41, 0.27432966, -1.03364789, 0.01302723, 8.91503906, -17.15545654, 71.40030670, -46.30224991, 7.62934828, -88.21981812, 90.39957428, -13.66413021, 8.54213524, -0.69140410, 0.70881552, -0.03112064, 0.13628082, -0.50909686, 0.06158771, -0.00756835, 99.98900604, 111.80941772, 33.43999863, 0.00000000
1, 0.4050, 42, 0.39410722, -0.96743739, 0.01698071, 10.60283375, -33.73323822, 68.98571014, -46.30224991, 7.62934828, -88.21981812, 90.49553680, -14.00788307, 8.36625195, -0.69061071, 0.70924288, -0.03420503, 0.13733700, -0.63476437, -0.00317938, -0.00963620, 99.98900604, 111.80941772, 33.43999863, 0.00000000
1, 0.4100, 43, 0.47065029, -0.87658370, 0.03814847, 13.23560047, -54.87139511, 66.80090332, -46.30224991, 7.62934828, -88.21981812, 90.63256073, -14.33945942, 8.08047295, -0.68970835, 0.70987022, -0.03784357, 0.13767603, -0.71702433, -0.09262603, -0.02834672, 99.98900604, 111.80941772, 33.43999863, 0.00000000
1, 0.4150, 44, 0.50430590, -0.79463315, 0.05928134, 18.28729820, -78.88915253, 65.00740814, -46.56533051, 7.07395506, -87.34288025, 90.82779694, -14.65986729, 7.66936350, -0.68860835, 0.71078426, -0.04211919, 0.13722381, -0.75619173, -0.17317092, -0.04624128, 99.98900604, 111.80941772, 33.43999863, 0.00000000
1, 0.4200, 45, 0.51715118, -0.74111629, 0.09310170, 24.60714912, -104.68775177, 63.85635376, -46.56533051, 7.07395506, -87.34288025, 91.09139252, -14.97090244, 7.12301540, -0.68725443, 0.71202677, -0.04709627, 0.13594584, -0.77441317, -0.22528610, -0.07581091, 99.98900604, 111.80941772, 33.43999863, 0.00000000
1, 0.4250, 46, 0.50561643, -0.71649182, 0.15170074, 31.02770805, -130.21754456, 61.69390869, -47.44226837, 8.33089733, -87.75212097, 91.42490387, -15.26570034, 6.44225597, -0.68563700, 0.71359211, -0.05273291, 0.13381888, -0.76807165, -0.24854004, -0.12909514, 99.98900604, 111.80941772, 33.43999863, 0.00000000
1, 0.4550, 47, -0.05260707, -0.69216132, 0.21847500, 41.82721710, -213.03631592, 15.38161373, -48.26074219, 9.29552746, -85.44285583, 94.26350403, -16.11077309, 0.42322809, -0.67321849, 0.72603536, -0.09265185, 0.10519141, -0.22548005, -0.26640901, -0.15047514, 99.98900604, 111.80941772, 33.43999863, 0.00000000
1, 0.4600, 48, -0.12141962, -0.68867099, 0.21737386, 42.30431366, -207.79920959, 4.80945539, -48.26074219, 9.29552746, -85.44285583, 94.77432251, -16.05407906, -0.65673453, -0.67098564, 0.72818089, -0.09871714, 0.09892383, -0.15597087, -0.26943934, -0.14095375, 99.98900604, 111.80941772, 33.43999863, 0.00000000
1, 0.4650, 49, -0.18739504, -0.71523547, 0.22848566, 42.83608627, -201.39189148, -6.61181545, -47.82227325, 8.74013424, -84.09821320, 95.27524567, -15.93406200, -1.69733655, -0.66875762, 0.73030233, -0.10422160, 0.09251844, -0.08827812, -0.24267027, -0.14380912, 99.98900604, 111.80941772, 33.43999863, 0.00000000
1, 0.4700, 50, -0.21372901, -0.73357010, 0.26544681, 41.78529739, -193.69224548, -18.75328445, -47.82227325, 8.74013424, -84.09821320, 95.75506592, -15.74870205, -2.69025493, -0.66659582, 0.73235947, -0.10911107, 0.08599097, -0.05919994, -0.22443311, -0.17266968, 99.98900604, 111.80941772, 33.43999863, 0.00000000
1, 0.4750, 51, -0.16680925, -0.74969077, 0.31806502, 38.94594193, -187.97140503, -30.35831451, -48.28997421, 9.70476437, -83.57205200, 96.20658875, -15.50082111, -3.64478779, -0.66454732, 0.73431313, -0.11346640, 0.07928808, -0.10234116, -0.20870215, -0.21741265, 99.98900604, 111.80941772, 33.43999863, 0.00000000
1, 0.4800, 52, -0.16425419, -0.76874435, 0.32770240, 33.54103851, -181.72975159, -41.35744095, -48.28997421, 9.70476437, -83.57205200, 96.61544800, -15.19487095, -4.55764914, -0.66269529, 0.73609054, -0.11729971, 0.07243322, -0.10001323, -0.19023204, -0.21988913, 99.98900604, 111.80941772, 33.43999863, 0.00000000
1, 0.4850, 53, -0.13862970, -0.77662492, 0.25432345, 27.57943344, -170.49174500, -51.73965073, -48.28997421, 9.70476437, -83.57205200, 96.97422791, -14.83671474, -5.40354443, -0.66106778, 0.73767972, -0.12048100, 0.06559280, -0.11963539, -0.18306252, -0.14007622, 99.98900604, 111.80941772, 33.43999863, 0.00000000
1, 0.4900, 54, -0.11421326, -0.78006017, 0.16044356, 23.48249245, -160.20965576, -60.80135345, -48.11458588, 9.52937698, -82.63665771, 97.28883362, -14.43655872, -6.18667316, -0.65962833, 0.73910934, -0.12308423, 0.05880598, -0.13723156, -0.18051863, -0.04048016, 99.98900604, 111.80941772, 33.43999863, 0.00000000
1, 0.4950, 55, -0.09599203, -0.78496540, 0.13805324, 21.39540291, -154.68287659, -71.29891968, -48.11458588, 9.52937698, -82.63665771, 97.57764435, -13.98391533, -6.93095207, -0.65827656, 0.74047834, -0.12518883, 0.05187976, -0.14792347, -0.17683239, -0.01288471, 99.98900604, 111.80941772, 33.43999863, 0.00000000
1, 0.5000, 56, -0.07517076, -0.80888247, 0.16539346, 16.77015305, -144.82403564, -80.32893372, -47.61765671, 9.64630222, -81.99356842, 97.82299042, -13.48974323, -7.61506176, -0.65711319, 0.74170089, -0.12672237, 0.04498401, -0.16064525, -0.15437695, -0.03561846, 99.98900604, 111.80941772, 33.43999863, 0.00000000
1, 0.5550, 57, -0.11611691, -1.04222775, 0.11115649, -18.54634094, -71.02353668, -143.84312439, -43.93452072, 8.74013424, -79.88892365, 98.49946594, -6.27382231, -12.44159985, -0.65243959, 0.74810195, -0.11747679, -0.02941636, 0.00322795, 0.05936979, 0.03401705, 99.98900604, 111.80941772, 33.43999863, 0.00000000
1, 0.5600, 58, -0.09371300, -1.05903137, 0.10224539, -20.11562538, -62.66027451, -147.47955322, -43.08681488, 7.51242304, -79.65506744, 98.41799164, -5.49893570, -12.64539623, -0.65258032, 0.74817491, -0.11442919, -0.03576786, -0.00574821, 0.07457497, 0.04181864, 99.98900604, 111.80941772, 33.43999863, 0.00000000
1, 0.5650, 59, -0.08689142, -1.07547617, 0.09916367, -21.03845787, -57.58366013, -150.36129761, -43.08681488, 7.51242304, -79.65506744, 98.32674408, -4.71376896, -12.82280922, -0.65273952, 0.74820638, -0.11113584, -0.04203888, 0.00103777, 0.08955063, 0.04354547, 99.98900604, 111.80941772, 33.43999863, 0.00000000
1, 0.5700, 60, -0.09050699, -1.09433007, 0.10299373, -21.70910263, -52.68806458, -152.86497498, -43.08681488, 7.51242304, -79.65506744, 98.22781372, -3.91999197, -12.97523499, -0.65290701, 0.74820197, -0.10761429, -0.04822285, 0.01841966, 0.10707803, 0.03816091, 99.98900604, 111.80941772, 33.43999863, 0.00000000
1, 0.5750, 61, -0.09363550, -1.10954332, 0.10482890, -22.45076561, -47.69951248, -154.90988159, -42.44372940, 7.33703566, -79.62583923, 98.12148285, -3.11988425, -13.10275841, -0.65308493, 0.74815834, -0.10387672, -0.05430356, 0.03545206, 0.12113395, 0.03462093, 99.98900604, 111.80941772, 33.43999863, 0.00000000
1, 0.5800, 62, -0.09890068, -1.11444521, 0.09679144, -23.61709023, -42.98322296, -157.37646484, -42.44372940, 7.33703566, -79.62583923, 98.00639343, -2.31110024, -13.20665550, -0.65328300, 0.74806523, -0.09991620, -0.06030340, 0.05479532, 0.12506282, 0.04078989, 99.98900604, 111.80941772, 33.43999863, 0.00000000
1, 0.5850, 63, -0.10557082, -1.11635768, 0.07296305, -23.89895439, -37.87611771, -159.84501648, -41.74217987, 6.95702982, -79.18737030, 97.88621521, -1.49499202, -13.28508568, -0.65348172, 0.74794078, -0.09572907, -0.06619831, 0.07573050, 0.12620875, 0.06261308, 99.98900604, 111.80941772, 33.43999863, 0.00000000
1, 0.5900, 64, -0.11330983, -1.11698246, 0.04576191, -22.68990135, -32.54520416, -162.39732361, -41.74217987, 6.95702982, -79.18737030, 97.77175903, -0.66877276, -13.33710384, -0.65361196, 0.74784577, -0.09129929, -0.07199118, 0.09790556, 0.12628046, 0.08782387, 99.98900604, 111.80941772, 33.43999863, 0.00000000
1, 0.5950, 65, -0.13203166, -1.11594629, 0.03515284, -20.80138206, -27.39565086, -164.40173340, -41.74217987, 6.95702982, -79.18737030, 97.66584778, 0.16388509, -13.36384487, -0.65366006, 0.74778849, -0.08665790, -0.07766230, 0.13115939, 0.12489170, 0.09653204, 99.98900604, 111.80941772, 33.43999863, 0.00000000
1, 0.6000, 66, -0.12032036, -1.09905529, 0.04042989, -18.85426521, -24.00290298, -165.74774170, -40.95293808, 3.42005253, -79.33352661, 97.56941223, 1.00096154, -13.37436008, -0.65361780, 0.74776298, -0.08187753, -0.08324991, 0.13403115, 0.10785686, 0.08958964, 99.98900604, 111.80941772, 33.43999863, 0.00000000
1, 0.6300, 67, -0.09847325, -1.12954223, 0.05123516, -4.38195038, -3.68287635, -155.21238708, -38.23443222, 4.56007004, -78.51505280, 97.25241089, 5.83512783, -13.08232880, -0.65146393, 0.74839443, -0.05195031, -0.11314469, 0.19666547, 0.14227730, 0.07235716, 99.98900604, 111.80941772, 33.43999863, 0.00000000
1, 0.6350, 68, -0.09473030, -1.14516056, 0.07484753, -2.94907784, -0.98255020, -152.53735352, -37.91289139, 2.89389062, -78.83659363, 97.24431610, 6.58775282, -12.99176693, -0.65081561, 0.74861443, -0.04701337, -0.11749631, 0.20604059, 0.15921362, 0.04838180, 99.98900604, 111.80941772, 33.43999863, 0.00000000
1, 0.6400, 69, -0.10187814, -1.14667559, 0.09616301, -1.08891332, 2.00065947, -148.42390442, -37.91289139, 2.89389062, -78.83659363, 97.24951935, 7.32283354, -12.88868427, -0.65009218, 0.74887079, -0.04210692, -0.12165424, 0.22593842, 0.16220488, 0.02688032, 99.98900604, 111.80941772, 33.43999863, 0.00000000
1, 0.6450, 70, -0.12323824, -1.08591974, 0.10278224, 1.19005024, 5.68050909, -144.15892029, -37.91289139, 2.89389062, -78.83659363, 97.26960754, 8.03446770, -12.76954079, -0.64929688, 0.74917334, -0.03724535, -0.12556195, 0.25969112, 0.10309345, 0.02037727, 99.98900604, 111.80941772, 33.43999863, 0.00000000
1, 0.6500, 71, -0.08940607, -1.02636039, 0.13476992, 4.14909697, 8.85925579, -140.54548645, -37.00672150, 4.47237635, -78.42736053, 97.30805206, 8.72615719, -12.63615322, -0.64840418, 0.74954259, -0.03242604, -0.12925376, 0.23781767, 0.04527762, -0.01106914, 99.98900604, 111.80941772, 33.43999863, 0.00000000
1, 0.6550, 72, -0.04580646, -1.00905275, 0.18356584, 5.59025288, 11.17896557, -136.51261902, -37.00672150, 4.47237635, -78.42736053, 97.35688019, 9.39629745, -12.49291134, -0.64746618, 0.74993277, -0.02767958, -0.13274878, 0.20574582, 0.02980104, -0.05915251, 99.98900604, 111.80941772, 33.43999863, 0.00000000
1, 0.6600, 73, -0.01184348, -0.97945070, 0.16861051, 4.22059250, 13.67333412, -132.05418396, -36.33440399, 4.73545742, -78.16427612, 97.40230560, 10.04261208, -12.33913994, -0.64657915, 0.75026768, -0.02299933, -0.13603300, 0.18305051, 0.00220171, -0.04350789, 99.98900604, 111.80941772, 33.43999863, 0.00000000
1, 0.6650, 74, 0.00125471, -0.94132829, 0.11477216, 3.39632559, 15.60528088, -125.72330475, -36.33440399, 4.73545742, -78.16427612, 97.44654846, 10.65617466, -12.17892551, -0.64573711, 0.75056106, -0.01846603, -0.13907152, 0.18085125, -0.03381533, 0.01092793, 99.98900604, 111.80941772, 33.43999863, 0.00000000
1, 0.6700, 75, 0.00751972, -0.89542711, 0.03104102, 5.09992599, 15.58524513, -114.03804016, -36.33440399, 4.73545742, -78.16427612, 97.49971008, 11.21170139, -12.02563095, -0.64489132, 0.75087267, -0.01432530, -0.14177583, 0.18449974, -0.07763404, 0.09535821, 99.98900604, 111.80941772, 33.43999863, 0.00000000
1, 0.6750, 76, 0.00339500, -0.88106298, 0.00145195, 8.33670425, 11.70683479, -105.05812073, -35.39900589, 4.12160206, -78.13504791, 97.56563568, 11.72509766, -11.89701748, -0.64397699, 0.75122869, -0.01060729, -0.14434876, 0.19766524, -0.09002672, 0.12579305, 99.98900604, 111.80941772, 33.43999863, 0.00000000
1, 0.6950, 77, 0.02332964, -0.93141997, 0.09964827, 12.04802036, 1.25235009, -68.44459534, -34.05437088, 4.47237635, -78.74890137, 97.86573029, 13.33074188, -11.61176586, -0.64030331, 0.75271642, 0.00010861, -0.15306740, 0.20559967, -0.03301054, 0.03179457, 99.98900604, 111.80941772, 33.43999863, 0.00000000
1, 0.7000, 78, 0.02501879, -0.92269552, 0.09659593, 11.95034599, -0.45671770, -59.61589050, -33.99590683, 3.74159598, -77.37503815, 97.93389893, 13.62652111, -11.57244873, -0.63951516, 0.75303948, 0.00197323, -0.15475158, 0.20911784, -0.04034217, 0.03585772, 99.98900604, 111.80941772, 33.43999863, 0.00000000
1, 0.7050, 79, 0.02114491, -0.89972174, 0.07780710, 11.42622948, -2.29797840, -51.24058914, -33.99590683, 3.74159598, -77.37503815, 97.99618530, 13.88202190, -11.54802990, -0.63879633, 0.75333220, 0.00351487, -0.15626094, 0.21754088, -0.06204928, 0.05559646, 99.98900604, 111.80941772, 33.43999863, 0.00000000
1, 0.7100, 80, 0.01349491, -0.87534499, 0.04982509, 10.87125969, -4.52328634, -42.83898544, -34.25898743, 3.59543991, -77.43349457, 98.05181122, 14.09742928, -11.54064465, -0.63814968, 0.75359303, 0.00472219, -0.15760793, 0.22908039, -0.08530696, 0.08442613, 99.98900604, 111.80941772, 33.43999863, 0.00000000
1, 0.7150, 81, -0.01700678, -0.83926797, 0.02555192, 11.32283020, -7.58097744, -34.22467422, -34.25898743, 3.59543991, -77.43349457, 98.10452271, 14.27229691, -11.55482578, -0.63754553, 0.75384545, 0.00555813, -0.15881458, 0.26277333, -0.12043725, 0.10946266, 99.98900604, 111.80941772, 33.43999863, 0.00000000
1, 0.7200, 82, -0.04720597, -0.80632627, 0.01512653, 12.65973186, -9.75096607, -23.07671547, -34.25898743, 3.59543991, -77.43349457, 98.15932465, 14.39351177, -11.58797550, -0.63697290, 0.75412196, 0.00595805, -0.15978181, 0.29523265, -0.15266865, 0.12069464, 99.98900604, 111.80941772, 33.43999863, 0.00000000
1, 0.7250, 83, -0.08601986, -0.77433956, 0.01503750, 14.25959778, -13.06909847, -11.88936901, -34.34668350, 3.82928967, -77.63811493, 98.21598053, 14.46174908, -11.64610958, -0.63642478, 0.75442272, 0.00588676, -0.16054699, 0.33546910, -0.18415949, 0.12162258, 99.98900604, 111.80941772, 33.43999863, 0.00000000
1, 0.7300, 84, -0.10212707, -0.76401675, 0.01590249, 16.37738991, -15.53516960, -2.65122676, -34.34668350, 3.82928967, -77.63811493, 98.27847290, 14.48608971, -11.72355556, -0.63587093, 0.75476736, 0.00542831, -0.16113673, 0.35217178, -0.19418371, 0.12173127, 99.98900604, 111.80941772, 33.43999863, 0.00000000
1, 0.7350, 85, -0.10905834, -0.76465368, 0.02393123, 18.74632835, -18.14242935, 6.75561380, -34.20052719, 3.53697753, -76.67348480, 98.34188080, 14.44482899, -11.82243729, -0.63537115, 0.75513345, 0.00445171, -0.16142219, 0.35875407, -0.19348614, 0.11477880, 99.98900604, 111.80941772, 33.43999863, 0.00000000
1, 0.7400, 86, -0.11575963, -0.77159607, 0.03632957, 20.61864090, -20.82707596, 16.30714035, -34.20052719, 3.53697753, -76.67348480, 98.41567993, 14.37940216, -11.94092464, -0.63480860, 0.75556207, 0.00319281, -0.16165975, 0.36433125, -0.18667042, 0.10356393, 99.98900604, 111.80941772, 33.43999863, 0.00000000
1, 0.7850, 87, -0.06162272, -1.02669537, 0.10618170, 24.53794289, -41.81162262, 82.67169189, -35.83747482, 3.65390229, -75.65039063, 99.12854004, 12.00617313, -13.94125938, -0.63060999, 0.75959706, -0.02453507, -0.15729469, 0.27104038, 0.06109639, 0.04685786, 99.98900604, 111.80941772, 33.43999863, 0.00000000
1, 0.7900, 88, 0.09211032, -1.07427347, 0.12247049, 20.96622658, -42.85350418, 85.63671112, -35.83747482, 3.65390229, -75.65039063, 99.17611694, 11.61733150, -14.22627449, -0.63044429, 0.75978804, -0.02869442, -0.15632956, 0.11063208, 0.10740729, 0.03197188, 99.98900604, 111.80941772, 33.43999863, 0.00000000
1, 0.7950, 89, 0.17370617, -1.09293568, 0.07159476, 17.89314461, -47.10764313, 87.64250946, -35.83747482, 3.65390229, -75.65039063, 99.20571136, 11.22209358, -14.53419304, -0.63037694, 0.75984877, -0.03301615, -0.15545054, 0.02241544, 0.12488361, 0.08378603, 99.98900604, 111.80941772, 33.43999863, 0.00000000
1, 0.8000, 90, 0.28930563, -1.11687541, -0.00440354, 20.20450592, -38.93289566, 84.54808807, -36.07132339, 3.88775206, -75.35807800, 99.25722504, 10.83586788, -14.79834557, -0.63021249, 0.76001859, -0.03702492, -0.15437996, -0.09966645, 0.14777371, 0.16098605, 99.98900604, 111.80941772, 33.43999863, 0.00000000
1, 0.8050, 91, 0.50858587, -1.19615960, -0.00754710, 21.24757195, -29.70032310, 77.53411865, -36.07132339, 3.88775206, -75.35807800, 99.32518005, 10.47717285, -15.01051712, -0.62997162, 0.76027834, -0.04055335, -0.15319300, -0.32523060, 0.22606735, 0.16585930, 99.98900604, 111.80941772, 33.43999863, 0.00000000
1, 0.8100, 92, 0.70563406, -1.30829585, 0.03010025, 15.45140934, -26.29450607, 66.99816132, -37.50365448, 4.73545742, -73.92575073, 99.36985016, 10.16787910, -15.19714069, -0.62985176, 0.76041025, -0.04360001, -0.15219155, -0.52791178, 0.33728352, 0.12957072, 99.98900604, 111.80941772, 33.43999863, 0.00000000
1, 0.8150, 93, 0.89303041, -1.42156827, 0.05548619, 6.44021130, -19.11998558, 55.01561356, -37.50365448, 4.73545742, -73.92575073, 99.37813568, 9.91189480, -15.33801174, -0.62996089, 0.76035720, -0.04599248, -0.15129764, -0.71998858, 0.44974983, 0.10489009, 99.98900604, 111.80941772, 33.43999863, 0.00000000
1, 0.8200, 94, 1.04436862, -1.52528811, 0.01095761, -1.17304385, -9.15604210, 46.34161377, -38.70213318, 4.41391420, -74.36421967, 99.35858917, 9.69058990, -15.42176151, -0.63028246, 0.76017356, -0.04777300, -0.15032646, -0.87514198, 0.55283260, 0.14951420, 99.98900604, 111.80941772, 33.43999863, 0.00000000
1, 0.8250, 95, 1.07797444, -1.57884586, -0.20762438, -6.73504734, -2.60820627, 44.36019897, -38.70213318, 4.41391420, -74.36421967, 99.31726074, 9.47367954, -15.47097111, -0.63078690, 0.75988072, -0.04927129, -0.14920360, -0.91192234, 0.60602415, 0.36757636, 99.98900604, 111.80941772, 33.43999863, 0.00000000
1, 0.8300, 96, 0.87744331, -1.48786962, -0.41595083, -4.94765711, -7.29269695, 53.02389145, -38.70213318, 4.41391420, -74.36421967, 99.28031158, 9.21774483, -15.55041695, -0.63127452, 0.75958532, -0.05119690, -0.14799225, -0.71502447, 0.51459342, 0.57494593, 99.98900604, 111.80941772, 33.43999863, 0.00000000
1, 0.8350, 97, 0.68453407, -1.39619303, -0.40365839, 4.23950529, -29.11923409, 64.54980469, -38.26366425, 4.06313944, -73.95498657, 99.26480865, 8.92618370, -15.74914742, -0.63151348, 0.75933671, -0.05414226, -0.14719750, -0.52706265, 0.42206016, 0.56211150, 99.98900604, 111.80941772, 33.43999863, 0.00000000
1, 0.8400, 98, 0.27889675, -1.24535584, -0.28695339, 18.80176163, -64.88273621, 81.10819244, -38.26366425, 4.06313944, -73.95498657, 99.30059052, 8.57787228, -16.13863373, -0.63124537, 0.75924498, -0.05873714, -0.14705960, -0.12747976, 0.27021149, 0.44517803, 99.98900604, 111.80941772, 33.43999863, 0.00000000
1, 0.8450, 99, -0.09031286, -1.13264394, -0.19821626, 30.73349571, -81.10004425, 93.57411957, -39.25752640, 5.17392588, -72.72727203, 99.38539886, 8.18160725, -16.61909866, -0.63060313, 0.75932670, -0.06426620, -0.14708036, 0.23487109, 0.15657753, 0.35708016, 99.98900604, 111.80941772, 33.43999863, 0.00000000
1, 0.8500, 100, -0.39571258, -1.06448686, -0.01568633, 43.39549255, -87.79900360, 102.99777222, -39.25752640, 5.17392588, -72.72727203, 99.53134918, 7.74541998, -17.14096642, -0.62956041, 0.75966185, -0.07036991, -0.14702326, 0.53243917, 0.08746101, 0.17630999, 99.98900604, 111.80941772, 33.43999863, 0.00000000
1, 0.8550, 101, -0.61625093, -1.04190159, 0.20022592, 51.86225510, -89.31958771, 109.93428802, -39.25752640, 5.17392588, -72.72727203, 99.72195435, 7.27791977, -17.67690849, -0.62825042, 0.76016802, -0.07679592, -0.14679417, 0.74448633, 0.06399188, -0.03685665, 99.98900604, 111.80941772, 33.43999863, 0.00000000
1, 0.8600, 102, -0.74598861, -1.05316067, 0.41043031, 56.12364578, -84.51084900, 115.77825928, -40.33908081, 5.58316278, -72.55188751, 99.94057465, 6.77950573, -18.19504929, -0.62682444, 0.76076901, -0.08330707, -0.14622480, 0.86520076, 0.07448184, -0.24358682, 99.98900604, 111.80941772, 33.43999863, 0.00000000
1, 0.8650, 103, -0.76880461, -1.08609068, 0.59415740, 54.72896576, -71.33566284, 119.29979706, -40.33908081, 5.58316278, -72.55188751, 100.16374969, 6.25433922, -18.65235329, -0.62548739, 0.76137006, -0.08956157, -0.14512089, 0.87856573, 0.10675234, -0.42342103, 99.98900604, 111.80941772, 33.43999863, 0.00000000
1, 0.8700, 104, -0.69860268, -1.11512947, 0.57701010, 47.84247208, -51.69892120, 120.10089111, -40.95293808, 5.40777540, -71.67494965, 100.36660767, 5.70949221, -19.01472473, -0.62443602, 0.76187408, -0.09525920, -0.14336434, 0.79902840, 0.13547224, -0.40240443, 99.98900604, 111.80941772, 33.43999863, 0.00000000
1, 0.9100, 105, -0.66622454, -0.62774229, 0.45418897, 35.96071243, -7.36292934, 67.81926727, -43.20374298, 7.01549244, -69.95030975, 101.61549377, 2.32795811, -20.34590912, -0.61908138, 0.76495546, -0.12422256, -0.12708393, 0.70713431, -0.35181969, -0.25650325, 99.98900604, 111.80941772, 33.43999863, 0.00000000
1, 0.9150, 106, -0.62511379, -0.70083761, 0.52732372, 43.02989960, -0.91090894, 67.11191559, -43.20374298, 7.01549244, -69.95030975, 101.82873535, 2.00072265, -20.41793251, -0.61800319, 0.76574999, -0.12671936, -0.12506564, 0.66013175, -0.27834225, -0.32611817, 99.98900604, 111.80941772, 33.43999863, 0.00000000
1, 0.9200, 107, -0.59770823, -0.83858728, 0.54965448, 46.25436783, 7.96180439, 62.83072281, -44.37298965, 8.41859055, -70.12569427, 102.05994415, 1.68563557, -20.44337082, -0.61683583, 0.76669407, -0.12884945, -0.12284792, 0.62710553, -0.13999076, -0.34466565, 99.98900604, 111.80941772, 33.43999863, 0.00000000
1, 0.9250, 108, -0.56338310, -0.99375224, 0.51974028, 43.25846481, 15.96726036, 56.15439606, -44.37298965, 8.41859055, -70.12569427, 102.27745056, 1.39489365, -20.42391968, -0.61577153, 0.76762933, -0.13052332, -0.12055830, 0.58766699, 0.01589552, -0.31108958, 99.98900604, 111.80941772, 33.43999863, 0.00000000
1, 0.9300, 109, -0.53850752, -1.11432588, 0.46830919, 36.02777481, 21.09290314, 48.93754959, -44.37298965, 8.41859055, -70.12569427, 102.45932007, 1.13380516, -20.37278366, -0.61493582, 0.76843095, -0.13177915, -0.11833124, 0.55822921, 0.13715981, -0.25650582, 99.98900604, 111.80941772, 33.43999863, 0.00000000
1, 0.9350, 110, -0.51533020, -1.18810320, 0.40900213, 28.49294662, 24.95590401, 41.97489929, -44.81145859, 8.06781673, -69.68722534, 102.60610962, 0.89208722, -20.29586411, -0.61433160, 0.76908833, -0.13271493, -0.11613177, 0.53094631, 0.21154001, -0.19460949, 99.98900604, 111.80941772, 33.43999863, 0.00000000
1, 0.9400, 111, -0.46145856, -1.21950424, 0.34520885, 22.90465927, 29.94998169, 36.48661423, -44.81145859, 8.06781673, -69.68722534, 102.72254181, 0.68171263, -20.18933487, -0.61391652, 0.76964414, -0.13324751, -0.11401603, 0.47339210, 0.24346259, -0.12861474, 99.98900604, 111.80941772, 33.43999863, 0.00000000
1, 0.9450, 112, -0.39175239, -1.21471381, 0.34118614, 19.58737946, 35.60234451, 31.96657753, -45.30838776, 8.30166626, -68.92721558, 102.82232666, 0.48694804, -20.05068016, -0.61362010, 0.77016133, -0.13345984, -0.11185060, 0.40024710, 0.23903663, -0.12265530, 99.98900604, 111.80941772, 33.43999863, 0.00000000
1, 1.0150, 113, 0.02069771, -0.95526052, 0.15804791, 3.99985600, 12.85580444, 19.07414818, -46.82841110, 9.67553329, -69.24875641, 103.24526978, -1.52613294, -19.17905807, -0.61384803, 0.77153838, -0.13873614, -0.09312104, -0.04726122, -0.01808659, 0.06938619, 99.98900604, 111.80941772, 33.43999863, 0.00000000
1, 1.0200, 114, 0.04575962, -0.95636785, 0.19390510, 5.64205694, 9.48358917, 19.39348984, -47.09149170, 9.47091484, -69.30722046, 103.27304840, -1.63128698, -19.15494347, -0.61379254, 0.77161181, -0.13915619, -0.09224755, -0.07425465, -0.01688580, 0.03401860, 99.98900604, 111.80941772, 33.43999863, 0.00000000
1, 1.0250, 115, 0.06151402, -0.95490515, 0.22261505, 6.36486578, 5.80965614, 20.34828758, -47.09149170, 9.47091484, -69.30722046, 103.30498505, -1.73689222, -19.14986801, -0.61369348, 0.77168345, -0.13970971, -0.09146757, -0.09191946, -0.01821871, 0.00586787, 99.98900604, 111.80941772, 33.43999863, 0.00000000
1, 1.0300, 116, 0.06728848, -0.95484638, 0.24483027, 6.52065754, 1.95744669, 21.27099609, -47.09149170, 9.47091484, -69.30722046, 103.33831024, -1.84258592, -19.16466141, -0.61356878, 0.77173740, -0.14039804, -0.09079129, -0.09959219, -0.01812601, -0.01578553, 99.98900604, 111.80941772, 33.43999863, 0.00000000
1, 1.0350, 117, 0.06076780, -0.95335042, 0.25526899, 6.93199015, -2.32276320, 22.70603561, -47.29611206, 9.73399544, -69.10260010, 103.37911987, -1.93805814, -19.20231056, -0.61336470, 0.77181298, -0.14119138, -0.09029686, -0.09486036, -0.01943181, -0.02561313, 99.98900604, 111.80941772, 33.43999863, 0.00000000
1, 1.0400, 118, 0.03158742, -0.94887245, 0.28285041, 7.34520388, -6.83829403, 23.78492165, -47.29611206, 9.73399544, -69.10260010, 103.41825104, -2.04583168, -19.26296806, -0.61316681, 0.77183741, -0.14220318, -0.08984382, -0.06752513, -0.02373043, -0.05257988, 99.98900604, 111.80941772, 33.43999863, 0.00000000
1, 1.0450, 119, -0.00273746, -0.95364189, 0.31348523, 6.59548616, -9.46593189, 24.15245819, -47.70534897, 10.26015759, -68.98567963, 103.45425415, -2.15232921, -19.33692169, -0.61297834, 0.77182823, -0.14329477, -0.08947378, -0.03513923, -0.01879518, -0.08269282, 99.98900604, 111.80941772, 33.43999863, 0.00000000
1, 1.0500, 120, -0.03881374, -0.95689547, 0.30667546, 5.36125660, -10.34723759, 24.14716339, -47.70534897, 10.26015759, -68.98567963, 103.48437500, -2.25775433, -19.41522217, -0.61282516, 0.77178144, -0.14440481, -0.08914101, -0.00088881, -0.01533332, -0.07545587, 99.98900604, 111.80941772, 33.43999863, 0.00000000
1, 1.0550, 121, -0.08345672, -0.95940197, 0.29055378, 4.96849442, -10.24379253, 24.04947281, -47.70534897, 10.26015759, -68.98567963, 103.51264954, -2.36279154, -19.49296951, -0.61268467, 0.77172416, -0.14550716, -0.08880971, 0.04196145, -0.01261450, -0.05898743, 99.98900604, 111.80941772, 33.43999863, 0.00000000
1, 1.0600, 122, -0.11324334, -0.98014331, 0.28082561, 5.17450666, -6.87824154, 23.21571350, -47.90996552, 9.26629639, -69.19029236, 103.54135132, -2.46764302, -19.55343056, -0.61255467, 0.77168965, -0.14649190, -0.08838620, 0.06994376, 0.00833431, -0.04889709, 99.98900604, 111.80941772, 33.43999863, 0.00000000
1, 1.0750, 123, -0.15572430, -1.00160694, 0.24816297, 3.45084834, 2.87088394, 21.29679298, -48.17304993, 10.49400711, -69.04413605, 103.60552216, -2.78525496, -19.64126205, -0.61238730, 0.77157855, -0.14881295, -0.08662086, 0.10697550, 0.03036881, -0.01530203, 99.98900604, 111.80941772, 33.43999863, 0.00000000
1, 1.0800, 124, -0.15984522, -1.00570977, 0.24025904, 2.91245365, 6.11618233, 20.85522079, -48.17304993, 10.49400711, -69.04413605, 103.62006378, -2.89375782, -19.63588715, -0.61240596, 0.77154523, -0.14936125, -0.08583770, 0.10923468, 0.03463859, -0.00717238, 99.98900604, 111.80941772, 33.43999863, 0.00000000
1, 1.0850, 125, -0.15109450, -1.00446832, 0.23314747, 2.16057849, 9.39188766, 20.52224350, -48.02689362, 10.28938866, -69.27798462, 103.62866974, -3.01663327, -19.61398315, -0.61249113, 0.77148551, -0.14986950, -0.08487627, 0.09847511, 0.03355229, 0.00011514, 99.98900604, 111.80941772, 33.43999863, 0.00000000
1, 1.0900, 126, -0.13041966, -1.00301194, 0.22982785, 1.38141119, 12.00340748, 20.27893829, -48.02689362, 10.28938866, -69.27798462, 103.63397980, -3.12924361, -19.57931137, -0.61259633, 0.77143550, -0.15023491, -0.08392034, 0.07574724, 0.03223107, 0.00355976, 99.98900604, 111.80941772, 33.43999863, 0.00000000
1, 1.0950, 127, -0.10972154, -0.99755096, 0.22926028, 0.58416355, 13.18494511, 20.10693359, -47.88073730, 10.23092651, -69.30722046, 103.63489532, -3.24240875, -19.53869629, -0.61273474, 0.77136874, -0.15055986, -0.08293441, 0.05307896, 0.02688490, 0.00419563, 99.98900604, 111.80941772, 33.43999863, 0.00000000
1, 1.1000, 128, -0.08987081, -0.99119139, 0.23132537, 0.25603786, 13.84429455, 20.09177780, -47.88073730, 10.23092651, -69.30722046, 103.63391113, -3.35627770, -19.49484444, -0.61288780, 0.77129489, -0.15086530, -0.08192873, 0.03124364, 0.02062895, 0.00215112, 99.98900604, 111.80941772, 33.43999863, 0.00000000
1, 1.1050, 129, -0.07022773, -0.98691297, 0.22405580, 0.05229440, 13.10473824, 20.35716057, -48.28997421, 10.23092651, -69.10260010, 103.63203430, -3.47057366, -19.45489693, -0.61304325, 0.77121031, -0.15119860, -0.08094204, 0.00962896, 0.01647017, 0.00942186, 99.98900604, 111.80941772, 33.43999863, 0.00000000
1, 1.1100, 130, -0.05892799, -0.97467899, 0.22085899, -0.28333741, 11.49452496, 20.56841850, -48.28997421, 10.28938866, -69.10260010, 103.62892151, -3.58401370, -19.42303848, -0.61319935, 0.77110893, -0.15158089, -0.08000592, -0.00364281, 0.00434730, 0.01258897, 99.98900604, 111.80941772, 33.43999863, 0.00000000
1, 1.1150, 131, -0.05939382, -0.97193062, 0.22012526, -0.11931033, 9.74867916, 20.80513191, -48.28997421, 10.28938866, -69.10260010, 103.62712097, -3.69656062, -19.39994621, -0.61333859, 0.77100331, -0.15201832, -0.07912095, -0.00514415, 0.00171099, 0.01325640, 99.98900604, 111.80941772, 33.43999863, 0.00000000
1, 1.1200, 132, -0.06482943, -0.97082925, 0.21749216, 0.02077292, 7.02870131, 20.98388290, -48.64074707, 10.28938866, -69.77491760, 103.62686157, -3.80678558, -19.39030647, -0.61345506, 0.77089024, -0.15253496, -0.07832155, -0.00162975, 0.00073409, 0.01584074, 99.98900604, 111.80941772, 33.43999863, 0.00000000
1, 1.1550, 133, -0.01867154, -0.98357713, 0.19734500, -1.13677478, -6.10928202, 20.82567787, -48.81613541, 9.50014591, -69.01490784, 103.61286163, -4.52589941, -19.54946899, -0.61413759, 0.76976776, -0.15738681, -0.07431111, -0.06032983, 0.01434473, 0.03563418, 99.98900604, 111.80941772, 33.43999863, 0.00000000
1, 1.1600, 134, -0.01492627, -0.99263108, 0.19393381, -1.21572435, -8.43992233, 20.66597366, -48.81613541, 9.50014591, -69.01490784, 103.61225891, -4.61651564, -19.61486626, -0.61418575, 0.76956689, -0.15830292, -0.07404721, -0.06565452, 0.02352417, 0.03899864, 99.98900604, 111.80941772, 33.43999863, 0.00000000
1, 1.1650, 135, -0.02076047, -0.98966920, 0.18963797, -1.37647605, -9.86783409, 20.59893227, -48.81613541, 9.50014591, -69.01490784, 103.61149597, -4.70513678, -19.68714714, -0.61422867, 0.76935685, -0.15925437, -0.07383397, -0.06135648, 0.02068837, 0.04324268, 99.98900604, 111.80941772, 33.43999863, 0.00000000
1, 1.1700, 136, -0.02693996, -0.99280608, 0.19585310, -1.15095365, -10.81244373, 20.85396576, -49.34229660, 11.37094402, -68.95644379, 103.61240387, -4.79390430, -19.76435852, -0.61425757, 0.76914716, -0.16024041, -0.07364389, -0.05673731, 0.02393985, 0.03697963, 99.98900604, 111.80941772, 33.43999863, 0.00000000
1, 1.1750, 137, -0.03486474, -0.99533784, 0.20633818, -1.16358531, -12.56904984, 21.47824860, -49.34229660, 11.37094402, -68.95644379, 103.61413574, -4.88364172, -19.85087013, -0.61427599, 0.76892632, -0.16129422, -0.07349592, -0.05039116, 0.02658991, 0.02647521, 99.98900604, 111.80941772, 33.43999863, 0.00000000
1, 1.1800, 138, -0.04030442, -0.99586904, 0.22056021, -1.97807062, -12.76121998, 21.93971443, -48.61151505, 11.54633141, -69.57029724, 103.61207581, -4.97541618, -19.93889046, -0.61432111, 0.76867878, -0.16236606, -0.07334762, -0.04657616, 0.02722675, 0.01219080, 99.98900604, 111.80941772, 33.43999863, 0.00000000
1, 1.1850, 139, -0.03734809, -0.99324882, 0.23384503, -3.19683433, -11.93991375, 22.11501503, -48.61151505, 11.54633141, -69.57029724, 103.60333252, -5.06226683, -20.02314949, -0.61440885, 0.76840526, -0.16338216, -0.07322217, -0.05112554, 0.02468843, -0.00123338, 99.98900604, 111.80941772, 33.43999863, 0.00000000
1, 1.1900, 140, -0.03249562, -0.98250091, 0.23635021, -3.77201390, -11.42368126, 22.16969299, -48.61151505, 11.54633141, -69.57029724, 103.59204102, -5.15676022, -20.10491371, -0.61452281, 0.76811057, -0.16441976, -0.07303533, -0.05756611, 0.01402851, -0.00392710, 99.98900604, 111.80941772, 33.43999863, 0.00000000
1, 1.1950, 141, -0.02771011, -0.97542596, 0.23987631, -3.45822763, -10.83575344, 22.46012878, -49.57614517, 10.96170712, -69.21952820, 103.58221436, -5.25336552, -20.18413544, -0.61463064, 0.76782310, -0.16545202, -0.07281864, -0.06402604, 0.00705225, -0.00764076, 99.98900604, 111.80941772, 33.43999863, 0.00000000
1, 1.2000, 142, -0.02716015, -0.96938026, 0.24388199, -3.39337683, -10.18709660, 23.03560066, -49.57614517, 10.96170712, -69.21952820, 103.57261658, -5.35353422, -20.26086426, -0.61474204, 0.76753438, -0.16648611, -0.07256427, -0.06631267, 0.00111619, -0.01183327, 99.98900604, 111.80941772, 33.43999863, 0.00000000
1, 1.2300, 143, -0.05101722, -0.97092354, 0.23214532, -4.49277735, -6.66405773, 26.81404877, -49.92692184, 8.97398376, -68.92721558, 103.49565125, -6.02565002, -20.70816803, -0.61561859, 0.76558912, -0.17295723, -0.07051936, -0.05400150, 0.00348726, -0.00170258, 99.98900604, 111.80941772, 33.43999863, 0.00000000
1, 1.2350, 144, -0.06589452, -0.96612954, 0.23344348, -4.20680046, -6.54731131, 27.86475563, -49.92692184, 8.97398376, -68.92721558, 103.48189545, -6.14844513, -20.77273560, -0.61578745, 0.76525420, -0.17402375, -0.07005420, -0.04127654, -0.00114469, -0.00332314, 99.98900604, 111.80941772, 33.43999863, 0.00000000
1, 1.2400, 145, -0.06785250, -0.96685457, 0.20786145, -4.36568499, -4.93675137, 28.92167854, -49.92692184, 8.97398376, -68.92721558, 103.46670532, -6.28346634, -20.83056068, -0.61598152, 0.76490355, -0.17510816, -0.06947239, -0.04152408, -0.00019797, 0.02194782, 99.98900604, 111.80941772, 33.43999863, 0.00000000
1, 1.2450, 146, -0.05267181, -0.96905518, 0.18049277, -3.63968682, -2.97018576, 29.97582436, -50.01461411, 11.45863724, -68.54721069, 103.45434570, -6.42590189, -20.87997246, -0.61616868, 0.76456904, -0.17617665, -0.06879099, -0.05907320, 0.00225532, 0.04905965, 99.98900604, 111.80941772, 33.43999863, 0.00000000
1, 1.2500, 147, -0.04144945, -0.97087526, 0.19499882, -2.88657665, -3.23388743, 31.08162117, -50.01461411, 11.45863724, -68.54721069, 103.44616699, -6.57340574, -20.93194580, -0.61633074, 0.76424420, -0.17729093, -0.06808273, -0.07287318, 0.00429495, 0.03435809, 99.98900604, 111.80941772, 33.43999863, 0.00000000
1, 1.2550, 148, -0.03999895, -0.96609867, 0.19417742, -2.30740809, -3.84475851, 32.07620239, -50.19000244, 11.80941200, -69.57029724, 103.44152832, -6.72504520, -20.98806572, -0.61647040, 0.76392406, -0.17845617, -0.06736340, -0.07693015, -0.00020887, 0.03502595, 99.98900604, 111.80941772, 33.43999863, 0.00000000
1, 1.2600, 149, -0.03280356, -0.96979821, 0.17974435, -1.64960647, -2.15396070, 32.98443604, -50.19000244, 11.80941200, -69.57029724, 103.43948364, -6.88304377, -21.03696442, -0.61660260, 0.76361793, -0.17960754, -0.06655812, -0.08679617, 0.00381697, 0.04935550, 99.98900604, 111.80941772, 33.43999863, 0.00000000
1, 1.2650, 150, -0.02389406, -0.97522223, 0.17432263, -1.55295599, -1.06581843, 34.13080597, -50.19000244, 11.80941200, -69.57029724, 103.43758392, -7.04787779, -21.08187294, -0.61674207, 0.76330715, -0.18076763, -0.06568480, -0.09852162, 0.00957610, 0.05467729, 99.98900604, 111.80941772, 33.43999863, 0.00000000
1, 1.2700, 151, -0.02286413, -0.96901190, 0.16697043, -1.18716133, -1.61564505, 35.40998077, -50.54077530, 11.92633724, -69.07337189, 103.43817902, -7.21830177, -21.13097572, -0.61686724, 0.76299292, -0.18198574, -0.06479219, -0.10246243, 0.00373134, 0.06195366, 99.98900604, 111.80941772, 33.43999863, 0.00000000
1, 1.2750, 152, -0.01007037, -0.96239114, 0.16772756, -0.44252458, -1.05644608, 37.06128693, -50.54077530, 11.92633724, -69.07337189, 103.44255066, -7.39739466, -21.17928314, -0.61697507, 0.76268518, -0.18324523, -0.06383040, -0.11831459, -0.00249769, 0.06120696, 99.98900604, 111.80941772, 33.43999863, 0.00000000
1, 1.3350, 153, 0.35012674, -0.94716239, 0.08513774, 12.25285244, -2.54292917, 68.93698883, -52.49926758, 13.62174797, -68.57643890, 103.88726807, -10.44077206, -21.83936691, -0.61633629, 0.75931573, -0.20361356, -0.04594262, -0.53039396, -0.00794664, 0.15000927, 99.98900604, 111.80941772, 33.43999863, 0.00000000
1, 1.3400, 154, 0.34748453, -0.94572234, 0.07247902, 15.32464981, -4.88829327, 76.37820435, -52.49926758, 13.62174797, -68.57643890, 103.98640442, -10.80554008, -21.95642662, -0.61592948, 0.75904065, -0.20630106, -0.04390911, -0.53356206, -0.00794210, 0.16388655, 99.98900604, 111.80941772, 33.43999863, 0.00000000
1, 1.3450, 155, 0.36066577, -0.95145214, 0.05914017, 17.17796326, -7.13871956, 80.85775757, -52.99620056, 14.58637810, -68.51797485, 104.09897614, -11.18909264, -22.09093094, -0.61544162, 0.75876188, -0.20919816, -0.04181214, -0.55320120, -0.00052424, 0.17876139, 99.98900604, 111.80941772, 33.43999863, 0.00000000
1, 1.3500, 156, 0.37111628, -0.95018947, 0.05190192, 18.65652657, -10.75100803, 85.34467316, -52.99620056, 14.58637810, -68.51797485, 104.22470093, -11.58973312, -22.24987030, -0.61487126, 0.75846481, -0.21234056, -0.03969985, -0.57041979, 0.00005074, 0.18772899, 99.98900604, 111.80941772, 33.43999863, 0.00000000
1, 1.3550, 157, 0.33256343, -0.93521202, 0.06872711, 20.49458122, -14.73718834, 89.57273102, -54.10698700, 14.20637226, -68.05027771, 104.36614990, -12.00558281, -22.43502808, -0.61420041, 0.75815946, -0.21572958, -0.03758805, -0.53895366, -0.01296296, 0.17274734, 99.98900604, 111.80941772, 33.43999863, 0.00000000
1, 1.3600, 158, 0.24311143, -0.91456759, 0.07787461, 23.07861900, -18.77298927, 93.22927856, -54.10698700, 14.20637226, -68.05027771, 104.52741241, -12.43363667, -22.64622307, -0.61340129, 0.75786954, -0.21934807, -0.03548642, -0.45678085, -0.03145131, 0.16560254, 99.98900604, 111.80941772, 33.43999863, 0.00000000
1, 1.3650, 159, 0.13288610, -0.90300286, 0.07658397, 26.29095078, -21.85908318, 96.72520447, -54.10698700, 14.20637226, -68.05027771, 104.71105957, -12.87407017, -22.87887955, -0.61245966, 0.75761300, -0.22316517, -0.03336165, -0.35399991, -0.04064722, 0.16915496, 99.98900604, 111.80941772, 33.43999863, 0.00000000
1, 1.3700, 160, 0.02034105, -0.91191375, 0.07890474, 29.13614273, -24.00683594, 100.17807007, -54.77930450, 14.99561501, -67.58258057, 104.91458893, -13.32767582, -23.12864304, -0.61139524, 0.75738019, -0.22715314, -0.03118710, -0.24911918, -0.02916977, 0.16936053, 99.98900604, 111.80941772, 33.43999863, 0.00000000
1, 1.3750, 161, -0.08524603, -0.93116081, 0.08433893, 31.20352936, -23.64833069, 103.42014313, -54.77930450, 14.99561501, -67.58258057, 105.13155365, -13.79648685, -23.38310432, -0.61025649, 0.75715393, -0.23123604, -0.02889293, -0.15143645, -0.00717016, 0.16665675, 99.98900604, 111.80941772, 33.43999863, 0.00000000
1, 1.3800, 162, -0.18066718, -0.95225561, 0.10002985, 32.10882568, -21.37713432, 106.37209320, -55.36392975, 15.90178299, -66.67640686, 105.35392761, -14.28155231, -23.63261795, -0.60909986, 0.75690717, -0.23535143, -0.02643526, -0.06420436, 0.01683162, 0.15378788, 99.98900604, 111.80941772, 33.43999863, 0.00000000
1, 1.4550, 163, -0.17196929, -0.80253422, 0.30209205, 53.02072144, 28.53624535, 131.51664734, -58.98859787, 22.12803268, -64.95176697, 109.42309570, -23.02544785, -26.16880989, -0.58825505, 0.75296354, -0.29337645, 0.03053231, -0.21724178, -0.06738633, 0.00144172, 99.98900604, 111.80941772, 33.43999863, 0.00000000
1, 1.4600, 164, -0.22046746, -0.77092183, 0.31788227, 52.26795578, 25.96426582, 131.00924683, -58.98859787, 22.12803268, -64.95176697, 109.72748566, -23.68565369, -26.27321625, -0.58667630, 0.75258929, -0.29692715, 0.03542319, -0.17941329, -0.09310535, -0.01134335, 99.98900604, 111.80941772, 33.43999863, 0.00000000
1, 1.4650, 165, -0.34622440, -0.71962285, 0.30570567, 51.33937073, 23.28044128, 130.74678040, -59.89476776, 24.58345413, -64.07482910, 110.03549957, -24.33958626, -26.39534569, -0.58507103, 0.75216913, -0.30052802, 0.04020600, -0.06408258, -0.13837667, 0.00364414, 99.98900604, 111.80941772, 33.43999863, 0.00000000
1, 1.4700, 166, -0.49544513, -0.67295659, 0.33312121, 53.01533127, 23.10209846, 131.52740479, -59.89476776, 24.58345413, -64.07482910, 110.35609436, -24.99624443, -26.52444267, -0.58338416, 0.75175267, -0.30414429, 0.04502332, 0.07466221, -0.17890060, -0.02096661, 99.98900604, 111.80941772, 33.43999863, 0.00000000
1, 1.4750, 167, -0.60939068, -0.66214132, 0.40229356, 55.00976563, 26.18143654, 133.11770630, -59.89476776, 24.58345413, -64.07482910, 110.68456268, -25.66502953, -26.64544868, -0.58164632, 0.75132990, -0.30771789, 0.05000662, 0.17792824, -0.18339869, -0.08728537, 99.98900604, 111.80941772, 33.43999863, 0.00000000
1, 1.4800, 168, -0.66520774, -0.69521701, 0.43280321, 54.80053711, 32.12725067, 134.94459534, -60.77170181, 24.40806770, -64.42560577, 111.00344086, -26.35226631, -26.74403000, -0.57996702, 0.75083321, -0.31118783, 0.05522618, 0.22294839, -0.14372304, -0.11509208, 99.98900604, 111.80941772, 33.43999863, 0.00000000
1, 1.4850, 169, -0.66260672, -0.73041022, 0.37007582, 54.10030746, 40.43762207, 136.76399231, -60.77170181, 24.40806770, -64.42560577, 111.30561066, -27.06685638, -26.80822182, -0.57838714, 0.75023520, -0.31451684, 0.06078413, 0.20947552, -0.10157084, -0.04993859, 99.98900604, 111.80941772, 33.43999863, 0.00000000
1, 1.4900, 170, -0.59831095, -0.75343025, 0.31103089, 55.60055161, 52.04497910, 138.42366028, -60.85939789, 27.97427559, -64.77638245, 111.59017181, -27.80557442, -26.81879616, -0.57689321, 0.74959385, -0.31756568, 0.06674923, 0.13394439, -0.07135948, 0.01126900, 99.98900604, 111.80941772, 33.43999863, 0.00000000
1, 1.4950, 171, -0.47698927, -0.79191458, 0.33155513, 59.08172226, 64.38375854, 139.33943176, -60.85939789, 27.97427559, -64.77638245, 111.86439514, -28.57120323, -26.77039146, -0.57542521, 0.74895471, -0.32030725, 0.07318519, 0.00087167, -0.02555321, -0.00735011, 99.98900604, 111.80941772, 33.43999863, 0.00000000
1, 1.5000, 172, -0.28598222, -0.88819230, 0.36929345, 61.93740845, 75.18380737, 138.82440186, -60.85939789, 27.97427559, -64.77638245, 112.12587738, -29.35474968, -26.66734505, -0.57398582, 0.74832064, -0.32273388, 0.07999653, -0.20215711, 0.07825045, -0.04346000, 99.98900604, 111.80941772, 33.43999863, 0.00000000
1, 1.6100, 173, -0.81798857, -0.67174840, 0.63472015, 12.69079113, 89.44445801, 116.06088257, -68.60566711, 44.98684692, -70.68108368, 114.56853485, -50.36280060, -20.61185837, -0.54526246, 0.70797825, -0.36247084, 0.26470837, 0.04823178, 0.08860569, -0.37128514, 99.98900604, 111.80941772, 33.43999863, 0.00000000
1, 1.6150, 174, -0.76545763, -0.50821745, 0.65121013, 4.85936451, 78.76351929, 92.24575806, -69.30722046, 46.44840622, -71.29494476, 114.38869476, -50.94543839, -20.34646606, -0.54528207, 0.70572102, -0.36337507, 0.26941404, -0.01124776, -0.06809184, -0.39252532, 99.98900604, 111.80941772, 33.43999863, 0.00000000
1, 1.6200, 175, -0.71265912, -0.46778160, 0.67321944, -1.09562564, 63.60211182, 71.48970795, -69.30722046, 46.44840622, -71.29494476, 114.20584106, -51.40187073, -20.11763763, -0.54547644, 0.70381218, -0.36406517, 0.27305773, -0.06951593, -0.10333425, -0.41903108, 99.98900604, 111.80941772, 33.43999863, 0.00000000
1, 1.6250, 176, -0.66944557, -0.40245742, 0.55239218, -19.30260086, 39.85313416, 45.63741684, -69.30722046, 46.44840622, -71.29494476, 113.99776459, -51.69160843, -19.97444725, -0.54615420, 0.70215237, -0.36474335, 0.27506369, -0.11590672, -0.16532193, -0.30166179, 99.98900604, 111.80941772, 33.43999863, 0.00000000
1, 1.6300, 177, -0.88849920, -0.18533812, 0.19032486, -44.39223480, 28.72285843, 30.05823517, -69.83338165, 47.20841980, -71.85033417, 113.68640137, -51.88752747, -19.86018753, -0.54760629, 0.70026910, -0.36551142, 0.27595669, 0.10169709, -0.38037634, 0.05618408, 99.98900604, 111.80941772, 33.43999863, 0.00000000
1, 1.6350, 178, -1.03965569, 0.22828270, 0.10327808, -48.95804214, 29.76704788, 16.75131226, -69.83338165, 47.20841980, -71.85033417, 113.33343506, -52.06589508, -19.71081352, -0.54923272, 0.69836295, -0.36610869, 0.27676180, 0.25124377, -0.79323488, 0.13912095, 99.98900604, 111.80941772, 33.43999863, 0.00000000
1, 1.6400, 179, -0.81479657, 0.39557099, 0.41772026, -31.41765976, 38.35829544, 4.60474873, -69.77491760, 47.96842957, -72.14264679, 112.96136475, -52.16253662, -19.43838692, -0.55074567, 0.69707143, -0.36570859, 0.27753913, 0.02422650, -0.96094763, -0.17875791, 99.98900604, 111.80941772, 33.43999863, 0.00000000
1, 1.6450, 180, -0.60905063, 0.53098071, 0.44754505, -45.03563309, 26.25464630, -8.37454605, -69.77491760, 47.96842957, -72.14264679, 112.55963135, -52.17504501, -19.21498299, -0.55263382, 0.69580144, -0.36537042, 0.27741802, -0.18199036, -1.09757066, -0.21193083, 99.98900604, 111.80941772, 33.43999863, 0.00000000
1, 1.6500, 181, -0.58325124, 0.85203278, 0.26441103, -58.34365845, 17.03561783, -25.35508156, -69.77491760, 47.96842957, -72.14264679, 112.10484314, -52.09057236, -19.00883102, -0.55498123, 0.69458687, -0.36489984, 0.27639294, -0.20666373, -1.42090225, -0.03219847, 99.98900604, 111.80941772, 33.43999863, 0.00000000
1, 1.6550, 182, -0.51172274, 0.99975896, 0.10241761, -63.50148773, 29.93547630, -46.71430969, -69.68722534, 48.23151016, -73.98421478, 111.49849701, -51.92964554, -18.64308548, -0.55794293, 0.69342375, -0.36352926, 0.27515423, -0.27627531, -1.57242441, 0.12532191, 99.98900604, 111.80941772, 33.43999863, 0.00000000
1, 1.7700, 183, -0.77399993, -0.44663841, -0.01356344, -35.35196304, -0.44836625, -268.48538208, -69.21952820, 35.89593506, -74.07190704, 104.80235291, -27.28177452, -14.39515495, -0.61165810, 0.74585807, -0.23922475, 0.11109303, 0.31064212, -0.40971866, 0.23862207, 99.98900604, 111.80941772, 33.43999863, 0.00000000
1, 1.7750, 184, -0.72622389, -0.44403261, -0.01239371, -27.72023773, 3.51051116, -269.60989380, -68.48874664, 33.70359421, -74.33499146, 104.48213959, -25.98168564, -13.99750710, -0.61387765, 0.74784690, -0.23049217, 0.10369484, 0.28307849, -0.42358118, 0.23519818, 99.98900604, 111.80941772, 33.43999863, 0.00000000
1, 1.7800, 185, -0.62082869, -0.49059722, 0.00850900, -20.34412575, 5.09651566, -270.64739990, -68.48874664, 33.70359421, -74.33499146, 104.20773315, -24.67661858, -13.60175991, -0.61579138, 0.74993193, -0.22161700, 0.09637973, 0.19813983, -0.38770920, 0.21258348, 99.98900604, 111.80941772, 33.43999863, 0.00000000
1, 1.7850, 186, -0.49143073, -0.53715038, 0.00977252, -15.49451351, 3.74495244, -272.10839844, -68.48874664, 33.70359421, -74.33499146, 103.96922302, -23.36673355, -13.22046852, -0.61746961, 0.75203675, -0.21270053, 0.08905324, 0.08957493, -0.35125238, 0.21009733, 99.98900604, 111.80941772, 33.43999863, 0.00000000
1, 1.7900, 187, -0.28650254, -0.61627901, 0.00400653, -14.36332035, -16.30452347, -272.28518677, -68.22566223, 32.00818253, -74.65653229, 103.79136658, -22.02529716, -12.95468807, -0.61882216, 0.75416905, -0.20426299, 0.08102353, -0.09395212, -0.28169280, 0.21538156, 99.98900604, 111.80941772, 33.43999863, 0.00000000
1, 1.7950, 188, -0.16189215, -0.69700670, -0.00845133, -14.58183670, -32.88527679, -269.41778564, -68.22566223, 32.00818253, -74.65653229, 103.65338135, -20.67760086, -12.78551579, -0.61993647, 0.75622171, -0.19634016, 0.07251325, -0.19668645, -0.20995209, 0.22776073, 99.98900604, 111.80941772, 33.43999863, 0.00000000
1, 1.8000, 189, -0.11409082, -0.76793611, -0.02489636, -15.48917770, -50.72092438, -263.83740234, -67.78719330, 29.46506882, -73.95498657, 103.55011749, -19.33588409, -12.72005653, -0.62082350, 0.75815308, -0.18906003, 0.06354884, -0.22246002, -0.14734912, 0.24435183, 99.98900604, 111.80941772, 33.43999863, 0.00000000
1, 1.8050, 190, -0.12690109, -0.82749832, -0.04529015, -15.57824993, -68.30001068, -257.03457642, -67.78719330, 29.46506882, -73.95498657, 103.48034668, -18.00676155, -12.75585938, -0.62146437, 0.75997132, -0.18245630, 0.05417898, -0.18760905, -0.09541935, 0.26513499, 99.98900604, 111.80941772, 33.43999863, 0.00000000
1, 1.8100, 191, -0.18790871, -0.88049269, -0.04474124, -15.14737797, -84.66522217, -249.82380676, -67.78719330, 29.46506882, -73.95498657, 103.43984985, -16.69382286, -12.88486195, -0.62185961, 0.76168114, -0.17651038, 0.04445946, -0.10469878, -0.04939969, 0.26520801, 99.98900604, 111.80941772, 33.43999863, 0.00000000
1, 1.8150, 192, -0.32529047, -0.95871437, 0.02140881, -15.55989075, -98.91519165, -242.51683044, -66.53025055, 26.77579689, -73.80883026, 103.41693878, -15.40007401, -13.09464264, -0.62206185, 0.76325107, -0.17117181, 0.03445682, 0.05426161, 0.02239952, 0.19965237, 99.98900604, 111.80941772, 33.43999863, 0.00000000
1, 1.9200, 193, -0.73841536, -0.98159444, 0.33892715, -11.30260181, 67.18787384, -135.24298096, -57.70242691, 15.72639561, -72.37649536, 100.09207916, 5.38818741, -13.32804203, -0.63294715, 0.76404274, -0.05887836, -0.11022736, 0.82888007, 0.00063737, -0.16781184, 99.98900604, 111.80941772, 33.43999863, 0.00000000
1, 1.9250, 194, -0.68838203, -0.93189240, 0.30214450, -10.32507420, 87.48735046, -130.17973328, -57.11780167, 14.79099655, -73.10727692, 100.09290314, 5.95313931, -12.78159809, -0.63288426, 0.76448554, -0.05207180, -0.11094117, 0.78892899, -0.04806653, -0.13106833, 99.98900604, 111.80941772, 33.43999863, 0.00000000
1, 1.9300, 195, -0.60553426, -0.89015472, 0.25987175, -7.85473537, 104.56447601, -126.75461578, -57.11780167, 14.79099655, -73.10727692, 100.12023926, 6.48628044, -12.15287971, -0.63276285, 0.76503408, -0.04491607, -0.11098048, 0.71556783, -0.08868870, -0.08834842, 99.98900604, 111.80941772, 33.43999863, 0.00000000
1, 1.9350, 196, -0.47141352, -0.87268496, 0.24762620, -4.53347492, 118.99425507, -123.01782990, -57.11780167, 14.79099655, -73.10727692, 100.18013000, 6.97551918, -11.45446491, -0.63254118, 0.76570624, -0.03756851, -0.11033767, 0.59020853, -0.10498655, -0.07504225, 99.98900604, 111.80941772, 33.43999863, 0.00000000
1, 1.9400, 197, -0.33136469, -0.86101353, 0.23889105, -2.29535675, 129.20013428, -117.82566071, -57.11780167, 14.14791012, -73.19496918, 100.26078033, 7.44187212, -10.70906639, -0.63225210, 0.76642728, -0.03005106, -0.10928625, 0.45830888, -0.11541416, -0.06481701, 99.98900604, 111.80941772, 33.43999863, 0.00000000
1, 1.9450, 198, -0.20536771, -0.85445535, 0.21461070, -0.68225378, 135.47137451, -111.45742035, -57.11780167, 14.14791012, -73.19496918, 100.35890961, 7.87019157, -9.93673897, -0.63191032, 0.76717013, -0.02257885, -0.10784101, 0.33994925, -0.12065442, -0.03878981, 99.98900604, 111.80941772, 33.43999863, 0.00000000
1, 1.9500, 199, -0.03344796, -0.84025788, 0.17641932, 0.72893780, 138.43893433, -102.46633911, -56.94241333, 11.07863140, -74.62730408, 100.47077942, 8.25023746, -9.15625000, -0.63152915, 0.76791364, -0.01533054, -0.10604058, 0.17494547, -0.13351330, 0.00152449, 99.98900604, 111.80941772, 33.43999863, 0.00000000
1, 1.9550, 200, 0.04313989, -0.82602453, 0.15482299, 2.15762854, 136.79750061, -94.46165466, -56.94241333, 11.07863140, -74.62730408, 100.59268188, 8.59086323, -8.38976097, -0.63110113, 0.76864219, -0.00840107, -0.10406759, 0.10446212, -0.14646453, 0.02519715, 99.98900604, 111.80941772, 33.43999863, 0.00000000
1, 1.9600, 201, 0.15432096, -0.79840660, 0.10579885, 4.82534504, 130.36492920, -83.74770355, -56.94241333, 11.07863140, -74.62730408, 100.72605133, 8.88305283, -7.66377974, -0.63059825, 0.76937395, -0.00201952, -0.10200835, -0.00138619, -0.17280595, 0.07661539, 99.98900604, 111.80941772, 33.43999863, 0.00000000
1, 1.9650, 202, 0.22140591, -0.77679861, 0.06457663, 7.29453421, 122.36429596, -74.54080200, -56.41625214, 12.59865570, -74.77346039, 100.86789703, 9.13574791, -6.98500204, -0.63002515, 0.77010512, 0.00382201, -0.09995916, -0.06384359, -0.19319618, 0.12027777, 99.98900604, 111.80941772, 33.43999863, 0.00000000
1, 2.0800, 203, -0.19109394, -0.71694911, 0.06523891, 18.55031776, -51.39190292, 101.02712250, -57.05933762, 16.25255775, -73.51651764, 102.36932373, 6.03232002, -9.29377937, -0.62056535, 0.77820498, -0.03016375, -0.09157392, 0.29794616, -0.25438797, 0.14584868, 99.98900604, 111.80941772, 33.43999863, 0.00000000
1, 2.0850, 204, -0.26175076, -0.71907508, 0.04714519, 20.27897453, -46.54393005, 104.31040955, -57.84858322, 16.98333740, -72.99035645, 102.43329620, 5.55925846, -9.63431263, -0.62025619, 0.77840328, -0.03511543, -0.09020793, 0.36063945, -0.25280920, 0.16500074, 99.98900604, 111.80941772, 33.43999863, 0.00000000
1, 2.0900, 205, -0.34140179, -0.72701955, 0.01469057, 22.18530273, -38.98623657, 106.49931335, -57.84858322, 16.98333740, -72.99035645, 102.51717377, 5.08120203, -9.94013882, -0.61984575, 0.77868497, -0.03987119, -0.08860801, 0.43202379, -0.24529627, 0.19873706, 99.98900604, 111.80941772, 33.43999863, 0.00000000
1, 2.0950, 206, -0.56391710, -0.73024404, -0.10279088, 23.50901031, -30.56985474, 107.52431488, -57.84858322, 16.98333740, -72.99035645, 102.61360168, 4.58956194, -10.20636368, -0.61939311, 0.77901375, -0.04443759, -0.08669039, 0.64633334, -0.24224582, 0.31740522, 99.98900604, 111.80941772, 33.43999863, 0.00000000
1, 2.1000, 207, -0.80873185, -0.67093658, -0.24653925, 25.07107162, -21.40608597, 107.96823120, -58.17012405, 17.83104324, -72.81496429, 102.72342682, 4.08626318, -10.42891693, -0.61889160, 0.77939928, -0.04877562, -0.08444448, 0.88281167, -0.30157632, 0.46258768, 99.98900604, 111.80941772, 33.43999863, 0.00000000
1, 2.1050, 208, -0.83790439, -0.54176331, -0.09742603, 34.74758530, -23.20416641, 113.83116150, -58.17012405, 17.83104324, -72.81496429, 102.88270569, 3.55699587, -10.66770172, -0.61806172, 0.78000766, -0.05339479, -0.08207866, 0.90252090, -0.43105331, 0.31619340, 99.98900604, 111.80941772, 33.43999863, 0.00000000
1, 2.1100, 209, -0.67709380, -0.36202264, 0.42322126, 53.93215179, -30.40171432, 126.06923676, -58.37474442, 18.53259277, -72.11341858, 103.13745880, 2.97721553, -10.95703030, -0.61658466, 0.78105432, -0.05868986, -0.07958048, 0.73058230, -0.61132729, -0.19975796, 99.98900604, 111.80941772, 33.43999863, 0.00000000
1, 2.1150, 210, -0.24941735, -0.38031924, 0.97776228, 82.09208679, -45.99985886, 144.72282410, -58.37474442, 18.53259277, -72.11341858, 103.53173828, 2.32649612, -11.34674549, -0.61414188, 0.78272152, -0.06513287, -0.07703602, 0.29047912, -0.59303802, -0.74707407, 99.98900604, 111.80941772, 33.43999863, 0.00000000
1, 2.1200, 211, 0.48507425, -1.12883365, 0.83313298, 104.18806458, -45.17024231, 151.50683594, -58.37474442, 18.53259277, -72.11341858, 104.04074097, 1.64521146, -11.74541092, -0.61093080, 0.78491569, -0.07185378, -0.07421547, -0.45547044, 0.15729906, -0.59344482, 99.98900604, 111.80941772, 33.43999863, 0.00000000
1, 2.1250, 212, 1.28605771, -2.13316822, 0.54714704, 96.79397583, 45.26935959, 175.97970581, -58.78398132, 20.46185303, -71.32417297, 104.52678680, 0.73774171, -11.74168015, -0.60828918, 0.78707129, -0.07697003, -0.06766587, -1.27042747, 1.16391945, -0.29846534, 99.98900604, 111.80941772, 33.43999863, 0.00000000
1, 2.2300, 213, -0.52123392, -0.14704922, 1.87606466, 47.18751526, -71.22895050, 106.25377655, -60.68400955, 29.72814941, -68.02104950, 109.40728760, -9.30949688, -22.27005386, -0.57785004, 0.78911293, -0.20310816, -0.04623212, 0.35633206, -0.78747892, -1.55092001, 99.98900604, 111.80941772, 33.43999863, 0.00000000
1, 2.2350, 214, -0.96939713, -0.19634283, 1.85566974, 43.85383987, -74.07106018, 97.14995575, -60.45016098, 31.10201645, -67.55334473, 109.71746826, -9.64643574, -22.78870773, -0.57583559, 0.78921831, -0.20842332, -0.04591083, 0.79859114, -0.73540264, -1.52690125, 99.98900604, 111.80941772, 33.43999863, 0.00000000
1, 2.2400, 215, -1.49201882, -0.32049456, 1.63035595, 37.32121658, -59.51700211, 87.73035431, -60.45016098, 31.10201645, -67.55334473, 109.97911835, -9.95826912, -23.22323227, -0.57417202, 0.78923500, -0.21300910, -0.04540910, 1.31637478, -0.60842669, -1.29899561, 99.98900604, 111.80941772, 33.43999863, 0.00000000
1, 2.2450, 216, -1.66274989, -0.47655877, 1.33260190, 33.48357010, -34.80400085, 81.25265503, -60.45016098, 31.10201645, -67.55334473, 110.20143127, -10.28015900, -23.53031349, -0.57284617, 0.78924817, -0.21673980, -0.04425459, 1.48236561, -0.44959584, -0.99850434, 99.98900604, 111.80941772, 33.43999863, 0.00000000
1, 2.2500, 217, -1.75028944, -0.66661155, 1.03663421, 29.83170319, -5.65176868, 71.26802826, -60.36246490, 31.77433395, -66.99795532, 110.37895966, -10.60451221, -23.68226242, -0.57189506, 0.78930938, -0.21938716, -0.04238143, 1.56506133, -0.25697190, -0.70035756, 99.98900604, 111.80941772, 33.43999863, 0.00000000
1, 2.2550, 218, -1.69231093, -0.79905272, 0.81823200, 21.47922897, 23.06808662, 57.26688004, -60.36246490, 31.77433395, -66.99795532, 110.48535919, -10.91284275, -23.67339134, -0.57147592, 0.78934097, -0.22081751, -0.03994994, 1.50224876, -0.12247311, -0.48036671, 99.98900604, 111.80941772, 33.43999863, 0.00000000
1, 2.2600, 219, -1.42547333, -0.83489847, 0.69138366, 11.53600597, 44.99284363, 42.80855560, -60.36246490, 30.04969215, -67.87489319, 110.51692200, -11.19177628, -23.53457832, -0.57158160, 0.78929508, -0.22118436, -0.03722074, 1.23081040, -0.08522940, -0.35245329, 99.98900604, 111.80941772, 33.43999863, 0.00000000
1, 2.2650, 220, -1.04502535, -0.82738221, 0.62704116, 4.22903919, 58.24827957, 30.59873009, -60.36246490, 30.04969215, -67.87489319, 110.49449921, -11.43669415, -23.31061554, -0.57204318, 0.78919947, -0.22078669, -0.03441080, 0.84618902, -0.09189582, -0.28762460, 99.98900604, 111.80941772, 33.43999863, 0.00000000
1, 2.2700, 221, -0.70886379, -0.88150024, 0.57814717, -0.08675369, 63.40989685, 22.92501068, -61.32709503, 32.68050385, -67.87489319, 110.44178772, -11.65453339, -23.04800034, -0.57268727, 0.78907079, -0.21998796, -0.03165650, 0.50631809, -0.03724605, -0.23899987, 99.98900604, 111.80941772, 33.43999863, 0.00000000
1, 2.2750, 222, -0.45073333, -0.99749684, 0.55975169, -3.08847284, 61.01141739, 20.17198372, -61.32709503, 32.68050385, -67.87489319, 110.37434387, -11.85506058, -22.79157257, -0.57340330, 0.78888321, -0.21914886, -0.02908209, 0.24474235, 0.07907546, -0.22143352, 99.98900604, 111.80941772, 33.43999863, 0.00000000
1, 2.4050, 223, -0.12725551, -0.89672399, 0.34005037, -15.73430157, -14.10081005, 19.10346031, -61.56094742, 33.41128159, -68.57643890, 109.00877380, -14.21738052, -25.20673752, -0.58427858, 0.77275538, -0.24640855, -0.02739618, -0.11890571, -0.02034227, -0.02586728, 99.98900604, 111.80941772, 33.43999863, 0.00000000
1, 2.4100, 224, -0.11818082, -0.91192210, 0.31949103, -14.90525055, -14.74844360, 20.26924515, -61.82402802, 32.94358444, -69.07337189, 108.96055603, -14.28957462, -25.31263733, -0.58464515, 0.77213979, -0.24745125, -0.02753371, -0.12912840, -0.00509481, -0.00619964, 99.98900604, 111.80941772, 33.43999863, 0.00000000
1, 2.4150, 225, -0.11957791, -0.92881262, 0.30142325, -14.18696976, -15.04977322, 21.47974777, -61.82402802, 32.94358444, -69.07337189, 108.91696930, -14.36706924, -25.42199326, -0.58498454, 0.77152807, -0.24854267, -0.02764266, -0.12897584, 0.01189044, 0.01101364, 99.98900604, 111.80941772, 33.43999863, 0.00000000
1, 2.4200, 226, -0.13194138, -0.94636786, 0.27602822, -13.90570068, -14.54929638, 22.50460815, -61.21017075, 33.55743790, -68.54721069, 108.87471771, -14.45031166, -25.53059387, -0.58532029, 0.77091163, -0.24965578, -0.02770545, -0.11793174, 0.02959063, 0.03555708, 99.98900604, 111.80941772, 33.43999863, 0.00000000
1, 2.4250, 227, -0.14103828, -0.96053886, 0.24546526, -13.52486324, -13.45611763, 23.54233170, -61.21017075, 33.55743790, -68.54721069, 108.83367920, -14.54028606, -25.63554192, -0.58565497, 0.77029383, -0.25077564, -0.02770072, -0.11025034, 0.04394994, 0.06528755, 99.98900604, 111.80941772, 33.43999863, 0.00000000
1, 2.4300, 228, -0.15055563, -0.96486759, 0.21734619, -13.35761356, -12.36317253, 24.51265907, -61.21017075, 33.55743790, -68.54721069, 108.79267120, -14.63668346, -25.73673630, -0.58599633, 0.76966965, -0.25189990, -0.02763264, -0.10226217, 0.04849547, 0.09258904, 99.98900604, 111.80941772, 33.43999863, 0.00000000
1, 2.4350, 229, -0.14113753, -0.96871006, 0.18753415, -13.08409119, -11.20299435, 25.62345123, -61.79479599, 32.00818253, -67.81642914, 108.73387146, -14.72533798, -25.82955360, -0.58645177, 0.76898634, -0.25292656, -0.02761613, -0.11319915, 0.05251012, 0.12148622, 99.98900604, 111.80941772, 33.43999863, 0.00000000
1, 2.4400, 230, -0.11446041, -0.96082330, 0.16518702, -12.37889099, -10.36147118, 27.10672569, -61.79479599, 32.00818253, -67.81642914, 108.69668579, -14.83738232, -25.92514420, -0.58678323, 0.76835841, -0.25408664, -0.02740330, -0.14154989, 0.04483335, 0.14300542, 99.98900604, 111.80941772, 33.43999863, 0.00000000
1, 2.4450, 231, -0.08030918, -0.94747174, 0.15610538, -11.39442444, -9.06656742, 28.66735458, -61.35632706, 33.79129028, -68.31335449, 108.66365814, -14.95892715, -26.01692772, -0.58709657, 0.76773858, -0.25526628, -0.02709610, -0.17768666, 0.03181872, 0.15148152, 99.98900604, 111.80941772, 33.43999863, 0.00000000
1, 2.4500, 232, -0.05001033, -0.93106532, 0.14964828, -10.08256149, -8.33075905, 30.42079544, -61.35632706, 33.79129028, -68.31335449, 108.63722229, -15.08998108, -26.10796547, -0.58737504, 0.76713234, -0.25648659, -0.02670468, -0.21013853, 0.01582045, 0.15740199, 99.98900604, 111.80941772, 33.43999863, 0.00000000
1, 2.5900, 233, -0.38524818, -0.89620829, 0.23059627, 31.73247910, 11.80315590, 89.32618713, -61.85326004, 40.01753998, -68.13796997, 111.74729919, -23.69645119, -30.19134521, -0.57438445, 0.75221020, -0.32220635, 0.02110466, -0.01546697, 0.04429483, 0.10576324, 99.98900604, 111.80941772, 33.43999863, 0.00000000
1, 2.5950, 234, -0.34409049, -0.92807126, 0.25862327, 33.68181992, 15.49310970, 90.12541962, -61.99941635, 41.04063034, -68.51797485, 111.95892334, -24.14330101, -30.29520226, -0.57340360, 0.75177318, -0.32473460, 0.02435051, -0.06378327, 0.08026293, 0.07974203, 99.98900604, 111.80941772, 33.43999863, 0.00000000
1, 2.6000, 235, -0.31563410, -0.97179854, 0.27922842, 35.77236938, 19.47592545, 91.84119415, -61.99941635, 41.04063034, -68.51797485, 112.17579651, -24.60516930, -30.38450623, -0.57239783, 0.75134629, -0.32721078, 0.02779897, -0.09957811, 0.12828726, 0.06108603, 99.98900604, 111.80941772, 33.43999863, 0.00000000
1, 2.6050, 236, -0.29111570, -1.02395976, 0.29263297, 37.93614197, 23.31680489, 93.69284821, -62.78865814, 41.59602356, -68.34259033, 112.39846802, -25.08253288, -30.46034622, -0.57136244, 0.75092745, -0.32964212, 0.03144975, -0.13163522, 0.18495221, 0.04959465, 99.98900604, 111.80941772, 33.43999863, 0.00000000
1, 2.6100, 237, -0.26007003, -1.08844972, 0.30352426, 40.70469284, 27.19286919, 95.74797821, -62.78865814, 41.59602356, -68.34259033, 112.63002777, -25.57647133, -30.52308464, -0.57027680, 0.75052726, -0.33203289, 0.03531780, -0.17044541, 0.25417256, 0.04062768, 99.98900604, 111.80941772, 33.43999863, 0.00000000
1, 2.6150, 238, -0.19218084, -1.16912937, 0.33602431, 44.92134476, 34.93850708, 98.19235992, -62.78865814, 41.59602356, -68.34259033, 112.86923218, -26.09633446, -30.55383682, -0.56914842, 0.75016755, -0.33429590, 0.03956028, -0.24647489, 0.33981782, 0.01010855, 99.98900604, 111.80941772, 33.43999863, 0.00000000
1, 2.6200, 239, -0.08716944, -1.31152368, 0.34354961, 48.85371780, 42.83731079, 101.41517639, -63.40251160, 42.73604202, -69.19029236, 113.11460876, -26.64624405, -30.55355644, -0.56798595, 0.74982578, -0.33645186, 0.04419735, -0.35999238, 0.48754451, 0.00450845, 99.98900604, 111.80941772, 33.43999863, 0.00000000
1, 2.6250, 240, -0.01692500, -1.41288710, 0.33602577, 50.50875473, 48.23970032, 106.25490570, -63.40251160, 42.73604202, -69.19029236, 113.36177826, -27.22897530, -30.53873634, -0.56682223, 0.74942243, -0.33861861, 0.04915420, -0.43919981, 0.59460157, 0.01378566, 99.98900604, 111.80941772, 33.43999863, 0.00000000
1, 2.6300, 241, 0.01724989, -1.45086074, 0.31815216, 50.75053787, 58.81241226, 111.41114044, -62.75942612, 43.93452072, -69.39491272, 113.59130096, -27.85641098, -30.48338699, -0.56577694, 0.74890184, -0.34068000, 0.05458622, -0.48285621, 0.63857847, 0.03305534, 99.98900604, 111.80941772, 33.43999863, 0.00000000
1, 2.6350, 242, -0.02483032, -1.40800536, 0.32448524, 49.94663239, 61.46359253, 115.34031677, -62.75942612, 43.93452072, -69.39491272, 113.81107330, -28.49856186, -30.42376709, -0.56478685, 0.74828112, -0.34274834, 0.06012248, -0.45066530, 0.60190403, 0.02772899, 99.98900604, 111.80941772, 33.43999863, 0.00000000
1, 2.7900, 243, -0.73455620, -0.28504872, 0.64568669, 6.82062960, 58.71760941, 57.14648056, -65.09792328, 56.94241333, -81.26278687, 115.68455505, -52.07825089, -21.10038185, -0.53818685, 0.70501333, -0.36897367, 0.27779421, -0.05491735, -0.27084038, -0.38071519, 99.98900604, 111.80941772, 33.43999863, 0.00000000
1, 2.7950, 244, -0.66444528, -0.28948161, 0.64858729, -3.92272639, 42.31199646, 48.86525726, -64.25022125, 57.08856964, -81.32125092, 115.55516052, -52.38996887, -20.96069717, -0.53839213, 0.70362180, -0.36952457, 0.28018212, -0.12866761, -0.26282975, -0.38678652, 99.98900604, 111.80941772, 33.43999863, 0.00000000
1, 2.8000, 245, -0.60432506, -0.26712975, 0.62343973, -20.04226494, 13.82056808, 37.13959885, -64.25022125, 57.08856964, -81.32125092, 115.47814178, -52.58759308, -20.98934555, -0.53877282, 0.70238280, -0.37058291, 0.28115928, -0.19104007, -0.28284028, -0.36361912, 99.98900604, 111.80941772, 33.43999863, 0.00000000
1, 2.8050, 246, -0.56445318, -0.21743689, 0.57284027, -29.80943871, -9.34527016, 30.78794670, -64.60099030, 57.87781143, -81.67202759, 115.47150421, -52.70698166, -21.16796494, -0.53915375, 0.70129746, -0.37211189, 0.28111911, -0.23225334, -0.33083144, -0.31390530, 99.98900604, 111.80941772, 33.43999863, 0.00000000
1, 2.8100, 247, -0.58877224, -0.12581848, 0.53701138, -37.76773453, -28.80512619, 25.97378922, -64.60099030, 57.87781143, -81.67202759, 115.52749634, -52.76293182, -21.47518730, -0.53951854, 0.70033741, -0.37404910, 0.28024039, -0.20858952, -0.42131457, -0.27800110, 99.98900604, 111.80941772, 33.43999863, 0.00000000
1, 2.8150, 248, -0.67338747, -0.00078886, 0.50799608, -45.66358185, -38.68930435, 21.31697655, -64.60099030, 57.87781143, -81.67202759, 115.58994293, -52.77649689, -21.84002304, -0.54001647, 0.69938290, -0.37617216, 0.27881968, -0.12414477, -0.54571176, -0.24850944, 99.98900604, 111.80941772, 33.43999863, 0.00000000
1, 2.8200, 249, -0.76870716, 0.13474926, 0.44763610, -54.99548340, -41.36445618, 17.65647316, -64.30867767, 57.55627060, -81.40894318, 115.61128998, -52.76772308, -22.21191025, -0.54079497, 0.69829446, -0.37835795, 0.27707571, -0.02862765, -0.68105578, -0.18782203, 99.98900604, 111.80941772, 33.43999863, 0.00000000
1, 2.8250, 250, -0.83485657, 0.27985457, 0.36932781, -60.23694611, -40.79818344, 15.38819599, -64.30867767, 57.55627060, -81.40894318, 115.59651184, -52.74997711, -22.57141495, -0.54176444, 0.69710571, -0.38052118, 0.27520636, 0.03788417, -0.82626665, -0.10941961, 99.98900604, 111.80941772, 33.43999863, 0.00000000
1, 2.9400, 251, -0.35094810, -0.65960252, 0.04211719, -52.25259018, -77.80661774, -222.16273499, -62.29172516, 44.95761490, -78.57351685, 106.30110168, -35.16252518, -20.75914955, -0.60589504, 0.71771508, -0.31562319, 0.13475303, -0.22924614, -0.12204598, 0.18529472, 99.98900604, 111.80941772, 33.43999863, 0.00000000
1, 2.9450, 252, -0.36916044, -0.65316856, 0.12309708, -54.57505798, -80.47920990, -224.86083984, -62.29172516, 44.95761490, -78.57351685, 106.07718658, -33.97139740, -20.85035324, -0.60779405, 0.71978486, -0.31103337, 0.12551695, -0.19423857, -0.14086598, 0.10455351, 99.98900604, 111.80941772, 33.43999863, 0.00000000
1, 2.9500, 253, -0.36838335, -0.62307060, 0.13772292, -56.30525208, -79.52327728, -229.05734253, -62.29172516, 44.95761490, -78.57351685, 105.83867645, -32.76172256, -20.93369484, -0.60971278, 0.72177672, -0.30626017, 0.11616120, -0.17754658, -0.18313909, 0.08990720, 99.98900604, 111.80941772, 33.43999863, 0.00000000
1, 2.9550, 254, -0.40564108, -0.62070417, 0.10715506, -53.40476227, -75.97334290, -232.26951599, -61.76556396, 44.60683823, -78.42736053, 105.60224152, -31.54163361, -20.99655151, -0.61153179, 0.72378510, -0.30124038, 0.10685609, -0.12227857, -0.19738443, 0.12011614, 99.98900604, 111.80941772, 33.43999863, 0.00000000
1, 2.9600, 255, -0.45159528, -0.56887484, 0.05129229, -45.79126740, -74.41925812, -237.72741699, -61.76556396, 44.60683823, -78.42736053, 105.39622498, -30.29741478, -21.04696083, -0.61308283, 0.72597367, -0.29593512, 0.09754009, -0.05774200, -0.26076645, 0.17581390, 99.98900604, 111.80941772, 33.43999863, 0.00000000
1, 2.9650, 256, -0.47671631, -0.56356323, 0.04692434, -36.19404602, -77.91621399, -242.45466614, -61.35632706, 42.29757309, -77.95966339, 105.24509430, -29.02586174, -21.11346817, -0.61422944, 0.72840434, -0.29049629, 0.08809763, -0.01350314, -0.27737302, 0.18059310, 99.98900604, 111.80941772, 33.43999863, 0.00000000
1, 2.9700, 257, -0.49147686, -0.59293067, 0.08520827, -22.85695457, -85.07724762, -248.47360229, -61.35632706, 42.29757309, -77.95966339, 105.17459869, -27.71584892, -21.21216393, -0.61480564, 0.73120242, -0.28496826, 0.07842334, 0.02110040, -0.25894308, 0.14382678, 99.98900604, 111.80941772, 33.43999863, 0.00000000
1, 2.9750, 258, -0.45909375, -0.65491021, 0.17699805, -15.59441566, -89.57559204, -252.94961548, -61.35632706, 42.29757309, -77.95966339, 105.14646912, -26.37835884, -21.32871437, -0.61502695, 0.73416758, -0.27935433, 0.06856462, 0.00911524, -0.20757222, 0.05426251, 99.98900604, 111.80941772, 33.43999863, 0.00000000
1, 2.9800, 259, -0.39782494, -0.74246562, 0.26836830, -13.96283436, -93.11533356, -257.29608154, -61.12247849, 40.36831284, -77.49195862, 105.12914276, -25.01532173, -21.45716667, -0.61507988, 0.73713678, -0.27365223, 0.05848611, -0.03110628, -0.13027325, -0.03466188, 99.98900604, 111.80941772, 33.43999863, 0.00000000
1, 2.9850, 260, -0.33572519, -0.83069324, 0.30128473, -16.55180550, -97.47607422, -260.87228394, -61.12247849, 40.36831284, -77.49195862, 105.10459900, -23.62810898, -21.60336876, -0.61507422, 0.73999250, -0.26791626, 0.04812326, -0.07138237, -0.05190298, -0.06528482, 99.98900604, 111.80941772, 33.43999863, 0.00000000
1, 3.1250, 261, -0.55403161, -1.05696034, 0.09365971, -16.37204361, 45.92549515, -132.07485962, -52.38234329, 25.10961723, -77.72580719, 100.88346863, 6.87798977, -14.52797413, -0.62476629, 0.76824260, -0.05941157, -0.12625708, 0.67096961, 0.08159375, 0.09091410, 99.98900604, 111.80941772, 33.43999863, 0.00000000
1, 3.1300, 262, -0.52281469, -0.99514890, 0.08755200, -15.72460365, 55.63124847, -125.47228241, -51.88541412, 23.00496864, -77.84273529, 100.85233307, 7.44209576, -14.13442039, -0.62474465, 0.76842213, -0.05360366, -0.12786026, 0.64967394, 0.02087871, 0.09639690, 99.98900604, 111.80941772, 33.43999863, 0.00000000
1, 3.1350, 263, -0.41565460, -0.92424715, 0.07335538, -14.08765793, 74.93318939, -117.77724457, -51.88541412, 23.00496864, -77.84273529, 100.84146881, 7.93223763, -13.65249920, -0.62477738, 0.76868522, -0.04763355, -0.12848076, 0.55147314, -0.04888941, 0.11048293, 99.98900604, 111.80941772, 33.43999863, 0.00000000
1, 3.1400, 264, -0.32964051, -0.91182435, 0.06019658, -12.20805359, 82.79816437, -110.95378876, -51.97310638, 23.44343758, -77.90119934, 100.85230255, 8.39988422, -13.13707924, -0.62473345, 0.76902497, -0.04158564, -0.12876099, 0.47359669, -0.06015044, 0.12373575, 99.98900604, 111.80941772, 33.43999863, 0.00000000
1, 3.1450, 265, -0.23955014, -0.92257130, 0.06892011, -11.58252621, 88.80665588, -102.68643188, -51.97310638, 23.44343758, -77.90119934, 100.87371063, 8.82116032, -12.59889507, -0.62470275, 0.76937342, -0.03565274, -0.12860823, 0.39095739, -0.04825666, 0.11534425, 99.98900604, 111.80941772, 33.43999863, 0.00000000
1, 3.1500, 266, -0.14362136, -0.90071595, 0.03744855, -11.86139679, 90.20765686, -94.34211731, -51.82695007, 22.47880745, -78.98274994, 100.89752960, 9.19994068, -12.06089211, -0.62470835, 0.76968360, -0.02995856, -0.12817660, 0.30181745, -0.06895252, 0.14727959, 99.98900604, 111.80941772, 33.43999863, 0.00000000
1, 3.1550, 267, -0.03975580, -0.89004016, 0.01903286, -10.74135113, 87.87444305, -85.19325256, -51.82695007, 22.47880745, -78.98274994, 100.92713928, 9.53573895, -11.54249668, -0.62470484, 0.76997614, -0.02464043, -0.12756807, 0.20396841, -0.07854845, 0.16626319, 99.98900604, 111.80941772, 33.43999863, 0.00000000
1, 3.1600, 268, 0.05384161, -0.87583601, 0.00837492, -10.07070351, 81.72013092, -75.18335724, -51.82695007, 22.47880745, -78.98274994, 100.95639038, 9.82791519, -11.06365776, -0.62471056, 0.77022254, -0.01982939, -0.12688851, 0.11561590, -0.09177061, 0.17751491, 99.98900604, 111.80941772, 33.43999863, 0.00000000
1, 3.1650, 269, 0.12427294, -0.84998548, -0.01127017, -9.22911644, 73.38724518, -64.31620789, -51.47617722, 22.56650162, -79.09967804, 100.98330688, 10.07437134, -10.63622856, -0.62472725, 0.77042109, -0.01561499, -0.12618846, 0.04966911, -0.11674074, 0.19769229, 99.98900604, 111.80941772, 33.43999863, 0.00000000
1, 3.1700, 270, 0.18870839, -0.83089590, -0.03291251, -7.94151354, 63.51990891, -53.21088028, -51.47617722, 22.56650162, -79.09967804, 101.00794220, 10.27546787, -10.26828098, -0.62474424, 0.77058154, -0.01204978, -0.12551361, -0.01106528, -0.13507333, 0.21982692, 99.98900604, 111.80941772, 33.43999863, 0.00000000
1, 3.2800, 271, -0.00028714, -0.75199223, 0.20004798, 8.37711811, -30.75334358, 87.83798981, -53.14235687, 25.54808426, -79.15814209, 100.79533386, 6.02224016, -13.47030449, -0.62743568, 0.76804060, -0.05698368, -0.11485177, 0.10645758, -0.22504850, -0.01512980, 99.98900604, 111.80941772, 33.43999863, 0.00000000
1, 3.2850, 272, -0.01627927, -0.72696590, 0.19136287, 9.28428078, -29.03219223, 89.02418518, -53.14235687, 25.54808426, -79.15814209, 100.82313538, 5.60620213, -13.69647694, -0.62747115, 0.76794422, -0.06083877, -0.11331536, 0.11533109, -0.25070831, -0.00588984, 99.98900604, 111.80941772, 33.43999863, 0.00000000
1, 3.2900, 273, -0.04389642, -0.70046639, 0.18201633, 10.49678040, -28.92222595, 90.69387054, -53.58082199, 26.68810272, -79.04121399, 100.85533905, 5.18777609, -13.92407799, -0.62747860, 0.76784801, -0.06471865, -0.11176640, 0.13568857, -0.27777743, 0.00410863, 99.98900604, 111.80941772, 33.43999863, 0.00000000
1, 3.2950, 274, -0.12147980, -0.67142558, 0.16152534, 11.75343323, -29.41536713, 92.83936310, -53.58082199, 26.68810272, -79.04121399, 100.89514160, 4.75942278, -14.15623569, -0.62744141, 0.76776415, -0.06868879, -0.11016954, 0.20592372, -0.30730611, 0.02522437, 99.98900604, 111.80941772, 33.43999863, 0.00000000
1, 3.3000, 275, -0.18228294, -0.67212605, 0.11706351, 12.71614933, -29.42683411, 93.66808319, -53.43466949, 26.95118332, -78.28120422, 100.94141388, 4.32720470, -14.38940334, -0.62736452, 0.76769006, -0.07269019, -0.10854554, 0.25932425, -0.30698758, 0.07040489, 99.98900604, 111.80941772, 33.43999863, 0.00000000
1, 3.3050, 276, -0.41649845, -0.65963960, -0.02381999, 13.14090633, -29.40718842, 92.99715424, -53.43466949, 26.95118332, -78.28120422, 100.99157715, 3.89846325, -14.62206936, -0.62725854, 0.76761544, -0.07666922, -0.10693593, 0.48640436, -0.31961995, 0.21168590, 99.98900604, 111.80941772, 33.43999863, 0.00000000
1, 3.3100, 277, -0.64492267, -0.59291697, -0.04507200, 14.08305740, -13.23324394, 92.84489441, -53.43466949, 26.95118332, -78.28120422, 101.05326080, 3.45536041, -14.77532768, -0.62716359, 0.76762861, -0.08020263, -0.10478453, 0.70726752, -0.38661093, 0.23355857, 99.98900604, 111.80941772, 33.43999863, 0.00000000
1, 3.3150, 278, -0.71759158, -0.42741859, 0.14523946, 18.49562645, 8.34590149, 98.07016754, -54.34083557, 27.59427071, -78.07658386, 101.14398193, 2.96628714, -14.82799244, -0.62700796, 0.76782990, -0.08333739, -0.10175089, 0.77116323, -0.55261827, 0.04484237, 99.98900604, 111.80941772, 33.43999863, 0.00000000
1, 3.3200, 279, -0.60387564, -0.20535353, 0.53676188, 34.42230225, 2.73992324, 109.58144379, -54.34083557, 27.59427071, -78.07658386, 101.31317902, 2.42647791, -14.92031574, -0.62633407, 0.76838470, -0.08707836, -0.09852985, 0.64727557, -0.77528250, -0.34348023, 99.98900604, 111.80941772, 33.43999863, 0.00000000
1, 3.3250, 280, -0.33566734, -0.34351707, 0.79708362, 63.95265198, -13.75351524, 118.06618500, -53.96083069, 28.76351929, -78.13504791, 101.62751770, 1.86206818, -15.10406399, -0.62462485, 0.76962072, -0.09167697, -0.09551518, 0.36864787, -0.63697171, -0.59854770, 99.98900604, 111.80941772, 33.43999863, 0.00000000
1, 3.4600, 281, -1.74035347, -0.33576593, 1.34506154, 58.68481827, -86.19340515, 108.37964630, -55.59777832, 38.40982056, -73.86728668, 109.91049194, -10.53056431, -29.49073219, -0.57208472, 0.77498817, -0.25845897, -0.07287911, 1.55580640, -0.59168923, -1.01665354, 99.98900604, 111.80941772, 33.43999863, 0.00000000
1, 3.4650, 282, -2.03094172, -0.39664015, 1.31006753, 61.13689041, -72.46523285, 103.24256134, -55.59777832, 38.40982056, -73.86728668, 110.31521606, -10.89083958, -30.01676941, -0.56951100, 0.77511227, -0.26394391, -0.07205381, 1.84027994, -0.52729011, -0.97635859, 99.98900604, 111.80941772, 33.43999863, 0.00000000
1, 3.4700, 283, -1.97871518, -0.51454306, 1.11821461, 52.37759781, -29.80656433, 80.07969666, -55.59777832, 38.40982056, -73.86728668, 110.63253784, -11.21368313, -30.30096054, -0.56763750, 0.77539659, -0.26754981, -0.07046331, 1.78280497, -0.40597725, -0.77942145, 99.98900604, 111.80941772, 33.43999863, 0.00000000
1, 3.4750, 284, -1.81736541, -0.58830309, 0.84237802, 42.61869812, -3.21059084, 62.61071014, -55.45162201, 40.19292450, -74.48114777, 110.87151337, -11.50048351, -30.42874527, -0.56634349, 0.77571207, -0.26987189, -0.06852042, 1.61707652, -0.32926112, -0.49953303, 99.98900604, 111.80941772, 33.43999863, 0.00000000
1, 3.4800, 285, -1.52660072, -0.64604628, 0.65275228, 34.58083725, 22.31316757, 45.44478226, -55.45162201, 40.19292450, -74.48114777, 111.04012299, -11.75216770, -30.40476418, -0.56556654, 0.77609962, -0.27095556, -0.06623382, 1.32232666, -0.26922154, -0.30663633, 99.98900604, 111.80941772, 33.43999863, 0.00000000
1, 3.4850, 286, -1.13770282, -0.71830285, 0.56365794, 26.77397728, 35.04498291, 30.17930603, -55.36392975, 40.33908081, -73.92575073, 111.15953064, -11.98193932, -30.29426193, -0.56513774, 0.77648997, -0.27131885, -0.06378817, 0.92972577, -0.19526307, -0.21493708, 99.98900604, 111.80941772, 33.43999863, 0.00000000
1, 3.4900, 287, -0.81125772, -0.80988753, 0.52389497, 18.56068039, 37.94800186, 17.94458199, -55.36392975, 40.33908081, -73.92575073, 111.22161102, -12.13374233, -30.14618683, -0.56500554, 0.77684164, -0.27103800, -0.06184117, 0.60035455, -0.10253461, -0.17350838, 99.98900604, 111.80941772, 33.43999863, 0.00000000
1, 3.4950, 288, -0.56810021, -0.93737042, 0.54814738, 14.44691372, 38.25994873, 10.67847729, -55.36392975, 40.33908081, -73.92575073, 111.25955963, -12.25238419, -29.98327637, -0.56499529, 0.77717519, -0.27049142, -0.06011160, 0.35499915, 0.02559836, -0.19686136, 99.98900604, 111.80941772, 33.43999863, 0.00000000
1, 3.5000, 289, -0.35604513, -1.10182583, 0.58185416, 12.37329006, 35.77923965, 8.78797913, -56.27009583, 40.66062546, -74.27652740, 111.28858948, -12.35784435, -29.82873726, -0.56501949, 0.77747095, -0.26993611, -0.05853703, 0.14101513, 0.19056551, -0.22996038, 99.98900604, 111.80941772, 33.43999863, 0.00000000
1, 3.5050, 290, -0.17276815, -1.23254180, 0.60052985, 8.82108498, 26.77572250, 9.67016029, -56.27009583, 40.66062546, -74.27652740, 111.30919647, -12.45125103, -29.71880531, -0.56505907, 0.77764362, -0.26962379, -0.05728710, -0.04395200, 0.32172680, -0.24816662, 99.98900604, 111.80941772, 33.43999863, 0.00000000
1, 3.6650, 291, -0.07608798, -0.96198213, 0.19164437, -2.47155333, 7.25019455, 21.02088928, -56.15317154, 41.68371964, -74.83191681, 111.00703430, -14.38624954, -30.35000420, -0.56931919, 0.77059931, -0.28248402, -0.04748888, -0.17237119, 0.05730389, 0.15391530, 99.98900604, 111.80941772, 33.43999863, 0.00000000
1, 3.6700, 292, -0.07544570, -0.95416605, 0.17326945, -1.50589609, 7.21537304, 22.83048058, -56.15317154, 41.68371964, -74.83191681, 111.00161743, -14.50577641, -30.35728455, -0.56950420, 0.77029663, -0.28306809, -0.04669591, -0.17495395, 0.04995323, 0.17201322, 99.98900604, 111.80941772, 33.43999863, 0.00000000
1, 3.6750, 293, -0.07102203, -0.94959641, 0.18209280, -0.50027949, 6.83111286, 24.70133781, -56.35778809, 41.47909927, -75.03653717, 111.00257111, -14.63334942, -30.36985588, -0.56965393, 0.76999432, -0.28372616, -0.04585674, -0.18152034, 0.04587716, 0.16299728, 99.98900604, 111.80941772, 33.43999863, 0.00000000
1, 3.6800, 294, -0.05865762, -0.94357800, 0.20209597, 0.89370328, 6.72463608, 26.74913597, -56.35778809, 41.47909927, -75.03653717, 111.01166534, -14.77027035, -30.38673019, -0.56975842, 0.76970017, -0.28445777, -0.04495286, -0.19620556, 0.04042337, 0.14293250, 99.98900604, 111.80941772, 33.43999863, 0.00000000
1, 3.6850, 295, -0.03390478, -0.93682826, 0.21259634, 2.13821316, 7.24094772, 28.91883469, -56.18240356, 41.39140701, -74.59806824, 110.99872589, -14.87276459, -30.39812660, -0.56996948, 0.76938409, -0.28498915, -0.04431914, -0.22304738, 0.03416532, 0.13231011, 99.98900604, 111.80941772, 33.43999863, 0.00000000
1, 3.6900, 296, -0.01263234, -0.92990363, 0.20962602, 2.78276849, 7.52634192, 31.79170990, -56.18240356, 41.39140701, -74.59806824, 111.01878357, -15.03465843, -30.42046738, -0.57002860, 0.76907396, -0.28587258, -0.04323895, -0.24661344, 0.02784797, 0.13520163, 99.98900604, 111.80941772, 33.43999863, 0.00000000
1, 3.6950, 297, 0.01390348, -0.92352855, 0.20164625, 5.22546053, 6.25199938, 34.99009323, -56.18240356, 41.39140701, -74.51037598, 111.05435181, -15.20916176, -30.45497704, -0.56999421, 0.76878089, -0.28689870, -0.04209121, -0.27600661, 0.02239734, 0.14346802, 99.98900604, 111.80941772, 33.43999863, 0.00000000
1, 3.7000, 298, 0.02197414, -0.91563690, 0.20797203, 5.81490564, 5.18171787, 37.72620392, -56.56240845, 41.21601868, -74.51037598, 111.09576416, -15.39449024, -30.49989891, -0.56993002, 0.76846451, -0.28804350, -0.04090361, -0.28716522, 0.01552236, 0.13750978, 99.98900604, 111.80941772, 33.43999863, 0.00000000
1, 3.7050, 299, 0.00977092, -0.90208781, 0.22996698, 5.58420610, 4.24755859, 40.30073929, -56.56240845, 41.21601868, -74.51037598, 111.13872528, -15.59012890, -30.55431175, -0.56986463, 0.76810616, -0.28929648, -0.03968581, -0.27826983, 0.00303381, 0.11585201, 99.98900604, 111.80941772, 33.43999863, 0.00000000
1, 3.7100, 300, -0.01165809, -0.88813972, 0.22205235, 5.87085629, 1.71495855, 42.90068436, -56.38702011, 42.32680511, -74.36421967, 111.18801117, -15.79331207, -30.62607002, -0.56976008, 0.76771510, -0.29069912, -0.03848413, -0.26020527, -0.00973110, 0.12413447, 99.98900604, 111.80941772, 33.43999863, 0.00000000
1, 3.8150, 301, -0.19938830, -0.98899376, 0.19376366, 38.98028564, 27.15894508, 102.39398193, -57.64396286, 45.98070526, -74.53960419, 114.40736389, -22.80463982, -33.18262482, -0.55631059, 0.75912666, -0.33791554, 0.00765234, -0.18656367, 0.14803168, 0.18455321, 99.98900604, 111.80941772, 33.43999863, 0.00000000
1, 3.8200, 302, -0.27475184, -0.95192778, 0.20853555, 40.24164200, 29.49291801, 105.76350403, -57.52703857, 46.50687027, -74.36421967, 114.64575958, -23.34664345, -33.27420425, -0.55536401, 0.75853276, -0.34067571, 0.01179576, -0.11987184, 0.11584099, 0.17159733, 99.98900604, 111.80941772, 33.43999863, 0.00000000
1, 3.8250, 303, -0.31454778, -0.93073535, 0.22421226, 41.66769791, 32.65660477, 107.99400330, -57.52703857, 46.50687027, -74.36421967, 114.88902283, -23.90500641, -33.35804367, -0.55440104, 0.75791860, -0.34342286, 0.01611876, -0.08899203, 0.09975183, 0.15777451, 99.98900604, 111.80941772, 33.43999863, 0.00000000
1, 3.8300, 304, -0.34605744, -0.89477313, 0.23608412, 42.19160080, 36.73492050, 109.52167511, -57.52703857, 46.50687027, -74.36421967, 115.13003540, -24.47856903, -33.42811203, -0.55346513, 0.75727004, -0.34611171, 0.02062091, -0.06659074, 0.06906904, 0.14766744, 99.98900604, 111.80941772, 33.43999863, 0.00000000
1, 3.8350, 305, -0.37261727, -0.86572158, 0.23705073, 42.48392868, 39.06745529, 109.67871857, -57.81935120, 47.55919266, -73.95498657, 115.36213684, -25.05601692, -33.48669815, -0.55258602, 0.75657988, -0.34871373, 0.02518928, -0.04920688, 0.04541438, 0.14828214, 99.98900604, 111.80941772, 33.43999863, 0.00000000
1, 3.8400, 306, -0.38340560, -0.83634555, 0.22430386, 41.52563858, 35.83304214, 109.12309265, -57.81935120, 47.55919266, -73.95498657, 115.60515594, -25.62529182, -33.56621933, -0.55162656, 0.75587934, -0.35139158, 0.02964086, -0.04740941, 0.02150423, 0.16261604, 99.98900604, 111.80941772, 33.43999863, 0.00000000
1, 3.8450, 307, -0.40941024, -0.79587138, 0.27482072, 43.56925964, 34.49187851, 109.13520813, -57.70242691, 48.58228683, -74.65653229, 115.86339569, -26.19139099, -33.65560150, -0.55056357, 0.75520802, -0.35408935, 0.03407900, -0.03042300, -0.01345098, 0.11384660, 99.98900604, 111.80941772, 33.43999863, 0.00000000
1, 3.8500, 308, -0.41279393, -0.78132975, 0.34400603, 45.24623489, 36.98101425, 109.06803894, -57.70242691, 48.58228683, -74.65653229, 116.12667084, -26.76220131, -33.73564148, -0.54946786, 0.75455284, -0.35671216, 0.03862210, -0.03612642, -0.02233996, 0.04644436, 99.98900604, 111.80941772, 33.43999863, 0.00000000
1, 3.8550, 309, -0.45640242, -0.76824129, 0.35394618, 44.98681641, 37.81754303, 108.95106506, -57.70242691, 48.58228683, -74.65653229, 116.38883972, -27.33400917, -33.81451416, -0.54837781, 0.75386983, -0.35930103, 0.04318480, -0.00143853, -0.02959290, 0.03808669, 99.98900604, 111.80941772, 33.43999863, 0.00000000
1, 3.8600, 310, -0.51669753, -0.76379848, 0.32537851, 46.37125778, 38.00727081, 108.79776001, -58.19935608, 49.83922958, -74.53960419, 116.65953827, -27.90521049, -33.89540863, -0.54722971, 0.75319993, -0.36186695, 0.04777049, 0.05007686, -0.02802555, 0.06816354, 99.98900604, 111.80941772, 33.43999863, 0.00000000
1, 3.9650, 311, -0.23228639, -1.99314034, 0.54702973, 81.46127319, 146.11830139, 126.21070862, -61.03478622, 57.35165024, -78.98274994, 121.73500824, -43.16214371, -29.97138596, -0.52038485, 0.73833549, -0.38300794, 0.19330102, -0.45019785, 1.36933458, -0.16609590, 99.98900604, 111.80941772, 33.43999863, 0.00000000
1, 3.9700, 312, -0.29852471, -1.96952653, 0.55421561, 75.57579803, 150.32972717, 125.68496704, -61.06401443, 59.10552216, -79.07044983, 121.81890106, -44.09088516, -29.54304695, -0.51937759, 0.73666483, -0.38296887, 0.20225452, -0.39573801, 1.35579336, -0.17824231, 99.98900604, 111.80941772, 33.43999863, 0.00000000
1, 3.9750, 313, -0.39368618, -1.82925057, 0.47930914, 61.45312500, 153.00759888, 123.68523407, -61.06401443, 59.10552216, -79.07044983, 121.80672455, -45.01852036, -29.08555794, -0.51884347, 0.73462248, -0.38289911, 0.21099660, -0.31198740, 1.22535861, -0.10916300, 99.98900604, 111.80941772, 33.43999863, 0.00000000
1, 3.9800, 314, -0.42838538, -1.64497542, 0.39377579, 55.74271774, 148.52330017, 122.70461273, -61.70710373, 59.10552216, -80.21046448, 121.77194977, -45.93011093, -28.64367294, -0.51838553, 0.73245049, -0.38292244, 0.21946120, -0.28833288, 1.05066705, -0.02973082, 99.98900604, 111.80941772, 33.43999863, 0.00000000
1, 3.9850, 315, -0.41637921, -1.42694271, 0.41822156, 55.35442352, 139.14801025, 121.32936859, -61.70710373, 60.50862122, -80.21046448, 121.75683594, -46.80206680, -28.24230385, -0.51778746, 0.73035073, -0.38304663, 0.22750703, -0.31110206, 0.84193146, -0.05986910, 99.98900604, 111.80941772, 33.43999863, 0.00000000
1, 3.9900, 316, -0.39628586, -1.21308529, 0.50925726, 51.05416870, 123.69467926, 119.26318359, -61.70710373, 60.50862122, -80.21046448, 121.78290558, -47.63376999, -27.92794418, -0.51702487, 0.72827107, -0.38351628, 0.23499328, -0.34142834, 0.63715041, -0.15599555, 99.98900604, 111.80941772, 33.43999863, 0.00000000
1, 3.9950, 317, -0.53019166, -0.99611390, 0.33710253, 35.67984390, 108.82113647, 115.17852020, -62.20403290, 61.82402802, -79.91815186, 121.78424072, -48.40926743, -27.68782425, -0.51651454, 0.72602350, -0.38433078, 0.24164534, -0.21633433, 0.42921048, 0.01093988, 99.98900604, 111.80941772, 33.43999863, 0.00000000
1, 4.0000, 318, -0.87338012, -0.81185603, 0.07320262, 22.04100418, 112.02435303, 110.31087494, -62.20403290, 61.82402802, -79.91815186, 121.68147278, -49.17243195, -27.40296745, -0.51651651, 0.72347987, -0.38504475, 0.24804877, 0.11870791, 0.25343055, 0.26831555, 99.98900604, 111.80941772, 33.43999863, 0.00000000
1, 4.1250, 319, -0.50443602, -0.13827348, 0.28803474, -60.24179077, 29.39377975, -171.86996460, -63.87021255, 66.23793793, -69.59953308, 122.33209229, -49.10903168, -34.34610748, -0.52658832, 0.70210207, -0.42673975, 0.21829030, -0.25410235, -0.41198367, 0.06181072, 99.98900604, 111.80941772, 33.43999863, 0.00000000
1, 4.1300, 320, -0.48058519, -0.22148243, 0.32524663, -59.96578217, 31.00584412, -180.94860840, -64.60099030, 65.44869995, -69.16106415, 121.33701324, -48.42176437, -33.42461777, -0.53071463, 0.70376402, -0.42105424, 0.21394300, -0.27029029, -0.34243304, 0.01958763, 99.98900604, 111.80941772, 33.43999863, 0.00000000
1, 4.1350, 321, -0.41248980, -0.28606850, 0.34609774, -60.39191437, 32.16133881, -188.66217041, -64.60099030, 65.44869995, -69.16106415, 120.35073090, -47.69146729, -32.50289154, -0.53486902, 0.70552051, -0.41509336, 0.20941254, -0.33007526, -0.29184622, -0.00622619, 99.98900604, 111.80941772, 33.43999863, 0.00000000
1, 4.1400, 322, -0.35194260, -0.29805019, 0.31589514, -60.24023056, 32.74827576, -195.69561768, -64.60099030, 65.44869995, -69.16106415, 119.36687469, -46.92398453, -31.57748413, -0.53909099, 0.70732069, -0.40885344, 0.20473720, -0.38164589, -0.29401857, 0.01897200, 99.98900604, 111.80941772, 33.43999863, 0.00000000
1, 4.1450, 323, -0.27293551, -0.28320888, 0.25111237, -57.38546371, 29.76826477, -205.54748535, -66.00408936, 63.84098053, -67.61180878, 118.41835022, -46.09565353, -30.66915131, -0.54321432, 0.70932972, -0.40231982, 0.19977069, -0.45072374, -0.32342193, 0.07895663, 99.98900604, 111.80941772, 33.43999863, 0.00000000
1, 4.1500, 324, -0.22481214, -0.28717458, 0.22323562, -51.53673172, 21.44215012, -210.69264221, -66.00408936, 63.84098053, -67.61180878, 117.55712891, -45.21530151, -29.82901001, -0.54700726, 0.71157646, -0.39573795, 0.19450873, -0.48823881, -0.33406860, 0.10260355, 99.98900604, 111.80941772, 33.43999863, 0.00000000
1, 4.1550, 325, -0.18856102, -0.31040502, 0.24173038, -44.72764969, 10.44793701, -214.61671448, -66.44255829, 62.17480087, -66.79333496, 116.80059052, -44.28415298, -29.07597542, -0.55038255, 0.71408176, -0.38920283, 0.18891127, -0.51319420, -0.32537386, 0.08079356, 99.98900604, 111.80941772, 33.43999863, 0.00000000
1, 4.1600, 326, -0.16739762, -0.33309779, 0.27869159, -39.44871521, -0.58385950, -218.97785950, -66.44255829, 62.17480087, -66.79333496, 116.13697052, -43.30236053, -28.40613937, -0.55339110, 0.71681219, -0.38271755, 0.18293725, -0.52229071, -0.31710690, 0.04142871, 99.98900604, 111.80941772, 33.43999863, 0.00000000
1, 4.1650, 327, -0.15559758, -0.36279997, 0.29768553, -35.26784134, -12.10112000, -223.82733154, -66.44255829, 62.17480087, -66.79333496, 115.55838776, -42.26848984, -27.81814384, -0.55606210, 0.71974713, -0.37628913, 0.17653795, -0.52111673, -0.30171967, 0.02086536, 99.98900604, 111.80941772, 33.43999863, 0.00000000
1, 4.1700, 328, -0.16796677, -0.40305537, 0.29310215, -29.75668716, -24.69741249, -228.22871399, -67.29026794, 60.24554062, -66.12101746, 115.07283783, -41.18385696, -27.31658173, -0.55833179, 0.72291267, -0.36994857, 0.16970876, -0.49482539, -0.27560002, 0.02477082, 99.98900604, 111.80941772, 33.43999863, 0.00000000
1, 4.2750, 329, -0.69176084, -0.77850890, 0.34364536, -23.40658760, 89.71231079, -261.86154175, -66.03332520, 45.89301300, -57.26395798, 109.96999359, -15.84907532, -19.02189255, -0.57915741, 0.78695875, -0.21205664, 0.01745702, 0.41330272, -0.12444220, -0.01707485, 99.98900604, 111.80941772, 33.43999863, 0.00000000
1, 4.2800, 330, -0.62918186, -0.77994895, 0.31078979, -21.90503311, 95.32858276, -260.20449829, -65.88716888, 43.34989548, -58.17012405, 109.61425018, -14.78508472, -18.10205460, -0.58096534, 0.78866732, -0.20072213, 0.01392783, 0.36873731, -0.12971783, 0.01192148, 99.98900604, 111.80941772, 33.43999863, 0.00000000
1, 4.2850, 331, -0.58463722, -0.80262923, 0.26147532, -20.97545433, 95.58087158, -257.30099487, -65.88716888, 43.34989548, -58.17012405, 109.28255463, -13.73816109, -17.19679832, -0.58266568, 0.79024255, -0.18948947, 0.01054554, 0.34211069, -0.11320808, 0.05747854, 99.98900604, 111.80941772, 33.43999863, 0.00000000
1, 4.2900, 332, -0.55881459, -0.82162893, 0.20767879, -20.51557922, 93.77894592, -253.14352417, -66.17948151, 42.20988083, -57.58549881, 108.97578430, -12.69481754, -16.31754684, -0.58424258, 0.79170072, -0.17838062, 0.00715096, 0.33411330, -0.09987391, 0.10767955, 99.98900604, 111.80941772, 33.43999863, 0.00000000
1, 4.2950, 333, -0.55484986, -0.83826339, 0.17173906, -20.25787354, 91.22494507, -248.19522095, -66.17948151, 42.20988083, -57.58549881, 108.69210815, -11.66640472, -15.46787739, -0.58570898, 0.79301965, -0.16748318, 0.00379579, 0.34783214, -0.08844802, 0.14020002, 99.98900604, 111.80941772, 33.43999863, 0.00000000
1, 4.3000, 334, -0.52941251, -0.84099448, 0.13090114, -20.32221794, 88.93573761, -242.78083801, -66.17948151, 42.20988083, -57.58549881, 108.42839050, -10.65609932, -14.64615250, -0.58708286, 0.79419410, -0.15680963, 0.00049932, 0.33985946, -0.09044182, 0.17785731, 99.98900604, 111.80941772, 33.43999863, 0.00000000
1, 4.3050, 335, -0.44218844, -0.83172023, 0.12022733, -17.96604538, 84.00620270, -235.32197571, -66.03332520, 39.05290985, -57.96550751, 108.19817352, -9.66999435, -13.86719227, -0.58826786, 0.79528034, -0.14650112, -0.00276048, 0.26972342, -0.10397398, 0.18583789, 99.98900604, 111.80941772, 33.43999863, 0.00000000
1, 4.3100, 336, -0.39741367, -0.84203458, 0.15097749, -15.09868145, 74.72573090, -229.27029419, -66.03332520, 39.05290985, -57.96550751, 108.00494385, -8.69546509, -13.14837360, -0.58922768, 0.79630816, -0.13662440, -0.00616796, 0.24165645, -0.09745120, 0.15271541, 99.98900604, 111.80941772, 33.43999863, 0.00000000
1, 4.3150, 337, -0.34038234, -0.88821232, 0.22392459, -12.07487392, 58.56604004, -222.43818665, -66.20870972, 38.52674484, -58.11166382, 107.85237885, -7.72655010, -12.52263832, -0.58992404, 0.79728502, -0.12738703, -0.00994125, 0.20119587, -0.05461391, 0.07797490, 99.98900604, 111.80941772, 33.43999863, 0.00000000
1, 4.3200, 338, -0.30151328, -0.94343674, 0.25429085, -11.33814907, 48.76945496, -217.42323303, -66.20870972, 38.52674484, -58.11166382, 107.72139740, -6.76509953, -11.95545578, -0.59048438, 0.79817098, -0.11856434, -0.01392039, 0.17892174, -0.00224350, 0.04605060, 99.98900604, 111.80941772, 33.43999863, 0.00000000
1, 4.4550, 339, 0.00370805, -0.79426134, 0.07752315, -2.76833510, 44.95762253, -38.33126068, -59.80707169, 29.69891739, -58.19935608, 106.26019287, 8.57985020, -8.34019470, -0.59238368, 0.79891008, -0.01324791, -0.10319261, 0.14479122, -0.15522915, 0.19795309, 99.98900604, 111.80941772, 33.43999863, 0.00000000
1, 4.4600, 340, 0.00048538, -0.80816865, 0.06583809, -0.03636236, 41.22424698, -31.23427391, -59.80707169, 29.69891739, -58.19935608, 106.29625702, 8.67238426, -8.09595203, -0.59226900, 0.79910862, -0.01109199, -0.10256629, 0.14976268, -0.14089037, 0.21009164, 99.98900604, 111.80941772, 33.43999863, 0.00000000
1, 4.4650, 341, -0.00479443, -0.82289696, 0.06434892, 1.95265949, 37.04421616, -24.66426468, -59.74861145, 30.63431740, -59.92399979, 106.33823395, 8.73907375, -7.88117552, -0.59210920, 0.79933369, -0.00928192, -0.10191406, 0.15630376, -0.12577721, 0.21216646, 99.98900604, 111.80941772, 33.43999863, 0.00000000
1, 4.4700, 342, -0.00968542, -0.84383297, 0.06334300, 3.17342591, 31.54866028, -18.71171188, -59.74861145, 30.63431740, -59.92399979, 106.38123322, 8.78473568, -7.70143890, -0.59192872, 0.79956108, -0.00782689, -0.10129835, 0.16206992, -0.10450244, 0.21379822, 99.98900604, 111.80941772, 33.43999863, 0.00000000
1, 4.4750, 343, -0.01199880, -0.85791600, 0.06161384, 3.92256927, 27.03592491, -11.78332233, -59.74861145, 30.63431740, -59.92399979, 106.42333221, 8.80337334, -7.55339861, -0.59174925, 0.79978436, -0.00673331, -0.10066016, 0.16480581, -0.09014853, 0.21618047, 99.98900604, 111.80941772, 33.43999863, 0.00000000
1, 4.4800, 344, 0.00717941, -0.86371017, 0.05590796, 4.88367176, 16.55568695, -5.77101612, -59.89476776, 30.78047371, -59.60245514, 106.46124268, 8.80782700, -7.46478271, -0.59155846, 0.79998422, -0.00612467, -0.10023135, 0.14579460, -0.08413126, 0.22256568, 99.98900604, 111.80941772, 33.43999863, 0.00000000
1, 4.4850, 345, 0.02894464, -0.86604309, 0.05390685, 5.65362740, 9.89419842, -0.75187397, -59.89476776, 30.78047371, -59.60245514, 106.41526794, 8.75718117, -7.42781115, -0.59195483, 0.79975867, -0.00609155, -0.09969199, 0.12357296, -0.08188566, 0.22456136, 99.98900604, 111.80941772, 33.43999863, 0.00000000
1, 4.4900, 346, 0.05392934, -0.86025929, 0.04950452, 6.31239367, 3.61382437, 4.31282043, -60.36246490, 31.01432228, -61.18093872, 106.44862366, 8.73148823, -7.41638517, -0.59175372, 0.79993659, -0.00617526, -0.09945317, 0.09787673, -0.08780278, 0.22895318, 99.98900604, 111.80941772, 33.43999863, 0.00000000
1, 4.4950, 347, 0.08494361, -0.84639633, 0.04542454, 6.85840130, -2.14703465, 9.46143627, -60.36246490, 31.01432228, -61.18093872, 106.47940826, 8.68920135, -7.44027042, -0.59155393, 0.80010229, -0.00658993, -0.09928173, 0.06621406, -0.10160260, 0.23368073, 99.98900604, 111.80941772, 33.43999863, 0.00000000
1, 4.5000, 348, 0.12063404, -0.84311593, 0.04853062, 7.05223417, -8.22183800, 14.50189686, -60.36246490, 31.01432228, -61.18093872, 106.50571442, 8.63133144, -7.50084448, -0.59136683, 0.80024534, -0.00733839, -0.09919167, 0.02958364, -0.10488949, 0.23116568, 99.98900604, 111.80941772, 33.43999863, 0.00000000
1, 4.5850, 349, -0.31768849, -0.90921557, 0.08517551, 3.11093068, -3.29818058, 78.32420349, -58.19935608, 36.18824768, -60.97632217, 106.27331543, 5.12473154, -12.32806492, -0.59200341, 0.79752737, -0.05915669, -0.09991263, 0.40881848, -0.04679413, 0.19176936, 99.98900604, 111.80941772, 33.43999863, 0.00000000
1, 4.5900, 350, -0.32311964, -0.91157699, 0.04317104, 0.88455105, 9.82161617, 76.56211090, -58.14089203, 36.21747971, -61.38555908, 106.27345276, 4.74341297, -12.38779449, -0.59232277, 0.79739600, -0.06156765, -0.09758607, 0.40740052, -0.04500362, 0.23375648, 99.98900604, 111.80941772, 33.43999863, 0.00000000
1, 4.5950, 351, -0.35248673, -0.90209055, -0.03593953, -1.08921289, 31.31871796, 74.15525818, -58.14089203, 36.21747971, -61.38555908, 106.27262878, 4.34367561, -12.34057045, -0.59275079, 0.79730225, -0.06332919, -0.09457874, 0.43006161, -0.05490265, 0.31295097, 99.98900604, 111.80941772, 33.43999863, 0.00000000
1, 4.6000, 352, -0.60974377, -0.87304413, -0.19518968, -1.27462769, 46.07727814, 71.60006714, -58.57936096, 37.03595352, -62.26249695, 106.27591705, 3.93564439, -12.21875858, -0.59320790, 0.79726124, -0.06461778, -0.09112415, 0.68064272, -0.08418100, 0.47179103, 99.98900604, 111.80941772, 33.43999863, 0.00000000
1, 4.6050, 353, -0.75732982, -0.78324175, -0.46354899, 0.11171354, 63.40674973, 69.89233398, -58.57936096, 37.03595352, -62.26249695, 106.29076385, 3.51165128, -12.01129436, -0.59364980, 0.79731733, -0.06540189, -0.08710656, 0.82161045, -0.17396063, 0.74024010, 99.98900604, 111.80941772, 33.43999863, 0.00000000
1, 4.6100, 354, -0.65714854, -0.63499200, -0.16766098, 11.21690845, 81.30827332, 73.99834442, -58.57936096, 37.03595352, -62.26249695, 106.36419678, 3.04292607, -11.72383976, -0.59375936, 0.79770219, -0.06590348, -0.08232754, 0.71274495, -0.32287574, 0.44590330, 99.98900604, 111.80941772, 33.43999863, 0.00000000
1, 4.6150, 355, -0.03876627, -0.43540728, 0.65626961, 33.16959763, 69.33407593, 88.89150238, -59.10552216, 37.88365936, -62.93481445, 106.54138947, 2.51929259, -11.51595974, -0.59310669, 0.79855222, -0.06730890, -0.07751434, 0.08342838, -0.52351058, -0.37354505, 99.98900604, 111.80941772, 33.43999863, 0.00000000
1, 4.6200, 356, 0.69705081, -0.57933033, 1.32302821, 62.41359329, -9.91137600, 118.52785492, -59.10552216, 37.88365936, -62.93481445, 106.84674072, 1.96639192, -11.73261833, -0.59128129, 0.79978240, -0.07189524, -0.07460397, -0.66361451, -0.37969622, -1.03402388, 99.98900604, 111.80941772, 33.43999863, 0.00000000
1, 4.6250, 357, 1.17349851, -1.25588357, 1.20539868, 75.64034271, -57.36503220, 141.34432983, -59.54399109, 39.28675842, -63.11020279, 107.21268463, 1.37479520, -12.21284103, -0.58889383, 0.80109161, -0.07854392, -0.07271357, -1.14981198, 0.29856783, -0.91024399, 99.98900604, 111.80941772, 33.43999863, 0.00000000
1, 4.6300, 358, 1.65769804, -1.98661530, 0.89301157, 51.46109390, -62.98897171, 171.27735901, -59.54399109, 39.28675842, -63.11020279, 107.46236420, 0.65107942, -12.76762295, -0.58738780, 0.80161172, -0.08630367, -0.07032749, -1.64526439, 1.03109717, -0.59287971, 99.98900604, 111.80941772, 33.43999863, 0.00000000
1, 4.7600, 359, -1.55298841, -0.50767291, 1.03554690, 21.64612389, 1.65798247, 62.67826462, -52.87927628, 50.89155197, -58.81321335, 113.57055664, -10.15532684, -27.25000000, -0.54771668, 0.79846799, -0.24342401, -0.05656929, 1.37529588, -0.39664257, -0.64702284, 99.98900604, 111.80941772, 33.43999863, 0.00000000
1, 4.7650, 360, -1.47521245, -0.59382737, 0.87102753, 17.47189903, 14.09714317, 47.85028839, -52.44080734, 51.33002090, -58.46243668, 113.66406250, -10.40263653, -27.28128242, -0.54737103, 0.79841357, -0.24479283, -0.05474648, 1.29349089, -0.30876970, -0.48113137, 99.98900604, 111.80941772, 33.43999863, 0.00000000
1, 4.7700, 361, -1.25096250, -0.66091597, 0.75542486, 7.96166754, 21.24493027, 35.34768295, -52.44080734, 51.33002090, -58.46243668, 113.69936371, -10.60702610, -27.25416946, -0.54740161, 0.79827833, -0.24553244, -0.05307540, 1.06583905, -0.24052198, -0.36456394, 99.98900604, 111.80941772, 33.43999863, 0.00000000
1, 4.7750, 362, -0.94512862, -0.75311291, 0.60382324, -1.28121781, 21.76433563, 26.29404449, -52.61619186, 52.17772675, -58.75474930, 113.68440247, -10.77108479, -27.20626259, -0.54773784, 0.79801762, -0.24592331, -0.05170155, 0.75739944, -0.14758727, -0.21263412, 99.98900604, 111.80941772, 33.43999863, 0.00000000
1, 4.7800, 363, -0.64762300, -0.86548519, 0.46812955, -7.02775478, 16.43411446, 21.33284378, -52.61619186, 52.17772675, -58.75474930, 113.64328003, -10.90179062, -27.17304230, -0.54820508, 0.79765862, -0.24625629, -0.05069325, 0.45785800, -0.03482763, -0.07713648, 99.98900604, 111.80941772, 33.43999863, 0.00000000
1, 4.7850, 364, -0.39468220, -0.98469973, 0.43753815, -9.17683506, 8.60469532, 20.22717285, -52.61619186, 52.17772675, -58.75474930, 113.59852600, -11.03046322, -27.17409134, -0.54867870, 0.79721117, -0.24681762, -0.04987153, 0.20287560, 0.08450144, -0.04698511, 99.98900604, 111.80941772, 33.43999863, 0.00000000
1, 4.7900, 365, -0.20527402, -1.08919382, 0.51679093, -10.12031174, 1.72710693, 22.00312424, -52.96696854, 52.03157043, -58.46243668, 113.55524445, -11.13492680, -27.21073914, -0.54909545, 0.79673648, -0.24751951, -0.04939123, 0.01131088, 0.18892068, -0.12676798, 99.98900604, 111.80941772, 33.43999863, 0.00000000
1, 4.7950, 366, -0.09424607, -1.15334284, 0.58999383, -13.73465443, -4.76737118, 24.27788353, -52.96696854, 52.03157043, -58.46243668, 113.50075531, -11.23698139, -27.28231239, -0.54957175, 0.79613531, -0.24844857, -0.04912054, -0.10165909, 0.25292408, -0.20072797, 99.98900604, 111.80941772, 33.43999863, 0.00000000
1, 4.8000, 367, -0.10064477, -1.14881599, 0.55414277, -19.23163223, -11.54792976, 26.18421555, -52.03157043, 51.62233353, -59.28091049, 113.42589569, -11.33447933, -27.38941574, -0.55016840, 0.79536569, -0.24959502, -0.04909843, -0.09686367, 0.24828464, -0.16612592, 99.98900604, 111.80941772, 33.43999863, 0.00000000
1, 4.8050, 368, -0.22653258, -1.09116662, 0.43754819, -21.09318352, -16.12520981, 27.57100105, -52.03157043, 51.62233353, -59.28091049, 113.34667969, -11.42945766, -27.52066040, -0.55078137, 0.79452431, -0.25089514, -0.04922161, 0.02768415, 0.19058663, -0.05112801, 99.98900604, 111.80941772, 33.43999863, 0.00000000
1, 4.9100, 369, -0.26333708, -0.81824493, 0.24194351, -11.82799530, -6.34135628, 12.08804131, -51.24232483, 46.91610718, -57.87781143, 111.73181915, -12.60459042, -29.23269653, -0.56261951, 0.78055459, -0.26721489, -0.05282096, 0.04470608, -0.08866052, 0.11759816, 99.98900604, 111.80941772, 33.43999863, 0.00000000
1, 4.9150, 370, -0.25355634, -0.83556604, 0.23379275, -10.06921959, -4.66053629, 12.35107899, -51.24232483, 46.91610718, -57.87781143, 111.69158936, -12.65354061, -29.27826500, -0.56293571, 0.78015286, -0.26772743, -0.05279200, 0.03412992, -0.07142165, 0.12501150, 99.98900604, 111.80941772, 33.43999863, 0.00000000
1, 4.9200, 371, -0.23043489, -0.86097527, 0.22416215, -8.49286175, -2.56693029, 12.76648998, -51.24232483, 46.91610718, -57.87781143, 111.65724945, -12.70827103, -29.31459427, -0.56322336, 0.77978951, -0.26820579, -0.05266330, 0.01012603, -0.04603252, 0.13401636, 99.98900604, 111.80941772, 33.43999863, 0.00000000
1, 4.9250, 372, -0.21299383, -0.88407135, 0.21441385, -6.88533640, -0.09177850, 13.26070118, -51.15463257, 50.62847137, -58.46243668, 111.62861633, -12.76984406, -29.34003067, -0.56348598, 0.77946556, -0.26864344, -0.05241954, -0.00829394, -0.02290252, 0.14320140, 99.98900604, 111.80941772, 33.43999863, 0.00000000
1, 4.9300, 373, -0.19295666, -0.90943229, 0.19659364, -4.64416647, 3.03876448, 14.25319958, -51.15463257, 50.62847137, -58.46243668, 111.60831451, -12.84176540, -29.35237312, -0.56371111, 0.77919197, -0.26904252, -0.05201882, -0.02948178, 0.00260301, 0.16058528, 99.98900604, 111.80941772, 33.43999863, 0.00000000
1, 4.9350, 374, -0.16733553, -0.92146277, 0.18776646, -3.27720046, 4.97288609, 15.43861961, -51.38848114, 50.19000244, -58.75474930, 111.52749634, -12.90226173, -29.34278679, -0.56434244, 0.77869457, -0.26921374, -0.05173335, -0.05624396, 0.01458703, 0.16858026, 99.98900604, 111.80941772, 33.43999863, 0.00000000
1, 4.9400, 375, -0.13348672, -0.92657113, 0.19994590, -2.01534820, 6.86207199, 17.00988388, -51.38848114, 50.19000244, -58.75474930, 111.51745605, -12.99398327, -29.34189415, -0.56452852, 0.77846169, -0.26961720, -0.05110370, -0.09146169, 0.01968562, 0.15566607, 99.98900604, 111.80941772, 33.43999863, 0.00000000
1, 4.9450, 376, -0.09281286, -0.92409611, 0.22300510, -0.78947741, 8.78575230, 18.58242607, -51.38848114, 50.19000244, -58.75474930, 111.51211548, -13.09652996, -29.33475304, -0.56469870, 0.77824426, -0.27002904, -0.05035554, -0.13389097, 0.01749732, 0.13246407, 99.98900604, 111.80941772, 33.43999863, 0.00000000
1, 4.9500, 377, -0.04866635, -0.92836893, 0.21074715, 0.59068495, 9.76502228, 20.37586021, -50.97924423, 50.80385971, -57.70242691, 111.51340485, -13.20919132, -29.32627487, -0.56483680, 0.77804142, -0.27048016, -0.04951360, -0.17988023, 0.02219350, 0.14465667, 99.98900604, 111.80941772, 33.43999863, 0.00000000
1, 4.9550, 378, -0.02913607, -0.93862784, 0.18174666, 1.65612209, 10.32123280, 22.26837158, -50.97924423, 50.80385971, -57.70242691, 111.52021027, -13.33167458, -29.31869316, -0.56494868, 0.77784288, -0.27098370, -0.04859344, -0.20137650, 0.03297982, 0.17359847, 99.98900604, 111.80941772, 33.43999863, 0.00000000
1, 5.0600, 379, -0.13757813, -0.94382834, 0.25204161, 20.12173843, 2.36235619, 80.80138397, -49.78076553, 52.73311996, -57.81935120, 113.34403229, -18.32477379, -31.56353760, -0.55815923, 0.76998985, -0.30853519, -0.01949419, -0.17588094, 0.07110699, 0.12185758, 99.98900604, 111.80941772, 33.43999863, 0.00000000
1, 5.0650, 380, -0.19484627, -0.92713177, 0.25031346, 20.26171875, 3.23173094, 83.83480835, -49.78076553, 52.73311996, -57.81935120, 113.49698639, -18.71586037, -31.72283554, -0.55758411, 0.76935792, -0.31128314, -0.01706487, -0.12502211, 0.05737345, 0.12493356, 99.98900604, 111.80941772, 33.43999863, 0.00000000
