SensorId, TimeStamp (s), FrameNumber, AccX (g), AccY (g), AccZ (g), GyroX (deg/s), GyroY (deg/s), GyroZ (deg/s), MagX (uT), MagY (uT), MagZ (uT), EulerX (deg), EulerY (deg), EulerZ (deg), QuatW, QuatX, QuatY, QuatZ, LinAccX (g), LinAccY (g), LinAccZ (g), Pressure (kPa), Altitude (m), Temperature (degC), HeaveMotion (m)
1, 0.0000, 0, -0.24846593, -0.95043218, 0.01688502, 23.46236801, 6.76653957, -102.12718201, -61.41479111, 11.28325081, -79.85968781, 102.34368134, -4.53576088, 0.00191225, -0.62649548, 0.77841997, -0.02479792, 0.03083794, 0.16721928, -0.02334699, 0.19357197, 99.98600769, 112.06170654, 32.77000046, 0.00000000
1, 0.0050, 1, -0.23611785, -0.95633888, 0.02754015, 21.36936188, 4.31442308, -97.91767120, -61.41479111, 11.28325081, -79.85968781, 102.43986511, -4.06174326, 0.12768103, -0.62590837, 0.77909034, -0.02132790, 0.02832329, 0.16316792, -0.01771949, 0.18474790, 99.98600769, 112.06170654, 32.77000046, 0.00000000
1, 0.0100, 2, -0.22609715, -0.97217143, 0.03302522, 18.32517242, 1.30993772, -92.79787445, -61.23940277, 10.46477604, -80.00584412, 102.52323151, -3.60974264, 0.23391338, -0.62540376, 0.77966285, -0.01811747, 0.02584369, 0.16112074, -0.00210594, 0.18086830, 99.98600769, 112.06170654, 32.77000046, 0.00000000
1, 0.0150, 3, -0.22219457, -0.98085415, 0.03678892, 15.82174301, -2.56646800, -88.89749908, -61.23940277, 10.46477604, -80.00584412, 102.59626007, -3.17276955, 0.31752658, -0.62496650, 0.78015572, -0.01514828, 0.02333677, 0.16487440, 0.00639746, 0.17848197, 99.98600769, 112.06170654, 32.77000046, 0.00000000
1, 0.0200, 4, -0.21412182, -0.98762679, 0.04130563, 12.74086857, -8.45821857, -83.95120239, -60.91785812, 9.55860806, -79.42121887, 102.65633392, -2.75367975, 0.36743557, -0.62461537, 0.78055626, -0.01251139, 0.02076253, 0.16416353, 0.01301649, 0.17513140, 99.98600769, 112.06170654, 32.77000046, 0.00000000
1, 0.0250, 5, -0.20368806, -0.98763740, 0.03884117, 9.95262527, -12.20876503, -79.58853149, -60.91785812, 9.55860806, -79.42121887, 102.69766998, -2.35750842, 0.39491761, -0.62438625, 0.78083724, -0.01015767, 0.01821765, 0.16076872, 0.01289378, 0.17849985, 99.98600769, 112.06170654, 32.77000046, 0.00000000
1, 0.0300, 6, -0.18830249, -0.97820723, 0.04262195, 7.52147675, -16.06224060, -75.16275787, -60.91785812, 9.55860806, -79.42121887, 102.73417664, -1.97313881, 0.39869359, -0.62418556, 0.78107870, -0.00803219, 0.01562186, 0.15210387, 0.00333658, 0.17544536, 99.98600769, 112.06170654, 32.77000046, 0.00000000
1, 0.0350, 7, -0.18129255, -0.96151364, 0.05386372, 5.66268492, -20.12617111, -70.46886444, -60.04092407, 6.89856768, -79.30429840, 102.76226807, -1.60724092, 0.37770376, -0.62403625, 0.78126258, -0.00617868, 0.01301516, 0.15153044, -0.01346757, 0.16480470, 99.98600769, 112.06170654, 32.77000046, 0.00000000
1, 0.0400, 8, -0.18536045, -0.94847786, 0.06324721, 4.19089699, -23.83853722, -65.77150726, -60.04092407, 6.89856768, -79.30429840, 102.78350830, -1.26019144, 0.33359757, -0.62392700, 0.78139997, -0.00458728, 0.01040982, 0.16171287, -0.02658876, 0.15586159, 99.98600769, 112.06170654, 32.77000046, 0.00000000
1, 0.0750, 9, -0.28142583, -0.89400184, 0.07788542, -4.46119785, -34.59708405, -38.40184402, -58.49166870, 9.00321579, -79.68430328, 102.71437073, 0.67687041, -0.41093636, -0.62443221, 0.78104848, 0.00088766, -0.00685282, 0.29220319, -0.08151203, 0.14018379, 99.98600769, 112.06170654, 32.77000046, 0.00000000
1, 0.0800, 10, -0.28296405, -0.88523936, 0.08419938, -5.36258841, -32.90147781, -35.33546448, -58.49166870, 9.00321579, -79.68430328, 102.68545532, 0.88512081, -0.53294653, -0.62460732, 0.78088695, 0.00119317, -0.00893672, 0.29730678, -0.09035761, 0.13334940, 99.98600769, 112.06170654, 32.77000046, 0.00000000
1, 0.0850, 11, -0.27115750, -0.87419832, 0.09257982, -6.25320053, -32.14154434, -32.46678925, -58.49166870, 8.76936531, -80.18123627, 102.65170288, 1.07847035, -0.65449077, -0.62481087, 0.78069854, 0.00142211, -0.01091628, 0.28891659, -0.10148220, 0.12445086, 99.98600769, 112.06170654, 32.77000046, 0.00000000
1, 0.0900, 12, -0.25360993, -0.85709715, 0.09923896, -7.10448217, -31.72604752, -29.74703217, -58.49166870, 8.76936531, -80.18123627, 102.61331177, 1.25801098, -0.77709460, -0.62504214, 0.78048450, 0.00157019, -0.01280729, 0.27454430, -0.11867531, 0.11721718, 99.98600769, 112.06170654, 32.77000046, 0.00000000
1, 0.0950, 13, -0.23124711, -0.83328974, 0.09240787, -8.25104618, -30.40889168, -26.96697044, -57.76088715, 8.74013424, -79.88892365, 102.56893158, 1.42245603, -0.89641941, -0.62531137, 0.78023744, 0.00166026, -0.01457737, 0.25513637, -0.14257053, 0.12339503, 99.98600769, 112.06170654, 32.77000046, 0.00000000
1, 0.1000, 14, -0.21304040, -0.82853925, 0.09001205, -8.86124039, -29.36211395, -24.34039116, -57.76088715, 8.74013424, -79.88892365, 102.52124786, 1.57284021, -1.01359928, -0.62560099, 0.77997237, 0.00168999, -0.01623985, 0.23961787, -0.14742854, 0.12502882, 99.98600769, 112.06170654, 32.77000046, 0.00000000
1, 0.1050, 15, -0.19365244, -0.82879329, 0.09140100, -9.21464348, -28.94217491, -21.62686157, -57.76088715, 8.74013424, -79.88892365, 102.47152710, 1.70941830, -1.13178515, -0.62590247, 0.77969629, 0.00163914, -0.01781377, 0.22267336, -0.14729562, 0.12283609, 99.98600769, 112.06170654, 32.77000046, 0.00000000
1, 0.1100, 16, -0.17002787, -0.83137512, 0.09534197, -10.06550407, -28.56148529, -18.90793991, -58.08243179, 8.38935947, -79.94738007, 102.41727448, 1.83219481, -1.25115156, -0.62623316, 0.77939558, 0.00150695, -0.01930019, 0.20123798, -0.14485443, 0.11803335, 99.98600769, 112.06170654, 32.77000046, 0.00000000
1, 0.1750, 17, -0.21181653, -0.80687785, 0.09942741, -10.87680817, -43.76081467, 7.62513018, -56.85472107, 7.86319780, -79.27506256, 101.48723602, 2.46206832, -3.60564923, -0.63180929, 0.77418774, -0.01076643, -0.03653030, 0.25463280, -0.17228629, 0.09798253, 99.98600769, 112.06170654, 32.77000046, 0.00000000
1, 0.1800, 18, -0.22280236, -0.80784774, 0.10934605, -10.17349911, -42.90427780, 8.47784710, -56.85472107, 7.86319780, -79.27506256, 101.42705536, 2.46264935, -3.82454348, -0.63214469, 0.77383399, -0.01222225, -0.03774747, 0.26549238, -0.17155319, 0.08697040, 99.98600769, 112.06170654, 32.77000046, 0.00000000
1, 0.1850, 19, -0.22483908, -0.80555201, 0.10903376, -10.40228462, -38.50265503, 9.32176971, -56.56240845, 7.95089149, -79.04121399, 101.36666870, 2.45454860, -4.02266788, -0.63248897, 0.77347809, -0.01358448, -0.03879289, 0.26743400, -0.17406097, 0.08624966, 99.98600769, 112.06170654, 32.77000046, 0.00000000
1, 0.1900, 20, -0.23099473, -0.80598807, 0.10436796, -10.37459755, -34.81979370, 9.72466850, -56.56240845, 7.95089149, -79.04121399, 101.30722046, 2.44068217, -4.20309448, -0.63283342, 0.77312672, -0.01485839, -0.03970295, 0.27338362, -0.17383090, 0.08988211, 99.98600769, 112.06170654, 32.77000046, 0.00000000
1, 0.1950, 21, -0.22973666, -0.80358481, 0.09621067, -10.13834953, -30.75046730, 10.06402111, -56.27009583, 8.21397209, -79.27506256, 101.24982452, 2.42101955, -4.36385536, -0.63317156, 0.77278674, -0.01603153, -0.04046628, 0.27182871, -0.17643248, 0.09705594, 99.98600769, 112.06170654, 32.77000046, 0.00000000
1, 0.2000, 22, -0.21920812, -0.80222023, 0.09225447, -9.72104645, -27.02013588, 10.07751846, -56.27009583, 8.21397209, -79.27506256, 101.19535065, 2.39753962, -4.50628328, -0.63349694, 0.77246338, -0.01710248, -0.04110323, 0.26091194, -0.17799428, 0.10010061, 99.98600769, 112.06170654, 32.77000046, 0.00000000
1, 0.2050, 23, -0.19799910, -0.79957783, 0.10019462, -9.47674274, -23.70742798, 10.01316071, -55.45162201, 8.33089733, -78.80736542, 101.14285278, 2.37105870, -4.63236856, -0.63381547, 0.77215165, -0.01808003, -0.04163027, 0.23923525, -0.18084726, 0.09131458, 99.98600769, 112.06170654, 32.77000046, 0.00000000
1, 0.2100, 24, -0.16833252, -0.80009055, 0.11399750, -9.61640739, -21.05372810, 9.69261646, -55.45162201, 8.33089733, -78.80736542, 101.09026337, 2.34350324, -4.74507380, -0.63413936, 0.77184004, -0.01897287, -0.04207694, 0.20905806, -0.18055263, 0.07669292, 99.98600769, 112.06170654, 32.77000046, 0.00000000
1, 0.2150, 25, -0.14329837, -0.80108058, 0.11316640, -10.12967587, -19.80254173, 9.62381554, -55.45162201, 8.33089733, -78.80736542, 101.03540039, 2.31497955, -4.85154581, -0.63448077, 0.77151561, -0.01982784, -0.04248378, 0.18353148, -0.17976262, 0.07666092, 99.98600769, 112.06170654, 32.77000046, 0.00000000
1, 0.2200, 26, -0.12178782, -0.79428589, 0.09834721, -10.42600632, -18.82959747, 9.61572647, -55.89009094, 6.08009338, -79.09967804, 100.97931671, 2.28547001, -4.95319414, -0.63483226, 0.77118397, -0.02065496, -0.04285830, 0.16154967, -0.18674007, 0.09058909, 99.98600769, 112.06170654, 32.77000046, 0.00000000
1, 0.2700, 27, -0.29171923, -0.71596849, 0.42460009, 10.54613304, -47.01728439, 49.68794632, -55.18854141, 7.04472351, -79.09967804, 100.69979858, 1.61861467, -6.26121807, -0.63648802, 0.76922190, -0.03304537, -0.04570355, 0.31990308, -0.26697481, -0.24119735, 99.98600769, 112.06170654, 32.77000046, 0.00000000
1, 0.2750, 28, -0.18934537, -0.57624364, 1.07579875, 36.74030685, -94.62941742, 79.45114899, -55.18854141, 7.04472351, -79.09967804, 100.88019562, 1.31495500, -6.79971552, -0.63519746, 0.76998484, -0.03842252, -0.04659836, 0.21105088, -0.40743774, -0.88948286, 99.98600769, 112.06170654, 32.77000046, 0.00000000
1, 0.2800, 29, -0.26023635, -0.69038963, 1.64223504, 55.91641617, -127.25531769, 106.33092499, -55.51008606, 8.56474686, -77.72580719, 101.14691925, 0.91413617, -7.52520800, -0.63329518, 0.77108228, -0.04563253, -0.04782351, 0.27396563, -0.29351011, -1.45188546, 99.98600769, 112.06170654, 32.77000046, 0.00000000
1, 0.2850, 30, -0.49106339, -0.93961048, 1.28342474, 54.75005722, -106.61048889, 122.43607330, -55.51008606, 8.56474686, -77.72580719, 101.41457367, 0.41762456, -8.16684532, -0.63147008, 0.77211523, -0.05280751, -0.04790838, 0.49741662, -0.04289492, -1.08941364, 99.98600769, 112.06170654, 32.77000046, 0.00000000
1, 0.2900, 31, -0.41913059, -1.66759086, 0.69763583, 32.69707489, -61.51040649, 126.49080658, -55.51008606, 8.56474686, -77.72580719, 101.57845306, -0.14103846, -8.59347248, -0.63046944, 0.77258885, -0.05882724, -0.04641277, 0.41740215, 0.68672174, -0.50106913, 99.98600769, 112.06170654, 32.77000046, 0.00000000
1, 0.2950, 32, -0.20939396, -1.90723085, 0.42564446, -5.96315861, -38.31361389, 125.74817657, -55.97778320, 7.80473518, -77.57965088, 101.55238342, -0.71902758, -8.90657234, -0.63080740, 0.77201951, -0.06410574, -0.04425256, 0.19834813, 0.92696357, -0.22843617, 99.98600769, 112.06170654, 32.77000046, 0.00000000
1, 0.3000, 33, 0.14361145, -1.73410475, 0.08748714, -40.19755936, -34.94150925, 120.97147369, -55.97778320, 7.80473518, -77.57965088, 101.35800934, -1.27811646, -9.19715500, -0.63227737, 0.77050298, -0.06906429, -0.04219976, -0.16376528, 0.75390363, 0.10773358, 99.98600769, 112.06170654, 32.77000046, 0.00000000
1, 0.3050, 34, 0.42088279, -1.31096864, -0.02830199, -16.77449036, -24.68480301, 108.29898071, -55.86085892, 10.40631390, -77.66735077, 101.28144836, -1.78545153, -9.42365932, -0.63295096, 0.76966614, -0.07335232, -0.04008225, -0.44979733, 0.33077836, 0.22289011, 99.98600769, 112.06170654, 32.77000046, 0.00000000
1, 0.3100, 35, 0.66597593, -1.02145374, 0.14519364, 19.19224358, 33.04172516, 93.12812805, -55.86085892, 10.40631390, -77.66735077, 101.37583923, -2.27414536, -9.35214710, -0.63256288, 0.76995450, -0.07559232, -0.03633520, -0.70390427, 0.04143612, 0.05130379, 99.98600769, 112.06170654, 32.77000046, 0.00000000
1, 0.3150, 36, 1.22386742, -0.95122325, 0.85025096, 49.41778564, 64.90400696, 75.20556641, -55.86085892, 10.40631390, -77.66735077, 101.61325836, -2.70624280, -9.10791016, -0.63122231, 0.77117050, -0.07639320, -0.03191701, -1.27143812, -0.02892156, -0.64881927, 99.98600769, 112.06170654, 32.77000046, 0.00000000
1, 0.3550, 37, 0.79672247, -1.69180882, -1.26549232, -29.11831474, -95.93630219, 104.65466309, -57.70242691, 12.21864891, -76.08885956, 102.34184265, -5.63529444, -12.54115582, -0.62667745, 0.77005631, -0.11562191, -0.03033504, -0.88994795, 0.72160125, 1.47772622, 99.98600769, 112.06170654, 32.77000046, 0.00000000
1, 0.3600, 38, 0.66347045, -1.48150659, -1.14571357, 3.51628470, -51.54447937, 112.86862183, -57.70242691, 12.21864891, -76.08885956, 102.39891815, -6.13197470, -12.91483307, -0.62643266, 0.76950985, -0.12082419, -0.02895188, -0.76516247, 0.51196975, 1.35805941, 99.98600769, 112.06170654, 32.77000046, 0.00000000
1, 0.3650, 39, 0.51346833, -1.72755623, -0.42131945, 23.96208191, 9.31652260, 119.87766266, -57.70242691, 12.21864891, -76.08885956, 102.52942657, -6.72715521, -12.99820137, -0.62581152, 0.76954162, -0.12461568, -0.02522960, -0.62691832, 0.75836337, 0.63473880, 99.98600769, 112.06170654, 32.77000046, 0.00000000
1, 0.3700, 40, 0.49045098, -2.06809974, 0.03489876, 10.74608231, 14.28621960, 121.42622375, -58.40397644, 11.63402462, -76.11809540, 102.59233856, -7.33524084, -13.06003094, -0.62564319, 0.76918882, -0.12830643, -0.02136892, -0.61562991, 1.09972596, 0.17906801, 99.98600769, 112.06170654, 32.77000046, 0.00000000
1, 0.3750, 41, 0.48668358, -2.11864257, 0.13043600, -15.91182137, -49.49052048, 119.05364990, -58.40397644, 11.63402462, -76.11809540, 102.56327820, -7.86162376, -13.43363094, -0.62599438, 0.76803660, -0.13362706, -0.01986788, -0.62163943, 1.15130353, 0.08304505, 99.98600769, 112.06170654, 32.77000046, 0.00000000
1, 0.3800, 42, 0.13444452, -1.70803988, 0.01027839, -31.92438126, -125.19832611, 119.83650208, -59.48553085, 15.14177132, -76.11809540, 102.51052094, -8.31229115, -14.18155384, -0.62640995, 0.76634216, -0.14103575, -0.02095929, -0.27714112, 0.74179268, 0.20184034, 99.98600769, 112.06170654, 32.77000046, 0.00000000
1, 0.3850, 43, -0.50287509, -1.23712182, -0.06844196, -21.55099869, -143.77879333, 124.20394135, -59.48553085, 15.14177132, -76.11809540, 102.52970886, -8.76439476, -15.02661610, -0.62632930, 0.76483703, -0.14909831, -0.02248691, 0.35266036, 0.27211609, 0.27948371, 99.98600769, 112.06170654, 32.77000046, 0.00000000
1, 0.3900, 44, -1.06958663, -0.90884280, 0.00535120, -8.19075775, -100.98071289, 126.56122589, -59.48553085, 15.14177132, -76.11809540, 102.59004211, -9.27343178, -15.66407967, -0.62604666, 0.76367801, -0.15607053, -0.02243663, 0.91068000, -0.05478325, 0.20542805, 99.98600769, 112.06170654, 32.77000046, 0.00000000
1, 0.3950, 45, -1.34301627, -0.69444573, 0.23355848, 2.41369724, -46.42195892, 122.60904694, -59.57322311, 14.32329750, -75.76731873, 102.66400146, -9.82148647, -16.02871895, -0.62575209, 0.76285851, -0.16142106, -0.02060677, 1.17421794, -0.26777458, -0.02223331, 99.98600769, 112.06170654, 32.77000046, 0.00000000
1, 0.4000, 46, -1.49171507, -0.51098931, 0.55471611, 4.78158951, -29.60046387, 113.34049988, -59.57322311, 14.32329750, -75.76731873, 102.73699188, -10.34216499, -16.30102921, -0.62547004, 0.76216185, -0.16600044, -0.01845434, 1.31297362, -0.44991875, -0.34259397, 99.98600769, 112.06170654, 32.77000046, 0.00000000
1, 0.4400, 47, -0.43207651, -0.99600565, 0.37237841, 2.50376725, -23.63010025, 21.32455635, -61.32709503, 18.38643646, -75.50423431, 103.22119141, -12.31986713, -17.53280449, -0.62302315, 0.76002324, -0.18462530, -0.01097500, 0.21806107, 0.04421989, -0.15178338, 99.98600769, 112.06170654, 32.77000046, 0.00000000
1, 0.4450, 48, -0.27574474, -1.22238612, 0.21466409, -0.68108761, -28.78932953, 17.42144203, -61.32709503, 18.82490540, -75.15346527, 103.25301361, -12.37197208, -17.69658661, -0.62282026, 0.75985050, -0.18598604, -0.01145904, 0.06116149, 0.27119398, 0.00645866, 99.98600769, 112.06170654, 32.77000046, 0.00000000
1, 0.4500, 49, -0.16381121, -1.40479159, 0.14969370, 0.61080027, -21.15862656, 16.32499695, -61.32709503, 18.82490540, -75.15346527, 103.28301239, -12.42732620, -17.82109833, -0.62263495, 0.75972438, -0.18710284, -0.01170984, -0.05152111, 0.45401880, 0.07186419, 99.98600769, 112.06170654, 32.77000046, 0.00000000
1, 0.4550, 50, -0.06812825, -1.51999056, 0.17182064, 2.16692972, -14.37134838, 17.09790611, -61.29786682, 18.62028694, -75.18269348, 103.31382751, -12.49411011, -17.91273308, -0.62245309, 0.75963700, -0.18806088, -0.01170227, -0.14834994, 0.56953490, 0.05023567, 99.98600769, 112.06170654, 32.77000046, 0.00000000
1, 0.4600, 51, -0.03958440, -1.53311598, 0.19376045, 1.77548134, -16.67047691, 19.88731194, -61.29786682, 18.62028694, -75.18269348, 103.34604645, -12.57179832, -18.01916504, -0.62226588, 0.75951421, -0.18917347, -0.01169799, -0.17823575, 0.58302772, 0.02880931, 99.98600769, 112.06170654, 32.77000046, 0.00000000
1, 0.4650, 52, -0.09551150, -1.40369129, 0.12470581, -4.14594984, -32.12924576, 23.30975533, -61.29786682, 18.62028694, -75.18269348, 103.36658478, -12.64843273, -18.20681190, -0.62214732, 0.75919288, -0.19081703, -0.01216063, -0.12343751, 0.45409161, 0.09825982, 99.98600769, 112.06170654, 32.77000046, 0.00000000
1, 0.4700, 53, -0.16035357, -1.24715400, 0.07869358, -3.85199618, -32.23324966, 26.31802559, -61.41479111, 18.94182968, -74.97807312, 103.38979340, -12.73951244, -18.39859962, -0.62201780, 0.75885206, -0.19256242, -0.01254237, -0.05995811, 0.29804075, 0.14465854, 99.98600769, 112.06170654, 32.77000046, 0.00000000
1, 0.4750, 54, -0.23635395, -1.09083045, 0.11022604, -2.10840154, -25.77290535, 29.18388557, -61.41479111, 18.94182968, -74.97807312, 103.40822601, -12.85258579, -18.55990601, -0.62193435, 0.75849712, -0.19421841, -0.01261630, 0.01413621, 0.14215361, 0.11345389, 99.98600769, 112.06170654, 32.77000046, 0.00000000
1, 0.4800, 55, -0.27064908, -0.98595154, 0.20973140, 0.44317487, -18.87984276, 30.26210976, -62.14557266, 18.53259277, -74.94884491, 103.43987274, -12.97806168, -18.68994904, -0.62177360, 0.75824308, -0.19573212, -0.01241305, 0.04608410, 0.03768392, 0.01436324, 99.98600769, 112.06170654, 32.77000046, 0.00000000
1, 0.4850, 56, -0.24527372, -0.89042675, 0.28054702, 1.51465857, -19.37912941, 29.67573547, -62.14557266, 18.53259277, -74.94884491, 103.47759247, -13.09999943, -18.82191086, -0.62157124, 0.75802124, -0.19723988, -0.01223315, 0.01842489, -0.05734325, -0.05576031, 99.98600769, 112.06170654, 32.77000046, 0.00000000
1, 0.5150, 57, -0.46966437, -0.98585713, 0.39809522, -3.57729101, -44.77539063, 19.21545792, -61.88248825, 19.61414719, -74.51037598, 103.79003143, -13.50696564, -20.10929298, -0.61956632, 0.75675017, -0.20788179, -0.01587681, 0.23527734, 0.04080817, -0.16926095, 99.98600769, 112.06170654, 32.77000046, 0.00000000
1, 0.5200, 58, -0.48863843, -0.99324596, 0.31272385, -6.50105858, -38.85464859, 16.72983170, -61.12247849, 18.97106171, -74.39344788, 103.80789948, -13.54228210, -20.32381630, -0.61943805, 0.75639486, -0.20948161, -0.01676300, 0.25384426, 0.04857971, -0.08358459, 99.98600769, 112.06170654, 32.77000046, 0.00000000
1, 0.5250, 59, -0.45005220, -0.98557937, 0.27982399, -6.40629959, -29.37868500, 15.23693275, -61.12247849, 18.97106171, -74.39344788, 103.81756592, -13.59412670, -20.48976517, -0.61937970, 0.75605214, -0.21084349, -0.01728847, 0.21458799, 0.04118633, -0.05044315, 99.98600769, 112.06170654, 32.77000046, 0.00000000
1, 0.5300, 60, -0.38291180, -0.98027778, 0.29580531, -6.01730156, -20.67015648, 13.89725685, -62.08710861, 20.19877243, -73.83805847, 103.81595612, -13.63717461, -20.61004066, -0.61939740, 0.75574613, -0.21185684, -0.01764780, 0.14658217, 0.03606060, -0.06626426, 99.98600769, 112.06170654, 32.77000046, 0.00000000
1, 0.5350, 61, -0.31826562, -0.97090578, 0.32062292, -6.86760569, -18.31104660, 12.52717304, -62.08710861, 20.19877243, -73.83805847, 103.80700684, -13.67639828, -20.71688080, -0.61946303, 0.75543070, -0.21276045, -0.01797426, 0.08118264, 0.02678136, -0.09106693, 99.98600769, 112.06170654, 32.77000046, 0.00000000
1, 0.5400, 62, -0.28242135, -0.96336961, 0.32867247, -7.92159557, -22.57816505, 11.42236710, -61.15171051, 18.85413551, -74.18883514, 103.79756165, -13.70521355, -20.84371567, -0.61952239, 0.75509262, -0.21374218, -0.01848093, 0.04478421, 0.01931864, -0.09920797, 99.98600769, 112.06170654, 32.77000046, 0.00000000
1, 0.5450, 63, -0.28876579, -0.96498740, 0.32009614, -9.09176636, -28.87963867, 10.86643791, -61.15171051, 18.85413551, -74.18883514, 103.78962708, -13.72390938, -21.00139427, -0.61956000, 0.75472164, -0.21487515, -0.01922072, 0.05079389, 0.02100224, -0.09080323, 99.98600769, 112.06170654, 32.77000046, 0.00000000
1, 0.5500, 64, -0.30509421, -0.95804870, 0.29550293, -10.37995720, -31.25168228, 10.54588032, -61.15171051, 18.85413551, -74.18883514, 103.77799988, -13.73829269, -21.17056465, -0.61961639, 0.75431502, -0.21606047, -0.02005917, 0.06692565, 0.01412218, -0.06642867, 99.98600769, 112.06170654, 32.77000046, 0.00000000
1, 0.5550, 65, -0.32409668, -0.94522965, 0.26301649, -10.49062729, -31.00063133, 10.20275116, -61.53171539, 20.05261612, -74.45191193, 103.76548004, -13.75133514, -21.33806610, -0.61967701, 0.75390720, -0.21722712, -0.02089970, 0.08578299, 0.00135901, -0.03418996, 99.98600769, 112.06170654, 32.77000046, 0.00000000
1, 0.5600, 66, -0.35116309, -0.94278371, 0.24098183, -10.31491089, -30.91942024, 9.78182411, -61.53171539, 20.05261612, -74.45191193, 103.75364685, -13.76245213, -21.50465393, -0.61973083, 0.75350654, -0.21837732, -0.02174726, 0.11270772, -0.00105230, -0.01242677, 99.98600769, 112.06170654, 32.77000046, 0.00000000
1, 0.5950, 67, -0.18562442, -0.96435034, 0.22561206, -6.94469547, -4.54053593, 6.16141272, -61.64863968, 20.37415886, -73.75036621, 103.58985901, -13.89071083, -22.06417084, -0.62077737, 0.75130951, -0.22267249, -0.02421738, -0.05490474, 0.02040432, 0.00056503, 99.98600769, 112.06170654, 32.77000046, 0.00000000
1, 0.6000, 68, -0.15714823, -0.96372855, 0.22498374, -7.05116844, -4.41726446, 6.79664516, -61.64863968, 20.37415886, -73.75036621, 103.56196594, -13.91870308, -22.09448433, -0.62097239, 0.75104785, -0.22300807, -0.02424538, -0.08383678, 0.01978276, 0.00078035, 99.98600769, 112.06170654, 32.77000046, 0.00000000
1, 0.6050, 69, -0.13720679, -0.95925260, 0.21723111, -7.07970667, -4.75671625, 7.87553549, -61.67787170, 20.28646660, -73.42881775, 103.53468323, -13.95154572, -22.12777328, -0.62116581, 0.75077462, -0.22338797, -0.02425547, -0.10429279, 0.01533911, 0.00810595, 99.98600769, 112.06170654, 32.77000046, 0.00000000
1, 0.6100, 70, -0.12431302, -0.95842373, 0.21137339, -7.24494410, -5.48783970, 9.26229954, -61.67787170, 20.28646660, -73.42881775, 103.50788879, -13.99030685, -22.16637611, -0.62135887, 0.75048244, -0.22383291, -0.02425334, -0.11780457, 0.01456596, 0.01351666, 99.98600769, 112.06170654, 32.77000046, 0.00000000
1, 0.6150, 71, -0.11467066, -0.95617366, 0.20318541, -7.65891218, -6.22284746, 10.72224236, -62.20403290, 20.16954041, -73.89652252, 103.48039246, -14.03534222, -22.21039963, -0.62155938, 0.75016379, -0.22434506, -0.02423956, -0.12816155, 0.01239949, 0.02123911, 99.98600769, 112.06170654, 32.77000046, 0.00000000
1, 0.6200, 72, -0.11404943, -0.95436537, 0.19914918, -7.44028902, -6.35706902, 12.04824257, -62.20403290, 20.16954041, -73.89652252, 103.45456696, -14.08668709, -22.25665283, -0.62175268, 0.74983770, -0.22490430, -0.02419197, -0.12961653, 0.01069971, 0.02479892, 99.98600769, 112.06170654, 32.77000046, 0.00000000
1, 0.6250, 73, -0.11866762, -0.95170355, 0.20504874, -7.36590147, -6.25640154, 13.69714832, -62.20403290, 20.16954041, -73.89652252, 103.42672729, -14.12699127, -22.30380630, -0.62195152, 0.74951893, -0.22541250, -0.02422853, -0.12581316, 0.00811890, 0.01840708, 99.98600769, 112.06170654, 32.77000046, 0.00000000
1, 0.6300, 74, -0.12219436, -0.95312309, 0.21177509, -7.32341528, -6.49996948, 15.16299343, -62.23326492, 19.20491028, -73.37036133, 103.40269470, -14.19336700, -22.35445023, -0.62214196, 0.74916470, -0.22607723, -0.02409963, -0.12323716, 0.00965512, 0.01119051, 99.98600769, 112.06170654, 32.77000046, 0.00000000
1, 0.6350, 75, -0.12605400, -0.95536542, 0.22213101, -7.52389860, -7.17096663, 16.93721199, -62.23326492, 19.20491028, -73.37036133, 103.37908173, -14.26761436, -22.41056252, -0.62233365, 0.74878645, -0.22681776, -0.02394637, -0.12063415, 0.01209111, 0.00036087, 99.98600769, 112.06170654, 32.77000046, 0.00000000
1, 0.6400, 76, -0.12238301, -0.95336890, 0.23145263, -7.59312725, -7.02925014, 18.27345467, -62.49634552, 20.63723946, -73.89652252, 103.35540771, -14.34856796, -22.46753120, -0.62252992, 0.74839270, -0.22759782, -0.02375267, -0.12566668, 0.01031947, -0.00941254, 99.98600769, 112.06170654, 32.77000046, 0.00000000
1, 0.6700, 77, -0.12079816, -0.91764557, 0.23033243, -9.53613472, -14.95556068, 27.15272522, -62.11634064, 20.69570351, -73.63343811, 103.20651245, -14.95325279, -22.96361542, -0.62379891, 0.74542713, -0.23388176, -0.02264444, -0.13731518, -0.02342753, -0.01129893, 99.98600769, 112.06170654, 32.77000046, 0.00000000
1, 0.6750, 78, -0.13354900, -0.93248725, 0.21793132, -9.97969913, -16.21051598, 28.49549484, -62.11634064, 20.69570351, -73.63343811, 103.18643188, -15.06433105, -23.07879066, -0.62397999, 0.74486572, -0.23519190, -0.02255893, -0.12646727, -0.00813883, 0.00059947, 99.98600769, 112.06170654, 32.77000046, 0.00000000
1, 0.6800, 79, -0.15078062, -0.94808102, 0.18487641, -10.46249294, -17.18481636, 29.74029732, -62.37942123, 21.42648315, -73.57497406, 103.16622162, -15.18984890, -23.20039368, -0.62417030, 0.74425936, -0.23661633, -0.02241129, -0.11116609, 0.00796046, 0.03313155, 99.98600769, 112.06170654, 32.77000046, 0.00000000
1, 0.6850, 80, -0.15780272, -0.95175529, 0.18051383, -10.78432083, -16.70139885, 31.26316071, -62.37942123, 21.42648315, -73.57497406, 103.14450836, -15.32337952, -23.32136345, -0.62437594, 0.74362719, -0.23807603, -0.02220960, -0.10635485, 0.01214840, 0.03698140, 99.98600769, 112.06170654, 32.77000046, 0.00000000
1, 0.6900, 81, -0.14626020, -0.94538236, 0.19566701, -10.31366920, -11.09765434, 33.07323837, -62.81789017, 21.77725792, -73.10727692, 103.11850739, -15.47210026, -23.41615677, -0.62462461, 0.74299264, -0.23944128, -0.02177194, -0.12036213, 0.00630463, 0.02130667, 99.98600769, 112.06170654, 32.77000046, 0.00000000
1, 0.6950, 82, -0.12832110, -0.94022894, 0.21126093, -9.92727661, -10.30046082, 34.83992767, -62.81789017, 21.77725792, -73.10727692, 103.09421539, -15.63034344, -23.50898552, -0.62486881, 0.74234939, -0.24084158, -0.02125615, -0.14096412, 0.00174031, 0.00519432, 99.98600769, 112.06170654, 32.77000046, 0.00000000
1, 0.7000, 83, -0.11201648, -0.93856239, 0.21968389, -9.86301231, -12.25967026, 36.68523407, -62.81789017, 21.77725792, -73.10727692, 103.07377625, -15.79541588, -23.61389923, -0.62509012, 0.74168456, -0.24235450, -0.02075250, -0.16003616, 0.00072891, -0.00371106, 99.98600769, 112.06170654, 32.77000046, 0.00000000
1, 0.7050, 84, -0.10468639, -0.94059122, 0.21147954, -10.08471680, -14.11532021, 38.46654510, -61.97018433, 20.63723946, -73.42881775, 103.05570221, -15.96712303, -23.73031998, -0.62529856, 0.74099094, -0.24397478, -0.02026239, -0.17020166, 0.00348984, 0.00402120, 99.98600769, 112.06170654, 32.77000046, 0.00000000
1, 0.7600, 85, -0.15342708, -0.92517352, 0.24298690, -7.25476980, -4.58874607, 62.14255524, -63.60713196, 22.53726959, -73.75036621, 102.96842957, -18.58360481, -24.98987198, -0.62733656, 0.73212743, -0.26522768, -0.00961994, -0.16462684, 0.00069095, -0.03205210, 99.98600769, 112.06170654, 32.77000046, 0.00000000
1, 0.7650, 86, -0.15316932, -0.92021239, 0.24648608, -7.74373245, -4.91585636, 63.99874115, -64.13329315, 23.32651329, -73.54574585, 102.96282959, -18.89017487, -25.09047508, -0.62754756, 0.73117399, -0.26740047, -0.00810882, -0.16992858, -0.00264134, -0.03602293, 99.98600769, 112.06170654, 32.77000046, 0.00000000
1, 0.7700, 87, -0.16650067, -0.92206621, 0.23707767, -7.77914333, -7.43545866, 65.93711853, -64.13329315, 23.32651329, -73.54574585, 102.96263885, -19.20339775, -25.20652580, -0.62772560, 0.73019016, -0.26970196, -0.00662504, -0.16171853, 0.00094600, -0.02706971, 99.98600769, 112.06170654, 32.77000046, 0.00000000
1, 0.7750, 88, -0.19616085, -0.92054546, 0.22675724, -8.52573490, -7.06610727, 67.70801544, -64.25022125, 23.32651329, -74.36421967, 102.96025085, -19.51875877, -25.32330132, -0.62791771, 0.72917825, -0.27201483, -0.00513628, -0.13724023, 0.00121264, -0.01725085, 99.98600769, 112.06170654, 32.77000046, 0.00000000
1, 0.7800, 89, -0.20846970, -0.89920425, 0.21628614, -8.49440002, -0.48484227, 69.26657867, -64.25022125, 24.05729294, -74.36421967, 102.94707489, -19.85597229, -25.40770149, -0.62819076, 0.72812438, -0.27422643, -0.00334845, -0.13032848, -0.01826694, -0.00737530, 99.98600769, 112.06170654, 32.77000046, 0.00000000
1, 0.7850, 90, -0.18582356, -0.88596714, 0.25601932, -6.91065550, 7.15295506, 70.90066528, -64.25022125, 24.05729294, -74.36421967, 102.92940521, -20.20964241, -25.45448494, -0.62849921, 0.72708875, -0.27627754, -0.00125460, -0.15880673, -0.02960290, -0.04776426, 99.98600769, 112.06170654, 32.77000046, 0.00000000
1, 0.7900, 91, -0.14320947, -0.89170194, 0.33412784, -6.75041008, 9.02565098, 72.76597595, -64.74714661, 25.28500366, -74.62730408, 102.91024017, -20.57449150, -25.49372673, -0.62881845, 0.72602814, -0.27833354, 0.00095190, -0.20755225, -0.02192463, -0.12656961, 99.98600769, 112.06170654, 32.77000046, 0.00000000
1, 0.7950, 92, -0.11880325, -0.88242292, 0.34297854, -8.15257168, 4.66467667, 74.01186371, -64.74714661, 25.28500366, -74.62730408, 102.89287567, -20.94060898, -25.55716515, -0.62912267, 0.72490650, -0.28054613, 0.00303772, -0.23796034, -0.02908462, -0.13613209, 99.98600769, 112.06170654, 32.77000046, 0.00000000
1, 0.8000, 93, -0.20285575, -0.86192095, 0.28649953, -11.49729156, -9.26335049, 76.98230743, -65.03945923, 25.98655319, -74.59806824, 102.88675690, -21.30584717, -25.69701958, -0.62935442, 0.72365028, -0.28323320, 0.00472471, -0.15971419, -0.04729699, -0.08047788, 99.98600769, 112.06170654, 32.77000046, 0.00000000
1, 0.8050, 94, -0.28122827, -0.84716070, 0.24343453, -11.87017250, -7.46085119, 78.67747498, -65.03945923, 25.98655319, -74.59806824, 102.87699890, -21.68135452, -25.82972336, -0.62961245, 0.72235394, -0.28592068, 0.00651054, -0.08728739, -0.05970603, -0.03825200, 99.98600769, 112.06170654, 32.77000046, 0.00000000
1, 0.8500, 95, -0.28753170, -0.86070967, 0.23559372, -10.38711834, 6.29855251, 96.72296143, -66.55948639, 28.17889404, -74.86115265, 102.70827484, -25.61777306, -26.47944832, -0.63243461, 0.70963311, -0.30919513, 0.02908119, -0.14353353, -0.02015315, -0.03909860, 99.98600769, 112.06170654, 32.77000046, 0.00000000
1, 0.8550, 96, -0.29749003, -0.84668148, 0.20480232, -10.37539101, 5.41832161, 97.12246704, -66.55948639, 28.17889404, -74.86115265, 102.69618225, -26.09771538, -26.56789207, -0.63269460, 0.70802945, -0.31205902, 0.03179748, -0.14104402, -0.03062978, -0.00931927, 99.98600769, 112.06170654, 32.77000046, 0.00000000
1, 0.8600, 97, -0.31932566, -0.84398174, 0.18457781, -9.34866905, 5.96776581, 97.82353210, -66.55948639, 28.17889404, -74.86115265, 102.68905640, -26.58166504, -26.65446472, -0.63291788, 0.70643085, -0.31492206, 0.03456340, -0.12671226, -0.02969370, 0.00991950, 99.98600769, 112.06170654, 32.77000046, 0.00000000
1, 0.8650, 98, -0.33594072, -0.86976707, 0.21485955, -7.39524698, 9.37341118, 98.86128998, -67.40718842, 30.16661835, -76.08885956, 102.68470001, -27.07439613, -26.72399902, -0.63311416, 0.70485383, -0.31771389, 0.03748902, -0.11782098, -0.00022233, -0.02137100, 99.98600769, 112.06170654, 32.77000046, 0.00000000
1, 0.8700, 99, -0.36376995, -0.92378759, 0.23672214, -6.57739305, 9.72772884, 100.36657715, -67.40718842, 30.16661835, -76.08885956, 102.68506622, -27.57484627, -26.79372215, -0.63327557, 0.70326465, -0.32053468, 0.04047781, -0.09778690, 0.05764114, -0.04427451, 99.98600769, 112.06170654, 32.77000046, 0.00000000
1, 0.8750, 100, -0.40188754, -0.96447909, 0.22152370, -7.95721197, 9.37540627, 101.49741364, -67.78719330, 31.56971550, -76.38117218, 102.68064880, -28.07669449, -26.86706734, -0.63345981, 0.70161825, -0.32337815, 0.04344156, -0.06739663, 0.10232699, -0.03016772, 99.98600769, 112.06170654, 32.77000046, 0.00000000
1, 0.8800, 101, -0.43018794, -0.97688949, 0.18279742, -8.83038807, 11.22412777, 102.53404999, -67.78719330, 31.56971550, -76.38117218, 102.66845703, -28.58938026, -26.93173027, -0.63368225, 0.69990563, -0.32621527, 0.04650294, -0.04682569, 0.11885925, 0.00738442, 99.98600769, 112.06170654, 32.77000046, 0.00000000
1, 0.8850, 102, -0.43815455, -1.00187230, 0.15487169, -8.63677979, 13.24054909, 104.22710419, -67.78719330, 31.56971550, -76.38117218, 102.65344238, -29.11254311, -26.98744774, -0.63391089, 0.69815582, -0.32904103, 0.04967456, -0.04675567, 0.14809904, 0.03408004, 99.98600769, 112.06170654, 32.77000046, 0.00000000
1, 0.8900, 103, -0.44090596, -1.02686191, 0.11471864, -9.46506882, 14.48031998, 105.98475647, -68.40105438, 32.70973206, -76.14732361, 102.63246918, -29.64565086, -27.03850937, -0.63416493, 0.69634020, -0.33188063, 0.05291975, -0.05198471, 0.17750493, 0.07290867, 99.98600769, 112.06170654, 32.77000046, 0.00000000
1, 0.8950, 104, -0.45609346, -1.04575849, 0.08092337, -10.87440300, 16.66070557, 107.52684784, -68.40105438, 32.70973206, -76.14732361, 102.59973907, -30.18868828, -27.07922554, -0.63447547, 0.69444281, -0.33470258, 0.05625235, -0.04490103, 0.20093259, 0.10517742, 99.98600769, 112.06170654, 32.77000046, 0.00000000
1, 0.9500, 105, -0.81798935, -0.81528735, 0.14967446, -8.43150902, 24.70269394, 126.12490082, -69.97953796, 37.26980209, -78.45658875, 102.12858582, -36.88133621, -27.35054588, -0.63744885, 0.66999310, -0.36761251, 0.09812877, 0.21969971, 0.03140569, 0.01550806, 99.98600769, 112.06170654, 32.77000046, 0.00000000
1, 0.9550, 106, -0.74530351, -0.79267800, 0.10231823, -7.53096008, 34.97509003, 123.65927124, -69.97953796, 37.26980209, -78.45658875, 102.06015778, -37.52257538, -27.29719925, -0.63768530, 0.66764784, -0.37027311, 0.10247801, 0.13819085, 0.01529901, 0.06086071, 99.98600769, 112.06170654, 32.77000046, 0.00000000
1, 0.9600, 107, -0.65867734, -0.68940282, 0.10972709, -6.70778751, 42.84139633, 121.27746582, -69.97953796, 37.26980209, -78.45658875, 101.96257782, -38.16021347, -27.19040298, -0.63801527, 0.66530800, -0.37262994, 0.10699956, 0.04272518, -0.08158804, 0.05117948, 99.98600769, 112.06170654, 32.77000046, 0.00000000
1, 0.9650, 108, -0.62782496, -0.63054883, 0.13946302, -5.09504938, 44.42507935, 119.71733093, -70.65185547, 39.05290985, -78.80736542, 101.86326599, -38.79166412, -27.06931496, -0.63831133, 0.66301030, -0.37487787, 0.11154628, 0.00313560, -0.13407499, 0.01886361, 99.98600769, 112.06170654, 32.77000046, 0.00000000
1, 0.9700, 109, -0.66854715, -0.61832786, 0.16359107, -5.89402437, 39.76560974, 119.09067535, -70.65185547, 39.05290985, -78.80736542, 101.77541351, -39.41517639, -26.97441101, -0.63853800, 0.66070276, -0.37723035, 0.11592449, 0.03530414, -0.13987018, -0.00796186, 99.98600769, 112.06170654, 32.77000046, 0.00000000
1, 0.9750, 110, -0.70848793, -0.62224925, 0.13788874, -6.00082254, 39.63960648, 118.49312592, -71.26570892, 40.63139343, -79.62583923, 101.68505096, -40.03969574, -26.87747955, -0.63874716, 0.65836912, -0.37957737, 0.12030497, 0.06692465, -0.12936752, 0.01504846, 99.98600769, 112.06170654, 32.77000046, 0.00000000
1, 0.9800, 111, -0.72821516, -0.60106528, 0.12567733, -5.79471016, 42.90990067, 117.27151489, -71.26570892, 40.63139343, -79.62583923, 101.57859039, -40.65718079, -26.75554848, -0.63899434, 0.65603834, -0.38176644, 0.12471701, 0.07841329, -0.14396305, 0.02450857, 99.98600769, 112.06170654, 32.77000046, 0.00000000
1, 0.9850, 112, -0.72130030, -0.55135691, 0.14383006, -5.51966953, 46.35570908, 116.01818085, -71.26570892, 40.63139343, -79.62583923, 101.45492554, -41.27175522, -26.60684776, -0.63927901, 0.65369785, -0.38381073, 0.12919334, 0.06332416, -0.18714167, 0.00349215, 99.98600769, 112.06170654, 32.77000046, 0.00000000
1, 0.9900, 113, -0.71609718, -0.51907539, 0.17282064, -6.11105776, 45.01780701, 114.94223785, -71.58725739, 41.71294785, -79.74276733, 101.32989502, -41.87950516, -26.46232414, -0.63954532, 0.65134710, -0.38585383, 0.13358785, 0.05006818, -0.21289359, -0.02843637, 99.98600769, 112.06170654, 32.77000046, 0.00000000
1, 0.9950, 114, -0.72396553, -0.49949977, 0.19139734, -7.53114367, 41.61774445, 113.86277771, -71.58725739, 41.71294785, -79.74276733, 101.20867157, -42.47843170, -26.33575821, -0.63978267, 0.64897591, -0.38795856, 0.13782804, 0.05009938, -0.22592296, -0.04992545, 99.98600769, 112.06170654, 32.77000046, 0.00000000
1, 1.0200, 115, -0.73255283, -0.48236939, 0.22742291, -12.65729427, 43.65854263, 108.22810364, -72.23033905, 44.16837311, -81.61356354, 100.47116089, -45.40039444, -25.64844131, -0.64120805, 0.63665855, -0.39808318, 0.15826584, 0.02170893, -0.21010095, -0.10155852, 99.98600769, 112.06170654, 32.77000046, 0.00000000
1, 1.0250, 116, -0.76046133, -0.52750921, 0.32023090, -13.65491581, 40.67414856, 107.39852905, -72.55188751, 43.26220322, -81.46740723, 100.30774689, -45.96865845, -25.50666237, -0.64149129, 0.63414788, -0.40005127, 0.16218682, 0.04243433, -0.15852262, -0.19784138, 99.98600769, 112.06170654, 32.77000046, 0.00000000
1, 1.0300, 117, -0.80125731, -0.58108163, 0.33807510, -17.03573608, 34.87100220, 107.05788422, -72.55188751, 43.26220322, -81.46740723, 100.14305115, -46.52648926, -25.39470482, -0.64180142, 0.63155425, -0.40214598, 0.16585800, 0.07639420, -0.09838296, -0.21906200, 99.98600769, 112.06170654, 32.77000046, 0.00000000
1, 1.0350, 118, -0.83848441, -0.66950035, 0.33608249, -19.49184608, 32.03432465, 106.81121826, -72.55188751, 43.26220322, -81.46740723, 99.97737885, -47.08044434, -25.29934692, -0.64211565, 0.62890083, -0.40432155, 0.16939710, 0.10698242, -0.00337398, -0.22047548, 99.98600769, 112.06170654, 32.77000046, 0.00000000
1, 1.0400, 119, -0.83754396, -0.81490934, 0.35446104, -20.70834351, 35.45014954, 106.27717590, -72.11341858, 46.62379456, -82.31510925, 99.78363037, -47.63447189, -25.17491722, -0.64251173, 0.62618220, -0.40638578, 0.17298923, 0.09942974, 0.14861560, -0.24247421, 99.98600769, 112.06170654, 32.77000046, 0.00000000
1, 1.0450, 120, -0.79516327, -0.98146033, 0.42215696, -21.59402275, 40.89222717, 105.61197662, -72.11341858, 46.62379456, -82.31510925, 99.55101776, -48.18945313, -25.00522232, -0.64301759, 0.62339371, -0.40827563, 0.17669111, 0.05037297, 0.32168055, -0.31412777, 99.98600769, 112.06170654, 32.77000046, 0.00000000
1, 1.0500, 121, -0.72154254, -1.10940170, 0.49780393, -24.70202255, 41.85767365, 104.90340424, -71.96726227, 47.14995575, -82.54895782, 99.29171753, -48.74124527, -24.82206917, -0.64361411, 0.62050742, -0.41013294, 0.18033971, -0.02985242, 0.45612189, -0.39389616, 99.98600769, 112.06170654, 32.77000046, 0.00000000
1, 1.0550, 122, -0.66226882, -1.17555273, 0.53390038, -30.10394669, 35.51684189, 104.47050476, -71.96726227, 47.14995575, -82.54895782, 99.03556824, -49.28544617, -24.68039131, -0.64423031, 0.61751109, -0.41218963, 0.18370391, -0.09548607, 0.52882606, -0.43403572, 99.98600769, 112.06170654, 32.77000046, 0.00000000
1, 1.0600, 123, -0.65873545, -1.21521413, 0.50722545, -36.18876266, 26.99235153, 104.80046082, -71.96726227, 47.14995575, -82.92897034, 98.79386902, -49.82439423, -24.59879875, -0.64483833, 0.61439031, -0.41453400, 0.18673465, -0.10508341, 0.57516629, -0.41128260, 99.98600769, 112.06170654, 32.77000046, 0.00000000
1, 1.0650, 124, -0.70010298, -1.26540864, 0.46445304, -39.51958084, 23.21519852, 105.69923401, -72.69804382, 48.17304993, -82.92897034, 98.55471039, -50.36476898, -24.54291153, -0.64544386, 0.61117446, -0.41702566, 0.18962483, -0.06966819, 0.63214982, -0.37244070, 99.98600769, 112.06170654, 32.77000046, 0.00000000
1, 1.1200, 125, -0.74707729, -1.49380362, 0.14122841, -51.00817871, 32.22358322, 93.33626556, -72.78573608, 53.55159378, -84.06898499, 94.91819763, -56.20217896, -23.39312172, -0.65438724, 0.57188094, -0.44361842, 0.21893458, -0.08313356, 0.93773758, -0.09663312, 99.98600769, 112.06170654, 32.77000046, 0.00000000
1, 1.1250, 126, -0.73036075, -1.36179793, 0.10958722, -49.55792236, 34.81673813, 88.82282257, -73.28266144, 54.66238022, -85.55977631, 94.46383667, -56.65221024, -23.14391327, -0.65545028, 0.56844038, -0.44527268, 0.22134320, -0.10421702, 0.81206667, -0.06961745, 99.98600769, 112.06170654, 32.77000046, 0.00000000
1, 1.1300, 127, -0.75546682, -1.11065030, 0.09398969, -47.93111420, 37.35854340, 83.60488129, -73.28266144, 54.66238022, -85.55977631, 93.98595428, -57.08321381, -22.85822487, -0.65654784, 0.56508201, -0.44673184, 0.22373639, -0.08323500, 0.56693721, -0.05866289, 99.98600769, 112.06170654, 32.77000046, 0.00000000
1, 1.1350, 128, -0.77080345, -0.98303485, 0.13022079, -46.03704834, 38.62359238, 79.43970490, -72.81496429, 56.03624725, -85.58900452, 93.49608612, -57.49242783, -22.54842949, -0.65765131, 0.56183571, -0.44802481, 0.22607329, -0.07190891, 0.44501907, -0.09972355, 99.98600769, 112.06170654, 32.77000046, 0.00000000
1, 1.1400, 129, -0.77524656, -0.76779115, 0.23576172, -44.99372864, 36.58555603, 74.71591187, -72.81496429, 56.03624725, -85.58900452, 93.01591492, -57.87611389, -22.24536133, -0.65872425, 0.55872142, -0.44924262, 0.22824092, -0.07136400, 0.23505229, -0.20979896, 99.98600769, 112.06170654, 32.77000046, 0.00000000
1, 1.1450, 130, -0.76290625, -0.63027453, 0.32342812, -46.79367065, 25.82048035, 71.22238159, -72.81496429, 56.03624725, -85.58900452, 92.60317230, -58.23854446, -22.03360939, -0.65965390, 0.55572164, -0.45069626, 0.23000702, -0.08732863, 0.10262523, -0.30148888, 99.98600769, 112.06170654, 32.77000046, 0.00000000
1, 1.1500, 131, -0.78146547, -0.48661643, 0.28964344, -53.25032806, 11.56691265, 66.26782990, -72.84420013, 57.05933762, -86.02747345, 92.26589966, -58.57265472, -21.94923973, -0.66049957, 0.55276728, -0.45249963, 0.23115538, -0.07181210, -0.03605871, -0.27098686, 99.98600769, 112.06170654, 32.77000046, 0.00000000
1, 1.1550, 132, -0.86123317, -0.34503964, 0.13683534, -55.35421371, -0.65131086, 62.25279999, -72.84420013, 57.05933762, -86.02747345, 92.01364136, -58.88428879, -21.97697258, -0.66118628, 0.54994661, -0.45457405, 0.23184898, 0.00545552, -0.17275743, -0.12082054, 99.98600769, 112.06170654, 32.77000046, 0.00000000
1, 1.1600, 133, -0.90303344, -0.28456208, 0.03046780, -54.22760391, -6.62576008, 57.57432938, -72.08418274, 58.28704834, -85.93978119, 91.81365967, -59.17164993, -22.05914116, -0.66176665, 0.54730421, -0.45669198, 0.23228323, 0.04487534, -0.22873393, -0.01648815, 99.98600769, 112.06170654, 32.77000046, 0.00000000
1, 1.1650, 134, -0.98104650, -0.19069813, 0.04297139, -53.89609909, -9.13804245, 50.56988907, -72.08418274, 58.28704834, -85.93978119, 91.63389587, -59.42377853, -22.16273308, -0.66235262, 0.54482991, -0.45870727, 0.23245886, 0.12052049, -0.31874633, -0.03080871, 99.98600769, 112.06170654, 32.77000046, 0.00000000
1, 1.2550, 135, 0.03909926, -0.09514055, 0.12423605, -40.54727173, -84.79825592, -86.17907715, -71.90879822, 59.33937454, -82.92897034, 94.71257782, -58.24060440, -32.20132828, -0.66786951, 0.52597111, -0.49495074, 0.17980158, -0.89075774, -0.42796975, -0.08224683, 99.98600769, 112.06170654, 32.77000046, 0.00000000
1, 1.2600, 136, -0.03684517, -0.19020329, 0.27343675, -42.04724121, -100.84637451, -94.42923737, -71.96726227, 58.78398132, -82.72434998, 95.24044800, -57.72777557, -33.07323074, -0.66738427, 0.52755421, -0.49605495, 0.17382307, -0.81057876, -0.34013021, -0.22650391, 99.98600769, 112.06170654, 32.77000046, 0.00000000
1, 1.2650, 137, -0.11938214, -0.22130683, 0.23488367, -48.12397766, -112.17404175, -103.63030243, -71.96726227, 58.78398132, -82.72434998, 95.79650116, -57.15950775, -34.01992798, -0.66683358, 0.52922106, -0.49730280, 0.16717686, -0.72275758, -0.31661135, -0.18228385, 99.98600769, 112.06170654, 32.77000046, 0.00000000
1, 1.2700, 138, -0.18268652, -0.23167533, 0.12317484, -50.95851898, -115.11616516, -112.74285126, -71.96726227, 58.78398132, -82.72434998, 96.32718658, -56.53961182, -34.95972061, -0.66631663, 0.53099656, -0.49842161, 0.16012698, -0.65340281, -0.31437176, -0.06473584, 99.98600769, 112.06170654, 32.77000046, 0.00000000
1, 1.2750, 139, -0.23001358, -0.25193414, 0.04219804, -50.32991409, -113.16201019, -121.43227386, -71.47032928, 57.46857452, -81.14586639, 96.81192780, -55.87088013, -35.84757614, -0.66585308, 0.53294569, -0.49924201, 0.15285930, -0.59952986, -0.30291870, 0.02193435, 99.98600769, 112.06170654, 32.77000046, 0.00000000
1, 1.2800, 140, -0.27753127, -0.28341222, 0.01907305, -48.17600632, -107.82664490, -129.67492676, -71.47032928, 57.46857452, -81.14586639, 97.23497009, -55.16277313, -36.65488052, -0.66547048, 0.53506035, -0.49968129, 0.14552744, -0.54507804, -0.28088623, 0.05039632, 99.98600769, 112.06170654, 32.77000046, 0.00000000
1, 1.2850, 141, -0.31872326, -0.31273901, 0.03454364, -45.93853760, -100.51206970, -137.62611389, -71.55802155, 55.86085892, -80.38584900, 97.58592224, -54.41680527, -37.36757278, -0.66520667, 0.53733510, -0.49967885, 0.13817437, -0.49654433, -0.26155770, 0.03978244, 99.98600769, 112.06170654, 32.77000046, 0.00000000
1, 1.2900, 142, -0.36080873, -0.33270359, 0.06429568, -44.08200455, -93.97511292, -145.24049377, -71.55802155, 55.86085892, -80.38584900, 97.87254333, -53.63514328, -37.99626160, -0.66504824, 0.53975797, -0.49926713, 0.13078454, -0.44664678, -0.25207567, 0.01440320, 99.98600769, 112.06170654, 32.77000046, 0.00000000
1, 1.2950, 143, -0.42553118, -0.34527388, 0.08272702, -42.56350708, -88.84034729, -152.60353088, -71.55802155, 55.86085892, -80.38584900, 98.10646057, -52.81885147, -38.55627823, -0.66496712, 0.54232240, -0.49849367, 0.12332603, -0.37357005, -0.25039563, -0.00010837, 99.98600769, 112.06170654, 32.77000046, 0.00000000
1, 1.3000, 144, -0.48443890, -0.35171840, 0.06979396, -41.21163940, -84.89794922, -161.14962769, -71.47032928, 55.36392975, -79.59661102, 98.29648590, -51.96180344, -39.05878448, -0.66494328, 0.54505515, -0.49736431, 0.11573309, -0.30563140, -0.25528204, 0.01642199, 99.98600769, 112.06170654, 32.77000046, 0.00000000
1, 1.3350, 145, -0.61816585, -0.56897366, 0.10171221, -23.53082848, -27.88083649, -207.23094177, -71.14878845, 49.42998886, -78.36889648, 98.12016296, -45.18017960, -40.18068314, -0.66785616, 0.56853950, -0.47596711, 0.06470233, -0.09463252, -0.12571709, -0.00467695, 99.98600769, 112.06170654, 32.77000046, 0.00000000
1, 1.3400, 146, -0.63224828, -0.60406089, 0.09632563, -21.02178001, -21.68838501, -211.84732056, -71.14878845, 49.42998886, -78.36889648, 97.97383881, -44.11639404, -40.12571716, -0.66850150, 0.57234699, -0.47139639, 0.05753481, -0.06744337, -0.10379148, 0.00071521, 99.98600769, 112.06170654, 32.77000046, 0.00000000
1, 1.3450, 147, -0.64145839, -0.63643122, 0.08885067, -18.01411438, -15.40291214, -215.80186462, -71.14878845, 49.42998886, -78.36889648, 97.81443787, -43.03713226, -40.02896500, -0.66915196, 0.57625729, -0.46649399, 0.05046473, -0.04467748, -0.08455828, 0.00795885, 99.98600769, 112.06170654, 32.77000046, 0.00000000
1, 1.3500, 148, -0.64695084, -0.65958154, 0.08373288, -14.86429787, -9.05239868, -219.51127625, -71.29494476, 48.66997910, -77.84273529, 97.64493561, -41.94348907, -39.89207840, -0.66979998, 0.58026850, -0.46126330, 0.04350474, -0.02520408, -0.07448862, 0.01264669, 99.98600769, 112.06170654, 32.77000046, 0.00000000
1, 1.3550, 149, -0.63486034, -0.67269087, 0.08568102, -12.54034328, -4.75508690, -222.13745117, -71.29494476, 48.66997910, -77.84273529, 97.47308350, -40.83930206, -39.73118210, -0.67041850, 0.58433813, -0.45579290, 0.03661886, -0.02292689, -0.07435694, 0.01017527, 99.98600769, 112.06170654, 32.77000046, 0.00000000
1, 1.3600, 150, -0.60856307, -0.67756498, 0.09497420, -7.50414896, 1.09613883, -227.60032654, -71.14878845, 46.59456253, -78.57351685, 97.30572510, -39.71130371, -39.53469849, -0.67096889, 0.58859819, -0.44995978, 0.02981776, -0.03437886, -0.08240338, 0.00036541, 99.98600769, 112.06170654, 32.77000046, 0.00000000
1, 1.3650, 151, -0.57478285, -0.66869545, 0.11702856, -5.09291744, 1.14208448, -230.11862183, -71.14878845, 46.59456253, -78.57351685, 97.15643311, -38.57040405, -39.34309769, -0.67139506, 0.59291923, -0.44401261, 0.02298799, -0.05287496, -0.10408151, -0.02206017, 99.98600769, 112.06170654, 32.77000046, 0.00000000
1, 1.3700, 152, -0.53072691, -0.67078102, 0.13670601, -3.04355597, -1.00029194, -231.56278992, -71.14878845, 46.59456253, -78.31043243, 97.03199005, -37.42065811, -39.17036819, -0.67165983, 0.59727013, -0.43804365, 0.01609772, -0.08125402, -0.11456572, -0.04186782, 99.98600769, 112.06170654, 32.77000046, 0.00000000
1, 1.3750, 153, -0.49011365, -0.67388117, 0.14677678, -1.39623272, -4.94840860, -231.92324829, -69.86260986, 44.40222168, -78.31043243, 96.93834686, -36.26602554, -39.02847672, -0.67172706, 0.60162699, -0.43213943, 0.00912149, -0.10584061, -0.12371877, -0.05177288, 99.98600769, 112.06170654, 32.77000046, 0.00000000
1, 1.3800, 154, -0.47520858, -0.68183470, 0.14298610, 0.52652246, -10.89926720, -231.45863342, -69.86260986, 44.40222168, -78.31043243, 96.87830353, -35.11044312, -38.92604828, -0.67157370, 0.60596299, -0.42637265, 0.00204054, -0.10441551, -0.12763670, -0.04748673, 99.98600769, 112.06170654, 32.77000046, 0.00000000
1, 1.4050, 155, -0.71851218, -0.78119338, 0.23676713, 12.40039635, -32.38528824, -224.48054504, -69.54106903, 39.75445557, -78.13504791, 97.04904175, -29.38522148, -38.89849472, -0.66736090, 0.62745047, -0.39971325, -0.03412782, 0.22294435, -0.08155681, -0.13348591, 99.98600769, 112.06170654, 32.77000046, 0.00000000
1, 1.4100, 156, -0.81664097, -0.82580054, 0.31967261, 12.23096275, -32.92567825, -223.79020691, -68.92721558, 36.94826126, -78.36889648, 97.12238312, -28.25440598, -38.92951202, -0.66609478, 0.63161290, -0.39455444, -0.04134969, 0.33811808, -0.04647615, -0.21440144, 99.98600769, 112.06170654, 32.77000046, 0.00000000
1, 1.4150, 157, -0.86341822, -0.84489048, 0.34891075, 10.75718212, -31.74348259, -224.23402405, -68.92721558, 36.94826126, -78.36889648, 97.18374634, -27.12211609, -38.95174408, -0.66482371, 0.63568038, -0.38930777, -0.04857293, 0.40226531, -0.03649921, -0.24162409, 99.98600769, 112.06170654, 32.77000046, 0.00000000
1, 1.4200, 158, -0.93759549, -0.86409760, 0.36620915, 7.43535376, -27.97490311, -225.71429443, -68.66413116, 37.38673019, -78.19351196, 97.21772766, -25.98483086, -38.95079422, -0.66364038, 0.63962221, -0.38386565, -0.05578639, 0.49409288, -0.02612425, -0.25740063, 99.98600769, 112.06170654, 32.77000046, 0.00000000
1, 1.4250, 159, -0.99114782, -0.86966813, 0.35710278, 5.16994047, -23.32659340, -227.18707275, -68.66413116, 37.38673019, -78.19351196, 97.23194122, -24.84934425, -38.92407227, -0.66251642, 0.64346528, -0.37824315, -0.06290232, 0.56555414, -0.02904281, -0.24706882, 99.98600769, 112.06170654, 32.77000046, 0.00000000
1, 1.4300, 160, -1.03133142, -0.85610068, 0.32949993, 3.13682508, -17.25307846, -228.45356750, -68.66413116, 37.38673019, -78.19351196, 97.21949005, -23.70518875, -38.86240387, -0.66149300, 0.64722925, -0.37232754, -0.06995473, 0.62391418, -0.05078463, -0.21858130, 99.98600769, 112.06170654, 32.77000046, 0.00000000
1, 1.4350, 161, -1.05660021, -0.81994855, 0.27495939, 1.72374976, -9.31420517, -228.84223938, -67.84565735, 33.64513397, -77.95966339, 97.18457031, -22.56399155, -38.75868225, -0.66057116, 0.65091848, -0.36612990, -0.07681050, 0.66761124, -0.09476758, -0.16351929, 99.98600769, 112.06170654, 32.77000046, 0.00000000
1, 1.4400, 162, -1.04239571, -0.79855227, 0.19502981, 2.88760185, 0.24816220, -229.18997192, -67.84565735, 33.64513397, -77.95966339, 97.13880157, -21.42688560, -38.60531998, -0.65970159, 0.65461415, -0.35961396, -0.08337907, 0.67198515, -0.12359374, -0.08328510, 99.98600769, 112.06170654, 32.77000046, 0.00000000
1, 1.5600, 163, -0.30368471, -0.99162948, 0.27272168, 48.23838425, 83.88054657, -104.67059326, -61.56094742, 24.61268616, -81.14586639, 100.72214508, -2.08730936, -29.97850990, -0.61976659, 0.74074870, -0.21036306, -0.15142088, 0.26470059, 0.00918566, -0.09013121, 99.98600769, 112.06170654, 32.77000046, 0.00000000
1, 1.5650, 164, -0.27042711, -0.98854971, 0.25341645, 47.52959824, 84.89362335, -99.20433807, -61.56094742, 24.61268616, -81.14586639, 100.94182587, -1.67848384, -29.46869469, -0.61834741, 0.74348646, -0.20516574, -0.15093519, 0.23874992, 0.00660602, -0.06692966, 99.98600769, 112.06170654, 32.77000046, 0.00000000
1, 1.5700, 165, -0.24326314, -0.98194635, 0.23893932, 47.29568481, 84.83508301, -93.90986633, -61.35632706, 24.55422401, -81.99356842, 101.16400909, -1.29755092, -28.96270370, -0.61694783, 0.74614406, -0.20013256, -0.15030482, 0.21838753, 0.00057914, -0.04854783, 99.98600769, 112.06170654, 32.77000046, 0.00000000
1, 1.5750, 166, -0.20794117, -0.97909248, 0.22964595, 47.06950760, 84.08535767, -88.84229279, -61.35632706, 24.55422401, -81.99356842, 101.38922882, -0.94720113, -28.46388245, -0.61556363, 0.74871910, -0.19530097, -0.14952825, 0.18935511, -0.00162781, -0.03529501, 99.98600769, 112.06170654, 32.77000046, 0.00000000
1, 1.5800, 167, -0.18664372, -0.97698247, 0.21983737, 46.60247040, 82.98594666, -82.34283447, -61.35632706, 24.55422401, -81.99356842, 101.61450195, -0.62512946, -27.97555733, -0.61420584, 0.75119829, -0.19067721, -0.14864236, 0.17377919, -0.00302590, -0.02155768, 99.98600769, 112.06170654, 32.77000046, 0.00000000
1, 1.5850, 168, -0.16677849, -0.98895848, 0.21370308, 44.75290680, 78.53388977, -75.97581482, -61.18093872, 23.96959877, -82.16895294, 101.83348846, -0.33166140, -27.51424217, -0.61289495, 0.75352538, -0.18636428, -0.14774214, 0.15919895, 0.00968998, -0.01160617, 99.98600769, 112.06170654, 32.77000046, 0.00000000
1, 1.5900, 169, -0.15513788, -0.99371338, 0.20943978, 43.27316666, 75.57730103, -70.83972931, -61.18093872, 23.96959877, -82.16895294, 102.04745483, -0.06205230, -27.07158279, -0.61162609, 0.75573325, -0.18228514, -0.14680952, 0.15237820, 0.01520389, -0.00364036, 99.98600769, 112.06170654, 32.77000046, 0.00000000
1, 1.5950, 170, -0.15326984, -0.98867130, 0.20789333, 41.61174393, 72.90180206, -65.86988831, -61.06401443, 23.03420067, -82.66588593, 102.25514984, 0.18439069, -26.64621544, -0.61040837, 0.75782317, -0.17842670, -0.14584175, 0.15491632, 0.01092997, 0.00149217, 99.98600769, 112.06170654, 32.77000046, 0.00000000
1, 1.6000, 171, -0.15893809, -0.97594678, 0.20215012, 39.79968262, 70.85824585, -61.16348267, -61.06401443, 23.03420067, -82.66588593, 102.45552826, 0.40847796, -26.23494911, -0.60925150, 0.75979978, -0.17476311, -0.14482671, 0.16460627, -0.00101689, 0.01068703, 99.98600769, 112.06170654, 32.77000046, 0.00000000
1, 1.6050, 172, -0.16944984, -0.96366072, 0.18748452, 38.40432739, 69.59095001, -56.72430038, -61.06401443, 23.03420067, -82.66588593, 102.65040588, 0.61082113, -25.83388710, -0.60814762, 0.76168329, -0.17126834, -0.14374314, 0.17878079, -0.01250949, 0.02868164, 99.98600769, 112.06170654, 32.77000046, 0.00000000
1, 1.6300, 173, -0.26238281, -0.91457224, 0.09940540, 33.17469406, 65.59442902, -35.61651993, -61.00555420, 19.90645981, -84.09821320, 103.55686951, 1.28951406, -23.95886993, -0.60335708, 0.76991117, -0.15624359, -0.13705848, 0.28423029, -0.05766847, 0.13206330, 99.98600769, 112.06170654, 32.77000046, 0.00000000
1, 1.6350, 174, -0.28007334, -0.87836456, 0.08517643, 32.99116898, 67.05497742, -31.19785118, -60.80093384, 22.80035019, -83.77667236, 103.72983551, 1.36301410, -23.59618950, -0.60251659, 0.77138752, -0.15362100, -0.13540874, 0.30336601, -0.09311209, 0.14923233, 99.98600769, 112.06170654, 32.77000046, 0.00000000
1, 1.6400, 175, -0.27706322, -0.86519670, 0.08980099, 32.97717667, 68.99215698, -27.71638870, -60.80093384, 22.80035019, -83.77667236, 103.90333557, 1.41620171, -23.22800446, -0.60170233, 0.77284241, -0.15106255, -0.13360047, 0.30136195, -0.10554375, 0.14756891, 99.98600769, 112.06170654, 32.77000046, 0.00000000
1, 1.6450, 176, -0.25801888, -0.85213101, 0.11526734, 32.46583939, 71.14103699, -23.06682205, -60.97632217, 22.85881233, -84.27360535, 104.07469177, 1.44313478, -22.85480118, -0.60093862, 0.77425623, -0.14859930, -0.13159913, 0.28281894, -0.11791317, 0.12508525, 99.98600769, 112.06170654, 32.77000046, 0.00000000
1, 1.6500, 177, -0.22935171, -0.84685183, 0.13775344, 30.73262024, 71.24011230, -19.08149910, -60.97632217, 22.85881233, -84.27360535, 104.23743439, 1.44950223, -22.48588562, -0.60024941, 0.77559006, -0.14625631, -0.12949909, 0.25429511, -0.12252142, 0.10547376, 99.98600769, 112.06170654, 32.77000046, 0.00000000
1, 1.6550, 178, -0.20096460, -0.84168971, 0.14274324, 28.19558907, 70.18071747, -15.00840092, -60.97632217, 22.85881233, -84.27360535, 104.38726044, 1.43638861, -22.12709618, -0.59965491, 0.77681643, -0.14406298, -0.12734233, 0.22575030, -0.12703636, 0.10315366, 99.98600769, 112.06170654, 32.77000046, 0.00000000
1, 1.6600, 179, -0.18680820, -0.83489335, 0.12715864, 25.94829559, 68.70449066, -10.87882137, -61.21017075, 22.68342590, -85.15054321, 104.52546692, 1.40418434, -21.78063965, -0.59914345, 0.77794188, -0.14203443, -0.12513992, 0.21115460, -0.13320556, 0.12117201, 99.98600769, 112.06170654, 32.77000046, 0.00000000
1, 1.6650, 180, -0.18731125, -0.83120453, 0.10068726, 24.18547821, 68.28362274, -7.01067448, -61.21017075, 22.68342590, -85.15054321, 104.65449524, 1.35294819, -21.44113922, -0.59870386, 0.77898711, -0.14013708, -0.12285981, 0.21091308, -0.13629568, 0.14986464, 99.98600769, 112.06170654, 32.77000046, 0.00000000
1, 1.6700, 181, -0.18700284, -0.82112134, 0.07160626, 23.11674309, 69.23330688, -3.39910984, -60.94709015, 21.45571518, -85.38439178, 104.77782440, 1.28228092, -21.10173798, -0.59831959, 0.77997959, -0.13833047, -0.12045816, 0.20952728, -0.14580591, 0.18107237, 99.98600769, 112.06170654, 32.77000046, 0.00000000
1, 1.6750, 182, -0.17967887, -0.81699383, 0.05532311, 22.96813965, 70.44741058, -0.31873953, -60.94709015, 21.45571518, -85.38439178, 104.89048004, 1.18248916, -20.76059151, -0.59803808, 0.78088784, -0.13664782, -0.11786459, 0.20068002, -0.14941618, 0.19937083, 99.98600769, 112.06170654, 32.77000046, 0.00000000
1, 1.6800, 183, -0.15758768, -0.82232857, 0.07160684, 22.73021889, 70.16878510, 2.51687479, -60.97632217, 23.56036186, -85.58900452, 105.01080322, 1.08064306, -20.42457008, -0.59769064, 0.78182405, -0.13501289, -0.11527628, 0.17672387, -0.14362141, 0.18510288, 99.98600769, 112.06170654, 32.77000046, 0.00000000
1, 1.7050, 184, -0.01503729, -0.81929696, 0.04465073, 9.41067791, 48.54652786, 17.80432701, -61.29786682, 22.82958221, -86.61209869, 105.40499115, 0.42845252, -19.11177635, -0.59704792, 0.78483212, -0.12982540, -0.10352647, 0.02306681, -0.14487165, 0.21940348, 99.98600769, 112.06170654, 32.77000046, 0.00000000
1, 1.7100, 185, -0.02453296, -0.82624292, 0.01423214, 7.19508982, 44.20534897, 20.84869957, -61.29786682, 22.82958221, -86.61209869, 105.44235992, 0.26957068, -18.92614365, -0.59714276, 0.78510141, -0.12941623, -0.10142945, 0.02989950, -0.13770652, 0.25047153, 99.98600769, 112.06170654, 32.77000046, 0.00000000
1, 1.7150, 186, -0.03586139, -0.83071005, -0.03362621, 6.30201912, 39.19305801, 23.29940987, -61.29786682, 22.82958221, -86.61209869, 105.47468567, 0.10538989, -18.76802826, -0.59724796, 0.78530806, -0.12921736, -0.09944442, 0.03850401, -0.13301823, 0.29885232, 99.98600769, 112.06170654, 32.77000046, 0.00000000
1, 1.7200, 187, -0.04557566, -0.84638095, -0.04805837, 5.86759949, 34.46585846, 25.64591599, -61.50248337, 24.34960556, -87.02133942, 105.50438690, -0.06392036, -18.63591194, -0.59734911, 0.78546667, -0.12921995, -0.09756189, 0.04532043, -0.11718412, 0.31375039, 99.98600769, 112.06170654, 32.77000046, 0.00000000
1, 1.7250, 188, -0.04590947, -0.84844720, -0.02610806, 4.89973545, 29.67095757, 27.71718216, -61.50248337, 24.34960556, -87.02133942, 105.50679016, -0.24082813, -18.52946663, -0.59761971, 0.78544688, -0.12941423, -0.09579118, 0.04255940, -0.11508054, 0.29203880, 99.98600769, 112.06170654, 32.77000046, 0.00000000
1, 1.7300, 189, -0.05004204, -0.85848475, 0.01422450, 4.47410345, 24.08687973, 29.48231888, -61.56094742, 24.78807259, -87.34288025, 105.52907562, -0.41490960, -18.45255661, -0.59772235, 0.78549898, -0.12981237, -0.09417074, 0.04352146, -0.10503884, 0.25187635, 99.98600769, 112.06170654, 32.77000046, 0.00000000
1, 1.7350, 190, -0.06053628, -0.86709821, 0.02866762, 2.51026678, 19.15889168, 30.93215370, -61.56094742, 24.78807259, -87.34288025, 105.54157257, -0.58945847, -18.40138626, -0.59786862, 0.78546947, -0.13038070, -0.09269186, 0.05093563, -0.09635340, 0.23764618, 99.98600769, 112.06170654, 32.77000046, 0.00000000
1, 1.7400, 191, -0.07203326, -0.86087823, 0.00817500, 0.49704325, 15.25339031, 31.84615326, -61.56094742, 24.78807259, -87.34288025, 105.54409027, -0.76324511, -18.37028694, -0.59806401, 0.78536451, -0.13107416, -0.09133385, 0.05944447, -0.10248532, 0.25819102, 99.98600769, 112.06170654, 32.77000046, 0.00000000
1, 1.7450, 192, -0.10059540, -0.86480439, -0.02473299, -0.85326153, 12.33689404, 32.42476654, -61.41479111, 24.05729294, -86.96287537, 105.53998566, -0.93595451, -18.35401154, -0.59828979, 0.78520745, -0.13185808, -0.09006787, 0.08507144, -0.09847677, 0.29096508, 99.98600769, 112.06170654, 32.77000046, 0.00000000
1, 1.7500, 193, -0.11639065, -0.86318910, -0.04275129, -2.21749187, 10.50697613, 32.71398544, -61.41479111, 24.05729294, -86.96287537, 105.52917480, -1.10763311, -18.34692764, -0.59855151, 0.78500414, -0.13269426, -0.08886454, 0.09790702, -0.10005057, 0.30879784, 99.98600769, 112.06170654, 32.77000046, 0.00000000
1, 1.7850, 194, 0.39767835, -0.84451234, 1.40301919, 48.66036224, -72.79335022, 73.68574524, -62.05787659, 26.65887070, -87.16749573, 106.00314331, -2.58928132, -18.97577858, -0.59638405, 0.78528428, -0.14502622, -0.08137598, -0.44524586, -0.11838597, -1.12898791, 99.98600769, 112.06170654, 32.77000046, 0.00000000
1, 1.7900, 195, 0.14323559, -1.14887881, 0.90700167, 16.33411598, -98.10772705, 80.64451599, -62.05787659, 26.65887070, -87.16749573, 106.11345673, -2.84174466, -19.55893326, -0.59547478, 0.78484350, -0.15039928, -0.08252633, -0.19396780, 0.18771383, -0.63163275, 99.98600769, 112.06170654, 32.77000046, 0.00000000
1, 1.7950, 196, -0.16444674, -1.32799590, 0.18511294, -2.66170120, -96.78656769, 85.57975769, -62.23326492, 27.50657654, -86.49517822, 106.13153076, -3.11937094, -20.14303017, -0.59522402, 0.78385645, -0.15583542, -0.08362346, 0.11083168, 0.36842522, 0.08976187, 99.98600769, 112.06170654, 32.77000046, 0.00000000
1, 1.8000, 197, -0.40801778, -1.38276780, -0.32689443, -23.88001633, -80.14109039, 100.02211761, -62.23326492, 27.50657654, -86.49517822, 106.04348755, -3.48992252, -20.66699600, -0.59584498, 0.78225642, -0.16125093, -0.08391631, 0.34970927, 0.42407212, 0.59998256, 99.98600769, 112.06170654, 32.77000046, 0.00000000
1, 1.8050, 198, -0.45136255, -1.15785742, -0.26762611, -13.84902096, -65.02264404, 128.43675232, -62.61326981, 28.17889404, -85.73516083, 106.00789642, -4.01837349, -21.15699005, -0.59630978, 0.78074700, -0.16727179, -0.08287913, 0.38424599, 0.19932486, 0.53988403, 99.98600769, 112.06170654, 32.77000046, 0.00000000
1, 1.8100, 199, -0.31204492, -1.48237956, 0.35998204, 53.88692474, -39.71487427, 141.84805298, -62.61326981, 28.17889404, -85.73516083, 106.30831146, -4.64442921, -21.54488182, -0.59467345, 0.78096193, -0.17332090, -0.08013635, 0.23291400, 0.52455604, -0.08465691, 99.98600769, 112.06170654, 32.77000046, 0.00000000
1, 1.8150, 200, -0.23465359, -1.75775433, 0.73357290, 51.96123505, -12.05339241, 132.19148254, -62.61326981, 28.17889404, -85.73516083, 106.59081268, -5.26104689, -21.78965569, -0.59325296, 0.78126281, -0.17830886, -0.07671613, 0.14377141, 0.80169189, -0.45364684, 99.98600769, 112.06170654, 32.77000046, 0.00000000
1, 1.8200, 201, 0.30094835, -1.63961315, 0.67431128, 16.67497253, 6.99036217, 111.08181763, -62.49634552, 29.17275620, -85.26746368, 106.68762207, -5.80319786, -21.91493225, -0.59309542, 0.78085220, -0.18196319, -0.07346541, -0.40151817, 0.68525183, -0.39072585, 99.98600769, 112.06170654, 32.77000046, 0.00000000
1, 1.8500, 202, 0.40025550, -1.53108621, 0.59527975, 21.37243080, -71.62312317, 102.41822052, -63.40251160, 31.04355431, -85.32592773, 107.04019928, -7.85153818, -23.98135185, -0.59164107, 0.77621979, -0.20647109, -0.06937912, -0.53667593, 0.58253586, -0.30714557, 99.98600769, 112.06170654, 32.77000046, 0.00000000
1, 1.8550, 203, 0.45234826, -1.61992478, 0.50119674, 10.62913227, -99.95839691, 106.54153442, -62.96404648, 32.09587860, -84.68283844, 107.18424225, -8.21444798, -24.62143898, -0.59068310, 0.77522272, -0.21268876, -0.06990562, -0.59496391, 0.67316866, -0.21079192, 99.98600769, 112.06170654, 32.77000046, 0.00000000
1, 1.8600, 204, 0.41710848, -1.56821883, 0.24610944, -3.53727293, -134.10668945, 107.80075073, -62.96404648, 32.09587860, -84.68283844, 107.28558350, -8.53192806, -25.42965698, -0.58986366, 0.77370554, -0.21977854, -0.07167991, -0.56471729, 0.62321901, 0.04584159, 99.98600769, 112.06170654, 32.77000046, 0.00000000
1, 1.8650, 205, 0.18525401, -1.25939322, -0.09144134, -18.45608711, -185.56105042, 108.55189514, -62.96404648, 32.09587860, -84.68283844, 107.35399628, -8.77582741, -26.48869324, -0.58901441, 0.77157903, -0.22815956, -0.07530641, -0.33653185, 0.31598341, 0.38436189, 99.98600769, 112.06170654, 32.77000046, 0.00000000
1, 1.8700, 206, -0.16666599, -1.04292095, -0.04219616, -11.70080566, -152.40524292, 111.18404388, -63.46097565, 31.18971062, -83.45513153, 107.43695068, -9.08012199, -27.39253044, -0.58823121, 0.76964843, -0.23577869, -0.07767787, 0.01037502, 0.10057428, 0.33569807, 99.98600769, 112.06170654, 32.77000046, 0.00000000
1, 1.8750, 207, -0.52920508, -0.90634060, 0.23931403, -1.14526427, -83.67007446, 113.07358551, -63.46097565, 31.18971062, -83.45513153, 107.52639771, -9.50659180, -27.96834373, -0.58778352, 0.76814669, -0.24177493, -0.07749927, 0.36543310, -0.03496813, 0.05461679, 99.98600769, 112.06170654, 32.77000046, 0.00000000
1, 1.8800, 208, -0.59293896, -0.87479818, 0.52407652, 1.86401355, -47.80894089, 110.45493317, -62.58403778, 33.35282135, -83.16281891, 107.60465240, -9.96158791, -28.36792564, -0.58757502, 0.76686394, -0.24670488, -0.07623737, 0.42057431, -0.06527514, -0.22930007, 99.98600769, 112.06170654, 32.77000046, 0.00000000
1, 1.8850, 209, -0.36190152, -0.89683783, 0.88510770, -0.87883967, -66.99875641, 102.04055023, -62.58403778, 33.35282135, -83.16281891, 107.68640137, -10.34702492, -28.84872055, -0.58720726, 0.76551563, -0.25183085, -0.07586012, 0.18163343, -0.04223419, -0.58887810, 99.98600769, 112.06170654, 32.77000046, 0.00000000
1, 1.8900, 210, -0.09513534, -1.19914758, 1.10695100, 0.78754920, -90.14282227, 88.67363739, -62.58403778, 33.35282135, -83.16281891, 107.79589844, -10.63290119, -29.42220116, -0.58646947, 0.76425624, -0.25710297, -0.07657796, -0.09100632, 0.26117310, -0.80918956, 99.98600769, 112.06170654, 32.77000046, 0.00000000
1, 1.8950, 211, 0.05796571, -2.03065205, 0.81692594, 11.44212246, -91.76061249, 75.63529205, -63.22712708, 34.84361267, -82.75357819, 107.95886993, -10.85278320, -29.98437691, -0.58529878, 0.76338750, -0.26200962, -0.07756329, -0.24738631, 1.09464979, -0.51795542, 99.98600769, 112.06170654, 32.77000046, 0.00000000
1, 1.9200, 212, -0.14984788, -1.14618087, 0.00399678, -22.41011047, 11.31323051, 105.58332825, -63.46097565, 35.83747482, -81.78894806, 107.85978699, -12.61740875, -31.34693909, -0.58744484, 0.75605094, -0.27933484, -0.07257970, -0.06626772, 0.21692193, 0.29339814, 99.98600769, 112.06170654, 32.77000046, 0.00000000
1, 1.9250, 213, -0.03304487, -0.67522478, 0.69693983, -13.95454311, -29.99956894, 114.55094910, -63.46097565, 35.83747482, -81.78894806, 107.88329315, -13.11149025, -31.67729759, -0.58775002, 0.75429893, -0.28384811, -0.07080542, -0.19356290, -0.25330067, -0.39914286, 99.98600769, 112.06170654, 32.77000046, 0.00000000
1, 1.9300, 214, -0.21571979, -0.47178346, 0.56920499, -23.44815636, -91.91815186, 114.94856262, -63.92867661, 36.33440399, -82.40280151, 107.91280365, -13.51844025, -32.30768204, -0.58771855, 0.75198007, -0.28991327, -0.07115652, -0.01780310, -0.45472717, -0.27146098, 99.98600769, 112.06170654, 32.77000046, 0.00000000
1, 1.9350, 215, -0.59163243, -0.30190265, 0.28520349, -23.83675194, -96.22339630, 109.83842468, -63.92867661, 36.33440399, -82.40280151, 107.94767761, -13.89416409, -32.95230865, -0.58760667, 0.74966955, -0.29590786, -0.07178211, 0.35238916, -0.62249303, 0.01192718, 99.98600769, 112.06170654, 32.77000046, 0.00000000
1, 1.9400, 216, -0.89596254, -0.25416049, 0.51209557, -10.00258160, -56.85070801, 101.17174530, -63.92867661, 36.33440399, -82.40280151, 108.00572968, -14.28844166, -33.39138412, -0.58750409, 0.74792403, -0.30063990, -0.07116424, 0.64956862, -0.66877425, -0.21531177, 99.98600769, 112.06170654, 32.77000046, 0.00000000
1, 1.9450, 217, -1.09159243, -0.30792642, 0.99946779, -2.53281713, -38.63502502, 90.78485870, -63.75328827, 37.41595840, -81.78894806, 108.07777405, -14.66077423, -33.72565079, -0.58735096, 0.74654680, -0.30458146, -0.07012074, 0.83751428, -0.61386585, -0.70265245, 99.98600769, 112.06170654, 32.77000046, 0.00000000
1, 1.9500, 218, -1.31431067, -0.41299227, 1.08954465, -7.21325207, -56.94981766, 80.03245544, -63.75328827, 37.41595840, -81.78894806, 108.14707947, -14.95330048, -34.13381195, -0.58706367, 0.74512160, -0.30862400, -0.07001023, 1.05471003, -0.50725138, -0.79274404, 99.98600769, 112.06170654, 32.77000046, 0.00000000
1, 1.9550, 219, -1.58315837, -0.53652823, 0.71488178, -11.66450310, -64.62329102, 70.09161377, -63.43174362, 37.29903412, -81.11663055, 108.20162964, -15.18630123, -34.56459808, -0.58677787, 0.74367797, -0.31252173, -0.07046282, 1.32036507, -0.38174456, -0.41836229, 99.98600769, 112.06170654, 32.77000046, 0.00000000
1, 1.9600, 220, -1.74342167, -0.68699074, 0.36963999, -9.69477654, -41.54885101, 59.92561722, -63.43174362, 37.29903412, -81.11663055, 108.23336792, -15.40654373, -34.86594391, -0.58670413, 0.74248374, -0.31549940, -0.07040120, 1.47775674, -0.22954780, -0.07346625, 99.98600769, 112.06170654, 32.77000046, 0.00000000
1, 1.9650, 221, -1.70093501, -0.78621197, 0.23905689, -7.66633034, -3.07728410, 48.26809692, -63.43174362, 37.29903412, -81.29202271, 108.22050476, -15.63118553, -34.95909500, -0.58705467, 0.74161464, -0.31711659, -0.06936598, 1.43183804, -0.12912907, 0.05672389, 99.98600769, 112.06170654, 32.77000046, 0.00000000
1, 1.9850, 222, -0.61922902, -0.80643785, 0.07629886, -10.22853947, 22.06195068, 15.60034275, -63.57789993, 38.55597687, -81.84741211, 107.93772125, -16.28963470, -34.59488297, -0.59002322, 0.73955613, -0.31759438, -0.06374308, 0.33897310, -0.10691532, 0.21678297, 99.98600769, 112.06170654, 32.77000046, 0.00000000
1, 1.9900, 223, -0.44909292, -0.84564590, 0.11262404, -8.39463329, 16.84939957, 12.82384109, -63.60713196, 38.40982056, -81.78894806, 107.87817383, -16.37655067, -34.53178024, -0.59056216, 0.73920983, -0.31755030, -0.06298459, 0.16720006, -0.06766401, 0.17966361, 99.98600769, 112.06170654, 32.77000046, 0.00000000
1, 1.9950, 224, -0.32693481, -0.87876761, 0.22874473, -8.47382736, 5.36080837, 11.07882118, -63.60713196, 38.40982056, -81.78894806, 107.83341217, -16.43758202, -34.52281189, -0.59093946, 0.73885310, -0.31774610, -0.06264228, 0.04361448, -0.03466218, 0.06292020, 99.98600769, 112.06170654, 32.77000046, 0.00000000
1, 2.0000, 225, -0.27701116, -0.88782918, 0.32407591, -10.04962730, -11.59441662, 10.16896343, -63.60713196, 38.40982056, -81.78894806, 107.80419159, -16.46849060, -34.59658813, -0.59112978, 0.73842120, -0.31834650, -0.06289112, -0.00718795, -0.02574641, -0.03288769, 99.98600769, 112.06170654, 32.77000046, 0.00000000
1, 2.0050, 226, -0.31196249, -0.87856019, 0.35207495, -11.42764568, -27.16456413, 9.67517471, -63.72405624, 38.46828461, -81.78894806, 107.78979492, -16.47340965, -34.74688339, -0.59114629, 0.73791653, -0.31932914, -0.06367268, 0.02751094, -0.03510193, -0.06126195, 99.98600769, 112.06170654, 32.77000046, 0.00000000
1, 2.0100, 227, -0.42201304, -0.87429774, 0.32172394, -10.86044216, -35.92726898, 9.24877834, -63.72405624, 38.46828461, -81.78894806, 107.79036713, -16.46298981, -34.94004440, -0.59101999, 0.73740613, -0.32052547, -0.06473909, 0.13775907, -0.03936537, -0.03121712, 99.98600769, 112.06170654, 32.77000046, 0.00000000
1, 2.0150, 228, -0.53176254, -0.88998389, 0.28708914, -8.22315311, -36.57831955, 8.28833103, -63.11020279, 38.49751663, -81.55509949, 107.80453491, -16.44696236, -35.13488770, -0.59079540, 0.73697317, -0.32171410, -0.06581435, 0.24784759, -0.02363772, 0.00331652, 99.98600769, 112.06170654, 32.77000046, 0.00000000
1, 2.0200, 229, -0.59530592, -0.94178271, 0.28244594, -5.79658461, -31.74396896, 6.54995728, -63.11020279, 38.49751663, -81.55509949, 107.82319641, -16.42992020, -35.30294037, -0.59055418, 0.73663944, -0.32272798, -0.06674527, 0.31168267, 0.02818438, 0.00803638, 99.98600769, 112.06170654, 32.77000046, 0.00000000
1, 2.0250, 230, -0.60211921, -1.00535095, 0.21772981, -5.73936272, -25.33743668, 3.75754738, -63.11020279, 38.49751663, -81.55509949, 107.81981659, -16.43422127, -35.43102264, -0.59050697, 0.73625004, -0.32356870, -0.06738529, 0.31877610, 0.09185462, 0.07273417, 99.98600769, 112.06170654, 32.77000046, 0.00000000
1, 2.0300, 231, -0.55886191, -1.03610075, 0.17955859, -5.56231785, -14.12402916, 1.00808299, -63.60713196, 38.70213318, -81.29202271, 107.81231689, -16.41758537, -35.50277710, -0.59048915, 0.73605043, -0.32394969, -0.06789056, 0.27572489, 0.12259900, 0.11085813, 99.98600769, 112.06170654, 32.77000046, 0.00000000
1, 2.0500, 232, -0.31231639, -1.02012706, 0.14091332, -6.22285891, 12.81938267, -4.37027597, -63.43174362, 38.35136032, -81.40894318, 107.64707184, -16.40942574, -35.24840927, -0.59168875, 0.73593557, -0.32218152, -0.06710039, 0.02946820, 0.10583200, 0.14764962, 99.98600769, 112.06170654, 32.77000046, 0.00000000
1, 2.0550, 233, -0.30022287, -0.95770848, 0.14873083, -4.33954906, 18.95481491, -3.89748740, -63.84098053, 38.38058853, -81.99356842, 107.59694672, -16.41944122, -35.14809036, -0.59208316, 0.73593342, -0.32155362, -0.06665421, 0.01723227, 0.04317739, 0.13914239, 99.98600769, 112.06170654, 32.77000046, 0.00000000
1, 2.0600, 234, -0.26946142, -0.90335476, 0.23748399, -3.12894320, 18.95390511, -3.42218947, -63.84098053, 38.38058853, -81.99356842, 107.55310822, -16.43163490, -35.04851151, -0.59243959, 0.73595560, -0.32094431, -0.06617874, -0.01395558, -0.01149386, 0.04981099, 99.98600769, 112.06170654, 32.77000046, 0.00000000
1, 2.0650, 235, -0.26132420, -0.86339939, 0.27694368, -3.57165003, 14.51290131, -2.85641575, -64.16252136, 36.01286316, -81.93510437, 107.51354218, -16.43978882, -34.97187042, -0.59274918, 0.73594505, -0.32046655, -0.06583716, -0.02234785, -0.05167416, 0.00977612, 99.98600769, 112.06170654, 32.77000046, 0.00000000
1, 2.0700, 236, -0.27166328, -0.84411955, 0.27693433, -3.62117934, 9.87070084, -2.47570348, -64.16252136, 36.01286316, -81.93510437, 107.48040009, -16.44279289, -34.91892624, -0.59299660, 0.73591411, -0.32012126, -0.06563525, -0.01208023, -0.07110936, 0.00922833, 99.98600769, 112.06170654, 32.77000046, 0.00000000
1, 2.0750, 237, -0.29281875, -0.84713411, 0.26686054, -3.26290751, 6.67364073, -2.66162419, -64.16252136, 36.01286316, -81.93510437, 107.45343018, -16.45690155, -34.88143921, -0.59321070, 0.73584408, -0.31992960, -0.06541967, 0.00897924, -0.06818753, 0.01877878, 99.98600769, 112.06170654, 32.77000046, 0.00000000
1, 2.0800, 238, -0.33074972, -0.85857081, 0.27799720, -2.74577165, 4.98245049, -3.12914371, -63.28558731, 38.11750793, -81.99356842, 107.43125916, -16.44944763, -34.85179520, -0.59335971, 0.73583055, -0.31969246, -0.06537926, 0.04684967, -0.05687591, 0.00715673, 99.98600769, 112.06170654, 32.77000046, 0.00000000
1, 2.0850, 239, -0.36087891, -0.86245465, 0.31149077, -1.96769547, 5.05508757, -4.43424797, -63.28558731, 38.11750793, -81.99356842, 107.41229248, -16.43583488, -34.81976318, -0.59348094, 0.73585558, -0.31941369, -0.06535971, 0.07710180, -0.05320325, -0.02671226, 99.98600769, 112.06170654, 32.77000046, 0.00000000
1, 2.0900, 240, -0.38531125, -0.86211109, 0.36327314, -2.57112145, 4.72580290, -5.45092869, -63.25635529, 38.58520889, -82.22741699, 107.39033508, -16.41687393, -34.78780746, -0.59361410, 0.73587805, -0.31910914, -0.06538546, 0.10169470, -0.05381830, -0.07886465, 99.98600769, 112.06170654, 32.77000046, 0.00000000
1, 2.0950, 241, -0.41529351, -0.86197472, 0.35717863, -3.29899836, 3.02603078, -6.00796032, -63.25635529, 38.58520889, -82.22741699, 107.36688232, -16.39272690, -34.76345062, -0.59374535, 0.73588431, -0.31882870, -0.06549029, 0.13207690, -0.05416897, -0.07318132, 99.98600769, 112.06170654, 32.77000046, 0.00000000
1, 2.1600, 242, 0.00735511, -0.94626546, 0.17199869, -2.98590374, 20.14528847, 2.17768431, -64.01636505, 36.77287292, -82.43203735, 106.77851868, -16.32179642, -33.58343887, -0.59808367, 0.73624015, -0.31059581, -0.06145603, -0.28864121, 0.02714066, 0.10368890, 99.98600769, 112.06170654, 32.77000046, 0.00000000
1, 2.1650, 243, 0.05202511, -0.93817806, 0.17383392, -2.82259059, 18.87736893, 4.28356695, -63.60713196, 36.59748459, -82.11049652, 106.73976135, -16.36941528, -33.49562836, -0.59844100, 0.73615944, -0.31023225, -0.06077630, -0.33408517, 0.01907360, 0.10127377, 99.98600769, 112.06170654, 32.77000046, 0.00000000
1, 2.1700, 244, 0.09910730, -0.92685103, 0.15877716, -2.33216739, 14.15673065, 6.68856335, -63.60713196, 36.59748459, -82.11049652, 106.71103668, -16.42174721, -33.43491364, -0.59872472, 0.73604602, -0.31007034, -0.06017835, -0.38198757, 0.00785977, 0.11588448, 99.98600769, 112.06170654, 32.77000046, 0.00000000
1, 2.1750, 245, 0.11391415, -0.92710352, 0.15568602, -1.26666045, 9.10953331, 9.84960270, -63.60713196, 36.59748459, -82.11049652, 106.65990448, -16.36771393, -33.39427948, -0.59900540, 0.73602039, -0.30953103, -0.06047438, -0.39679828, 0.00794694, 0.11843074, 99.98600769, 112.06170654, 32.77000046, 0.00000000
1, 2.1800, 246, 0.09925945, -0.94132733, 0.18382116, -1.13544858, 7.71935320, 12.68907452, -63.75328827, 38.55597687, -82.81204224, 106.64882660, -16.43953896, -33.37456894, -0.59917867, 0.73584062, -0.30973294, -0.05990933, -0.38240987, 0.02203843, 0.08974793, 99.98600769, 112.06170654, 32.77000046, 0.00000000
1, 2.1850, 247, 0.05768543, -0.94738829, 0.22915490, -1.31792426, 5.61452150, 14.70930767, -63.75328827, 38.55597687, -82.81204224, 106.64066315, -16.51805305, -33.36835098, -0.59933430, 0.73562300, -0.31005418, -0.05936112, -0.34224528, 0.02834644, 0.04403836, 99.98600769, 112.06170654, 32.77000046, 0.00000000
1, 2.1900, 248, 0.00955885, -0.95233631, 0.24634601, -1.28312063, 0.26988107, 16.82481003, -63.63636398, 39.11137009, -83.16281891, 106.64117432, -16.59909630, -33.39200974, -0.59942168, 0.73536336, -0.31058326, -0.05892833, -0.29550636, 0.03364087, 0.02657862, 99.98600769, 112.06170654, 32.77000046, 0.00000000
1, 2.1950, 249, -0.07628080, -0.94769323, 0.25522548, -0.88548690, -2.54774642, 19.73202705, -63.63636398, 39.11137009, -83.16281891, 106.64906311, -16.69004631, -33.43408203, -0.59946489, 0.73506737, -0.31128004, -0.05850407, -0.21114814, 0.02943091, 0.01746948, 99.98600769, 112.06170654, 32.77000046, 0.00000000
1, 2.2000, 250, -0.11146061, -0.93886817, 0.27404383, -0.64835387, -1.06648767, 21.97260284, -63.63636398, 39.11137009, -83.16281891, 106.65704346, -16.79383469, -33.47211075, -0.59952575, 0.73475033, -0.31201005, -0.05797032, -0.17768963, 0.02109759, -0.00142925, 99.98600769, 112.06170654, 32.77000046, 0.00000000
1, 2.2050, 251, -0.15301286, -0.92037821, 0.29501846, -0.73724735, 1.02596843, 24.75767899, -63.87021255, 38.26366425, -83.22128296, 106.66286469, -16.91395569, -33.50385284, -0.59962422, 0.73439783, -0.31277397, -0.05729768, -0.13814719, 0.00316946, -0.02254946, 99.98600769, 112.06170654, 32.77000046, 0.00000000
1, 2.3400, 252, -0.37784415, -0.83058846, 0.25440812, -8.34621239, 0.69714469, 76.72393036, -63.54866791, 42.44372940, -83.19204712, 106.84695435, -23.81524849, -35.68733597, -0.60579902, 0.71030623, -0.35781887, -0.02093741, -0.02510089, -0.04604661, 0.00860215, 99.98600769, 112.06170654, 32.77000046, 0.00000000
1, 2.3450, 253, -0.38760659, -0.81657743, 0.23667617, -7.82252598, 4.65123558, 77.61772156, -63.54866791, 42.44372940, -83.19204712, 106.84870148, -24.19366455, -35.78544998, -0.60617757, 0.70889270, -0.36008945, -0.01885636, -0.02129119, -0.05747220, 0.02560047, 99.98600769, 112.06170654, 32.77000046, 0.00000000
1, 2.3500, 254, -0.37949392, -0.82355142, 0.23705803, -6.35944557, 7.42588902, 78.64668274, -63.72405624, 42.96989059, -83.54282379, 106.85317230, -24.58096504, -35.87091064, -0.60654801, 0.70749605, -0.36231506, -0.01663917, -0.03553033, -0.04783661, 0.02447979, 99.98600769, 112.06170654, 32.77000046, 0.00000000
1, 2.3550, 255, -0.35155037, -0.84954631, 0.24088560, -5.79914665, 11.34048271, 79.74937439, -63.72405624, 42.96989059, -83.54282379, 106.85317993, -24.97919655, -35.93777084, -0.60695648, 0.70609093, -0.36446691, -0.01426303, -0.06975553, -0.01908046, 0.01987302, 99.98600769, 112.06170654, 32.77000046, 0.00000000
1, 2.3600, 256, -0.31351691, -0.86019671, 0.22827855, -6.49412346, 16.02062798, 80.43060303, -63.72405624, 42.96989059, -83.54282379, 106.84015656, -25.38743782, -35.98112106, -0.60745341, 0.70465082, -0.36651045, -0.01173565, -0.11417267, -0.00557976, 0.03154122, 99.98600769, 112.06170654, 32.77000046, 0.00000000
1, 2.3650, 257, -0.29721546, -0.84378362, 0.22782084, -6.66232634, 18.36634254, 81.32991028, -63.69482422, 43.67144012, -83.39666748, 106.82184601, -25.80338097, -36.01348495, -0.60798544, 0.70318407, -0.36851451, -0.00911482, -0.13700396, -0.01909251, 0.03089648, 99.98600769, 112.06170654, 32.77000046, 0.00000000
1, 2.3700, 258, -0.33482757, -0.82106340, 0.24655794, -5.91535425, 15.88518143, 83.39944458, -63.69482422, 43.67144012, -83.39666748, 106.81476593, -26.22566986, -36.06240463, -0.60844707, 0.70169330, -0.37064323, -0.00650279, -0.10603614, -0.03882271, 0.01101962, 99.98600769, 112.06170654, 32.77000046, 0.00000000
1, 2.3750, 259, -0.39499307, -0.81280601, 0.26040545, -5.57548618, 14.66032600, 85.22369385, -63.37328339, 41.39140701, -83.68898010, 106.81530762, -26.65396118, -36.12152863, -0.60886157, 0.70017999, -0.37285459, -0.00387958, -0.05258328, -0.04394551, -0.00394282, 99.98600769, 112.06170654, 32.77000046, 0.00000000
1, 2.3800, 260, -0.45778245, -0.81801224, 0.26208881, -4.71756315, 14.72731018, 87.10718536, -63.37328339, 41.39140701, -83.68898010, 106.82060242, -27.09230423, -36.18299484, -0.60925108, 0.69864094, -0.37511677, -0.00118473, 0.00341424, -0.03544535, -0.00671607, 99.98600769, 112.06170654, 32.77000046, 0.00000000
1, 2.3850, 261, -0.50487399, -0.85525644, 0.23635766, -3.30393481, 15.81799603, 88.62242889, -63.37328339, 41.39140701, -83.68898010, 106.83196259, -27.53946304, -36.24133301, -0.60960627, 0.69710416, -0.37739033, 0.00160687, 0.04366447, 0.00528377, 0.01795971, 99.98600769, 112.06170654, 32.77000046, 0.00000000
1, 2.4350, 262, -0.40902281, -1.33769119, 0.18949369, -0.75715870, 35.30993652, 117.90256500, -63.22712708, 45.04530716, -85.06284332, 106.72482300, -32.84234238, -36.13256836, -0.61453694, 0.67943108, -0.39907742, 0.03814478, -0.13150054, 0.53135836, 0.04952621, 99.98600769, 112.06170654, 32.77000046, 0.00000000
1, 2.4400, 263, -0.34220862, -1.30919778, 0.22361250, 0.40601563, 42.57999420, 120.19921875, -63.16866302, 44.86991882, -85.03361511, 106.70737457, -33.47911453, -36.09423828, -0.61505151, 0.67727643, -0.40148431, 0.04264564, -0.20764822, 0.50850248, 0.01369291, 99.98600769, 112.06170654, 32.77000046, 0.00000000
1, 2.4450, 264, -0.28494188, -1.27025318, 0.22674620, -1.17442119, 44.48510361, 122.99881744, -63.16866302, 44.86991882, -85.03361511, 106.67794037, -34.13204193, -36.04916000, -0.61562127, 0.67500544, -0.40391299, 0.04724924, -0.27435401, 0.47545364, 0.00859053, 99.98600769, 112.06170654, 32.77000046, 0.00000000
1, 2.4500, 265, -0.30204329, -1.19970751, 0.19327052, -2.18938112, 43.81077576, 126.08026123, -62.78865814, 47.73458099, -84.77053070, 106.64785767, -34.79876328, -36.01256180, -0.61618197, 0.67263204, -0.40643913, 0.05189675, -0.26673335, 0.41108471, 0.03983801, 99.98600769, 112.06170654, 32.77000046, 0.00000000
1, 2.4550, 266, -0.39025077, -1.12665415, 0.14829421, -1.71527624, 40.69945908, 129.64549255, -62.78865814, 47.73458099, -84.77053070, 106.63352966, -35.47812271, -35.99976730, -0.61664420, 0.67019212, -0.40913820, 0.05655584, -0.18808541, 0.34450823, 0.08251712, 99.98600769, 112.06170654, 32.77000046, 0.00000000
1, 2.4600, 267, -0.48164904, -1.07743073, 0.11682817, 0.06446360, 41.26928711, 132.68595886, -62.78865814, 47.73458099, -84.77053070, 106.62901306, -36.17284012, -35.98869705, -0.61703473, 0.66772050, -0.41189152, 0.06134319, -0.10640227, 0.30204543, 0.11175075, 99.98600769, 112.06170654, 32.77000046, 0.00000000
1, 2.4650, 268, -0.52558911, -1.03798485, 0.12996417, 1.93993413, 48.31703186, 134.33732605, -62.55480957, 49.45922089, -85.85208893, 106.61029816, -36.88547134, -35.93821716, -0.61746973, 0.66522586, -0.41448200, 0.06641135, -0.07244861, 0.26954114, 0.09628424, 99.98600769, 112.06170654, 32.77000046, 0.00000000
1, 2.4700, 269, -0.53654003, -1.00795090, 0.18636003, 3.68518400, 54.19753265, 135.22640991, -62.55480957, 49.45922089, -85.85208893, 106.57884979, -37.61066437, -35.85304260, -0.61793315, 0.66271931, -0.41691798, 0.07170285, -0.07170127, 0.24658440, 0.03735068, 99.98600769, 112.06170654, 32.77000046, 0.00000000
1, 2.5200, 270, -0.86150032, -0.43086997, 0.15664071, 5.29719543, 53.61462402, 123.72993469, -61.91172028, 52.49926758, -87.60596466, 106.34548950, -44.62213135, -35.28275299, -0.62054515, 0.63673437, -0.44127455, 0.12153129, 0.16075848, -0.25427818, 0.04158136, 99.98600769, 112.06170654, 32.77000046, 0.00000000
1, 2.5250, 271, -0.78025931, -0.45875829, 0.17143233, 4.59695053, 57.95880127, 120.96810913, -61.73633194, 53.14235687, -88.33674622, 106.26314545, -45.29086685, -35.12979507, -0.62086582, 0.63419867, -0.44305784, 0.12655987, 0.07121553, -0.21880493, 0.02373584, 99.98600769, 112.06170654, 32.77000046, 0.00000000
1, 2.5300, 272, -0.69351363, -0.51366913, 0.23669747, 2.91144991, 58.59072113, 118.69118500, -61.73633194, 53.14235687, -88.33674622, 106.15995026, -45.94227982, -34.96296310, -0.62124819, 0.63165790, -0.44472182, 0.13145900, -0.02374623, -0.15648358, -0.04485051, 99.98600769, 112.06170654, 32.77000046, 0.00000000
1, 2.5350, 273, -0.68006355, -0.54843557, 0.26700595, 0.39739799, 54.51529694, 117.78479767, -61.73633194, 53.14235687, -88.33674622, 106.05946350, -46.58354568, -34.81905746, -0.62160546, 0.62906915, -0.44647166, 0.13616847, -0.04507302, -0.11432701, -0.07863821, 99.98600769, 112.06170654, 32.77000046, 0.00000000
1, 2.5400, 274, -0.69185829, -0.65053225, 0.31532091, -2.63927770, 46.76070023, 117.60356903, -61.23940277, 53.63928604, -88.48290253, 105.97992706, -47.21317673, -34.72616959, -0.62187660, 0.62642735, -0.44843131, 0.14059727, -0.04094812, -0.00487731, -0.13033170, 99.98600769, 112.06170654, 32.77000046, 0.00000000
1, 2.5450, 275, -0.72016042, -0.75053585, 0.36039069, -4.77898359, 44.27079773, 117.53640747, -61.23940277, 53.63928604, -88.48290253, 105.90021515, -47.83902359, -34.64850616, -0.62213916, 0.62372488, -0.45045668, 0.14491025, -0.02016582, 0.10253496, -0.17873557, 99.98600769, 112.06170654, 32.77000046, 0.00000000
1, 2.5500, 276, -0.72672570, -0.83984339, 0.40748376, -7.40780830, 43.91010666, 117.10559845, -60.91785812, 53.69775009, -88.95059967, 105.80632019, -48.46225357, -34.57022095, -0.62245017, 0.62094295, -0.45248342, 0.14914587, -0.02100524, 0.19926138, -0.22921391, 99.98600769, 112.06170654, 32.77000046, 0.00000000
1, 2.5550, 277, -0.71781635, -0.90989280, 0.45423892, -10.45815182, 43.09478378, 116.59920502, -60.91785812, 53.69775009, -88.95059967, 105.69830322, -49.08189774, -34.49422455, -0.62281257, 0.61807466, -0.45452523, 0.15328118, -0.03719098, 0.27672428, -0.27943918, 99.98600769, 112.06170654, 32.77000046, 0.00000000
1, 2.5600, 278, -0.72231877, -0.99612522, 0.50812888, -12.91907787, 40.64266968, 116.29166412, -60.91785812, 53.69775009, -89.65214539, 105.58870697, -49.69669724, -34.43301392, -0.62317616, 0.61514384, -0.45662865, 0.15728892, -0.03984519, 0.37037292, -0.33688569, 99.98600769, 112.06170654, 32.77000046, 0.00000000
1, 2.5650, 279, -0.72511166, -1.08128071, 0.53396982, -16.78650284, 36.79137421, 115.72332001, -60.94709015, 55.21777344, -89.65214539, 105.47858429, -50.30361176, -34.39693069, -0.62355262, 0.61212736, -0.45883560, 0.16109666, -0.04397180, 0.46298307, -0.36623961, 99.98600769, 112.06170654, 32.77000046, 0.00000000
1, 2.5850, 280, -0.71874410, -1.38359261, 0.58518523, -27.63782692, 30.71976280, 113.71875000, -59.77784348, 55.65623856, -89.35983276, 104.96630859, -52.67083359, -34.36483383, -0.62537795, 0.59931570, -0.46810406, 0.17493351, -0.07632223, 0.79493743, -0.43175310, 99.98600769, 112.06170654, 32.77000046, 0.00000000
1, 2.5900, 281, -0.71234888, -1.48019457, 0.57644761, -31.30433083, 27.78790855, 112.64398193, -59.77784348, 55.65623856, -89.35983276, 104.82398224, -53.25122452, -34.38086700, -0.62589198, 0.59594601, -0.47051764, 0.17810349, -0.08883834, 0.89899218, -0.42668396, 99.98600769, 112.06170654, 32.77000046, 0.00000000
1, 2.5950, 282, -0.73149413, -1.55256093, 0.52301818, -34.91500854, 25.92263794, 110.68256378, -59.77784348, 55.65623856, -89.35983276, 104.67069244, -53.81985092, -34.40562439, -0.62645966, 0.59251589, -0.47294682, 0.18109258, -0.07551499, 0.97879732, -0.37697491, 99.98600769, 112.06170654, 32.77000046, 0.00000000
1, 2.6000, 283, -0.73960298, -1.58036971, 0.47414029, -35.78297806, 26.69106293, 108.81910706, -59.60245514, 56.76702499, -89.59368134, 104.50291443, -54.38045120, -34.41770554, -0.62706375, 0.58907861, -0.47530130, 0.18402764, -0.07306245, 1.01394463, -0.33179629, 99.98600769, 112.06170654, 32.77000046, 0.00000000
1, 2.6050, 284, -0.73553032, -1.59148860, 0.44869697, -35.80320740, 27.76474190, 106.14594269, -59.60245514, 56.76702499, -89.59368134, 104.32073975, -54.92946243, -34.41223145, -0.62769616, 0.58567208, -0.47754556, 0.18691178, -0.08266582, 1.03225219, -0.31007218, 99.98600769, 112.06170654, 32.77000046, 0.00000000
1, 2.6100, 285, -0.73040402, -1.57676160, 0.42315456, -36.48793411, 27.83045197, 103.14173126, -59.22245026, 56.21163177, -89.41829681, 104.12673187, -55.46397400, -34.39657974, -0.62835628, 0.58229429, -0.47970530, 0.18969615, -0.09311081, 1.02456117, -0.28824887, 99.98600769, 112.06170654, 32.77000046, 0.00000000
1, 2.6150, 286, -0.74924976, -1.53042436, 0.38963047, -37.86120605, 25.88343620, 99.57254028, -59.22245026, 56.21163177, -89.41829681, 103.93048096, -55.97879410, -34.38668060, -0.62902522, 0.57895559, -0.48182839, 0.19229984, -0.07930920, 0.98506999, -0.25839067, 99.98600769, 112.06170654, 32.77000046, 0.00000000
1, 2.6200, 287, -0.77999455, -1.44762051, 0.34617645, -39.23804092, 24.05918503, 95.23516846, -59.22245026, 56.21163177, -89.41829681, 103.73001099, -56.47039032, -34.38009262, -0.62971324, 0.57567245, -0.48389316, 0.19470493, -0.05330105, 0.90887165, -0.21848696, 99.98600769, 112.06170654, 32.77000046, 0.00000000
1, 2.6250, 288, -0.78321898, -1.34300292, 0.29024616, -39.60471344, 23.92329025, 90.57465363, -59.19321823, 57.52703857, -89.79830170, 103.51668549, -56.92973709, -34.36082077, -0.63044393, 0.57250732, -0.48580271, 0.19690508, -0.05445137, 0.81051683, -0.16596912, 99.98600769, 112.06170654, 32.77000046, 0.00000000
1, 2.6300, 289, -0.76836169, -1.21660995, 0.23900045, -39.47705841, 24.04049301, 85.70357513, -59.19321823, 57.52703857, -89.79830170, 103.29219055, -57.37489319, -34.32727432, -0.63119477, 0.56939644, -0.48761290, 0.19903418, -0.07341973, 0.69007528, -0.11805424, 99.98600769, 112.06170654, 32.77000046, 0.00000000
1, 2.6500, 290, -0.81196719, -0.46168596, 0.42108500, -39.16138840, 2.92493916, 68.58152008, -58.05319977, 57.23472595, -90.11985016, 102.50796509, -58.91263580, -34.28882980, -0.63380784, 0.55820405, -0.49428922, 0.20584950, -0.04471821, -0.04426578, -0.31161278, 99.98600769, 112.06170654, 32.77000046, 0.00000000
1, 2.6550, 291, -0.79710317, -0.35222742, 0.45977274, -42.98726654, -16.58637238, 65.95687103, -58.05319977, 57.23472595, -90.11985016, 102.54769897, -59.21737671, -34.58473206, -0.63389772, 0.55573905, -0.49673629, 0.20635135, -0.06249763, -0.14920372, -0.35107660, 99.98600769, 112.06170654, 32.77000046, 0.00000000
1, 2.6600, 292, -0.77381200, -0.26716810, 0.38520461, -45.15642929, -37.91713715, 62.81209183, -58.05319977, 57.41011429, -89.62291718, 102.75048065, -59.48327637, -35.08192444, -0.63359743, 0.55346602, -0.49971128, 0.20620000, -0.08806120, -0.22978815, -0.27580333, 99.98600769, 112.06170654, 32.77000046, 0.00000000
1, 2.6650, 293, -0.78370601, -0.21086001, 0.23995398, -44.86411285, -51.41769409, 57.92979050, -58.05319977, 57.41011429, -89.62291718, 103.06383514, -59.70924759, -35.70446396, -0.63303041, 0.55141997, -0.50293243, 0.20559096, -0.07989552, -0.28182101, -0.12875833, 99.98600769, 112.06170654, 32.77000046, 0.00000000
1, 2.6700, 294, -0.88372868, -0.13192926, 0.13906430, -41.80715179, -53.01618576, 50.10624313, -58.05319977, 57.41011429, -89.62291718, 103.39700317, -59.89349365, -36.33108139, -0.63241625, 0.54963607, -0.50597513, 0.20479062, 0.01866597, -0.35706258, -0.02580931, 99.98600769, 112.06170654, 32.77000046, 0.00000000
1, 2.6750, 295, -0.82138842, -0.09274396, 0.19114746, -33.91582870, -49.10888290, 39.54821777, -58.05319977, 57.43934631, -89.09675598, 103.74633026, -60.04541397, -36.92231750, -0.63169199, 0.54822779, -0.50869501, 0.20406149, -0.04517399, -0.39334160, -0.07534807, 99.98600769, 112.06170654, 32.77000046, 0.00000000
1, 2.6800, 296, -0.62731612, -0.07854466, 0.42769882, -32.87476349, -55.63062286, 27.11125183, -58.05319977, 57.43934631, -89.09675598, 104.10813904, -60.11094284, -37.52899933, -0.63099676, 0.54721040, -0.51116961, 0.20275477, -0.24064514, -0.40581101, -0.30868429, 99.98600769, 112.06170654, 32.77000046, 0.00000000
1, 2.6850, 297, -0.53985381, 0.03347438, 0.45301595, -47.99127960, -79.00877380, 14.58334255, -57.73165512, 57.20549393, -88.68751526, 104.56573486, -60.08497620, -38.33339691, -0.63024336, 0.54625386, -0.51411837, 0.20020598, -0.32814521, -0.51698637, -0.32993853, 99.98600769, 112.06170654, 32.77000046, 0.00000000
1, 2.6900, 298, -0.61591029, 0.27593035, 0.13058534, -58.40045547, -97.06628418, 4.12030697, -57.73165512, 57.20549393, -88.68751526, 105.09732056, -59.98216248, -39.28398895, -0.62941122, 0.54539013, -0.51739681, 0.19670211, -0.25054291, -0.75902057, -0.00262530, 99.98600769, 112.06170654, 32.77000046, 0.00000000
1, 2.6950, 299, -0.68457681, 0.39439002, -0.10016854, -53.24135971, -96.25376129, -4.72409821, -57.73165512, 57.20549393, -88.68751526, 105.62184906, -59.83328247, -40.19794083, -0.62853593, 0.54484779, -0.52038598, 0.19308524, -0.18008445, -0.87790811, 0.23320416, 99.98600769, 112.06170654, 32.77000046, 0.00000000
1, 2.7200, 300, -0.47448412, 0.15350138, -0.15204163, -50.13530731, -14.26532555, -80.76547241, -57.38088226, 56.41625214, -86.96287537, 106.10034943, -58.45492554, -42.16698456, -0.62983984, 0.54514796, -0.52474415, 0.17538278, -0.37834999, -0.65412939, 0.29653770, 99.98600769, 112.06170654, 32.77000046, 0.00000000
1, 2.7250, 301, -0.31872386, 0.16620353, -0.18340576, -63.52030563, -17.83570862, -100.94033813, -57.35165024, 54.37006760, -86.61209869, 105.68589020, -57.96094894, -42.05862045, -0.63174802, 0.54573911, -0.52333766, 0.17082471, -0.52966899, -0.67457795, 0.32676139, 99.98600769, 112.06170654, 32.77000046, 0.00000000
1, 2.7300, 302, -0.29432362, 0.19571564, -0.33148700, -77.26913452, -31.07013702, -114.75111389, -57.35165024, 54.37006760, -86.61209869, 105.29444885, -57.36748123, -42.05431747, -0.63372254, 0.54643828, -0.52204072, 0.16514978, -0.54842842, -0.71291786, 0.47359276, 99.98600769, 112.06170654, 32.77000046, 0.00000000
1, 2.7350, 303, -0.25821409, 0.24499674, -0.43584257, -75.14257813, -32.50509262, -123.92595673, -57.05933762, 54.75007248, -86.49517822, 104.91234589, -56.72779465, -42.04847717, -0.63565385, 0.54739392, -0.52052921, 0.15922770, -0.57831705, -0.77190340, 0.57705355, 99.98600769, 112.06170654, 32.77000046, 0.00000000
1, 2.7400, 304, -0.14689963, 0.21024665, -0.30769062, -53.21196747, -18.36762619, -131.89509583, -57.05933762, 54.75007248, -86.49517822, 104.52823639, -56.06707764, -41.90862274, -0.63741255, 0.54901993, -0.51826048, 0.15391076, -0.68364048, -0.74754548, 0.44799078, 99.98600769, 112.06170654, 32.77000046, 0.00000000
1, 2.7450, 305, 0.01325906, 0.04447629, -0.02447570, -31.32422829, -6.65906143, -140.27212524, -57.05933762, 54.75007248, -86.49517822, 104.16413116, -55.37948227, -41.65963364, -0.63894385, 0.55134469, -0.51529682, 0.14912747, -0.83784926, -0.59266007, 0.16383305, 99.98600769, 112.06170654, 32.77000046, 0.00000000
1, 2.7500, 306, 0.12194667, -0.14639211, 0.23891242, -22.70890045, -9.17362404, -148.57385254, -57.93627548, 53.87313461, -85.96901703, 103.85710907, -54.64766312, -41.42579651, -0.64024007, 0.55408931, -0.51212603, 0.14423862, -0.94002163, -0.41300917, -0.10020135, 99.98600769, 112.06170654, 32.77000046, 0.00000000
1, 2.7550, 307, 0.10011128, -0.32857120, 0.22529292, -30.62681961, -24.13902283, -157.80311584, -57.93627548, 53.87313461, -85.96901703, 103.60649109, -53.85283661, -41.30817795, -0.64142168, 0.55688542, -0.50917733, 0.13854697, -0.91026938, -0.24215171, -0.08688448, 99.98600769, 112.06170654, 32.77000046, 0.00000000
1, 2.7600, 308, 0.01365522, -0.36261973, 0.07808023, -37.88416672, -40.17406845, -164.29718018, -57.38088226, 50.80385971, -85.26746368, 103.42133331, -53.00767136, -41.31627655, -0.64242852, 0.55968761, -0.50653815, 0.13211542, -0.81484759, -0.21973905, 0.06063505, 99.98600769, 112.06170654, 32.77000046, 0.00000000
1, 2.7650, 309, -0.15896583, -0.39982545, -0.13573165, -39.45390701, -53.11724854, -171.31571960, -57.38088226, 50.80385971, -85.26746368, 103.30295563, -52.11346817, -41.41830444, -0.64318800, 0.56264198, -0.50406951, 0.12512887, -0.63232642, -0.19447690, 0.27557674, 99.98600769, 112.06170654, 32.77000046, 0.00000000
1, 2.7700, 310, -0.28852817, -0.41556746, -0.19381100, -35.67640686, -48.89698029, -176.03031921, -57.38088226, 50.80385971, -85.26746368, 103.17057800, -51.20122528, -41.47967529, -0.64393139, 0.56574655, -0.50131315, 0.11818776, -0.49283549, -0.19109347, 0.33483198, 99.98600769, 112.06170654, 32.77000046, 0.00000000
1, 2.7750, 311, -0.39996725, -0.41785702, -0.14173311, -30.67094803, -43.27326202, -180.72705078, -57.67319489, 49.16690826, -85.26746368, 103.01322937, -50.27175140, -41.48320770, -0.64470249, 0.56900555, -0.49818951, 0.11134885, -0.37136257, -0.20147145, 0.28371838, 99.98600769, 112.06170654, 32.77000046, 0.00000000
1, 2.7800, 312, -0.48539829, -0.40864918, -0.03957995, -26.19294357, -41.22742462, -186.02819824, -57.67319489, 49.16690826, -85.26746368, 102.87312317, -49.31938934, -41.47426605, -0.64534181, 0.57247835, -0.49485481, 0.10450520, -0.27557611, -0.22355357, 0.18259613, 99.98600769, 112.06170654, 32.77000046, 0.00000000
1, 2.7850, 313, -0.54811013, -0.39193943, 0.05900208, -23.29234505, -41.17243195, -191.67213440, -58.22858810, 49.66384125, -84.36129761, 102.74282837, -48.33951569, -41.45904922, -0.64588904, 0.57611287, -0.49132857, 0.09755823, -0.20198560, -0.25326914, 0.08526080, 99.98600769, 112.06170654, 32.77000046, 0.00000000
1, 2.7900, 314, -0.58609825, -0.38027164, 0.11402997, -21.71520996, -40.53323364, -197.46060181, -58.22858810, 49.66384125, -84.36129761, 102.61279297, -47.33204651, -41.43337250, -0.64638597, 0.57986909, -0.48759478, 0.09049007, -0.15246674, -0.27803707, 0.03154603, 99.98600769, 112.06170654, 32.77000046, 0.00000000
1, 2.7950, 315, -0.60011387, -0.37471107, 0.11910675, -20.68648720, -38.58356094, -202.89538574, -58.22858810, 49.66384125, -84.36129761, 102.47461700, -46.30008698, -41.38915634, -0.64686823, 0.58371556, -0.48362550, 0.08333185, -0.12626645, -0.29675537, 0.02772332, 99.98600769, 112.06170654, 32.77000046, 0.00000000
1, 2.8000, 316, -0.61605835, -0.38342416, 0.09347337, -18.92360306, -35.48772049, -207.92658997, -57.79011917, 47.85150528, -84.12744904, 102.32792664, -45.24676514, -41.32008743, -0.64733511, 0.58765775, -0.47939387, 0.07614001, -0.09755989, -0.30123344, 0.05442885, 99.98600769, 112.06170654, 32.77000046, 0.00000000
1, 2.8050, 317, -0.64009345, -0.40427634, 0.05875736, -16.47081947, -30.64175797, -213.06509399, -57.79011917, 47.85150528, -84.12744904, 102.16927338, -44.17326736, -41.21532059, -0.64780122, 0.59170955, -0.47484374, 0.06897108, -0.06024577, -0.29361337, 0.08997726, 99.98600769, 112.06170654, 32.77000046, 0.00000000
1, 2.8100, 318, -0.68360722, -0.44883516, 0.02558001, -13.96524334, -24.51619911, -219.26037598, -58.14089203, 47.14995575, -83.33820343, 101.99407196, -43.07557297, -41.06646729, -0.64828962, 0.59588820, -0.46990961, 0.06182989, -0.00293835, -0.26234898, 0.12364902, 99.98600769, 112.06170654, 32.77000046, 0.00000000
1, 2.8150, 319, -0.70219368, -0.47122756, 0.01614669, -11.49740982, -17.83840752, -223.79455566, -58.14089203, 47.14995575, -83.33820343, 101.80414581, -41.96215439, -40.87443542, -0.64880121, 0.60015583, -0.46461749, 0.05477800, 0.02989682, -0.25331569, 0.13341630, 99.98600769, 112.06170654, 32.77000046, 0.00000000
1, 2.8500, 320, -0.69570303, -0.56718707, 0.02570606, 15.72492027, 5.02755928, -235.09315491, -58.34551239, 42.73604202, -82.54895782, 100.53086853, -33.92724991, -38.78681564, -0.65123075, 0.63189012, -0.42016566, 0.00861701, 0.13335010, -0.24580461, 0.12304592, 99.98600769, 112.06170654, 32.77000046, 0.00000000
1, 2.8550, 321, -0.71487212, -0.58013189, 0.06408676, 22.05459404, 5.68607855, -232.66934204, -58.34551239, 42.73604202, -82.54895782, 100.48143005, -32.78792191, -38.50159836, -0.65078938, 0.63673222, -0.41356856, 0.00254339, 0.16902244, -0.24393952, 0.08577403, 99.98600769, 112.06170654, 32.77000046, 0.00000000
1, 2.8600, 322, -0.74088717, -0.59896863, 0.12393826, 26.27737999, 6.99311972, -230.44860840, -57.84858322, 41.24525070, -82.34434509, 100.45743561, -31.66050911, -38.21559525, -0.65018684, 0.64158845, -0.40695232, -0.00335503, 0.21152426, -0.23570359, 0.02733175, 99.98600769, 112.06170654, 32.77000046, 0.00000000
1, 2.8650, 323, -0.77678072, -0.62489533, 0.20324220, 28.07779884, 8.43704510, -228.99998474, -57.84858322, 41.24525070, -82.34434509, 100.44573975, -30.54141235, -37.92665100, -0.64949328, 0.64640522, -0.40029407, -0.00913961, 0.26392105, -0.21996319, -0.05046503, 99.98600769, 112.06170654, 32.77000046, 0.00000000
1, 2.8700, 324, -0.80583888, -0.63781619, 0.24378209, 28.17004585, 9.68610859, -228.76106262, -57.84858322, 41.24525070, -82.34434509, 100.43769073, -29.42456055, -37.63438416, -0.64875317, 0.65115541, -0.39356649, -0.01487968, 0.30971801, -0.21679553, -0.08944704, 99.98600769, 112.06170654, 32.77000046, 0.00000000
1, 2.8750, 325, -0.85455471, -0.66961455, 0.31906351, 26.17839241, 12.53385735, -229.12348938, -58.19935608, 39.87138367, -82.02279663, 100.42378998, -28.31777382, -37.33172226, -0.64802885, 0.65578252, -0.38676488, -0.02051621, 0.37518913, -0.19444889, -0.16338170, 99.98600769, 112.06170654, 32.77000046, 0.00000000
1, 2.8800, 326, -0.90091980, -0.70021939, 0.36186165, 23.26388168, 15.10741329, -230.00651550, -58.19935608, 39.87138367, -82.02279663, 100.38975525, -27.19957542, -37.01500320, -0.64738905, 0.66028678, -0.37976524, -0.02621621, 0.43859339, -0.17296943, -0.20510729, 99.98600769, 112.06170654, 32.77000046, 0.00000000
1, 2.8850, 327, -0.94951916, -0.71886504, 0.36007327, 20.44935799, 18.17591476, -231.15943909, -58.02396774, 38.81905746, -81.26278687, 100.34088898, -26.07826805, -36.68432999, -0.64681339, 0.66466624, -0.37260363, -0.03190443, 0.50463331, -0.16315651, -0.20257039, 99.98600769, 112.06170654, 32.77000046, 0.00000000
1, 2.8900, 328, -1.00320911, -0.70471215, 0.33003601, 19.24832153, 23.19993973, -231.93577576, -58.02396774, 38.81905746, -81.26278687, 100.28157043, -24.95733643, -36.32985306, -0.64628601, 0.66896254, -0.36523744, -0.03748531, 0.57601833, -0.18580015, -0.17199919, 99.98600769, 112.06170654, 32.77000046, 0.00000000
1, 2.8950, 329, -1.04688120, -0.66953838, 0.29485404, 20.85682678, 31.27016068, -232.35978699, -56.94241333, 37.79596710, -81.64279175, 100.22026062, -23.84106255, -35.93586731, -0.64577168, 0.67325455, -0.35759529, -0.04281365, 0.63750273, -0.22910433, -0.13637586, 99.98600769, 112.06170654, 32.77000046, 0.00000000
1, 2.9150, 330, -0.88690925, -0.63068581, 0.24261124, 32.60636139, 61.42008209, -224.56994629, -57.64396286, 36.10055542, -81.58432770, 100.06869507, -19.52268982, -33.94136429, -0.64339191, 0.69065499, -0.32462949, -0.06048454, 0.54781318, -0.29616961, -0.08128007, 99.98600769, 112.06170654, 32.77000046, 0.00000000
1, 2.9200, 331, -0.79741210, -0.65526116, 0.14670092, 35.24875259, 58.39937210, -221.10026550, -56.94241333, 33.00204468, -81.26278687, 100.07714081, -18.48407173, -33.43455505, -0.64255148, 0.69488126, -0.31640705, -0.06445326, 0.47572675, -0.27734551, 0.01586708, 99.98600769, 112.06170654, 32.77000046, 0.00000000
1, 2.9250, 332, -0.75042319, -0.68330038, 0.07674007, 38.04052734, 55.35468674, -215.10929871, -56.94241333, 33.00204468, -81.26278687, 100.11454010, -17.48426819, -32.95115662, -0.64155614, 0.69899136, -0.30848402, -0.06822388, 0.44567761, -0.25453830, 0.08738951, 99.98600769, 112.06170654, 32.77000046, 0.00000000
1, 2.9300, 333, -0.71668243, -0.74244797, 0.03992101, 45.36747360, 56.86015701, -208.40161133, -56.94241333, 33.00204468, -81.26278687, 100.19760895, -16.50739288, -32.46800613, -0.64029795, 0.70319068, -0.30065903, -0.07173284, 0.42839214, -0.20012259, 0.12624553, 99.98600769, 112.06170654, 32.77000046, 0.00000000
1, 2.9350, 334, -0.66960990, -0.79720151, 0.07197044, 49.76023483, 62.63813782, -202.25576782, -57.38088226, 31.74510384, -81.58432770, 100.30405426, -15.56658840, -31.96162605, -0.63894105, 0.70738661, -0.29284677, -0.07482868, 0.39715832, -0.14969659, 0.09670721, 99.98600769, 112.06170654, 32.77000046, 0.00000000
1, 2.9400, 335, -0.62550330, -0.84791386, 0.15805230, 53.63494492, 67.28163910, -195.46438599, -57.38088226, 31.74510384, -81.58432770, 100.43328857, -14.66428471, -31.43808365, -0.63748938, 0.71155697, -0.28510043, -0.07753569, 0.36818427, -0.10289426, 0.01345997, 99.98600769, 112.06170654, 32.77000046, 0.00000000
1, 2.9450, 336, -0.61334568, -0.88207579, 0.26163688, 55.28408432, 67.69467163, -188.81562805, -56.97164536, 32.79742813, -81.29202271, 100.57963562, -13.79625511, -30.91851234, -0.63595992, 0.71563220, -0.27753007, -0.08001743, 0.37057823, -0.07221755, -0.08708962, 99.98600769, 112.06170654, 32.77000046, 0.00000000
1, 2.9500, 337, -0.63113815, -0.90952432, 0.32669714, 54.70514679, 63.99168396, -182.72734070, -56.97164536, 32.79742813, -81.29202271, 100.73622894, -12.95609188, -30.42292023, -0.63437396, 0.71954781, -0.27022830, -0.08244579, 0.40257445, -0.04780632, -0.14902544, 99.98600769, 112.06170654, 32.77000046, 0.00000000
1, 2.9700, 338, -0.65644312, -0.98311853, 0.11635636, 47.30267715, 57.76899719, -159.61193848, -56.85472107, 31.59894753, -81.46740723, 101.37921906, -9.86524296, -28.61835670, -0.62803644, 0.73348153, -0.24330403, -0.09153344, 0.48172253, 0.01748705, 0.07402930, 99.98600769, 112.06170654, 32.77000046, 0.00000000
1, 2.9750, 339, -0.59138733, -0.97248197, 0.05584926, 44.35147476, 56.03920746, -153.86703491, -56.85472107, 31.59894753, -81.46740723, 101.52375031, -9.17604923, -28.18540192, -0.62662697, 0.73648554, -0.23706029, -0.09343583, 0.42888361, 0.00543209, 0.13761848, 99.98600769, 112.06170654, 32.77000046, 0.00000000
1, 2.9800, 340, -0.52604467, -0.93767738, 0.03815991, 43.28246689, 54.31558609, -149.16247559, -56.85472107, 31.59894753, -81.46740723, 101.67378998, -8.49886990, -27.76544189, -0.62518221, 0.73940510, -0.23095119, -0.09533563, 0.37523463, -0.03064352, 0.15838395, 99.98600769, 112.06170654, 32.77000046, 0.00000000
1, 2.9850, 341, -0.51868129, -0.91024995, 0.10458838, 43.75473022, 56.06669998, -137.69972229, -55.91932297, 30.42969894, -81.55509949, 101.83130646, -7.88069868, -27.34740257, -0.62375635, 0.74219435, -0.22515438, -0.09685612, 0.37867332, -0.05921118, 0.09497724, 99.98600769, 112.06170654, 32.77000046, 0.00000000
1, 2.9900, 342, -0.54697776, -0.91803217, 0.17359601, 43.42310715, 58.42245483, -131.43511963, -55.91932297, 30.42969894, -81.55509949, 101.99077606, -7.29674053, -26.92308807, -0.62236261, 0.74489069, -0.21948461, -0.09812842, 0.41704196, -0.05233746, 0.02887167, 99.98600769, 112.06170654, 32.77000046, 0.00000000
1, 2.9950, 343, -0.58289397, -0.93434083, 0.21791843, 41.50267792, 59.69655991, -125.66680145, -56.50394440, 29.37737465, -81.70125580, 102.14471436, -6.74351215, -26.49744987, -0.62104219, 0.74745446, -0.21395029, -0.09921635, 0.46255577, -0.03673240, -0.01267504, 99.98600769, 112.06170654, 32.77000046, 0.00000000
1, 3.0000, 344, -0.61106092, -0.94028902, 0.21777202, 38.26483917, 61.00293732, -120.26653290, -56.50394440, 29.37737465, -81.70125580, 102.28631592, -6.21918011, -26.07013130, -0.61983848, 0.74985707, -0.20853432, -0.10014112, 0.49994168, -0.03129902, -0.00992601, 99.98600769, 112.06170654, 32.77000046, 0.00000000
1, 3.0050, 345, -0.62120628, -0.94061160, 0.18469243, 35.07488632, 64.13167572, -115.31414032, -56.50394440, 29.37737465, -81.70125580, 102.41469574, -5.72340727, -25.63191032, -0.61876625, 0.75211513, -0.20317414, -0.10085447, 0.51889330, -0.03134594, 0.02555678, 99.98600769, 112.06170654, 32.77000046, 0.00000000
1, 3.0100, 346, -0.59819168, -0.93387401, 0.14581165, 32.89207077, 69.16179657, -110.85503387, -55.74393463, 29.58199310, -82.34434509, 102.53391266, -5.25576782, -25.17311287, -0.61780781, 0.75427079, -0.19780749, -0.10129796, 0.50422233, -0.03835702, 0.06673636, 99.98600769, 112.06170654, 32.77000046, 0.00000000
1, 3.0150, 347, -0.55850643, -0.93093443, 0.13492617, 32.05749893, 74.44927979, -106.47707367, -55.74393463, 29.58199310, -82.34434509, 102.65072632, -4.81617546, -24.69254494, -0.61692029, 0.75636417, -0.19243170, -0.10145305, 0.47232306, -0.04151829, 0.07986531, 99.98600769, 112.06170654, 32.77000046, 0.00000000
1, 3.0500, 348, -0.23539495, -0.89880204, 0.10740422, 22.63936996, 57.95106125, -72.39928436, -55.53931427, 28.61736298, -82.51972961, 103.32302856, -2.36188865, -21.63954163, -0.61218405, 0.76785231, -0.15976608, -0.10054110, 0.19268711, -0.07368259, 0.12035537, 99.98600769, 112.06170654, 32.77000046, 0.00000000
1, 3.0550, 349, -0.20880963, -0.90573788, 0.14119707, 22.64101028, 55.82924271, -68.13845825, -55.53931427, 28.61736298, -82.51972961, 103.42177582, -2.09414816, -21.28927422, -0.61151516, 0.76916701, -0.15608726, -0.10034090, 0.17076321, -0.06658992, 0.08833627, 99.98600769, 112.06170654, 32.77000046, 0.00000000
1, 3.0600, 350, -0.18220784, -0.90825939, 0.18819845, 20.28171158, 51.71878052, -64.59602356, -55.27623367, 28.32505035, -82.43203735, 103.51115417, -1.83948970, -20.96273613, -0.61090386, 0.77036530, -0.15262462, -0.10019812, 0.14853731, -0.06392594, 0.04300063, 99.98600769, 112.06170654, 32.77000046, 0.00000000
1, 3.0650, 351, -0.15002871, -0.90701938, 0.22067685, 16.76831055, 45.96352005, -61.14821243, -55.27623367, 28.32505035, -82.43203735, 103.58539581, -1.59541881, -20.66790581, -0.61037940, 0.77141213, -0.14941455, -0.10017824, 0.12058057, -0.06503014, 0.01196150, 99.98600769, 112.06170654, 32.77000046, 0.00000000
1, 3.0700, 352, -0.12802415, -0.90393364, 0.23068853, 12.86706924, 39.92630768, -57.70217896, -55.77316666, 26.71733475, -82.57819366, 103.64227295, -1.36141741, -20.40622711, -0.60995513, 0.77229828, -0.14646311, -0.10029342, 0.10267726, -0.06798825, 0.00307705, 99.98600769, 112.06170654, 32.77000046, 0.00000000
1, 3.0750, 353, -0.11189399, -0.89999914, 0.21370432, 9.13537216, 34.58602142, -54.20664215, -55.77316666, 26.71733475, -82.57819366, 103.68136597, -1.14577448, -20.17440605, -0.60964656, 0.77302063, -0.14379241, -0.10046879, 0.09046562, -0.07180163, 0.02086716, 99.98600769, 112.06170654, 32.77000046, 0.00000000
1, 3.0800, 354, -0.11267462, -0.90299165, 0.18691932, 6.85326815, 29.95573425, -50.74768829, -55.77316666, 26.71733475, -82.57819366, 103.71125793, -0.93429893, -19.96909714, -0.60938239, 0.77364665, -0.14131285, -0.10077034, 0.09498867, -0.06870338, 0.04819525, 99.98600769, 112.06170654, 32.77000046, 0.00000000
1, 3.0850, 355, -0.12707251, -0.89990675, 0.16169672, 5.69849682, 26.20746422, -47.35216141, -55.68547058, 27.97427559, -83.13358307, 103.73649597, -0.73500854, -19.78592682, -0.60914487, 0.77420008, -0.13904183, -0.10111421, 0.11298262, -0.07169160, 0.07384355, 99.98600769, 112.06170654, 32.77000046, 0.00000000
1, 3.0900, 356, -0.15169284, -0.89466786, 0.13837287, 5.20225334, 23.95532036, -43.64894485, -55.68547058, 27.97427559, -83.13358307, 103.76008606, -0.55114514, -19.61799431, -0.60892349, 0.77470416, -0.13695297, -0.10143783, 0.14095119, -0.07683168, 0.09753053, 99.98600769, 112.06170654, 32.77000046, 0.00000000
1, 3.0950, 357, -0.15998882, -0.89907169, 0.14329420, 5.29643393, 22.60797501, -41.15849304, -55.48085403, 27.76965714, -82.98742676, 103.78475189, -0.37784800, -19.45947838, -0.60869902, 0.77518654, -0.13498379, -0.10173962, 0.15229595, -0.07236324, 0.09299233, 99.98600769, 112.06170654, 32.77000046, 0.00000000
1, 3.1150, 358, -0.18186201, -0.94425118, 0.15431717, 2.47389579, 14.18869972, -30.91274452, -55.77316666, 27.79888916, -83.39666748, 103.85747528, 0.21267985, -18.96024323, -0.60797805, 0.77667987, -0.12853427, -0.10300511, 0.18461736, -0.02690615, 0.08313555, 99.98600769, 112.06170654, 32.77000046, 0.00000000
1, 3.1200, 359, -0.19632535, -0.94542313, 0.16108447, 2.77025533, 13.84520245, -28.08547592, -55.68547058, 26.30809593, -83.54282379, 103.87142944, 0.33261511, -18.85957146, -0.60783720, 0.77697033, -0.12722747, -0.10326802, 0.20121709, -0.02567980, 0.07655799, 99.98600769, 112.06170654, 32.77000046, 0.00000000
1, 3.1250, 360, -0.21374063, -0.94532597, 0.16442412, 2.61358452, 15.62708282, -25.44715118, -55.68547058, 26.30809593, -83.54282379, 103.87374115, 0.39844322, -18.75323486, -0.60784233, 0.77715665, -0.12615883, -0.10314744, 0.22018176, -0.02573873, 0.07331333, 99.98600769, 112.06170654, 32.77000046, 0.00000000
1, 3.1300, 361, -0.23052806, -0.94258583, 0.16684209, 1.86895680, 18.84523582, -23.36298943, -55.68547058, 26.30809593, -83.54282379, 103.88372803, 0.48946342, -18.63388252, -0.60777855, 0.77741742, -0.12487465, -0.10312022, 0.23826985, -0.02845069, 0.07094651, 99.98600769, 112.06170654, 32.77000046, 0.00000000
1, 3.1350, 362, -0.23708947, -0.93542325, 0.16196364, 1.43748558, 22.65632439, -21.19857788, -55.89009094, 27.59427071, -83.65974426, 103.89189148, 0.56540561, -18.49858475, -0.60775876, 0.77767092, -0.12356038, -0.10290846, 0.24623632, -0.03555772, 0.07596133, 99.98600769, 112.06170654, 32.77000046, 0.00000000
1, 3.1400, 363, -0.22356264, -0.92492187, 0.15113193, 1.49907732, 26.85640717, -19.10127831, -55.89009094, 27.59427071, -83.65974426, 103.90075684, 0.62614292, -18.34536934, -0.60776740, 0.77793241, -0.12220556, -0.10249807, 0.23386165, -0.04599486, 0.08698449, 99.98600769, 112.06170654, 32.77000046, 0.00000000
1, 3.1450, 364, -0.19042690, -0.92055762, 0.12407703, 1.56349683, 30.84513664, -16.90389633, -55.74393463, 27.79888916, -83.33820343, 103.91029358, 0.67141724, -18.17541885, -0.60780346, 0.77820009, -0.12081940, -0.10189351, 0.20165160, -0.05026609, 0.11428587, 99.98600769, 112.06170654, 32.77000046, 0.00000000
1, 3.1500, 365, -0.15472020, -0.92105877, 0.11052445, 2.14296794, 33.53703308, -14.18314075, -55.74393463, 27.79888916, -83.33820343, 103.92296600, 0.70023674, -17.99562263, -0.60784465, 0.77847898, -0.11945617, -0.10112201, 0.16653666, -0.04968621, 0.12812704, 99.98600769, 112.06170654, 32.77000046, 0.00000000
1, 3.1550, 366, -0.11111637, -0.92345726, 0.10334736, 3.39842105, 39.22298050, -11.15426540, -55.74393463, 27.79888916, -83.33820343, 103.94232941, 0.70752329, -17.79183388, -0.60788399, 0.77879870, -0.11804970, -0.10007036, 0.12318858, -0.04720008, 0.13570228, 99.98600769, 112.06170654, 32.77000046, 0.00000000
1, 3.1600, 367, -0.07957072, -0.91931772, 0.11662873, 4.22975826, 41.57900620, -8.86535072, -55.53931427, 26.07424736, -83.98129272, 103.96596527, 0.70080268, -17.57935143, -0.60791504, 0.77913642, -0.11666153, -0.09887332, 0.09155061, -0.05126683, 0.12289017, 99.98600769, 112.06170654, 32.77000046, 0.00000000
1, 3.1850, 368, -0.26460287, -0.98850393, 0.09193481, 5.97607708, 45.40581131, 9.50087166, -56.12393951, 27.94504547, -83.86436462, 104.07341003, 0.45123014, -16.44622040, -0.60838336, 0.78063935, -0.11036576, -0.09105662, 0.27276480, 0.01836091, 0.14878327, 99.98600769, 112.06170654, 32.77000046, 0.00000000
1, 3.1900, 369, -0.21112703, -0.83504593, 0.30467540, 17.11462975, 40.53655624, 29.29286957, -56.12393951, 27.94504547, -83.86436462, 104.16038513, 0.26025340, -16.28500175, -0.60810745, 0.78111446, -0.11035027, -0.08881662, 0.21584442, -0.13517112, -0.06239788, 99.98600769, 112.06170654, 32.77000046, 0.00000000
1, 3.1950, 370, -0.04840085, -0.65896583, 0.84389305, 40.87464142, 16.10173035, 51.75275040, -56.09470749, 28.26658821, -84.77053070, 104.36549377, -0.00980474, -16.27013016, -0.60698491, 0.78201360, -0.11183831, -0.08669748, 0.04737737, -0.31140888, -0.59799981, 99.98600769, 112.06170654, 32.77000046, 0.00000000
1, 3.2000, 371, -0.00384172, -0.78793001, 1.47902727, 60.46306229, -22.19750595, 74.21569061, -56.09470749, 28.26658821, -84.77053070, 104.66940308, -0.34075594, -16.46986961, -0.60508204, 0.78316784, -0.11517963, -0.08519182, -0.00427009, -0.18223166, -1.22840357, 99.98600769, 112.06170654, 32.77000046, 0.00000000
1, 3.2050, 372, -0.13855098, -1.09657240, 1.47742951, 55.75116348, -38.27709579, 101.19805908, -56.09470749, 28.26658821, -84.15667725, 104.95246887, -0.78085411, -16.78336334, -0.60334426, 0.78398538, -0.11984791, -0.08354177, 0.12316453, 0.12775910, -1.22276211, 99.98600769, 112.06170654, 32.77000046, 0.00000000
1, 3.2100, 373, -0.09397585, -1.65539944, 0.98316264, 23.57979012, -8.19586754, 123.77651215, -56.21163177, 28.93890572, -84.15667725, 105.07557678, -1.36803043, -16.98232460, -0.60292751, 0.78392577, -0.12437648, -0.08043213, 0.07031418, 0.68830550, -0.72650826, 99.98600769, 112.06170654, 32.77000046, 0.00000000
1, 3.2150, 374, 0.06882916, -2.06899071, 0.59744471, 4.01940346, 2.02450824, 130.71873474, -56.21163177, 28.93890572, -84.15667725, 105.10198212, -2.00191379, -17.14178276, -0.60323989, 0.78332573, -0.12880196, -0.07689272, -0.10249687, 1.10305262, -0.34024554, 99.98600769, 112.06170654, 32.77000046, 0.00000000
1, 3.2200, 375, 0.35969093, -2.06987643, 0.11936749, -24.89665794, -2.95843744, 121.81942749, -56.97164536, 30.07892418, -84.33206940, 104.98592377, -2.58684945, -17.31353760, -0.60446465, 0.78197271, -0.13295674, -0.07391666, -0.40267003, 1.10474503, 0.13712582, 99.98600769, 112.06170654, 32.77000046, 0.00000000
1, 3.2250, 376, 0.63837802, -1.59879458, -0.35157099, -36.47401047, -5.58305645, 103.53691101, -56.97164536, 30.07892418, -84.33206940, 104.80362701, -3.07186842, -17.47258186, -0.60605061, 0.78035104, -0.13646190, -0.07164539, -0.68911666, 0.63404733, 0.60643977, 99.98600769, 112.06170654, 32.77000046, 0.00000000
1, 3.2300, 377, 0.71186298, -1.23281753, -0.26887625, -5.81350708, 19.26123619, 83.54872894, -57.26395798, 30.54662323, -84.47821808, 104.77621460, -3.50044107, -17.48534966, -0.60661477, 0.77976018, -0.13877389, -0.06880857, -0.77043760, 0.26800591, 0.52314013, 99.98600769, 112.06170654, 32.77000046, 0.00000000
1, 3.2900, 378, -0.13512643, -1.17026579, 0.22956862, 0.18907215, -99.85956573, 100.08697510, -57.84858322, 33.20666504, -83.30897522, 105.87076569, -7.29918146, -22.54358673, -0.59981942, 0.77347833, -0.19328023, -0.06775629, 0.00903206, 0.21552978, 0.03918198, 99.98600769, 112.06170654, 32.77000046, 0.00000000
