time,ax,ay,az,aT
0.004000,0.0769,0.6837,-0.6456,0.943
0.004000,0.1280,0.6373,-0.7348,0.981
0.004000,0.1353,0.5427,-0.6212,0.836
0.012000,0.1113,0.4442,-0.4050,0.611
0.013000,0.1186,0.3699,-0.1960,0.435
0.018000,0.1307,0.3478,-0.0516,0.375
0.023000,0.1090,0.3319,-0.0145,0.350
0.027000,0.0336,0.3366,-0.0703,0.345
0.032000,-0.0719,0.3260,-0.1950,0.387
0.038000,-0.1626,0.3126,-0.3314,0.484
0.043000,-0.2101,0.2870,-0.4531,0.576
0.047000,-0.2243,0.2758,-0.5412,0.648
0.063000,-0.2053,0.2695,-0.5982,0.687
0.064000,-0.1864,0.2491,-0.5930,0.670
0.065000,-0.1727,0.2146,-0.5353,0.602
0.068000,-0.2123,0.1896,-0.4108,0.500
0.109000,-0.2837,0.1621,-0.2816,0.431
0.110000,-0.3441,0.1557,-0.1549,0.408
0.110000,-0.3693,0.1798,-0.0283,0.412
0.111000,-0.3787,0.2126,0.0578,0.438
0.111000,-0.3696,0.2637,0.0866,0.462
0.112000,-0.3776,0.2759,0.0964,0.477
0.112000,-0.3930,0.2732,0.1136,0.492
0.112000,-0.3846,0.2748,0.1523,0.497
0.112000,-0.3474,0.2808,0.1745,0.480
0.119000,-0.2929,0.2792,0.1848,0.445
0.132000,-0.2257,0.2681,0.1856,0.397
0.133000,-0.1886,0.2570,0.1841,0.368
0.133000,-0.1766,0.2365,0.1467,0.330
0.149000,-0.2021,0.2042,0.0951,0.303
0.150000,-0.2365,0.1795,0.0315,0.299
0.150000,-0.2872,0.1693,-0.0273,0.335
0.153000,-0.3475,0.1666,-0.0765,0.393
0.162000,-0.4010,0.1784,-0.0899,0.448
0.163000,-0.4455,0.1854,-0.0770,0.489
0.169000,-0.5002,0.1946,-0.0474,0.539
0.178000,-1.1956,-0.0674,0.2263,1.219
0.179000,-1.2034,0.0031,0.3543,1.254
0.182000,-0.9333,0.2367,0.3177,1.014
0.188000,-0.6858,0.4571,0.1977,0.848
0.193000,-0.5313,0.5362,-0.0057,0.755
0.197000,-0.5313,0.4771,-0.2354,0.752
0.238000,-0.5922,0.3500,-0.4746,0.836
0.238000,-0.6139,0.2533,-0.7165,0.977
0.239000,-0.5749,0.2304,-0.9060,1.097
0.239000,-0.4897,0.2527,-1.0361,1.174
0.239000,-0.4181,0.2841,-1.0759,1.189
0.239000,-0.3913,0.2838,-1.0301,1.138
0.240000,-0.3950,0.2752,-0.9489,1.064
0.240000,-0.4272,0.2482,-0.8322,0.968
0.249000,-0.4570,0.2193,-0.7062,0.869
0.250000,-0.4605,0.2092,-0.6089,0.792
0.261000,-0.4469,0.1917,-0.5308,0.720
0.262000,-0.4259,0.1831,-0.4836,0.670
0.262000,-0.4046,0.1717,-0.4865,0.656
0.268000,-0.4092,0.1408,-0.5275,0.682
0.280000,-0.4038,0.1290,-0.5780,0.717
0.281000,-0.3836,0.1292,-0.6188,0.739
0.283000,-0.3535,0.1226,-0.6478,0.748
0.348000,-0.3233,0.1167,-0.6649,0.749
0.349000,-0.3218,0.1162,-0.6584,0.742
0.349000,-0.3134,0.1094,-0.6521,0.732
0.349000,-0.2934,0.0940,-0.6510,0.720
0.349000,-0.2790,0.0843,-0.6311,0.695
0.350000,-0.2657,0.0873,-0.5756,0.640
0.350000,-0.2316,0.0909,-0.4990,0.558
0.350000,-0.1982,0.1023,-0.4179,0.474
0.350000,-0.1607,0.0973,-0.3466,0.394
0.353000,-0.1549,0.0854,-0.2636,0.317
0.353000,-0.1711,0.0761,-0.1999,0.274
0.354000,-0.1616,0.0716,-0.1673,0.243
0.354000,-0.1145,0.0814,-0.1420,0.200
0.355000,-0.0274,0.1029,-0.1310,0.169
0.358000,0.0567,0.1244,-0.0889,0.163
0.363000,0.1023,0.1335,-0.0516,0.176
0.368000,0.1309,0.1301,-0.0452,0.190
0.373000,0.1687,0.1094,-0.0697,0.213
0.378000,0.2011,0.0880,-0.1466,0.264
0.383000,0.2256,0.0659,-0.2757,0.362
0.398000,0.2994,0.0768,-0.4453,0.542
0.399000,0.3941,0.0900,-0.6409,0.758
0.399000,0.4092,0.0963,-0.8124,0.915
0.405000,0.3835,0.0793,-1.0150,1.088
0.408000,0.4362,0.1064,-1.2416,1.320
0.413000,0.4787,0.1541,-1.4254,1.512
0.418000,0.4777,0.2104,-1.5855,1.669
0.453000,0.4525,0.2493,-1.6837,1.761
0.454000,0.4225,0.2827,-1.7656,1.837
0.454000,0.3801,0.2912,-1.8646,1.925
0.455000,0.3513,0.2725,-1.9830,2.032
0.455000,0.3549,0.2316,-2.1519,2.193
0.455000,0.3729,0.1805,-2.3667,2.403
0.456000,0.3264,0.1748,-2.4933,2.521
0.463000,0.2743,0.2194,-2.6133,2.637
0.464000,0.2110,0.2834,-2.7505,2.773
0.469000,0.1442,0.3553,-2.8788,2.904
0.479000,0.0843,0.4084,-2.9980,3.027
0.479000,0.0553,0.4237,-3.1271,3.156
0.484000,0.0348,0.4083,-3.2615,3.287
0.501000,0.0195,0.3361,-3.4178,3.434
0.502000,-0.0036,0.2193,-3.5339,3.541
0.502000,-0.0472,0.0853,-3.5742,3.576
0.561000,-0.1117,-0.0466,-3.5340,3.536
0.562000,-0.1903,-0.1271,-3.3730,3.381
0.562000,-0.2688,-0.1538,-3.1271,3.142
0.562000,-0.3336,-0.1363,-2.8538,2.876
0.563000,-0.3980,-0.1109,-2.5239,2.558
0.563000,-0.4607,-0.0710,-2.1303,2.181
0.563000,-0.5389,-0.0429,-1.7128,1.796
0.564000,-0.6030,-0.0256,-1.1899,1.334
0.564000,-0.6217,-0.0024,-0.6997,0.936
0.564000,-0.5756,-0.0060,-0.3351,0.666
0.564000,-0.2564,-0.1525,-0.5379,0.615
0.565000,0.8057,0.0003,-0.8814,1.194
0.565000,1.5321,0.3978,-1.1209,1.940
0.571000,1.6889,0.7416,-1.1868,2.193
0.584000,1.3738,0.7917,-1.0509,1.902
0.585000,0.6351,0.3895,-1.0940,1.324
0.585000,-0.1826,-0.0976,-1.2226,1.240
0.598000,-0.8661,-0.7204,-2.0294,2.321
0.599000,-0.5548,-0.6384,-2.7944,2.920
0.599000,-0.4545,-0.3111,-2.2429,2.310
0.606000,-0.3515,0.2017,-2.1108,2.149
0.609000,-0.3285,0.7614,-1.7451,1.932
0.614000,-0.4832,1.1696,-1.2759,1.797
0.618000,-0.7749,1.3170,-1.1154,1.892
0.661000,-1.1302,1.2428,-0.8856,1.899
0.662000,-1.4589,0.9729,-0.7068,1.891
0.663000,-1.6928,0.6290,-0.5199,1.879
0.663000,-1.9173,0.2352,-0.3255,1.959
0.664000,-2.1035,-0.0756,-0.3521,2.134
0.664000,-2.0996,-0.1783,-0.4968,2.165
0.665000,-1.6888,-0.0174,-0.8744,1.902
0.665000,-1.0951,0.2494,-1.3053,1.722
0.666000,-0.6519,0.4000,-1.6458,1.815
0.669000,-0.4727,0.3923,-1.7668,1.871
0.673000,-0.4444,0.2688,-1.7333,1.809
0.679000,-0.4179,0.1204,-1.5642,1.624
0.683000,-0.5108,-0.0181,-1.1233,1.234
0.691000,-0.6001,-0.0883,-0.5621,0.827
0.693000,-0.5775,-0.0743,-0.0344,0.583
0.698000,-0.5369,-0.0739,0.4037,0.676
0.714000,-0.5215,-0.1472,0.6589,0.853
0.716000,-0.5055,-0.2750,0.6333,0.856
0.716000,-0.4575,-0.3968,0.3830,0.717
0.721000,-0.4423,-0.4826,-0.0402,0.656
0.725000,-0.4456,-0.5167,-0.4365,0.810
0.729000,-0.4754,-0.4800,-0.6452,0.934
0.733000,-0.5845,-0.4510,-0.6354,0.974
0.765000,-0.7413,-0.4632,-0.5080,1.011
0.766000,-0.8673,-0.4689,-0.3730,1.054
0.767000,-0.8936,-0.4350,-0.2947,1.037
0.767000,-0.7927,-0.3377,-0.2606,0.900
0.768000,-0.6264,-0.1829,-0.2161,0.687
0.769000,-0.4493,-0.0354,-0.0682,0.456
0.769000,-0.3004,0.0848,0.1268,0.337
0.776000,-0.1993,0.1745,0.3082,0.406
0.778000,-0.1593,0.2092,0.4608,0.531
0.784000,-0.2129,0.1791,0.5600,0.625
0.789000,-0.3637,0.0668,0.5453,0.659
0.794000,-0.5304,-0.0791,0.3095,0.619
0.799000,-0.6397,-0.1954,-0.0464,0.670
0.815000,-0.6994,-0.2498,-0.4379,0.862
0.816000,-0.7074,-0.2509,-0.8360,1.123
0.817000,-0.6856,-0.2283,-1.3143,1.500
0.820000,-0.6665,-0.2218,-1.9245,2.049
0.825000,-0.7479,-0.2489,-2.5264,2.646
0.828000,-0.9001,-0.2822,-2.9036,3.053
0.834000,-1.0492,-0.2593,-2.8721,3.069
0.878000,-1.1556,-0.2046,-2.4954,2.758
0.880000,-1.1817,-0.1127,-1.9353,2.270
0.880000,-1.1642,-0.0181,-1.3437,1.778
0.881000,-1.1209,0.0753,-0.8271,1.395
0.881000,-1.0867,0.1330,-0.4576,1.187
0.881000,-1.0509,0.0776,0.3224,1.102
0.882000,-1.2732,0.0258,0.9135,1.567
0.882000,-1.8204,-0.1300,0.3098,1.851
0.882000,-2.4594,-0.4207,-0.8565,2.638
0.884000,-2.5701,-0.5643,-2.0377,3.328
0.889000,-1.9552,-0.3950,-2.6924,3.351
0.895000,-1.0908,-0.1058,-2.6415,2.860
0.900000,-0.6099,-0.0546,-2.1641,2.249
0.906000,-0.6507,-0.3158,-1.6124,1.767
0.909000,-0.9733,-0.6317,-1.1391,1.626
0.915000,-1.3086,-0.7539,-0.8106,1.714
0.919000,-1.4638,-0.7567,-0.7584,1.814
0.925000,-1.3875,-0.7691,-1.0009,1.876
0.930000,-1.1873,-0.8120,-1.3312,1.960
0.934000,-1.0035,-0.8653,-1.6222,2.095
0.956000,-0.9594,-0.9093,-1.8859,2.303
0.957000,-1.0745,-0.9460,-2.1775,2.606
0.958000,-1.3360,-1.0154,-2.4018,2.930
0.958000,-1.6326,-1.1074,-2.4666,3.158
0.959000,-1.8563,-1.1910,-2.3945,3.255
0.964000,-1.9694,-1.3002,-2.2867,3.286
0.970000,-1.9430,-1.4023,-2.2894,3.314
0.974000,-1.7945,-1.4617,-2.4337,3.358
0.980000,-1.6077,-1.4922,-2.6737,3.458
0.986000,-1.4857,-1.5804,-2.9162,3.634
0.990000,-1.3947,-1.7827,-3.1156,3.851
0.994000,-1.3208,-2.1441,-3.2000,4.072
0.999000,-1.1689,-2.6734,-3.1812,4.317
1.005000,-1.0857,-2.7414,-2.9229,4.152
1.009000,-1.2116,-2.7174,-2.5880,3.943
1.014000,-1.3758,-2.8255,-2.3208,3.907
1.021000,-1.5107,-3.1185,-2.1667,4.087
1.024000,-1.5559,-3.5019,-2.1020,4.371
1.030000,-1.5493,-3.8506,-2.1770,4.687
1.035000,-1.4042,-4.0687,-2.3508,4.904
1.046000,-1.3991,-4.1890,-2.6873,5.170
1.048000,-1.0897,-4.1812,-3.2789,5.424
1.049000,-1.0319,-4.4202,-3.4310,5.690
1.089000,-0.4384,-4.5262,-3.2631,5.597
1.090000,0.0705,-4.7460,-2.9287,5.577
1.091000,0.4050,-5.0310,-2.4663,5.618
1.091000,0.5413,-5.2033,-1.9350,5.578
1.091000,0.6302,-5.1916,-1.6152,5.474
1.092000,0.7696,-4.9918,-1.4422,5.253
1.092000,0.8705,-4.7492,-1.3323,5.009
1.092000,0.7770,-4.6376,-1.1666,4.845
1.094000,0.6757,-4.4980,-1.1196,4.684
1.099000,0.4779,-4.5430,-0.7525,4.630
1.104000,0.1296,-4.7669,-0.3533,4.782
1.110000,-0.2407,-5.0656,0.0681,5.072
1.114000,-0.5159,-5.3187,0.4491,5.363
1.120000,-0.6362,-5.5940,0.9324,5.707
1.124000,-0.7174,-5.9629,1.4578,6.180
1.130000,-0.7552,-6.3683,1.8879,6.685
1.135000,-0.5460,-6.5961,1.9316,6.895
1.140000,0.3825,-5.8204,0.8600,5.896
1.147000,1.3190,-5.6174,0.8242,5.829
1.150000,2.3312,-5.6304,0.8642,6.155
1.158000,3.4133,-5.7243,1.2285,6.777
1.160000,4.1945,-6.1383,2.0481,7.712
1.164000,4.5982,-6.7621,2.9386,8.689
1.169000,4.5853,-7.2534,3.5021,9.268
1.217000,4.2001,-7.6807,3.9802,9.616
1.219000,3.5850,-7.9107,4.1440,9.623
1.219000,2.9092,-8.0289,4.2784,9.551
1.220000,2.2920,-7.8717,4.1832,9.204
1.221000,1.8727,-7.2406,3.5916,8.297
1.221000,1.6892,-6.3200,2.8408,7.132
1.223000,1.6655,-5.4645,2.4320,6.209
1.223000,1.8364,-4.8582,2.5586,5.790
1.224000,2.2250,-4.4909,3.1325,5.910
1.224000,2.8014,-4.1121,3.6617,6.178
1.225000,3.4165,-3.6706,3.9732,6.398
1.230000,4.0496,-3.1531,4.1766,6.617
1.235000,4.6728,-2.6204,4.3958,6.930
1.241000,5.3047,-2.1327,4.5469,7.305
1.244000,5.9005,-1.7509,4.5597,7.660
1.249000,6.4302,-1.3438,4.6424,8.044
1.281000,6.6263,-0.9859,4.4690,8.053
1.282000,6.5639,-0.6918,4.3723,7.917
1.282000,6.2742,-0.4643,4.2897,7.615
1.282000,5.8412,-0.2727,4.2255,7.214
1.283000,5.3820,-0.0953,4.2228,6.842
1.283000,4.8381,0.1396,4.3938,6.537
1.286000,4.2605,0.4469,4.6230,6.303
1.292000,3.6453,0.8010,4.8697,6.135
1.295000,2.9960,1.1749,5.0241,5.966
1.301000,2.8840,1.7109,4.8288,5.879
1.308000,3.0814,2.2807,4.2834,5.748
1.311000,3.5552,2.7695,3.8853,5.950
1.315000,4.1309,3.1913,3.6491,6.369
1.320000,4.7703,3.5455,3.4579,6.876
1.326000,5.3534,3.8052,3.3187,7.359
1.330000,5.7891,4.0061,3.0688,7.680
1.334000,5.9237,4.2154,2.6511,7.739
1.340000,5.7541,4.4647,2.2190,7.614
1.346000,5.2289,4.6677,1.8343,7.245
1.350000,4.2164,4.6279,1.5333,6.446
1.367000,3.0199,4.3146,1.4729,5.469
1.371000,1.9274,3.8884,1.4376,4.572
1.372000,1.0454,3.5460,1.4751,3.980
1.373000,0.1714,3.3963,1.4267,3.688
1.422000,-0.4879,3.4150,1.2756,3.678
1.426000,-0.7412,3.6056,1.2954,3.902
1.427000,-0.6300,4.0115,1.4584,4.315
1.427000,-0.1490,4.5530,1.5254,4.804
1.428000,0.6631,5.1721,1.5834,5.450
1.429000,1.5054,5.7911,1.6277,6.201
1.430000,2.2262,6.2797,1.5527,6.841
1.430000,2.6903,6.5566,1.4123,7.226
1.430000,2.7830,6.6360,1.2374,7.302
1.431000,2.5124,6.5321,1.0749,7.081
1.431000,1.9823,6.3385,0.8860,6.700
1.432000,1.3368,6.1538,0.7953,6.347
1.436000,0.7125,5.9852,0.9433,6.101
1.439000,0.0842,5.8110,1.4047,5.979
1.447000,-0.6292,5.5301,1.9295,5.891
1.451000,-1.5054,5.1237,2.3632,5.840
1.456000,-2.4225,4.6601,2.4253,5.785
1.461000,-3.1533,4.1866,2.0054,5.612
1.466000,-3.5281,3.8626,1.3038,5.391
1.506000,-3.3673,3.8403,0.6114,5.144
1.507000,-2.8267,4.1433,0.0639,5.016
1.507000,-2.1801,4.6103,-0.2908,5.108
1.508000,-1.6668,5.0418,-0.4470,5.329
1.508000,-1.3261,5.3244,-0.3878,5.501
1.508000,-1.0631,5.4675,-0.2686,5.576
1.509000,-0.7014,5.4753,-0.2429,5.525
1.509000,-0.7156,5.4684,-1.1762,5.639
1.510000,0.2218,5.5120,-1.9808,5.861
1.515000,0.5945,5.4905,-2.9264,6.250
1.521000,0.6412,5.4755,-3.4638,6.511
1.526000,0.4667,5.4051,-3.6881,6.560
1.531000,0.0490,5.3210,-3.6121,6.431
1.537000,-0.4975,5.1132,-3.3479,6.132
1.540000,-0.7634,4.8586,-2.2217,5.397
1.547000,-0.5371,4.5743,0.2252,4.611
1.550000,-0.0272,4.1600,3.4853,5.427
1.556000,0.1743,3.6583,4.5514,5.842
1.560000,-0.1351,3.2220,3.3098,4.621
1.567000,-0.2858,2.9956,2.2791,3.775
1.585000,-0.1140,3.0192,1.4522,3.352
1.588000,0.1294,3.1529,0.5096,3.196
1.589000,0.0470,3.2865,-0.6512,3.351
1.590000,-0.1414,3.3859,-1.5896,3.743
1.592000,-0.1726,3.4710,-2.0469,4.033
1.595000,-0.1111,3.4271,-2.0864,4.014
1.600000,-0.0400,3.2826,-1.8103,3.749
1.641000,0.0123,3.1346,-1.2946,3.391
1.642000,0.0468,3.0134,-0.6394,3.081
1.643000,0.0544,2.9397,0.0289,2.940
1.643000,0.0551,2.8652,0.6111,2.930
1.643000,0.0419,2.7704,1.0493,2.963
1.643000,0.0412,2.6194,1.3508,2.947
1.644000,0.0292,2.4485,1.5228,2.884
1.644000,0.0205,2.2650,1.6252,2.788
1.646000,0.0611,2.0624,1.7132,2.682
1.650000,0.1750,1.8433,1.8273,2.601
1.661000,0.3386,1.6175,1.9412,2.549
1.662000,0.5801,1.3419,2.0120,2.487
1.666000,0.9320,1.0624,1.9006,2.368
1.672000,1.3897,0.7979,1.6930,2.331
1.676000,1.8463,0.5746,1.4632,2.425
1.682000,2.1432,0.4020,1.2620,2.519
1.685000,2.3048,0.2756,1.1563,2.593
1.711000,2.5182,0.1474,1.0714,2.741
1.711000,2.8518,0.0441,1.0276,3.032
1.712000,3.2519,-0.0299,1.0781,3.426
1.712000,3.5890,-0.0826,1.1940,3.783
1.712000,3.8157,-0.1693,1.3886,4.064
1.717000,3.8997,-0.2858,1.6746,4.254
1.722000,3.9356,-0.4465,1.9692,4.423
1.726000,3.9367,-0.6630,2.2448,4.580
1.730000,3.9635,-0.9615,2.4577,4.762
1.736000,4.0400,-1.3057,2.5867,4.972
1.740000,4.1661,-1.6784,2.6536,5.217
1.746000,4.3372,-2.0675,2.7255,5.524
1.751000,4.5727,-2.4771,2.8072,5.910
1.755000,4.8921,-2.9120,2.9413,6.408
1.761000,5.2906,-3.3556,3.0917,6.986
1.766000,5.7443,-3.7269,3.2102,7.563
1.770000,6.1909,-3.9662,3.2709,8.047
1.776000,6.6587,-4.0864,3.2759,8.472
1.780000,7.1180,-4.0928,3.2336,8.825
1.792000,7.4939,-4.0341,3.1395,9.071
1.793000,7.7427,-3.9132,3.0207,9.186
1.795000,7.8210,-3.7114,2.8824,9.124
1.800000,7.8171,-3.4459,2.7558,8.976
1.837000,7.7754,-3.1358,2.6564,8.795
1.838000,7.6906,-2.7916,2.5534,8.571
1.839000,7.5352,-2.4091,2.4331,8.277
1.840000,7.2770,-2.0343,2.3182,7.904
1.841000,6.9103,-1.6772,2.2595,7.461
1.841000,6.3660,-1.3481,2.2256,6.877
1.842000,5.6973,-1.0630,2.2308,6.210
1.842000,4.9342,-0.8412,2.2669,5.495
1.847000,4.1331,-0.7162,2.3233,4.795
1.850000,3.2979,-0.6490,2.3512,4.102
1.856000,2.4735,-0.6272,2.3014,3.436
1.861000,1.7259,-0.6362,2.1825,2.854
1.866000,1.1421,-0.7459,1.9973,2.419
1.871000,0.8052,-0.9473,1.7530,2.149
1.877000,0.6445,-1.2165,1.4508,2.000
1.881000,0.5920,-1.5078,1.0751,1.944
1.889000,0.5819,-1.8240,0.6222,2.013
1.892000,0.5628,-2.1082,0.1274,2.186
1.896000,0.5099,-2.3512,-0.3580,2.432
1.937000,0.4323,-2.5620,-0.7857,2.714
1.937000,0.3299,-2.7500,-1.1243,2.989
1.938000,0.1551,-2.9150,-1.3669,3.223
1.938000,-0.0558,-3.0481,-1.5475,3.419
1.938000,-0.3333,-3.1692,-1.6829,3.604
1.939000,-0.6962,-3.2740,-1.7999,3.800
1.939000,-1.1029,-3.3743,-1.9109,4.032
1.939000,-1.5407,-3.4576,-2.0095,4.286
1.940000,-1.9825,-3.5402,-2.1059,4.571
1.947000,-2.4181,-3.6200,-2.1838,4.870
1.951000,-2.9350,-3.6446,-2.2321,5.185
1.956000,-3.5058,-3.6051,-2.2041,5.491
1.961000,-3.6609,-3.7043,-2.2587,5.677
1.966000,-3.6480,-3.7833,-2.4092,5.782
1.972000,-3.7054,-3.8476,-2.5948,5.939
1.976000,-3.8524,-3.9117,-2.7337,6.133
1.981000,-3.9909,-3.9636,-2.7594,6.265
1.988000,-4.0559,-4.0078,-2.7680,6.338
1.993000,-3.9671,-4.0611,-2.8429,6.349
1.996000,-3.7836,-4.0948,-2.9633,6.314
2.001000,-3.5834,-4.0619,-3.0588,6.221
2.006000,-3.4171,-3.9643,-3.0933,6.080
2.011000,-3.2963,-3.8172,-3.0578,5.898
2.017000,-3.2318,-3.6473,-2.9605,5.702
2.026000,-3.2370,-3.5003,-2.8290,5.544
2.027000,-3.2606,-3.3963,-2.6714,5.413
2.031000,-3.2876,-3.3395,-2.4862,5.305
2.075000,-3.2960,-3.3116,-2.2834,5.200
2.075000,-3.2594,-3.3179,-2.0777,5.094
2.076000,-3.2087,-3.3589,-1.8764,5.010
2.076000,-3.1753,-3.4276,-1.6865,4.967
2.077000,-3.1737,-3.5245,-1.5005,4.975
2.077000,-3.2091,-3.6206,-1.3398,5.020
2.077000,-3.2407,-3.7189,-1.2016,5.077
2.078000,-3.1900,-3.8074,-1.0883,5.085
2.078000,-3.1165,-3.8894,-0.9544,5.075
2.082000,-3.2403,-4.0773,-0.8837,5.282
2.099000,-3.3723,-4.0380,-0.8139,5.324
2.100000,-3.5268,-4.0564,-0.7355,5.425
2.100000,-3.7536,-4.3575,-0.7684,5.802
2.101000,-3.9669,-4.6668,-0.9219,6.194
2.111000,-4.1339,-4.8563,-1.1523,6.481
2.112000,-4.2745,-4.9688,-1.4421,6.711
2.117000,-4.4321,-5.0826,-1.7648,6.971
2.128000,-4.6070,-5.2109,-2.0844,7.261
2.129000,-4.7520,-5.3672,-2.3575,7.546
2.131000,-4.8606,-5.5390,-2.5716,7.805
2.137000,-4.9380,-5.7044,-2.7170,8.019
2.143000,-5.0110,-5.8610,-2.7765,8.196
2.146000,-5.1269,-6.0109,-2.7916,8.379
2.151000,-5.2711,-6.1630,-2.8631,8.600
2.182000,-5.3717,-6.2902,-3.0440,8.814
2.184000,-5.4168,-6.3889,-3.3196,9.010
2.184000,-5.4196,-6.4540,-3.5908,9.161
2.185000,-5.3807,-6.5194,-3.6915,9.224
2.186000,-5.3437,-6.5665,-3.6046,9.201
2.186000,-5.3032,-6.6011,-3.3305,9.099
2.187000,-5.2601,-6.5838,-2.9039,8.913
2.192000,-5.2080,-6.5304,-2.3863,8.687
2.196000,-5.0906,-6.4012,-1.9106,8.399
2.202000,-4.8801,-6.2337,-1.5499,8.067
2.207000,-4.5043,-6.0405,-1.3333,7.652
2.213000,-4.0468,-5.8697,-1.2251,7.234
2.216000,-3.5843,-5.7694,-1.2299,6.903
2.222000,-3.1576,-5.7414,-1.3089,6.682
2.228000,-2.8200,-5.7443,-1.4543,6.562
2.231000,-2.5859,-5.7254,-1.6560,6.497
2.279000,-2.4056,-5.6650,-1.8057,6.414
2.280000,-2.2360,-5.5555,-1.8695,6.274
2.280000,-2.0630,-5.4309,-1.8019,6.083
2.280000,-1.8958,-5.3223,-1.6152,5.876
2.281000,-1.7339,-5.2680,-1.3220,5.701
2.281000,-1.6003,-5.2955,-0.9115,5.607
2.281000,-1.4914,-5.3948,-0.4088,5.612
2.282000,-1.3558,-5.5636,0.1101,5.727
2.282000,-1.1782,-5.7471,0.5801,5.895
2.282000,-0.9370,-5.9145,1.0057,6.072
2.292000,-0.6751,-6.0532,1.3655,6.242
2.293000,-0.4335,-6.2097,1.6576,6.442
2.298000,-0.1812,-6.3351,1.8803,6.611
2.303000,0.1600,-6.4433,2.0278,6.757
2.308000,0.5627,-6.4934,2.1207,6.854
2.313000,0.9973,-6.5084,2.0984,6.911
2.317000,1.4452,-6.4823,1.9941,6.934
2.322000,1.9820,-6.3806,1.8620,6.936
2.328000,2.5684,-6.1555,1.7536,6.897
2.332000,3.1060,-5.8359,1.7148,6.830
2.341000,3.5472,-5.4677,1.7575,6.750
2.343000,3.8760,-5.1009,1.9121,6.686
2.347000,4.1259,-4.7496,2.1590,6.652
2.352000,4.3625,-4.3923,2.4183,6.646
2.408000,4.6051,-4.0032,2.6084,6.636
2.409000,4.8923,-3.5831,2.7240,6.648
2.409000,5.2456,-3.1086,2.7723,6.698
2.410000,5.6364,-2.5891,2.7628,6.790
2.410000,6.0662,-2.0315,2.7527,6.964
2.412000,6.5043,-1.4168,2.7846,7.216
2.412000,6.9096,-0.7675,2.8223,7.503
2.412000,7.2675,-0.1252,2.8823,7.819
2.413000,7.5560,0.5077,2.9406,8.124
2.413000,7.7764,1.1407,2.9679,8.401
2.413000,7.9048,1.7594,2.9209,8.609
2.414000,7.9290,2.3565,2.8042,8.734
2.420000,7.8534,2.9438,2.6346,8.791
2.433000,7.6797,3.4995,2.4243,8.781
2.434000,7.4313,4.0053,2.2195,8.729
2.434000,7.1257,4.4699,2.0590,8.660
2.449000,6.7865,4.8510,1.9359,8.564
2.450000,6.3753,5.1634,1.7954,8.398
2.451000,5.8874,5.3980,1.6422,8.155
2.536000,5.3304,5.5816,1.4787,7.858
2.537000,4.7243,5.7201,1.3189,7.535
2.538000,4.1314,5.8325,1.1650,7.242
2.538000,3.5741,5.9125,1.0430,6.987
2.538000,3.0814,5.9438,0.9240,6.759
2.539000,2.6776,5.9482,0.8104,6.573
2.539000,2.3557,5.9194,0.7165,6.411
2.539000,2.1037,5.8712,0.6277,6.268
2.540000,1.9051,5.7947,0.5224,6.122
2.540000,1.7479,5.7045,0.4297,5.982
2.540000,1.6177,5.5842,0.3472,5.824
2.541000,1.5315,5.4723,0.2774,5.689
2.541000,1.4843,5.4050,0.2325,5.610
2.541000,1.4521,5.3627,0.2217,5.560
2.541000,1.3897,5.3647,0.2690,5.548
2.542000,1.3093,5.3796,0.3594,5.548
2.542000,1.2162,5.3859,0.4781,5.542
2.542000,1.1110,5.3885,0.5959,5.534
2.543000,0.9964,5.3679,0.6762,5.501
2.547000,0.8918,5.3577,0.7333,5.481
2.554000,0.8021,5.3341,0.7625,5.448
2.560000,0.7318,5.2924,0.7855,5.400
2.564000,0.7118,5.2424,0.8121,5.352
2.567000,0.7390,5.1769,0.8503,5.298
2.573000,0.8081,5.1101,0.8834,5.249
2.578000,0.8899,5.0733,0.8931,5.228
2.582000,0.9459,5.0642,0.8796,5.226
2.637000,0.9618,5.0733,0.8884,5.239
2.638000,0.9479,5.0982,0.9287,5.268
2.638000,0.9474,5.1535,1.0027,5.335
2.639000,0.9534,5.2075,1.1048,5.408
2.639000,0.9898,5.2527,1.2229,5.483
2.639000,1.0303,5.3056,1.3517,5.571
2.639000,0.9959,5.3301,1.5029,5.627
2.640000,0.9009,5.3163,1.6668,5.644
2.640000,0.7483,5.3074,1.7997,5.654
2.640000,0.5742,5.2841,1.8898,5.641
2.641000,0.4386,5.2636,1.9536,5.632
2.643000,0.3081,5.2480,1.9864,5.620
2.648000,0.1900,5.2091,1.9787,5.575
2.653000,0.1055,5.1445,1.9334,5.497
2.657000,0.0595,5.0377,1.8626,5.371
2.663000,0.0491,4.9106,1.7741,5.221
2.667000,0.0886,4.7872,1.6778,5.073
2.674000,0.1587,4.6796,1.6097,4.951
2.677000,0.2473,4.5710,1.5771,4.842
2.683000,0.3495,4.4586,1.6013,4.750
2.724000,0.4465,4.3212,1.6581,4.650
2.725000,0.5359,4.1512,1.7423,4.534
2.726000,0.6275,3.9463,1.8346,4.397
2.726000,0.6879,3.7088,1.8941,4.221
2.726000,0.7268,3.4506,1.9424,4.026
2.727000,0.7562,3.1723,1.9654,3.808
2.727000,0.7715,2.8859,2.0087,3.600
2.727000,0.7872,2.5820,2.0603,3.396
2.727000,0.8368,2.2942,2.1083,3.226
2.733000,0.9060,1.9987,2.1430,3.067
2.738000,0.9950,1.7313,2.1620,2.943
2.744000,1.1134,1.4755,2.1966,2.871
2.748000,1.2660,1.2098,2.2131,2.822
2.752000,1.4454,0.9603,2.2284,2.824
2.758000,1.6441,0.7105,2.2095,2.844
2.764000,1.8162,0.4623,2.2021,2.892
2.768000,1.9689,0.2017,2.1993,2.959
2.773000,2.0731,-0.0809,2.1989,3.023
2.778000,2.1268,-0.3784,2.1937,3.079
2.782000,2.1756,-0.6690,2.1597,3.138
2.836000,2.2247,-0.9811,2.1205,3.226
2.837000,2.3297,-1.2862,2.0685,3.371
2.838000,2.5242,-1.6026,2.0062,3.601
2.839000,2.7989,-1.9185,1.9191,3.898
2.839000,3.1462,-2.2143,1.8315,4.261
2.840000,3.5541,-2.4759,1.7578,4.675
2.840000,3.9745,-2.7033,1.7411,5.112
2.841000,4.3933,-2.9373,1.7500,5.567
2.842000,4.8127,-3.1490,1.7942,6.025
2.843000,5.2087,-3.3079,1.8711,6.448
2.843000,5.5905,-3.4145,1.9711,6.841
2.844000,5.9559,-3.4597,2.0843,7.196
2.848000,6.2710,-3.4730,2.1770,7.492
2.853000,6.5379,-3.4374,2.2332,7.717
2.858000,6.7919,-3.3560,2.2339,7.898
2.864000,7.0419,-3.1956,2.1752,8.033
2.869000,7.2176,-2.9711,2.0651,8.074
2.874000,7.2346,-2.7136,1.9688,7.974
2.880000,7.0660,-2.4551,1.9204,7.723
2.884000,6.7144,-2.2096,1.9320,7.328
2.929000,6.2327,-1.9965,2.0057,6.845
2.930000,5.7008,-1.8230,2.0930,6.341
2.931000,5.1647,-1.7155,2.1669,5.858
2.931000,4.6588,-1.6858,2.1838,5.414
2.932000,4.1709,-1.7367,2.1343,4.997
2.932000,3.7421,-1.8259,2.0141,4.625
2.932000,3.3888,-1.9368,1.8284,4.310
2.933000,3.1084,-2.0759,1.5730,4.055
2.933000,2.8983,-2.2021,1.2820,3.859
2.934000,2.7296,-2.3036,0.9795,3.704
2.943000,2.5742,-2.3957,0.7109,3.588
2.944000,2.4446,-2.4932,0.4803,3.525
2.948000,2.3629,-2.6174,0.2849,3.538
2.956000,2.3198,-2.7371,0.1024,3.589
2.960000,2.3253,-2.8310,-0.1175,3.665
2.964000,2.3334,-2.8804,-0.3604,3.724
2.969000,2.2943,-2.8677,-0.6093,3.723
2.975000,2.1812,-2.8151,-0.8330,3.657
2.979000,1.9921,-2.7537,-1.0005,3.543
2.983000,1.7248,-2.6668,-1.1266,3.370
2.990000,1.3870,-2.5856,-1.1804,3.163
2.997000,1.0171,-2.4963,-1.1911,2.947
2.998000,0.6422,-2.3980,-1.1880,2.752
3.044000,0.2505,-2.3083,-1.1952,2.611
3.046000,-0.1268,-2.2391,-1.2369,2.561
3.047000,-0.4849,-2.2048,-1.2701,2.590
3.047000,-0.8360,-2.2013,-1.3041,2.692
3.048000,-1.1871,-2.2106,-1.3723,2.860
3.048000,-1.5360,-2.2209,-1.4624,3.071
3.049000,-1.8804,-2.2415,-1.5577,3.315
3.049000,-2.2131,-2.2578,-1.6578,3.570
3.049000,-2.5176,-2.2932,-1.7578,3.832
3.050000,-2.8083,-2.3481,-1.8220,4.089
3.053000,-3.0801,-2.4280,-1.8622,4.342
3.058000,-3.3188,-2.5167,-1.8906,4.574
3.064000,-3.5148,-2.6161,-1.9049,4.778
3.069000,-3.6493,-2.7313,-1.9288,4.949
3.079000,-3.7248,-2.8483,-1.9549,5.080
3.080000,-3.7680,-2.9396,-1.9904,5.177
3.083000,-3.7908,-3.0368,-2.0232,5.262
3.128000,-3.8030,-3.1257,-2.0317,5.325
3.129000,-3.8451,-3.2347,-2.0258,5.418
3.129000,-3.9096,-3.3470,-2.0082,5.525
3.130000,-3.9867,-3.4608,-1.9792,5.638
3.130000,-4.0737,-3.5724,-1.9321,5.752
3.130000,-4.1586,-3.6942,-1.8670,5.867
3.131000,-4.2245,-3.8478,-1.7961,5.990
3.131000,-4.3073,-4.0091,-1.7243,6.132
3.132000,-4.3830,-4.1805,-1.6707,6.283
3.141000,-4.4638,-4.3456,-1.6425,6.443
3.142000,-4.5307,-4.5126,-1.6370,6.601
3.153000,-4.6079,-4.6700,-1.6444,6.764
3.154000,-4.7077,-4.7958,-1.6740,6.926
3.154000,-4.7995,-4.9425,-1.6942,7.095
3.166000,-4.8667,-5.0960,-1.7146,7.252
3.167000,-4.9340,-5.2310,-1.7344,7.397
3.170000,-5.0329,-5.3669,-1.7390,7.560
3.177000,-5.1641,-5.4962,-1.7327,7.738
3.179000,-5.3062,-5.6140,-1.7249,7.915
3.183000,-5.4381,-5.7487,-1.7105,8.096
3.193000,-5.5505,-5.8979,-1.7110,8.278
3.194000,-5.6461,-6.0345,-1.7333,8.444
3.198000,-5.7303,-6.1658,-1.7771,8.603
3.204000,-5.7937,-6.2701,-1.8302,8.731
3.211000,-5.8412,-6.3546,-1.8900,8.836
3.213000,-5.8587,-6.4480,-1.9400,8.925
3.219000,-5.8364,-6.5452,-2.0018,8.995
3.276000,-5.8026,-6.6531,-2.0737,9.068
3.276000,-5.7139,-6.7475,-2.1440,9.098
3.277000,-5.6105,-6.8381,-2.2419,9.125
3.278000,-5.4925,-6.9199,-2.3556,9.143
3.278000,-5.3739,-6.9976,-2.4851,9.166
3.278000,-5.2237,-7.0614,-2.6425,9.172
3.279000,-5.0438,-7.0850,-2.8042,9.138
3.279000,-4.8219,-7.0659,-2.9943,9.063
3.280000,-4.5482,-7.0111,-3.1869,8.944
3.280000,-4.2342,-6.9110,-3.3774,8.781
3.280000,-3.8799,-6.7771,-3.5373,8.573
3.281000,-3.4916,-6.6199,-3.6552,8.329
3.287000,-3.0526,-6.4103,-3.7097,8.011
3.292000,-2.5838,-6.1653,-3.6915,7.636
3.294000,-2.0587,-5.8688,-3.6153,7.194
3.299000,-1.4768,-5.5551,-3.4981,6.729
3.304000,-0.7929,-5.2126,-3.3753,6.260
3.309000,-0.0618,-4.8866,-3.2089,5.846
3.316000,0.6708,-4.5704,-3.0271,5.523
3.320000,1.3596,-4.2675,-2.8180,5.292
3.352000,1.9592,-3.9932,-2.6030,5.154
3.353000,2.4341,-3.8177,-2.3683,5.110
3.354000,2.7635,-3.7191,-2.1169,5.094
3.354000,2.9960,-3.7207,-1.8541,5.124
3.354000,3.1151,-3.8168,-1.6236,5.187
3.355000,3.1069,-4.0122,-1.4422,5.275
3.355000,3.0050,-4.2658,-1.3408,5.387
3.359000,2.8501,-4.5472,-1.3170,5.526
3.364000,2.6706,-4.8208,-1.3627,5.677
3.401000,2.4736,-5.0442,-1.4893,5.812
3.402000,2.2971,-5.2020,-1.6555,5.923
3.402000,2.1838,-5.2881,-1.8268,6.006
3.403000,2.1761,-5.3020,-1.9353,6.049
3.403000,2.2691,-5.2257,-1.9301,6.015
3.403000,2.4402,-5.0584,-1.7937,5.896
3.404000,2.6413,-4.8071,-1.5495,5.700
3.404000,2.8506,-4.4915,-1.2019,5.454
3.410000,3.0988,-4.0982,-0.8032,5.200
3.416000,3.3501,-3.6799,-0.3798,4.991
3.422000,3.5728,-3.2463,0.1092,4.829
3.425000,3.6214,-2.7977,0.6082,4.616
3.429000,4.0027,-2.3422,1.0980,4.766
3.434000,4.1515,-1.9000,1.6099,4.841
3.439000,4.2045,-1.5004,2.0837,4.927
3.444000,4.2022,-1.1075,2.5170,5.022
3.449000,4.1561,-0.7256,2.8905,5.114
3.496000,4.0495,-0.3784,3.2158,5.185
3.497000,3.9373,-0.0421,3.4977,5.267
3.497000,3.8293,0.2758,3.7239,5.349
3.497000,3.7278,0.5850,3.8893,5.419
3.498000,3.6188,0.8884,4.0131,5.476
3.498000,3.5206,1.1965,4.0900,5.528
3.499000,3.4384,1.4981,4.1153,5.568
3.499000,3.3598,1.7837,4.1203,5.608
3.500000,3.2871,2.0532,4.0953,5.638
3.500000,3.2058,2.3218,4.0646,5.674
3.507000,3.0842,2.5856,4.0087,5.680
3.509000,2.9607,2.8570,3.9418,5.698
3.515000,2.8258,3.1410,3.8686,5.729
3.519000,2.7107,3.4184,3.7840,5.775
3.528000,2.6034,3.7059,3.6830,5.837
3.529000,2.4826,3.9896,3.5562,5.893
3.534000,2.3430,4.2664,3.4246,5.951
3.545000,2.2065,4.5007,3.2859,5.994
3.549000,2.0681,4.7264,3.1496,6.044
3.550000,1.9302,4.9147,3.0253,6.085
3.607000,1.7975,5.0801,2.8915,6.116
3.608000,1.6676,5.2495,2.7580,6.160
3.608000,1.5429,5.4198,2.6218,6.215
3.608000,1.4594,5.5723,2.4901,6.275
3.609000,1.3958,5.7335,2.3963,6.369
3.609000,1.3278,5.8650,2.3307,6.449
3.609000,1.2679,5.9696,2.3077,6.524
3.610000,1.1991,6.0538,2.3001,6.586
3.610000,1.1219,6.1037,2.3031,6.620
3.610000,1.0436,6.1240,2.3067,6.627
3.611000,0.9621,6.1315,2.3251,6.628
3.611000,0.8752,6.1096,2.3365,6.599
3.614000,0.8235,6.0777,2.3292,6.561
3.620000,0.7949,6.0213,2.2936,6.492
3.624000,0.7843,5.9549,2.2156,6.402
3.630000,0.7604,5.8955,2.1005,6.305
3.634000,0.7257,5.8384,1.9892,6.211
3.642000,0.6826,5.7863,1.8841,6.123
3.645000,0.6456,5.7391,1.7899,6.046
3.649000,0.6075,5.7019,1.7019,5.981
3.698000,0.5493,5.6577,1.6345,5.915
3.699000,0.4376,5.5973,1.5876,5.835
3.701000,0.3034,5.4967,1.5542,5.720
3.701000,0.1396,5.3514,1.5225,5.566
3.702000,-0.0084,5.1902,1.4593,5.391
3.703000,-0.1382,5.0423,1.3577,5.224
3.705000,-0.2738,4.9270,1.2253,5.084
3.706000,-0.3981,4.8085,1.0979,4.948
3.708000,-0.5346,4.6945,1.0016,4.830
3.709000,-0.6398,4.5731,0.9243,4.709
3.709000,-0.6915,4.4231,0.8774,4.562
3.711000,-0.6918,4.2686,0.8606,4.409
3.715000,-0.6332,4.1144,0.8447,4.248
3.723000,-0.4965,3.9771,0.8558,4.098
3.725000,-0.2963,3.8375,0.9036,3.954
3.730000,-0.0475,3.7098,0.9976,3.842
3.736000,0.2116,3.5769,1.1307,3.757
3.741000,0.4732,3.4434,1.2623,3.698
3.745000,0.7061,3.3116,1.4045,3.666
3.750000,0.9055,3.1766,1.6171,3.678
3.756000,1.0430,3.0000,1.8445,3.673
3.760000,1.1210,2.8034,2.0867,3.670
3.765000,1.2188,2.6204,2.3055,3.697
3.811000,1.3407,2.4724,2.5035,3.765
3.812000,1.4723,2.3474,2.6522,3.836
3.813000,1.6108,2.2500,2.7757,3.919
3.813000,1.7201,2.1681,2.8982,4.007
3.813000,1.8122,2.0921,3.0294,4.103
3.814000,1.8846,2.0027,3.1571,4.187
3.814000,1.9564,1.8949,3.2621,4.250
3.814000,2.0207,1.7783,3.3396,4.289
3.814000,2.0987,1.6504,3.3921,4.317
3.816000,2.1640,1.4797,3.4314,4.318
3.820000,2.2382,1.2619,3.4555,4.306
3.826000,2.3116,0.9946,3.4620,4.280
3.830000,2.3844,0.6875,3.4438,4.245
3.835000,2.4807,0.3552,3.4083,4.230
3.841000,2.6052,0.0144,3.3242,4.223
3.847000,2.7700,-0.3294,3.2422,4.277
3.850000,2.9392,-0.6716,3.1719,4.376
3.859000,3.1249,-1.0239,3.1063,4.524
3.861000,3.3367,-1.3694,3.0260,4.708
3.866000,3.5605,-1.7201,2.9502,4.933
3.922000,3.7938,-2.0735,2.8860,5.198
3.924000,4.0203,-2.4265,2.8240,5.480
3.925000,4.2592,-2.7700,2.7616,5.783
3.927000,4.5150,-3.0868,2.6585,6.081
3.928000,4.7682,-3.3340,2.5126,6.338
3.929000,5.0093,-3.4998,2.3362,6.542
3.930000,5.2426,-3.5964,2.1341,6.706
3.931000,5.4490,-3.6257,1.9404,6.827
3.932000,5.6163,-3.6072,1.7647,6.904
3.933000,5.7349,-3.5627,1.6188,6.943
3.934000,5.8289,-3.4778,1.5002,6.951
3.936000,5.9314,-3.3625,1.3970,6.960
3.938000,6.0113,-3.1903,1.3094,6.930
3.939000,6.0706,-2.9906,1.2446,6.881
3.943000,6.0635,-2.7494,1.2028,6.766
3.946000,5.9469,-2.5150,1.1766,6.563
3.951000,5.7279,-2.2900,1.1709,6.279
3.957000,5.4234,-2.0724,1.1711,5.923
3.961000,5.0388,-1.8762,1.1652,5.502
3.966000,4.5980,-1.7018,1.1552,5.037
3.979000,4.1278,-1.5515,1.1387,4.554
3.980000,3.6595,-1.4275,1.0891,4.076
3.980000,3.2150,-1.3322,1.0113,3.624
3.986000,2.8106,-1.2490,0.9029,3.205
4.037000,2.4205,-1.2106,0.7953,2.821
4.038000,2.0779,-1.1909,0.6766,2.489
4.038000,1.7564,-1.2065,0.5397,2.198
4.039000,1.4752,-1.2479,0.3824,1.970
4.039000,1.2174,-1.3128,0.2021,1.802
4.040000,0.9692,-1.4096,0.0256,1.711
4.040000,0.7519,-1.5433,-0.1618,1.724
4.040000,0.5443,-1.6801,-0.3646,1.803
4.040000,0.3677,-1.8219,-0.5731,1.945
4.041000,0.2101,-1.9303,-0.8085,2.103
4.041000,0.0520,-2.0055,-1.0658,2.272
4.046000,-0.1185,-2.0513,-1.3208,2.443
4.051000,-0.3516,-2.0729,-1.5710,2.625
4.058000,-0.6109,-2.0890,-1.7954,2.821
4.060000,-0.8601,-2.0924,-1.9991,3.019
4.113000,-1.0775,-2.0758,-2.1777,3.196
4.114000,-1.2774,-2.0471,-2.3386,3.360
4.114000,-1.4805,-1.9979,-2.4729,3.507
4.115000,-1.6941,-1.9266,-2.6046,3.656
4.115000,-1.9131,-1.8570,-2.7079,3.800
4.116000,-2.1349,-1.7844,-2.7829,3.935
4.116000,-2.3499,-1.7117,-2.8277,4.056
4.116000,-2.5624,-1.6549,-2.8283,4.160
4.117000,-2.7795,-1.6265,-2.8137,4.276
4.117000,-2.9845,-1.6073,-2.7910,4.391
4.118000,-3.1727,-1.5976,-2.7508,4.493
4.123000,-3.3395,-1.6139,-2.6978,4.586
4.126000,-3.4969,-1.6451,-2.6367,4.678
4.131000,-3.6329,-1.6638,-2.5532,4.742
4.136000,-3.7764,-1.7137,-2.4521,4.818
4.143000,-3.9129,-1.7947,-2.3334,4.897
4.146000,-4.0784,-1.8923,-2.2068,5.008
4.150000,-4.2392,-2.0040,-2.0818,5.130
4.197000,-4.3810,-2.1301,-1.9465,5.246
4.198000,-4.5062,-2.2599,-1.8175,5.359
4.199000,-4.6052,-2.4032,-1.6758,5.458
4.200000,-4.6520,-2.5432,-1.5570,5.526
4.202000,-4.6588,-2.6989,-1.4394,5.573
4.203000,-4.6472,-2.8613,-1.3396,5.619
4.207000,-4.6177,-3.0293,-1.2596,5.664
4.209000,-4.5774,-3.1866,-1.1801,5.701
4.210000,-4.5385,-3.3713,-1.1131,5.762
4.212000,-4.4985,-3.5592,-1.0585,5.833
4.212000,-4.4362,-3.7431,-1.0090,5.891
4.213000,-4.3849,-3.9234,-0.9910,5.967
4.218000,-4.3308,-4.1014,-0.9990,6.048
4.224000,-4.3006,-4.2775,-1.0233,6.151
4.225000,-4.2730,-4.4467,-1.0754,6.260
4.231000,-4.2507,-4.5922,-1.1502,6.362
4.235000,-4.2579,-4.7452,-1.2164,6.491
4.240000,-4.2877,-4.8927,-1.2690,6.628
4.246000,-4.3401,-5.0589,-1.3225,6.795
4.250000,-4.3983,-5.2219,-1.3768,6.965
4.259000,-4.4554,-5.3983,-1.4342,7.145
4.263000,-4.5065,-5.5807,-1.4804,7.324
4.266000,-4.5564,-5.7715,-1.5252,7.510
4.318000,-4.6195,-5.9770,-1.5758,7.717
4.319000,-4.6693,-6.1853,-1.6418,7.922
4.320000,-4.7344,-6.3889,-1.7403,8.140
4.321000,-4.7793,-6.5636,-1.8494,8.327
4.322000,-4.8037,-6.6995,-1.9859,8.480
4.322000,-4.8222,-6.8083,-2.1094,8.606
4.323000,-4.8247,-6.8561,-2.2153,8.671
4.323000,-4.8013,-6.8786,-2.2898,8.695
4.324000,-4.6940,-6.8612,-2.3168,8.630
4.325000,-4.5313,-6.8112,-2.3373,8.508
4.325000,-4.3200,-6.7454,-2.3302,8.342
4.327000,-4.0503,-6.6645,-2.3028,8.132
4.331000,-3.7461,-6.5640,-2.2720,7.892
4.337000,-3.4265,-6.4704,-2.2281,7.653
4.345000,-3.1129,-6.3766,-2.1807,7.423
4.347000,-2.8244,-6.3162,-2.1371,7.241
4.352000,-2.5582,-6.2697,-2.0996,7.090
4.414000,-2.3072,-6.2685,-2.0203,6.978
4.415000,-2.0687,-6.3119,-1.8778,6.903
4.416000,-1.7920,-6.4164,-1.6678,6.867
4.416000,-1.4599,-6.5674,-1.3903,6.870
4.416000,-1.0579,-6.7432,-1.0816,6.911
4.417000,-0.5856,-6.9122,-0.7847,6.981
4.417000,-0.0364,-7.0375,-0.5300,7.057
4.417000,0.6062,-7.0852,-0.3218,7.118
4.418000,1.3229,-7.0461,-0.1620,7.171
4.418000,2.0557,-6.8871,-0.0691,7.188
4.418000,2.7736,-6.5888,-0.0235,7.149
4.419000,3.4708,-6.1797,-0.0194,7.088
4.419000,4.1258,-5.6691,-0.0230,7.011
4.425000,4.7092,-5.0916,-0.0265,6.936
4.426000,5.1778,-4.4862,0.0087,6.851
4.434000,5.5192,-3.8708,0.0684,6.742
4.437000,5.7168,-3.2812,0.1861,6.594
4.442000,5.7892,-2.7055,0.3355,6.399
4.448000,5.7820,-2.1507,0.4854,6.188
4.452000,5.7023,-1.6148,0.6117,5.958
4.515000,5.5212,-1.1101,0.6907,5.674
4.516000,5.2532,-0.6380,0.7367,5.343
4.516000,4.9386,-0.2096,0.7689,5.003
4.516000,4.6331,0.1975,0.7989,4.706
4.517000,4.3608,0.5597,0.8813,4.484
4.517000,4.1412,0.8863,1.0062,4.353
4.517000,3.9456,1.1843,1.1683,4.282
4.517000,3.7386,1.4638,1.3436,4.234
4.518000,3.5032,1.6993,1.4928,4.170
4.518000,3.2806,1.9371,1.6258,4.142
4.519000,3.0660,2.1605,1.7399,4.135
4.519000,2.8618,2.3766,1.8325,4.147
4.519000,2.6898,2.5831,1.9394,4.203
4.529000,2.5334,2.7877,2.0509,4.289
4.530000,2.4042,2.9630,2.1667,4.388
4.533000,2.3357,3.1428,2.2772,4.530
4.540000,2.3201,3.3629,2.3611,4.719
4.541000,2.3618,3.6038,2.4089,4.936
4.546000,2.4150,3.8610,2.4282,5.161
4.551000,2.4426,4.1094,2.4332,5.364
4.599000,2.4519,4.3683,2.4337,5.569
4.599000,2.4401,4.6090,2.4345,5.755
4.600000,2.3952,4.8363,2.4140,5.912
4.600000,2.3340,5.0525,2.3815,6.054
4.601000,2.2708,5.2604,2.3396,6.189
4.601000,2.2218,5.4782,2.2927,6.341
4.601000,2.2467,5.6823,2.2411,6.508
4.602000,2.0866,5.8918,2.1896,6.623
4.602000,1.9714,6.0756,2.1549,6.741
4.603000,1.8291,6.2363,2.1131,6.834
4.609000,1.6698,6.3598,2.0665,6.892
4.612000,1.5007,6.4506,2.0385,6.929
4.617000,1.3389,6.5115,2.0242,6.949
4.623000,1.1917,6.5234,2.0210,6.932
4.626000,1.0616,6.5030,2.0047,6.887
4.631000,0.9489,6.4720,1.9540,6.827
4.637000,0.8491,6.4093,1.8469,6.724
4.642000,0.7673,6.3293,1.7121,6.602
4.647000,0.7112,6.2563,1.5663,6.488
4.652000,0.7050,6.1691,1.4333,6.373
4.716000,0.7006,6.0656,1.3111,6.245
4.716000,0.6836,5.9363,1.2287,6.101
4.717000,0.7112,5.7983,1.1765,5.959
4.717000,0.7545,5.6491,1.1476,5.814
4.717000,0.8162,5.4914,1.1156,5.663
4.718000,0.8867,5.3468,1.0972,5.530
4.718000,0.9422,5.1867,1.0901,5.383
4.718000,0.9560,5.0422,1.1233,5.254
4.719000,0.9426,4.9060,1.1751,5.132
4.719000,0.9186,4.7544,1.2408,4.999
4.719000,0.8677,4.6230,1.3058,4.882
4.720000,0.8069,4.4761,1.3794,4.753
4.720000,0.7702,4.3379,1.4566,4.640
4.721000,0.7697,4.2178,1.5302,4.552
4.728000,0.7910,4.1255,1.5953,4.493
4.731000,0.8363,4.0490,1.6377,4.447
4.739000,0.8982,3.9907,1.6960,4.428
4.741000,0.9598,3.9121,1.7630,4.397
4.747000,1.0063,3.8299,1.8604,4.375
4.751000,1.0357,3.7226,1.9640,4.334
4.795000,1.0480,3.6139,2.0546,4.287
4.796000,1.0576,3.4800,2.1392,4.220
4.797000,1.0767,3.3471,2.1867,4.141
4.797000,1.1077,3.2060,2.1878,4.036
4.797000,1.1574,3.0972,2.1379,3.937
4.798000,1.2380,3.0091,2.0397,3.840
4.798000,1.3443,2.9512,1.9365,3.777
4.798000,1.4380,2.9212,1.8596,3.750
4.798000,1.5264,2.8616,1.8350,3.726
4.801000,1.6501,2.7818,1.8914,3.747
4.807000,1.8069,2.6528,1.9420,3.751
4.816000,1.9775,2.5058,1.9824,3.758
4.822000,1.9611,2.4746,1.9692,3.721
4.823000,2.1284,2.2861,1.9982,3.708
4.827000,2.4863,1.8642,2.0623,3.730
4.836000,2.6353,1.5795,2.1134,3.729
4.839000,2.7577,1.2461,2.2020,3.743
4.842000,2.8755,0.8543,2.3206,3.793
4.847000,2.9818,0.4115,2.4522,3.882
4.851000,3.0843,-0.0602,2.6015,4.035
4.895000,3.2337,-0.5558,2.7873,4.305
4.895000,3.3945,-1.0751,3.0167,4.667
4.896000,3.5886,-1.5888,3.2728,5.110
4.896000,3.8087,-2.0946,3.5460,5.610
4.896000,4.0574,-2.5852,3.8482,6.161
4.897000,4.3178,-3.0368,4.1556,6.718
4.897000,4.5613,-3.4210,4.3865,7.194
4.897000,4.7898,-3.7515,4.5659,7.607
4.898000,5.0487,-3.9832,4.6891,7.959
4.903000,5.3133,-4.1351,4.7902,8.263
4.908000,5.5858,-4.1767,4.8430,8.491
4.915000,5.8319,-4.0871,4.8167,8.597
4.920000,6.0746,-3.8720,4.7405,8.624
4.923000,6.2384,-3.5390,4.6201,8.532
4.927000,6.2939,-3.1373,4.4843,8.341
4.932000,6.2430,-2.7152,4.3142,8.060
4.937000,6.0855,-2.3070,4.1432,7.715
4.942000,5.8835,-1.9419,3.9737,7.360
4.947000,5.6179,-1.6724,3.8153,6.994
4.952000,5.3178,-1.5060,3.6438,6.620
4.957000,5.0048,-1.4570,3.4447,6.248
4.962000,4.6884,-1.4871,3.2185,5.878
4.967000,4.3950,-1.5939,2.9460,5.526
5.012000,4.1292,-1.7918,2.6539,5.225
5.012000,3.8721,-2.0388,2.3140,4.950
5.013000,3.6691,-2.3061,1.9124,4.737
5.013000,3.4794,-2.6001,1.4784,4.588
5.013000,3.3201,-2.8819,1.0458,4.519
5.014000,3.1645,-3.1417,0.6196,4.502
5.014000,3.0159,-3.3659,0.2122,4.524
5.014000,2.8645,-3.5379,-0.1525,4.555
5.015000,2.6461,-3.7223,-0.4890,4.593
5.017000,2.4044,-3.8948,-0.7736,4.642
5.023000,2.1711,-4.0290,-1.0620,4.698
5.028000,1.9108,-4.1472,-1.3831,4.771
5.032000,1.6079,-4.2047,-1.7162,4.818
5.037000,1.2866,-4.2191,-2.0567,4.867
5.042000,0.9451,-4.1926,-2.3788,4.912
5.048000,0.5816,-4.1420,-2.7046,4.981
5.052000,0.2082,-4.0417,-3.0010,5.038
5.057000,-0.1907,-3.9452,-3.2639,5.124
5.062000,-0.6030,-3.8723,-3.4986,5.253
5.067000,-1.0045,-3.7966,-3.6864,5.386
5.073000,-1.4043,-3.7418,-3.8323,5.537
5.077000,-1.7666,-3.7003,-3.9177,5.671
5.082000,-2.1036,-3.6753,-3.9472,5.789
5.130000,-2.4292,-3.6773,-3.8998,5.885
5.131000,-2.7439,-3.6615,-3.8255,5.964
5.132000,-3.0406,-3.6423,-3.7387,6.041
5.132000,-3.3100,-3.6122,-3.6561,6.113
5.132000,-3.5499,-3.5880,-3.5655,6.180
5.133000,-3.7344,-3.5556,-3.4668,6.213
5.133000,-3.8684,-3.5090,-3.3788,6.220
5.134000,-3.9762,-3.4536,-3.2870,6.208
5.134000,-4.0677,-3.4134,-3.2079,6.204
5.135000,-4.1266,-3.3790,-3.1341,6.186
5.145000,-4.1435,-3.3558,-3.0798,6.157
5.147000,-4.1284,-3.3355,-3.0111,6.102
5.148000,-4.0887,-3.3357,-2.9278,6.035
5.154000,-4.0342,-3.3419,-2.8514,5.964
5.158000,-3.9843,-3.3638,-2.7578,5.899
5.164000,-3.9652,-3.3848,-2.6470,5.847
5.169000,-3.9840,-3.4292,-2.5095,5.825
5.180000,-4.0238,-3.5082,-2.3816,5.846
5.182000,-4.0940,-3.6220,-2.2490,5.911
5.183000,-4.1464,-3.7323,-2.1382,5.974
5.250000,-4.2172,-3.8390,-2.0611,6.064
5.251000,-4.3182,-3.9181,-2.0082,6.167
5.251000,-4.4542,-3.9868,-1.9890,6.300
5.252000,-4.6370,-4.0677,-1.9916,6.482
5.252000,-4.8354,-4.1492,-2.0210,6.684
5.253000,-5.0181,-4.2332,-2.0535,6.879
5.253000,-5.1731,-4.3293,-2.0820,7.060
5.254000,-5.3007,-4.4254,-2.1040,7.219
5.254000,-5.4514,-4.5471,-2.1216,7.409
5.254000,-5.6040,-4.6440,-2.1490,7.589
5.255000,-5.7657,-4.7351,-2.1932,7.777
5.255000,-5.9464,-4.8033,-2.2541,7.970
5.256000,-6.1438,-4.8720,-2.3389,8.182
5.256000,-6.3291,-4.9504,-2.4142,8.390
5.257000,-6.4689,-5.0112,-2.4610,8.545
5.264000,-6.5800,-5.0949,-2.4913,8.687
5.269000,-6.6340,-5.1869,-2.4931,8.782
5.273000,-6.6478,-5.3036,-2.4807,8.859
5.279000,-6.6289,-5.4210,-2.4779,8.915
5.282000,-6.6039,-5.5246,-2.5130,8.969
5.290000,-6.5562,-5.6119,-2.5644,9.003
5.293000,-6.4619,-5.6565,-2.6319,8.982
5.298000,-6.2924,-5.6585,-2.7251,8.890
5.362000,-6.0548,-5.6035,-2.8607,8.732
5.363000,-5.7824,-5.5061,-3.0317,8.541
5.365000,-5.5370,-5.4096,-3.2074,8.379
5.366000,-5.2870,-5.3019,-3.3714,8.211
5.367000,-4.9673,-5.1825,-3.5024,7.987
5.368000,-4.5970,-5.0183,-3.5960,7.697
5.369000,-4.1997,-4.8144,-3.6450,7.355
5.370000,-3.7942,-4.6041,-3.6473,6.993
5.372000,-3.4185,-4.4053,-3.5720,6.622
5.373000,-3.0408,-4.2417,-3.4338,6.247
5.375000,-2.6177,-4.1040,-3.1974,5.824
5.376000,-2.1509,-4.0190,-2.8872,5.396
5.377000,-1.6521,-3.9650,-2.5201,4.980
5.378000,-1.1883,-3.9749,-2.1153,4.657
5.379000,-0.7352,-4.0292,-1.6846,4.429
5.379000,-0.3311,-4.1186,-1.2664,4.322
5.384000,0.0384,-4.2284,-0.8937,4.322
5.390000,0.3733,-4.3417,-0.5708,4.395
5.395000,0.7023,-4.4622,-0.2999,4.527
5.399000,1.0346,-4.5669,-0.0417,4.683
5.404000,1.4253,-4.6454,0.2230,4.864
5.409000,1.8911,-4.6711,0.5138,5.066
5.413000,2.4370,-4.6465,0.8332,5.313
5.418000,3.0412,-4.5958,1.2102,5.642
5.483000,3.6776,-4.5043,1.6237,6.037
5.484000,4.3933,-4.3548,2.0381,6.513
5.484000,5.1689,-4.1160,2.4563,7.049
5.485000,5.9583,-3.7436,2.8503,7.592
5.486000,6.7437,-3.2461,3.2878,8.175
5.486000,7.4819,-2.6715,3.7785,8.797
5.487000,8.1262,-2.0520,4.2170,9.382
5.488000,8.6524,-1.3952,4.6680,9.930
5.488000,9.0193,-0.7360,5.1313,10.403
5.489000,9.2049,-0.0873,5.5658,10.757
5.489000,9.1946,0.5665,5.9642,10.974
5.490000,8.9837,1.1848,6.3093,11.042
5.490000,8.5903,1.7558,6.5721,10.958
5.491000,8.0744,2.2850,6.7331,10.759
5.495000,7.4933,2.7845,6.8043,10.498
5.498000,6.8639,3.2328,6.7831,10.177
5.504000,6.2219,3.6306,6.6910,9.832
5.509000,5.6346,3.9691,6.5400,9.501
5.513000,5.1299,4.2621,6.3085,9.180
5.519000,4.7129,4.5201,5.9989,8.867
5.573000,4.4071,4.7386,5.6305,8.578
5.575000,4.1959,4.9324,5.2105,8.312
5.576000,4.0648,5.1069,4.7702,8.084
5.578000,3.9989,5.2736,4.3095,7.898
5.579000,4.0173,5.4306,3.8572,7.779
5.580000,4.0862,5.5778,3.4206,7.714
5.582000,4.1551,5.7105,3.0283,7.684
5.583000,4.1878,5.8523,2.6803,7.679
5.585000,4.1487,5.9605,2.3837,7.643
5.586000,4.0161,6.0272,2.1117,7.544
5.588000,3.7693,6.0409,1.8688,7.362
5.589000,3.4113,6.0328,1.6380,7.121
5.590000,2.9789,5.9700,1.4045,6.818
5.590000,2.4867,5.8694,1.1922,6.485
5.595000,1.9616,5.7509,0.9724,6.154
5.600000,1.4518,5.6171,0.7595,5.851
5.604000,0.9314,5.4877,0.5871,5.597
5.609000,0.4367,5.3417,0.4071,5.375
5.615000,-0.0342,5.1867,0.2411,5.192
5.619000,-0.4664,5.0353,0.1056,5.058
5.624000,-0.8380,4.8854,-0.0209,4.957
5.629000,-1.1435,4.7302,-0.1531,4.869
5.633000,-1.3806,4.5702,-0.3006,4.784
5.702000,-1.5468,4.4390,-0.4728,4.725
5.703000,-1.6208,4.3297,-0.6432,4.668
5.703000,-1.6414,4.2469,-0.8042,4.624
5.704000,-1.6276,4.1669,-0.9463,4.572
5.704000,-1.5799,4.0918,-1.0694,4.515
5.704000,-1.5150,4.0145,-1.1830,4.451
5.704000,-1.4830,3.9587,-1.2899,4.420
5.705000,-1.4790,3.8816,-1.3971,4.382
5.705000,-1.4816,3.8021,-1.5167,4.353
5.706000,-1.4714,3.7277,-1.6390,4.330
5.706000,-1.4821,3.6415,-1.7449,4.301
5.706000,-1.5039,3.5557,-1.8344,4.274
5.706000,-1.5272,3.4630,-1.9030,4.236
5.707000,-1.5588,3.3612,-1.9507,4.187
5.710000,-1.6011,3.2458,-1.9777,4.124
5.714000,-1.6250,3.1503,-1.9743,4.057
5.719000,-1.6569,3.0605,-1.9433,3.986
5.724000,-1.6561,2.9669,-1.8797,3.883
5.730000,-1.6370,2.8790,-1.7693,3.755
5.734000,-1.6284,2.7705,-1.6047,3.592
5.741000,-1.6160,2.6317,-1.3696,3.378
5.744000,-1.6137,2.4699,-1.0596,3.135
5.749000,-1.6118,2.2799,-0.7157,2.882
5.818000,-1.5715,2.0643,-0.3696,2.621
5.819000,-1.4616,1.8112,-0.0333,2.328
5.820000,-1.2916,1.5348,0.2928,2.027
5.820000,-1.0641,1.2160,0.5899,1.720
5.820000,-0.7891,0.8836,0.8799,1.476
5.820000,-0.4763,0.5426,1.1487,1.357
5.821000,-0.1164,0.2530,1.3657,1.394
5.821000,0.2686,0.0364,1.5433,1.567
5.821000,0.6588,-0.0859,1.7108,1.835
5.822000,1.0253,-0.1142,1.8734,2.139
5.822000,1.3411,-0.0846,2.0265,2.432
5.822000,1.6227,-0.0358,2.2135,2.745
5.822000,1.8912,0.0343,2.4440,3.090
5.823000,2.0890,0.0916,2.6795,3.399
5.824000,2.2157,0.1190,2.9463,3.688
5.830000,2.2884,0.1112,3.2106,3.944
5.834000,2.3168,0.0822,3.4312,4.141
5.840000,2.3465,0.0223,3.5793,4.280
5.844000,2.3992,-0.0663,3.6427,4.362
5.849000,2.4725,-0.2002,3.6121,4.382
5.859000,2.5740,-0.3935,3.5064,4.368
5.860000,2.7207,-0.6407,3.3283,4.346
5.864000,2.9249,-0.9389,3.0874,4.355
5.869000,3.2009,-1.2612,2.8199,4.448
5.927000,3.5300,-1.6476,2.5929,4.680
5.927000,3.9578,-2.0113,2.3922,5.043
5.928000,4.4866,-2.3378,2.2320,5.530
5.928000,5.0472,-2.6488,2.1433,6.090
5.929000,5.6159,-2.8916,2.0635,6.645
5.929000,6.1714,-3.0568,1.9733,7.164
5.929000,6.7278,-3.1014,1.8730,7.641
5.930000,7.2413,-3.0545,1.7894,8.060
5.930000,7.7066,-2.9286,1.6868,8.415
5.930000,8.0801,-2.7243,1.5773,8.672
5.931000,8.3441,-2.4616,1.4925,8.827
5.931000,8.4432,-2.1367,1.4513,8.829
5.939000,8.3506,-1.7814,1.4659,8.663
5.940000,8.0808,-1.4421,1.4997,8.344
5.949000,7.6967,-1.1504,1.5425,7.934
5.949000,7.2751,-0.9064,1.5464,7.493
5.963000,6.8497,-0.7122,1.5186,7.052
5.964000,6.4657,-0.5536,1.4783,6.656
5.965000,6.0891,-0.4781,1.4406,6.275
5.971000,5.7028,-0.4689,1.3890,5.888
6.050000,5.2992,-0.5305,1.3288,5.489
6.051000,4.8732,-0.6197,1.2534,5.070
6.052000,4.4176,-0.7311,1.1845,4.632
6.052000,3.9900,-0.8364,1.0981,4.222
6.052000,3.5766,-0.9536,0.9800,3.829
6.052000,3.1918,-1.0611,0.8304,3.465
6.053000,2.8598,-1.1538,0.6468,3.151
6.053000,2.5612,-1.2172,0.4345,2.869
6.053000,2.3102,-1.2778,0.2006,2.648
6.054000,2.1048,-1.3203,-0.0475,2.485
6.054000,1.9256,-1.3476,-0.3192,2.372
6.054000,1.7561,-1.3691,-0.6002,2.306
6.055000,1.5868,-1.3775,-0.8929,2.283
6.055000,1.4540,-1.3750,-1.2046,2.336
6.055000,1.3169,-1.3666,-1.5400,2.444
6.055000,1.1740,-1.3703,-1.8753,2.603
6.056000,0.9919,-1.3625,-2.2108,2.780
6.063000,0.7903,-1.3644,-2.5131,2.967
6.064000,0.5649,-1.3877,-2.7778,3.156
6.071000,0.3302,-1.4086,-3.0003,3.331
6.075000,0.0944,-1.4285,-3.1694,3.478
6.080000,-0.1327,-1.4431,-3.3093,3.613
6.085000,-0.3606,-1.4546,-3.4178,3.732
6.091000,-0.6223,-1.4750,-3.5144,3.862
6.095000,-0.8866,-1.5112,-3.6065,4.010
6.101000,-1.1556,-1.5613,-3.6586,4.142
6.171000,-1.4188,-1.6099,-3.6978,4.275
6.173000,-1.6667,-1.6645,-3.7385,4.419
6.173000,-1.8823,-1.7131,-3.7642,4.544
6.174000,-2.0753,-1.7771,-3.7727,4.658
6.174000,-2.2507,-1.8421,-3.7781,4.768
6.174000,-2.4352,-1.9180,-3.7731,4.883
6.175000,-2.6170,-1.9917,-3.7693,5.002
6.175000,-2.8131,-2.0395,-3.7618,5.121
6.176000,-3.0331,-2.0590,-3.7506,5.245
6.176000,-3.2676,-2.0666,-3.7164,5.363
6.176000,-3.4829,-2.0650,-3.6475,5.450
6.177000,-3.6671,-2.0630,-3.5440,5.501
6.177000,-3.8367,-2.0682,-3.4324,5.548
6.177000,-3.9726,-2.0689,-3.3416,5.588
6.178000,-4.0967,-2.0650,-3.2523,5.624
6.180000,-4.2187,-2.0544,-3.1906,5.674
6.185000,-4.3316,-2.0444,-3.1612,5.739
6.191000,-4.4285,-2.0152,-3.1518,5.797
6.194000,-4.5144,-1.9696,-3.1549,5.849
6.199000,-4.5777,-1.9003,-3.1513,5.873
6.207000,-4.6093,-1.8148,-3.1597,5.876
6.213000,-4.6310,-1.7299,-3.1703,5.873
6.215000,-4.6502,-1.6578,-3.1781,5.871
6.219000,-4.6744,-1.5958,-3.1782,5.874
6.274000,-4.6941,-1.5252,-3.1658,5.864
6.275000,-4.7237,-1.4674,-3.1550,5.867
6.276000,-4.7730,-1.4418,-3.1364,5.890
6.278000,-4.8323,-1.4341,-3.1266,5.932
6.279000,-4.8971,-1.4512,-3.1326,5.992
6.280000,-4.9458,-1.4930,-3.1257,6.038
6.282000,-4.9929,-1.5716,-3.1298,6.099
6.283000,-5.0431,-1.6722,-3.1497,6.177
6.284000,-5.1015,-1.7705,-3.1875,6.271
6.285000,-5.1607,-1.8855,-3.2242,6.371
6.287000,-5.2087,-2.0263,-3.2647,6.473
6.288000,-5.2260,-2.1639,-3.3187,6.558
6.288000,-5.2290,-2.3101,-3.3769,6.640
6.290000,-5.2127,-2.4933,-3.4351,6.722
6.296000,-5.1862,-2.7106,-3.4742,6.805
6.302000,-5.1373,-2.9449,-3.4945,6.876
6.315000,-5.0825,-3.1914,-3.5034,6.949
6.319000,-5.0099,-3.4448,-3.5320,7.031
6.320000,-4.9048,-3.6810,-3.5636,7.093
6.321000,-4.7982,-3.8948,-3.6318,7.168
6.370000,-4.6992,-4.0784,-3.7129,7.246
6.371000,-4.5934,-4.2413,-3.7854,7.309
6.371000,-4.4420,-4.3757,-3.8445,7.325
6.372000,-4.2589,-4.4860,-3.8739,7.299
6.372000,-3.9936,-4.5552,-3.8330,7.169
6.372000,-3.6625,-4.5640,-3.7244,6.937
6.373000,-3.2532,-4.5266,-3.5459,6.607
6.373000,-2.7732,-4.4443,-3.2900,6.186
6.373000,-2.2461,-4.3362,-2.9257,5.693
6.374000,-1.7102,-4.2054,-2.4723,5.169
6.375000,-1.1175,-4.0502,-1.9442,4.630
6.380000,-0.5322,-3.8644,-1.3534,4.129
6.386000,0.0508,-3.6935,-0.7289,3.765
6.391000,0.6547,-3.5184,-0.1062,3.580
6.397000,1.2845,-3.3871,0.5075,3.658
6.400000,1.9539,-3.3003,1.1318,3.999
6.406000,2.5906,-3.2754,1.7933,4.545
6.415000,3.1515,-3.3266,2.4015,5.174
6.416000,3.6729,-3.3930,2.8833,5.772
6.469000,4.1686,-3.4525,3.2947,6.337
6.469000,4.6208,-3.4929,3.6604,6.852
6.470000,5.0453,-3.5239,3.9764,7.327
6.470000,5.4561,-3.5498,4.2552,7.777
6.471000,5.8819,-3.5649,4.5089,8.224
6.471000,6.3191,-3.5418,4.7620,8.669
6.472000,6.7630,-3.4465,5.0095,9.095
6.472000,7.2322,-3.2674,5.2471,9.514
6.473000,7.6856,-3.0194,5.4865,9.914
6.473000,8.1059,-2.7057,5.7062,10.276
6.473000,8.4548,-2.3696,5.9251,10.593
6.478000,8.7292,-2.0181,6.1137,10.847
6.480000,8.9826,-1.6296,6.2452,11.061
6.486000,9.1743,-1.1737,6.2950,11.188
6.491000,9.3088,-0.6389,6.2512,11.231
6.495000,9.3617,-0.0331,6.1232,11.186
6.501000,9.3207,0.5937,5.9565,11.077
6.508000,9.1756,1.1995,5.7556,10.898
6.512000,8.9191,1.7774,5.5278,10.643
6.515000,8.5321,2.3106,5.2895,10.301
6.576000,8.0003,2.7824,5.0669,9.870
6.577000,7.3816,3.2048,4.8763,9.409
6.577000,6.7123,3.5731,4.7272,8.954
6.577000,5.9833,3.8794,4.5753,8.472
6.578000,5.2073,4.0981,4.4492,7.982
6.578000,4.4090,4.2387,4.3100,7.482
6.578000,3.6179,4.3065,4.1360,6.982
6.579000,2.8489,4.3189,3.9152,6.488
6.579000,2.1342,4.3169,3.6303,6.031
6.579000,1.4959,4.2824,3.2913,5.604
6.580000,0.9345,4.2425,2.9127,5.230
6.580000,0.4693,4.1765,2.5116,4.896
6.580000,0.0791,4.0660,2.1865,4.617
6.591000,-0.2503,3.9502,1.8635,4.375
6.592000,-0.5068,3.8604,1.5306,4.184
6.604000,-0.6956,3.7946,1.2339,4.050
6.605000,-0.8741,3.7362,0.9590,3.955
6.609000,-1.0207,3.6879,0.7038,3.891
6.622000,-1.1377,3.6452,0.4706,3.847
6.623000,-1.2418,3.6224,0.2522,3.838
6.623000,-1.3251,3.6100,0.0625,3.846
6.625000,-1.3782,3.6081,-0.0960,3.864
6.630000,-1.4128,3.6216,-0.2187,3.894
6.636000,-1.4050,3.6528,-0.3248,3.927
6.698000,-1.3767,3.7041,-0.4069,3.973
6.699000,-1.3284,3.7872,-0.4769,4.042
6.699000,-1.3054,3.8613,-0.5350,4.111
6.700000,-1.3054,3.9383,-0.5833,4.190
6.700000,-1.3022,4.0280,-0.6173,4.278
6.700000,-1.3005,4.1109,-0.6392,4.359
6.701000,-1.2885,4.2208,-0.6322,4.458
6.701000,-1.2781,4.3164,-0.6062,4.542
6.701000,-1.2696,4.4146,-0.5372,4.625
6.702000,-1.2655,4.4961,-0.4207,4.690
6.702000,-1.2824,4.5628,-0.2664,4.747
6.702000,-1.3274,4.5979,-0.1010,4.787
6.703000,-1.3670,4.6350,0.0610,4.833
6.712000,-1.4176,4.6665,0.2312,4.883
6.714000,-1.4767,4.6613,0.4093,4.907
6.716000,-1.5225,4.6363,0.5546,4.911
6.732000,-1.5503,4.6105,0.6765,4.911
6.734000,-1.5814,4.5961,0.7919,4.925
6.735000,-1.6040,4.5427,0.9053,4.902
6.736000,-1.6322,4.5029,1.0071,4.894
6.787000,-1.6445,4.4289,1.0949,4.850
6.789000,-1.6339,4.3686,1.1905,4.814
6.791000,-1.6100,4.2981,1.2889,4.767
6.792000,-1.5852,4.2389,1.3618,4.726
6.793000,-1.5593,4.1765,1.4116,4.676
6.793000,-1.5398,4.0897,1.4097,4.592
6.794000,-1.5073,4.0000,1.3683,4.488
6.795000,-1.4595,3.9173,1.2947,4.376
6.796000,-1.3674,3.8466,1.2058,4.257
6.797000,-1.2099,3.7782,1.1089,4.119
6.798000,-1.0157,3.7170,1.0281,3.988
6.799000,-0.8210,3.6653,0.9563,3.876
6.802000,-0.6400,3.6208,0.8983,3.785
6.808000,-0.4894,3.5954,0.8610,3.729
6.812000,-0.3450,3.5772,0.8374,3.690
6.817000,-0.2238,3.5611,0.8343,3.664
6.832000,-0.0706,3.5304,0.8445,3.631
6.833000,0.1006,3.5210,0.8536,3.624
6.834000,0.2632,3.5134,0.8636,3.628
6.836000,0.4268,3.5363,0.8675,3.666
6.915000,0.5716,3.5702,0.8582,3.716
6.916000,0.7023,3.6053,0.8430,3.769
6.916000,0.8139,3.6369,0.8387,3.820
6.917000,0.9255,3.6431,0.8499,3.854
6.917000,1.0444,3.6216,0.8957,3.874
6.917000,1.1637,3.5582,0.9639,3.866
6.918000,1.3118,3.4670,1.0329,3.848
6.918000,1.5318,3.3362,1.1268,3.840
6.918000,1.7713,3.1825,1.2619,3.855
6.919000,2.0231,2.9411,1.4285,3.845
6.919000,2.2869,2.6504,1.6005,3.849
6.919000,2.5942,2.3105,1.7489,3.889
6.920000,2.9731,1.9550,1.8838,4.026
6.920000,3.3947,1.6005,1.9837,4.245
6.920000,3.8325,1.2304,2.0800,4.531
6.921000,4.3153,0.8618,2.1536,4.899
6.921000,4.7667,0.4897,2.2452,5.292
6.929000,5.1863,0.1265,2.3457,5.693
6.931000,5.5862,-0.2088,2.4192,6.091
6.937000,5.9805,-0.5140,2.4848,6.497
6.943000,6.3787,-0.7796,2.5355,6.908
6.948000,6.7807,-1.0105,2.5521,7.315
6.952000,7.1527,-1.2070,2.5132,7.677
6.958000,7.4653,-1.3736,2.4242,7.968
6.962000,7.7064,-1.5060,2.2971,8.181
6.966000,7.8881,-1.6301,2.1418,8.335
7.044000,8.0269,-1.7507,1.9559,8.445
7.044000,8.1495,-1.8632,1.7586,8.543
7.045000,8.2724,-1.9597,1.5623,8.644
7.045000,8.4006,-2.0502,1.3452,8.751
7.046000,8.5339,-2.1679,1.1529,8.880
7.046000,8.6410,-2.3011,0.9448,8.992
7.046000,8.7384,-2.4447,0.7282,9.103
7.047000,8.7357,-2.6084,0.5270,9.132
7.047000,8.9682,-2.8079,0.3271,9.403
7.047000,9.1325,-3.0146,0.1258,9.618
7.048000,9.3582,-3.1991,-0.0743,9.890
7.048000,9.6402,-3.3420,-0.2993,10.207
7.048000,9.9637,-3.4027,-0.5393,10.543
7.049000,10.2612,-3.3836,-0.8084,10.835
7.049000,10.5225,-3.2893,-1.0581,11.075
7.050000,10.6687,-3.1560,-1.2576,11.197
7.052000,10.6928,-3.0077,-1.4213,11.198
7.062000,10.5691,-2.8494,-1.5377,11.054
7.063000,10.3174,-2.6575,-1.6217,10.777
7.067000,9.9382,-2.4464,-1.6759,10.371
7.148000,9.4893,-2.2260,-1.6745,9.890
7.149000,8.9880,-2.0231,-1.6298,9.356
7.149000,8.4462,-1.8236,-1.5541,8.780
7.150000,7.8784,-1.6302,-1.4501,8.175
7.150000,7.2793,-1.4389,-1.3130,7.535
7.150000,6.6683,-1.2950,-1.1550,6.890
7.151000,6.0786,-1.1702,-1.0192,6.274
7.151000,5.5245,-1.0507,-0.9487,5.703
7.151000,5.0130,-0.9459,-0.9076,5.182
7.152000,4.5441,-0.8563,-0.8983,4.710
7.152000,4.1196,-0.7627,-0.9563,4.297
7.152000,3.7467,-0.7028,-1.0550,3.955
7.153000,3.4178,-0.6599,-1.1963,3.681
7.153000,3.1300,-0.6243,-1.3751,3.475
7.153000,2.8596,-0.6052,-1.5529,3.310
7.154000,2.6162,-0.6143,-1.7295,3.196
7.154000,2.4142,-0.6469,-1.8884,3.132
7.161000,2.2517,-0.7165,-2.0460,3.126
7.162000,2.1215,-0.7943,-2.2072,3.163
7.168000,2.0358,-0.8755,-2.3673,3.243
7.174000,1.9733,-0.9408,-2.5382,3.350
7.178000,1.9150,-1.0166,-2.7320,3.488
7.182000,1.8544,-1.0875,-2.9510,3.651
7.187000,1.7770,-1.1512,-3.1713,3.813
7.255000,1.6805,-1.2099,-3.3855,3.969
7.256000,1.5603,-1.2586,-3.5818,4.105
7.256000,1.4166,-1.3092,-3.7459,4.213
7.257000,1.2447,-1.3644,-3.8733,4.291
7.257000,1.0815,-1.4115,-3.9786,4.358
7.258000,0.9318,-1.4699,-4.0551,4.413
7.259000,0.8008,-1.4990,-4.1531,4.487
7.259000,0.6859,-1.5130,-4.2512,4.564
7.259000,0.5822,-1.5029,-4.3469,4.636
7.260000,0.4779,-1.5062,-4.4329,4.706
7.260000,0.3417,-1.5231,-4.4998,4.763
7.260000,0.1998,-1.5678,-4.5379,4.805
7.261000,0.0808,-1.6115,-4.5591,4.836
7.261000,-0.0132,-1.6662,-4.5633,4.858
7.268000,-0.1065,-1.7036,-4.5576,4.867
7.269000,-0.1895,-1.7326,-4.5323,4.856
7.279000,-0.3006,-1.7657,-4.4971,4.841
7.279000,-0.4276,-1.8172,-4.4664,4.841
7.281000,-0.5633,-1.8606,-4.4619,4.867
7.297000,-0.7002,-1.9127,-4.4597,4.903
7.298000,-0.8266,-1.9667,-4.4671,4.950
7.298000,-0.9327,-2.0193,-4.4696,4.992
7.302000,-1.0258,-2.0735,-4.4912,5.052
7.384000,-1.0866,-2.1264,-4.5297,5.121
7.385000,-1.1389,-2.1900,-4.5657,5.190
7.385000,-1.1808,-2.2380,-4.5971,5.247
7.386000,-1.2095,-2.2889,-4.6092,5.286
7.386000,-1.2467,-2.3384,-4.6071,5.315
7.386000,-1.2707,-2.4125,-4.5980,5.346
7.387000,-1.2815,-2.4969,-4.5342,5.333
7.387000,-1.2576,-2.5892,-4.4302,5.283
7.387000,-1.2299,-2.6684,-4.3388,5.240
7.388000,-1.1962,-2.7316,-4.2789,5.216
7.388000,-1.1208,-2.7361,-4.2195,5.152
7.388000,-0.9846,-2.6775,-4.1248,5.015
7.389000,-1.0508,-2.8503,-4.0903,5.095
7.389000,-1.1353,-2.9996,-4.1229,5.223
7.389000,-1.1377,-2.9983,-4.2032,5.287
7.390000,-1.1040,-2.9897,-4.2568,5.318
7.390000,-1.0821,-3.0410,-4.2525,5.339
7.394000,-1.1201,-3.1448,-4.1856,5.354
7.397000,-1.1984,-3.2794,-4.0730,5.365
7.403000,-1.3004,-3.3946,-3.9172,5.344
7.408000,-1.4019,-3.4689,-3.7352,5.287
7.414000,-1.5100,-3.5192,-3.5365,5.213
7.417000,-1.6082,-3.5842,-3.3427,5.158
7.424000,-1.7179,-3.6544,-3.1563,5.125
7.428000,-1.8152,-3.7202,-2.9868,5.104
7.431000,-1.8929,-3.7697,-2.8557,5.094
7.503000,-1.9820,-3.8674,-2.6794,5.105
7.505000,-1.9748,-3.8695,-2.6803,5.105
7.505000,-2.0051,-3.9314,-2.6217,5.133
7.506000,-2.0181,-3.9810,-2.5918,5.161
7.507000,-2.0237,-4.0014,-2.5856,5.176
7.508000,-2.0269,-3.9778,-2.5910,5.162
7.510000,-2.0135,-3.9077,-2.5980,5.106
7.511000,-1.9765,-3.7788,-2.6068,4.998
7.513000,-1.8871,-3.5957,-2.5813,4.812
7.514000,-1.6975,-3.2344,-2.4786,4.414
7.515000,-1.5339,-2.9877,-2.3257,4.085
7.516000,-1.4228,-2.8530,-2.1534,3.847
7.517000,-1.2712,-2.6102,-1.9187,3.480
7.518000,-1.1341,-2.3532,-1.6359,3.082
7.519000,-1.0570,-2.1760,-1.3362,2.764
7.520000,-1.0086,-2.0714,-1.0483,2.531
7.522000,-1.0250,-2.0179,-0.8177,2.407
7.523000,-1.0156,-1.9536,-0.6416,2.293
7.533000,-0.9807,-1.8426,-0.5174,2.150
7.538000,-0.9656,-1.6803,-0.4306,1.985
7.539000,-0.9822,-1.5168,-0.3669,1.844
7.541000,-1.0378,-1.3807,-0.2950,1.752
7.547000,-1.0821,-1.3098,-0.1934,1.710
7.552000,-1.0814,-1.2637,-0.1172,1.667
7.606000,-1.0500,-1.1991,-0.0808,1.596
7.609000,-0.9809,-1.1230,-0.0743,1.493
7.609000,-0.8624,-1.0596,-0.0809,1.369
7.610000,-0.7302,-1.0015,-0.1054,1.244
7.613000,-0.5673,-0.9580,-0.1311,1.121
7.613000,-0.3635,-0.9414,-0.1489,1.020
7.617000,-0.0947,-0.9896,-0.1184,1.001
7.618000,0.2421,-1.0787,-0.0446,1.106
7.620000,0.6111,-1.2133,0.0602,1.360
7.622000,1.0154,-1.4057,0.1957,1.745
7.624000,1.4291,-1.6072,0.3520,2.179
7.625000,1.8648,-1.8257,0.5764,2.673
7.627000,2.3207,-2.0800,0.8876,3.240
7.628000,2.8046,-2.3746,1.3020,3.899
7.629000,3.2832,-2.7238,1.8266,4.641
7.633000,3.7618,-3.1272,2.4420,5.468
7.644000,4.2376,-3.5401,3.0742,6.320
7.648000,4.6727,-3.9094,3.5868,7.070
7.648000,5.1074,-4.1491,4.0234,7.713
7.652000,5.4914,-4.2140,4.3892,8.196
7.723000,5.8312,-4.0879,4.6585,8.510
7.726000,6.1325,-3.7902,4.8445,8.686
7.727000,6.4095,-3.3180,4.9460,8.749
7.728000,6.6009,-2.7195,4.9639,8.695
7.728000,6.6598,-2.0313,4.9183,8.525
7.729000,6.5587,-1.2759,4.8216,8.240
7.729000,6.3158,-0.4901,4.7122,7.895
7.730000,5.9762,0.2686,4.5878,7.539
7.731000,5.5034,0.9743,4.4837,7.165
7.732000,4.9478,1.6199,4.3852,6.807
7.732000,4.3792,2.2142,4.2796,6.511
7.732000,3.8698,2.7523,4.1159,6.284
7.733000,3.4584,3.2556,3.8413,6.109
7.734000,3.1499,3.6950,3.4861,5.977
7.734000,2.9134,4.0447,3.0864,5.863
7.735000,2.7755,4.2908,2.6183,5.742
7.738000,2.7004,4.3863,2.1201,5.570
7.780000,2.6719,4.3298,1.6494,5.349
7.782000,2.6667,4.1773,1.2374,5.108
7.782000,2.6737,3.9625,0.8955,4.863
7.782000,2.6526,3.7101,0.5949,4.599
7.782000,2.6182,3.4704,0.3330,4.360
7.783000,2.5398,3.2484,0.0930,4.124
7.783000,2.5087,3.0325,-0.0965,3.937
7.783000,2.2464,2.8204,-0.2413,3.614
7.784000,2.0785,2.6146,-0.3271,3.356
7.827000,1.9195,2.4128,-0.3497,3.103
7.828000,1.7817,2.2221,-0.3381,2.868
7.828000,1.6338,2.0496,-0.2926,2.637
7.828000,1.4779,1.9048,-0.2438,2.423
7.828000,1.2921,1.7970,-0.1847,2.221
7.829000,1.0711,1.7407,-0.1338,2.048
7.829000,0.8119,1.7024,-0.0811,1.888
7.829000,0.4974,1.6847,-0.0213,1.757
7.829000,0.1370,1.6688,0.0459,1.675
7.832000,-0.2573,1.6430,0.1258,1.668
7.866000,-0.6542,1.6360,0.1773,1.771
7.867000,-1.0585,1.6388,0.2034,1.962
7.867000,-1.4317,1.6851,0.2280,2.223
7.867000,-1.7640,1.7463,0.2510,2.495
7.867000,-2.0264,1.8250,0.2415,2.738
7.868000,-2.1948,1.9236,0.2109,2.926
7.868000,-2.2595,2.0349,0.1903,3.047
7.874000,-2.2348,2.1421,0.1653,3.100
7.902000,-2.1229,2.2427,0.1353,3.091
7.903000,-1.9310,2.3317,0.0929,3.029
7.903000,-1.6929,2.4207,0.0477,2.954
7.904000,-1.4492,2.5066,-0.0057,2.895
7.904000,-1.1619,2.5991,-0.1078,2.849
7.904000,-0.8982,2.6787,-0.2706,2.838
7.907000,-0.6533,2.7596,-0.4416,2.870
7.913000,-0.3960,2.8513,-0.6209,2.945
7.918000,-0.1458,2.9465,-0.8298,3.065
7.923000,0.0851,3.0688,-1.0685,3.251
7.927000,0.2869,3.1917,-1.3151,3.464
7.932000,0.4353,3.3342,-1.5407,3.699
7.958000,0.5158,3.4605,-1.7356,3.906
7.958000,0.5715,3.5753,-1.8879,4.083
7.959000,0.5883,3.6783,-1.9790,4.218
7.959000,0.5686,3.7623,-2.0041,4.301
7.959000,0.5146,3.8198,-1.9540,4.321
7.964000,0.4052,3.8722,-1.8578,4.314
7.968000,0.2284,3.9001,-1.7374,4.276
7.974000,0.0249,3.8865,-1.6072,4.206
7.978000,-0.1814,3.8482,-1.4936,4.132
7.982000,-0.4216,3.7662,-1.4084,4.043
7.989000,-0.7149,3.6622,-1.3631,3.973
7.994000,-1.0298,3.5297,-1.3625,3.921
7.997000,-1.3157,3.3715,-1.3967,3.879
8.003000,-1.5509,3.2336,-1.4487,3.868
8.067000,-1.7306,3.1190,-1.5086,3.873
8.068000,-1.9001,3.0231,-1.5689,3.900
8.068000,-2.0310,2.9439,-1.6414,3.935
8.068000,-2.1472,2.8838,-1.7138,3.983
8.068000,-2.2273,2.8382,-1.7550,4.012
8.069000,-2.3095,2.8021,-1.7985,4.052
8.069000,-2.3866,2.7878,-1.8490,4.109
8.069000,-2.4205,2.7878,-1.9088,4.156
8.070000,-2.4377,2.7926,-1.9661,4.196
8.070000,-2.4380,2.8021,-2.0304,4.233
8.070000,-2.4263,2.8329,-2.0993,4.280
8.071000,-2.4287,2.8423,-2.1514,4.314
8.071000,-2.4095,2.8349,-2.2059,4.325
8.074000,-2.3829,2.8154,-2.2605,4.326
8.079000,-2.3490,2.7647,-2.3247,4.309
8.084000,-2.2861,2.6876,-2.3602,4.245
8.088000,-2.2279,2.5912,-2.3626,4.154
8.093000,-2.1616,2.4545,-2.3847,4.048
8.098000,-2.0491,2.3348,-2.3932,3.921
8.103000,-1.9167,2.1912,-2.3642,3.750
8.109000,-1.7765,1.9999,-2.3312,3.548
8.113000,-1.6617,1.7824,-2.2898,3.344
8.118000,-1.5601,1.5320,-2.2471,3.135
8.124000,-1.4717,1.2415,-2.1886,2.915
8.128000,-1.3581,0.9256,-2.0859,2.656
8.132000,-1.2335,0.5629,-1.9030,2.337
8.203000,-1.0975,0.1371,-1.6666,2.000
8.203000,-0.9212,-0.3375,-1.3483,1.668
8.204000,-0.6780,-0.8219,-0.9628,1.436
8.204000,-0.4131,-1.3165,-0.5701,1.493
8.204000,-0.1456,-1.8235,-0.1850,1.839
8.205000,0.0913,-2.3452,0.1927,2.355
8.205000,0.3002,-2.8719,0.5412,2.938
8.205000,0.5223,-3.3791,0.8269,3.518
8.206000,0.7908,-3.8308,0.9861,4.034
8.206000,1.1148,-4.1836,1.0719,4.460
8.206000,1.5034,-4.4231,1.1019,4.800
8.207000,1.9587,-4.5229,1.0670,5.043
8.207000,2.4826,-4.4808,0.9604,5.212
8.207000,3.0833,-4.3262,0.8049,5.373
8.210000,3.6859,-4.0860,0.6630,5.543
8.214000,4.2704,-3.8133,0.5758,5.754
8.219000,4.8147,-3.5208,0.5769,5.992
8.224000,5.3137,-3.2711,0.6542,6.274
8.229000,5.7318,-3.1029,0.8215,6.569
8.233000,6.0644,-3.0405,1.1212,6.876
8.240000,6.3122,-3.1031,1.5284,7.198
8.244000,6.5047,-3.2670,1.9706,7.541
8.248000,6.6398,-3.4820,2.3467,7.856
8.328000,6.8016,-3.7001,2.5852,8.163
8.329000,7.0136,-3.9185,2.7822,8.502
8.329000,7.2567,-4.1057,2.8711,8.818
8.330000,7.5714,-4.2162,2.8906,9.136
8.330000,7.9187,-4.2331,2.8486,9.420
8.330000,8.2619,-4.1256,2.7457,9.634
8.331000,8.5858,-3.9134,2.5921,9.785
8.331000,8.8416,-3.6113,2.3934,9.846
8.331000,8.9809,-3.2271,2.1687,9.786
8.332000,8.9824,-2.7851,1.9419,9.603
8.332000,8.8579,-2.3362,1.7463,9.326
8.333000,8.6343,-1.9117,1.6195,8.990
8.333000,8.3738,-1.4979,1.5754,8.651
8.333000,8.1150,-1.1362,1.5680,8.343
8.334000,7.8458,-0.8175,1.5489,8.039
8.334000,7.5492,-0.5139,1.4606,7.706
8.334000,7.1701,-0.2805,1.4109,7.313
8.339000,6.6801,-0.1368,1.3971,6.826
8.344000,6.1230,-0.1179,1.4071,6.284
8.350000,5.5422,-0.2165,1.4358,5.729
8.356000,4.9697,-0.4177,1.4569,5.196
8.359000,4.4366,-0.6466,1.3866,4.693
8.363000,3.9767,-0.8403,1.2448,4.251
8.368000,3.5587,-0.9864,1.0582,3.842
8.449000,3.1543,-1.0886,0.8704,3.448
8.450000,2.7682,-1.1586,0.7269,3.088
8.450000,2.4050,-1.2276,0.6160,2.770
8.451000,2.0528,-1.3024,0.5569,2.494
8.451000,1.7288,-1.3373,0.5088,2.244
8.452000,1.4255,-1.3425,0.4763,2.015
8.452000,1.1535,-1.3101,0.4374,1.800
8.452000,0.9054,-1.2672,0.3775,1.602
8.453000,0.6742,-1.2185,0.3013,1.425
8.453000,0.4456,-1.1809,0.1754,1.274
8.453000,0.2287,-1.1454,0.0166,1.168
8.453000,0.0073,-1.1348,-0.1629,1.146
8.454000,-0.2452,-1.1423,-0.3797,1.228
8.454000,-0.4784,-1.1580,-0.6266,1.401
8.455000,-0.7137,-1.1670,-0.8961,1.635
8.455000,-0.9416,-1.1691,-1.1594,1.897
8.455000,-1.1934,-1.1811,-1.3876,2.178
8.460000,-1.4493,-1.1949,-1.5739,2.451
8.465000,-1.6972,-1.2274,-1.7376,2.721
8.470000,-1.9299,-1.2378,-1.9051,2.981
8.475000,-2.1520,-1.2572,-2.0767,3.244
8.479000,-2.3561,-1.2732,-2.2380,3.490
8.484000,-2.5256,-1.3032,-2.3774,3.705
8.562000,-2.6597,-1.3316,-2.4859,3.876
8.563000,-2.7873,-1.3615,-2.5802,4.035
8.563000,-2.8893,-1.3830,-2.6700,4.170
8.563000,-2.9966,-1.3940,-2.7006,4.268
8.563000,-3.0828,-1.4332,-2.6797,4.329
8.564000,-3.1711,-1.4782,-2.6485,4.388
8.564000,-3.2355,-1.5177,-2.5878,4.412
8.564000,-3.3142,-1.5588,-2.4883,4.428
8.565000,-3.4120,-1.5876,-2.3694,4.447
8.565000,-3.5191,-1.6113,-2.2527,4.478
8.565000,-3.6212,-1.6234,-2.1409,4.509
8.565000,-3.7276,-1.6397,-2.0221,4.547
8.566000,-3.8336,-1.6894,-1.9009,4.600
8.566000,-3.9682,-1.7533,-1.7989,4.696
8.567000,-4.1075,-1.8096,-1.7133,4.804
8.567000,-4.2587,-1.8558,-1.6489,4.929
8.570000,-4.3908,-1.8659,-1.6031,5.033
8.574000,-4.5279,-1.8700,-1.5780,5.147
8.580000,-4.6749,-1.8851,-1.5592,5.276
8.584000,-4.8177,-1.9205,-1.5127,5.402
8.592000,-4.9446,-1.9760,-1.4504,5.519
8.595000,-5.0509,-2.0445,-1.4152,5.630
8.599000,-5.1323,-2.1302,-1.3898,5.728
8.655000,-5.1986,-2.2142,-1.3835,5.817
8.656000,-5.2526,-2.2913,-1.4079,5.901
8.656000,-5.2709,-2.3594,-1.4696,5.959
8.656000,-5.2753,-2.4345,-1.5611,6.016
8.656000,-5.2686,-2.5218,-1.6629,6.073
8.657000,-5.2322,-2.5989,-1.7601,6.101
8.657000,-5.1925,-2.6828,-1.8334,6.125
8.658000,-5.1474,-2.7856,-1.8828,6.148
8.658000,-5.1016,-2.8711,-1.9156,6.160
8.659000,-5.0601,-2.9563,-1.9245,6.168
8.659000,-5.0179,-3.0555,-1.9192,6.180
8.659000,-4.9774,-3.1781,-1.8974,6.203
8.664000,-4.9456,-3.3193,-1.8762,6.245
8.669000,-4.9366,-3.4743,-1.8701,6.320
8.674000,-4.9239,-3.6407,-1.8650,6.401
8.679000,-4.9071,-3.8204,-1.8445,6.487
8.684000,-4.8858,-4.0060,-1.8403,6.581
8.690000,-4.8548,-4.2068,-1.8360,6.681
8.694000,-4.7779,-4.4345,-1.8249,6.769
8.699000,-4.6739,-4.6675,-1.7810,6.841
8.768000,-4.5283,-4.9294,-1.6808,6.901
8.768000,-4.3502,-5.1939,-1.5678,6.954
8.769000,-4.1780,-5.4611,-1.4755,7.033
8.769000,-4.0090,-5.7140,-1.4328,7.126
8.769000,-3.8435,-5.9237,-1.4560,7.210
8.770000,-3.6694,-6.1090,-1.5234,7.287
8.770000,-3.4604,-6.2217,-1.6016,7.297
8.770000,-3.2262,-6.2741,-1.6880,7.254
8.771000,-2.9428,-6.2757,-1.7775,7.156
8.771000,-2.6368,-6.2483,-1.8821,7.038
8.772000,-2.3272,-6.1726,-1.9872,6.890
8.772000,-1.9732,-6.0512,-2.0666,6.692
8.772000,-1.5676,-5.8815,-2.1297,6.449
8.773000,-1.1320,-5.6835,-2.1669,6.187
8.775000,-0.6665,-5.4575,-2.1734,5.912
8.780000,-0.1925,-5.2158,-2.1300,5.637
8.785000,0.2971,-4.9853,-2.0630,5.403
8.790000,0.7759,-4.7786,-1.9915,5.235
8.795000,1.2368,-4.6243,-1.8866,5.145
8.799000,1.7057,-4.5047,-1.7339,5.119
8.806000,2.1566,-4.4436,-1.5576,5.179
8.810000,2.5560,-4.4149,-1.3576,5.279
8.814000,2.9158,-4.4285,-1.1411,5.424
8.819000,3.2317,-4.4815,-0.9322,5.603
8.897000,3.5154,-4.5747,-0.7667,5.820
8.900000,3.7577,-4.6787,-0.6612,6.037
8.901000,3.9776,-4.7572,-0.6083,6.231
8.903000,4.2111,-4.8406,-0.5071,6.436
8.905000,4.4349,-4.8997,-0.3605,6.619
8.906000,4.7209,-4.9029,-0.1896,6.809
8.908000,5.0446,-4.8371,0.0176,6.989
8.910000,5.3704,-4.6804,0.2444,7.128
8.912000,5.6885,-4.4497,0.4815,7.238
8.913000,5.9843,-4.1528,0.7173,7.319
8.914000,6.2693,-3.8070,0.9998,7.403
8.916000,6.5007,-3.4697,1.3290,7.488
8.917000,6.6655,-3.1261,1.6619,7.547
8.918000,6.7442,-2.7598,2.0250,7.563
8.919000,6.7461,-2.3597,2.3895,7.536
8.920000,6.6660,-1.9146,2.7172,7.449
8.922000,6.4942,-1.4411,3.0224,7.307
8.923000,6.2515,-0.9578,3.2859,7.127
8.925000,5.9545,-0.4954,3.5267,6.938
8.926000,5.5812,-0.0541,3.7285,6.712
8.927000,5.1672,0.3779,3.8889,6.478
8.930000,4.7216,0.7960,4.0084,6.245
8.935000,4.2585,1.1889,4.0609,6.003
8.948000,3.7749,1.5774,4.0419,5.751
8.950000,3.2877,1.9477,3.9995,5.532
8.951000,2.8206,2.3076,3.9338,5.362
9.046000,2.3618,2.6620,3.8473,5.241
9.047000,1.9353,2.9968,3.7662,5.188
9.047000,1.5511,3.3151,3.6905,5.198
9.048000,1.2211,3.6233,3.6268,5.270
9.048000,0.9197,3.9385,3.5700,5.395
9.049000,0.6564,4.2679,3.4982,5.557
9.049000,0.4224,4.5970,3.4204,5.745
9.049000,0.1986,4.9091,3.3506,5.947
9.050000,-0.0025,5.1818,3.2949,6.141
9.050000,-0.2117,5.4200,3.2480,6.322
9.050000,-0.3905,5.6237,3.2000,6.482
9.052000,-0.5698,5.7928,3.1455,6.616
9.053000,-0.7325,5.9367,3.0459,6.713
9.054000,-0.8808,6.0510,2.9011,6.768
9.055000,-1.0193,6.1329,2.7058,6.780
9.056000,-1.1194,6.1974,2.4820,6.769
9.057000,-1.1932,6.2420,2.2439,6.740
9.057000,-1.2909,6.2718,2.0014,6.709
9.059000,-1.3959,6.2726,1.7668,6.665
9.060000,-1.4938,6.2427,1.5475,6.603
9.061000,-1.5820,6.1819,1.3408,6.520
9.062000,-1.6533,6.0861,1.1305,6.407
9.069000,-1.7125,5.9845,0.8929,6.288
9.071000,-1.7618,5.8845,0.6452,6.176
9.075000,-1.8015,5.8012,0.4238,6.089
9.080000,-1.8265,5.7633,0.2288,6.050
9.085000,-1.8061,5.7494,0.0820,6.027
9.094000,-1.7499,5.7691,-0.0404,6.029
9.095000,-1.6698,5.7649,-0.0862,6.002
9.099000,-1.5610,5.7581,-0.0675,5.966
9.149000,-1.4399,5.7392,-0.0088,5.917
9.149000,-1.3039,5.7031,0.0894,5.851
9.149000,-1.1266,5.6594,0.2147,5.774
9.150000,-0.9155,5.6293,0.3672,5.715
9.150000,-0.6801,5.6411,0.5370,5.707
9.150000,-0.4592,5.6683,0.7120,5.731
9.150000,-0.2912,5.6938,0.9019,5.772
9.151000,-0.2048,5.6813,1.1207,5.794
9.151000,-0.2022,5.6288,1.3420,5.790
9.151000,-0.2592,5.5219,1.5824,5.750
9.202000,-0.3058,5.3968,1.8342,5.708
9.203000,-0.3033,5.2512,2.0639,5.650
9.203000,-0.2612,5.1139,2.2640,5.599
9.203000,-0.1556,4.9729,2.4681,5.554
9.204000,-0.0201,4.8329,2.6592,5.516
9.204000,0.1477,4.6890,2.8350,5.481
9.204000,0.3357,4.5364,2.9980,5.448
9.204000,0.5606,4.3559,3.1411,5.400
9.205000,0.8338,4.1641,3.2743,5.362
9.205000,1.1122,3.9444,3.3904,5.319
9.205000,1.3932,3.6894,3.5064,5.277
9.215000,1.6573,3.4253,3.6176,5.250
9.215000,1.8662,3.1545,3.7459,5.241
9.220000,1.9937,2.8696,3.8957,5.233
9.225000,2.0612,2.5709,4.0412,5.214
9.231000,2.1003,2.2753,4.1632,5.188
9.235000,2.1491,1.9924,4.2404,5.155
9.244000,2.2071,1.7438,4.2807,5.122
9.246000,2.2768,1.5247,4.2865,5.087
9.250000,2.3577,1.3380,4.2659,5.054
9.282000,2.4304,1.1621,4.2145,5.002
9.282000,2.5233,1.0187,4.1255,4.942
9.283000,2.6361,0.8697,4.0496,4.910
9.283000,2.7853,0.7292,4.0134,4.939
9.283000,2.9465,0.5827,3.9998,5.002
9.283000,3.1172,0.4111,3.9974,5.086
9.289000,3.2709,0.2143,3.9892,5.163
9.291000,3.4196,0.0013,3.9630,5.234
9.295000,3.5512,-0.2398,3.9380,5.308
9.300000,3.6895,-0.5095,3.9045,5.396
9.306000,3.8466,-0.7928,3.8627,5.509
9.311000,4.0179,-1.1116,3.7932,5.636
9.316000,4.1870,-1.4753,3.7341,5.801
9.344000,4.3589,-1.8717,3.6949,6.013
9.345000,4.5147,-2.2914,3.6564,6.245
9.345000,4.6520,-2.6913,3.5920,6.464
9.345000,4.7714,-3.0921,3.5143,6.684
9.345000,4.8658,-3.4627,3.4133,6.879
9.346000,4.9474,-3.8317,3.3107,7.080
9.351000,5.0429,-4.1580,3.2042,7.279
9.356000,5.1449,-4.4348,3.0745,7.456
9.361000,5.2442,-4.6613,2.9338,7.605
9.367000,5.3122,-4.8283,2.7773,7.697
9.372000,5.3749,-4.9524,2.6195,7.764
9.376000,5.4253,-5.0362,2.4269,7.790
9.382000,5.4676,-5.0395,2.1902,7.752
9.387000,5.4827,-4.9736,1.9195,7.647
9.392000,5.4486,-4.8581,1.6365,7.481
9.397000,5.3485,-4.7051,1.3653,7.253
9.402000,5.1802,-4.5216,1.1180,6.966
9.406000,4.9439,-4.3195,0.9134,6.628
9.412000,4.6993,-4.1020,0.7444,6.282
9.417000,4.4370,-3.8803,0.5869,5.924
9.477000,4.1472,-3.6621,0.4460,5.551
9.478000,3.7893,-3.4407,0.3120,5.128
9.478000,3.4063,-3.2401,0.1919,4.705
9.478000,2.9985,-3.0602,0.0834,4.285
9.479000,2.5922,-2.9279,-0.0210,3.911
9.479000,1.8702,-2.6528,-0.1906,3.251
9.479000,1.8253,-2.7332,-0.1842,3.292
9.479000,1.5051,-2.6876,-0.2483,3.090
9.480000,1.2088,-2.6839,-0.3015,2.959
9.480000,0.9460,-2.7241,-0.3485,2.905
9.480000,0.6996,-2.8017,-0.4106,2.917
9.481000,0.4415,-2.8963,-0.5048,2.973
9.481000,0.1860,-2.9984,-0.6333,3.070
9.487000,-0.0957,-3.1101,-0.7888,3.210
9.491000,-0.3645,-3.2094,-0.9669,3.372
9.496000,-0.6326,-3.2865,-1.1652,3.544
9.502000,-0.8522,-3.3563,-1.3454,3.715
9.506000,-1.0157,-3.4175,-1.5242,3.877
9.510000,-1.1594,-3.4491,-1.7090,4.020
9.515000,-1.3142,-3.4657,-1.9070,4.168
9.523000,-1.4921,-3.4719,-2.1039,4.325
9.526000,-1.7025,-3.4634,-2.2902,4.488
9.530000,-1.9374,-3.4151,-2.4596,4.633
9.535000,-2.2015,-3.3585,-2.6122,4.791
9.600000,-2.4753,-3.2817,-2.7343,4.937
9.601000,-2.7464,-3.1942,-2.8359,5.078
9.601000,-3.0076,-3.0984,-2.9194,5.212
9.602000,-3.2353,-3.0187,-2.9706,5.330
9.602000,-3.4411,-2.9351,-2.9946,5.424
9.602000,-3.6230,-2.8577,-3.0055,5.507
9.602000,-3.8171,-2.8056,-2.9745,5.594
9.603000,-4.0233,-2.7716,-2.9232,5.693
9.603000,-4.2202,-2.7243,-2.8373,5.769
9.603000,-4.4055,-2.6784,-2.7216,5.830
9.604000,-4.5837,-2.6497,-2.5908,5.894
9.604000,-4.7358,-2.6126,-2.4545,5.940
9.604000,-4.8354,-2.5957,-2.3296,5.962
9.610000,-4.9330,-2.5969,-2.2255,6.003
9.610000,-5.0189,-2.5898,-2.1447,6.041
9.616000,-5.1077,-2.5821,-2.0942,6.094
9.624000,-5.2090,-2.5897,-2.0476,6.167
9.626000,-5.3106,-2.6081,-1.9980,6.245
9.631000,-5.4148,-2.6492,-1.9647,6.340
9.636000,-5.4977,-2.7127,-1.9453,6.432
9.642000,-5.5501,-2.7800,-1.9203,6.498
9.646000,-5.5913,-2.8621,-1.9086,6.565
9.650000,-5.6167,-2.9376,-1.9244,6.624
9.703000,-5.6434,-2.9993,-1.9626,6.686
9.705000,-5.6668,-3.0567,-2.0206,6.748
9.706000,-5.6606,-3.1004,-2.0912,6.784
9.707000,-5.6516,-3.1368,-2.1500,6.812
9.708000,-5.6279,-3.1855,-2.1920,6.828
9.708000,-5.6137,-3.2583,-2.2077,6.856
9.708000,-5.6139,-3.3267,-2.2161,6.892
9.709000,-5.6478,-3.4121,-2.2121,6.959
9.709000,-5.6913,-3.5171,-2.2030,7.044
9.710000,-5.7686,-3.6556,-2.2055,7.177
9.710000,-5.8702,-3.7870,-2.2314,7.333
9.711000,-6.0127,-3.9252,-2.2760,7.533
9.716000,-6.1747,-4.0534,-2.3320,7.746
9.722000,-6.3442,-4.2023,-2.3948,7.978
9.726000,-6.4947,-4.3619,-2.4406,8.195
9.731000,-6.6069,-4.5606,-2.4553,8.395
9.736000,-6.6903,-4.7787,-2.4225,8.571
9.741000,-6.7494,-5.0258,-2.3643,8.741
9.747000,-6.8149,-5.2847,-2.3216,8.931
9.752000,-6.8507,-5.5477,-2.3187,9.115
9.757000,-6.8687,-5.7857,-2.3725,9.289
9.762000,-6.8403,-5.9767,-2.5042,9.422
9.767000,-6.7919,-6.1152,-2.6993,9.530
9.845000,-6.7281,-6.1715,-2.9509,9.595
9.847000,-6.5940,-6.1978,-3.2085,9.601
9.848000,-6.3509,-6.1688,-3.3696,9.473
9.848000,-5.9772,-6.0996,-3.4319,9.204
9.849000,-5.4609,-5.9730,-3.4482,8.797
9.849000,-4.7756,-5.7585,-3.3944,8.215
9.850000,-3.9618,-5.4830,-3.2395,7.500
9.850000,-3.1125,-5.1738,-2.9694,6.729
9.850000,-2.2153,-4.8337,-2.6465,5.939
9.851000,-1.2561,-4.4627,-2.2439,5.151
9.852000,-0.2803,-4.0924,-1.7783,4.471
9.852000,0.6881,-3.7385,-1.2280,3.995
9.852000,1.6510,-3.4455,-0.6190,3.870
9.853000,2.5580,-3.1976,0.0180,4.095
9.853000,3.3851,-3.0214,0.6639,4.586
9.854000,4.0912,-2.9476,1.3024,5.208
9.854000,4.6768,-2.9592,1.8612,5.839
9.857000,5.1612,-3.0444,2.2830,6.412
9.862000,5.5490,-3.1813,2.5469,6.885
9.866000,5.8304,-3.3618,2.6485,7.233
9.873000,6.0231,-3.5552,2.6014,7.462
9.876000,6.1553,-3.7072,2.4160,7.581
9.883000,6.2215,-3.7973,2.1319,7.594
9.887000,6.2521,-3.8126,1.8289,7.548
9.955000,6.2755,-3.7210,1.6106,7.471
9.956000,6.2777,-3.5191,1.5057,7.353
9.957000,6.2675,-3.2346,1.5407,7.219
9.959000,6.2432,-2.8985,1.7392,7.100
9.960000,6.2264,-2.5021,2.0936,7.029
9.961000,6.2009,-2.0802,2.5791,7.031
9.962000,6.1621,-1.6725,3.1350,7.113
9.963000,6.0966,-1.2556,3.7127,7.248
9.964000,5.9968,-0.8441,4.2419,7.394
9.966000,5.8392,-0.4453,4.7175,7.520
9.967000,5.6528,-0.0551,5.1247,7.630
9.968000,5.4303,0.3074,5.4584,7.706
9.969000,5.2056,0.6330,5.7282,7.766
9.969000,4.9851,0.9635,5.9124,7.793
9.970000,4.7569,1.3331,6.0040,7.775
9.970000,4.5275,1.7490,6.0131,7.728
9.974000,4.2800,2.2277,5.9708,7.677
9.977000,4.0046,2.7551,5.8772,7.627
9.983000,3.6917,3.3101,5.7638,7.603
9.992000,3.3409,3.8745,5.6443,7.618
9.993000,2.9760,4.4272,5.5571,7.703
9.996000,2.6021,4.9751,5.4704,7.839
10.003000,2.2529,5.5056,5.3956,8.031
10.069000,1.9165,5.9658,5.3105,8.214
10.071000,1.6194,6.3533,5.1955,8.365
10.073000,1.3617,6.6790,5.0474,8.482
10.073000,1.1266,6.9525,4.8300,8.540
10.074000,0.9617,7.1621,4.5434,8.536
10.075000,0.8548,7.3007,4.1924,8.462
10.076000,0.8009,7.3665,3.7752,8.316
10.076000,0.7898,7.3523,3.2705,8.086
10.077000,0.7755,7.2638,2.7079,7.791
10.078000,0.7316,7.1161,2.1025,7.456
10.078000,0.6511,6.9363,1.5001,7.126
10.079000,0.5203,6.7563,0.9320,6.840
10.079000,0.4235,6.5987,0.4127,6.625
10.080000,0.3611,6.4540,-0.0700,6.464
10.081000,0.3362,6.3299,-0.5138,6.360
10.083000,0.3562,6.2268,-0.8949,6.301
10.087000,0.4094,6.1233,-1.2255,6.258
10.092000,0.5003,6.0196,-1.5148,6.227
10.097000,0.6241,5.9464,-1.7487,6.230
10.102000,0.7683,5.8752,-1.9102,6.226
10.108000,0.8970,5.8319,-2.0233,6.238
10.112000,0.9741,5.8044,-2.0524,6.233
10.117000,0.9928,5.7708,-2.0243,6.196
10.197000,0.9583,5.7143,-1.9296,6.107
10.198000,0.8900,5.6491,-1.7787,5.989
10.199000,0.7764,5.5559,-1.5813,5.829
10.200000,0.6366,5.4443,-1.3785,5.652
10.202000,0.4708,5.3309,-1.2061,5.486
10.204000,0.3031,5.1992,-1.0619,5.315
10.205000,0.1144,5.0565,-0.9383,5.144
10.206000,-0.0473,4.8866,-0.8330,4.957
10.207000,-0.1723,4.7065,-0.7193,4.764
10.208000,-0.2486,4.5188,-0.5614,4.560
10.209000,-0.2740,4.3261,-0.3496,4.349
10.210000,-0.2463,4.1475,-0.1006,4.156
10.211000,-0.1944,3.9734,0.1976,3.983
10.212000,-0.1756,3.8179,0.5377,3.860
10.213000,-0.1682,3.6716,0.8524,3.773
10.214000,-0.1581,3.5365,1.1705,3.729
10.215000,-0.1261,3.4055,1.5112,3.728
10.216000,-0.0720,3.2663,1.8596,3.759
10.217000,-0.0817,3.1022,2.2272,3.820
10.219000,0.0294,2.9106,2.6403,3.930
10.225000,0.1106,2.6675,3.0814,4.077
10.228000,0.2225,2.3968,3.5477,4.287
10.233000,0.3507,2.0962,4.0174,4.545
10.237000,0.4979,1.8014,4.4568,4.833
10.243000,0.6902,1.5171,4.8661,5.144
10.247000,0.9012,1.2503,5.2692,5.490
10.252000,1.1064,0.9934,5.6591,5.851
10.328000,1.2912,0.7629,5.9858,6.171
10.329000,1.4335,0.5581,6.2712,6.457
10.329000,1.5185,0.3938,6.4658,6.653
10.329000,1.5123,0.2506,6.5629,6.740
10.330000,1.4314,0.1239,6.5728,6.728
10.330000,1.2946,-0.0027,6.5034,6.631
10.330000,1.0972,-0.1143,6.3696,6.464
10.330000,0.8875,-0.2513,6.2001,6.268
10.331000,0.7373,-0.4030,6.0171,6.075
10.331000,0.7115,-0.5910,5.8346,5.907
10.331000,0.8909,-0.7842,5.6838,5.806
10.332000,1.1936,-0.9853,5.5435,5.756
10.332000,1.5779,-1.2091,5.3829,5.738
10.332000,1.9884,-1.4681,5.2187,5.774
10.333000,2.3959,-1.7474,5.0349,5.843
10.333000,2.7863,-2.0303,4.8312,5.935
10.338000,3.1642,-2.3144,4.6127,6.054
10.343000,3.5586,-2.5684,4.3792,6.200
10.347000,3.9721,-2.7832,4.1664,6.394
10.353000,4.3691,-3.0056,3.9984,6.642
10.357000,4.7476,-3.2097,3.8412,6.899
10.362000,5.1267,-3.3715,3.6734,7.152
10.367000,5.4895,-3.4985,3.4879,7.385
10.426000,5.8193,-3.5596,3.3064,7.581
10.427000,6.1347,-3.5626,3.1432,7.759
10.427000,6.3952,-3.5119,2.9842,7.883
10.428000,6.5741,-3.4178,2.8224,7.929
10.428000,6.6281,-3.3214,2.6795,7.883
10.428000,6.5717,-3.2278,2.5794,7.763
10.428000,6.4270,-3.1803,2.4999,7.594
10.429000,6.1990,-3.1511,2.3957,7.355
10.429000,5.9337,-3.1654,2.2713,7.098
10.429000,5.6551,-3.2142,2.0981,6.835
10.430000,5.3394,-3.2852,1.8477,6.536
10.430000,4.9840,-3.3707,1.5063,6.203
10.434000,4.6103,-3.4611,1.1127,5.871
10.438000,4.2140,-3.5304,0.7055,5.542
10.443000,3.8283,-3.5787,0.3018,5.249
10.448000,3.4439,-3.6103,-0.0815,4.990
10.454000,3.0321,-3.6295,-0.4159,4.748
10.458000,2.6294,-3.6363,-0.6848,4.539
10.462000,2.2311,-3.6384,-0.9366,4.370
10.467000,1.8168,-3.6130,-1.1885,4.215
10.535000,1.4058,-3.5655,-1.4458,4.096
10.536000,1.0057,-3.4932,-1.6848,4.007
10.536000,0.9541,-3.4010,-1.8990,4.010
10.537000,0.2945,-3.2987,-2.0814,3.912
10.537000,-0.0615,-3.2013,-2.2564,3.917
10.537000,-0.4169,-3.1174,-2.4054,3.960
10.538000,-0.7719,-3.0549,-2.5144,4.031
10.538000,-1.1477,-3.0163,-2.5813,4.133
10.538000,-1.5346,-2.9873,-2.6016,4.248
10.539000,-1.9256,-2.9567,-2.5826,4.373
10.539000,-2.2888,-2.9282,-2.5392,4.501
10.539000,-2.6512,-2.9192,-2.4735,4.655
10.539000,-3.0272,-2.9059,-2.4022,4.835
10.540000,-3.4001,-2.9169,-2.3156,5.043
10.544000,-3.7771,-2.9544,-2.2209,5.285
10.548000,-4.1467,-3.0329,-2.1274,5.561
10.553000,-4.4967,-3.1343,-2.0280,5.844
10.557000,-4.8250,-3.2518,-1.9464,6.135
10.563000,-5.1269,-3.3730,-1.9183,6.430
10.567000,-5.4292,-3.4734,-1.9434,6.732
10.572000,-5.7201,-3.5699,-2.0190,7.039
10.577000,-6.0048,-3.6681,-2.1186,7.348
10.582000,-6.2712,-3.7679,-2.2230,7.646
10.650000,-6.5243,-3.8640,-2.3203,7.930
10.651000,-6.7473,-3.9487,-2.4011,8.178
10.651000,-6.9259,-4.0289,-2.4825,8.388
10.651000,-7.0507,-4.0975,-2.5142,8.534
10.652000,-7.1215,-4.1393,-2.5110,8.611
10.652000,-7.1121,-4.1834,-2.4755,8.615
10.652000,-7.1014,-4.2204,-2.4510,8.617
10.653000,-7.0751,-4.2504,-2.4279,8.603
10.653000,-6.9639,-4.2639,-2.3967,8.510
10.653000,-6.8209,-4.2566,-2.3619,8.380
10.654000,-6.6606,-4.2333,-2.2971,8.220
10.654000,-6.4904,-4.1945,-2.2164,8.039
10.654000,-6.3007,-4.1693,-2.1272,7.849
10.655000,-6.1180,-4.1293,-2.0434,7.659
10.660000,-5.9473,-4.0964,-1.9673,7.485
10.664000,-5.8150,-4.0827,-1.9036,7.356
10.669000,-5.7115,-4.0789,-1.8475,7.257
10.673000,-5.6343,-4.0801,-1.7845,7.182
10.678000,-5.5642,-4.0746,-1.7196,7.108
10.683000,-5.5038,-4.0622,-1.6717,7.042
10.740000,-5.4603,-4.0527,-1.6575,6.999
10.741000,-5.4413,-4.0362,-1.6717,6.978
10.742000,-5.4468,-4.0367,-1.7167,6.994
10.742000,-5.4721,-4.0346,-1.7946,7.032
10.742000,-5.4981,-4.0560,-1.8840,7.087
10.743000,-5.4889,-4.0956,-1.9563,7.122
10.743000,-5.4613,-4.1773,-2.0209,7.167
10.743000,-5.4154,-4.2865,-2.0779,7.212
10.744000,-5.3704,-4.4132,-2.1129,7.265
10.744000,-5.3262,-4.5449,-2.1260,7.317
10.745000,-5.2492,-4.6765,-2.1629,7.355
10.745000,-5.1345,-4.8096,-2.2308,7.381
10.749000,-4.9606,-4.9322,-2.3296,7.373
10.754000,-4.7395,-5.0104,-2.4236,7.310
10.758000,-4.4781,-5.0630,-2.4960,7.205
10.764000,-4.1929,-5.1018,-2.5018,7.062
10.769000,-3.8593,-5.1291,-2.5036,6.890
10.773000,-3.4701,-5.0776,-2.5447,6.656
10.778000,-3.0131,-4.9746,-2.5076,6.333
10.783000,-2.4925,-4.8082,-2.4384,5.939
10.864000,-1.9271,-4.5881,-2.3420,5.500
10.865000,-1.3213,-4.3220,-2.1662,5.012
10.865000,-0.6579,-4.0296,-1.9042,4.505
10.866000,0.0541,-3.6895,-1.6161,4.028
10.866000,0.8405,-3.3208,-1.2415,3.644
10.866000,1.6415,-2.9506,-0.8022,3.470
10.867000,2.4091,-2.6138,-0.3409,3.571
10.867000,3.0950,-2.3187,0.0756,3.868
10.867000,3.6728,-2.0849,0.4549,4.248
10.868000,4.1062,-1.9285,0.7997,4.606
10.868000,4.3713,-1.9043,1.0885,4.891
10.868000,4.4538,-1.9882,1.3048,5.049
10.869000,4.3723,-2.1989,1.4397,5.101
10.869000,4.1221,-2.4970,1.4554,5.034
10.869000,3.7655,-2.8566,1.3738,4.922
10.870000,3.3885,-3.2412,1.2407,4.850
10.870000,3.0280,-3.5911,1.0633,4.816
10.873000,2.7011,-3.8930,0.8990,4.823
10.880000,2.4656,-4.1241,0.7814,4.868
10.884000,2.3196,-4.2695,0.7130,4.911
10.889000,2.2585,-4.3258,0.7130,4.932
10.893000,2.2775,-4.2943,0.7865,4.924
10.898000,2.4366,-4.1553,0.9957,4.919
10.978000,2.8056,-3.8952,1.3379,4.983
10.978000,3.4127,-3.4965,1.7342,5.185
10.979000,4.1597,-2.9075,2.0101,5.459
10.979000,5.0514,-2.1604,2.3385,5.971
10.979000,5.9104,-1.3424,2.7073,6.638
10.980000,6.6925,-0.4840,3.0451,7.369
10.980000,7.3678,0.3583,3.4143,8.128
10.980000,7.8755,1.1761,3.7883,8.818
10.981000,8.2132,1.9497,4.1549,9.409
10.981000,8.3461,2.6718,4.4609,9.833
10.982000,8.2621,3.3161,4.7084,10.071
10.982000,7.9706,3.8630,4.8875,10.116
10.982000,7.4882,4.3029,4.9860,9.972
10.983000,6.8897,4.6535,4.9798,9.691
10.983000,6.2201,4.9020,4.8971,9.311
10.983000,5.5543,5.0642,4.7427,8.888
10.984000,4.9312,5.1408,4.5309,8.442
10.990000,4.3725,5.1687,4.2999,8.020
10.994000,3.9310,5.1438,4.0474,7.635
10.999000,3.6237,5.0885,3.7522,7.287
11.009000,3.4474,5.0266,3.4405,6.999
11.010000,3.3926,4.9971,3.0985,6.788
11.014000,3.4395,4.9837,2.7386,6.646
11.019000,3.5401,4.9939,2.3730,6.565
11.103000,3.6510,5.0325,2.0424,6.544
11.104000,3.7385,5.0855,1.7616,6.553
11.104000,3.7691,5.1283,1.5492,6.550
11.104000,3.6926,5.1610,1.4004,6.499
11.105000,3.4995,5.1643,1.3291,6.378
11.105000,3.1783,5.1619,1.3015,6.200
11.105000,2.7916,5.1443,1.3199,6.000
11.106000,2.3782,5.1520,1.3333,5.829
11.106000,1.9793,5.1562,1.3271,5.680
11.106000,1.6144,5.1598,1.2798,5.556
11.106000,1.2908,5.1363,1.2320,5.437
11.107000,0.9775,5.1026,1.1954,5.331
11.107000,0.6962,5.0543,1.1464,5.229
11.107000,0.4400,5.0177,1.0752,5.150
11.108000,0.1896,4.9861,0.9727,5.084
11.108000,-0.0644,4.9573,0.8461,5.029
11.108000,-0.3288,4.9413,0.7268,5.005
11.109000,-0.5582,4.9337,0.6053,5.002
11.115000,-0.7545,4.9347,0.5150,5.019
11.120000,-0.9027,4.9299,0.4482,5.032
11.124000,-1.0029,4.9242,0.4024,5.041
11.130000,-1.0790,4.8719,0.3583,5.003
11.135000,-1.1429,4.7992,0.3087,4.943
11.140000,-1.2308,4.7207,0.2226,4.884
11.143000,-1.3542,4.6269,0.1215,4.823
11.149000,-1.4677,4.5395,0.0103,4.771
11.221000,-1.5590,4.4636,-0.1181,4.730
11.221000,-1.6257,4.3754,-0.2303,4.673
11.222000,-1.6675,4.2799,-0.3071,4.604
11.222000,-1.7014,4.1630,-0.3437,4.510
11.222000,-1.6959,4.0414,-0.3571,4.397
11.223000,-1.6680,3.9080,-0.3424,4.263
11.223000,-1.6199,3.7676,-0.3189,4.113
11.223000,-1.5711,3.6415,-0.3033,3.978
11.224000,-1.5452,3.4917,-0.2861,3.829
11.224000,-1.5589,3.3397,-0.2696,3.695
11.224000,-1.5855,3.1811,-0.2493,3.563
11.225000,-1.6223,3.0210,-0.2012,3.435
11.225000,-1.6286,2.8594,-0.1110,3.293
11.225000,-1.6212,2.6844,0.0115,3.136
11.226000,-1.5857,2.5103,0.1641,2.974
11.230000,-1.5292,2.3253,0.3610,2.806
11.235000,-1.4782,2.1365,0.5469,2.655
11.239000,-1.4113,1.9461,0.7796,2.527
11.246000,-1.3045,1.7638,1.0492,2.432
11.250000,-1.1290,1.6181,1.2504,2.336
11.257000,-0.9165,1.5161,1.4240,2.273
11.260000,-0.6576,1.4240,1.6420,2.271
11.265000,-0.3620,1.3415,1.8994,2.353
11.269000,-0.0657,1.2372,2.1647,2.494
11.345000,0.2195,1.1204,2.4545,2.707
11.345000,0.4888,0.9980,2.7183,2.937
11.346000,0.7326,0.8649,2.9560,3.166
11.346000,0.9533,0.7379,3.1436,3.367
11.346000,1.1673,0.6070,3.2888,3.542
11.347000,1.3575,0.4770,3.4226,3.713
11.347000,1.5407,0.3140,3.5569,3.889
11.347000,1.7527,0.1012,3.6894,4.086
11.348000,1.9933,-0.1516,3.7796,4.276
11.348000,2.2669,-0.4446,3.8469,4.487
11.348000,2.5350,-0.7610,3.8892,4.704
11.349000,2.8140,-1.1172,3.9116,4.946
11.349000,3.0754,-1.5011,3.9263,5.208
11.349000,3.3286,-1.9102,3.9239,5.489
11.349000,3.6094,-2.3127,3.9096,5.802
11.350000,3.8940,-2.7013,3.9003,6.138
11.357000,4.1823,-3.0734,3.9151,6.501
11.359000,4.4672,-3.4313,3.9567,6.884
11.365000,4.7246,-3.7844,4.0299,7.272
11.369000,4.9813,-4.1257,4.1344,7.676
11.375000,5.2492,-4.4044,4.2463,8.061
11.379000,5.5185,-4.5974,4.3011,8.372
11.384000,5.7792,-4.6666,4.2655,8.566
11.463000,5.9974,-4.5979,4.1472,8.620
11.464000,6.1153,-4.4230,3.9488,8.518
11.464000,6.1376,-4.1368,3.6970,8.274
11.465000,6.0283,-3.8333,3.4326,7.926
11.465000,5.8519,-3.5127,3.2033,7.540
11.465000,5.6231,-3.2018,3.0138,7.138
11.466000,5.3750,-2.9368,2.8685,6.763
11.466000,5.1243,-2.7138,2.7340,6.411
11.466000,4.8493,-2.5158,2.5910,6.046
11.467000,4.5428,-2.3623,2.3968,5.654
11.467000,4.1976,-2.2246,2.1563,5.217
11.467000,3.8136,-2.1168,1.8840,4.751
11.468000,3.3864,-2.0433,1.5828,4.260
11.468000,2.9639,-2.0115,1.2715,3.801
11.468000,2.5397,-2.0079,0.9457,3.373
11.469000,2.1448,-2.0159,0.6079,3.006
11.518000,1.7819,-2.0253,0.2725,2.711
11.519000,1.4465,-2.0357,-0.0677,2.498
11.519000,1.1505,-2.0231,-0.4125,2.364
11.519000,0.8849,-1.9744,-0.7403,2.287
11.519000,0.6257,-1.9184,-1.0560,2.277
11.520000,0.3755,-1.8456,-1.3453,2.315
11.520000,0.1419,-1.7845,-1.6182,2.413
11.520000,-0.0724,-1.7277,-1.8462,2.530
11.520000,-0.2674,-1.6853,-2.0487,2.666
11.520000,-0.4468,-1.6374,-2.2145,2.790
11.521000,-0.6106,-1.6084,-2.3629,2.923
11.526000,-0.7681,-1.5814,-2.4967,3.054
11.531000,-0.9408,-1.5660,-2.6113,3.187
11.535000,-1.1330,-1.5527,-2.7141,3.326
11.540000,-1.3330,-1.5275,-2.8030,3.459
11.546000,-1.5302,-1.5061,-2.8760,3.589
11.551000,-1.7344,-1.4938,-2.9190,3.710
11.557000,-1.9142,-1.4881,-2.9252,3.799
11.561000,-2.0694,-1.4795,-2.8972,3.856
11.566000,-2.2219,-1.4735,-2.8542,3.906
11.571000,-2.3711,-1.4691,-2.7894,3.945
11.655000,-2.5315,-1.4669,-2.7005,3.982
11.657000,-2.7127,-1.4646,-2.6164,4.043
11.658000,-2.8931,-1.4601,-2.5465,4.121
11.659000,-3.0800,-1.4511,-2.4767,4.210
11.661000,-3.2587,-1.4513,-2.3974,4.298
11.661000,-3.4223,-1.4611,-2.3086,4.379
11.662000,-3.5757,-1.5043,-2.2220,4.471
11.663000,-3.7001,-1.5666,-2.1375,4.551
11.664000,-3.8124,-1.6313,-2.0643,4.632
11.666000,-3.9609,-1.7128,-1.9830,4.749
11.667000,-4.1097,-1.8104,-1.8909,4.873
11.668000,-4.2589,-1.9170,-1.7905,5.002
11.668000,-4.3990,-2.0230,-1.6768,5.124
11.669000,-4.5302,-2.1282,-1.5833,5.250
11.669000,-4.6739,-2.2545,-1.5171,5.406
11.670000,-4.8117,-2.3865,-1.4989,5.576
11.670000,-4.9701,-2.5055,-1.4879,5.761
11.671000,-5.1279,-2.6278,-1.5172,5.958
11.671000,-5.2806,-2.7125,-1.5816,6.144
11.672000,-5.4262,-2.7809,-1.6475,6.316
11.675000,-5.5716,-2.8645,-1.7221,6.497
11.680000,-5.6838,-2.9480,-1.7932,6.649
11.687000,-5.7819,-3.0387,-1.8537,6.790
11.690000,-5.8637,-3.1340,-1.9344,6.924
11.696000,-5.9269,-3.2197,-2.0355,7.045
11.701000,-5.9935,-3.3170,-2.1374,7.176
11.779000,-6.0515,-3.3998,-2.2377,7.293
11.781000,-6.1154,-3.5057,-2.3533,7.431
11.783000,-6.1660,-3.6109,-2.4577,7.556
11.784000,-6.2201,-3.7461,-2.5416,7.693
11.786000,-6.2845,-3.9208,-2.5956,7.849
11.787000,-6.3473,-4.1349,-2.6223,8.016
11.788000,-6.3820,-4.3780,-2.6483,8.180
11.789000,-6.3718,-4.6475,-2.7094,8.339
11.791000,-6.3360,-4.8880,-2.8391,8.491
11.792000,-6.2889,-5.0824,-3.0016,8.625
11.793000,-6.2300,-5.2517,-3.1781,8.746
11.794000,-6.1446,-5.3905,-3.3427,8.831
11.795000,-6.0083,-5.5059,-3.4838,8.863
11.796000,-5.8421,-5.5903,-3.5854,8.845
11.797000,-5.6121,-5.6605,-3.6597,8.771
11.798000,-5.2846,-5.6850,-3.6928,8.596
11.799000,-4.8640,-5.6781,-3.6920,8.338
11.800000,-4.3551,-5.6403,-3.6383,8.001
11.801000,-3.8229,-5.5839,-3.5361,7.635
11.802000,-3.2603,-5.5068,-3.3899,7.242
11.806000,-2.6578,-5.4573,-3.1998,6.862
11.811000,-2.0488,-5.4214,-2.9057,6.483
11.817000,-1.4065,-5.4302,-2.5035,6.143
11.824000,-0.7134,-5.4633,-2.0369,5.874
11.826000,0.0193,-5.4779,-1.5662,5.697
11.832000,0.7961,-5.4603,-1.1175,5.630
11.837000,1.6072,-5.4230,-0.6784,5.697
11.924000,2.4188,-5.3952,-0.2892,5.920
11.925000,3.1566,-5.4030,0.0649,6.258
11.927000,3.8080,-5.4527,0.4228,6.664
11.928000,4.3919,-5.5558,0.7202,7.119
11.929000,4.9105,-5.6715,0.9770,7.565
11.929000,5.3850,-5.7781,1.1791,7.986
11.931000,5.8152,-5.8366,1.3225,8.345
11.932000,6.2070,-5.8265,1.3937,8.627
11.933000,6.5603,-5.7016,1.4101,8.805
11.934000,6.8814,-5.4474,1.3535,8.880
11.934000,7.0930,-5.0711,1.2796,8.813
11.935000,7.1348,-4.6230,1.2108,8.587
11.936000,7.0282,-4.1455,1.1833,8.245
11.937000,6.8136,-3.6378,1.2163,7.819
11.938000,6.5631,-3.0903,1.2951,7.369
11.938000,6.3035,-2.5417,1.4289,6.945
11.939000,6.0617,-1.9926,1.5715,6.572
11.940000,5.8262,-1.4960,1.7202,6.256
11.941000,5.6120,-1.0350,1.8960,6.013
11.942000,5.4260,-0.6161,2.1341,5.863
11.942000,5.2255,-0.2584,2.3743,5.745
11.951000,5.0251,0.0594,2.5926,5.655
11.953000,4.8580,0.3682,2.7935,5.616
12.008000,4.7191,0.6804,2.9728,5.619
12.012000,4.6383,1.0493,3.1232,5.689
12.013000,4.5912,1.4608,3.2451,5.809
12.015000,4.5149,1.9074,3.3340,5.928
12.015000,4.3946,2.3577,3.4376,6.057
12.017000,4.1778,2.7921,3.5462,6.150
12.018000,3.8575,3.2036,3.6499,6.202
12.019000,3.4290,3.5667,3.7309,6.197
12.021000,2.9358,3.9009,3.8034,6.189
12.022000,2.3902,4.2132,3.8569,6.192
12.023000,1.8264,4.5297,3.8695,6.231
12.024000,1.2713,4.8267,3.8525,6.305
12.025000,0.7542,5.1215,3.7961,6.419
12.026000,0.2944,5.3797,3.7209,6.548
12.027000,-0.0745,5.6042,3.6388,6.682
12.056000,-0.3741,5.7809,3.5115,6.774
12.059000,-0.5926,5.9217,3.3317,6.820
12.060000,-0.7230,6.0321,3.1023,6.821
12.061000,-0.7658,6.0972,2.8325,6.767
12.062000,-0.7498,6.1346,2.5374,6.681
12.063000,-0.6778,6.1396,2.2100,6.560
12.063000,-0.5692,6.1223,1.8651,6.425
12.067000,-0.4744,6.0638,1.5223,6.270
12.072000,-0.4367,5.9910,1.1916,6.124
12.077000,-0.4441,5.9158,0.8826,5.998
12.082000,-0.4699,5.8532,0.6026,5.903
12.091000,-0.5137,5.8131,0.3541,5.847
12.093000,-0.5534,5.7696,0.1657,5.798
12.096000,-0.5649,5.7443,0.0346,5.772
12.102000,-0.5406,5.7016,-0.0368,5.727
12.176000,-0.5046,5.6481,-0.0538,5.671
12.177000,-0.4758,5.5840,-0.0357,5.604
12.178000,-0.4496,5.5236,0.0222,5.542
12.178000,-0.4403,5.4787,0.1078,5.497
12.180000,-0.4524,5.4375,0.2210,5.461
12.181000,-0.4714,5.3949,0.3493,5.427
12.182000,-0.5094,5.3487,0.4978,5.396
12.182000,-0.5423,5.2870,0.6735,5.357
12.184000,-0.5794,5.2291,0.8835,5.335
12.185000,-0.6063,5.1774,1.1156,5.331
12.185000,-0.6423,5.1271,1.3484,5.340
12.186000,-0.7062,5.0518,1.5936,5.344
12.187000,-0.7839,4.9612,1.8321,5.346
12.189000,-0.8463,4.8553,2.0853,5.352
12.190000,-0.9099,4.7486,2.3242,5.365
12.191000,-0.9506,4.6315,2.5679,5.380
12.192000,-0.9996,4.5139,2.8022,5.406
12.192000,-1.0425,4.3645,3.0628,5.433
12.197000,-1.0504,4.1932,3.3714,5.482
12.202000,-1.0234,3.9974,3.6967,5.540
12.208000,-1.0047,3.7940,4.0172,5.616
12.212000,-0.9701,3.5736,4.3590,5.719
12.217000,-0.9052,3.3646,4.6863,5.840
12.272000,-0.7743,3.1671,4.9679,5.942
12.274000,-0.5993,3.0003,5.2114,6.043
12.274000,-0.4162,2.8376,5.5054,6.208
12.274000,-0.2297,2.6646,5.7467,6.339
12.275000,-0.0331,2.5076,5.9430,6.450
12.275000,0.1517,2.3639,6.1135,6.556
12.275000,0.3268,2.1927,6.2084,6.592
12.276000,0.5157,2.0084,6.2112,6.548
12.276000,0.7276,1.8205,6.1271,6.433
12.277000,0.9738,1.6408,5.9855,6.282
12.277000,1.2367,1.4599,5.8276,6.134
12.277000,1.5016,1.2655,5.6659,5.997
12.283000,1.8252,1.0554,5.4909,5.882
12.287000,2.2215,0.8388,5.3605,5.863
12.292000,2.6660,0.6154,5.2481,5.919
12.297000,3.1753,0.3488,5.1534,6.063
12.302000,3.6968,0.0294,5.0473,6.256
12.307000,4.2332,-0.3386,4.9078,6.490
12.312000,4.7988,-0.7555,4.7131,6.769
12.318000,5.3507,-1.1856,4.4630,7.068
12.407000,5.8676,-1.6482,4.1500,7.373
12.408000,6.3646,-2.1113,3.7794,7.697
12.410000,6.8060,-2.5532,3.3635,8.010
12.411000,7.1992,-2.9591,2.9407,8.321
12.413000,7.5355,-3.3237,2.5640,8.626
12.414000,7.8130,-3.6727,2.2810,8.929
12.416000,8.0417,-4.0277,2.1275,9.242
12.418000,8.2607,-4.3734,2.0937,9.579
12.419000,8.4701,-4.6770,2.1478,9.911
12.420000,8.6507,-4.9653,2.2487,10.225
12.421000,8.7644,-5.2316,2.3744,10.480
12.422000,8.7995,-5.4717,2.4671,10.652
12.423000,8.7629,-5.6457,2.4907,10.718
12.425000,8.6933,-5.7770,2.4217,10.715
12.427000,8.5518,-5.8160,2.2388,10.582
12.428000,8.3622,-5.7794,1.9548,10.351
12.429000,8.0980,-5.6264,1.6086,9.991
12.429000,7.7326,-5.4021,1.2201,9.511
12.430000,7.2607,-5.1451,0.8522,8.940
12.430000,6.7378,-4.8420,0.4841,8.311
12.431000,6.1823,-4.5147,0.1547,7.657
12.432000,5.5961,-4.1704,-0.1570,6.981
12.432000,5.0100,-3.8115,-0.4003,6.308
12.437000,4.4049,-3.4571,-0.5872,5.630
12.442000,3.7638,-3.1436,-0.7654,4.963
12.448000,3.0922,-2.8577,-0.9109,4.308
12.459000,1.8667,-2.2722,-1.1841,3.170
12.460000,1.8029,-2.3677,-1.1787,3.201
12.462000,1.2354,-2.1413,-1.3208,2.803
12.468000,0.7171,-1.9457,-1.4836,2.550
12.558000,0.2608,-1.7841,-1.6888,2.470
12.559000,-0.1454,-1.6497,-1.8933,2.515
12.560000,-0.5110,-1.5426,-2.0735,2.634
12.561000,-0.8285,-1.4744,-2.2511,2.816
12.562000,-1.1214,-1.4284,-2.4363,3.039
12.563000,-1.3897,-1.3956,-2.6028,3.264
12.564000,-1.6583,-1.3865,-2.7708,3.514
12.565000,-1.9249,-1.3921,-2.9190,3.763
12.566000,-2.2034,-1.3979,-3.0599,4.021
12.567000,-2.5030,-1.4324,-3.1747,4.289
12.569000,-2.7946,-1.4790,-3.2664,4.546
12.570000,-3.0831,-1.5595,-3.3209,4.792
12.570000,-3.3698,-1.6727,-3.3462,5.035
12.572000,-3.6191,-1.8073,-3.3713,5.266
12.573000,-3.8453,-1.9321,-3.3819,5.473
12.575000,-4.0698,-2.0616,-3.3855,5.681
12.576000,-4.3144,-2.2011,-3.3821,5.907
12.577000,-4.5737,-2.3323,-3.3817,6.148
12.578000,-4.8382,-2.4770,-3.3842,6.403
12.579000,-5.1006,-2.6228,-3.4042,6.670
12.580000,-5.3418,-2.7548,-3.4535,6.932
12.582000,-5.5524,-2.8798,-3.5058,7.170
12.583000,-5.7181,-2.9671,-3.5611,7.361
12.588000,-5.8584,-3.0175,-3.5879,7.503
12.592000,-6.0022,-3.0555,-3.5932,7.634
12.598000,-6.1428,-3.0954,-3.5600,7.745
12.603000,-6.2681,-3.1443,-3.4978,7.837
12.608000,-6.4001,-3.1927,-3.4330,7.933
12.612000,-6.4980,-3.2436,-3.3656,8.005
12.616000,-6.5721,-3.3174,-3.3138,8.073
12.702000,-6.6178,-3.3931,-3.2706,8.124
12.703000,-6.6544,-3.4539,-3.2380,8.167
12.703000,-6.6652,-3.4973,-3.2114,8.183
12.703000,-6.6527,-3.5238,-3.1716,8.169
12.704000,-6.6364,-3.5539,-3.1326,8.154
12.704000,-6.6355,-3.5979,-3.0943,8.158
12.705000,-6.6454,-3.6699,-3.0518,8.182
12.705000,-6.6927,-3.7722,-3.0049,8.249
12.705000,-6.7702,-3.8975,-2.9751,8.359
12.706000,-6.8779,-4.0435,-2.9359,8.501
12.706000,-7.0092,-4.2020,-2.8726,8.662
12.706000,-7.1713,-4.3682,-2.7804,8.845
12.707000,-7.3093,-4.5633,-2.6830,9.025
12.707000,-7.4260,-4.7415,-2.5970,9.185
12.708000,-7.4908,-4.8694,-2.5290,9.285
12.708000,-7.5039,-4.9565,-2.4860,9.330
12.708000,-7.5142,-5.0051,-2.4840,9.364
12.709000,-7.5194,-5.0172,-2.4988,9.379
12.712000,-7.5480,-5.0117,-2.5138,9.403
12.718000,-7.5737,-5.0096,-2.4935,9.417
12.724000,-7.5625,-5.0009,-2.4549,9.393
12.727000,-7.5003,-4.9685,-2.3767,9.305
12.732000,-7.3700,-4.9053,-2.2589,9.137
12.798000,-7.1620,-4.8282,-2.0803,8.884
12.799000,-6.8690,-4.7374,-1.8365,8.544
12.799000,-6.5193,-4.6526,-1.5301,8.154
12.799000,-6.1294,-4.5863,-1.1592,7.743
12.800000,-5.7493,-4.5514,-0.7623,7.372
12.800000,-5.3857,-4.5672,-0.3707,7.071
12.800000,-5.0383,-4.6267,-0.0230,6.840
12.801000,-4.7018,-4.7179,0.2782,6.667
12.801000,-4.3378,-4.8242,0.4992,6.507
12.801000,-3.9269,-4.9496,0.6380,6.350
12.802000,-3.4431,-5.0902,0.7284,6.188
12.802000,-2.8746,-5.2358,0.7944,6.026
12.802000,-2.2572,-5.4104,0.8363,5.922
12.803000,-1.6243,-5.6018,0.8806,5.899
12.807000,-0.9829,-5.8453,0.9414,6.002
12.812000,-0.3261,-6.1205,0.9930,6.209
12.818000,0.3489,-6.3956,1.0567,6.492
12.900000,1.0400,-6.6701,1.1469,6.847
12.901000,1.7356,-6.9010,1.2228,7.220
12.901000,2.4601,-7.0305,1.2725,7.556
12.902000,3.2210,-7.0125,1.2746,7.821
12.902000,3.9937,-6.8418,1.2274,8.017
12.903000,4.7447,-6.5329,1.1816,8.160
12.903000,5.4857,-6.1318,1.1471,8.307
12.903000,6.2452,-5.6321,1.1503,8.488
12.904000,7.0400,-5.0350,1.1962,8.737
12.904000,7.7837,-4.3600,1.2726,9.012
12.904000,8.4372,-3.6272,1.3747,9.286
12.905000,8.9838,-2.8391,1.5072,9.542
12.905000,9.4090,-2.0351,1.6602,9.769
12.905000,9.6957,-1.2426,1.8262,9.944
12.906000,9.8220,-0.4624,1.9957,10.033
12.906000,9.7903,0.2576,2.1804,10.033
12.907000,9.6546,0.9203,2.3536,9.980
12.908000,9.3911,1.4998,2.5057,9.835
12.952000,9.0377,2.0031,2.6296,9.623
12.955000,8.6153,2.4400,2.7206,9.358
12.955000,8.1452,2.8205,2.7767,9.056
12.956000,7.6383,3.1604,2.7812,8.722
12.956000,7.1327,3.4845,2.7535,8.402
12.957000,6.5996,3.7692,2.6985,8.065
12.957000,6.0819,4.0339,2.6353,7.759
12.958000,5.5632,4.2548,2.5421,7.451
12.959000,5.0508,4.4469,2.4308,7.155
12.959000,4.5540,4.6073,2.3227,6.882
12.963000,4.0778,4.7293,2.2154,6.626
12.968000,3.6510,4.8516,2.0873,6.421
12.974000,3.2735,4.9430,1.9335,6.236
12.979000,2.9454,5.0282,1.7616,6.088
12.983000,2.6257,5.0997,1.5784,5.949
12.990000,2.3004,5.1651,1.3867,5.822
12.993000,1.9624,5.1985,1.2056,5.686
12.998000,1.6121,5.2170,1.0348,5.558
13.004000,1.2380,5.2183,0.8981,5.438
13.078000,0.8691,5.1980,0.7882,5.329
13.079000,0.5467,5.1727,0.6974,5.248
13.080000,0.2589,5.1212,0.6279,5.166
13.080000,-0.0156,5.0507,0.5630,5.082
13.080000,-0.2575,4.9760,0.5002,5.008
13.081000,-0.4781,4.8996,0.4320,4.942
13.081000,-0.6702,4.8314,0.3776,4.892
13.082000,-0.8043,4.7861,0.3294,4.864
13.082000,-0.9161,4.7446,0.2873,4.841
13.082000,-0.9839,4.7143,0.2583,4.823
13.083000,-1.0505,4.6713,0.2375,4.794
13.083000,-1.0752,4.6494,0.2344,4.778
13.085000,-1.0841,4.6318,0.2583,4.764
13.085000,-1.0675,4.6352,0.2926,4.765
13.085000,-1.0305,4.6379,0.3515,4.764
13.085000,-0.9830,4.6542,0.4374,4.777
13.089000,-0.9585,4.6935,0.5098,4.817
13.093000,-0.9190,4.7367,0.5665,4.858
13.098000,-0.8574,4.7954,0.5905,4.907
13.103000,-0.8002,4.8578,0.6133,4.961
13.108000,-0.7429,4.9070,0.6159,5.001
13.113000,-0.6809,4.9214,0.6367,5.009
13.118000,-0.6191,4.8965,0.6758,4.981
13.170000,-0.5434,4.8248,0.7213,4.909
13.171000,-0.4490,4.7328,0.7421,4.812
13.172000,-0.3646,4.6229,0.7527,4.698
13.172000,-0.2663,4.4881,0.7651,4.561
13.172000,-0.1588,4.3308,0.8055,4.408
13.173000,-0.0421,4.1294,0.8619,4.219
13.173000,0.0842,3.9106,0.9293,4.020
13.173000,0.2511,3.6695,1.0172,3.816
13.174000,0.4349,3.3964,1.1518,3.613
13.174000,0.6455,3.0390,1.3349,3.381
13.174000,0.8789,2.6092,1.5778,3.173
13.178000,1.1429,2.0785,1.8609,3.015
13.184000,1.4714,1.4643,2.1935,3.020
13.189000,1.8602,0.7836,2.5106,3.221
13.194000,2.3288,0.1014,2.8097,3.651
13.198000,2.8796,-0.5607,3.1150,4.279
13.203000,3.5054,-1.1689,3.4454,5.052
13.209000,4.1272,-1.7279,3.7750,5.854
13.213000,4.7329,-2.2116,4.1112,6.648
13.219000,5.2769,-2.5984,4.4637,7.384
13.292000,5.7735,-2.9004,4.7896,8.043
13.295000,6.2154,-3.0919,5.0508,8.585
13.296000,6.5809,-3.1803,5.2617,9.006
13.297000,6.8453,-3.1685,5.4302,9.294
13.298000,7.0034,-3.0381,5.5206,9.421
13.299000,7.0426,-2.8184,5.4998,9.370
13.300000,7.0386,-2.4886,5.3660,9.194
13.301000,7.0313,-2.0896,5.1725,8.976
13.302000,7.0148,-1.6775,4.9555,8.751
13.304000,6.9807,-1.3074,4.6992,8.516
13.305000,6.9597,-0.9986,4.4203,8.305
13.307000,6.9418,-0.7681,4.1980,8.149
13.308000,6.9699,-0.5970,3.8791,7.999
13.308000,7.0000,-0.4452,3.4328,7.809
13.309000,7.0214,-0.3053,2.9584,7.625
13.309000,7.0104,-0.2322,2.4508,7.430
13.310000,6.9699,-0.2278,1.8912,7.226
13.310000,6.9000,-0.2702,1.3394,7.034
13.314000,6.7840,-0.3421,0.8317,6.843
13.320000,6.6178,-0.4386,0.3462,6.641
13.324000,6.4161,-0.5132,-0.1333,6.438
13.328000,6.1529,-0.6160,-0.5665,6.210
13.334000,5.8314,-0.7296,-0.9533,5.954
13.413000,5.4763,-0.8657,-1.2847,5.691
13.415000,5.0527,-1.0167,-1.5778,5.390
13.416000,4.5992,-1.1613,-1.8187,5.080
13.418000,4.1552,-1.3150,-2.0409,4.813
13.420000,3.7518,-1.4684,-2.2807,4.630
13.421000,3.3987,-1.5641,-2.5666,4.537
13.422000,3.0746,-1.6184,-2.8558,4.498
13.423000,2.7389,-1.6174,-3.1292,4.462
13.424000,2.3779,-1.5790,-3.4011,4.440
13.425000,2.0230,-1.5249,-3.6433,4.438
13.426000,1.6791,-1.4479,-3.8415,4.435
13.428000,1.3487,-1.3480,-4.0008,4.432
13.428000,1.0417,-1.2347,-4.1357,4.440
13.428000,0.7504,-1.1134,-4.2319,4.440
13.429000,0.4491,-0.9787,-4.3112,4.444
13.429000,0.1278,-0.8310,-4.3712,4.451
13.430000,-0.2254,-0.7042,-4.4144,4.476
13.430000,-0.5891,-0.5835,-4.4430,4.520
13.431000,-0.9538,-0.4623,-4.4572,4.582
13.433000,-1.3264,-0.3471,-4.4451,4.652
13.440000,-1.7070,-0.2643,-4.4115,4.738
13.445000,-2.0765,-0.1975,-4.3565,4.830
13.451000,-2.4276,-0.1490,-4.2827,4.925
13.459000,-2.7626,-0.1020,-4.2142,5.040
13.461000,-3.0814,-0.0522,-4.1606,5.178
13.464000,-3.3959,-0.0202,-4.1123,5.333
13.469000,-3.6916,-0.0183,-4.0719,5.496
13.577000,-3.9807,-0.0079,-4.0417,5.673
13.578000,-4.2322,-0.0370,-4.0049,5.827
13.578000,-4.4532,-0.0863,-3.9710,5.967
13.579000,-4.6367,-0.1679,-3.9521,6.095
13.579000,-4.7920,-0.2691,-3.9553,6.219
13.580000,-4.9264,-0.3828,-3.9855,6.348
13.580000,-5.0254,-0.5207,-4.0594,6.481
13.581000,-5.1010,-0.6658,-4.1675,6.621
13.581000,-5.1462,-0.8083,-4.3047,6.758
13.582000,-5.1658,-0.9476,-4.4352,6.874
13.583000,-5.1743,-1.0667,-4.5658,6.983
13.583000,-5.1815,-1.1821,-4.6845,7.085
13.584000,-5.2043,-1.2912,-4.7697,7.177
13.584000,-5.2306,-1.4059,-4.8143,7.247
13.584000,-5.2220,-1.5020,-4.8640,7.293
13.585000,-5.1716,-1.5794,-4.9112,7.305
13.585000,-5.0603,-1.6334,-4.9226,7.246
13.586000,-4.9313,-1.6663,-4.9196,7.162
13.586000,-4.7942,-1.7140,-4.8545,7.035
13.586000,-4.6799,-1.7740,-4.7060,6.870
13.587000,-4.5519,-1.8605,-4.4624,6.640
13.587000,-4.4104,-1.9616,-4.1957,6.396
13.588000,-4.2215,-2.0199,-3.9562,6.128
13.590000,-3.9856,-2.0262,-3.7270,5.821
13.598000,-3.7912,-2.0333,-3.4937,5.542
13.599000,-3.6194,-2.0553,-3.2249,5.265
13.659000,-3.4753,-2.1549,-2.9085,5.018
13.660000,-3.3416,-2.3391,-2.5327,4.801
13.660000,-3.2084,-2.6101,-2.1338,4.654
13.661000,-3.0468,-2.9441,-1.7335,4.578
13.661000,-2.8109,-3.2953,-1.3509,4.537
13.661000,-2.4789,-3.6347,-0.9932,4.510
13.662000,-2.0394,-3.9746,-0.6412,4.513
13.662000,-1.4946,-4.3363,-0.2850,4.596
13.662000,-0.8233,-4.7340,0.1090,4.806
13.663000,-0.0730,-5.1558,0.5527,5.186
13.663000,0.7303,-5.6327,1.0076,5.769
13.664000,1.6492,-6.1307,1.4449,6.511
13.665000,2.6616,-6.6222,1.9727,7.405
13.669000,3.8112,-7.0565,2.4351,8.381
13.712000,5.1261,-7.3431,2.7920,9.380
13.712000,6.5310,-7.4585,3.0778,10.381
13.713000,7.9750,-7.3908,3.2741,11.355
13.713000,9.3483,-7.1609,3.3987,12.256
13.713000,10.5881,-6.7496,3.4451,13.020
13.713000,11.6930,-6.1551,3.4286,13.652
13.714000,12.6349,-5.4143,3.3308,14.144
13.714000,13.3811,-4.5284,3.1598,14.476
13.714000,13.8894,-3.5722,2.9759,14.647
13.720000,14.1154,-2.6226,2.7980,14.627
13.725000,14.1052,-1.7444,2.6780,14.463
13.730000,13.8909,-0.9791,2.6316,14.172
13.735000,13.5450,-0.3205,2.6144,13.799
13.742000,13.1061,0.2351,2.5993,13.363
13.745000,12.5868,0.6588,2.6024,12.870
13.749000,11.9992,0.9229,2.6055,12.313
13.812000,11.3465,0.9844,2.5748,11.677
13.812000,10.5839,0.8677,2.4738,10.904
13.813000,9.7220,0.6142,2.2736,10.003
13.813000,8.8527,0.2874,1.9720,9.074
13.814000,8.0489,-0.0903,1.5855,8.204
13.814000,7.2899,-0.4695,1.1409,7.394
13.814000,6.5975,-0.8153,0.6936,6.684
13.815000,5.9482,-1.1509,0.3038,6.066
13.815000,5.3228,-1.4874,-0.0139,5.527
13.815000,4.7018,-1.7837,-0.2685,5.036
13.816000,4.0834,-2.0347,-0.4650,4.586
13.816000,3.4699,-2.2232,-0.5889,4.163
13.816000,2.8662,-2.3277,-0.6427,3.748
13.819000,2.2869,-2.3723,-0.6360,3.356
13.825000,1.7367,-2.3692,-0.6195,3.002
13.829000,1.2013,-2.3138,-0.6026,2.676
13.834000,0.6808,-2.2257,-0.6170,2.408
13.841000,0.1655,-2.1215,-0.6576,2.227
13.845000,-0.3137,-1.9892,-0.7457,2.147
13.849000,-0.7662,-1.8285,-0.8763,2.168
13.910000,-1.1876,-1.6387,-1.0440,2.277
13.911000,-1.5893,-1.4102,-1.2513,2.466
13.912000,-1.9570,-1.1591,-1.4738,2.710
13.912000,-2.3146,-0.9064,-1.6825,3.002
13.912000,-2.6329,-0.6590,-1.8535,3.287
13.913000,-2.9212,-0.4333,-2.0011,3.567
13.913000,-3.1459,-0.2264,-2.1063,3.793
13.913000,-3.3089,-0.0341,-2.1863,3.966
13.914000,-3.4101,0.1105,-2.2459,4.085
13.914000,-3.4277,0.2457,-2.2879,4.128
13.915000,-3.3663,0.3690,-2.3195,4.105
13.915000,-3.2473,0.4949,-2.3267,4.025
13.915000,-3.0658,0.6187,-2.2973,3.881
13.921000,-3.0707,0.7491,-2.2440,3.876
13.925000,-2.5397,0.8671,-2.1164,3.418
13.930000,-2.2649,0.9793,-1.9174,3.125
13.935000,-2.0089,1.0616,-1.6763,2.824
13.940000,-1.7742,1.1546,-1.4122,2.545
13.945000,-1.7666,1.2475,-1.1093,2.431
13.949000,-1.4096,1.3498,-0.7940,2.107
13.993000,-1.2754,1.4660,-0.4784,2.001
13.994000,-1.1770,1.5668,-0.1750,1.967
13.994000,-1.1293,1.6734,0.1640,2.025
13.994000,-1.1270,1.7883,0.5502,2.184
13.995000,-1.1585,1.8984,0.9397,2.414
13.995000,-1.2305,2.0110,1.3108,2.697
13.995000,-1.3096,2.1114,1.6654,2.991
13.995000,-1.2808,2.2090,2.0007,3.244
13.995000,-1.4832,2.3112,2.3428,3.610
14.000000,-1.5582,2.4176,2.6508,3.911
14.006000,-1.5845,2.5260,2.9248,4.177
14.011000,-1.5984,2.6172,3.1531,4.398
14.016000,-1.5760,2.7033,3.3286,4.568
14.021000,-1.5224,2.7890,3.4446,4.686
14.026000,-1.4210,2.8818,3.4943,4.747
14.030000,-1.2609,2.9718,3.4927,4.756
14.035000,-1.0687,3.0521,3.4307,4.715
14.114000,-0.8709,3.1155,3.3136,4.631
14.114000,-0.6920,3.1718,3.1347,4.513
14.115000,-0.4963,3.2259,2.9136,4.375
14.115000,-0.2683,3.2873,2.6631,4.239
14.115000,-0.0298,3.3367,2.3906,4.105
14.116000,0.2189,3.3647,2.1296,3.988
14.116000,0.4655,3.3735,1.8732,3.887
14.116000,0.7120,3.3438,1.6429,3.793
14.116000,0.9893,3.2753,1.4168,3.703
14.117000,1.2773,3.1727,1.1571,3.611
14.117000,1.5545,3.0669,0.8541,3.543
14.118000,1.7916,2.9436,0.5177,3.485
14.118000,2.0272,2.8174,0.1098,3.473
14.118000,2.2756,2.6597,-0.3431,3.517
14.119000,2.5129,2.4616,-0.7711,3.601
14.119000,2.7181,2.1902,-1.1478,3.675
14.120000,2.9017,1.8580,-1.4327,3.732
14.126000,3.1003,1.4919,-1.6378,3.811
14.130000,3.3168,1.1116,-1.8039,3.936
14.136000,3.5613,0.7985,-1.9503,4.138
14.142000,3.7954,0.5675,-2.0884,4.369
14.146000,3.9930,0.4256,-2.2350,4.596
14.151000,4.1279,0.3493,-2.3996,4.787
14.236000,4.2388,0.3193,-2.5486,4.956
14.237000,4.2949,0.2954,-2.6774,5.070
14.238000,4.3254,0.2941,-2.7456,5.132
14.238000,4.3498,0.2989,-2.7772,5.169
14.239000,4.3970,0.2950,-2.7775,5.209
14.239000,4.4405,0.2869,-2.7562,5.234
14.239000,4.4894,0.2862,-2.7590,5.277
14.240000,4.4934,0.2997,-2.8075,5.307
14.240000,4.4475,0.3133,-2.8750,5.305
14.240000,4.3420,0.3101,-2.9615,5.265
14.241000,4.2175,0.2784,-3.0404,5.207
14.241000,4.1146,0.2161,-3.1354,5.178
14.242000,4.0379,0.1712,-3.2080,5.160
14.242000,4.0015,0.1342,-3.2748,5.172
14.242000,4.0214,0.1148,-3.3832,5.256
14.243000,4.0755,0.1366,-3.4804,5.361
14.244000,4.1725,0.1564,-3.5423,5.476
14.244000,4.2810,0.1500,-3.5569,5.568
14.246000,4.3697,0.0912,-3.4838,5.589
14.251000,4.3934,-0.0681,-3.3280,5.512
14.256000,4.3314,-0.3663,-3.0137,5.289
14.261000,4.2758,-0.7867,-2.5778,5.054
14.267000,4.3301,-1.2674,-2.1695,5.006
14.271000,4.4942,-1.6868,-1.9061,5.165
14.276000,4.6810,-2.0452,-1.8086,5.419
14.281000,4.8139,-2.3252,-1.8477,5.656
14.355000,4.8928,-2.5455,-2.1038,5.903
14.356000,4.9342,-2.7073,-2.4991,6.158
14.356000,4.9593,-2.8144,-2.9346,6.413
14.356000,4.9973,-2.9160,-3.3592,6.690
14.357000,5.0769,-3.0014,-3.6648,6.944
14.357000,5.2441,-3.0650,-3.8560,7.195
14.358000,5.5202,-3.0684,-3.9687,7.459
14.358000,5.8980,-2.9542,-4.0362,7.733
14.358000,6.3148,-2.7156,-4.0467,7.977
14.359000,6.7346,-2.3915,-3.9789,8.180
14.359000,7.1289,-2.0304,-3.8048,8.332
14.359000,7.4863,-1.6855,-3.5130,8.440
14.360000,7.8237,-1.3722,-3.0998,8.527
14.360000,8.1269,-1.0722,-2.6068,8.602
14.360000,8.3864,-0.7988,-2.0876,8.679
14.361000,8.5516,-0.5602,-1.5906,8.716
14.367000,8.5866,-0.3935,-1.1717,8.675
14.371000,8.4961,-0.3066,-0.8432,8.543
14.376000,8.3138,-0.3066,-0.5597,8.338
14.381000,8.0541,-0.3889,-0.3454,8.071
14.387000,7.7749,-0.5366,-0.1836,7.796
14.391000,7.5192,-0.7592,-0.0694,7.558
14.396000,7.2968,-1.0061,-0.0052,7.366
14.401000,7.1170,-1.2627,0.0167,7.228
14.463000,6.9674,-1.5095,-0.0008,7.129
14.463000,6.8550,-1.7415,-0.0407,7.073
14.464000,6.7553,-1.9824,-0.0711,7.041
14.464000,6.6754,-2.2104,-0.0896,7.032
14.464000,6.5984,-2.4087,-0.1006,7.025
14.465000,6.5166,-2.5487,-0.1181,6.998
14.465000,6.4227,-2.6137,-0.1325,6.935
14.465000,6.2805,-2.5969,-0.1293,6.797
14.466000,6.0611,-2.5203,-0.0964,6.565
14.466000,5.7964,-2.3793,-0.0107,6.266
14.466000,5.4577,-2.2081,0.1226,5.889
14.467000,5.0788,-2.0383,0.2624,5.479
14.469000,4.6673,-1.9087,0.4200,5.060
14.473000,4.2429,-1.8101,0.5925,4.651
14.476000,3.7793,-1.7455,0.7672,4.233
14.481000,3.2801,-1.7049,0.9366,3.814
14.486000,2.7526,-1.6960,1.0932,3.413
14.494000,2.1804,-1.7160,1.1940,3.021
14.496000,1.6419,-1.8031,1.3665,2.795
14.501000,1.2465,-1.8495,1.3774,2.621
14.581000,0.7990,-1.9137,1.3393,2.469
14.582000,0.4679,-2.0246,1.3969,2.504
14.582000,0.1550,-2.1653,1.3709,2.568
14.582000,-0.1422,-2.2806,1.3122,2.635
14.583000,-0.4219,-2.3938,1.2381,2.728
14.583000,-0.7104,-2.4979,1.1442,2.838
14.583000,-0.9787,-2.6084,1.0334,2.971
14.583000,-1.2247,-2.7136,0.9131,3.114
14.584000,-1.4461,-2.7966,0.7812,3.244
14.584000,-1.6381,-2.8643,0.6426,3.362
14.584000,-1.8174,-2.9644,0.5163,3.515
14.584000,-1.9840,-3.0927,0.3714,3.693
14.585000,-2.1325,-3.2620,0.2127,3.903
14.585000,-2.2396,-3.4677,0.0310,4.128
14.585000,-2.3006,-3.6665,-0.1853,4.332
14.586000,-2.3518,-3.8487,-0.4525,4.533
14.587000,-2.3891,-4.0049,-0.7390,4.722
14.592000,-2.4289,-4.1481,-1.0515,4.921
14.597000,-2.4835,-4.2738,-1.3587,5.126
14.601000,-2.5456,-4.4175,-1.6344,5.354
14.607000,-2.6051,-4.5693,-1.8766,5.584
14.611000,-2.6400,-4.7171,-2.0928,5.797
14.617000,-2.6359,-4.8709,-2.2859,5.992
14.705000,-2.6112,-5.0080,-2.4827,6.169
14.705000,-2.5515,-5.1123,-2.6953,6.317
14.706000,-2.4878,-5.1888,-2.9074,6.447
14.706000,-2.4273,-5.2732,-3.1453,6.602
14.706000,-2.3770,-5.3463,-3.4019,6.768
14.707000,-2.3299,-5.4109,-3.6774,6.945
14.707000,-2.2711,-5.4370,-3.9503,7.094
14.708000,-2.2270,-5.4370,-4.2232,7.236
14.708000,-2.1832,-5.3987,-4.4842,7.350
14.708000,-2.1420,-5.3387,-4.7191,7.440
14.709000,-2.1036,-5.2573,-4.9207,7.502
14.709000,-2.0582,-5.1656,-5.0750,7.528
14.709000,-1.9845,-5.0786,-5.1914,7.529
14.710000,-1.9040,-5.0108,-5.2702,7.517
14.710000,-1.8338,-4.9359,-5.3425,7.501
14.710000,-1.7977,-4.8352,-5.3772,7.452
14.711000,-1.7769,-4.7427,-5.3815,7.390
14.711000,-1.7710,-4.6531,-5.3413,7.302
14.712000,-1.7707,-4.5814,-5.2854,7.215
14.720000,-1.7590,-4.5254,-5.2020,7.116
14.722000,-1.7531,-4.4686,-5.1317,7.027
14.727000,-1.7770,-4.4235,-5.0838,6.969
14.732000,-1.8236,-4.3631,-5.0606,6.926
14.739000,-1.8979,-4.3163,-5.0474,6.907
14.744000,-1.9786,-4.2783,-5.0296,6.893
14.747000,-2.0516,-4.2513,-5.0069,6.881
14.751000,-2.1409,-4.2376,-4.9579,6.865
14.796000,-2.2515,-4.2279,-4.9086,6.859
14.796000,-2.3832,-4.2191,-4.8518,6.857
14.797000,-2.5552,-4.2183,-4.7949,6.879
14.797000,-2.7004,-4.2135,-4.7450,6.896
14.797000,-2.8212,-4.1998,-4.7069,6.910
14.798000,-2.9514,-4.1917,-4.6708,6.935
14.798000,-3.0812,-4.1771,-4.6419,6.963
14.798000,-3.1985,-4.1533,-4.5865,6.965
14.798000,-3.3056,-4.1180,-4.5050,6.941
14.802000,-3.4001,-4.1023,-4.4357,6.933
14.807000,-3.5013,-4.0920,-4.3761,6.939
14.813000,-3.6045,-4.0776,-4.3166,6.946
14.817000,-3.7311,-4.0731,-4.2740,6.984
14.823000,-3.8933,-4.0549,-4.2695,7.059
14.827000,-4.0839,-4.0442,-4.2767,7.164
14.832000,-4.2720,-4.0409,-4.2932,7.281
14.901000,-4.4695,-4.0377,-4.3237,7.414
14.901000,-4.7048,-4.0440,-4.3754,7.592
14.902000,-4.9233,-4.0473,-4.4410,7.768
14.902000,-5.1179,-4.0450,-4.5012,7.926
14.902000,-5.2836,-4.0295,-4.5609,8.059
14.903000,-5.4494,-4.0055,-4.6365,8.200
14.903000,-5.5941,-3.9415,-4.6968,8.300
14.903000,-5.7128,-3.8420,-4.7631,8.372
14.903000,-5.8151,-3.7308,-4.7997,8.413
14.904000,-5.8819,-3.6152,-4.8019,8.410
14.904000,-5.9179,-3.4998,-4.7673,8.366
14.904000,-5.8918,-3.3729,-4.7008,8.258
14.905000,-5.8300,-3.2536,-4.6267,8.123
14.905000,-5.7585,-3.1284,-4.5330,7.968
14.909000,-5.7034,-3.0306,-4.4393,7.837
14.912000,-5.6498,-2.9651,-4.3435,7.719
14.918000,-5.5928,-2.9437,-4.2531,7.618
14.923000,-5.5320,-2.9617,-4.1537,7.525
14.927000,-5.4459,-3.0041,-4.0574,7.426
14.932000,-5.3321,-3.0571,-3.9330,7.297
15.009000,-5.2285,-3.1538,-3.7711,7.177
15.010000,-5.1162,-3.2628,-3.6027,7.057
15.010000,-4.9783,-3.4031,-3.4491,6.947
15.011000,-4.8001,-3.5501,-3.3176,6.830
15.011000,-4.5675,-3.6807,-3.1984,6.681
15.011000,-4.2873,-3.7846,-3.0821,6.496
15.012000,-3.9620,-3.8957,-2.9324,6.283
15.012000,-3.5938,-4.0234,-2.7448,6.053
15.013000,-3.1922,-4.1560,-2.5121,5.811
15.013000,-2.7761,-4.2881,-2.2268,5.573
15.013000,-2.3484,-4.3973,-1.8913,5.332
15.014000,-1.9062,-4.4952,-1.5081,5.110
15.014000,-1.4470,-4.5941,-1.0797,4.936
15.014000,-0.9657,-4.6990,-0.6229,4.838
15.015000,-0.4548,-4.8049,-0.1379,4.828
15.015000,0.0758,-4.8993,0.3776,4.914
15.019000,0.6024,-5.0008,0.9165,5.120
15.022000,1.1585,-5.1172,1.4525,5.444
15.028000,1.7368,-5.2392,1.9856,5.866
15.033000,2.3063,-5.3479,2.4800,6.330
15.042000,2.8913,-5.4643,2.9334,6.843
15.043000,3.5239,-5.5496,3.3728,7.389
15.048000,4.2020,-5.6438,3.8365,8.014
15.052000,4.8938,-5.7712,4.3416,8.724
15.133000,5.5967,-5.9633,4.8524,9.509
15.134000,6.2911,-6.1868,5.3284,10.308
15.134000,6.9437,-6.3980,5.7435,11.052
15.135000,7.5201,-6.5817,6.0549,11.685
15.137000,8.0542,-6.6915,6.2558,12.198
15.138000,8.5504,-6.7059,6.3085,12.565
15.140000,9.0370,-6.5670,6.2284,12.790
15.142000,9.5565,-6.2313,6.0404,12.909
15.144000,10.0660,-5.7054,5.7768,12.932
15.145000,10.5503,-5.0031,5.4886,12.902
15.146000,10.9846,-4.1491,5.2624,12.867
15.148000,11.3373,-3.1872,5.1386,12.849
15.149000,11.5816,-2.1546,5.1117,12.842
15.149000,11.7150,-1.0995,5.1573,12.847
15.150000,11.7124,-0.0437,5.2138,12.821
15.151000,11.5258,0.9743,5.2738,12.712
15.151000,11.1646,1.9323,5.3437,12.527
15.152000,10.6431,2.7940,5.4155,12.264
15.153000,10.0211,3.5709,5.4980,11.975
15.153000,9.3154,4.2610,5.5742,11.662
15.158000,8.5119,4.8296,5.6354,11.293
15.164000,7.6230,5.2870,5.6861,10.881
15.168000,6.6688,5.6263,5.7137,10.430
15.177000,5.7050,5.8698,5.6942,9.971
15.178000,4.7898,6.0473,5.6039,9.535
15.183000,3.9478,6.1586,5.4445,9.119
15.268000,3.2297,6.2242,5.2213,8.743
15.271000,2.5670,6.2590,4.9393,8.376
15.272000,1.9864,6.2689,4.6014,8.026
15.273000,1.4644,6.2545,4.2871,7.723
15.273000,0.9965,6.2381,4.0233,7.490
15.274000,0.5856,6.2461,3.7687,7.318
15.275000,0.2245,6.2812,3.5618,7.224
15.275000,-0.1372,6.3480,3.4027,7.204
15.276000,-0.4965,6.4298,3.2670,7.229
15.277000,-0.8535,6.5363,3.1357,7.300
15.277000,-1.1954,6.6411,3.0340,7.399
15.278000,-1.5389,6.7469,2.9573,7.526
15.279000,-1.9051,6.8536,2.9076,7.685
15.279000,-2.2461,6.9687,2.8491,7.857
15.280000,-2.5715,7.0756,2.7511,8.015
15.280000,-2.8487,7.1864,2.6097,8.159
15.281000,-3.0513,7.2917,2.4348,8.271
15.282000,-3.2110,7.3846,2.2440,8.359
15.283000,-3.3661,7.4605,2.0785,8.445
15.284000,-3.5314,7.5101,1.9294,8.520
15.289000,-3.6775,7.5218,1.8254,8.569
15.297000,-3.7876,7.5199,1.7502,8.600
15.298000,-3.8895,7.5166,1.6980,8.632
15.303000,-3.9779,7.5075,1.6619,8.657
15.310000,-4.0334,7.5168,1.6370,8.686
15.313000,-4.0033,7.5375,1.6545,8.694
15.319000,-3.8854,7.5718,1.6856,8.676
15.408000,-3.6843,7.5954,1.7414,8.620
15.409000,-3.4436,7.6320,1.8100,8.566
15.410000,-3.1539,7.6356,1.9266,8.483
15.410000,-2.7820,7.6203,2.1242,8.386
15.410000,-2.3619,7.5901,2.4522,8.319
15.411000,-1.9486,7.5591,2.8427,8.308
15.411000,-1.5735,7.5334,3.2075,8.338
15.411000,-1.2725,7.5031,3.5582,8.401
15.412000,-1.0481,7.4294,3.8672,8.441
15.412000,-0.8906,7.3097,4.1554,8.455
15.412000,-0.8048,7.1103,4.4315,8.417
15.413000,-0.8190,6.8600,4.6878,8.349
15.413000,-0.8109,6.5732,4.9090,8.244
15.413000,-0.8588,6.2621,5.0589,8.096
15.414000,-0.8980,5.9270,5.1399,7.896
15.414000,-0.8779,5.5681,5.1782,7.654
15.415000,-0.8032,5.1354,5.2050,7.356
15.415000,-0.6546,4.6219,5.2731,7.042
15.415000,-0.4483,4.0065,5.3344,6.686
15.418000,-0.2295,3.3182,5.3459,6.296
15.424000,0.0715,2.6266,5.2792,5.897
15.428000,0.4807,1.9150,5.1302,5.497
15.433000,1.0216,1.2119,4.9139,5.163
15.514000,1.6692,0.5339,4.6110,4.933
15.515000,2.3483,-0.1098,4.2392,4.847
15.515000,3.0008,-0.7314,3.8642,4.947
15.515000,3.6264,-1.3143,3.4007,5.142
15.516000,4.3129,-1.8730,2.9047,5.527
15.516000,5.0308,-2.4606,2.4414,6.109
15.517000,5.7770,-3.1007,1.9979,6.854
15.517000,6.5342,-3.7459,1.5598,7.692
15.517000,7.2900,-4.3891,1.1347,8.585
15.518000,7.9937,-4.9925,0.7109,9.451
15.519000,8.6189,-5.5732,0.3096,10.268
15.519000,9.1821,-6.1641,-0.0440,11.059
15.519000,9.6792,-6.7605,-0.3170,11.811
15.520000,10.1248,-7.4102,-0.4788,12.556
15.520000,10.5479,-8.1060,-0.5272,13.313
15.521000,10.9155,-8.7807,-0.4793,14.017
15.521000,11.1846,-9.4396,-0.3285,14.639
15.525000,11.3221,-10.0149,-0.1265,15.116
15.528000,11.3568,-10.4737,0.0402,15.449
15.533000,11.2576,-10.7565,0.0834,15.571
15.597000,11.0320,-10.8821,-0.0225,15.496
15.598000,10.7305,-10.8406,-0.2553,15.255
15.598000,10.3914,-10.6537,-0.5883,14.894
15.598000,10.0465,-10.3289,-1.0365,14.446
15.599000,9.7046,-9.8425,-1.5538,13.909
15.599000,9.3725,-9.1941,-2.1555,13.305
15.599000,9.0181,-8.4074,-2.7712,12.637
15.600000,8.6381,-7.5474,-3.3402,11.947
15.600000,8.2328,-6.6775,-3.7925,11.258
15.600000,7.8114,-5.8439,-4.1044,10.584
15.601000,7.3403,-5.0874,-4.2715,9.900
15.601000,6.8341,-4.4443,-4.2657,9.201
15.601000,6.2931,-3.9104,-4.1214,8.478
15.604000,5.7340,-3.4870,-3.8872,7.755
15.609000,5.1366,-3.2021,-3.5858,7.035
15.614000,4.5491,-3.0399,-3.2396,6.359
15.619000,3.9196,-3.0151,-2.9071,5.736
15.625000,3.2873,-3.0652,-2.6248,5.205
15.629000,2.6831,-3.1478,-2.3928,4.778
15.633000,2.0848,-3.2733,-2.1661,4.444
15.700000,1.5021,-3.4540,-1.9382,4.236
15.701000,0.9236,-3.6466,-1.6952,4.126
15.701000,0.3379,-3.8607,-1.4760,4.147
15.701000,-0.2904,-4.1199,-1.2810,4.324
15.701000,-0.9518,-4.3941,-1.0938,4.627
15.702000,-1.6687,-4.6718,-0.9271,5.047
15.702000,-2.4413,-4.9223,-0.7932,5.551
15.702000,-3.2426,-5.1307,-0.6755,6.107
15.702000,-4.0796,-5.2679,-0.5791,6.688
15.703000,-4.9351,-5.3667,-0.5208,7.309
15.703000,-5.8140,-5.3791,-0.4746,7.935
15.703000,-6.6839,-5.3456,-0.4220,8.569
15.703000,-7.4853,-5.2732,-0.3777,9.164
15.704000,-8.1608,-5.1371,-0.3248,9.649
15.757000,-8.7250,-4.9463,-0.2682,10.033
15.758000,-9.1880,-4.7202,-0.2197,10.332
15.758000,-9.5617,-4.4952,-0.1745,10.567
15.758000,-9.8229,-4.2737,-0.1395,10.713
15.759000,-9.9508,-4.0653,-0.1141,10.750
15.759000,-9.9602,-3.8771,-0.0621,10.688
15.759000,-9.8351,-3.6804,-0.0096,10.501
15.760000,-9.5423,-3.4857,0.0338,10.159
15.760000,-9.1255,-3.2999,0.0759,9.704
15.760000,-8.6307,-3.1146,0.0998,9.176
15.760000,-8.1157,-2.9593,0.1274,8.639
15.764000,-7.6142,-2.8279,0.1732,8.124
15.769000,-7.1457,-2.7400,0.2589,7.657
15.815000,-6.7124,-2.6994,0.3843,7.245
15.816000,-6.3264,-2.6866,0.5302,6.894
15.816000,-6.0327,-2.7144,0.6604,6.648
15.817000,-5.8170,-2.7738,0.7724,6.491
15.817000,-5.6888,-2.8889,0.8591,6.438
15.817000,-5.6361,-3.0267,0.9329,6.465
