time,ax,ay,az,aT
0.031000,-0.3326,0.1590,-1.9831,2.017
0.032000,-0.3915,0.1399,-1.6332,1.685
0.032000,-0.4926,0.0869,-1.2747,1.369
0.032000,-0.6227,0.0421,-0.8688,1.070
0.032000,-0.7307,0.0281,-0.4798,0.875
0.032000,-0.7715,0.0370,-0.1841,0.794
0.032000,-0.6744,0.0777,0.0260,0.679
0.032000,-0.5209,0.1333,0.1409,0.556
0.038000,-0.3587,0.2038,0.1728,0.447
0.047000,-0.2489,0.2465,0.1311,0.374
0.047000,-0.1624,0.2595,0.0371,0.308
0.051000,-0.0936,0.2530,-0.0660,0.278
0.057000,-0.0710,0.2586,-0.1427,0.304
0.061000,-0.0727,0.2622,-0.2026,0.339
0.065000,-0.1365,0.2327,-0.2697,0.381
0.069000,-0.1979,0.1796,-0.2937,0.397
0.096000,-0.2235,0.1387,-0.3105,0.407
0.096000,-0.2203,0.1388,-0.3298,0.420
0.096000,-0.2237,0.1585,-0.3491,0.444
0.096000,-0.3173,0.1403,-0.3662,0.504
0.096000,-0.4654,0.0866,-0.3500,0.589
0.107000,-0.5414,0.0573,-0.2382,0.594
0.107000,-0.5265,0.0975,-0.1003,0.545
0.114000,-0.4877,0.1731,0.0400,0.519
0.116000,-0.3936,0.2457,0.1658,0.493
0.120000,-0.3104,0.2886,0.1838,0.462
0.125000,-0.3235,0.2711,0.1204,0.439
0.130000,-0.3448,0.2174,0.0307,0.409
0.135000,-0.3869,0.1662,-0.0590,0.425
0.141000,-0.4525,0.1345,-0.1056,0.484
0.145000,-0.5299,0.0957,-0.1044,0.548
0.150000,-0.6284,0.0426,-0.0673,0.633
0.165000,-0.7035,0.0064,-0.0135,0.704
0.166000,-0.7179,0.0084,0.0166,0.718
0.166000,-0.6312,0.0556,0.0278,0.634
0.170000,-0.4840,0.0928,0.0200,0.493
0.176000,-0.3453,0.1488,-0.0329,0.377
0.181000,-0.2723,0.1686,-0.1454,0.352
0.186000,-0.2626,0.1361,-0.2744,0.403
0.206000,-0.2773,0.1042,-0.3602,0.466
0.206000,-0.2921,0.0900,-0.4246,0.523
0.207000,-0.2899,0.1151,-0.4844,0.576
0.207000,-0.2727,0.1148,-0.5132,0.592
0.213000,-0.2738,0.1109,-0.4491,0.538
0.215000,-0.3100,0.1170,-0.2776,0.432
0.220000,-0.3577,0.1136,-0.0849,0.385
0.227000,-0.3721,0.1097,0.1054,0.402
0.230000,-0.3489,0.1435,0.2573,0.457
0.235000,-0.2933,0.2217,0.3424,0.502
0.244000,-0.2150,0.2891,0.3728,0.518
0.245000,-0.1448,0.2928,0.3461,0.476
0.250000,-0.0965,0.2858,0.2648,0.401
0.263000,-0.0789,0.3044,0.1788,0.362
0.264000,-0.0911,0.2989,0.1071,0.330
0.268000,-0.0894,0.2914,0.0424,0.308
0.281000,-0.1238,0.2840,-0.0249,0.311
0.281000,-0.2375,0.2432,-0.0996,0.354
0.281000,-0.3717,0.1834,-0.1768,0.451
0.285000,-0.4750,0.1428,-0.2466,0.554
0.290000,-0.4883,0.1262,-0.3353,0.606
0.295000,-0.4433,0.1313,-0.4596,0.652
0.300000,-0.4217,0.1438,-0.5548,0.712
0.318000,-0.4143,0.1352,-0.6235,0.761
0.318000,-0.4158,0.1102,-0.6655,0.792
0.319000,-0.4284,0.1123,-0.6716,0.804
0.327000,-0.4682,0.0960,-0.6466,0.804
0.327000,-0.4680,0.0660,-0.6001,0.764
0.330000,-0.4487,0.0653,-0.5537,0.716
0.335000,-0.4559,0.0987,-0.4883,0.675
0.340000,-0.4512,0.1252,-0.4207,0.629
0.345000,-0.4132,0.1447,-0.3770,0.578
0.350000,-0.3563,0.1187,-0.3932,0.544
0.361000,-0.3667,0.1263,-0.3925,0.552
0.361000,-0.3492,0.1005,-0.4611,0.587
0.365000,-0.2848,0.0848,-0.6371,0.703
0.370000,-0.2456,0.0744,-0.7314,0.775
0.380000,-0.2434,0.0526,-0.7921,0.830
0.381000,-0.2469,0.0218,-0.8120,0.849
0.385000,-0.2605,0.0205,-0.8319,0.872
0.391000,-0.2862,0.0052,-0.8517,0.899
0.396000,-0.2908,-0.0118,-0.9122,0.958
0.401000,-0.3322,0.0003,-0.9629,1.019
0.433000,-0.3916,0.0058,-1.0038,1.078
0.433000,-0.4527,0.0088,-1.0754,1.167
0.434000,-0.5042,0.0141,-1.2062,1.307
0.434000,-0.5518,0.0001,-1.3792,1.486
0.434000,-0.5793,-0.0285,-1.5919,1.694
0.434000,-0.6260,-0.0404,-1.8799,1.982
0.437000,-0.6661,-0.0598,-2.1830,2.283
0.443000,-0.7242,-0.1150,-2.5706,2.673
0.445000,-0.7987,-0.2081,-3.0997,3.208
0.451000,-0.9002,-0.3074,-3.6622,3.784
0.455000,-1.0383,-0.4121,-4.2102,4.356
0.461000,-1.2322,-0.5168,-4.7222,4.908
0.466000,-1.4402,-0.6401,-5.2173,5.450
0.471000,-1.6054,-0.8026,-5.7168,5.992
0.476000,-1.7139,-0.9816,-6.1896,6.497
0.481000,-1.7874,-1.1143,-6.6233,6.950
0.488000,-1.8530,-1.2161,-6.9627,7.307
0.494000,-1.9043,-1.2938,-7.2199,7.578
0.496000,-1.8698,-1.3317,-7.3468,7.697
0.503000,-1.7633,-1.3341,-7.3362,7.662
0.515000,-1.5939,-1.2814,-7.1926,7.478
0.516000,-1.4311,-1.1357,-6.9516,7.188
0.516000,-1.1817,-0.8750,-6.6546,6.815
0.523000,-0.7791,-0.5660,-6.2216,6.296
0.527000,-0.0188,-0.3262,-4.9725,4.983
0.531000,1.1163,-0.0737,-2.8194,3.033
0.536000,1.9024,0.2422,-2.0040,2.774
0.556000,2.2952,0.5213,-1.7238,2.917
0.559000,2.4761,0.6294,-1.5933,3.011
0.559000,2.5954,0.5137,-1.3462,2.969
0.560000,2.8021,0.2292,-0.8591,2.940
0.562000,3.2003,-0.0188,-0.2444,3.210
0.566000,3.7994,-0.1044,0.3533,3.817
0.572000,4.6438,0.0634,0.8570,4.723
0.577000,5.6419,0.4116,1.2550,5.794
0.582000,6.6878,0.8396,1.6261,6.934
0.587000,7.7027,1.2422,2.0558,8.069
0.592000,8.5944,1.5819,2.5734,9.110
0.596000,9.3800,1.9319,3.0796,10.060
0.600000,10.0715,2.3056,3.5495,10.925
0.614000,10.6415,2.6727,3.9038,11.646
0.615000,11.1562,2.9863,3.8574,12.176
0.618000,11.5775,3.1975,3.6268,12.547
0.623000,11.8321,3.2584,3.5212,12.768
0.627000,11.6872,3.1606,3.7794,12.683
0.632000,11.1223,2.9952,4.1506,12.244
0.637000,10.3653,2.8598,4.2391,11.558
0.666000,9.4892,2.7456,4.1077,10.698
0.667000,8.5222,2.6771,3.9247,9.757
0.668000,7.4492,2.5813,3.7460,8.728
0.668000,6.3802,2.4428,3.5022,7.677
0.668000,5.3932,2.2780,3.1326,6.640
0.669000,4.4753,2.0886,2.7131,5.635
0.673000,3.6921,1.9194,2.3315,4.770
0.677000,3.0923,1.8243,2.0065,4.113
0.681000,2.6438,1.8374,1.8062,3.692
0.686000,2.3074,1.9539,1.7198,3.478
0.692000,2.0344,2.1115,1.7716,3.426
0.696000,1.8321,2.2884,1.8896,3.488
0.701000,1.7170,2.4363,1.9712,3.573
0.718000,1.6714,2.5307,1.9981,3.632
0.718000,1.6019,2.5764,1.9685,3.616
0.719000,1.4624,2.5921,1.8787,3.519
0.725000,1.2045,2.5920,1.7319,3.342
0.731000,0.8666,2.5166,1.5100,3.060
0.732000,0.5244,2.3662,1.2431,2.724
0.737000,0.1839,2.2043,0.9879,2.423
0.772000,-0.1902,2.0507,0.7847,2.204
0.773000,-0.5871,1.9420,0.6490,2.130
0.774000,-1.0269,1.8501,0.6339,2.209
0.774000,-1.5155,1.7709,0.7186,2.439
0.775000,-2.0305,1.6589,0.8514,2.757
0.776000,-2.4826,1.4551,1.0166,3.052
0.777000,-2.8153,1.2000,1.2368,3.301
0.777000,-2.9975,0.9672,1.4350,3.461
0.783000,-3.0769,0.7589,1.6057,3.553
0.787000,-3.2018,0.5725,1.7176,3.678
0.792000,-3.3426,0.3804,1.7381,3.787
0.797000,-3.3881,0.2040,1.7504,3.819
0.804000,-3.3482,0.0788,1.7335,3.771
0.815000,-3.2301,-0.0388,1.5937,3.602
0.816000,-3.0939,-0.1779,1.3604,3.384
0.817000,-2.9429,-0.3413,1.0614,3.147
0.823000,-2.7242,-0.4711,0.7657,2.869
0.827000,-2.5097,-0.5844,0.4356,2.613
0.831000,-2.3354,-0.7047,0.1069,2.442
0.837000,-2.2063,-0.8698,-0.1693,2.378
0.858000,-2.1276,-1.0603,-0.3751,2.407
0.859000,-2.0989,-1.2154,-0.5375,2.484
0.859000,-2.1514,-1.2560,-0.6580,2.577
0.859000,-2.3262,-1.2102,-0.7544,2.729
0.863000,-2.5233,-1.1300,-0.8464,2.891
0.866000,-2.6378,-1.0888,-0.9156,2.997
0.873000,-2.6958,-1.1126,-0.8589,3.040
0.877000,-2.7251,-1.1838,-0.7533,3.065
0.882000,-2.6991,-1.2765,-0.5174,3.030
0.889000,-2.6388,-1.4273,-0.0788,3.001
0.893000,-2.7108,-1.5965,0.5339,3.191
0.897000,-2.9764,-1.7335,1.2696,3.671
0.902000,-3.3404,-1.8686,1.9346,4.289
0.908000,-3.6495,-2.0134,2.2489,4.736
0.912000,-3.9569,-2.1910,2.2346,5.045
0.916000,-4.1578,-2.3866,1.8401,5.135
0.921000,-4.2005,-2.6932,1.1496,5.120
0.927000,-4.2392,-3.0414,0.5136,5.243
0.931000,-4.2331,-3.3570,0.0040,5.403
0.951000,-4.1109,-3.5921,-0.4365,5.477
0.956000,-3.9727,-3.7279,-0.7876,5.505
0.959000,-3.8904,-3.8101,-0.9744,5.532
0.961000,-3.8325,-3.8577,-0.9743,5.524
0.961000,-3.7177,-3.8954,-0.7554,5.438
0.962000,-3.5199,-3.8998,-0.4491,5.273
0.997000,-3.3158,-3.8401,-0.1964,5.077
0.998000,-3.0984,-3.7102,0.0034,4.834
0.999000,-2.8941,-3.5714,0.1579,4.599
0.999000,-2.7244,-3.4170,0.2332,4.376
1.000000,-2.6491,-3.2652,0.1882,4.209
1.001000,-2.6633,-3.1586,0.0322,4.132
1.002000,-2.7764,-3.1636,-0.1794,4.213
1.002000,-2.9716,-3.3461,-0.3835,4.492
1.008000,-3.1769,-3.6443,-0.4902,4.859
1.012000,-3.1795,-3.8069,-0.4169,4.978
1.018000,-2.9774,-3.8606,-0.4948,4.900
1.022000,-2.9368,-4.0811,-0.4493,5.048
1.027000,-2.9927,-4.3698,-0.3548,5.308
1.032000,-3.0660,-4.7166,-0.1876,5.629
1.044000,-3.1397,-5.0991,0.1009,5.989
1.047000,-3.1735,-5.4560,0.3671,6.322
1.047000,-3.1960,-5.7314,0.5443,6.585
1.054000,-3.1956,-5.8991,0.6752,6.743
1.086000,-3.0526,-6.0074,0.7824,6.784
1.088000,-2.8052,-6.1181,0.8585,6.785
1.089000,-2.5254,-6.2452,0.8906,6.795
1.090000,-2.3204,-6.3545,0.8392,6.817
1.091000,-2.1899,-6.4180,0.7298,6.820
1.092000,-2.1026,-6.4265,0.6161,6.790
1.092000,-1.9672,-6.4067,0.4942,6.720
1.093000,-1.5374,-6.4159,0.3948,6.609
1.097000,-0.9745,-6.5049,0.3893,6.589
1.102000,-0.5850,-6.5355,0.4432,6.577
1.108000,-0.6436,-6.4652,0.3872,6.509
1.112000,-0.8817,-6.2746,0.0083,6.336
1.117000,-1.1744,-6.1629,-0.3017,6.281
1.127000,-1.4809,-6.3550,-0.5796,6.551
1.127000,-1.8289,-6.8293,-0.7108,7.106
1.132000,-2.0289,-7.3481,-0.9013,7.676
1.137000,-2.1264,-7.8591,-0.9783,8.200
1.173000,-2.1692,-8.3476,-0.9585,8.678
1.174000,-2.1206,-8.7504,-0.8088,9.040
1.175000,-1.9930,-9.0906,-0.6350,9.328
1.175000,-1.8623,-9.3796,-0.4828,9.575
1.175000,-1.7545,-9.5837,-0.3524,9.749
1.176000,-1.5567,-9.6650,-0.2194,9.792
1.176000,-1.2949,-9.7331,-0.0947,9.819
1.178000,-1.0275,-9.7591,0.0730,9.813
1.182000,-0.6201,-9.6421,0.2530,9.665
1.187000,-0.0827,-9.4240,0.3949,9.433
1.193000,0.7133,-9.0079,0.4410,9.047
1.197000,1.6827,-8.3502,0.4102,8.528
1.202000,2.6953,-7.5073,0.2923,7.982
1.207000,3.6927,-6.6290,0.1489,7.590
1.214000,4.6028,-5.8233,0.0339,7.423
1.218000,5.3357,-5.0980,-0.2093,7.383
1.223000,5.8593,-4.4705,-0.5943,7.394
1.228000,6.1765,-3.9709,-1.0005,7.411
1.232000,6.1873,-3.6313,-1.3625,7.302
1.238000,5.9386,-3.3877,-1.7330,7.053
1.243000,5.5271,-3.1769,-2.1114,6.716
1.248000,5.0805,-3.0143,-2.4372,6.390
1.253000,4.6477,-2.8964,-2.6569,6.087
1.267000,4.2853,-2.8001,-2.7726,5.822
1.269000,4.0497,-2.7067,-2.7908,5.614
1.272000,3.9367,-2.6059,-2.7042,5.441
1.274000,3.8886,-2.5458,-2.4699,5.263
1.314000,3.8670,-2.5716,-2.0574,5.079
1.316000,3.8847,-2.6207,-1.5207,4.927
1.317000,3.9592,-2.6844,-0.9540,4.878
1.317000,4.1199,-2.7049,-0.4514,4.949
1.318000,4.3399,-2.6971,-0.1094,5.111
1.319000,4.5971,-2.6085,-0.0068,5.286
1.323000,4.8314,-2.4153,-0.1025,5.402
1.324000,5.0381,-2.1367,-0.3693,5.485
1.325000,5.1438,-1.7973,-0.7487,5.500
1.325000,5.4075,-1.4348,-1.1775,5.717
1.328000,5.6538,-1.0709,-1.5399,5.957
1.332000,5.7481,-0.6889,-1.8285,6.071
1.340000,5.7316,-0.3458,-2.0266,6.089
1.343000,5.6723,0.0042,-2.1845,6.078
1.349000,5.6334,0.3441,-2.3354,6.108
1.354000,5.5889,0.6383,-2.4049,6.118
1.362000,5.5025,0.8748,-2.3717,6.055
1.364000,5.3934,1.1088,-2.2795,5.959
1.370000,5.2647,1.3812,-2.1937,5.868
1.405000,5.1059,1.6941,-2.1265,5.785
1.406000,4.9058,2.0215,-2.0970,5.705
1.407000,4.6838,2.3253,-2.0692,5.624
1.407000,4.4547,2.6153,-2.0428,5.555
1.408000,4.2526,2.8777,-2.0105,5.514
1.408000,4.1105,3.1050,-1.9648,5.513
1.409000,4.0408,3.2929,-1.9059,5.550
1.409000,4.0122,3.4771,-1.8624,5.626
1.413000,3.9862,3.6818,-1.8148,5.722
1.417000,3.9579,3.9260,-1.8062,5.860
1.422000,3.9344,4.1906,-1.7837,6.018
1.428000,3.9486,4.4538,-1.7589,6.207
1.432000,4.0030,4.6824,-1.7149,6.395
1.438000,4.0589,4.8548,-1.6038,6.528
1.443000,4.1017,5.0141,-1.4281,6.634
1.448000,4.0792,5.1579,-1.2142,6.687
1.453000,4.0004,5.3030,-0.9750,6.714
1.458000,3.9066,5.4158,-0.7226,6.717
1.464000,3.8290,5.5299,-0.4623,6.742
1.468000,3.7770,5.6429,-0.1946,6.793
1.480000,3.8032,5.7906,0.0799,6.928
1.483000,3.8759,5.9250,0.3942,7.091
1.484000,4.3433,6.4521,0.5845,7.800
1.537000,4.5112,6.4933,1.0879,7.981
1.538000,4.2929,6.0446,1.4919,7.563
1.539000,3.9639,5.4972,1.7775,7.006
1.540000,3.7001,5.0930,1.9310,6.585
1.540000,3.5355,4.8584,1.9815,6.327
1.541000,3.4627,4.7429,2.0205,6.210
1.541000,3.4955,4.7464,2.0383,6.237
1.542000,3.6262,4.7633,2.0827,6.338
1.542000,3.8327,4.7407,2.1839,6.476
1.544000,4.0573,4.5757,2.2981,6.533
1.545000,4.3072,4.2972,2.3914,6.537
1.545000,4.6134,4.0366,2.4253,6.592
1.549000,5.0657,3.8798,2.4285,6.827
1.554000,5.4480,3.6684,2.4465,7.009
1.559000,5.6902,3.3949,2.4097,7.051
1.563000,5.7144,3.0716,2.3164,6.889
1.569000,5.4899,2.7081,2.1669,6.494
1.578000,5.0636,2.2711,1.9522,5.883
1.579000,4.5138,1.7901,1.7445,5.160
1.583000,3.9738,1.3754,1.5322,4.476
1.624000,3.4852,1.0395,1.2677,3.851
1.625000,3.0997,0.8019,0.9665,3.344
1.625000,2.7934,0.5935,0.6650,2.932
1.625000,2.5619,0.4456,0.3973,2.631
1.626000,2.4387,0.3294,0.1974,2.469
1.626000,2.3990,0.2473,0.0434,2.412
1.626000,2.4217,0.1898,-0.0737,2.430
1.626000,2.5109,0.1974,-0.1903,2.526
1.628000,2.6733,0.2266,-0.3235,2.702
1.633000,2.8941,0.2392,-0.4730,2.942
1.638000,3.1177,0.2494,-0.6457,3.194
1.643000,3.3200,0.2810,-0.8486,3.438
1.648000,3.5199,0.3485,-1.0567,3.692
1.653000,3.7191,0.4252,-1.2411,3.944
1.659000,3.8959,0.4776,-1.3733,4.158
1.664000,4.0189,0.5081,-1.4554,4.304
1.668000,4.1023,0.4949,-1.5213,4.403
1.675000,4.1157,0.4410,-1.5704,4.427
1.680000,4.0715,0.3249,-1.6174,4.393
1.683000,3.9963,0.1638,-1.6118,4.312
1.724000,3.9386,-0.0374,-1.5374,4.228
1.725000,3.9180,-0.2832,-1.4111,4.174
1.726000,3.9393,-0.5686,-1.2718,4.178
1.726000,4.0511,-0.8956,-1.1431,4.303
1.727000,4.2889,-1.2045,-1.0421,4.575
1.727000,4.6664,-1.4358,-0.9090,4.966
1.728000,5.1278,-1.5707,-0.6866,5.407
1.728000,5.5670,-1.6290,-0.3799,5.813
1.729000,5.9339,-1.6539,-0.0280,6.160
1.734000,6.2185,-1.6842,0.3208,6.451
1.740000,6.3946,-1.7176,0.6606,6.654
1.743000,6.4745,-1.7257,0.9502,6.768
1.748000,6.4679,-1.6965,1.1840,6.791
1.755000,6.3560,-1.6782,1.3355,6.708
1.760000,6.1111,-1.6557,1.4263,6.490
1.765000,5.7627,-1.5835,1.4133,6.141
1.769000,5.3499,-1.3797,1.2994,5.676
1.775000,4.9567,-1.0274,1.1235,5.185
1.780000,4.6501,-0.5102,0.9291,4.769
1.783000,4.4657,0.1099,0.7478,4.529
1.818000,4.4268,0.7940,0.5699,4.533
1.819000,4.5702,1.4601,0.3787,4.813
1.819000,4.8750,2.0235,0.2418,5.284
1.820000,5.3081,2.4619,0.2141,5.855
1.820000,5.8099,2.7380,0.2115,6.426
1.820000,6.2766,2.8656,0.1452,6.901
1.821000,6.6544,2.8008,-0.0181,7.220
1.827000,6.8953,2.5508,-0.2802,7.357
1.829000,7.0187,2.1186,-0.6585,7.361
1.836000,7.0298,1.5813,-1.0964,7.288
1.838000,6.9540,1.0267,-1.5298,7.194
1.843000,6.8278,0.5246,-1.9527,7.121
1.848000,6.6442,0.0944,-2.2783,7.025
1.855000,6.3634,-0.2778,-2.5017,6.843
1.858000,5.9935,-0.6228,-2.6183,6.570
1.864000,5.5539,-0.9407,-2.6361,6.219
1.869000,5.0851,-1.2232,-2.5651,5.825
1.874000,4.6159,-1.4489,-2.4374,5.417
1.878000,4.1781,-1.6416,-2.2823,5.036
1.884000,3.7696,-1.7869,-2.1242,4.681
1.892000,3.3875,-1.8758,-1.9325,4.328
1.898000,3.0452,-1.9363,-1.7031,3.990
1.902000,2.7613,-1.9906,-1.4609,3.704
1.904000,2.5214,-2.0582,-1.2474,3.486
1.921000,2.3230,-2.1179,-1.1012,3.331
1.922000,2.1517,-2.2010,-1.0155,3.241
1.922000,1.9541,-2.2699,-1.0116,3.161
1.931000,1.7457,-2.3522,-1.0723,3.119
1.931000,1.5068,-2.4650,-1.1780,3.120
1.934000,1.2736,-2.5912,-1.2876,3.161
1.949000,1.0128,-2.7303,-1.3935,3.228
1.950000,0.7671,-2.8515,-1.4405,3.285
1.950000,0.5044,-2.9153,-1.4172,3.280
1.966000,0.2147,-2.9101,-1.3691,3.223
1.966000,-0.0541,-2.8577,-1.2800,3.132
1.967000,-0.2755,-2.7439,-1.1648,2.994
1.969000,-0.4736,-2.6146,-1.0646,2.862
1.979000,-0.7135,-2.4826,-0.9776,2.762
1.980000,-0.9751,-2.3729,-0.8896,2.715
1.984000,-1.2492,-2.2841,-0.7913,2.721
1.990000,-1.5093,-2.2280,-0.6495,2.768
1.995000,-1.7962,-2.1997,-0.4787,2.880
1.999000,-2.1361,-2.2231,-0.2861,3.096
2.008000,-2.4886,-2.2987,-0.0595,3.388
2.010000,-2.8361,-2.4130,0.1509,3.727
2.013000,-3.1406,-2.5734,0.3260,4.073
2.019000,-3.3899,-2.7269,0.4344,4.372
2.049000,-3.5719,-2.8515,0.4284,4.591
2.050000,-3.6990,-2.9289,0.3489,4.731
2.051000,-3.7708,-2.9695,0.1894,4.803
2.052000,-3.7856,-3.0267,0.0005,4.847
2.052000,-3.7816,-3.1076,-0.2173,4.899
2.053000,-3.7926,-3.2214,-0.4373,4.995
2.060000,-3.8283,-3.3855,-0.6763,5.155
2.061000,-3.8475,-3.5600,-0.9075,5.320
2.064000,-3.8865,-3.7405,-1.1359,5.512
2.070000,-3.9307,-3.9100,-1.3446,5.705
2.075000,-3.9994,-4.0902,-1.5266,5.921
2.080000,-4.0806,-4.2758,-1.6551,6.138
2.085000,-4.1532,-4.4677,-1.7279,6.340
2.091000,-4.2168,-4.6738,-1.7543,6.535
2.096000,-4.2812,-4.8829,-1.7419,6.724
2.099000,-4.3152,-5.0687,-1.7267,6.877
2.105000,-4.3311,-5.2359,-1.7064,7.006
2.109000,-4.3551,-5.3566,-1.7029,7.111
2.116000,-4.4278,-5.4490,-1.6945,7.223
2.119000,-4.5564,-5.5375,-1.6720,7.363
2.126000,-4.7360,-5.6315,-1.6356,7.538
2.131000,-4.9472,-5.7450,-1.5832,7.745
2.134000,-5.1876,-5.8898,-1.5365,7.998
2.176000,-5.4164,-6.0465,-1.5200,8.259
2.178000,-5.6309,-6.2330,-1.5311,8.538
2.178000,-5.8242,-6.4109,-1.5650,8.802
2.179000,-6.0226,-6.5754,-1.6001,9.059
2.179000,-6.2071,-6.6928,-1.6242,9.271
2.180000,-6.4018,-6.8086,-1.6563,9.491
2.180000,-6.6065,-6.9171,-1.6941,9.714
2.181000,-6.7972,-7.0611,-1.7214,9.951
2.181000,-6.9714,-7.2376,-1.7527,10.201
2.185000,-7.1147,-7.4268,-1.8119,10.443
2.190000,-7.2201,-7.5972,-1.9013,10.652
2.196000,-7.2662,-7.7799,-1.9631,10.825
2.199000,-7.2483,-7.9288,-2.0210,10.931
2.206000,-7.1810,-8.0321,-2.0585,10.969
2.210000,-7.0858,-8.0951,-2.0515,10.952
2.216000,-6.9509,-8.1634,-1.9759,10.902
2.219000,-6.8027,-8.2516,-1.8679,10.856
2.226000,-6.6750,-8.3933,-1.7604,10.867
2.230000,-6.5747,-8.5670,-1.6579,10.926
2.236000,-6.5142,-8.7438,-1.6053,11.021
2.246000,-6.4837,-8.9142,-1.5924,11.137
2.248000,-6.4764,-9.0396,-1.5899,11.233
2.249000,-6.4871,-9.1389,-1.5786,11.318
2.300000,-6.4609,-9.2314,-1.5630,11.376
2.301000,-6.4333,-9.2951,-1.5627,11.412
2.302000,-6.3971,-9.3370,-1.5703,11.427
2.303000,-6.3161,-9.3498,-1.5594,11.391
2.303000,-6.1712,-9.3356,-1.5178,11.293
2.304000,-5.9697,-9.2929,-1.4644,11.142
2.304000,-5.6996,-9.2124,-1.3917,10.922
2.305000,-5.3944,-9.1041,-1.2687,10.658
2.306000,-5.0923,-9.0166,-1.1241,10.416
2.306000,-4.7598,-8.9554,-0.9512,10.186
2.307000,-4.3869,-8.9418,-0.7812,9.991
2.313000,-3.9858,-8.9657,-0.6579,9.834
2.317000,-3.5634,-9.0101,-0.6102,9.708
2.321000,-3.1267,-9.0372,-0.6452,9.585
2.326000,-2.7117,-9.0617,-0.7339,9.487
2.330000,-2.3110,-9.0375,-0.8184,9.364
2.336000,-1.9706,-8.9811,-0.8511,9.234
2.344000,-1.6849,-8.8893,-0.8635,9.089
2.346000,-1.4224,-8.7692,-0.9137,8.931
2.349000,-1.1705,-8.6206,-1.0021,8.757
2.386000,-0.8835,-8.4127,-1.1337,8.535
2.387000,-0.5464,-8.1374,-1.3110,8.260
2.388000,-0.1100,-7.7729,-1.4837,7.914
2.388000,0.3950,-7.2952,-1.6157,7.482
2.389000,0.9755,-6.7169,-1.7193,7.002
2.389000,1.5949,-6.0678,-1.8156,6.531
2.389000,2.2650,-5.3910,-1.9020,6.149
2.390000,2.9266,-4.7058,-1.9325,5.869
2.395000,3.6248,-4.0026,-1.9428,5.739
2.399000,4.2797,-3.3373,-1.8779,5.743
2.405000,4.8357,-2.7324,-1.7617,5.827
2.409000,5.2608,-2.1930,-1.6278,5.927
2.416000,5.5337,-1.7212,-1.5047,5.987
2.420000,5.6838,-1.3018,-1.3493,5.985
2.426000,5.7640,-0.9553,-1.1589,5.956
2.430000,5.8005,-0.6436,-0.9363,5.911
2.435000,5.8147,-0.3880,-0.7058,5.870
2.448000,5.8066,-0.1572,-0.4848,5.829
2.450000,5.7505,0.0421,-0.2783,5.757
2.451000,5.6336,0.2069,-0.0823,5.638
2.509000,5.4615,0.3188,0.0744,5.471
2.510000,5.2439,0.4142,0.1726,5.263
2.510000,4.9954,0.5031,0.2529,5.027
2.510000,4.7119,0.5980,0.3131,4.760
2.511000,4.3975,0.6867,0.3603,4.465
2.511000,4.0744,0.7602,0.4163,4.166
2.511000,3.7619,0.8189,0.4664,3.878
2.512000,3.4674,0.8607,0.5131,3.609
2.512000,3.1839,0.9144,0.5276,3.354
2.513000,2.9358,0.9662,0.5125,3.133
2.513000,2.7079,1.0395,0.4534,2.936
2.514000,2.5197,1.1250,0.3433,2.781
2.516000,2.3686,1.2229,0.1633,2.671
2.521000,2.2474,1.3426,-0.0867,2.619
2.527000,2.1612,1.4870,-0.4108,2.655
2.530000,2.0875,1.6772,-0.7633,2.784
2.536000,2.0291,1.8753,-1.1172,2.980
2.543000,1.9857,2.0838,-1.4384,3.218
2.546000,1.9549,2.3054,-1.6837,3.460
2.551000,1.9846,2.5281,-1.8840,3.726
2.563000,2.0390,2.7736,-2.0324,3.998
2.564000,2.0530,3.0341,-2.1507,4.248
2.565000,2.0339,3.2885,-2.2676,4.482
2.570000,1.9794,3.5510,-2.3710,4.706
2.591000,1.9019,3.8459,-2.4394,4.935
2.592000,1.8087,4.1446,-2.4583,5.147
2.592000,1.7070,4.4302,-2.4403,5.338
2.593000,1.6185,4.6860,-2.3758,5.497
2.597000,1.5243,4.9003,-2.2746,5.613
2.603000,1.4340,5.0778,-2.1420,5.695
2.606000,1.3358,5.2209,-1.9877,5.744
2.617000,1.2660,5.3396,-1.8309,5.785
2.617000,1.2290,5.4359,-1.6531,5.813
2.621000,1.2250,5.5267,-1.4494,5.843
2.627000,1.2252,5.6048,-1.2273,5.867
2.631000,1.2030,5.6795,-0.9869,5.889
2.635000,1.1729,5.7149,-0.7764,5.885
2.644000,1.1895,5.6893,-0.5435,5.838
2.647000,1.0499,5.5812,-0.2887,5.686
2.650000,0.9554,5.4436,-0.0626,5.527
2.675000,0.8848,5.2670,0.0892,5.342
2.676000,0.8310,5.0660,0.1548,5.136
2.676000,0.7920,4.8719,0.1730,4.939
2.677000,0.7938,4.6896,0.1538,4.759
2.677000,0.8415,4.5145,0.1407,4.594
2.683000,0.9228,4.3299,0.1577,4.430
2.685000,1.0451,4.1407,0.1859,4.275
2.690000,1.2105,3.9301,0.2253,4.118
2.695000,1.3949,3.7315,0.2711,3.993
2.700000,1.5578,3.5329,0.3328,3.875
2.705000,1.6870,3.3512,0.4105,3.774
2.710000,1.7828,3.1647,0.5161,3.669
2.715000,1.8740,2.9831,0.6397,3.581
2.723000,1.9704,2.8041,0.7814,3.515
2.727000,2.0981,2.6370,0.9027,3.489
2.730000,2.2379,2.4724,0.9844,3.477
2.736000,2.3852,2.2911,1.0458,3.469
2.741000,2.5374,2.1098,1.0725,3.470
2.746000,2.6948,1.9096,1.0649,3.470
2.750000,2.8500,1.7072,1.0374,3.480
2.761000,3.0126,1.5266,0.9831,3.517
2.762000,3.1994,1.3510,0.9406,3.598
2.769000,3.3935,1.2093,0.8906,3.711
2.808000,3.5873,1.1226,0.8360,3.851
2.809000,3.7831,1.0598,0.7672,4.003
2.809000,3.9806,1.0303,0.7057,4.172
2.809000,4.1556,1.0171,0.6636,4.329
2.809000,4.3272,1.0155,0.6311,4.489
2.809000,4.4788,0.9967,0.5892,4.626
2.809000,4.5957,0.9415,0.5333,4.721
2.810000,4.7071,0.8527,0.4564,4.805
2.810000,4.8297,0.7830,0.3657,4.906
2.815000,4.9657,0.7298,0.2472,5.025
2.821000,5.0913,0.6934,0.1226,5.140
2.826000,5.2184,0.6402,0.0042,5.257
2.830000,5.3417,0.5822,-0.0838,5.374
2.836000,5.5044,0.4883,-0.1243,5.527
2.840000,5.7206,0.3945,-0.0768,5.735
2.845000,5.9830,0.2862,0.0223,5.990
2.850000,6.2458,0.1751,0.1418,6.250
2.856000,6.4800,0.0779,0.2767,6.486
2.860000,6.6615,0.0278,0.4244,6.675
2.865000,6.7804,0.0222,0.5800,6.805
2.870000,6.8440,0.0274,0.7648,6.887
2.879000,6.8568,0.0120,0.9472,6.922
2.881000,6.8121,-0.0334,1.1317,6.906
2.887000,6.7935,-0.1377,1.2676,6.912
2.924000,6.7703,-0.3151,1.3954,6.920
2.925000,6.7472,-0.5248,1.5008,6.932
2.926000,6.7196,-0.7403,1.5648,6.939
2.926000,6.6828,-0.9426,1.5923,6.934
2.927000,6.6295,-1.1436,1.6004,6.915
2.927000,6.5602,-1.3262,1.6131,6.885
2.928000,6.4583,-1.5000,1.6163,6.824
2.928000,6.3050,-1.6673,1.6482,6.727
2.931000,6.1079,-1.8182,1.6990,6.595
2.936000,5.8748,-1.9287,1.7758,6.433
2.941000,5.6465,-1.9846,1.8398,6.262
2.947000,5.4310,-1.9497,1.8739,6.067
2.952000,5.2402,-1.8098,1.8635,5.849
2.956000,5.0790,-1.5366,1.7650,5.592
2.961000,4.9566,-1.1182,1.5621,5.316
2.967000,4.8917,-0.5863,1.3075,5.097
2.971000,4.8768,0.0040,1.0709,4.993
2.976000,4.9042,0.6308,0.8428,5.016
2.981000,4.9187,1.2294,0.6349,5.110
2.987000,4.9174,1.7779,0.4400,5.247
2.997000,4.9099,2.2643,0.2557,5.413
2.998000,4.9361,2.6811,0.0986,5.618
3.003000,4.9890,2.9973,-0.0479,5.820
3.043000,5.0535,3.1934,-0.2224,5.982
3.044000,5.1222,3.2383,-0.3981,6.073
3.045000,5.1807,3.1632,-0.5344,6.094
3.045000,5.2240,2.9609,-0.6767,6.043
3.046000,5.2231,2.6263,-0.8390,5.906
3.047000,5.1546,2.2154,-1.0230,5.703
3.047000,5.0378,1.7687,-1.2161,5.476
3.048000,4.8826,1.3323,-1.3912,5.249
3.048000,4.7276,0.9327,-1.5408,5.059
3.051000,4.5871,0.5912,-1.6409,4.908
3.058000,4.4478,0.2919,-1.6985,4.770
3.062000,4.2879,0.0224,-1.7091,4.616
3.067000,4.1316,-0.2174,-1.6636,4.459
3.071000,3.9600,-0.4586,-1.6030,4.297
3.076000,3.7303,-0.6748,-1.5228,4.085
3.081000,3.4713,-0.8543,-1.4424,3.855
3.086000,3.2030,-0.9652,-1.3521,3.608
3.091000,2.9371,-1.0033,-1.2542,3.348
3.098000,2.6593,-0.9924,-1.1586,3.066
3.102000,2.3984,-0.9352,-1.0653,2.786
3.108000,2.1469,-0.8847,-0.9674,2.515
3.111000,1.9367,-0.8115,-0.8864,2.279
3.116000,1.7458,-0.7639,-0.8083,2.070
3.150000,1.5886,-0.7275,-0.7639,1.907
3.151000,1.4674,-0.7072,-0.7294,1.785
3.151000,1.3531,-0.6940,-0.7167,1.681
3.151000,1.2297,-0.6653,-0.6969,1.562
3.152000,1.0728,-0.5980,-0.6652,1.397
3.152000,0.9086,-0.4947,-0.6217,1.207
3.152000,0.7107,-0.3891,-0.5473,0.978
3.159000,0.4842,-0.2981,-0.4711,0.738
3.161000,0.2431,-0.2556,-0.4051,0.537
3.166000,-0.0115,-0.2366,-0.3709,0.440
3.171000,-0.2752,-0.2510,-0.3850,0.536
3.177000,-0.5239,-0.2938,-0.4351,0.742
3.181000,-0.7264,-0.3530,-0.4806,0.940
3.186000,-0.9407,-0.4292,-0.5740,1.183
3.193000,-1.1657,-0.5352,-0.7220,1.472
3.196000,-1.4019,-0.6596,-0.8810,1.782
3.201000,-1.6157,-0.7948,-0.9671,2.044
3.208000,-1.8238,-0.9410,-1.0021,2.284
3.212000,-2.0356,-1.1003,-1.0793,2.553
3.217000,-2.2728,-1.2660,-1.2011,2.865
3.253000,-2.5130,-1.4195,-1.3431,3.183
3.254000,-2.7539,-1.5997,-1.4388,3.495
3.254000,-2.9857,-1.8063,-1.5026,3.799
3.254000,-3.2059,-1.9958,-1.5900,4.097
3.255000,-3.4264,-2.1729,-1.6985,4.398
3.255000,-3.6353,-2.3570,-1.8019,4.692
3.255000,-3.8294,-2.5490,-1.8694,4.966
3.258000,-4.0160,-2.7493,-1.9207,5.232
3.261000,-4.1615,-2.9576,-1.9203,5.455
3.266000,-4.2659,-3.1785,-1.9356,5.661
3.272000,-4.3820,-3.4414,-1.9500,5.903
3.276000,-4.5044,-3.7182,-1.9755,6.166
3.284000,-4.5904,-3.9472,-1.9358,6.356
3.290000,-4.6496,-4.1333,-1.8478,6.490
3.294000,-4.7034,-4.3173,-1.7240,6.613
3.298000,-4.8071,-4.5093,-1.6030,6.783
3.302000,-4.9220,-4.7130,-1.4704,6.971
3.307000,-5.0052,-4.9001,-1.3360,7.131
3.312000,-5.1215,-5.1473,-1.2356,7.365
3.317000,-5.2467,-5.4037,-1.1952,7.626
3.331000,-5.3643,-5.6523,-1.2048,7.885
3.332000,-5.4793,-5.8910,-1.2357,8.140
3.332000,-5.5413,-6.1065,-1.2440,8.339
3.391000,-5.6032,-6.3232,-1.3087,8.549
3.394000,-5.6868,-6.5312,-1.4387,8.779
3.395000,-5.7682,-6.7350,-1.6121,9.013
3.395000,-5.8378,-6.9198,-1.8049,9.232
3.396000,-5.8458,-7.0872,-1.9802,9.398
3.397000,-5.8856,-7.2756,-2.1019,9.591
3.397000,-5.9503,-7.4419,-2.2679,9.794
3.398000,-6.0209,-7.5760,-2.4559,9.984
3.398000,-6.0784,-7.6872,-2.5843,10.135
3.399000,-6.0966,-7.7777,-2.6269,10.226
3.399000,-6.0731,-7.8306,-2.6102,10.248
3.400000,-6.0269,-7.8845,-2.5513,10.247
3.400000,-5.9704,-7.9349,-2.4812,10.235
3.403000,-5.9230,-7.9987,-2.4233,10.244
3.407000,-5.8728,-8.0642,-2.3704,10.254
3.412000,-5.8272,-8.1241,-2.3314,10.266
3.417000,-5.7765,-8.1759,-2.2875,10.269
3.424000,-5.6728,-8.2079,-2.2818,10.235
3.427000,-5.5689,-8.2297,-2.3213,10.204
3.431000,-5.4503,-8.2555,-2.3797,10.175
3.468000,-5.2955,-8.2852,-2.4138,10.125
3.471000,-5.1020,-8.3312,-2.4023,10.060
3.472000,-4.9079,-8.3982,-2.3552,10.008
3.474000,-4.6341,-8.4292,-2.3186,9.895
3.476000,-4.4048,-8.5155,-2.2925,9.858
3.477000,-4.1911,-8.6420,-2.2677,9.869
3.477000,-3.9783,-8.7712,-2.2516,9.891
3.478000,-3.7615,-8.9100,-2.1631,9.910
3.478000,-3.5092,-9.0321,-2.0744,9.909
3.482000,-3.2692,-9.1546,-1.9808,9.921
3.489000,-3.0414,-9.2637,-1.8995,9.933
3.493000,-2.8182,-9.3637,-1.8399,9.950
3.497000,-2.5905,-9.4655,-1.8068,9.978
3.502000,-2.3507,-9.5521,-1.7788,9.997
3.507000,-2.1370,-9.6308,-1.7489,10.019
3.513000,-1.8991,-9.7092,-1.7338,10.044
3.517000,-1.7177,-9.7938,-1.7385,10.094
3.525000,-1.5741,-9.8377,-1.7771,10.120
3.528000,-1.4508,-9.8162,-1.8376,10.092
3.532000,-1.3213,-9.7530,-1.9054,10.025
3.567000,-1.1589,-9.6075,-2.0189,9.885
3.570000,-0.9562,-9.3413,-2.1588,9.635
3.572000,-0.6530,-8.9467,-2.3652,9.277
3.573000,-0.2912,-8.4570,-2.5635,8.842
3.574000,0.1272,-7.8765,-2.7247,8.335
3.575000,0.6211,-7.1867,-2.8510,7.756
3.575000,1.1566,-6.4434,-2.9398,7.176
3.575000,1.6978,-5.6918,-2.9453,6.630
3.577000,2.2887,-4.9151,-2.9417,6.168
3.582000,2.9170,-4.1302,-2.8926,5.825
3.588000,3.5842,-3.3715,-2.7691,5.646
3.594000,4.2723,-2.6565,-2.5710,5.650
3.597000,4.9494,-1.9839,-2.2910,5.804
3.602000,5.5740,-1.3371,-1.9315,6.049
3.607000,6.0985,-0.7042,-1.5051,6.321
3.612000,6.4893,-0.1235,-1.0145,6.569
3.617000,6.7241,0.4115,-0.4868,6.754
3.622000,6.7861,0.8363,0.0418,6.838
3.627000,6.7118,1.1609,0.5753,6.836
3.632000,6.5314,1.3557,1.0959,6.760
3.644000,6.2361,1.4504,1.5602,6.590
3.648000,5.8480,1.4645,1.9388,6.333
3.650000,5.3891,1.4393,2.2054,5.998
3.652000,4.8597,1.3919,2.3934,5.593
3.698000,4.3037,1.3379,2.5008,5.154
3.699000,3.7450,1.2938,2.5514,4.713
3.699000,3.1963,1.2654,2.5408,4.275
3.700000,2.6747,1.2700,2.4789,3.862
3.700000,2.1898,1.2937,2.3807,3.484
3.700000,1.7375,1.3178,2.2655,3.145
3.701000,1.3221,1.3615,2.1454,2.864
3.701000,0.9249,1.4108,2.0398,2.647
3.701000,0.5747,1.4731,1.9295,2.495
3.703000,0.2765,1.5389,1.8051,2.388
3.708000,0.0376,1.6421,1.6546,2.331
3.713000,-0.1369,1.7852,1.4948,2.332
3.719000,-0.2283,1.9559,1.3326,2.378
3.725000,-0.2772,2.1183,1.1322,2.418
3.727000,-0.3125,2.2869,0.8794,2.470
3.733000,-0.3366,2.4569,0.6175,2.556
3.742000,-0.3328,2.6572,0.3924,2.707
3.743000,-0.3014,2.8707,0.1987,2.893
3.748000,-0.2829,3.0808,0.0127,3.094
3.752000,-0.2915,3.2876,-0.1299,3.303
3.802000,-0.3248,3.4718,-0.2652,3.497
3.803000,-0.3728,3.6745,-0.4146,3.717
3.804000,-0.4209,3.8720,-0.5444,3.933
3.804000,-0.4788,4.0761,-0.6310,4.152
3.804000,-0.5223,4.2751,-0.6744,4.359
3.805000,-0.5463,4.4617,-0.6819,4.547
3.805000,-0.5318,4.6122,-0.6538,4.689
3.805000,-0.5050,4.7481,-0.5807,4.810
3.806000,-0.4901,4.8571,-0.4823,4.906
3.806000,-0.4987,4.9369,-0.3588,4.975
3.810000,-0.5307,4.9851,-0.2249,5.018
3.814000,-0.5619,5.0258,-0.0787,5.058
3.819000,-0.5872,5.0469,0.0510,5.081
3.824000,-0.6210,5.0486,0.1663,5.089
3.828000,-0.6609,5.0379,0.2455,5.087
3.833000,-0.7331,4.9838,0.3198,5.048
3.840000,-0.7944,4.8983,0.3724,4.976
3.844000,-0.8425,4.7745,0.4201,4.866
3.848000,-0.9032,4.6243,0.4463,4.733
3.852000,-0.9267,4.4503,0.4346,4.567
3.858000,-0.9223,4.2503,0.4019,4.368
3.862000,-0.8685,4.0769,0.3271,4.181
3.867000,-0.7417,3.9112,0.2347,3.988
3.910000,-0.5659,3.7746,0.1272,3.819
3.911000,-0.3531,3.6193,0.0147,3.637
3.911000,-0.1184,3.4478,-0.1025,3.451
3.912000,0.1455,3.2719,-0.2121,3.282
3.912000,0.4336,3.1085,-0.3185,3.155
3.913000,0.7435,2.9553,-0.3904,3.072
3.913000,1.0775,2.8123,-0.4325,3.043
3.914000,1.4232,2.6721,-0.4112,3.055
3.914000,1.7948,2.5467,-0.3529,3.136
3.919000,2.1709,2.4335,-0.2863,3.274
3.923000,2.5128,2.3254,-0.1949,3.429
3.928000,2.8178,2.2196,-0.0785,3.588
3.932000,3.0911,2.1235,0.0483,3.751
3.938000,3.3463,2.0343,0.1924,3.921
3.943000,3.5909,1.9566,0.3224,4.102
3.948000,3.8248,1.8858,0.4215,4.285
3.953000,4.0816,1.8145,0.5158,4.496
3.959000,4.3469,1.7357,0.6005,4.719
3.963000,4.6178,1.6465,0.6995,4.952
3.968000,4.8585,1.5520,0.7769,5.159
3.977000,5.0663,1.4616,0.8303,5.338
3.978000,5.2653,1.3418,0.8767,5.504
3.984000,5.4673,1.2048,0.9232,5.674
4.024000,5.6584,1.0625,0.9482,5.835
4.025000,5.8453,0.9197,0.9399,5.991
4.026000,6.0282,0.8027,0.9319,6.152
4.026000,6.1997,0.7236,0.9220,6.310
4.027000,6.3645,0.6941,0.9103,6.467
4.027000,6.5633,0.6713,0.9161,6.661
4.027000,6.7763,0.6453,0.9536,6.873
4.028000,6.9771,0.6042,0.9963,7.074
4.028000,7.1487,0.5287,1.0562,7.246
4.033000,7.3052,0.4162,1.1500,7.407
4.038000,7.4226,0.2382,1.2226,7.526
4.043000,7.5201,0.0472,1.2618,7.625
4.049000,7.5974,-0.1329,1.2942,7.708
4.054000,7.5924,-0.3141,1.3317,7.715
4.059000,7.5603,-0.4603,1.3290,7.690
4.063000,7.5086,-0.5788,1.3102,7.644
4.068000,7.4470,-0.6790,1.2946,7.589
4.075000,7.3781,-0.7798,1.2895,7.530
4.078000,7.3023,-0.8764,1.2950,7.468
4.083000,7.2581,-0.9661,1.3186,7.440
4.124000,7.2218,-1.0298,1.3747,7.423
4.126000,7.1790,-1.1010,1.4367,7.404
4.126000,7.1107,-1.1581,1.5001,7.359
4.127000,7.0176,-1.2130,1.5644,7.291
4.127000,6.8950,-1.2774,1.6346,7.200
4.127000,6.7338,-1.3275,1.7249,7.077
4.128000,6.5392,-1.3415,1.8112,6.917
4.128000,6.3141,-1.2882,1.8983,6.718
4.129000,6.0733,-1.1055,2.0024,6.490
4.133000,5.8384,-0.7744,2.1067,6.255
4.138000,5.6834,-0.2832,2.2229,6.109
4.143000,5.5840,0.3435,2.3743,6.078
4.149000,5.5705,1.0261,2.5363,6.206
4.154000,5.5893,1.6779,2.6841,6.423
4.158000,5.6283,2.2362,2.8432,6.690
4.164000,5.6963,2.6817,2.9413,6.949
4.169000,5.7860,3.0188,2.9637,7.168
4.175000,5.8872,3.2762,2.9342,7.349
4.178000,5.9633,3.4631,2.8987,7.480
4.182000,6.0065,3.5529,2.8617,7.543
4.222000,6.0195,3.5528,2.8161,7.536
4.223000,6.0141,3.4221,2.7236,7.436
4.224000,5.9882,3.2017,2.5627,7.258
4.224000,5.9802,2.9181,2.2503,7.024
4.224000,5.9469,2.5905,1.8618,6.749
4.225000,5.8691,2.2503,1.4344,6.447
4.225000,5.7335,1.9199,1.0196,6.132
4.226000,5.5615,1.6259,0.6565,5.831
4.229000,5.3584,1.3755,0.3721,5.545
4.233000,5.1507,1.1546,0.1925,5.282
4.239000,4.9289,0.9534,0.1129,5.021
4.243000,4.7059,0.7699,0.1209,4.770
4.249000,4.4913,0.5919,0.1896,4.534
4.254000,4.2923,0.4431,0.3042,4.326
4.258000,4.1161,0.3138,0.4379,4.151
4.264000,3.9676,0.1966,0.5618,4.012
4.269000,3.8489,0.1148,0.6921,3.912
4.277000,3.7270,0.0378,0.8122,3.815
4.278000,3.5896,-0.0447,0.9072,3.703
4.283000,3.4250,-0.1542,0.9605,3.560
4.330000,3.2213,-0.2836,0.9621,3.374
4.331000,2.9879,-0.4167,0.9099,3.151
4.332000,2.7643,-0.5762,0.8567,2.951
4.332000,2.5934,-0.7361,0.8287,2.820
4.332000,2.4201,-0.9277,0.7494,2.698
4.333000,2.1778,-1.1554,0.6023,2.538
4.334000,1.9219,-1.3349,0.4480,2.383
4.334000,1.6808,-1.4548,0.3585,2.252
4.334000,1.4244,-1.5138,0.3482,2.108
4.334000,1.1738,-1.5631,0.3834,1.992
4.338000,0.9385,-1.6314,0.4470,1.934
4.344000,0.7353,-1.6998,0.5603,1.935
4.348000,0.5566,-1.7837,0.6602,1.982
4.353000,0.3290,-1.8867,0.6470,2.021
4.360000,0.0233,-2.0118,0.5617,2.089
4.363000,-0.3147,-2.1443,0.4335,2.210
4.368000,-0.6489,-2.2957,0.3182,2.407
4.373000,-0.9361,-2.4417,0.2250,2.625
4.379000,-1.2004,-2.5925,0.0799,2.858
4.384000,-1.4530,-2.7511,-0.1213,3.114
4.399000,-1.7159,-2.8988,-0.3444,3.386
4.401000,-1.9533,-3.0427,-0.5150,3.652
4.405000,-2.1795,-3.1636,-0.6666,3.899
4.407000,-2.4112,-3.2852,-0.8257,4.158
4.462000,-2.6557,-3.4131,-1.0020,4.439
4.464000,-2.9099,-3.5381,-1.1762,4.730
4.464000,-3.1213,-3.6560,-1.3100,4.982
4.465000,-3.3067,-3.7763,-1.4181,5.216
4.466000,-3.4634,-3.8868,-1.5175,5.423
4.466000,-3.6110,-4.0124,-1.5897,5.627
4.467000,-3.7509,-4.1227,-1.6327,5.808
4.467000,-3.9192,-4.2185,-1.6496,5.990
4.468000,-4.1322,-4.3334,-1.6914,6.222
4.469000,-4.4257,-4.5077,-1.7536,6.556
4.471000,-4.7206,-4.6841,-1.8460,6.902
4.472000,-5.0163,-4.8674,-1.9515,7.257
4.472000,-5.3323,-5.0508,-2.0293,7.620
4.475000,-5.6135,-5.2316,-2.0865,7.952
4.478000,-5.8576,-5.4068,-2.1065,8.245
4.485000,-6.0359,-5.5907,-2.1136,8.494
4.490000,-6.1557,-5.7886,-2.1035,8.708
4.494000,-6.2361,-5.9775,-2.1097,8.892
4.498000,-6.3059,-6.1890,-2.1156,9.085
4.507000,-6.4132,-6.4183,-2.1644,9.328
4.511000,-6.5770,-6.6649,-2.2222,9.624
4.513000,-6.7758,-6.9494,-2.2721,9.968
4.518000,-6.9620,-7.2717,-2.3117,10.329
4.555000,-7.1116,-7.6157,-2.3621,10.684
4.557000,-7.2104,-7.9620,-2.4330,11.014
4.558000,-7.2753,-8.2840,-2.5216,11.310
4.558000,-7.3068,-8.5524,-2.6611,11.559
4.559000,-7.3146,-8.7628,-2.8059,11.754
4.559000,-7.2869,-8.9141,-2.9220,11.878
4.559000,-7.2812,-9.0378,-3.0167,11.992
4.561000,-7.2501,-9.1743,-3.0729,12.090
4.564000,-7.1935,-9.2994,-3.0784,12.153
4.569000,-7.0880,-9.4514,-3.0211,12.194
4.574000,-6.9454,-9.6064,-2.9201,12.209
4.578000,-6.7735,-9.7597,-2.7556,12.195
4.583000,-6.5889,-9.8898,-2.5565,12.156
4.589000,-6.3702,-9.9899,-2.3489,12.079
4.594000,-6.1368,-10.0295,-2.1394,11.951
4.598000,-5.8771,-10.0402,-1.9350,11.794
4.604000,-5.5888,-10.0540,-1.7615,11.637
4.612000,-5.2816,-10.0976,-1.6263,11.511
4.618000,-4.9554,-10.1904,-1.5244,11.433
4.619000,-4.5981,-10.3064,-1.4442,11.378
4.656000,-4.2144,-10.3741,-1.4213,11.287
4.658000,-3.8952,-10.4389,-1.3841,11.228
4.659000,-3.6332,-10.4514,-1.3565,11.148
4.659000,-3.4042,-10.4256,-1.3052,11.045
4.660000,-3.1934,-10.3765,-1.1899,10.922
4.662000,-2.9647,-10.3425,-1.0326,10.808
4.662000,-2.7633,-10.3356,-0.8793,10.735
4.663000,-2.5964,-10.3669,-0.7589,10.714
4.664000,-2.4205,-10.4217,-0.6908,10.721
4.669000,-2.2641,-10.4807,-0.7087,10.746
4.674000,-2.1150,-10.5346,-0.7767,10.773
4.679000,-1.9896,-10.5541,-0.9571,10.783
4.685000,-1.8730,-10.5002,-1.2042,10.734
4.690000,-1.7562,-10.3740,-1.4337,10.619
4.694000,-1.6096,-10.1652,-1.6221,10.419
4.700000,-1.3996,-9.8620,-1.7720,10.117
4.706000,-1.1356,-9.4984,-1.8884,9.751
4.711000,-0.8170,-9.0835,-1.9692,9.330
4.715000,-0.4423,-8.6289,-2.0623,8.883
4.720000,-0.0112,-8.0987,-2.1412,8.377
4.725000,0.4495,-7.4838,-2.1986,7.813
4.731000,0.9134,-6.8304,-2.2557,7.251
4.734000,1.3778,-6.1534,-2.3052,6.714
4.790000,1.8499,-5.4645,-2.3062,6.213
4.791000,2.3189,-4.7874,-2.2467,5.774
4.791000,2.7726,-4.1530,-2.1410,5.433
4.792000,3.2012,-3.5380,-1.9962,5.172
4.792000,3.6042,-2.9478,-1.8292,5.003
4.792000,3.9982,-2.3987,-1.6828,4.957
4.793000,4.3480,-1.9025,-1.4804,4.972
4.793000,4.6416,-1.4586,-1.2362,5.020
4.793000,4.8520,-1.0821,-0.9671,5.064
4.794000,4.9621,-0.7659,-0.6994,5.069
4.794000,4.9692,-0.5173,-0.4431,5.016
4.796000,4.8784,-0.3452,-0.2075,4.895
4.800000,4.7126,-0.2267,0.0454,4.718
4.806000,4.5223,-0.1252,0.3276,4.536
4.809000,4.3120,-0.0431,0.6439,4.360
4.816000,4.0747,0.0223,0.9701,4.189
4.822000,3.7964,0.0833,1.3009,4.014
4.828000,3.4719,0.1416,1.6214,3.834
4.830000,3.1135,0.2121,1.8977,3.652
4.836000,2.7146,0.2972,2.0815,3.434
4.845000,2.2634,0.3686,2.1369,3.135
4.848000,1.7772,0.4244,2.0784,2.767
4.849000,1.2953,0.4848,1.9303,2.375
4.897000,0.8436,0.5619,1.7407,2.014
4.898000,0.4255,0.6421,1.5124,1.697
4.898000,0.0531,0.6998,1.2601,1.442
4.899000,-0.2540,0.7379,1.0179,1.283
4.899000,-0.4835,0.7761,0.8050,1.218
4.899000,-0.6287,0.8451,0.6236,1.224
4.899000,-0.7132,0.9502,0.4646,1.276
4.900000,-0.7443,1.0888,0.3325,1.360
4.900000,-0.7269,1.2702,0.2441,1.484
4.900000,-0.6541,1.4729,0.1657,1.620
4.905000,-0.5256,1.6849,0.1045,1.768
4.910000,-0.3326,1.8866,0.0603,1.917
4.916000,-0.1039,2.1019,0.0256,2.105
4.920000,0.1558,2.3282,-0.0235,2.334
4.925000,0.3814,2.5796,-0.0848,2.609
4.931000,0.5540,2.8466,-0.1703,2.905
4.935000,0.6682,3.1000,-0.2465,3.181
4.944000,0.7844,3.3355,-0.3182,3.441
4.946000,0.8833,3.5362,-0.3376,3.660
4.949000,0.9724,3.7573,-0.3719,3.899
4.993000,1.0564,3.9941,-0.3945,4.150
4.994000,1.1429,4.2349,-0.3720,4.402
4.994000,1.2119,4.4480,-0.3261,4.622
4.994000,1.2757,4.6336,-0.2355,4.812
4.995000,1.3440,4.7773,-0.1149,4.964
4.996000,1.4191,4.8717,0.0067,5.074
4.996000,1.4965,4.9339,0.1170,5.157
4.997000,1.5564,4.9920,0.2111,5.233
4.997000,1.6037,5.0389,0.2937,5.296
5.000000,1.6024,5.0508,0.3457,5.310
5.007000,1.5911,5.0372,0.3477,5.294
5.010000,1.5891,4.9888,0.3049,5.245
5.015000,1.6104,4.9055,0.2221,5.168
5.023000,1.6385,4.7973,0.0875,5.070
5.026000,1.6880,4.6620,-0.0838,4.959
5.030000,1.7395,4.5333,-0.2796,4.864
5.037000,1.8265,4.4018,-0.4896,4.791
5.041000,1.9084,4.2727,-0.6608,4.726
5.045000,1.9991,4.1458,-0.7832,4.669
5.051000,2.0894,4.0263,-0.8759,4.620
5.067000,2.2105,3.9000,-0.9221,4.577
5.069000,2.3600,3.7908,-0.9479,4.565
5.069000,2.5429,3.6892,-0.9438,4.579
5.070000,2.7512,3.6022,-0.9025,4.622
5.104000,2.9782,3.5298,-0.8313,4.693
5.105000,3.2187,3.4746,-0.7326,4.793
5.105000,3.4536,3.4265,-0.6113,4.903
5.106000,3.6753,3.3762,-0.4626,5.012
5.107000,3.8649,3.3234,-0.2748,5.105
5.107000,4.1869,3.2489,0.1265,5.301
5.107000,4.2181,3.2626,0.1310,5.334
5.111000,4.4035,3.2256,0.3464,5.469
5.116000,4.5755,3.1809,0.5402,5.599
5.122000,4.7319,3.1118,0.6956,5.706
5.125000,4.8646,3.0204,0.8198,5.784
5.133000,4.9956,2.8948,0.9367,5.849
5.137000,5.1128,2.7399,1.0413,5.893
5.141000,5.2262,2.5724,1.1167,5.931
5.146000,5.3525,2.4140,1.1536,5.984
5.150000,5.5063,2.2625,1.1568,6.064
5.158000,5.6871,2.1200,1.1192,6.172
5.162000,5.8543,1.9603,1.0674,6.265
5.193000,6.0222,1.7933,0.9898,6.361
5.193000,6.2051,1.6596,0.9107,6.487
5.194000,6.3907,1.5331,0.8449,6.626
5.194000,6.5165,1.4208,0.7780,6.715
5.194000,6.6184,1.2964,0.7364,6.784
5.194000,6.6894,1.1911,0.7275,6.833
5.197000,6.7367,1.0571,0.7489,6.860
5.200000,6.7701,0.9184,0.7933,6.878
5.206000,6.7846,0.7583,0.8655,6.881
5.211000,6.8113,0.5790,0.9798,6.906
5.215000,6.8407,0.3469,1.1334,6.943
5.222000,6.8874,0.0862,1.3117,7.012
5.226000,6.9824,-0.1436,1.5024,7.144
5.230000,7.0773,-0.3546,1.6961,7.286
5.235000,7.1365,-0.5686,1.8705,7.399
5.240000,7.1598,-0.7256,2.0022,7.470
5.246000,7.1330,-0.8117,2.1340,7.489
5.251000,7.0968,-0.8675,2.2536,7.496
5.255000,7.0417,-0.9576,2.3662,7.490
5.261000,6.9947,-1.0532,2.4734,7.493
5.265000,6.9843,-1.1498,2.5634,7.528
5.271000,6.9914,-1.2328,2.6239,7.569
5.276000,7.0042,-1.2881,2.6503,7.599
5.281000,7.0009,-1.3253,2.6617,7.606
5.286000,6.9671,-1.3228,2.6152,7.558
5.296000,6.9130,-1.3045,2.5300,7.476
5.298000,6.8457,-1.2703,2.4544,7.383
5.301000,6.7630,-1.2463,2.3933,7.281
5.349000,6.6602,-1.2015,2.3442,7.162
5.350000,6.5278,-1.1502,2.3407,7.030
5.350000,6.3872,-1.0399,2.3516,6.885
5.351000,6.2224,-0.8874,2.3548,6.712
5.351000,6.0715,-0.6355,2.3212,6.531
5.351000,5.9318,-0.2892,2.2341,6.345
5.352000,5.8129,0.1345,2.1008,6.182
5.352000,5.7165,0.6138,1.9477,6.070
5.352000,5.6166,1.1056,1.7820,5.995
5.353000,5.5102,1.5881,1.6468,5.966
5.362000,5.4596,1.5687,1.6567,5.917
5.363000,5.4044,2.0017,1.5743,5.974
5.367000,5.4257,2.5849,1.5788,6.214
5.374000,5.4391,2.6862,1.6051,6.275
5.377000,5.4859,2.6556,1.6266,6.308
5.381000,5.4985,2.5335,1.6288,6.269
5.385000,5.4843,2.3342,1.5952,6.170
5.406000,5.4144,2.0961,1.5069,5.998
5.407000,5.3054,1.8454,1.3931,5.787
5.407000,5.1272,1.5993,1.2853,5.522
5.408000,4.9059,1.3363,1.1884,5.222
5.412000,4.6520,1.0854,1.1026,4.903
5.416000,4.3968,0.8419,1.0208,4.592
5.421000,4.1593,0.6247,0.9429,4.310
5.429000,3.9240,0.4107,0.8978,4.046
5.431000,3.7026,0.2091,0.8277,3.800
5.437000,3.5094,0.0247,0.7594,3.591
5.441000,3.3228,-0.1402,0.7289,3.405
5.446000,3.1644,-0.2928,0.6953,3.253
5.452000,3.0336,-0.4170,0.6587,3.132
5.456000,2.9458,-0.5239,0.5809,3.048
5.461000,2.8812,-0.6092,0.4359,2.977
5.466000,2.8682,-0.7089,0.2695,2.967
5.471000,2.8518,-0.8208,0.1012,2.969
5.477000,2.8289,-0.9476,-0.0543,2.984
5.482000,2.7552,-1.0691,-0.1916,2.962
5.486000,2.5966,-1.1595,-0.3126,2.861
5.495000,2.3532,-1.2569,-0.3500,2.691
5.498000,2.0731,-1.3184,-0.3063,2.476
5.501000,1.7439,-1.3423,-0.2083,2.211
5.540000,1.4223,-1.3420,-0.1641,1.962
5.542000,1.0792,-1.3466,-0.1762,1.735
5.543000,0.7485,-1.3631,-0.1920,1.567
5.543000,0.4518,-1.4057,-0.2307,1.494
5.543000,0.1867,-1.4265,-0.2632,1.463
5.544000,-0.0139,-1.4982,-0.2130,1.513
5.544000,-0.1774,-1.5740,-0.2220,1.599
5.545000,-0.3711,-1.6809,-0.3046,1.748
5.546000,-0.6400,-1.8398,-0.4536,2.000
5.552000,-0.9668,-2.0356,-0.6182,2.337
5.557000,-1.2921,-2.2372,-0.7550,2.692
5.561000,-1.5718,-2.4216,-0.8397,3.007
5.566000,-1.8063,-2.6038,-0.8771,3.288
5.571000,-1.9936,-2.7410,-0.8915,3.505
5.576000,-2.1360,-2.8572,-0.9168,3.683
5.581000,-2.2551,-2.9885,-0.9628,3.866
5.588000,-2.3824,-3.1189,-1.0630,4.066
5.593000,-2.5431,-3.2421,-1.1935,4.290
5.598000,-2.7187,-3.3466,-1.3397,4.515
5.602000,-2.8995,-3.4562,-1.4704,4.745
5.613000,-3.0928,-3.5926,-1.5517,4.988
5.614000,-3.2893,-3.7680,-1.5984,5.251
5.617000,-3.5140,-3.9832,-1.6569,5.564
5.622000,-3.7739,-4.2475,-1.7562,5.947
5.667000,-4.0808,-4.5625,-1.8918,6.407
5.668000,-4.3793,-4.8726,-2.0395,6.862
5.669000,-4.6840,-5.1700,-2.1081,7.288
5.669000,-4.9785,-5.4217,-2.0690,7.646
5.670000,-5.2262,-5.6478,-1.9396,7.936
5.671000,-5.4346,-5.8510,-1.7803,8.182
5.671000,-5.6156,-6.0196,-1.6206,8.390
5.672000,-5.7790,-6.1798,-1.4938,8.592
5.673000,-5.9323,-6.3177,-1.4240,8.782
5.674000,-6.0871,-6.4486,-1.4419,8.984
5.681000,-6.2343,-6.6065,-1.4848,9.204
5.682000,-6.3430,-6.7670,-1.5190,9.399
5.687000,-6.4325,-6.9420,-1.5252,9.586
5.691000,-6.5460,-7.1484,-1.5178,9.811
5.696000,-6.6882,-7.3540,-1.5013,10.053
5.702000,-6.8473,-7.5350,-1.4638,10.286
5.713000,-7.0044,-7.7034,-1.4121,10.507
5.715000,-7.1641,-7.8661,-1.3583,10.726
5.717000,-7.3075,-8.0085,-1.3361,10.923
5.758000,-7.4560,-8.1139,-1.3645,11.104
5.759000,-7.5929,-8.1887,-1.3977,11.254
5.760000,-7.7088,-8.2878,-1.4022,11.405
5.760000,-7.7915,-8.4012,-1.3281,11.535
5.761000,-7.8241,-8.4859,-0.8417,11.573
5.761000,-7.7459,-8.5089,0.2232,11.509
5.761000,-7.2202,-8.2949,2.0514,11.187
5.762000,-6.3311,-8.0455,0.9194,10.279
5.762000,-6.4258,-8.0430,-0.1500,10.296
5.768000,-6.9894,-8.1987,-1.2015,10.840
5.772000,-7.6170,-8.4449,-1.8388,11.520
5.777000,-7.9511,-8.6187,-2.1164,11.916
5.781000,-7.7894,-8.6289,-1.5180,11.723
5.786000,-7.2156,-8.5107,-1.3077,11.234
5.792000,-6.6881,-8.4218,-1.3941,10.844
5.798000,-6.3413,-8.4705,-1.2207,10.651
5.803000,-6.0096,-8.6210,-0.8033,10.540
5.816000,-5.6139,-8.8312,-0.4278,10.473
5.818000,-5.2234,-9.0417,-0.2306,10.445
5.818000,-4.9151,-9.1547,-0.1389,10.392
5.879000,-4.6817,-9.1876,-0.0709,10.312
5.880000,-4.4442,-9.1575,-0.0003,10.179
5.881000,-4.1424,-9.0977,0.0721,9.997
5.882000,-3.7838,-9.0673,0.1242,9.826
5.882000,-3.4258,-9.0305,0.1727,9.660
5.882000,-3.1448,-9.0094,0.2267,9.545
5.883000,-2.9909,-9.0159,0.2501,9.502
5.883000,-2.9325,-9.0500,0.1901,9.515
5.884000,-2.9068,-9.0865,0.0155,9.540
5.884000,-2.9117,-9.1120,-0.2491,9.569
5.885000,-2.9226,-9.0939,-0.5602,9.568
5.885000,-2.9033,-9.0034,-0.9055,9.503
5.887000,-2.7914,-8.8209,-1.2490,9.336
5.887000,-2.5672,-8.5579,-1.5617,9.070
5.892000,-2.2676,-8.2495,-1.8529,8.754
5.898000,-1.9090,-7.8858,-2.1200,8.386
5.903000,-1.4984,-7.4623,-2.3416,7.963
5.911000,-1.0239,-6.9867,-2.5200,7.498
5.913000,-0.4717,-6.4739,-2.6957,7.029
5.917000,0.1298,-5.9455,-2.8349,6.588
5.948000,0.8149,-5.4201,-2.9226,6.211
5.949000,1.5450,-4.8906,-2.9993,5.941
5.949000,2.3052,-4.3721,-2.9879,5.776
5.949000,3.0561,-3.8511,-2.9025,5.709
5.950000,3.7807,-3.3590,-2.7499,5.757
5.950000,4.4406,-2.9052,-2.4914,5.862
5.953000,4.9974,-2.5016,-2.1438,5.986
5.957000,5.4289,-2.1440,-1.7363,6.090
5.963000,5.7250,-1.8256,-1.3074,6.150
5.967000,5.8862,-1.5315,-0.8839,6.146
5.972000,5.9040,-1.2678,-0.4826,6.058
5.977000,5.7768,-1.0262,-0.0848,5.868
5.982000,5.5716,-0.8189,0.3260,5.641
5.987000,5.3029,-0.6430,0.7109,5.389
5.993000,5.0022,-0.4603,1.0525,5.132
5.998000,4.6654,-0.2724,1.3624,4.868
6.003000,4.2752,-0.0632,1.6139,4.570
6.009000,3.8179,0.1370,1.7901,4.219
6.014000,3.3443,0.3476,1.8863,3.855
6.018000,2.8641,0.5739,1.9001,3.485
6.026000,2.4093,0.7878,1.8583,3.143
6.028000,1.9697,1.0014,1.7920,2.845
6.032000,1.5533,1.2009,1.6707,2.578
6.083000,1.1817,1.3819,1.5709,2.403
6.084000,0.8836,1.5829,1.4955,2.350
6.085000,0.6590,1.7944,1.4251,2.384
6.085000,0.5035,2.0167,1.3454,2.476
6.085000,0.4163,2.2373,1.2563,2.599
6.086000,0.3402,2.4470,1.1387,2.720
6.086000,0.3109,2.6529,1.0096,2.855
6.086000,0.3089,2.8478,0.9146,3.007
6.086000,0.3129,3.0102,0.8201,3.136
6.087000,0.3367,3.1591,0.7212,3.258
6.096000,0.3564,3.2994,0.6374,3.379
6.097000,0.3841,3.4288,0.5444,3.493
6.098000,0.3936,3.5615,0.4611,3.613
6.108000,0.3875,3.6786,0.3635,3.717
6.109000,0.3758,3.8139,0.2611,3.841
6.113000,0.3388,3.9310,0.1587,3.949
6.119000,0.2649,4.0159,0.0610,4.025
6.125000,0.1711,4.0641,-0.0031,4.068
6.129000,0.0911,4.0781,-0.0317,4.079
6.132000,0.0254,4.0556,-0.0367,4.056
6.138000,-0.0018,4.0138,-0.0161,4.014
6.184000,-0.0360,3.9858,-0.0131,3.986
6.185000,-0.0888,3.9624,-0.0399,3.964
6.185000,-0.1479,3.9700,-0.0820,3.974
6.185000,-0.1846,3.9967,-0.1082,4.002
6.186000,-0.1770,4.0355,-0.1209,4.041
6.186000,-0.1471,4.0813,-0.1034,4.085
6.186000,-0.1212,4.1174,-0.0534,4.120
6.186000,-0.0945,4.1222,0.0051,4.123
6.187000,-0.0480,4.1028,0.1031,4.104
6.190000,0.0062,4.0710,0.2115,4.077
6.194000,0.0708,4.0270,0.2919,4.038
6.199000,0.1310,3.9584,0.3084,3.973
6.203000,0.1821,3.8535,0.2732,3.867
6.209000,0.2337,3.7221,0.1845,3.734
6.213000,0.2833,3.5930,0.0809,3.605
6.218000,0.3480,3.4619,-0.0345,3.479
6.223000,0.4584,3.3309,-0.1184,3.364
6.229000,0.6196,3.1957,-0.1873,3.261
6.234000,0.8363,3.0609,-0.2318,3.182
6.238000,1.0890,2.9313,-0.2612,3.138
6.243000,1.3920,2.8260,-0.2588,3.161
6.248000,1.7188,2.7210,-0.2006,3.225
6.253000,2.0592,2.6159,-0.1132,3.331
6.259000,2.4037,2.5133,-0.0086,3.478
6.264000,2.7427,2.4224,0.1080,3.661
6.268000,3.0689,2.3264,0.2317,3.858
6.315000,3.3800,2.2301,0.3218,4.062
6.316000,3.6804,2.1309,0.3925,4.271
6.318000,3.9676,2.0097,0.4440,4.470
6.318000,4.2394,1.8929,0.4572,4.665
6.319000,4.4955,1.7732,0.4513,4.854
6.319000,4.7169,1.6700,0.4457,5.024
6.321000,4.8966,1.5856,0.4427,5.166
6.323000,5.0438,1.5438,0.4186,5.291
6.324000,5.1897,1.5185,0.3881,5.421
6.325000,5.3175,1.5025,0.3488,5.537
6.325000,5.4462,1.5077,0.3129,5.660
6.330000,5.5758,1.5198,0.2779,5.786
6.333000,5.7176,1.5554,0.2370,5.930
6.339000,5.8548,1.5858,0.1951,6.069
6.344000,5.9752,1.6252,0.1521,6.194
6.349000,6.0931,1.6546,0.1057,6.315
6.354000,6.1915,1.6501,0.0657,6.408
6.359000,6.2777,1.6380,0.0587,6.488
6.364000,6.3775,1.5969,0.0869,6.575
6.367000,6.4792,1.5075,0.1670,6.654
6.410000,6.5849,1.3436,0.2916,6.727
6.410000,6.6757,1.1410,0.4605,6.788
6.411000,6.7467,0.8759,0.6687,6.836
6.411000,6.7744,0.5697,0.8704,6.854
6.412000,6.7492,0.2488,1.0725,6.838
6.412000,6.6812,-0.0580,1.2988,6.807
6.412000,6.6068,-0.2885,1.4894,6.779
6.412000,6.5286,-0.5098,1.6583,6.755
6.413000,6.4397,-0.7767,1.8605,6.748
6.419000,6.3982,-1.0797,2.0716,6.811
6.426000,6.4330,-1.4017,2.2698,6.964
6.429000,6.4891,-1.7598,2.4644,7.161
6.434000,6.5426,-2.1179,2.6315,7.363
6.438000,6.5673,-2.4139,2.7662,7.524
6.443000,6.5756,-2.6215,2.8562,7.633
6.448000,6.5675,-2.7074,2.8730,7.663
6.453000,6.5789,-2.6381,2.8381,7.635
6.458000,6.6049,-2.4045,2.7371,7.543
6.463000,6.6594,-2.0260,2.5535,7.414
6.468000,6.6772,-1.5101,2.3257,7.230
6.475000,6.6365,-0.9266,2.0778,7.016
6.478000,6.5609,-0.3091,1.7929,6.809
6.483000,6.4578,0.2874,1.4882,6.633
6.534000,6.3605,0.8343,1.2117,6.528
6.535000,6.3166,1.3364,0.9589,6.527
6.536000,6.3881,1.8296,0.7562,6.688
6.537000,6.5356,2.3184,0.5869,6.959
6.538000,6.7175,2.7664,0.4414,7.278
6.538000,6.8993,3.1469,0.3102,7.589
6.538000,7.0780,3.4332,0.1598,7.868
6.539000,7.2740,3.6226,-0.0168,8.126
6.540000,7.4632,3.7079,-0.1953,8.336
6.541000,7.6093,3.6914,-0.3873,8.466
6.542000,7.6689,3.5276,-0.5778,8.461
6.546000,7.6856,3.2313,-0.7448,8.370
6.549000,7.6283,2.8384,-0.8927,8.188
6.554000,7.4964,2.4048,-1.0354,7.940
6.558000,7.2638,1.9928,-1.1581,7.621
6.563000,6.9243,1.6290,-1.1960,7.213
6.568000,6.5266,1.3088,-1.1662,6.758
6.575000,6.0503,1.0299,-1.0526,6.227
6.578000,5.5649,0.7657,-0.8461,5.681
6.584000,5.1010,0.5190,-0.5672,5.159
6.621000,4.6704,0.2678,-0.2145,4.683
6.623000,4.2709,0.0166,0.1894,4.275
6.624000,3.8957,-0.1944,0.5787,3.943
6.624000,3.5443,-0.3585,0.9098,3.677
6.624000,3.1966,-0.4871,1.1464,3.431
6.625000,2.8783,-0.5762,1.3434,3.228
6.625000,2.5606,-0.6615,1.4984,3.040
6.626000,2.2460,-0.7624,1.5970,2.859
6.629000,2.1427,-0.8788,1.6589,2.849
6.634000,1.6901,-1.0541,1.6724,2.601
6.639000,1.4641,-1.2871,1.6283,2.540
6.644000,1.2726,-1.5326,1.5269,2.510
6.649000,1.1014,-1.7472,1.4214,2.507
6.655000,0.9219,-1.8783,1.2976,2.462
6.660000,0.6786,-1.9669,1.0989,2.353
6.664000,0.3511,-2.0308,0.8860,2.243
6.668000,-0.0034,-2.0890,0.7407,2.216
6.675000,-0.3366,-2.1149,0.6870,2.249
6.679000,-0.6367,-2.1205,0.7246,2.330
6.683000,-0.9345,-2.1393,0.8625,2.489
6.738000,-1.2207,-2.1553,0.9468,2.652
6.739000,-1.5589,-2.1790,0.9208,2.833
6.739000,-1.9042,-2.2106,0.8541,3.040
6.739000,-2.2086,-2.2427,0.7831,3.244
6.740000,-2.4364,-2.2798,0.7248,3.414
6.740000,-2.6265,-2.3730,0.6386,3.597
6.740000,-2.8047,-2.5039,0.5373,3.798
6.741000,-2.9977,-2.6325,0.4471,4.015
6.741000,-3.1864,-2.7155,0.3395,4.200
6.741000,-3.3494,-2.7768,0.2194,4.356
6.742000,-3.4867,-2.8642,0.1013,4.513
6.745000,-3.6131,-2.9809,-0.0463,4.684
6.749000,-3.7300,-3.1107,-0.2257,4.862
6.756000,-3.8378,-3.2566,-0.4560,5.054
6.760000,-3.9820,-3.4255,-0.6987,5.299
6.765000,-4.1460,-3.5835,-0.9317,5.559
6.770000,-4.3228,-3.7192,-1.1406,5.815
6.776000,-4.4733,-3.8259,-1.2993,6.028
6.779000,-4.5956,-3.9091,-1.4319,6.201
6.784000,-4.7086,-3.9806,-1.5340,6.354
6.791000,-4.7910,-4.0621,-1.6061,6.483
6.796000,-4.8545,-4.1322,-1.6508,6.585
6.799000,-4.9092,-4.2250,-1.6877,6.693
6.804000,-4.9687,-4.3249,-1.7126,6.806
6.854000,-5.0118,-4.4375,-1.7065,6.908
6.855000,-5.0719,-4.5795,-1.6865,7.038
6.856000,-5.1490,-4.7652,-1.6650,7.211
6.856000,-5.2672,-4.9758,-1.6421,7.430
6.857000,-5.4162,-5.1979,-1.6277,7.681
6.857000,-5.5866,-5.4342,-1.6077,7.958
6.857000,-5.7713,-5.6725,-1.5749,8.244
6.858000,-5.9679,-5.8885,-1.5339,8.523
6.858000,-6.1789,-6.1063,-1.4703,8.811
6.858000,-6.4213,-6.3259,-1.4197,9.125
6.859000,-6.6613,-6.5197,-1.3701,9.421
6.865000,-6.9015,-6.7188,-1.3477,9.726
6.870000,-7.1059,-6.8771,-1.3955,9.987
6.876000,-7.3252,-7.0590,-1.4768,10.280
6.880000,-7.5545,-7.2689,-1.5389,10.596
6.885000,-7.7600,-7.4696,-1.6106,10.891
6.889000,-7.9418,-7.6273,-1.6829,11.139
6.895000,-8.1045,-7.7510,-1.7797,11.355
6.905000,-8.2241,-7.8594,-1.8487,11.525
6.906000,-8.2864,-7.9595,-1.8781,11.642
6.910000,-8.2672,-8.0607,-1.8729,11.697
6.914000,-8.1931,-8.1916,-1.8474,11.732
6.919000,-8.0928,-8.3690,-1.7613,11.774
6.966000,-7.9422,-8.5711,-1.6530,11.802
6.968000,-7.7462,-8.8099,-1.5055,11.827
6.969000,-7.5430,-9.0540,-1.3212,11.858
6.970000,-7.3496,-9.2822,-1.1018,11.891
6.972000,-7.1417,-9.5113,-0.8426,11.924
6.973000,-6.8763,-9.7245,-0.5556,11.923
6.974000,-6.5554,-9.8885,-0.2509,11.867
6.975000,-6.1836,-10.0321,0.0137,11.785
6.978000,-5.7461,-10.1601,0.2240,11.675
6.978000,-5.2195,-10.2883,0.4068,11.544
6.979000,-4.6560,-10.4402,0.6503,11.450
6.981000,-4.0841,-10.5663,0.9327,11.366
6.985000,-3.5178,-10.6382,1.1987,11.269
6.991000,-2.9406,-10.6305,1.4462,11.124
6.995000,-2.3162,-10.5458,1.6659,10.925
7.001000,-1.6527,-10.3938,1.8344,10.683
7.006000,-0.9527,-10.2085,1.9399,10.435
7.011000,-0.2358,-9.9981,1.9805,10.195
7.016000,0.4570,-9.8210,1.9377,10.021
7.020000,1.0731,-9.6577,1.7805,9.879
7.025000,1.5922,-9.4505,1.5388,9.706
7.031000,2.0144,-9.1485,1.2179,9.446
7.035000,2.3371,-8.7640,0.8640,9.111
7.069000,2.6034,-8.3138,0.4629,8.724
7.070000,3.0002,-7.8785,0.0531,8.431
7.071000,3.4852,-7.4124,-0.3483,8.198
7.071000,3.9313,-6.8914,-0.7147,7.966
7.071000,4.3072,-6.2849,-1.0843,7.696
7.072000,4.6222,-5.6049,-1.4594,7.410
7.072000,4.9001,-4.8923,-1.8018,7.155
7.075000,5.1701,-4.1562,-2.0925,6.956
7.081000,5.4237,-3.4434,-2.3127,6.828
7.085000,5.6542,-2.7437,-2.4650,6.751
7.091000,5.8661,-2.0837,-2.5064,6.711
7.095000,6.0735,-1.4755,-2.3991,6.695
7.100000,6.2644,-0.9146,-2.1966,6.701
7.109000,6.4125,-0.4054,-1.9518,6.715
7.110000,6.4998,0.0385,-1.6579,6.708
7.114000,6.5192,0.4270,-1.2723,6.656
7.119000,6.4755,0.7719,-0.8530,6.577
7.125000,6.3424,1.0806,-0.4364,6.449
7.129000,6.1273,1.3317,-0.0177,6.270
7.134000,5.8439,1.5343,0.4243,6.057
7.174000,5.5092,1.6624,0.8942,5.824
7.176000,5.1260,1.7091,1.3575,5.571
7.176000,4.6851,1.7247,1.7780,5.300
7.177000,4.1842,1.6905,2.1435,4.996
7.177000,3.6549,1.6572,2.4782,4.717
7.178000,3.1063,1.6294,2.7751,4.473
7.178000,2.5174,1.6148,3.0415,4.266
7.180000,1.9219,1.5994,3.2679,4.115
7.181000,1.3801,1.5955,3.4374,4.033
7.184000,0.9165,1.5630,3.5283,3.966
7.190000,0.5198,1.5766,3.4999,3.874
7.194000,0.1874,1.6411,3.3476,3.733
7.201000,-0.1021,1.7328,3.0744,3.531
7.205000,-0.3582,1.8282,2.7360,3.310
7.210000,-0.5881,1.9468,2.3543,3.111
7.217000,-0.7841,2.0817,1.9491,2.958
7.221000,-0.9323,2.2187,1.5300,2.852
7.225000,-1.0324,2.3532,1.1261,2.806
7.231000,-1.0988,2.4756,0.7637,2.814
7.234000,-1.1411,2.5934,0.4117,2.863
7.292000,-1.2048,2.7183,0.0652,2.974
7.293000,-1.2657,2.8555,-0.2658,3.135
7.294000,-1.3265,3.0046,-0.5575,3.331
7.294000,-1.4134,3.1659,-0.8290,3.565
7.294000,-1.5166,3.3299,-1.0827,3.816
7.295000,-1.6193,3.4989,-1.2997,4.069
7.295000,-1.7311,3.6657,-1.4776,4.315
7.296000,-1.8421,3.8375,-1.5881,4.543
7.296000,-1.9501,4.0023,-1.6888,4.762
7.296000,-2.0262,4.1600,-1.7752,4.956
7.297000,-2.0704,4.3059,-1.8448,5.122
7.297000,-2.0994,4.4424,-1.8717,5.258
7.300000,-2.0845,4.5575,-1.8608,5.346
7.305000,-2.0666,4.6555,-1.8126,5.407
7.310000,-2.0745,4.7531,-1.7276,5.466
7.315000,-2.1082,4.8501,-1.6634,5.544
7.320000,-2.1702,4.9178,-1.6343,5.618
7.326000,-2.2509,4.9274,-1.5852,5.644
7.330000,-2.3235,4.8937,-1.5161,5.625
7.334000,-2.3669,4.8142,-1.4797,5.565
7.341000,-2.3953,4.7011,-1.4686,5.477
7.345000,-2.4229,4.5760,-1.4730,5.383
7.350000,-2.4306,4.4700,-1.4688,5.296
7.402000,-2.4254,4.3764,-1.4416,5.207
7.404000,-2.3933,4.2541,-1.4149,5.082
7.405000,-2.2813,4.1012,-1.4224,4.904
7.405000,-2.0871,3.9274,-1.4659,4.683
7.406000,-1.8444,3.7662,-1.4758,4.446
7.406000,-1.5509,3.6273,-1.3944,4.184
7.407000,-1.2551,3.4697,-1.2863,3.907
7.407000,-1.0117,3.2479,-1.1468,3.590
7.408000,-0.8299,2.9672,-1.0047,3.241
7.408000,-0.6304,2.6803,-0.8744,2.889
7.409000,-0.3630,2.3850,-0.7224,2.518
7.412000,-0.0106,2.1052,-0.5486,2.175
7.417000,0.4237,1.8429,-0.3463,1.922
7.422000,0.8853,1.6079,-0.1705,1.843
7.426000,1.3882,1.3904,-0.0021,1.965
7.431000,1.9154,1.2283,0.1707,2.282
7.437000,2.4573,1.0809,0.3047,2.702
7.441000,2.9940,0.9478,0.4193,3.168
7.446000,3.5323,0.8240,0.5171,3.664
7.451000,4.0815,0.7405,0.6386,4.197
7.459000,4.6245,0.6538,0.7598,4.732
7.462000,5.1490,0.5470,0.8828,5.253
7.465000,5.6285,0.4271,0.9883,5.731
7.471000,6.0789,0.3510,1.0619,6.181
7.518000,6.5000,0.2780,1.0678,6.593
7.518000,6.8437,0.2008,1.0396,6.925
7.519000,7.1099,0.1384,0.9966,7.181
7.519000,7.3225,0.1365,0.8986,7.379
7.519000,7.4834,0.1637,0.7745,7.525
7.520000,7.6047,0.2034,0.6915,7.639
7.520000,7.6430,0.2435,0.5565,7.667
7.521000,7.6609,0.3083,0.4031,7.678
7.521000,7.6752,0.3475,0.2916,7.689
7.521000,7.6979,0.3902,0.2315,7.711
7.528000,7.7295,0.4530,0.1676,7.745
7.532000,7.7770,0.5169,0.0928,7.795
7.537000,7.8450,0.5603,0.0360,7.865
7.542000,7.9121,0.5451,0.0258,7.931
7.547000,7.9567,0.4426,0.0504,7.969
7.552000,8.0008,0.2555,0.1261,8.006
7.559000,8.0279,-0.0090,0.1931,8.030
7.562000,8.0286,-0.3315,0.2729,8.040
7.566000,7.9937,-0.6305,0.3369,8.026
7.614000,7.9542,-0.8463,0.3899,8.009
7.616000,7.8268,-1.0217,0.4321,7.905
7.617000,7.6928,-1.1498,0.4756,7.793
7.617000,7.5454,-1.2685,0.5754,7.673
7.617000,7.3968,-1.3828,0.7336,7.561
7.618000,7.2351,-1.5262,0.9260,7.452
7.618000,7.0462,-1.6985,1.1190,7.334
7.619000,6.8358,-1.7752,1.2331,7.169
7.619000,6.6013,-1.8209,1.2877,6.968
7.621000,6.3336,-1.8355,1.3020,6.722
7.622000,6.0670,-1.7898,1.2499,6.448
7.626000,5.8157,-1.6647,1.1939,6.166
7.632000,5.6473,-1.4264,1.1580,5.939
7.636000,5.5779,-1.0801,1.1374,5.794
7.643000,5.5880,-0.6715,1.1633,5.747
7.646000,5.6458,-0.2394,1.2448,5.786
7.653000,5.6838,0.2132,1.3769,5.852
7.656000,5.6894,0.6643,1.5445,5.933
7.661000,5.6771,1.0681,1.7085,6.024
7.665000,5.6608,1.4193,1.8685,6.128
7.670000,5.6331,1.6937,2.0049,6.214
7.684000,5.6128,1.9031,2.1292,6.298
7.686000,5.5924,2.0518,2.2222,6.358
7.686000,5.5479,2.1517,2.2550,6.364
7.733000,5.4623,2.1860,2.2324,6.293
7.734000,5.3523,2.1999,2.1547,6.175
7.734000,5.2203,2.1623,2.0242,6.002
7.735000,5.0593,2.0805,1.8413,5.772
7.735000,4.8835,1.9377,1.6160,5.497
7.735000,4.7465,1.7348,1.3749,5.237
7.735000,4.6243,1.4862,1.1091,4.982
7.736000,4.5098,1.2472,0.7881,4.745
7.736000,4.3718,1.0513,0.4797,4.522
7.736000,4.1907,0.8960,0.2106,4.291
7.742000,3.9628,0.7771,-0.0117,4.038
7.745000,3.6954,0.6610,-0.1828,3.758
7.751000,3.4125,0.5764,-0.3240,3.476
7.757000,3.1649,0.4900,-0.4190,3.230
7.762000,2.9616,0.4516,-0.4796,3.034
7.766000,2.7916,0.4379,-0.5110,2.872
7.771000,2.6257,0.4459,-0.5586,2.721
7.776000,2.4612,0.4587,-0.5935,2.573
7.781000,2.2813,0.4592,-0.6135,2.407
7.786000,2.0862,0.4210,-0.6616,2.229
7.794000,1.8779,0.3677,-0.7403,2.052
7.795000,1.6670,0.2980,-0.8636,1.901
7.802000,1.4314,0.2185,-0.9782,1.747
7.847000,1.1758,0.1364,-1.0599,1.589
7.848000,0.9030,0.0423,-1.1088,1.431
7.848000,0.6039,-0.0662,-1.1397,1.291
7.850000,0.2999,-0.1868,-1.1745,1.227
7.853000,0.0069,-0.3205,-1.2373,1.278
7.856000,-0.2325,-0.4438,-1.3162,1.408
7.857000,-0.4633,-0.5418,-1.3896,1.562
7.858000,-0.6783,-0.6242,-1.4551,1.723
7.858000,-0.8757,-0.6893,-1.4819,1.854
7.859000,-1.0901,-0.7382,-1.4344,1.947
7.860000,-1.3341,-0.8076,-1.3991,2.095
7.861000,-1.6024,-0.8998,-1.3430,2.276
7.866000,-1.8663,-0.9978,-1.2688,2.468
7.873000,-2.1326,-1.0800,-1.1769,2.664
7.877000,-2.3827,-1.1686,-1.0599,2.858
7.881000,-2.6419,-1.2669,-0.9254,3.073
7.887000,-2.9560,-1.3899,-0.8429,3.374
7.892000,-3.2532,-1.5325,-0.8122,3.687
7.897000,-3.4950,-1.6701,-0.7946,3.954
7.902000,-3.6962,-1.7940,-0.7640,4.179
7.908000,-3.8969,-1.9435,-0.7610,4.421
7.912000,-4.1020,-2.1091,-0.8167,4.684
7.916000,-4.2684,-2.2569,-0.8735,4.907
7.966000,-4.3483,-2.3915,-0.9027,5.044
7.967000,-4.3991,-2.5031,-0.9450,5.149
7.967000,-4.4405,-2.6021,-0.9838,5.240
7.967000,-4.4985,-2.7137,-1.0018,5.348
7.968000,-4.5922,-2.8741,-1.0233,5.513
7.968000,-4.6930,-3.0422,-1.0412,5.689
7.968000,-4.7336,-3.2031,-1.0484,5.811
7.969000,-4.7288,-3.3333,-1.0571,5.881
7.969000,-4.6950,-3.4507,-1.0500,5.921
7.970000,-4.6232,-3.5871,-0.9960,5.936
7.971000,-4.5350,-3.7280,-0.9213,5.942
7.977000,-4.4306,-3.8784,-0.8356,5.947
7.982000,-4.3315,-4.0598,-0.7295,5.981
7.986000,-4.2641,-4.2559,-0.6198,6.056
7.992000,-4.1757,-4.4243,-0.5326,6.107
7.996000,-4.0903,-4.5681,-0.4510,6.148
8.003000,-3.9695,-4.7108,-0.4303,6.175
8.009000,-3.8425,-4.8380,-0.3790,6.190
8.012000,-3.7166,-4.9905,-0.2585,6.228
8.016000,-3.5703,-5.1316,-0.1403,6.253
8.064000,-3.4015,-5.2735,-0.0219,6.275
8.065000,-3.2055,-5.4187,0.0873,6.296
8.065000,-2.9682,-5.5120,0.1757,6.263
8.065000,-2.6827,-5.6184,0.2196,6.230
8.066000,-2.3923,-5.7493,0.2413,6.232
8.066000,-2.0902,-5.8355,0.2700,6.204
8.066000,-1.7671,-5.8725,0.3299,6.141
8.067000,-1.4376,-5.8918,0.4287,6.080
8.067000,-1.1474,-5.8865,0.5570,6.023
8.067000,-0.8892,-5.8978,0.6809,6.003
8.074000,-0.6511,-5.9397,0.7765,6.026
8.076000,-0.4137,-5.9932,0.8101,6.062
8.081000,-0.1820,-6.0629,0.8011,6.118
8.086000,0.0751,-6.1249,0.7758,6.174
8.091000,0.3410,-6.1335,0.7198,6.185
8.096000,0.5989,-6.0842,0.6519,6.148
8.101000,0.8826,-5.9483,0.6053,6.044
8.111000,1.1443,-5.7503,0.5723,5.891
8.112000,1.3817,-5.5456,0.5668,5.743
8.116000,1.6139,-5.3681,0.6007,5.638
8.156000,1.8289,-5.2567,0.6643,5.605
8.157000,2.0103,-5.1852,0.7449,5.611
8.157000,2.1724,-5.1322,0.8302,5.635
8.158000,2.2796,-5.0952,0.8937,5.653
8.158000,2.3488,-5.0744,0.9231,5.667
8.158000,2.3680,-5.0716,0.8972,5.669
8.159000,2.3468,-5.0913,0.8378,5.668
8.159000,2.3381,-5.0781,0.7855,5.645
8.163000,2.3058,-5.0294,0.7143,5.579
8.166000,2.2571,-4.9164,0.6172,5.445
8.171000,2.2113,-4.7558,0.5038,5.269
8.176000,2.2065,-4.5234,0.4246,5.051
8.182000,2.2237,-4.2651,0.3146,4.820
8.188000,2.2747,-3.9447,0.1981,4.558
8.193000,2.4312,-3.5197,0.1756,4.281
8.198000,2.6547,-2.9816,0.1798,3.996
8.203000,2.8325,-2.4319,0.1556,3.737
8.211000,2.9335,-1.8735,0.1033,3.482
8.212000,3.0127,-1.3117,0.0419,3.286
8.217000,3.1011,-0.7346,-0.0166,3.187
8.271000,3.1771,-0.1885,-0.0719,3.183
8.272000,3.2332,0.3144,-0.1167,3.251
8.273000,3.2933,0.7782,-0.1605,3.388
8.273000,3.3668,1.1856,-0.1747,3.574
8.273000,3.4322,1.5337,-0.1906,3.764
8.274000,3.4509,1.8145,-0.1844,3.903
8.274000,3.4063,2.0278,-0.1370,3.967
8.274000,3.2794,2.1084,-0.0563,3.899
8.274000,3.0538,2.1163,0.0305,3.716
8.275000,2.7016,2.0569,0.1221,3.398
8.275000,2.2493,1.9593,0.2228,2.991
8.277000,1.7382,1.8431,0.3315,2.555
8.282000,1.7257,1.7184,0.4287,2.473
8.286000,0.6811,1.5808,0.5548,1.809
8.293000,0.1242,1.4217,0.6975,1.588
8.298000,-0.4428,1.2485,0.8521,1.575
8.303000,-1.0199,1.0667,1.0188,1.793
8.313000,-1.6023,0.8722,1.2293,2.200
8.314000,-2.1397,0.7064,1.4717,2.691
8.317000,-2.6082,0.5696,1.7394,3.186
8.322000,-2.9817,0.4842,2.0015,3.624
8.378000,-3.2700,0.4189,2.2347,3.983
8.379000,-3.5091,0.3787,2.4107,4.274
8.381000,-3.6994,0.3518,2.5711,4.519
8.381000,-3.8673,0.3331,2.7021,4.730
8.382000,-4.0014,0.3041,2.8265,4.908
8.382000,-4.1018,0.3028,2.9233,5.046
8.383000,-4.1880,0.3006,2.9811,5.149
8.384000,-4.2553,0.2972,3.0005,5.215
8.384000,-4.2873,0.2999,2.9560,5.216
8.385000,-4.2819,0.3105,2.8813,5.170
8.385000,-4.2728,0.3270,2.7939,5.116
8.386000,-4.1906,0.3369,2.6769,4.984
8.389000,-4.0617,0.3640,2.5229,4.795
8.393000,-3.9194,0.3840,2.3313,4.576
8.398000,-3.7756,0.4207,2.0873,4.335
8.402000,-3.6229,0.4815,1.8094,4.078
8.407000,-3.4494,0.5250,1.5456,3.816
8.412000,-3.2455,0.5463,1.3291,3.549
8.417000,-3.1019,0.5616,1.1161,3.344
8.428000,-2.9397,0.5921,0.8518,3.117
8.429000,-2.7901,0.6086,0.6056,2.919
8.432000,-2.6983,0.5899,0.3869,2.789
8.437000,-2.6737,0.5454,0.1786,2.735
8.480000,-2.6925,0.4896,0.0050,2.737
8.481000,-2.7472,0.4060,-0.1390,2.781
8.481000,-2.8210,0.3233,-0.2801,2.853
8.481000,-2.9016,0.2615,-0.4238,2.944
8.482000,-3.0152,0.1989,-0.5319,3.068
8.482000,-3.1689,0.1096,-0.6238,3.232
8.483000,-3.3171,0.0131,-0.6951,3.389
8.483000,-3.4430,-0.0805,-0.7605,3.527
8.483000,-3.5417,-0.1686,-0.8319,3.642
8.489000,-3.6086,-0.2243,-0.8663,3.718
8.494000,-3.6318,-0.2644,-0.8942,3.750
8.501000,-3.6189,-0.2699,-0.8987,3.739
8.502000,-3.5652,-0.2840,-0.8788,3.683
8.508000,-3.4852,-0.2661,-0.8107,3.588
8.513000,-3.3862,-0.2448,-0.7278,3.472
8.518000,-3.2779,-0.2156,-0.6633,3.351
8.525000,-3.1699,-0.1858,-0.6048,3.232
8.531000,-3.0671,-0.1533,-0.5545,3.121
8.532000,-2.9910,-0.1231,-0.5244,3.039
8.537000,-2.9343,-0.0953,-0.5310,2.984
8.583000,-2.8852,-0.0410,-0.5529,2.938
8.584000,-2.8578,0.0037,-0.6048,2.921
8.585000,-2.8402,0.0627,-0.7152,2.930
8.585000,-2.8586,0.1120,-0.8338,2.980
8.586000,-2.9154,0.1442,-0.9130,3.058
8.586000,-2.9935,0.1768,-0.9392,3.142
8.587000,-3.1000,0.1929,-0.8792,3.228
8.588000,-3.2611,0.2095,-0.8630,3.380
8.588000,-3.4382,0.2172,-0.8791,3.555
8.589000,-3.6266,0.2164,-0.8798,3.738
8.592000,-3.8045,0.1998,-0.8561,3.905
8.597000,-3.9314,0.1947,-0.8495,4.027
8.603000,-4.0047,0.2059,-0.8265,4.094
8.608000,-4.0198,0.2194,-0.7970,4.104
8.613000,-3.9384,0.2496,-0.7588,4.019
8.617000,-3.7728,0.3034,-0.6879,3.847
8.622000,-3.5589,0.3447,-0.5795,3.622
8.628000,-3.3565,0.3877,-0.5004,3.416
8.633000,-3.1849,0.4296,-0.4573,3.246
8.639000,-3.0609,0.4345,-0.4303,3.121
8.643000,-2.9824,0.3999,-0.4163,3.038
8.649000,-2.9469,0.3379,-0.4101,2.994
8.652000,-2.9234,0.2537,-0.4159,2.964
8.662000,-2.8835,0.1737,-0.4526,2.924
8.664000,-2.8200,0.0862,-0.5242,2.870
8.667000,-2.7284,-0.0016,-0.5849,2.790
8.728000,-2.6447,-0.1016,-0.6416,2.723
8.730000,-2.5856,-0.2089,-0.7274,2.694
8.730000,-2.5752,-0.3472,-0.8108,2.722
8.731000,-2.5849,-0.4944,-0.8702,2.772
8.731000,-2.6097,-0.6382,-0.9104,2.837
8.731000,-2.6305,-0.7781,-0.9436,2.901
8.732000,-2.6330,-0.8757,-0.9724,2.940
8.732000,-2.6242,-0.9886,-1.0019,2.978
8.733000,-2.5896,-1.0923,-1.0256,2.992
8.733000,-2.5529,-1.1892,-1.0128,2.993
8.734000,-2.5021,-1.2816,-1.0077,2.986
8.734000,-2.4320,-1.3692,-1.0009,2.965
8.735000,-2.3474,-1.4637,-0.9741,2.933
8.739000,-2.2004,-1.5533,-0.9511,2.856
8.743000,-2.0149,-1.6620,-0.8435,2.745
8.749000,-1.8338,-1.7967,-0.7019,2.661
8.754000,-1.6498,-1.9573,-0.5361,2.615
8.761000,-1.3409,-2.1001,-0.4132,2.526
8.763000,-0.9238,-2.1972,-0.2757,2.399
8.768000,-0.3746,-2.2606,-0.1521,2.296
8.814000,0.2994,-2.3004,-0.0377,2.320
8.815000,1.0529,-2.2692,0.0483,2.502
8.816000,1.8688,-2.2084,0.1258,2.896
8.816000,2.7111,-2.1041,0.2288,3.439
8.817000,3.5822,-1.9563,0.3316,4.095
8.817000,4.4170,-1.7947,0.4639,4.790
8.818000,5.1245,-1.6732,0.6165,5.426
8.818000,5.6521,-1.6335,0.7708,5.934
8.818000,6.0069,-1.6757,0.9342,6.306
8.819000,6.2273,-1.7816,1.1086,6.571
8.823000,6.3735,-1.8953,1.2598,6.768
8.829000,6.4648,-1.9828,1.3416,6.894
8.833000,6.5135,-2.0244,1.3201,6.947
8.841000,6.5771,-1.9763,1.2693,6.984
8.844000,6.6723,-1.8262,1.2635,7.032
8.848000,6.7967,-1.5892,1.2762,7.096
8.853000,6.9117,-1.2799,1.3028,7.149
8.859000,7.0221,-0.9225,1.3772,7.215
8.864000,7.1110,-0.5321,1.5086,7.289
8.868000,7.1448,-0.1566,1.6707,7.339
8.876000,7.1259,0.1932,1.8488,7.364
8.878000,7.0876,0.5053,2.0287,7.390
8.884000,7.0276,0.7628,2.1861,7.399
8.939000,6.9601,0.9559,2.2999,7.392
8.940000,6.8849,1.1111,2.3894,7.372
8.940000,6.7921,1.2545,2.4409,7.326
8.941000,6.6361,1.3830,2.4266,7.200
8.941000,6.3879,1.4871,2.3759,6.976
8.941000,6.0593,1.5427,2.3276,6.672
8.942000,5.6409,1.5260,2.2653,6.267
8.942000,5.1591,1.4592,2.1553,5.779
8.942000,4.6142,1.3402,2.0430,5.221
8.943000,4.0112,1.1889,1.9137,4.601
8.943000,3.4029,1.0180,1.7530,3.961
8.944000,2.8016,0.8305,1.5922,3.328
8.948000,2.2409,0.6583,1.4498,2.749
8.953000,1.7354,0.5142,1.2775,2.215
8.959000,1.3165,0.4129,1.1060,1.768
8.964000,0.9675,0.3475,0.9636,1.409
8.968000,0.6715,0.3183,0.8549,1.133
8.976000,0.4358,0.3060,0.7867,0.950
8.979000,0.2581,0.3035,0.7730,0.870
8.983000,0.1240,0.3205,0.8133,0.883
8.988000,0.0215,0.3279,0.8952,0.954
9.045000,-0.0446,0.3208,0.9895,1.041
9.046000,-0.0790,0.3253,1.0745,1.125
9.046000,-0.1059,0.3173,1.1429,1.191
9.047000,-0.1419,0.2915,1.1926,1.236
9.047000,-0.1729,0.2693,1.2352,1.276
9.048000,-0.2035,0.2411,1.2924,1.330
9.048000,-0.2865,0.2282,1.3426,1.392
9.048000,-0.3882,0.2019,1.3783,1.446
9.048000,-0.5421,0.1620,1.3854,1.496
9.049000,-0.7170,0.1114,1.3928,1.570
9.049000,-0.8963,0.0546,1.4219,1.682
9.049000,-1.0844,-0.0221,1.4225,1.789
9.054000,-1.2982,-0.1211,1.4712,1.966
9.058000,-1.5590,-0.2158,1.5582,2.215
9.064000,-1.8332,-0.3011,1.6187,2.464
9.068000,-2.0586,-0.3620,1.7105,2.701
9.076000,-2.2231,-0.4083,1.8285,2.907
9.079000,-2.3626,-0.4421,1.9748,3.111
9.084000,-2.5583,-0.5207,2.1348,3.372
9.092000,-2.7670,-0.5911,2.2679,3.626
9.097000,-2.9315,-0.6387,2.3938,3.838
9.098000,-3.0398,-0.6564,2.5321,4.010
9.105000,-3.1448,-0.6803,2.6925,4.195
9.167000,-3.2416,-0.7152,2.8246,4.359
9.167000,-3.2921,-0.7156,2.8809,4.433
9.168000,-3.3225,-0.7227,2.9071,4.474
9.168000,-3.3620,-0.7290,2.9111,4.507
9.168000,-3.4106,-0.7374,2.8575,4.510
9.169000,-3.4565,-0.7405,2.7422,4.474
9.169000,-3.4905,-0.7623,2.5829,4.409
9.169000,-3.5175,-0.7840,2.4037,4.332
9.170000,-3.5212,-0.8124,2.1721,4.216
9.171000,-3.5015,-0.8598,1.9052,4.078
9.171000,-3.5018,-0.9262,1.6199,3.968
9.171000,-3.5151,-1.0210,1.3238,3.892
9.172000,-3.5389,-1.1226,1.0267,3.852
9.177000,-3.5541,-1.2499,0.7380,3.839
9.180000,-3.5728,-1.3788,0.4964,3.862
9.184000,-3.6164,-1.4803,0.2967,3.919
9.191000,-3.6585,-1.5688,0.1574,3.984
9.194000,-3.6962,-1.6369,0.0588,4.043
9.199000,-3.7273,-1.6826,-0.0164,4.089
9.204000,-3.7394,-1.7369,-0.0736,4.124
9.210000,-3.7349,-1.7929,-0.1061,4.144
9.215000,-3.7113,-1.8505,-0.1384,4.149
9.219000,-3.6875,-1.9220,-0.1757,4.162
9.268000,-3.6536,-1.9784,-0.2116,4.160
9.269000,-3.6264,-2.0533,-0.2536,4.175
9.270000,-3.5673,-2.0987,-0.2973,4.150
9.270000,-3.4908,-2.1361,-0.3354,4.106
9.270000,-3.3968,-2.1801,-0.3704,4.053
9.271000,-3.2974,-2.2284,-0.3976,4.000
9.271000,-3.1902,-2.2810,-0.4098,3.943
9.271000,-3.0658,-2.3384,-0.3994,3.876
9.272000,-2.9434,-2.3958,-0.4144,3.818
9.272000,-2.8588,-2.4653,-0.4305,3.799
9.276000,-2.8003,-2.5491,-0.4715,3.816
9.280000,-2.7726,-2.6546,-0.5298,3.875
9.284000,-2.7734,-2.7622,-0.6101,3.961
9.290000,-2.8099,-2.8670,-0.7069,4.076
9.295000,-2.8824,-2.9881,-0.7957,4.227
9.299000,-2.9955,-3.1202,-0.8764,4.413
9.304000,-3.1086,-3.2628,-0.9298,4.601
9.312000,-3.1930,-3.3870,-0.9772,4.756
9.317000,-3.3038,-3.5095,-1.0541,4.934
9.320000,-3.4098,-3.6082,-1.1392,5.093
9.361000,-3.4486,-3.6735,-1.1966,5.179
9.362000,-3.4562,-3.7459,-1.1980,5.236
9.363000,-3.4708,-3.7944,-1.1986,5.280
9.363000,-3.4492,-3.8045,-1.2319,5.281
9.363000,-3.3845,-3.8222,-1.2522,5.257
9.364000,-3.3006,-3.8617,-1.2380,5.229
9.364000,-3.1831,-3.8585,-1.2592,5.158
9.364000,-3.0679,-3.8705,-1.2939,5.106
9.365000,-2.9815,-3.9193,-1.3373,5.103
9.369000,-2.9477,-3.9977,-1.3869,5.157
9.376000,-2.9302,-4.0311,-1.4791,5.198
9.381000,-2.8933,-4.0556,-1.6160,5.237
9.386000,-2.8609,-4.0995,-1.7137,5.285
9.391000,-2.8497,-4.1534,-1.7651,5.337
9.396000,-2.7996,-4.1644,-1.8374,5.344
9.399000,-2.7349,-4.1832,-1.9709,5.372
9.405000,-2.6794,-4.1998,-2.0963,5.405
9.410000,-2.5803,-4.2095,-2.1754,5.395
9.416000,-2.4304,-4.2075,-2.1846,5.327
9.421000,-2.2318,-4.1986,-2.1387,5.214
9.426000,-2.0280,-4.1863,-2.0381,5.079
9.429000,-1.8785,-4.1971,-1.9548,4.997
9.437000,-1.7738,-4.2189,-1.9032,4.957
9.452000,-1.7137,-4.2495,-1.8590,4.945
9.457000,-1.7030,-4.2934,-1.8082,4.960
9.458000,-1.7031,-4.3620,-1.7721,5.007
9.460000,-1.6830,-4.4580,-1.7170,5.065
9.461000,-1.6090,-4.5784,-1.6289,5.119
9.511000,-1.4544,-4.7109,-1.5274,5.161
9.512000,-1.2048,-4.8363,-1.4271,5.184
9.513000,-0.8935,-4.9542,-1.3472,5.211
9.513000,-0.5472,-5.0394,-1.2900,5.231
9.513000,-0.1612,-5.0631,-1.2817,5.225
9.514000,0.2426,-5.0331,-1.3073,5.206
9.514000,0.6517,-4.9308,-1.3398,5.151
9.514000,1.0633,-4.7784,-1.3408,5.076
9.515000,1.4485,-4.6243,-1.3099,5.020
9.515000,1.7802,-4.5391,-1.2353,5.030
9.515000,2.0441,-4.5708,-1.1456,5.136
9.521000,2.2041,-4.7026,-1.0430,5.297
9.525000,2.2146,-4.9061,-0.9348,5.463
9.530000,2.0738,-5.1233,-0.9002,5.600
9.537000,1.8077,-5.3521,-0.9340,5.726
9.547000,1.4699,-5.5937,-0.9811,5.866
9.548000,1.1276,-5.8378,-1.0346,6.035
9.550000,0.8032,-6.0910,-1.0924,6.240
9.556000,0.5137,-6.3188,-1.1977,6.452
9.602000,0.2742,-6.4656,-1.3436,6.609
9.603000,0.0798,-6.5342,-1.5302,6.711
9.604000,-0.0615,-6.5261,-1.7077,6.746
9.605000,-0.1205,-6.4102,-1.8932,6.685
9.605000,-0.0874,-6.2005,-2.0632,6.535
9.606000,0.0383,-5.8971,-2.2013,6.295
9.606000,0.2583,-5.5034,-2.3313,5.982
9.607000,0.5653,-5.0317,-2.4339,5.618
9.607000,0.9157,-4.4395,-2.4995,5.176
9.608000,1.2610,-3.7756,-2.5251,4.714
9.609000,1.6100,-3.1246,-2.5108,4.320
9.615000,1.9913,-2.5347,-2.4681,4.060
9.619000,2.3792,-2.0432,-2.3919,3.944
9.625000,2.7948,-1.6624,-2.2009,3.927
9.630000,3.1871,-1.3930,-1.9575,3.991
9.637000,3.5170,-1.2287,-1.6930,4.092
9.651000,3.7579,-1.1411,-1.4652,4.192
9.653000,3.9018,-1.1094,-1.3075,4.262
9.656000,3.9773,-1.1263,-1.2507,4.319
9.657000,4.0177,-1.1700,-1.2683,4.373
9.713000,4.0136,-1.2282,-1.3506,4.409
9.714000,3.9580,-1.3007,-1.4977,4.427
9.714000,3.8682,-1.3533,-1.6972,4.436
9.714000,3.7630,-1.3954,-1.9465,4.460
9.715000,3.6286,-1.4122,-2.2312,4.488
9.715000,3.4704,-1.4052,-2.5607,4.536
9.715000,3.3340,-1.3622,-2.8651,4.602
9.716000,3.2220,-1.3090,-3.1755,4.709
9.716000,3.1296,-1.2454,-3.5035,4.860
9.717000,3.0328,-1.1425,-3.8247,5.013
9.717000,2.9124,-0.9855,-4.1004,5.125
9.717000,2.7946,-0.7938,-4.3377,5.221
9.723000,2.6866,-0.5841,-4.4981,5.272
9.725000,2.5477,-0.3800,-4.5915,5.265
9.730000,2.3853,-0.1796,-4.6612,5.239
9.735000,2.2209,-0.0206,-4.7167,5.213
9.742000,2.0619,0.0849,-4.7652,5.193
9.745000,1.9109,0.1157,-4.8355,5.201
9.750000,1.7632,0.0961,-4.9083,5.216
9.766000,1.6073,0.0553,-4.9500,5.205
9.767000,1.4625,0.0148,-4.9561,5.167
9.768000,1.3507,-0.0227,-4.9387,5.120
9.770000,1.3176,-0.0474,-4.9098,5.084
9.824000,1.3557,-0.0571,-4.8839,5.069
9.826000,1.4099,-0.0639,-4.8513,5.052
9.826000,1.4228,-0.0657,-4.7958,5.003
9.827000,1.3779,-0.0479,-4.6790,4.878
9.827000,1.2804,-0.0632,-4.5349,4.713
9.827000,1.1523,-0.0874,-4.3544,4.505
9.827000,1.0177,-0.1276,-4.1474,4.272
9.828000,0.9037,-0.1715,-3.9404,4.046
9.828000,0.8318,-0.1881,-3.7366,3.833
9.829000,0.8117,-0.1606,-3.5550,3.650
9.829000,0.8456,-0.0942,-3.4027,3.507
9.832000,0.8876,-0.0202,-3.2559,3.375
9.835000,0.9400,0.0710,-3.1025,3.243
9.841000,0.9811,0.1859,-2.9624,3.126
9.848000,1.0204,0.2860,-2.8427,3.034
9.851000,1.0481,0.3736,-2.7435,2.961
9.858000,1.0976,0.4533,-2.6913,2.942
9.862000,1.1639,0.5107,-2.6764,2.963
9.865000,1.2131,0.5744,-2.7079,3.022
9.871000,1.2690,0.6489,-2.7570,3.104
9.923000,1.2933,0.7129,-2.8281,3.191
9.924000,1.2980,0.7714,-2.8924,3.263
9.924000,1.2735,0.8125,-2.9519,3.316
9.925000,1.2295,0.8509,-2.9968,3.349
9.925000,1.1781,0.8769,-3.0082,3.348
9.925000,1.0885,0.8980,-2.9692,3.287
9.926000,0.9632,0.9145,-2.9490,3.234
9.926000,0.8407,0.9289,-2.9381,3.194
9.927000,0.6923,0.9726,-2.9001,3.136
9.927000,0.5352,1.0169,-2.8280,3.053
9.927000,0.4078,1.0812,-2.7581,2.990
9.931000,0.3199,1.1609,-2.6995,2.956
9.937000,0.2570,1.2607,-2.6453,2.942
9.941000,0.2502,1.3878,-2.5784,2.939
9.946000,0.2708,1.5327,-2.4769,2.925
9.951000,0.3016,1.6807,-2.3269,2.886
9.958000,0.3381,1.7985,-2.1308,2.809
9.961000,0.3801,1.9122,-1.9103,2.729
9.966000,0.4849,2.0337,-1.6416,2.658
9.977000,0.6044,2.1337,-1.4112,2.629
9.979000,0.6785,2.2146,-1.1497,2.586
9.981000,0.7525,2.2974,-0.8743,2.571
9.985000,0.8214,2.3606,-0.5950,2.569
10.043000,0.8564,2.3798,-0.3142,2.549
10.044000,0.8359,2.3790,-0.1040,2.524
10.044000,0.7198,2.3491,0.0289,2.457
10.044000,0.6254,2.3212,0.1463,2.408
10.044000,0.5747,2.3027,0.2147,2.383
10.045000,0.5317,2.2459,0.2345,2.320
10.045000,0.5254,2.1344,0.2009,2.207
10.045000,0.5750,2.0260,0.1288,2.110
10.045000,0.6972,1.9040,0.0545,2.028
10.046000,0.8657,1.7780,0.0258,1.978
10.046000,1.0686,1.6673,0.0427,1.981
10.046000,1.3273,1.5910,0.0837,2.074
10.052000,1.6394,1.5322,0.1390,2.248
10.055000,1.9543,1.4620,0.2137,2.450
10.061000,2.2643,1.3513,0.3217,2.656
10.067000,2.5263,1.2049,0.4131,2.829
10.071000,2.7808,1.0180,0.5287,3.008
10.075000,3.0541,0.8169,0.7137,3.241
10.081000,3.3076,0.6131,0.9439,3.494
10.085000,3.5174,0.4044,1.1644,3.727
10.139000,3.6665,0.1927,1.3673,3.918
10.140000,3.7673,-0.0215,1.5554,4.076
10.141000,3.8321,-0.2263,1.7308,4.211
10.141000,3.8825,-0.4335,1.9102,4.349
10.141000,3.9404,-0.9012,2.2060,4.605
10.142000,3.9583,-0.8780,2.2209,4.623
10.142000,4.0151,-1.1345,2.3088,4.769
10.143000,4.0707,-1.4262,2.4363,4.954
10.143000,4.1899,-1.7410,2.5839,5.221
10.143000,4.3464,-2.0693,2.6937,5.516
10.144000,4.5163,-2.4517,2.7899,5.847
10.146000,4.7211,-2.8428,2.8652,6.211
10.151000,4.9679,-3.1732,2.8693,6.556
10.158000,5.2255,-3.4214,2.8363,6.860
10.161000,5.4699,-3.5733,2.7568,7.091
10.166000,5.7131,-3.6527,2.6286,7.273
10.175000,5.9982,-3.6406,2.4832,7.443
10.177000,6.3365,-3.5183,2.3331,7.614
10.181000,6.6654,-3.3098,2.1953,7.759
10.186000,6.9748,-3.0752,2.0943,7.905
10.233000,7.2548,-2.8125,2.0830,8.055
10.234000,7.5100,-2.5480,2.1397,8.214
10.234000,7.7160,-2.2726,2.2068,8.341
10.235000,7.8774,-2.0340,2.2508,8.441
10.235000,8.0446,-1.8108,2.3604,8.577
10.235000,8.2385,-1.5697,2.5141,8.755
10.236000,8.4207,-1.3013,2.6396,8.920
10.236000,8.5402,-0.9845,2.7465,9.025
10.237000,8.5947,-0.6099,2.7583,9.047
10.237000,8.6344,-0.1631,2.7353,9.059
10.244000,8.6853,0.3771,2.7779,9.127
10.246000,8.7325,1.0056,2.8355,9.236
10.251000,8.7158,1.6597,2.8937,9.332
10.256000,8.6443,2.3438,2.9711,9.436
10.261000,8.5442,2.9955,3.0483,9.553
10.267000,8.4126,3.6120,3.1629,9.686
10.272000,8.2470,4.1525,3.3095,9.809
10.276000,8.0327,4.5639,3.4540,9.863
10.282000,7.7505,4.8271,3.6005,9.815
10.287000,7.4028,4.9467,3.7150,9.647
10.292000,6.9855,4.9208,3.7326,9.324
10.296000,6.5107,4.7589,3.6249,8.842
10.300000,6.0006,4.4904,3.4137,8.236
10.308000,5.5322,4.1539,3.1405,7.598
10.311000,5.1160,3.7979,2.7942,6.957
10.316000,4.7306,3.4516,2.4163,6.335
10.321000,4.3643,3.1127,2.0125,5.726
10.364000,4.0199,2.8009,1.6243,5.162
10.365000,3.6809,2.5402,1.2929,4.655
10.366000,3.3746,2.3147,1.0210,4.218
10.366000,3.0893,2.1053,0.8255,3.829
10.367000,2.8564,1.9313,0.6797,3.514
10.367000,2.6595,1.7330,0.5975,3.230
10.367000,2.5250,1.5178,0.5930,3.005
10.368000,2.4242,1.2854,0.6488,2.820
10.368000,2.3507,1.0389,0.7309,2.672
10.372000,2.2759,0.7901,0.8511,2.555
10.377000,2.2022,0.5727,1.0067,2.488
10.382000,2.1274,0.4130,1.1928,2.474
10.386000,2.0535,0.2771,1.4329,2.519
10.392000,1.9599,0.1775,1.6811,2.588
10.396000,1.9105,0.1113,1.9323,2.720
10.401000,1.8959,0.0855,2.1887,2.897
10.408000,1.9060,0.1094,2.4524,3.108
10.412000,1.9187,0.1655,2.7087,3.324
10.416000,1.8955,0.2485,2.9260,3.495
10.482000,1.8534,0.3394,3.1284,3.652
10.483000,1.7631,0.3992,3.2940,3.757
10.483000,1.6199,0.4064,3.4037,3.791
10.483000,1.4288,0.3753,3.3783,3.687
10.484000,1.1752,0.3535,3.2115,3.438
10.484000,0.8860,0.3444,2.9452,3.095
10.485000,0.5490,0.3357,2.6281,2.706
10.485000,0.1954,0.3184,2.2899,2.320
10.485000,-0.1410,0.2665,1.9479,1.971
10.486000,-0.4312,0.2236,1.5977,1.670
10.486000,-0.6399,0.2085,1.2853,1.451
10.486000,-0.7785,0.2055,1.0543,1.327
10.487000,-0.9097,0.2165,0.7540,1.201
10.487000,-1.0627,0.2748,0.4022,1.169
10.492000,-1.2326,0.3423,0.0688,1.281
10.498000,-1.3959,0.4308,-0.2030,1.475
10.501000,-1.5517,0.5029,-0.4155,1.683
10.506000,-1.6908,0.5559,-0.5761,1.871
10.512000,-1.8155,0.5730,-0.6491,2.011
10.517000,-1.9044,0.5399,-0.6612,2.087
10.524000,-1.9526,0.4898,-0.6012,2.101
10.528000,-1.9725,0.4149,-0.4936,2.075
10.531000,-1.9920,0.3086,-0.3705,2.050
10.536000,-2.0137,0.1919,-0.2495,2.038
10.588000,-2.0422,0.0334,-0.1455,2.048
10.590000,-2.0892,-0.1308,-0.0589,2.094
10.594000,-2.1766,-0.3083,-0.0115,2.198
10.597000,-2.3154,-0.5365,0.0207,2.377
10.598000,-2.4675,-0.8131,0.0709,2.599
10.599000,-2.6111,-1.1211,0.1364,2.845
10.600000,-2.7674,-1.4507,0.2071,3.131
10.601000,-2.9195,-1.7801,0.2634,3.429
10.602000,-3.0530,-2.1192,0.2905,3.728
10.604000,-3.1579,-2.4334,0.2910,3.997
10.605000,-3.2462,-2.7277,0.2887,4.250
10.606000,-3.3158,-2.9999,0.2932,4.481
10.608000,-3.4048,-3.2522,0.3357,4.720
10.609000,-3.4894,-3.5256,0.3586,4.973
10.613000,-3.5909,-3.8191,0.3981,5.257
10.617000,-3.6686,-4.1450,0.4395,5.553
10.624000,-3.7535,-4.4814,0.5258,5.869
10.628000,-3.8601,-4.8142,0.6425,6.204
10.633000,-4.0313,-5.1526,0.7179,6.581
10.648000,-4.2504,-5.4943,0.7476,6.987
10.651000,-4.4667,-5.8426,0.7276,7.390
10.652000,-4.6374,-6.1688,0.7946,7.758
10.654000,-4.8270,-6.4942,0.8864,8.140
10.709000,-5.0906,-6.8377,0.9146,8.573
10.710000,-5.3849,-7.1795,0.8892,9.018
10.711000,-5.6739,-7.4777,0.8591,9.426
10.711000,-5.8787,-7.6962,0.8366,9.721
10.712000,-5.9302,-7.8158,0.8692,9.849
10.713000,-5.9934,-7.9134,0.9158,9.969
10.713000,-6.0565,-7.9484,0.8546,10.029
10.713000,-6.1245,-7.9686,0.7148,10.076
10.714000,-6.1570,-7.9593,0.5788,10.079
10.714000,-6.1253,-7.9181,0.4802,10.022
10.714000,-6.0439,-7.8907,0.4306,9.949
10.715000,-5.8963,-7.8605,0.4226,9.835
10.717000,-5.6992,-7.8570,0.3745,9.714
10.722000,-5.5177,-7.9161,0.2653,9.653
10.728000,-5.3591,-8.0046,0.1291,9.634
10.733000,-5.2354,-8.0938,-0.0078,9.639
10.739000,-5.1231,-8.1360,-0.1278,9.615
10.744000,-5.0415,-8.1676,-0.2142,9.601
10.748000,-4.9951,-8.2028,-0.2671,9.608
10.752000,-4.9816,-8.2324,-0.3274,9.628
10.807000,-4.9765,-8.2655,-0.4100,9.657
10.809000,-4.9844,-8.2636,-0.5273,9.665
10.811000,-4.9692,-8.1982,-0.6770,9.611
10.813000,-4.9450,-8.0812,-0.8761,9.514
10.814000,-4.9095,-7.9347,-1.1297,9.399
10.815000,-4.8385,-7.7775,-1.4400,9.272
10.815000,-4.7128,-7.6217,-1.7044,9.122
10.817000,-4.6732,-7.4504,-1.9497,9.008
10.818000,-4.5493,-7.2011,-2.2958,8.822
10.819000,-4.3556,-6.8952,-2.7109,8.594
10.820000,-4.1095,-6.5791,-3.0843,8.348
10.822000,-3.8299,-6.2476,-3.4448,8.097
10.823000,-3.4883,-5.8987,-3.7419,7.808
10.824000,-3.0918,-5.5277,-3.9781,7.479
10.829000,-2.6404,-5.1563,-4.1678,7.137
10.832000,-2.1398,-4.7907,-4.3038,6.786
10.838000,-1.5829,-4.4216,-4.3669,6.413
10.844000,-1.0085,-4.0809,-4.3548,6.053
10.848000,-0.4602,-3.7480,-4.2581,5.691
10.853000,0.0283,-3.4258,-4.1562,5.386
10.859000,0.4739,-3.1026,-4.0517,5.125
10.871000,0.8801,-2.7751,-3.9205,4.883
10.872000,1.2519,-2.4528,-3.7654,4.665
10.875000,1.5579,-2.1337,-3.6151,4.478
10.878000,1.8123,-1.8084,-3.4459,4.293
10.882000,1.9911,-1.5059,-3.3152,4.150
10.887000,2.0660,-1.1993,-3.2018,3.995
10.922000,2.0554,-0.9062,-3.1006,3.829
10.923000,1.9191,-0.6595,-3.0117,3.632
10.923000,1.6575,-0.4611,-2.9204,3.389
10.924000,1.2709,-0.2936,-2.8387,3.124
10.924000,0.8273,-0.1489,-2.7523,2.878
10.924000,0.3840,-0.0101,-2.6823,2.710
10.925000,-0.0175,0.1333,-2.5976,2.601
10.927000,-0.4420,0.2913,-2.4951,2.551
10.933000,-0.8102,0.4903,-2.3819,2.563
10.938000,-1.1392,0.6850,-2.2336,2.599
10.942000,-1.4309,0.8736,-2.0647,2.660
10.947000,-1.6761,1.0530,-1.9040,2.747
10.952000,-1.8411,1.2500,-1.7155,2.810
10.958000,-1.9739,1.4070,-1.4896,2.845
10.962000,-2.0552,1.5862,-1.2220,2.869
10.967000,-2.0702,1.7878,-0.9609,2.899
11.018000,-2.0222,1.9867,-0.7161,2.924
11.019000,-1.9591,2.1328,-0.4855,2.936
11.020000,-1.8616,2.2812,-0.2906,2.959
11.020000,-1.6988,2.4124,-0.1218,2.953
11.021000,-1.5261,2.5310,0.0353,2.956
11.022000,-1.3672,2.6351,0.2000,2.975
11.023000,-1.1701,2.7647,0.3458,3.022
11.023000,-0.9632,2.9102,0.4775,3.102
11.024000,-0.7661,3.0452,0.6022,3.197
11.024000,-0.5933,3.1430,0.7292,3.281
11.024000,-0.4226,3.2088,0.7508,3.322
11.028000,-0.2598,3.2112,0.7106,3.299
11.033000,-0.0445,3.2033,0.7520,3.291
11.038000,0.2209,3.1874,0.8318,3.302
11.043000,0.5054,3.1779,0.9088,3.344
11.049000,0.7826,3.1627,0.9401,3.391
11.054000,1.0576,3.1588,0.9592,3.467
11.058000,1.3536,3.1848,0.9804,3.597
11.062000,1.6872,3.2457,0.9969,3.791
11.068000,2.0105,3.3340,1.0228,4.025
11.115000,2.2848,3.4425,1.0679,4.267
11.116000,2.5439,3.5257,1.1174,4.489
11.117000,2.7891,3.6164,1.1879,4.719
11.118000,3.0375,3.6742,1.2625,4.932
11.118000,3.2769,3.7108,1.3602,5.134
11.119000,3.4616,3.6903,1.4734,5.270
11.119000,3.6037,3.6628,1.5779,5.375
11.120000,3.7154,3.5903,1.6713,5.430
11.120000,3.8083,3.4892,1.7556,5.455
11.122000,3.9065,3.3573,1.8141,5.461
11.123000,3.9957,3.2042,1.8370,5.441
11.128000,4.0878,3.0038,1.7910,5.380
11.134000,4.1806,2.7969,1.7172,5.315
11.138000,4.2832,2.5836,1.6278,5.260
11.144000,4.4222,2.3881,1.5137,5.249
11.149000,4.5567,2.2272,1.4014,5.262
11.152000,4.6630,2.1178,1.2866,5.281
11.157000,4.7266,1.9932,1.1767,5.263
11.162000,4.7552,1.8774,1.0768,5.225
11.168000,4.7844,1.7706,0.9893,5.197
11.175000,4.8148,1.6658,0.9214,5.177
11.187000,4.8487,1.5463,0.8614,5.162
11.188000,4.8790,1.3978,0.7996,5.138
11.189000,4.9085,1.2398,0.7479,5.118
11.230000,4.9370,1.1080,0.7115,5.110
11.231000,4.9861,1.0145,0.6733,5.133
11.231000,5.0508,0.9830,0.6407,5.185
11.232000,5.1450,1.0132,0.6470,5.284
11.232000,5.2183,1.0571,0.6632,5.365
11.233000,5.2377,1.0884,0.6387,5.388
11.233000,5.2459,1.0949,0.5808,5.390
11.234000,5.2694,1.0577,0.5038,5.398
11.234000,5.3347,1.0129,0.4319,5.447
11.239000,5.4226,0.9845,0.3628,5.523
11.242000,5.5090,0.9605,0.3065,5.601
11.249000,5.5841,0.9004,0.2438,5.661
11.253000,5.6836,0.7754,0.2324,5.741
11.259000,5.7934,0.5475,0.2890,5.826
11.263000,5.9351,0.2431,0.3847,5.953
11.269000,6.1233,-0.1208,0.5002,6.145
11.274000,6.2599,-0.4627,0.6094,6.306
11.279000,6.3208,-0.7853,0.5857,6.396
11.284000,6.3563,-1.1216,0.6257,6.485
11.300000,6.3073,-1.4548,0.6888,6.509
11.302000,6.2198,-1.6890,0.7510,6.489
11.302000,6.1611,-1.8194,0.8218,6.476
11.304000,6.1480,-1.8915,0.9323,6.500
11.406000,6.1737,-1.9053,1.0511,6.546
11.407000,6.2383,-1.8562,1.1685,6.613
11.407000,6.3464,-1.7204,1.2798,6.699
11.407000,6.4761,-1.4478,1.3561,6.773
11.408000,6.6199,-1.0438,1.3999,6.846
11.408000,6.7152,-0.5612,1.4157,6.886
11.408000,6.7833,-0.0268,1.4180,6.930
11.409000,6.8406,0.5378,1.4470,7.013
11.409000,6.9730,1.1081,1.4904,7.216
11.410000,7.0268,1.6123,1.4741,7.359
11.410000,7.0830,2.0836,1.5316,7.540
11.410000,7.2012,2.5456,1.6697,7.818
11.411000,7.3256,2.9643,1.8300,8.112
11.411000,7.3906,3.3055,1.9931,8.338
11.412000,7.4079,3.5498,2.1486,8.491
11.412000,7.4177,3.7231,2.2793,8.607
11.412000,7.4227,3.8158,2.3725,8.677
11.413000,7.4393,3.8370,2.3898,8.705
11.413000,7.4769,3.7509,2.2976,8.675
11.413000,7.5355,3.5814,2.0894,8.601
11.414000,7.6077,3.3337,1.7734,8.493
11.414000,7.6294,3.0660,1.3869,8.339
11.418000,7.5864,2.8072,1.0054,8.151
11.429000,7.4571,2.5910,0.7089,7.926
11.429000,7.2489,2.4009,0.5357,7.655
11.433000,6.9598,2.2222,0.4930,7.323
11.438000,6.5993,2.0305,0.5703,6.928
11.444000,6.1903,1.8260,0.6855,6.490
11.449000,5.7447,1.6010,0.7996,6.017
11.454000,5.2655,1.3796,0.8886,5.515
11.490000,4.8083,1.1905,0.8901,5.033
11.491000,4.3871,1.0381,0.8236,4.583
11.491000,4.0007,0.8755,0.7089,4.156
11.492000,3.6873,0.7170,0.5655,3.799
11.492000,3.4373,0.5722,0.4391,3.512
11.492000,3.2340,0.4174,0.3304,3.278
11.493000,3.0440,0.2455,0.2014,3.060
11.493000,2.8352,0.0487,0.0908,2.837
11.500000,2.6233,-0.1646,0.0422,2.629
11.505000,2.4006,-0.3903,0.0483,2.433
11.509000,2.1603,-0.6020,0.0062,2.243
11.516000,1.9313,-0.8141,-0.0219,2.096
11.519000,1.6532,-1.0297,-0.0005,1.948
11.525000,1.3137,-1.2377,-0.0061,1.805
11.530000,0.9339,-1.4194,-0.0529,1.700
11.533000,0.5644,-1.6033,-0.1262,1.704
11.579000,0.2223,-1.8056,-0.1660,1.827
11.580000,-0.0369,-2.0021,-0.1322,2.007
11.580000,-0.2901,-2.1696,-0.0565,2.190
11.581000,-0.5453,-2.3593,-0.0424,2.422
11.581000,-0.8222,-2.5646,-0.0587,2.694
11.581000,-1.0773,-2.7589,-0.0650,2.963
11.582000,-1.3153,-2.9420,-0.0926,3.224
11.582000,-1.5295,-3.1124,-0.0675,3.469
11.582000,-1.7498,-3.2924,-0.0145,3.729
11.585000,-2.0100,-3.4921,-0.0580,4.030
11.590000,-2.3076,-3.6946,-0.1378,4.358
11.595000,-2.6258,-3.8612,-0.2134,4.674
11.599000,-2.9381,-4.0011,-0.2774,4.972
11.605000,-3.2544,-4.1438,-0.2942,5.277
11.610000,-3.5403,-4.2707,-0.2524,5.553
11.615000,-3.8486,-4.4208,-0.2172,5.865
11.620000,-4.1410,-4.5818,-0.2100,6.179
11.625000,-4.4319,-4.7703,-0.2644,6.517
11.630000,-4.7285,-4.9928,-0.3202,6.884
11.634000,-5.0142,-5.2183,-0.3607,7.246
11.641000,-5.2309,-5.4237,-0.3336,7.542
11.644000,-5.4409,-5.6140,-0.3162,7.824
11.648000,-5.6230,-5.7819,-0.3797,8.074
11.707000,-5.7989,-5.9272,-0.4640,8.305
11.708000,-5.9642,-6.0860,-0.5090,8.536
11.708000,-6.0803,-6.2521,-0.4836,8.735
11.708000,-6.1737,-6.4617,-0.4193,8.947
11.709000,-6.2541,-6.7028,-0.3190,9.173
11.709000,-6.2639,-6.9271,-0.2115,9.342
11.710000,-6.2945,-7.1444,-0.1874,9.524
11.710000,-6.3725,-7.3812,-0.1982,9.754
11.710000,-6.4980,-7.6219,-0.2527,10.019
11.711000,-6.6137,-7.8495,-0.3335,10.270
11.711000,-6.7030,-8.0350,-0.4141,10.472
11.711000,-6.7278,-8.1829,-0.4680,10.604
11.715000,-6.7026,-8.3031,-0.5145,10.683
11.721000,-6.6898,-8.4239,-0.6107,10.774
11.726000,-6.6823,-8.5261,-0.7657,10.860
11.730000,-6.6517,-8.6098,-0.9220,10.919
11.737000,-6.5667,-8.6649,-1.0388,10.922
11.742000,-6.4299,-8.6866,-1.1545,10.869
11.745000,-6.2842,-8.6823,-1.2838,10.795
11.749000,-6.1370,-8.6161,-1.4455,10.677
11.804000,-5.9785,-8.5169,-1.5967,10.528
11.805000,-5.7948,-8.3921,-1.6988,10.339
11.806000,-5.5953,-8.2444,-1.7159,10.111
11.806000,-5.3561,-8.0981,-1.6510,9.848
11.807000,-5.0844,-7.9777,-1.5476,9.586
11.807000,-4.7703,-7.9075,-1.4591,9.349
11.807000,-4.4041,-7.8589,-1.3692,9.112
11.808000,-4.0050,-7.8611,-1.2471,8.910
11.808000,-3.5897,-7.8761,-1.0953,8.725
11.808000,-3.1845,-7.8562,-0.9475,8.530
11.809000,-2.8304,-7.7859,-0.8176,8.325
11.809000,-2.5372,-7.6464,-0.7290,8.089
11.817000,-2.3101,-7.4911,-0.5784,7.861
11.820000,-2.1753,-7.3947,-0.3514,7.716
11.826000,-2.1232,-7.3140,-0.1276,7.617
11.829000,-2.1180,-7.2646,0.0407,7.567
11.836000,-2.1453,-7.2151,0.1390,7.529
11.843000,-2.2196,-7.2014,0.1629,7.537
11.845000,-2.3383,-7.2044,0.1244,7.575
11.850000,-2.4701,-7.1612,-0.0002,7.575
11.855000,-2.6144,-7.0569,-0.2180,7.529
11.901000,-2.7405,-6.9062,-0.5024,7.447
11.902000,-2.8313,-6.6939,-0.8721,7.320
11.902000,-2.8677,-6.4053,-1.2619,7.130
11.903000,-2.8305,-6.0786,-1.6331,6.901
11.903000,-2.7508,-5.7373,-1.9688,6.660
11.904000,-2.5930,-5.3965,-2.2787,6.406
11.904000,-2.3857,-5.0535,-2.5818,6.156
11.904000,-2.1289,-4.7156,-2.8038,5.885
11.905000,-1.7988,-4.3662,-2.9928,5.591
11.906000,-1.3765,-3.9866,-3.1437,5.260
11.910000,-0.8909,-3.5885,-3.2180,4.902
11.916000,-0.3719,-3.1976,-3.1962,4.536
11.922000,0.1756,-2.8188,-3.0906,4.187
11.925000,0.7439,-2.4433,-2.8843,3.853
11.929000,1.3204,-2.0529,-2.6019,3.568
11.936000,1.8716,-1.6383,-2.2844,3.377
11.939000,2.3651,-1.2137,-1.9683,3.308
11.946000,2.7647,-0.8248,-1.6179,3.308
11.950000,3.0270,-0.4959,-1.2574,3.315
11.958000,3.1664,-0.2275,-0.8922,3.298
11.964000,3.1566,-0.0099,-0.5322,3.201
11.965000,2.9981,0.1715,-0.2020,3.010
11.969000,2.6935,0.2948,0.0763,2.711
11.975000,2.2720,0.3753,0.2811,2.320
12.034000,1.7917,0.4206,0.4388,1.892
12.034000,1.2887,0.4339,0.5617,1.471
12.035000,0.7754,0.4399,0.6859,1.125
12.035000,0.2636,0.4265,0.7925,0.938
12.035000,-0.2580,0.3873,0.8647,0.982
12.036000,-0.7771,0.3279,0.8814,1.220
12.036000,-1.2668,0.2846,0.8567,1.556
12.036000,-1.7147,0.2676,0.7862,1.905
12.036000,-2.1156,0.2749,0.7106,2.249
12.036000,-2.4863,0.2852,0.6634,2.589
12.037000,-2.8259,0.3327,0.5920,2.906
12.037000,-3.1176,0.4009,0.5254,3.187
12.039000,-3.3590,0.4803,0.5067,3.431
12.044000,-3.5377,0.5426,0.5145,3.616
12.051000,-3.6300,0.6209,0.5075,3.718
12.058000,-3.6451,0.7368,0.4761,3.749
12.059000,-3.5856,0.8900,0.4272,3.719
12.064000,-3.4373,1.0875,0.3585,3.623
12.069000,-3.2364,1.2930,0.2675,3.495
12.109000,-2.9399,1.5377,0.1473,3.321
12.110000,-2.5418,1.8182,0.0245,3.125
12.110000,-2.0832,2.1340,-0.0987,2.984
12.110000,-1.6556,2.4203,-0.2364,2.942
12.111000,-1.2428,2.6742,-0.3982,2.976
12.111000,-0.8493,2.8815,-0.5217,3.049
12.111000,-0.4711,3.0561,-0.6359,3.157
12.111000,-0.1177,3.2435,-0.7886,3.340
12.123000,0.4737,3.5848,-1.0224,3.758
12.123000,0.5303,3.6230,-1.0239,3.802
12.124000,0.5860,3.7674,-1.1019,3.969
12.129000,1.0452,3.8771,-1.1702,4.183
12.134000,1.2470,3.9591,-1.2169,4.326
12.139000,1.4432,4.0065,-1.2299,4.433
12.144000,1.6266,4.0267,-1.1710,4.498
12.149000,1.7996,4.0028,-1.0524,4.513
12.155000,1.9654,3.9545,-0.8768,4.502
12.159000,2.1136,3.8835,-0.6803,4.473
12.167000,2.2376,3.7638,-0.4945,4.407
12.169000,2.3590,3.6123,-0.3478,4.328
12.174000,2.4513,3.4217,-0.2331,4.216
12.179000,2.4983,3.2141,-0.1476,4.073
12.184000,2.5576,2.9872,-0.1390,3.935
12.192000,2.6049,2.7292,-0.0681,3.773
12.195000,2.6646,2.4428,0.0150,3.615
12.199000,2.7440,2.1712,0.0553,3.500
12.240000,2.8407,1.9289,0.1153,3.436
12.241000,2.9714,1.7087,0.1738,3.432
12.242000,3.1530,1.5228,0.2189,3.508
12.242000,3.3870,1.3517,0.2652,3.656
12.242000,3.6665,1.2098,0.3367,3.876
12.243000,3.9960,1.1042,0.4047,4.165
12.243000,4.3297,1.0204,0.4479,4.471
12.244000,4.6673,0.9394,0.5433,4.792
12.244000,5.0056,0.8940,0.6595,5.127
12.249000,5.3374,0.8796,0.7967,5.468
12.256000,5.6314,0.9008,0.9642,5.784
12.259000,5.8947,0.9549,1.0926,6.071
12.265000,6.1534,1.0539,1.2271,6.362
12.271000,6.3789,1.1879,1.3962,6.637
12.275000,6.5396,1.3278,1.5683,6.855
12.280000,6.6285,1.4831,1.6977,7.001
12.285000,6.6910,1.6680,1.7960,7.126
12.290000,6.7174,1.8728,1.8512,7.215
12.295000,6.7650,2.0733,1.9180,7.331
12.299000,6.8410,2.2552,1.9938,7.474
12.348000,6.9233,2.3965,2.0277,7.602
12.349000,7.0189,2.5283,1.9838,7.720
12.349000,7.1109,2.6147,1.8672,7.803
12.349000,7.1897,2.6321,1.7045,7.844
12.349000,7.2960,2.5737,1.5754,7.895
12.349000,7.3915,2.4062,1.4679,7.911
12.350000,7.4741,2.1300,1.3825,7.894
12.350000,7.5367,1.7551,1.3412,7.854
12.350000,7.5627,1.3153,1.3873,7.801
12.350000,7.4976,0.8587,1.4994,7.694
12.355000,7.3086,0.4431,1.6222,7.500
12.359000,7.1090,0.1330,1.6790,7.306
12.364000,6.9493,-0.1288,1.8110,7.183
12.370000,6.8228,-0.3544,1.9986,7.118
12.374000,6.7610,-0.5773,2.1503,7.118
12.380000,6.7568,-0.8404,2.2951,7.185
12.384000,6.7455,-1.1056,2.4396,7.258
12.392000,6.7368,-1.3752,2.5982,7.350
12.395000,6.6832,-1.6110,2.7564,7.407
12.400000,6.5993,-1.7674,2.9260,7.432
12.405000,6.5358,-1.8207,3.1017,7.460
12.446000,6.5334,-1.7401,3.2328,7.494
12.447000,6.5847,-1.5355,3.3116,7.529
12.447000,6.7106,-1.2099,3.3522,7.598
12.448000,6.8889,-0.7807,3.3493,7.700
12.448000,7.0611,-0.2795,3.2717,7.787
12.448000,7.2195,0.2572,3.1337,7.874
12.448000,7.2893,0.7956,2.9255,7.895
12.449000,7.3062,1.3261,2.7362,7.914
12.449000,7.3513,1.8630,2.5633,8.005
12.455000,7.4242,2.3390,2.3636,8.135
12.461000,7.4908,2.7562,2.1395,8.264
12.465000,7.5646,3.1048,1.9055,8.396
12.470000,7.6619,3.3967,1.6717,8.546
12.475000,7.7674,3.6074,1.4549,8.687
12.480000,7.8422,3.7224,1.2527,8.771
12.485000,7.8645,3.7031,1.0199,8.752
12.490000,7.8080,3.5784,0.7234,8.619
12.496000,7.6699,3.3409,0.3374,8.373
12.501000,7.4517,3.0252,-0.1101,8.043
12.505000,7.1916,2.6677,-0.5798,7.692
12.510000,6.9121,2.3002,-1.0514,7.360
12.515000,6.6161,1.9376,-1.4949,7.054
12.520000,6.3420,1.6423,-1.8691,6.813
12.583000,6.0790,1.4297,-2.1635,6.609
12.584000,5.7840,1.2947,-2.3636,6.381
12.584000,5.4289,1.2327,-2.3977,6.061
12.584000,5.0311,1.2101,-2.2880,5.658
12.585000,4.6509,1.1982,-2.0208,5.211
12.585000,4.2979,1.1198,-1.5878,4.717
12.585000,3.9879,0.9993,-1.0502,4.243
12.585000,3.7205,0.8261,-0.4906,3.843
12.586000,3.4598,0.6213,0.0493,3.516
12.586000,3.2170,0.4101,0.5211,3.285
12.586000,2.9502,0.1740,0.9195,3.095
12.587000,2.6519,-0.0708,1.2134,2.917
12.587000,2.3486,-0.3052,1.4152,2.759
12.591000,2.0526,-0.5289,1.5586,2.631
12.596000,1.7737,-0.7465,1.6654,2.545
12.601000,1.5091,-0.9536,1.7145,2.475
12.608000,1.2387,-1.1800,1.7203,2.426
12.611000,0.9600,-1.4237,1.6612,2.389
12.615000,0.6636,-1.6747,1.5640,2.386
12.620000,0.3116,-1.9112,1.4287,2.406
12.664000,-0.1179,-2.1264,1.2485,2.469
12.665000,-0.5537,-2.3109,1.0668,2.605
12.665000,-0.9315,-2.4842,0.9505,2.818
12.665000,-1.3369,-2.6553,0.9134,3.110
12.666000,-1.7099,-2.7427,0.8426,3.340
12.666000,-2.0720,-2.7870,0.7238,3.547
12.667000,-2.3808,-2.8152,0.6314,3.741
12.667000,-2.6307,-2.8448,0.5868,3.919
12.667000,-2.8913,-2.9172,0.5175,4.140
12.672000,-3.1579,-3.0130,0.4475,4.388
12.677000,-3.4088,-3.1175,0.3552,4.633
12.682000,-3.6322,-3.2353,0.2597,4.871
12.686000,-3.8068,-3.3619,0.2136,5.083
12.690000,-3.9918,-3.4745,0.1855,5.295
12.696000,-4.2140,-3.6048,0.1253,5.547
12.700000,-4.4351,-3.7354,0.0594,5.799
12.705000,-4.6504,-3.8591,-0.0023,6.043
12.711000,-4.8244,-3.9715,-0.0216,6.249
12.715000,-4.9660,-4.0998,-0.0132,6.440
12.721000,-5.1235,-4.2206,-0.0152,6.638
12.725000,-5.2687,-4.3412,-0.0346,6.827
12.731000,-5.3824,-4.4735,-0.0542,6.999
12.735000,-5.4649,-4.6245,-0.0764,7.159
12.788000,-5.5406,-4.7877,-0.0844,7.323
12.789000,-5.5730,-4.9880,-0.0546,7.479
12.789000,-5.6030,-5.2163,-0.0758,7.656
12.790000,-5.6739,-5.4795,-0.1715,7.890
12.790000,-5.7642,-5.7343,-0.2933,8.136
12.790000,-5.8693,-5.9490,-0.4122,8.367
12.791000,-5.9512,-6.1481,-0.5160,8.572
12.791000,-6.0217,-6.3042,-0.6210,8.740
12.792000,-6.0716,-6.4896,-0.7034,8.915
12.792000,-6.1179,-6.7137,-0.7699,9.116
12.792000,-6.1892,-6.9263,-0.8254,9.325
12.797000,-6.2784,-7.1200,-0.8728,9.533
12.802000,-6.3540,-7.2629,-0.9697,9.699
12.807000,-6.3874,-7.3837,-1.0540,9.820
12.811000,-6.4049,-7.4705,-1.1164,9.903
12.817000,-6.3994,-7.5379,-1.1618,9.956
12.823000,-6.3829,-7.6361,-1.1808,10.022
12.826000,-6.3744,-7.7433,-1.1907,10.100
12.831000,-6.3808,-7.8832,-1.2254,10.216
12.836000,-6.3519,-8.0389,-1.2945,10.327
12.841000,-6.3116,-8.1884,-1.3717,10.429
12.846000,-6.2429,-8.2766,-1.4596,10.469
12.851000,-6.1459,-8.3467,-1.5560,10.481
12.912000,-6.0445,-8.4080,-1.6247,10.482
12.913000,-5.9409,-8.4463,-1.6733,10.461
12.914000,-5.8782,-8.4231,-1.6898,10.410
12.914000,-5.8512,-8.3648,-1.6795,10.345
12.915000,-5.7926,-8.2663,-1.6307,10.225
12.915000,-5.6854,-8.1657,-1.5389,10.068
12.915000,-5.5106,-8.0803,-1.4307,9.885
12.916000,-5.2538,-8.0626,-1.3131,9.712
12.916000,-5.2211,-8.1011,-1.1309,9.704
12.917000,-4.5036,-8.1698,-0.8863,9.371
12.917000,-4.0731,-8.2356,-0.6104,9.208
12.918000,-3.6593,-8.2735,-0.2886,9.051
12.918000,-3.2906,-8.2429,0.0119,8.876
12.922000,-2.9673,-8.1088,0.3081,8.640
12.926000,-2.6654,-7.9099,0.5860,8.367
12.932000,-2.3612,-7.6757,0.8482,8.075
12.937000,-2.0618,-7.4304,1.0801,7.786
12.942000,-1.7299,-7.2142,1.2896,7.530
12.947000,-1.4227,-7.0462,1.4930,7.342
12.951000,-1.1954,-6.9366,1.6711,7.234
12.999000,-1.0621,-6.8830,1.7757,7.187
13.000000,-1.0080,-6.8105,1.7589,7.106
13.001000,-1.0144,-6.7105,1.6025,6.973
13.001000,-1.0498,-6.5987,1.3067,6.808
13.002000,-1.0519,-6.4698,0.9133,6.618
13.002000,-1.0303,-6.3426,0.4897,6.444
13.002000,-0.9561,-6.1639,0.0532,6.238
13.002000,-0.8193,-5.9352,-0.3720,6.003
13.003000,-0.6232,-5.6529,-0.7490,5.736
13.003000,-0.3628,-5.3139,-1.0852,5.436
13.011000,-0.0168,-4.9306,-1.3205,5.104
13.012000,0.4027,-4.5298,-1.4741,4.781
13.016000,0.8838,-4.1184,-1.5917,4.503
13.022000,1.3891,-3.6887,-1.6347,4.267
13.027000,1.9402,-3.2384,-1.6202,4.108
13.032000,2.4699,-2.7919,-1.5843,4.050
13.036000,2.9462,-2.3354,-1.6151,4.092
13.042000,3.4497,-1.8719,-1.6401,4.254
13.046000,3.9345,-1.4490,-1.5562,4.472
13.051000,4.3942,-1.0447,-1.4016,4.729
13.058000,4.7999,-0.6518,-1.1910,4.988
13.061000,5.1722,-0.2663,-0.8724,5.252
13.066000,5.4915,0.0894,-0.4992,5.515
13.113000,5.7146,0.3936,-0.1009,5.729
13.114000,5.8117,0.6569,0.2762,5.855
13.115000,5.7401,0.8508,0.6290,5.837
13.115000,5.5002,0.9732,0.9355,5.663
13.115000,5.0994,1.0482,1.1953,5.342
13.116000,4.5457,1.0643,1.3914,4.872
13.116000,3.8878,1.0272,1.4901,4.288
13.116000,3.1763,0.9634,1.4600,3.626
13.117000,2.4483,0.8836,1.3300,2.923
13.122000,1.7477,0.8271,1.0908,2.220
13.123000,1.0920,0.7828,0.7621,1.545
13.128000,0.5007,0.7635,0.4211,1.006
13.132000,-0.0258,0.7577,0.1064,0.766
13.137000,-0.4629,0.7232,-0.1675,0.875
13.142000,-0.8367,0.7035,-0.3863,1.159
13.147000,-1.1272,0.7133,-0.6198,1.471
13.151000,-1.3343,0.7791,-0.9037,1.790
13.158000,-1.4557,0.9131,-1.1613,2.074
13.163000,-1.4822,1.0980,-1.4308,2.334
13.166000,-1.4519,1.2888,-1.7360,2.604
13.228000,-1.4272,1.4829,-2.0239,2.887
13.229000,-1.3558,1.6636,-2.2703,3.124
13.230000,-1.2661,1.8575,-2.4702,3.340
13.230000,-1.1252,2.0429,-2.6451,3.526
13.230000,-0.9785,2.2268,-2.7827,3.696
13.231000,-0.8359,2.4021,-2.8662,3.832
13.231000,-0.6995,2.5904,-2.9029,3.953
13.232000,-0.5646,2.7916,-2.8713,4.044
13.233000,-0.3951,3.0273,-2.8483,4.175
13.234000,-0.2133,3.2634,-2.8288,4.324
13.234000,-0.0887,3.4520,-2.7099,4.390
13.235000,0.0175,3.5742,-2.5685,4.401
13.235000,0.1172,3.6682,-2.4290,4.401
13.237000,0.2344,3.7961,-2.2771,4.433
13.243000,0.3872,3.8853,-2.0747,4.422
13.246000,0.5258,3.9264,-1.8603,4.377
13.253000,0.6549,3.9457,-1.6677,4.333
13.257000,0.7818,3.9553,-1.5063,4.304
13.262000,0.8943,3.9598,-1.3786,4.287
13.268000,0.9735,3.9427,-1.2553,4.251
13.274000,1.0381,3.9085,-1.1032,4.192
13.277000,1.1530,3.8837,-0.9703,4.166
13.282000,1.2821,3.8347,-0.8157,4.125
13.287000,1.4059,3.7661,-0.6706,4.076
13.292000,1.5032,3.6878,-0.5350,4.018
13.297000,1.5806,3.6041,-0.4399,3.960
13.301000,1.6458,3.4915,-0.3133,3.873
13.339000,1.7204,3.4028,-0.1554,3.816
13.340000,1.8070,3.3258,0.0142,3.785
13.340000,1.9222,3.2460,0.1738,3.776
13.341000,2.0638,3.1755,0.3257,3.801
13.341000,2.2336,3.1067,0.4458,3.852
13.341000,2.3982,3.0062,0.5390,3.883
13.342000,2.5599,2.8765,0.6293,3.902
13.342000,2.7404,2.7224,0.7048,3.927
13.371000,2.9162,2.5611,0.7632,3.955
13.372000,3.1131,2.3731,0.8022,3.996
13.372000,3.3312,2.1971,0.8245,4.075
13.373000,3.5537,2.0664,0.8493,4.198
13.373000,3.7876,1.9451,0.9008,4.352
13.373000,3.9873,1.8524,0.9145,4.491
13.377000,4.1244,1.7383,0.9339,4.572
13.382000,4.2488,1.6120,1.0114,4.655
13.387000,4.4134,1.4930,1.1349,4.795
13.393000,4.5966,1.3859,1.2325,4.957
13.397000,4.7840,1.2762,1.3521,5.133
13.402000,4.9709,1.1952,1.4958,5.327
13.437000,5.1790,1.1308,1.6707,5.558
13.438000,5.3862,1.0634,1.8237,5.785
13.438000,5.5880,1.0003,1.9474,6.002
13.438000,5.8009,0.9462,2.0419,6.222
13.438000,6.0678,0.9488,2.1047,6.492
13.439000,6.3287,0.9937,2.1360,6.753
13.439000,6.5778,1.0731,2.1236,6.995
13.443000,6.7913,1.1585,2.0821,7.197
13.448000,6.9830,1.2544,2.0331,7.380
13.453000,7.1840,1.3320,1.9814,7.570
13.457000,7.3988,1.3293,1.9485,7.766
13.462000,7.6610,1.2560,1.9442,8.003
13.468000,7.9601,1.1667,1.9945,8.289
13.472000,8.3289,1.0137,2.0375,8.634
13.478000,8.6426,0.7345,2.1401,8.934
13.482000,8.8510,0.3675,2.2589,9.142
13.487000,8.9255,-0.0059,2.3366,9.226
13.492000,8.8643,-0.3281,2.3561,9.178
13.497000,8.6466,-0.5607,2.2870,8.961
13.502000,8.3255,-0.6916,2.1869,8.636
13.564000,8.0097,-0.7466,2.0683,8.306
13.565000,7.7308,-0.7662,1.9698,8.015
13.565000,7.5037,-0.7763,1.8990,7.779
13.566000,7.3217,-0.7529,1.8580,7.591
13.566000,7.1466,-0.6408,1.8423,7.408
13.567000,6.9881,-0.4284,1.8513,7.242
13.567000,6.8513,-0.0702,1.8418,7.095
13.567000,6.7983,0.4167,1.7874,7.042
13.568000,6.8356,0.9744,1.7356,7.119
13.568000,6.9501,1.5308,1.7488,7.328
13.568000,7.0789,2.0182,1.8119,7.581
13.569000,7.1447,2.4195,1.9266,7.785
13.569000,7.2548,2.7701,2.0851,8.041
13.574000,7.3559,3.0504,2.2647,8.279
13.577000,7.3739,3.2887,2.3284,8.403
13.584000,7.3536,3.4825,2.2669,8.446
13.588000,7.2708,3.5932,2.1715,8.396
13.594000,7.1422,3.6185,2.0497,8.265
13.599000,6.9987,3.5632,1.8873,8.077
13.602000,6.8364,3.4299,1.6846,7.832
13.608000,6.6648,3.2475,1.4516,7.555
13.613000,6.4797,3.0355,1.1770,7.252
13.618000,6.2550,2.8108,0.9022,6.917
13.676000,5.9957,2.5688,0.6468,6.555
13.678000,5.6920,2.3284,0.4327,6.165
13.679000,5.3910,2.0689,0.2815,5.781
13.681000,5.0542,1.8117,0.1762,5.372
13.681000,4.7109,1.5448,0.0715,4.958
13.682000,4.3659,1.2994,-0.0209,4.555
13.683000,4.0645,1.0607,-0.1104,4.202
13.684000,3.7815,0.8367,-0.2040,3.878
13.685000,3.5262,0.6199,-0.2896,3.592
13.686000,3.2771,0.4057,-0.4029,3.327
13.687000,3.0298,0.1821,-0.5198,3.079
13.688000,2.8178,-0.0720,-0.6469,2.892
13.689000,2.6381,-0.3404,-0.7337,2.759
13.691000,2.4611,-0.6050,-0.7944,2.656
13.695000,2.2625,-0.8139,-0.8482,2.550
13.698000,2.0448,-0.9621,-0.8640,2.419
13.703000,1.8179,-1.0591,-0.8109,2.255
13.708000,1.5672,-1.1511,-0.6942,2.065
13.715000,1.3152,-1.2466,-0.5285,1.888
13.718000,1.0496,-1.3369,-0.3382,1.733
13.725000,0.7777,-1.4387,-0.1428,1.642
13.729000,0.4713,-1.5496,0.0282,1.620
13.733000,0.1664,-1.6575,0.1555,1.673
13.737000,-0.1229,-1.7510,0.2172,1.769
13.777000,-0.4097,-1.8480,0.2995,1.916
13.778000,-0.7255,-1.9297,0.3185,2.086
13.779000,-1.0128,-2.0102,0.2839,2.269
13.779000,-1.2428,-2.0918,0.2489,2.446
13.779000,-1.4400,-2.1798,0.1969,2.620
13.779000,-1.5942,-2.2753,0.1354,2.782
13.780000,-1.7515,-2.4029,0.0791,2.975
13.780000,-1.9382,-2.5290,0.0067,3.186
13.784000,-2.1708,-2.6773,-0.0770,3.448
13.789000,-2.3988,-2.8091,-0.1579,3.697
13.794000,-2.5962,-2.9464,-0.2382,3.934
13.800000,-2.7668,-3.0731,-0.3206,4.147
13.803000,-2.9660,-3.2281,-0.3761,4.400
13.808000,-3.1820,-3.3873,-0.4072,4.665
13.813000,-3.4075,-3.5530,-0.4283,4.942
13.818000,-3.6595,-3.7351,-0.4201,5.246
13.861000,-3.8917,-3.9103,-0.3855,5.530
13.862000,-4.0753,-4.1029,-0.3344,5.793
13.862000,-4.2011,-4.2960,-0.2507,6.014
13.862000,-4.3573,-4.5135,-0.2041,6.277
13.863000,-4.5297,-4.7360,-0.1729,6.556
13.863000,-4.6779,-4.9302,-0.1236,6.797
13.863000,-4.8419,-5.0997,-0.0472,7.032
13.864000,-5.0075,-5.2781,0.0514,7.276
13.864000,-5.1365,-5.4438,0.1505,7.486
13.869000,-5.2457,-5.6062,0.2472,7.682
13.873000,-5.3975,-5.8111,0.3034,7.937
13.878000,-5.5172,-6.0045,0.3479,8.162
13.884000,-5.6006,-6.2535,0.3736,8.403
13.889000,-5.6403,-6.4549,0.4143,8.582
13.893000,-5.6511,-6.5968,0.4579,8.698
13.898000,-5.6880,-6.7011,0.4542,8.801
13.903000,-5.7250,-6.8087,0.4345,8.906
13.908000,-5.7213,-6.8995,0.4303,8.973
13.913000,-5.7010,-6.9860,0.4462,9.028
13.918000,-5.6955,-7.0610,0.4656,9.084
13.926000,-5.6592,-7.1534,0.4763,9.134
13.929000,-5.6162,-7.2512,0.4569,9.183
13.934000,-5.5497,-7.3465,0.4028,9.216
13.938000,-5.5220,-7.4278,0.3404,9.262
13.998000,-5.4589,-7.4637,0.2484,9.250
14.000000,-5.3582,-7.5311,0.2128,9.245
14.000000,-5.3011,-7.6441,0.1781,9.304
14.001000,-5.2635,-7.7358,0.0728,9.357
14.001000,-5.2362,-7.7793,-0.0592,9.378
14.002000,-5.2168,-7.8203,-0.1576,9.402
14.002000,-5.2102,-7.8563,-0.2176,9.429
14.003000,-5.1610,-7.8942,-0.2846,9.436
14.005000,-5.0529,-7.9267,-0.3585,9.407
14.006000,-4.8952,-7.9756,-0.4370,9.368
14.006000,-4.6956,-8.0339,-0.5074,9.319
14.007000,-4.4753,-8.1090,-0.5536,9.279
14.007000,-4.2393,-8.2033,-0.5612,9.251
14.008000,-3.9921,-8.3288,-0.5615,9.253
14.013000,-3.7673,-8.4737,-0.5258,9.288
14.019000,-3.5676,-8.6266,-0.4416,9.346
14.025000,-3.4500,-8.7778,-0.3595,9.438
14.028000,-3.3738,-8.8794,-0.2723,9.503
14.033000,-3.3196,-8.9389,-0.1969,9.537
14.038000,-3.2659,-8.9447,-0.1429,9.523
14.077000,-3.1861,-8.9492,-0.1249,9.500
14.079000,-3.0996,-8.9750,-0.1189,9.496
14.082000,-2.9727,-8.9811,-0.1636,9.462
14.084000,-2.8366,-8.9701,-0.2801,9.412
14.085000,-2.7198,-8.8919,-0.4394,9.309
14.087000,-2.6101,-8.7580,-0.6391,9.161
14.089000,-2.5222,-8.5478,-0.8696,8.955
14.090000,-2.4747,-8.2491,-1.1190,8.685
14.091000,-2.3500,-7.8474,-1.4092,8.312
14.092000,-2.1842,-7.3956,-1.7754,7.913
14.097000,-1.9872,-6.9178,-2.1571,7.514
14.100000,-1.7203,-6.4422,-2.4801,7.114
14.105000,-1.3510,-5.9487,-2.7200,6.679
14.109000,-0.8865,-5.4589,-2.9321,6.260
14.114000,-0.3418,-4.9759,-3.0873,5.866
14.123000,0.2492,-4.4909,-3.2000,5.520
14.124000,0.8500,-4.0137,-3.2531,5.236
14.129000,1.4375,-3.5345,-3.2700,5.025
14.135000,1.9636,-3.0844,-3.2220,4.873
14.142000,2.4348,-2.6736,-3.1425,4.791
14.144000,2.8293,-2.2712,-3.0529,4.742
14.148000,3.1537,-1.9065,-2.9485,4.720
14.153000,3.3985,-1.5768,-2.8125,4.685
14.208000,3.5558,-1.2806,-2.6142,4.595
14.210000,3.5782,-0.9816,-2.3947,4.416
14.211000,3.4398,-0.6986,-2.1496,4.116
14.212000,3.1699,-0.4744,-1.8845,3.718
14.213000,2.8652,-0.2865,-1.6211,3.304
14.214000,2.5447,-0.1210,-1.4081,2.911
14.215000,2.1899,0.0302,-1.2047,2.500
14.216000,1.7938,0.1696,-1.0134,2.067
14.217000,1.3711,0.2809,-0.8245,1.624
14.218000,0.9339,0.3956,-0.6428,1.201
14.220000,0.5046,0.5192,-0.4658,0.861
14.221000,0.0901,0.6682,-0.2938,0.735
14.222000,-0.2779,0.8262,-0.1317,0.882
14.225000,-0.6040,1.0080,-0.0034,1.175
14.229000,-0.8786,1.1968,0.0889,1.487
14.235000,-1.1155,1.3860,0.1476,1.785
14.240000,-1.3154,1.5560,0.2062,2.048
14.244000,-1.4731,1.7143,0.2768,2.277
14.249000,-1.5572,1.8802,0.3331,2.464
14.256000,-1.5800,2.0607,0.3726,2.623
14.260000,-1.5632,2.2224,0.4123,2.748
14.264000,-1.5232,2.3775,0.4285,2.856
14.268000,-1.4415,2.5492,0.4448,2.962
14.278000,-1.3157,2.7402,0.4640,3.075
14.278000,-1.1722,2.9358,0.4860,3.198
14.284000,-0.9921,3.1170,0.5371,3.315
14.333000,-0.8109,3.2862,0.5671,3.432
14.333000,-0.5911,3.4738,0.5948,3.574
14.334000,-0.3569,3.6559,0.6085,3.723
14.334000,-0.1036,3.8515,0.6679,3.910
14.334000,0.1828,4.0363,0.7463,4.109
14.335000,0.4232,4.1958,0.8340,4.299
14.335000,0.6752,4.3587,0.8519,4.492
14.335000,0.8802,4.4575,0.8264,4.618
14.335000,1.0985,4.5428,0.9133,4.762
14.336000,1.3540,4.6338,1.0308,4.936
14.341000,1.6131,4.7205,1.1520,5.120
14.344000,1.8185,4.7864,1.2720,5.276
14.350000,1.9744,4.8428,1.3807,5.409
14.357000,2.0836,4.8662,1.4900,5.499
14.360000,2.1915,4.8732,1.5950,5.576
14.364000,2.3056,4.8544,1.7170,5.642
14.369000,2.4306,4.8122,1.8030,5.685
14.375000,2.5692,4.7373,1.8794,5.707
14.380000,2.6873,4.6030,1.9390,5.672
14.384000,2.7588,4.4096,1.9532,5.556
14.445000,2.7910,4.2243,1.9032,5.409
14.446000,2.8246,4.0305,1.7894,5.237
14.447000,2.8960,3.8645,1.6527,5.104
14.447000,3.0142,3.7022,1.4959,5.003
14.447000,3.1794,3.5200,1.3171,4.923
14.447000,3.3891,3.3253,1.1477,4.885
14.448000,3.6002,3.1327,1.0123,4.879
14.448000,3.8078,2.9374,0.9160,4.896
14.448000,3.9882,2.7469,0.8565,4.918
14.449000,4.1169,2.5395,0.8219,4.906
14.449000,4.2301,2.3271,0.7980,4.894
14.449000,4.3491,2.1219,0.8496,4.913
14.450000,4.4238,1.9500,0.9570,4.928
14.459000,4.5045,1.8471,1.0550,4.982
14.460000,4.5983,1.7891,1.1363,5.063
14.465000,4.7197,1.7567,1.1886,5.174
14.470000,4.8853,1.7404,1.2025,5.324
14.477000,5.0805,1.7281,1.2018,5.499
14.482000,5.2622,1.7054,1.1819,5.657
14.486000,5.4227,1.6866,1.1645,5.797
14.493000,5.5576,1.6454,1.1351,5.906
14.497000,5.6764,1.6251,1.1154,6.009
14.500000,5.8006,1.6231,1.1102,6.125
14.567000,5.9373,1.6323,1.1051,6.256
14.569000,6.0672,1.6764,1.1192,6.393
14.573000,6.1540,1.7361,1.1188,6.491
14.575000,6.2144,1.7970,1.1255,6.566
14.576000,6.2653,1.8446,1.1462,6.631
14.577000,6.3424,1.8621,1.1807,6.715
14.578000,6.4554,1.7946,1.2145,6.809
14.579000,6.6112,1.6277,1.2499,6.922
14.580000,6.7975,1.3446,1.3012,7.050
14.581000,6.9520,0.9766,1.3352,7.146
14.582000,7.0270,0.5932,1.2896,7.169
14.583000,7.1443,0.2424,1.2393,7.255
14.584000,7.1655,-0.0543,1.2060,7.266
14.585000,7.0909,-0.2703,1.1157,7.183
14.586000,6.9663,-0.4535,0.9950,7.052
14.587000,6.8470,-0.6274,0.9115,6.936
14.588000,6.7574,-0.7989,0.8631,6.859
14.591000,6.7073,-0.9559,0.8211,6.825
14.597000,6.6592,-1.0189,0.7522,6.779
14.600000,6.5749,-0.9810,0.6973,6.684
14.606000,6.4476,-0.8586,0.6827,6.540
14.616000,6.3374,-0.6280,0.7202,6.409
14.618000,6.2659,-0.3133,0.7592,6.319
14.621000,6.2737,0.0422,0.8445,6.330
14.658000,6.3769,0.4165,1.0069,6.469
14.660000,6.5531,0.7920,1.1930,6.708
14.661000,6.7224,1.1204,1.3805,6.954
14.661000,6.8435,1.3841,1.5737,7.157
14.662000,6.8871,1.5780,1.7242,7.273
14.663000,6.8609,1.7117,1.7813,7.292
14.663000,6.7861,1.8377,1.7645,7.249
14.664000,6.6817,1.9200,1.7435,7.167
14.666000,6.6147,1.9563,1.6611,7.095
14.672000,6.5586,1.9464,1.5366,7.012
14.677000,6.5154,1.8928,1.3797,6.924
14.681000,6.4832,1.7885,1.1862,6.829
14.687000,6.4284,1.6767,0.9231,6.707
14.692000,6.3342,1.5790,0.6078,6.556
14.697000,6.1769,1.4958,0.2915,6.362
14.700000,5.9946,1.4389,-0.0086,6.165
14.705000,5.8051,1.3828,-0.2488,5.973
14.756000,5.6130,1.3010,-0.4316,5.778
14.757000,5.4136,1.1887,-0.5569,5.571
14.759000,5.2288,1.0819,-0.6202,5.375
14.761000,5.0156,0.9732,-0.6479,5.150
14.761000,4.7928,0.8815,-0.6500,4.916
14.762000,4.5521,0.8095,-0.6243,4.665
14.762000,4.3051,0.7355,-0.5806,4.406
14.763000,4.0354,0.6569,-0.5286,4.123
14.763000,3.7861,0.5735,-0.4615,3.857
14.764000,3.5591,0.4802,-0.3698,3.610
14.764000,3.3199,0.3681,-0.2731,3.351
14.765000,3.0824,0.2414,-0.1643,3.096
14.770000,2.8203,0.0978,-0.0532,2.822
14.776000,2.5650,-0.0605,0.0601,2.566
14.780000,2.2947,-0.2051,0.1706,2.310
14.785000,2.0611,-0.3493,0.2708,2.108
14.792000,1.8565,-0.5128,0.3440,1.957
14.795000,1.6523,-0.6740,0.3974,1.828
14.800000,1.4365,-0.8209,0.4434,1.713
14.858000,1.2092,-0.9678,0.5034,1.629
14.859000,0.9772,-1.0867,0.5774,1.571
14.860000,0.7468,-1.1977,0.6721,1.563
14.862000,0.4912,-1.3184,0.7300,1.585
14.863000,0.2415,-1.4702,0.8035,1.693
14.864000,-0.0523,-1.6530,0.8188,1.845
14.866000,-0.3446,-1.8354,0.8095,2.035
14.867000,-0.6621,-2.0275,0.8380,2.292
14.867000,-1.0176,-2.2011,0.8014,2.554
14.868000,-1.3257,-2.3497,0.7431,2.798
14.869000,-1.5815,-2.5017,0.6993,3.041
14.870000,-1.8447,-2.6784,0.6821,3.323
14.872000,-2.0799,-2.8302,0.6290,3.568
14.873000,-2.3004,-3.0104,0.5189,3.824
14.877000,-2.5044,-3.2315,0.4382,4.112
14.881000,-2.6918,-3.4645,0.4346,4.409
14.887000,-2.9126,-3.6803,0.3809,4.709
14.891000,-3.1596,-3.8670,0.2774,5.001
14.896000,-3.3948,-4.0391,0.1914,5.280
14.901000,-3.5887,-4.2238,0.0939,5.543
14.909000,-3.7729,-4.4432,0.0877,5.830
14.911000,-3.9712,-4.6828,0.0791,6.140
14.916000,-4.1762,-4.9206,0.0225,6.454
14.920000,-4.3880,-5.1157,-0.0604,6.740
14.971000,-4.5590,-5.2758,-0.1315,6.974
14.972000,-4.7100,-5.4471,-0.1671,7.203
14.974000,-4.7959,-5.6373,-0.1294,7.402
14.975000,-4.8192,-5.8010,-0.0839,7.542
14.976000,-4.8922,-5.9935,-0.1143,7.738
14.978000,-5.0274,-6.2415,-0.1776,8.016
14.979000,-5.1763,-6.4571,-0.2470,8.279
14.980000,-5.3105,-6.6312,-0.3056,8.501
14.982000,-5.4158,-6.7827,-0.3178,8.685
14.983000,-5.5042,-6.9258,-0.2908,8.851
14.984000,-5.5780,-7.0799,-0.3016,9.018
14.985000,-5.6591,-7.2332,-0.3475,9.190
14.986000,-5.7760,-7.3917,-0.4234,9.390
14.994000,-5.8978,-7.5747,-0.4572,9.611
14.997000,-5.9744,-7.7509,-0.5138,9.800
15.002000,-6.0202,-7.8818,-0.6092,9.937
15.007000,-6.0429,-7.9655,-0.7361,10.025
15.012000,-6.0664,-8.0158,-0.8866,10.092
15.016000,-6.0765,-8.0448,-1.0225,10.134
15.021000,-6.0446,-8.0814,-1.0795,10.149
15.027000,-6.0326,-8.1110,-1.1564,10.174
15.032000,-6.0382,-8.1479,-1.2746,10.221
15.036000,-6.0566,-8.2015,-1.3839,10.289
15.095000,-6.0302,-8.2423,-1.4626,10.317
15.096000,-5.9710,-8.2679,-1.4919,10.307
15.096000,-5.8598,-8.2880,-1.4412,10.252
15.097000,-5.7109,-8.2903,-1.3729,10.160
15.097000,-5.5292,-8.2943,-1.3253,10.056
15.098000,-5.3721,-8.3718,-1.3006,10.032
15.098000,-5.2539,-8.4985,-1.2534,10.070
15.098000,-5.1601,-8.6429,-1.2120,10.139
15.099000,-5.0453,-8.7759,-1.1736,10.191
15.099000,-4.9096,-8.9260,-1.1399,10.251
15.100000,-4.7555,-9.0836,-1.0964,10.312
15.100000,-4.6430,-9.2133,-1.0399,10.369
15.103000,-4.6174,-9.2812,-0.9773,10.412
15.110000,-4.6356,-9.2585,-0.8964,10.393
15.112000,-4.6063,-9.1381,-0.7851,10.264
15.116000,-4.4818,-8.9728,-0.6508,10.051
15.129000,-4.0687,-8.7260,-0.3785,9.635
15.130000,-4.0323,-8.6375,-0.3919,9.540
15.132000,-3.8052,-8.4876,-0.3128,9.307
15.137000,-3.6076,-8.3008,-0.2828,9.055
15.142000,-3.4487,-8.0600,-0.3355,8.773
15.146000,-3.3119,-7.7784,-0.4589,8.467
15.151000,-3.1586,-7.4723,-0.6268,8.137
15.211000,-2.9596,-7.1649,-0.8366,7.797
15.213000,-2.7132,-6.8626,-1.0498,7.454
15.214000,-2.4215,-6.5240,-1.2304,7.067
15.216000,-2.1061,-6.1569,-1.3665,6.649
15.217000,-1.7790,-5.7833,-1.4870,6.231
15.219000,-1.4406,-5.3920,-1.6132,5.810
15.220000,-1.0666,-5.0160,-1.7115,5.406
15.222000,-0.6630,-4.6407,-1.7651,5.009
15.223000,-0.2726,-4.2705,-1.8077,4.645
15.224000,0.1020,-3.9203,-1.8345,4.329
15.225000,0.4797,-3.5663,-1.8478,4.045
15.226000,0.8579,-3.1708,-1.8210,3.756
15.228000,1.2268,-2.7864,-1.7496,3.511
15.229000,1.5543,-2.4317,-1.6720,3.335
15.230000,1.8120,-2.1107,-1.5787,3.199
15.235000,2.0164,-1.8095,-1.4314,3.064
15.239000,2.1988,-1.5233,-1.2282,2.943
15.243000,2.3183,-1.2473,-0.9911,2.813
15.247000,2.3945,-0.9742,-0.7133,2.682
15.253000,2.3907,-0.6644,-0.4382,2.520
15.260000,2.3360,-0.3056,-0.1852,2.363
15.262000,2.2445,0.0325,0.0481,2.245
15.267000,2.0778,0.2974,0.3046,2.121
15.272000,1.8602,0.4964,0.5813,2.011
15.317000,1.6113,0.6540,0.8516,1.936
15.319000,1.3208,0.7860,1.0910,1.885
15.319000,0.9704,0.9054,1.2541,1.826
15.320000,0.5913,1.0480,1.3386,1.800
15.321000,0.2124,1.2002,1.3473,1.817
15.322000,-0.1468,1.3672,1.2875,1.884
15.322000,-0.4496,1.5547,1.2221,2.028
15.323000,-0.6706,1.7287,1.1773,2.196
15.323000,-0.8212,1.8896,1.1389,2.354
15.324000,-0.9231,2.0233,1.0709,2.468
15.328000,-0.9906,2.1273,0.9902,2.547
15.331000,-1.0282,2.2141,0.8993,2.602
15.338000,-1.0390,2.2904,0.7817,2.634
15.343000,-1.0083,2.3781,0.6520,2.664
15.346000,-0.9169,2.4701,0.5317,2.688
15.352000,-0.7532,2.5710,0.4019,2.709
15.364000,-0.5365,2.6856,0.2794,2.753
15.365000,-0.2885,2.7996,0.1787,2.820
15.368000,-0.0365,2.9121,0.1047,2.914
15.372000,0.2006,3.0187,0.0572,3.026
15.428000,0.4347,3.1143,0.0409,3.145
15.429000,0.6512,3.2013,0.0195,3.267
15.430000,0.8431,3.2819,0.0025,3.388
15.431000,1.0346,3.3325,-0.0270,3.489
15.432000,1.2248,3.3788,-0.0451,3.594
15.434000,1.3997,3.4427,-0.0589,3.717
15.434000,1.5521,3.5194,-0.0612,3.847
15.435000,1.6676,3.5730,-0.0593,3.943
15.436000,1.7492,3.5799,-0.0461,3.985
15.437000,1.8296,3.5921,-0.0244,4.031
15.437000,1.9618,3.6219,-0.0350,4.119
15.438000,2.0857,3.6020,-0.0467,4.163
15.438000,2.2515,3.5303,-0.0453,4.187
15.443000,2.4352,3.4305,-0.0595,4.207
15.447000,2.5798,3.3055,-0.0800,4.194
15.452000,2.6919,3.1978,-0.2023,4.185
15.459000,2.8291,3.1511,-0.3802,4.252
15.462000,2.9673,3.0791,-0.5487,4.311
15.466000,3.1064,2.9941,-0.6884,4.369
15.471000,3.2589,2.8940,-0.8137,4.434
15.515000,3.4480,2.7857,-0.9146,4.526
15.518000,3.6522,2.6839,-0.9815,4.637
15.518000,3.8404,2.5909,-1.0358,4.747
15.518000,3.9933,2.5019,-1.1012,4.839
15.519000,4.1323,2.4147,-1.1393,4.920
15.519000,4.2984,2.3318,-1.1429,5.022
15.521000,4.4790,2.2196,-1.1000,5.118
15.522000,4.6816,2.1069,-1.0369,5.237
15.523000,4.8868,1.9769,-0.9705,5.360
15.523000,5.0993,1.8368,-0.9103,5.496
15.527000,5.2806,1.6961,-0.8299,5.608
15.533000,5.4381,1.5430,-0.7367,5.701
15.540000,5.5167,1.4131,-0.6523,5.732
15.542000,5.6148,1.2923,-0.5861,5.791
15.547000,5.7513,1.1257,-0.4736,5.880
15.553000,5.8405,0.9563,-0.3340,5.928
15.558000,5.9039,0.8128,-0.2156,5.963
15.562000,5.9317,0.6902,-0.1208,5.973
15.568000,5.9145,0.6147,-0.0736,5.947
15.573000,5.8884,0.5672,-0.0645,5.916
15.578000,5.8559,0.5239,-0.0933,5.880
15.582000,5.8266,0.5183,-0.1456,5.851
15.587000,5.8436,0.5409,-0.1946,5.872
15.647000,5.8587,0.5822,-0.2237,5.892
15.648000,5.8718,0.6492,-0.2995,5.915
15.648000,5.8826,0.7178,-0.3621,5.937
15.648000,5.8861,0.7665,-0.3924,5.949
15.649000,5.8873,0.8098,-0.3785,5.955
15.649000,5.8981,0.8452,-0.3562,5.969
15.650000,5.9065,0.8728,-0.3447,5.981
15.650000,5.9194,0.9091,-0.3079,5.997
15.650000,5.9056,0.9230,-0.2651,5.983
15.650000,5.8794,0.9048,-0.1996,5.952
15.651000,5.8576,0.8283,-0.1260,5.917
15.651000,5.8308,0.6647,-0.0348,5.869
15.652000,5.8280,0.4144,0.0814,5.843
15.659000,5.8208,0.1041,0.2201,5.826
15.662000,5.7496,-0.2304,0.3769,5.766
15.668000,5.7556,-0.5288,0.5375,5.805
15.673000,5.7819,-0.8224,0.7807,5.892
15.678000,5.7928,-1.0538,1.0557,5.982
15.683000,5.7668,-1.2209,1.3189,6.040
15.689000,5.6970,-1.3620,1.5533,6.060
15.695000,5.6027,-1.4845,1.7371,6.051
15.698000,5.4889,-1.5788,1.8777,6.012
15.702000,5.4134,-1.6613,1.9771,5.998
15.760000,5.3285,-1.7752,2.0833,5.990
15.761000,5.2249,-1.8389,2.1438,5.939
15.761000,5.0718,-1.8044,2.1728,5.805
15.762000,4.8789,-1.6409,2.1634,5.584
15.762000,4.7091,-1.3432,2.1392,5.344
15.762000,4.6296,-0.9018,2.0573,5.146
15.763000,4.6920,-0.3316,1.9015,5.073
15.763000,4.7661,0.2642,1.7870,5.097
15.764000,4.9442,0.9040,1.7379,5.318
15.764000,5.1630,1.5127,1.7823,5.668
15.764000,5.3308,2.0371,1.8907,6.012
15.765000,5.3990,2.4549,1.9597,6.246
15.768000,5.4128,2.7683,1.9895,6.397
15.773000,5.3717,2.9890,2.0064,6.466
15.778000,5.2730,3.0999,2.0368,6.447
15.782000,5.1123,3.0845,2.0995,6.329
15.787000,4.8922,2.8732,2.1657,6.073
15.793000,4.6131,2.4738,2.1731,5.668
15.797000,4.3263,1.9633,2.0861,5.189
15.802000,4.0282,1.4864,1.8811,4.688
15.849000,3.6998,1.1248,1.5260,4.157
15.850000,3.3593,0.8604,1.1079,3.640
15.850000,3.0495,0.6384,0.7692,3.209
15.851000,2.8140,0.4711,0.5576,2.907
15.851000,2.6437,0.3493,0.4463,2.704
15.851000,2.5333,0.2892,0.4064,2.582
15.852000,2.4648,0.2555,0.4635,2.521
15.852000,2.4447,0.2212,0.6336,2.535
