SensorId, TimeStamp (s), FrameNumber, AccX (g), AccY (g), AccZ (g), GyroX (deg/s), GyroY (deg/s), GyroZ (deg/s), MagX (uT), MagY (uT), MagZ (uT), EulerX (deg), EulerY (deg), EulerZ (deg), QuatW, QuatX, QuatY, QuatZ, LinAccX (g), LinAccY (g), LinAccZ (g), Pressure (kPa), Altitude (m), Temperature (degC), HeaveMotion (m)
1, -0.0000, 0, -0.16854846, -0.97671926, 0.21941844, 1.16862690, 24.35485458, -13.57409096, 2.95235300, 17.68488693, -133.49897766, 97.70680237, 0.58302325, -46.28781509, -0.60351998, 0.69373196, -0.29288948, -0.26213640, 0.17823711, -0.01458230, -0.08752669, 100.07000732, 104.99607849, 33.39999771, 0.00000000
1, 0.0050, 1, -0.14018889, -0.96949041, 0.22438851, 1.01443481, 25.17254257, -14.32378674, 2.95235300, 17.68488693, -133.49897766, 97.71311951, 0.63734335, -46.15356445, -0.60364699, 0.69422841, -0.29180324, -0.26174080, 0.15050992, -0.02177577, -0.09214391, 100.07000732, 104.99607849, 33.39999771, 0.00000000
1, 0.0100, 2, -0.11323853, -0.96925604, 0.22157070, 0.19135956, 25.55232811, -14.47951889, 3.65390229, 18.41566849, -132.97280884, 97.71548462, 0.69216639, -46.01730728, -0.60380089, 0.69470841, -0.29069239, -0.26134774, 0.12452376, -0.02198659, -0.08920008, 100.07000732, 104.99607849, 33.39999771, 0.00000000
1, 0.0400, 3, -0.03836529, -0.97747374, 0.18787217, -0.11338809, 21.46151161, -13.94220543, 4.06313944, 18.32797432, -133.14819336, 97.70500946, 1.02500868, -45.24476624, -0.60475826, 0.69731700, -0.28420836, -0.25931069, 0.05554792, -0.01365336, -0.05552317, 100.07000732, 104.99607849, 33.39999771, 0.00000000
1, 0.0450, 4, -0.03970647, -0.97568583, 0.19119228, -0.21849960, 21.47952461, -13.27444744, 4.06313944, 18.32797432, -133.14819336, 97.70587158, 1.07656801, -45.12950516, -0.60488111, 0.69771785, -0.28323421, -0.25901198, 0.05779451, -0.01542783, -0.05882851, 100.07000732, 104.99607849, 33.39999771, 0.00000000
1, 0.0500, 5, -0.04298424, -0.97417688, 0.19512074, -0.24976321, 21.28764915, -12.54252625, 4.09237051, 18.35720444, -133.03128052, 97.72272491, 1.10978580, -45.02042389, -0.60493940, 0.69814724, -0.28243098, -0.25859550, 0.06178755, -0.01690936, -0.06261237, 100.07000732, 104.99607849, 33.39999771, 0.00000000
1, 0.0550, 6, -0.04516108, -0.96996701, 0.19600098, -0.21796040, 21.79007912, -11.68970203, 4.09237051, 18.35720444, -133.03128052, 97.72377014, 1.15325499, -44.90465164, -0.60508257, 0.69853038, -0.28149611, -0.25824469, 0.06461231, -0.02108636, -0.06333455, 100.07000732, 104.99607849, 33.39999771, 0.00000000
1, 0.0600, 7, -0.03564530, -0.96308017, 0.18705480, -0.15719204, 22.78598976, -11.07085037, 4.67699480, 18.15258598, -132.47587585, 97.72531128, 1.19298935, -44.78435898, -0.60524231, 0.69891810, -0.28055426, -0.25784615, 0.05582734, -0.02794146, -0.05433547, 100.07000732, 104.99607849, 33.39999771, 0.00000000
1, 0.0650, 8, -0.01890569, -0.95987797, 0.19010033, 0.05127219, 23.36212540, -10.32367706, 4.67699480, 18.15258598, -132.47587585, 97.72803497, 1.22863209, -44.66170502, -0.60541034, 0.69930780, -0.27962190, -0.25740740, 0.03971898, -0.03112962, -0.05729253, 100.07000732, 104.99607849, 33.39999771, 0.00000000
1, 0.0700, 9, -0.00221895, -0.96036911, 0.20728749, 0.19133316, 23.72710228, -9.51056004, 4.67699480, 18.15258598, -132.47587585, 97.73155975, 1.25999701, -44.53776932, -0.60558695, 0.69969457, -0.27870581, -0.25693390, 0.02355661, -0.03064678, -0.07438309, 100.07000732, 104.99607849, 33.39999771, 0.00000000
1, 0.0750, 10, 0.02104345, -0.95407450, 0.21098019, 0.00933910, 24.23097038, -8.79518890, 4.35545158, 18.59105492, -132.56358337, 97.73429108, 1.28747475, -44.41181946, -0.60578239, 0.70007271, -0.27779594, -0.25642806, 0.00078147, -0.03692933, -0.07795614, 100.07000732, 104.99607849, 33.39999771, 0.00000000
1, 0.1150, 11, 0.12282950, -0.97693837, 0.12241354, 2.34910846, 12.94792747, 3.63003206, 5.90470600, 18.47413063, -132.09587097, 97.82973480, 1.31439257, -43.63927841, -0.60684514, 0.70249087, -0.27313602, -0.25227445, -0.10007356, -0.01368542, 0.01242598, 100.07000732, 104.99607849, 33.39999771, 0.00000000
1, 0.1200, 12, 0.11840581, -0.98087573, 0.11506062, 2.62758613, 10.92100048, 5.47099257, 5.90470600, 18.47413063, -132.09587097, 97.84407043, 1.27996302, -43.58884430, -0.60695434, 0.70261604, -0.27304259, -0.25176373, -0.09619841, -0.00971534, 0.02000559, 100.07000732, 104.99607849, 33.39999771, 0.00000000
1, 0.1250, 13, 0.10824683, -0.98281205, 0.10788773, 2.68986130, 9.13500118, 7.35549927, 5.40777540, 18.18181801, -131.24816895, 97.85851288, 1.23738527, -43.54853058, -0.60706079, 0.70270085, -0.27305490, -0.25125670, -0.08673022, -0.00774855, 0.02740196, 100.07000732, 104.99607849, 33.39999771, 0.00000000
1, 0.1300, 14, 0.09688569, -0.98678637, 0.10887917, 2.89260793, 7.49033880, 9.20653534, 5.40777540, 18.18181801, -131.24816895, 97.87373352, 1.18675685, -43.51763916, -0.60716140, 0.70275080, -0.27316967, -0.25074854, -0.07621924, -0.00375771, 0.02663877, 100.07000732, 104.99607849, 33.39999771, 0.00000000
1, 0.1350, 15, 0.08669320, -0.98872018, 0.10650539, 3.12191248, 6.54717350, 10.86364079, 5.05700064, 18.21105003, -131.30664063, 97.88997650, 1.12852991, -43.49255753, -0.60726172, 0.70277655, -0.27336273, -0.25022230, -0.06700489, -0.00180194, 0.02926179, 100.07000732, 104.99607849, 33.39999771, 0.00000000
1, 0.1400, 16, 0.07741750, -0.99365604, 0.09811600, 3.60256124, 5.33526039, 12.19567108, 5.05700064, 18.21105003, -131.30664063, 97.90851593, 1.06454825, -43.47439575, -0.60734689, 0.70278609, -0.27363387, -0.24969202, -0.05880067, 0.00316936, 0.03793082, 100.07000732, 104.99607849, 33.39999771, 0.00000000
1, 0.1450, 17, 0.04344810, -1.00272846, 0.07435735, 3.90361905, 4.32477951, 13.78015327, 5.05700064, 18.21105003, -131.30664063, 97.92840576, 0.99339342, -43.46233749, -0.60742795, 0.70277327, -0.27398348, -0.24914691, -0.02597670, 0.01230630, 0.06193431, 100.07000732, 104.99607849, 33.39999771, 0.00000000
1, 0.1500, 18, 0.01783192, -1.00723302, 0.08820274, 4.19702959, 3.81580186, 14.78079987, 5.20315695, 17.77258110, -131.80355835, 97.93614197, 0.91290385, -43.44516754, -0.60761750, 0.70268875, -0.27432498, -0.24854660, -0.00174366, 0.01679909, 0.04826140, 100.07000732, 104.99607849, 33.39999771, 0.00000000
1, 0.1550, 19, -0.00611715, -1.01794362, 0.10301317, 4.49357843, 3.03002071, 15.70470428, 5.20315695, 17.77258110, -131.80355835, 97.95886993, 0.83309925, -43.44088745, -0.60768503, 0.70265406, -0.27477410, -0.24798265, 0.02074850, 0.02750155, 0.03365093, 100.07000732, 104.99607849, 33.39999771, 0.00000000
1, 0.1600, 20, -0.02063888, -1.02740026, 0.09084605, 4.64996958, 2.03745675, 16.48525429, 5.32008171, 17.50950050, -131.54048157, 97.98232269, 0.75011653, -43.44208527, -0.60774392, 0.70260316, -0.27527499, -0.24742633, 0.03386555, 0.03701458, 0.04617281, 100.07000732, 104.99607849, 33.39999771, 0.00000000
1, 0.2100, 21, -0.17490925, -0.95999074, 0.18666400, 7.25905657, 1.51653397, 18.82317352, 4.53083897, 16.36948204, -132.30049133, 98.30712891, -0.22968456, -43.54167175, -0.60794616, 0.70202243, -0.28178602, -0.24116945, 0.17084301, -0.02984103, -0.04435126, 100.07000732, 104.99607849, 33.39999771, 0.00000000
1, 0.2150, 22, -0.16464825, -0.95416057, 0.18881099, 7.11303616, 1.79707420, 18.69151306, 4.53083897, 16.36948204, -132.30049133, 98.34296417, -0.32337198, -43.54614639, -0.60794550, 0.70200181, -0.28238466, -0.24053009, 0.15894017, -0.03557621, -0.04584087, 100.07000732, 104.99607849, 33.39999771, 0.00000000
1, 0.2200, 23, -0.15786622, -0.94454169, 0.18618479, 6.87194824, 1.13432360, 18.64373207, 4.53083897, 16.36948204, -132.30049133, 98.37760162, -0.41635159, -43.55392075, -0.60794318, 0.70196784, -0.28299674, -0.23991501, 0.15053743, -0.04509279, -0.04258100, 100.07000732, 104.99607849, 33.39999771, 0.00000000
1, 0.2250, 24, -0.15416241, -0.93124199, 0.19560860, 6.95029449, 0.51090032, 18.52271843, 4.23852682, 17.24641991, -132.44665527, 98.41268158, -0.50827539, -43.56474686, -0.60792899, 0.70193034, -0.28362224, -0.23932105, 0.14520080, -0.05830684, -0.05137343, 100.07000732, 104.99607849, 33.39999771, 0.00000000
1, 0.2300, 25, -0.15018833, -0.92424083, 0.21650936, 7.13302803, 0.09561186, 18.47544098, 4.23852682, 17.24641991, -132.44665527, 98.44868469, -0.59966242, -43.57765579, -0.60790330, 0.70189339, -0.28425908, -0.23873866, 0.13957885, -0.06523629, -0.07163778, 100.07000732, 104.99607849, 33.39999771, 0.00000000
1, 0.2350, 26, -0.15308702, -0.91893816, 0.23187120, 7.13229227, 0.10145034, 18.23022270, 3.71236467, 16.77871895, -132.62203979, 98.48472595, -0.68981975, -43.59040070, -0.60787451, 0.70185912, -0.28488797, -0.23816243, 0.14085844, -0.07045434, -0.08637713, 100.07000732, 104.99607849, 33.39999771, 0.00000000
1, 0.2400, 27, -0.16022019, -0.91970575, 0.22544043, 7.10321665, -0.51708454, 17.86532974, 3.71236467, 16.77871895, -132.62203979, 98.52066803, -0.77772999, -43.60601044, -0.60783482, 0.70182145, -0.28552169, -0.23761494, 0.14646232, -0.06956473, -0.07934843, 100.07000732, 104.99607849, 33.39999771, 0.00000000
1, 0.2450, 28, -0.17272797, -0.92400980, 0.22697586, 7.47004175, -1.51586688, 17.52138329, 3.71236467, 16.77871895, -132.41741943, 98.55854034, -0.86318105, -43.62636185, -0.60776746, 0.70178699, -0.28617501, -0.23710252, 0.15746559, -0.06514608, -0.08028141, 100.07000732, 104.99607849, 33.39999771, 0.00000000
1, 0.2500, 29, -0.18212558, -0.93024957, 0.23684566, 7.67556524, -0.91637820, 17.28769112, 4.03390837, 17.48026848, -132.41741943, 98.62884521, -1.00079858, -43.64877701, -0.60762298, 0.70180583, -0.28718176, -0.23619792, 0.16489592, -0.05875020, -0.08924985, 100.07000732, 104.99607849, 33.39999771, 0.00000000
1, 0.2550, 30, -0.18600422, -0.93511450, 0.23773403, 7.99426460, -0.90268511, 16.82828140, 4.03390837, 17.48026848, -132.41741943, 98.66934967, -1.08322191, -43.66572952, -0.60753894, 0.70179915, -0.28780234, -0.23567826, 0.16686045, -0.05370795, -0.08919896, 100.07000732, 104.99607849, 33.39999771, 0.00000000
1, 0.2950, 31, -0.14499350, -0.93558192, 0.19561392, 6.02270174, -3.50311279, 12.69029236, 4.44314528, 15.37562084, -132.85589600, 98.95092773, -1.62425947, -43.78924561, -0.60686356, 0.70179540, -0.29196906, -0.23227988, 0.11641787, -0.05219354, -0.04211421, 100.07000732, 104.99607849, 33.39999771, 0.00000000
1, 0.3000, 32, -0.14084147, -0.92576265, 0.20095812, 5.74971151, -4.51009798, 12.45945263, 4.44314528, 15.37562084, -132.85589600, 99.00095367, -1.72278416, -43.82303619, -0.60672504, 0.70175695, -0.29279187, -0.23172168, 0.11087892, -0.06187248, -0.04674187, 100.07000732, 104.99607849, 33.39999771, 0.00000000
1, 0.3050, 33, -0.15357193, -0.91909635, 0.18892211, 5.40329075, -5.37347651, 12.02265739, 4.44314528, 15.37562084, -132.85589600, 99.02922821, -1.77794492, -43.85892105, -0.60661161, 0.70169294, -0.29335663, -0.23149803, 0.12230919, -0.06837425, -0.03406825, 100.07000732, 104.99607849, 33.39999771, 0.00000000
1, 0.3100, 34, -0.17363638, -0.92791402, 0.17557101, 5.67075777, -6.93515491, 11.87687206, 3.59543991, 16.92487526, -132.59280396, 99.05908966, -1.83113933, -43.90240097, -0.60646844, 0.70162183, -0.29396057, -0.23132238, 0.14147386, -0.05942551, -0.02028070, 100.07000732, 104.99607849, 33.39999771, 0.00000000
1, 0.3150, 35, -0.19296230, -0.94638336, 0.18413793, 6.21257353, -7.62658119, 11.85349464, 3.59543991, 16.92487526, -132.59280396, 99.09183502, -1.88364327, -43.94933701, -0.60629916, 0.70155817, -0.29458764, -0.23116161, 0.15985928, -0.04085252, -0.02837634, 100.07000732, 104.99607849, 33.39999771, 0.00000000
1, 0.3200, 36, -0.18886225, -0.94916773, 0.18297583, 5.71374846, -7.65498114, 11.40348911, 3.09850907, 16.66179466, -132.94358826, 99.12211609, -1.93388832, -43.99607468, -0.60614008, 0.70148647, -0.29519647, -0.23101979, 0.15487438, -0.03795188, -0.02667987, 100.07000732, 104.99607849, 33.39999771, 0.00000000
1, 0.3250, 37, -0.18624035, -0.94594455, 0.18157311, 5.57767010, -8.24049187, 11.07579613, 3.09850907, 16.66179466, -132.94358826, 99.15181732, -1.98203659, -44.04548264, -0.60597420, 0.70140898, -0.29580936, -0.23090629, 0.15140814, -0.04106209, -0.02475879, 100.07000732, 104.99607849, 33.39999771, 0.00000000
1, 0.3300, 38, -0.18190487, -0.93936658, 0.19025429, 5.75935602, -8.58449364, 10.96012688, 3.09850907, 16.66179466, -132.94358826, 99.18254852, -2.02930832, -44.09652328, -0.60579675, 0.70133418, -0.29642949, -0.23080391, 0.14622186, -0.04754142, -0.03289903, 100.07000732, 104.99607849, 33.39999771, 0.00000000
1, 0.3350, 39, -0.17367777, -0.93809342, 0.20865847, 5.57745981, -8.23882389, 11.00573444, 2.71850324, 16.77871895, -133.06050110, 99.21234894, -2.07706523, -44.14592361, -0.60562956, 0.70125699, -0.29703996, -0.23069194, 0.13711956, -0.04873101, -0.05076276, 100.07000732, 104.99607849, 33.39999771, 0.00000000
1, 0.3400, 40, -0.15834999, -0.94003630, 0.20777975, 5.04925156, -8.69442081, 10.93149471, 2.71850324, 16.77871895, -133.06050110, 99.23960876, -2.12406993, -44.19754028, -0.60547179, 0.70116186, -0.29765475, -0.23060268, 0.12096788, -0.04667911, -0.04937480, 100.07000732, 104.99607849, 33.39999771, 0.00000000
1, 0.3750, 41, -0.14703678, -0.95799744, 0.24334849, 3.02125931, -11.56961441, 10.99393463, 2.36772871, 16.42794418, -133.41128540, 99.42773438, -2.47745585, -44.62619781, -0.60431081, 0.70023453, -0.30248386, -0.23018162, 0.10339217, -0.02799477, -0.08170994, 100.07000732, 104.99607849, 33.39999771, 0.00000000
1, 0.3800, 42, -0.15473835, -0.96230447, 0.25689575, 3.17565179, -12.60927582, 10.82697964, 2.36772871, 16.42794418, -133.41128540, 99.44685364, -2.52059531, -44.69726181, -0.60415542, 0.70004928, -0.30317914, -0.23023820, 0.11030400, -0.02362402, -0.09496644, 100.07000732, 104.99607849, 33.39999771, 0.00000000
1, 0.3850, 43, -0.17257404, -0.96621633, 0.26240498, 3.07629013, -13.23511696, 10.74322414, 1.92926037, 16.31101990, -134.05436707, 99.46566010, -2.56279707, -44.77135086, -0.60399371, 0.69985592, -0.30388728, -0.23031718, 0.12738562, -0.01963408, -0.10020185, 100.07000732, 104.99607849, 33.39999771, 0.00000000
1, 0.3900, 44, -0.19789495, -0.96470404, 0.25674754, 2.51607871, -13.97117043, 10.73281097, 1.92926037, 16.31101990, -134.05436707, 99.48187256, -2.60432291, -44.84908295, -0.60383886, 0.69963998, -0.30460861, -0.23042616, 0.15199336, -0.02105669, -0.09432167, 100.07000732, 104.99607849, 33.39999771, 0.00000000
1, 0.3950, 45, -0.21516128, -0.96071315, 0.25263128, 2.30542111, -14.24653625, 10.51861572, 1.72464192, 14.44022179, -133.99591064, 99.49716187, -2.64455914, -44.92803192, -0.60368425, 0.69941813, -0.30532861, -0.23055185, 0.16856387, -0.02496394, -0.08997855, 100.07000732, 104.99607849, 33.39999771, 0.00000000
1, 0.4000, 46, -0.23539048, -0.95150101, 0.25239444, 2.05019832, -13.78956604, 10.25233936, 1.72464192, 14.44022179, -133.99591064, 99.54083252, -2.74479842, -45.00662994, -0.60350269, 0.69920784, -0.30641210, -0.23022741, 0.18757249, -0.03403578, -0.08928733, 100.07000732, 104.99607849, 33.39999771, 0.00000000
1, 0.4050, 47, -0.24474445, -0.94259167, 0.25187278, 1.93387270, -13.14727592, 9.56808567, 1.72464192, 14.44022179, -133.99591064, 99.55411530, -2.78117418, -45.07941437, -0.60336363, 0.69899905, -0.30706990, -0.23034942, 0.19574691, -0.04280718, -0.08829772, 100.07000732, 104.99607849, 33.39999771, 0.00000000
1, 0.4100, 48, -0.24540231, -0.93951762, 0.25017416, 1.68576360, -13.37647247, 8.86473751, 2.45542240, 14.96638393, -133.84974670, 99.56624603, -2.81386638, -45.15275192, -0.60322160, 0.69879067, -0.30770963, -0.23050015, 0.19582292, -0.04581440, -0.08638620, 100.07000732, 104.99607849, 33.39999771, 0.00000000
1, 0.4150, 49, -0.24179615, -0.94014812, 0.25264037, 1.96366453, -12.97519398, 8.20477295, 2.45542240, 14.96638393, -133.84974670, 99.57967377, -2.84361577, -45.22358322, -0.60306954, 0.69860202, -0.30832133, -0.23065230, 0.19168118, -0.04512467, -0.08862642, 100.07000732, 104.99607849, 33.39999771, 0.00000000
1, 0.4200, 50, -0.23434325, -0.94839025, 0.26223272, 2.16614866, -12.19415474, 7.65997648, 1.28617358, 16.19409561, -133.17742920, 99.59390259, -2.87131810, -45.29011536, -0.60291618, 0.69843340, -0.30889776, -0.23079219, 0.18371058, -0.03683251, -0.09797205, 100.07000732, 104.99607849, 33.39999771, 0.00000000
1, 0.4600, 51, -0.25026679, -0.94565320, 0.21356025, 1.01531911, -12.25989342, 2.69564939, 1.08155513, 15.69716454, -133.99591064, 99.70940399, -3.04534912, -45.81915283, -0.60157001, 0.69719750, -0.31324413, -0.23217970, 0.19661617, -0.03898917, -0.04735707, 100.07000732, 104.99607849, 33.39999771, 0.00000000
1, 0.4650, 52, -0.26918319, -0.94278681, 0.20505343, 1.28631198, -11.26853371, 2.11994219, 1.08155513, 15.69716454, -133.99591064, 99.71891022, -3.04636192, -45.87653732, -0.60139823, 0.69708806, -0.31361771, -0.23244861, 0.21552630, -0.04181266, -0.03873251, 100.07000732, 104.99607849, 33.39999771, 0.00000000
1, 0.4700, 53, -0.28046367, -0.94239759, 0.20904686, 1.30805016, -10.27688885, 1.44225824, 0.49693072, 15.98947620, -133.96667480, 99.72822571, -3.04487205, -45.92847443, -0.60123253, 0.69699824, -0.31394494, -0.23270488, 0.22681224, -0.04218180, -0.04259305, 100.07000732, 104.99607849, 33.39999771, 0.00000000
1, 0.4750, 54, -0.27616721, -0.94268978, 0.20550361, 1.43846524, -9.45750237, 0.72403252, 0.49693072, 15.98947620, -133.96667480, 99.73793030, -3.04051208, -45.97576141, -0.60106665, 0.69692981, -0.31422997, -0.23295337, 0.22258815, -0.04185897, -0.03887421, 100.07000732, 104.99607849, 33.39999771, 0.00000000
1, 0.4800, 55, -0.25517693, -0.94821441, 0.20933424, 1.46753168, -9.05927563, 0.10221516, 0.49693072, 15.98947620, -133.96667480, 99.74765015, -3.03340507, -46.02055740, -0.60089892, 0.69687468, -0.31448588, -0.23320571, 0.20170046, -0.03631737, -0.04249152, 100.07000732, 104.99607849, 33.39999771, 0.00000000
1, 0.4850, 56, -0.23194781, -0.95103765, 0.21794920, 1.28636241, -8.90827751, -0.45271450, 0.49693072, 15.46331501, -133.64512634, 99.75637817, -3.02368283, -46.06414413, -0.60073304, 0.69682366, -0.31471908, -0.23347054, 0.17861032, -0.03349033, -0.05089880, 100.07000732, 104.99607849, 33.39999771, 0.00000000
1, 0.4900, 57, -0.21198097, -0.94634151, 0.22587335, 0.79486334, -9.56156921, -0.98781210, 0.49693072, 15.46331501, -133.64512634, 99.76277161, -3.01078629, -46.11051178, -0.60056770, 0.69676030, -0.31494823, -0.23377591, 0.15883188, -0.03818959, -0.05864249, 100.07000732, 104.99607849, 33.39999771, 0.00000000
1, 0.4950, 58, -0.20530696, -0.93771851, 0.23397985, 0.62008268, -9.87059402, -1.23831820, -0.46769950, 15.66793346, -134.14205933, 99.76834869, -2.99639082, -46.15818024, -0.60040081, 0.69669247, -0.31517598, -0.23409957, 0.15238366, -0.04682192, -0.06662028, 100.07000732, 104.99607849, 33.39999771, 0.00000000
1, 0.5000, 59, -0.20249826, -0.93347800, 0.23575547, 0.73001146, -10.24169731, -1.70424139, -0.46769950, 15.66793346, -134.14205933, 99.82328796, -3.07616305, -46.21047974, -0.60015792, 0.69664747, -0.31601292, -0.23372793, 0.14901088, -0.05094546, -0.06786263, 100.07000732, 104.99607849, 33.39999771, 0.00000000
1, 0.5050, 60, -0.20912868, -0.93570912, 0.23956017, 0.87812036, -10.82217121, -2.14058900, -0.46769950, 15.66793346, -134.14205933, 99.83040619, -3.05645537, -46.26206589, -0.59996039, 0.69658917, -0.31624064, -0.23410054, 0.15511876, -0.04860128, -0.07115485, 100.07000732, 104.99607849, 33.39999771, 0.00000000
1, 0.5700, 61, -0.17267075, -0.97027767, 0.19313499, 0.55346358, -0.49587500, -10.23274326, 0.40923706, 14.52791595, -134.75592041, 99.91181946, -2.67110801, -46.40705490, -0.59820467, 0.69752556, -0.31532595, -0.23702082, 0.12536122, -0.01403505, -0.02321867, 100.07000732, 104.99607849, 33.39999771, 0.00000000
1, 0.5750, 62, -0.19304886, -0.96260011, 0.17379396, 0.86997026, -0.18141346, -10.15917397, 0.40923706, 14.52791595, -134.75592041, 99.91567993, -2.62088633, -46.39928055, -0.59807110, 0.69768530, -0.31503054, -0.23728049, 0.14666627, -0.02171169, -0.00385545, 100.07000732, 104.99607849, 33.39999771, 0.00000000
1, 0.5800, 63, -0.20322691, -0.95616341, 0.17213260, 1.66948950, 1.32598650, -10.27363110, 0.40923706, 15.96024513, -134.34667969, 99.92321777, -2.57138181, -46.38396835, -0.59793246, 0.69788301, -0.31470048, -0.23748627, 0.15771581, -0.02816457, -0.00208735, 100.07000732, 104.99607849, 33.39999771, 0.00000000
1, 0.5850, 64, -0.20843413, -0.95563161, 0.16559970, 1.93158841, 3.14358401, -10.44395638, 0.40923706, 15.96024513, -134.34667969, 99.93165588, -2.52260303, -46.35954285, -0.59780902, 0.69810855, -0.31432042, -0.23763758, 0.16379184, -0.02869795, 0.00458422, 100.07000732, 104.99607849, 33.39999771, 0.00000000
1, 0.5900, 65, -0.20234160, -0.95593333, 0.16812499, 2.08772969, 4.85997486, -10.79060745, 0.40923706, 15.96024513, -134.34667969, 99.94050598, -2.47357750, -46.32633972, -0.59770060, 0.69836050, -0.31388634, -0.23774359, 0.15854681, -0.02841112, 0.00222930, 100.07000732, 104.99607849, 33.39999771, 0.00000000
1, 0.5950, 66, -0.16377899, -0.96060789, 0.17707793, 2.14440894, 6.04577589, -10.83316898, 0.90616781, 15.52177715, -134.25898743, 99.94942474, -2.42535138, -46.28725052, -0.59760600, 0.69862682, -0.31342047, -0.23781380, 0.12080643, -0.02375998, -0.00647508, 100.07000732, 104.99607849, 33.39999771, 0.00000000
1, 0.6000, 67, -0.11540194, -0.96908319, 0.19400249, 2.22943187, 7.91889763, -10.47413445, 0.90616781, 15.52177715, -134.25898743, 99.97081757, -2.40720677, -46.23936844, -0.59752923, 0.69891155, -0.31308025, -0.23761797, 0.07295392, -0.01528999, -0.02302619, 100.07000732, 104.99607849, 33.39999771, 0.00000000
1, 0.6050, 68, -0.08327017, -0.97352993, 0.21555562, 1.69662237, 7.94061470, -10.11631393, 1.08155513, 15.84332085, -134.25898743, 99.97717285, -2.36416984, -46.19152451, -0.59748137, 0.69917560, -0.31258187, -0.23761761, 0.04129208, -0.01086002, -0.04427516, 100.07000732, 104.99607849, 33.39999771, 0.00000000
1, 0.6100, 69, -0.05458825, -0.97104919, 0.22340716, 1.41756880, 7.61145639, -9.55977154, 1.08155513, 15.84332085, -134.25898743, 99.98227692, -2.32359862, -46.14579010, -0.59744304, 0.69942117, -0.31210619, -0.23761651, 0.01331176, -0.01336712, -0.05195639, 100.07000732, 104.99607849, 33.39999771, 0.00000000
1, 0.6150, 70, -0.04567155, -0.97219300, 0.22924750, 1.50461400, 6.47818899, -8.74663925, 1.08155513, 15.84332085, -134.25898743, 99.98809052, -2.28606701, -46.10633087, -0.59739506, 0.69964600, -0.31168562, -0.23762739, 0.00504900, -0.01224195, -0.05767354, 100.07000732, 104.99607849, 33.39999771, 0.00000000
1, 0.6450, 71, -0.12586319, -0.94242954, 0.23247041, 1.56095994, 2.44158816, -5.96929121, 2.30926633, 14.11867905, -134.17129517, 100.02011871, -2.10293818, -45.97124863, -0.59701914, 0.70060247, -0.30999070, -0.23797077, 0.08846901, -0.04203767, -0.06048333, 100.07000732, 104.99607849, 33.39999771, 0.00000000
1, 0.6500, 72, -0.13525875, -0.94129944, 0.21715499, 1.64535284, 4.31971264, -5.82044315, 2.30926633, 14.11867905, -134.17129517, 100.05652618, -2.14924264, -45.94325638, -0.59697104, 0.70076132, -0.31013185, -0.23743954, 0.09772691, -0.04306968, -0.04481412, 100.07000732, 104.99607849, 33.39999771, 0.00000000
1, 0.6550, 73, -0.15637550, -0.94090700, 0.18977512, 1.83392060, 6.37616825, -5.80887890, 1.49079216, 15.37562084, -134.43437195, 100.06426239, -2.12612391, -45.90679932, -0.59694111, 0.70095342, -0.30980667, -0.23737195, 0.11870527, -0.04334302, -0.01711087, 100.07000732, 104.99607849, 33.39999771, 0.00000000
1, 0.6600, 74, -0.18273939, -0.94602799, 0.16679859, 2.68404937, 9.62130737, -5.74235153, 1.49079216, 15.37562084, -134.43437195, 100.07567596, -2.10614705, -45.85440445, -0.59692967, 0.70120037, -0.30940765, -0.23719203, 0.14548582, -0.03816522, 0.00597553, 100.07000732, 104.99607849, 33.39999771, 0.00000000
1, 0.6650, 75, -0.16598743, -0.96448839, 0.18557358, 2.80316734, 11.56936550, -5.59227848, 1.49079216, 15.37562084, -134.43437195, 100.08736420, -2.08860373, -45.79253769, -0.59694207, 0.70146847, -0.30896348, -0.23694697, 0.12900183, -0.01971056, -0.01258074, 100.07000732, 104.99607849, 33.39999771, 0.00000000
1, 0.6700, 76, -0.11669347, -0.97977889, 0.19829017, 1.87068617, 12.25313759, -5.38884974, 1.81233561, 15.17100239, -134.34667969, 100.09428406, -2.07267880, -45.72746277, -0.59699428, 0.70171630, -0.30849791, -0.23668809, 0.07996195, -0.00442612, -0.02505744, 100.07000732, 104.99607849, 33.39999771, 0.00000000
1, 0.6750, 77, -0.06066030, -0.98295593, 0.19597711, 1.17189121, 11.29779053, -5.01715136, 1.81233561, 15.17100239, -134.34667969, 100.09792328, -2.05778122, -45.66744232, -0.59705859, 0.70193076, -0.30806157, -0.23645802, 0.02419820, -0.00124148, -0.02253411, 100.07000732, 104.99607849, 33.39999771, 0.00000000
1, 0.6800, 78, -0.02117196, -0.98061037, 0.19182335, 0.84118587, 9.42807007, -4.14615059, 1.46156096, 15.43408298, -134.34667969, 100.10028839, -2.04553556, -45.61738205, -0.59711671, 0.70210558, -0.30769709, -0.23626676, -0.01505180, -0.00358096, -0.01823561, 100.07000732, 104.99607849, 33.39999771, 0.00000000
1, 0.6850, 79, -0.00061198, -0.97037041, 0.19949086, 1.15605700, 7.17447996, -3.01209998, 1.46156096, 15.43408298, -134.34667969, 100.10467529, -2.03692555, -45.57940674, -0.59714663, 0.70225000, -0.30742937, -0.23611054, -0.03546624, -0.01382726, -0.02576783, 100.07000732, 104.99607849, 33.39999771, 0.00000000
1, 0.6900, 80, -0.00287980, -0.96312666, 0.21282370, 1.44311368, 4.32381821, -1.68161309, 1.46156096, 15.43408298, -134.34667969, 100.11106873, -2.03238249, -45.55664063, -0.59714299, 0.70235473, -0.30727974, -0.23600295, -0.03313297, -0.02107842, -0.03899340, 100.07000732, 104.99607849, 33.39999771, 0.00000000
1, 0.7400, 81, -0.18841949, -0.93513000, 0.32576290, 0.25757378, -5.09718227, 4.41831779, 0.87693655, 15.14177132, -134.78515625, 100.28125763, -2.19101238, -45.82191467, -0.59595078, 0.70216340, -0.31006652, -0.23594061, 0.14944515, -0.04863346, -0.14942014, 100.07000732, 104.99607849, 33.39999771, 0.00000000
1, 0.7450, 82, -0.19412689, -0.93556201, 0.33585703, -0.24847640, -4.56446981, 3.80651808, 0.96463019, 14.73253441, -134.66822815, 100.28105927, -2.20570970, -45.84774780, -0.59593576, 0.70205867, -0.31029937, -0.23598427, 0.15486202, -0.04820675, -0.15952443, 100.07000732, 104.99607849, 33.39999771, 0.00000000
1, 0.7500, 83, -0.19466035, -0.94934118, 0.35945919, -0.35956761, -4.34155369, 3.18230605, 0.96463019, 14.73253441, -134.66822815, 100.45613098, -2.35192418, -45.93690109, -0.59504670, 0.70239007, -0.31195018, -0.23506352, 0.15394527, -0.03413809, -0.18166403, 100.07000732, 104.99607849, 33.39999771, 0.00000000
1, 0.7550, 84, -0.18832098, -0.96871972, 0.37156826, -0.96393341, -4.53744078, 2.41418219, 1.02309263, 14.87869072, -133.96667480, 100.45235443, -2.35973120, -45.96141052, -0.59503919, 0.70228565, -0.31213233, -0.23515253, 0.14624932, -0.01446027, -0.19233792, 100.07000732, 104.99607849, 33.39999771, 0.00000000
1, 0.7600, 85, -0.18412460, -0.98965859, 0.37703216, -1.68796897, -3.68667626, 1.53232062, 1.02309263, 14.87869072, -133.96667480, 100.44474030, -2.36397648, -45.98094559, -0.59505641, 0.70218313, -0.31225801, -0.23524833, 0.14195034, 0.00645152, -0.19794345, 100.07000732, 104.99607849, 33.39999771, 0.00000000
1, 0.7650, 86, -0.18894577, -1.00651109, 0.36578003, -2.47852612, -3.25091529, 0.50120515, 1.02309263, 14.87869072, -133.96667480, 100.43302917, -2.36354756, -45.99739075, -0.59509331, 0.70207846, -0.31233254, -0.23536831, 0.14679003, 0.02328884, -0.18691616, 100.07000732, 104.99607849, 33.39999771, 0.00000000
1, 0.7700, 87, -0.21602443, -1.00953078, 0.32881504, -2.74076724, -2.32891941, -0.27968055, 1.16924870, 15.46331501, -134.37591553, 100.41977692, -2.36012268, -46.00862122, -0.59514284, 0.70198697, -0.31235668, -0.23548402, 0.17400552, 0.02632651, -0.15024449, 100.07000732, 104.99607849, 33.39999771, 0.00000000
1, 0.7750, 88, -0.23836878, -1.01275873, 0.31211963, -2.78565264, -1.68849742, -0.85973161, 1.16924870, 15.46331501, -134.37591553, 100.40615845, -2.35440969, -46.01617050, -0.59519637, 0.70190877, -0.31234586, -0.23559588, 0.19648053, 0.02953631, -0.13383748, 100.07000732, 104.99607849, 33.39999771, 0.00000000
1, 0.8300, 89, -0.12836397, -0.97540128, 0.21779336, -4.22345161, -4.12931442, -4.19451189, 0.99386144, 15.17100239, -134.75592041, 100.20022583, -2.26454020, -46.05185699, -0.59615725, 0.70094877, -0.31168208, -0.23690012, 0.08820095, -0.00836334, -0.04267246, 100.07000732, 104.99607849, 33.39999771, 0.00000000
1, 0.8350, 90, -0.14008555, -0.97493088, 0.20848642, -4.29436636, -4.10014343, -3.98260093, 0.99386144, 15.17100239, -134.75592041, 100.17935944, -2.24140549, -46.06858063, -0.59619206, 0.70084822, -0.31162322, -0.23718736, 0.10035287, -0.00889887, -0.03374942, 100.07000732, 104.99607849, 33.39999771, 0.00000000
1, 0.8400, 91, -0.14561421, -0.97814202, 0.20078704, -4.13661814, -5.29238558, -3.59240079, 0.99386144, 15.17100239, -134.75592041, 100.15953827, -2.21913576, -46.09150696, -0.59620970, 0.70073420, -0.31160879, -0.23749866, 0.10629340, -0.00575209, -0.02641141, 100.07000732, 104.99607849, 33.39999771, 0.00000000
1, 0.8450, 92, -0.14285253, -0.98087406, 0.19938743, -4.19768858, -6.00254059, -3.04771519, 1.14001751, 15.31715870, -134.84361267, 100.13954163, -2.19894934, -46.11843491, -0.59622526, 0.70060360, -0.31162900, -0.23781827, 0.10389972, -0.00309289, -0.02534887, 100.07000732, 104.99607849, 33.39999771, 0.00000000
1, 0.8500, 93, -0.13295491, -0.98081839, 0.19893067, -4.05187082, -6.12405062, -2.28131938, 1.14001751, 15.31715870, -134.84361267, 100.13804626, -2.24312973, -46.14028931, -0.59630042, 0.70043409, -0.31198484, -0.23766220, 0.09377603, -0.00317146, -0.02505027, 100.07000732, 104.99607849, 33.39999771, 0.00000000
1, 0.8550, 94, -0.13020033, -0.98384893, 0.21696393, -4.29839802, -6.20839548, -1.75440884, 1.52002335, 15.08330917, -134.43437195, 100.11766815, -2.22913218, -46.16935730, -0.59632933, 0.70028138, -0.31204885, -0.23795570, 0.09070411, -0.00019390, -0.04327213, 100.07000732, 104.99607849, 33.39999771, 0.00000000
1, 0.8600, 95, -0.13047360, -0.98553157, 0.25046340, -5.19332457, -5.63457251, -1.30871308, 1.52002335, 15.08330917, -134.43437195, 100.09271240, -2.21786618, -46.19599533, -0.59639806, 0.70010501, -0.31210226, -0.23823211, 0.09110035, 0.00135386, -0.07717827, 100.07000732, 104.99607849, 33.39999771, 0.00000000
1, 0.8650, 96, -0.12509362, -0.97928274, 0.29254502, -6.32801056, -2.93263650, -1.08965838, 1.08155513, 15.28792763, -134.84361267, 100.06159210, -2.21002769, -46.20951462, -0.59654027, 0.69992435, -0.31208009, -0.23843578, 0.08576830, -0.00506025, -0.11974318, 100.07000732, 104.99607849, 33.39999771, 0.00000000
1, 0.8700, 97, -0.08559275, -0.96828854, 0.26803029, -7.34386683, -1.27068043, -1.03711331, 1.08155513, 15.28792763, -134.84361267, 100.02507019, -2.20391154, -46.21490097, -0.59673673, 0.69973373, -0.31200576, -0.23860118, 0.04643967, -0.01612630, -0.09571983, 100.07000732, 104.99607849, 33.39999771, 0.00000000
1, 0.8750, 98, -0.06613152, -0.95627308, 0.25751272, -7.40514994, -2.01063991, -0.70344859, 1.08155513, 15.28792763, -134.84361267, 99.98837280, -2.19881439, -46.22422409, -0.59692848, 0.69952905, -0.31196022, -0.23878118, 0.02710197, -0.02824082, -0.08577180, 100.07000732, 104.99607849, 33.39999771, 0.00000000
1, 0.9250, 99, -0.12660596, -0.93387246, 0.21794175, -8.30412292, 8.13300514, 1.58280015, 1.84156680, 14.32329750, -135.16516113, 99.64479828, -2.38225436, -46.10145950, -0.59973943, 0.69764239, -0.31143576, -0.23794025, 0.08456019, -0.05147064, -0.05220621, 100.07000732, 104.99607849, 33.39999771, 0.00000000
1, 0.9300, 100, -0.10091652, -0.93551278, 0.22402066, -8.15977287, 8.05464363, 1.99972093, 0.78924292, 15.55100822, -135.25285339, 99.60243225, -2.39888000, -46.06337357, -0.60011792, 0.69748527, -0.31120118, -0.23775321, 0.05857725, -0.04995361, -0.05896045, 100.07000732, 104.99607849, 33.39999771, 0.00000000
1, 0.9350, 101, -0.09803782, -0.93604159, 0.22697727, -7.97535896, 7.62601042, 2.51293945, 0.78924292, 15.55100822, -135.25285339, 99.56108093, -2.41766405, -46.02781296, -0.60049027, 0.69732141, -0.31099540, -0.23756316, 0.05537191, -0.04953692, -0.06262660, 100.07000732, 104.99607849, 33.39999771, 0.00000000
1, 0.9400, 102, -0.10336468, -0.93615067, 0.21927789, -7.81875896, 6.63177824, 3.36355257, 0.90616781, 15.20023346, -134.87284851, 99.52076721, -2.43979526, -45.99785614, -0.60085279, 0.69713974, -0.31084314, -0.23737878, 0.06034542, -0.04951691, -0.05564073, 100.07000732, 104.99607849, 33.39999771, 0.00000000
1, 0.9450, 103, -0.11717919, -0.93905509, 0.20790640, -8.11965847, 5.21739197, 4.13987112, 0.90616781, 15.20023346, -134.87284851, 99.47926331, -2.46457911, -45.97550583, -0.60121322, 0.69692487, -0.31074846, -0.23722100, 0.07376572, -0.04669452, -0.04501794, 100.07000732, 104.99607849, 33.39999771, 0.00000000
1, 0.9500, 104, -0.12783906, -0.94216168, 0.20605764, -8.13637257, 3.77656674, 4.66657543, 0.90616781, 15.20023346, -134.87284851, 99.46446228, -2.53485703, -45.96415710, -0.60150146, 0.69671381, -0.31100968, -0.23676752, 0.08359431, -0.04363009, -0.04369210, 100.07000732, 104.99607849, 33.39999771, 0.00000000
1, 0.9550, 105, -0.12661788, -0.94708002, 0.20638146, -7.66159821, 2.80019808, 4.88262510, 1.05232382, 14.99561501, -134.84361267, 99.42576599, -2.56131577, -45.95431900, -0.60182267, 0.69647551, -0.31100580, -0.23665743, 0.08152698, -0.03875109, -0.04448133, 100.07000732, 104.99607849, 33.39999771, 0.00000000
1, 0.9600, 106, -0.13407338, -0.95582199, 0.21012066, -7.18996572, 2.03768659, 4.89349842, 1.05232382, 14.99561501, -134.84361267, 99.38961029, -2.58720231, -45.94824219, -0.60211927, 0.69624150, -0.31102717, -0.23656379, 0.08852045, -0.03009941, -0.04888416, 100.07000732, 104.99607849, 33.39999771, 0.00000000
1, 0.9650, 107, -0.15647236, -0.96512938, 0.19099668, -7.34789133, 0.36694744, 4.78558159, 1.95849168, 14.41099072, -134.34667969, 99.35302734, -2.61120486, -45.95029831, -0.60239667, 0.69598740, -0.31108749, -0.23652568, 0.11053675, -0.02084478, -0.03046009, 100.07000732, 104.99607849, 33.39999771, 0.00000000
1, 0.9700, 108, -0.17528206, -0.97580230, 0.16964693, -7.67567444, -1.96674287, 4.66402531, 1.95849168, 14.41099072, -134.34667969, 99.31532288, -2.63273406, -45.96378708, -0.60265112, 0.69570208, -0.31120220, -0.23656607, 0.12901269, -0.01022562, -0.00982250, 100.07000732, 104.99607849, 33.39999771, 0.00000000
1, 0.9750, 109, -0.18686403, -0.98594403, 0.18151203, -7.54962397, -3.63077784, 4.37739229, 1.95849168, 14.41099072, -134.34667969, 99.27863312, -2.65153170, -45.98524475, -0.60287613, 0.69540668, -0.31135333, -0.23666263, 0.14022526, -0.00019193, -0.02237045, 100.07000732, 104.99607849, 33.39999771, 0.00000000
1, 1.0000, 110, -0.21426821, -0.96437860, 0.18743585, -4.20547915, -3.98868871, 3.06441283, 0.58462435, 15.49254608, -134.55130005, 99.15164185, -2.86393571, -46.11835098, -0.60389656, 0.69387442, -0.31298989, -0.23639922, 0.16509458, -0.02205519, -0.03085615, 100.07000732, 104.99607849, 33.39999771, 0.00000000
1, 1.0050, 111, -0.18710089, -0.96660388, 0.19568518, -2.50531077, -0.73989743, 1.82327616, 0.49693072, 14.11867905, -134.78515625, 99.13939667, -2.87238622, -46.12344742, -0.60398108, 0.69377595, -0.31303895, -0.23640744, 0.13652897, -0.01977624, -0.03904750, 100.07000732, 104.99607849, 33.39999771, 0.00000000
1, 1.0100, 112, -0.13912949, -0.98330629, 0.21821904, -2.65754628, 2.76922822, 0.68202913, 0.49693072, 14.11867905, -134.78515625, 99.12544250, -2.87796879, -46.11030197, -0.60410643, 0.69372511, -0.31295928, -0.23634183, 0.08839639, -0.00314146, -0.06171273, 100.07000732, 104.99607849, 33.39999771, 0.00000000
1, 1.0150, 113, -0.07708178, -1.00456798, 0.19523880, -3.03924680, 4.76768064, -0.00157388, 0.52616191, 15.58023930, -135.04823303, 99.10907745, -2.88172293, -46.08671570, -0.60426342, 0.69369429, -0.31280208, -0.23623905, 0.02633364, 0.01811660, -0.03889370, 100.07000732, 104.99607849, 33.39999771, 0.00000000
1, 1.0200, 114, -0.07029488, -1.01960933, 0.22140391, -1.86193287, 7.45539093, 0.18771078, 0.52616191, 15.58023930, -135.04823303, 99.09790802, -2.88852310, -46.05000687, -0.60442346, 0.69371945, -0.31259176, -0.23603399, 0.01938187, 0.03308511, -0.06528515, 100.07000732, 104.99607849, 33.39999771, 0.00000000
1, 1.0250, 115, -0.06577088, -1.03129745, 0.26337612, -1.55124187, 14.11153412, 0.16714694, 0.52616191, 15.58023930, -135.04823303, 99.08664703, -2.90039706, -45.98037338, -0.60466415, 0.69382173, -0.31220809, -0.23562410, 0.01457048, 0.04468398, -0.10745122, 100.07000732, 104.99607849, 33.39999771, 0.00000000
1, 1.0300, 116, -0.04927272, -1.04919529, 0.24948166, -2.52004671, 17.82283974, 0.47825322, 0.78924292, 15.05407715, -134.02513123, 99.06959534, -2.91670632, -45.89261627, -0.60498774, 0.69393212, -0.31172562, -0.23510672, -0.00216163, 0.06257576, -0.09381148, 100.07000732, 104.99607849, 33.39999771, 0.00000000
1, 1.0350, 117, -0.04128858, -1.04456520, 0.20088932, -3.86430836, 17.34494591, 1.04480946, 0.78924292, 15.05407715, -134.02513123, 99.04594421, -2.93543458, -45.80764389, -0.60535109, 0.69399405, -0.31125903, -0.23460677, -0.01034091, 0.05798045, -0.04557518, 100.07000732, 104.99607849, 33.39999771, 0.00000000
1, 1.1000, 118, -0.07694867, -1.01563013, 0.19283246, -2.17606378, 25.37887764, 3.63341141, 0.93539900, 15.81408882, -133.38204956, 98.78874969, -3.37495947, -44.59414291, -0.61040574, 0.69486427, -0.30565795, -0.22614536, 0.01778965, 0.02875586, -0.04216620, 100.07000732, 104.99607849, 33.39999771, 0.00000000
1, 1.1050, 119, -0.08873648, -1.00128639, 0.18288925, -2.88895965, 22.71007156, 4.27991819, 1.37386727, 14.90792179, -133.93743896, 98.76789856, -3.41328382, -44.48492813, -0.61083758, 0.69495481, -0.30515310, -0.22538167, 0.02890713, 0.01442787, -0.03250096, 100.07000732, 104.99607849, 33.39999771, 0.00000000
1, 1.1100, 120, -0.10689522, -1.00136650, 0.18325128, -2.21940875, 20.40421295, 4.81232071, 1.37386727, 14.90792179, -133.93743896, 98.75102997, -3.45247078, -44.38752365, -0.61122310, 0.69503278, -0.30473232, -0.22466448, 0.04638752, 0.01450042, -0.03322019, 100.07000732, 104.99607849, 33.39999771, 0.00000000
1, 1.1150, 121, -0.13046835, -0.99338186, 0.17959937, -2.69875073, 19.05619049, 5.66259623, 0.90616781, 15.34638977, -133.38204956, 98.73213959, -3.49482775, -44.29741287, -0.61161315, 0.69507277, -0.30436832, -0.22397146, 0.06924698, 0.00651723, -0.02993056, 100.07000732, 104.99607849, 33.39999771, 0.00000000
1, 1.1200, 122, -0.15379870, -0.97625411, 0.16519341, -3.56080723, 16.94473076, 6.25418186, 0.90616781, 15.34638977, -133.38204956, 98.70955658, -3.53849339, -44.21819687, -0.61200649, 0.69506085, -0.30407020, -0.22333784, 0.09185523, -0.01059845, -0.01593743, 100.07000732, 104.99607849, 33.39999771, 0.00000000
1, 1.1250, 123, -0.18414566, -0.95542800, 0.14322980, -3.63818097, 14.60157776, 6.61994362, 0.90616781, 15.34638977, -133.38204956, 98.68727112, -3.58219552, -44.15084457, -0.61237442, 0.69501871, -0.30384505, -0.22276631, 0.12149458, -0.03140165, 0.00558741, 100.07000732, 104.99607849, 33.39999771, 0.00000000
1, 1.1300, 124, -0.20750673, -0.93606842, 0.13931647, -2.62639856, 13.47571182, 7.45653296, 1.16924870, 15.87255192, -134.11282349, 98.67039490, -3.62915063, -44.08966827, -0.61270446, 0.69498134, -0.30368486, -0.22219294, 0.14406645, -0.05075363, 0.00915014, 100.07000732, 104.99607849, 33.39999771, 0.00000000
1, 1.1350, 125, -0.22243622, -0.91956770, 0.15876678, -2.28308725, 11.71977139, 8.18145657, 1.16924870, 15.87255192, -134.11282349, 98.65576935, -3.67835951, -44.03771210, -0.61300761, 0.69492626, -0.30359682, -0.22164866, 0.15809759, -0.06727213, -0.01057644, 100.07000732, 104.99607849, 33.39999771, 0.00000000
1, 1.1400, 126, -0.23754917, -0.90934730, 0.17402330, -2.25963640, 9.83342266, 8.41661358, 1.37386727, 16.10640144, -134.14205933, 98.64182281, -3.72732306, -43.99526978, -0.61328721, 0.69485009, -0.30356669, -0.22115488, 0.17231646, -0.07749951, -0.02610317, 100.07000732, 104.99607849, 33.39999771, 0.00000000
1, 1.1450, 127, -0.26283854, -0.90083933, 0.19025142, -2.02563620, 8.16032887, 8.54901600, 1.37386727, 16.10640144, -134.14205933, 98.62957764, -3.77568030, -43.96120453, -0.61353856, 0.69476211, -0.30358753, -0.22070500, 0.19671795, -0.08601275, -0.04260838, 100.07000732, 104.99607849, 33.39999771, 0.00000000
1, 1.1900, 128, -0.40167809, -0.88195026, 0.32284176, -2.55385232, -3.21818542, -0.89914316, 1.16924870, 15.60947037, -134.31744385, 98.61609650, -4.07950497, -43.99800873, -0.61424708, 0.69388139, -0.30536076, -0.21905278, 0.32969174, -0.10477769, -0.17579281, 100.07000732, 104.99607849, 33.39999771, 0.00000000
1, 1.1950, 129, -0.40967992, -0.87558365, 0.32985857, -3.96667457, -1.48236609, -2.62744570, 1.16924870, 15.60947037, -134.31744385, 98.59663391, -4.06546259, -44.00342178, -0.61432242, 0.69379562, -0.30528349, -0.21922077, 0.33789095, -0.11121710, -0.18312100, 100.07000732, 104.99607849, 33.39999771, 0.00000000
1, 1.2000, 130, -0.41334343, -0.86899149, 0.34190741, -4.66268826, -0.09914389, -3.91759896, 0.61385560, 16.54487038, -133.99591064, 98.75833893, -4.34212971, -44.04188919, -0.61390245, 0.69390792, -0.30725673, -0.21727625, 0.33926374, -0.11748023, -0.19398917, 100.07000732, 104.99607849, 33.39999771, 0.00000000
1, 1.2050, 131, -0.40673304, -0.86702299, 0.33396685, -5.46612406, 1.32043934, -5.31067419, 0.61385560, 16.54487038, -133.99591064, 98.73014832, -4.31693506, -44.03135300, -0.61403567, 0.69384462, -0.30700922, -0.21745196, 0.33050895, -0.11910726, -0.18492076, 100.07000732, 104.99607849, 33.39999771, 0.00000000
1, 1.2100, 132, -0.40140948, -0.85522592, 0.27216104, -6.59758520, 3.30412269, -7.10675526, 0.61385560, 16.54487038, -133.99591064, 98.69544983, -4.28436613, -44.00964737, -0.61421269, 0.69379354, -0.30664343, -0.21763100, 0.32586700, -0.13092954, -0.12364554, 100.07000732, 104.99607849, 33.39999771, 0.00000000
1, 1.2150, 133, -0.39740166, -0.85640466, 0.24782602, -6.38927507, 6.36807060, -8.43846416, 0.70154923, 16.07716942, -133.35281372, 98.66058350, -4.24747324, -43.97177124, -0.61441153, 0.69379491, -0.30615690, -0.21775034, 0.32255036, -0.12985101, -0.09990783, 100.07000732, 104.99607849, 33.39999771, 0.00000000
1, 1.2200, 134, -0.39121887, -0.87088466, 0.21173941, -5.79354525, 9.68583679, -10.04947186, 0.70154923, 16.07716942, -133.35281372, 98.62739563, -4.20505524, -43.91626740, -0.61462122, 0.69386488, -0.30553803, -0.21780476, 0.31717098, -0.11545099, -0.06439184, 100.07000732, 104.99607849, 33.39999771, 0.00000000
1, 1.2250, 135, -0.39045522, -0.90109575, 0.19005969, -6.44875765, 10.74442005, -10.85715199, 0.52616191, 16.36948204, -133.26512146, 98.59055328, -4.15939999, -43.85493851, -0.61485690, 0.69393778, -0.30485997, -0.21785747, 0.31724727, -0.08535443, -0.04336470, 100.07000732, 104.99607849, 33.39999771, 0.00000000
1, 1.2300, 136, -0.39145058, -0.92307746, 0.16666563, -7.43753338, 13.04075813, -11.10529995, 0.52616191, 16.36948204, -133.26512146, 98.54796600, -4.11418581, -43.78208542, -0.61515045, 0.69400877, -0.30410317, -0.21786037, 0.31909060, -0.06349844, -0.02071260, 100.07000732, 104.99607849, 33.39999771, 0.00000000
1, 1.2350, 137, -0.39702424, -0.93863356, 0.15428746, -7.18150091, 15.47323704, -10.77016258, 0.52616191, 16.36948204, -133.26512146, 98.50588989, -4.07234478, -43.69745636, -0.61547107, 0.69410503, -0.30329329, -0.21777721, 0.32544264, -0.04808479, -0.00909709, 100.07000732, 104.99607849, 33.39999771, 0.00000000
1, 1.2500, 138, -0.25760859, -0.98069298, 0.10105685, -6.80942249, 22.86850739, -11.08936024, 1.54925454, 12.30634308, -133.46974182, 98.36344910, -3.99060345, -43.35864258, -0.61679167, 0.69442213, -0.30054504, -0.21683820, 0.18786702, -0.00640827, 0.04206615, 100.07000732, 104.99607849, 33.39999771, 0.00000000
1, 1.2550, 139, -0.11010596, -1.01232505, 0.08433229, -5.53056097, 25.72392464, -12.05409336, 1.54925454, 12.30634308, -133.46974182, 98.32621002, -3.94947338, -43.22238159, -0.61718237, 0.69467354, -0.29943421, -0.21645729, 0.04083206, 0.02511051, 0.05835045, 100.07000732, 104.99607849, 33.39999771, 0.00000000
1, 1.2600, 140, 0.00652026, -1.05749047, 0.13948654, -4.84767914, 27.97053719, -12.53501987, 1.54925454, 12.30634308, -133.46974182, 98.29170227, -3.90748310, -43.07466888, -0.61757612, 0.69496983, -0.29825422, -0.21601211, -0.07519878, 0.07004811, 0.00282126, 100.07000732, 104.99607849, 33.39999771, 0.00000000
1, 1.2650, 141, 0.11792819, -1.10401225, 0.17106161, -5.63979626, 28.73353577, -12.68201065, 1.40309846, 15.58023930, -133.06050110, 98.25306702, -3.86522794, -42.92309952, -0.61800134, 0.69525236, -0.29704118, -0.21555763, -0.18595360, 0.11637558, -0.02918510, 100.07000732, 104.99607849, 33.39999771, 0.00000000
1, 1.2700, 142, 0.16456833, -1.11621988, 0.11945701, -6.76552200, 24.94287872, -11.88172817, 1.40309846, 15.58023930, -133.06050110, 98.21022797, -3.82414794, -42.79094696, -0.61841804, 0.69545734, -0.29594377, -0.21521057, -0.23173502, 0.12851474, 0.02180225, 100.07000732, 104.99607849, 33.39999771, 0.00000000
1, 1.2750, 143, 0.15199156, -1.11341631, 0.07198974, -6.44788456, 19.86589432, -9.20260811, 1.46156096, 15.98947620, -132.65127563, 98.17091370, -3.79266143, -42.68590546, -0.61878377, 0.69558787, -0.29506743, -0.21494034, -0.21844566, 0.12564740, 0.06853825, 100.07000732, 104.99607849, 33.39999771, 0.00000000
1, 1.2800, 144, 0.11384469, -1.11061811, 0.09974971, -5.03526592, 18.28910828, -6.83957386, 1.46156096, 15.98947620, -132.65127563, 98.13934326, -3.77168822, -42.59037781, -0.61910796, 0.69571084, -0.29431835, -0.21463576, -0.17995787, 0.12269437, 0.04011668, 100.07000732, 104.99607849, 33.39999771, 0.00000000
1, 1.2850, 145, 0.08406448, -1.09590888, 0.13118051, -6.00231886, 16.41513252, -4.55848646, 1.46156096, 15.98947620, -132.65127563, 98.10369873, -3.76065516, -42.50574875, -0.61945832, 0.69576049, -0.29367995, -0.21433835, -0.15002012, 0.10783550, 0.00805995, 100.07000732, 104.99607849, 33.39999771, 0.00000000
1, 1.2900, 146, 0.05525563, -1.07250440, 0.11867855, -8.04337502, 15.09193230, -2.39080787, 1.72464192, 15.58023930, -132.62203979, 98.05843353, -3.75939941, -42.42921448, -0.61987340, 0.69571453, -0.29312411, -0.21404819, -0.12111656, 0.08434188, 0.01978456, 100.07000732, 104.99607849, 33.39999771, 0.00000000
1, 1.2950, 147, 0.02721516, -1.04160941, 0.09854686, -8.18739033, 15.57693195, -0.87017065, 1.72464192, 15.58023930, -132.62203979, 98.01238251, -3.76594186, -42.35131454, -0.62031281, 0.69564956, -0.29259959, -0.21370372, -0.09310892, 0.05337148, 0.03909311, 100.07000732, 104.99607849, 33.39999771, 0.00000000
1, 1.3500, 148, -0.12273099, -1.16786289, 0.26796690, -9.41351509, 55.77175903, 1.68084741, 2.98158431, 15.96024513, -130.69277954, 97.43053436, -4.12281609, -40.41506958, -0.62812525, 0.69653255, -0.28166813, -0.20239621, 0.05037829, 0.17839792, -0.14098433, 100.07000732, 104.99607849, 33.39999771, 0.00000000
1, 1.3550, 149, -0.12171069, -1.18238008, 0.25327921, -9.97281170, 57.92432022, 1.77432656, 2.98158431, 15.96024513, -130.69277954, 97.35997009, -4.16854906, -40.12819290, -0.62915313, 0.69674772, -0.28004336, -0.20071080, 0.04858867, 0.19285163, -0.12744325, 100.07000732, 104.99607849, 33.39999771, 0.00000000
1, 1.3600, 150, -0.15979473, -1.16909170, 0.28452700, -10.32856846, 60.97546768, 2.23715448, 2.98158431, 15.96024513, -130.69277954, 97.28627777, -4.21813297, -39.82634354, -0.63022870, 0.69696939, -0.27834359, -0.19892298, 0.08574876, 0.17941108, -0.16003123, 100.07000732, 104.99607849, 33.39999771, 0.00000000
1, 1.3650, 151, -0.19018912, -1.15811586, 0.31673634, -11.57186127, 66.65052795, 1.89751852, 3.50774622, 15.98947620, -131.13124084, 97.20399475, -4.26917505, -39.49597931, -0.63140297, 0.69720471, -0.27646437, -0.19698566, 0.11517659, 0.16827179, -0.19368413, 100.07000732, 104.99607849, 33.39999771, 0.00000000
1, 1.3700, 152, -0.19025624, -1.13966215, 0.33733046, -12.56140327, 71.84883881, 1.19276631, 3.50774622, 15.98947620, -131.13124084, 97.11447906, -4.31942892, -39.13921738, -0.63265812, 0.69745940, -0.27440915, -0.19491994, 0.11431128, 0.14965808, -0.21577990, 100.07000732, 104.99607849, 33.39999771, 0.00000000
1, 1.3750, 153, -0.13106982, -1.15395319, 0.31881067, -11.83974743, 76.61984253, 0.03542029, 3.91698337, 16.63256264, -130.63432312, 97.02640533, -4.36628819, -38.75789261, -0.63393176, 0.69778097, -0.27218997, -0.19273053, 0.05434117, 0.16385230, -0.19866768, 100.07000732, 104.99607849, 33.39999771, 0.00000000
1, 1.3800, 154, -0.05076934, -1.16053736, 0.29265913, -12.21496105, 78.00007629, -1.01352227, 3.91698337, 16.63256264, -130.63432312, 96.93556213, -4.40816927, -38.36898804, -0.63521695, 0.69810796, -0.26989430, -0.19053048, -0.02664267, 0.17034408, -0.17389670, 100.07000732, 104.99607849, 33.39999771, 0.00000000
1, 1.3850, 155, 0.00085073, -1.16457546, 0.31342709, -11.48539257, 76.38122559, -1.51707399, 3.91698337, 16.63256264, -130.63432312, 96.84867859, -4.44600105, -37.98775101, -0.63644940, 0.69843942, -0.26763123, -0.18838285, -0.07899091, 0.17421548, -0.19607183, 100.07000732, 104.99607849, 33.39999771, 0.00000000
1, 1.3900, 156, 0.03383546, -1.18519437, 0.34042805, -11.22336197, 75.39795685, -1.08816779, 4.47237635, 13.24174213, -129.99122620, 96.76327515, -4.48478842, -37.61157990, -0.63765866, 0.69875753, -0.26540759, -0.18624808, -0.11271123, 0.19466537, -0.22450373, 100.07000732, 104.99607849, 33.39999771, 0.00000000
1, 1.3950, 157, 0.05046377, -1.20661151, 0.30915079, -12.92741013, 72.40034485, -0.15646410, 4.47237635, 13.24174213, -129.99122620, 96.67028046, -4.52592802, -37.25080490, -0.63888603, 0.69898528, -0.26327935, -0.18419616, -0.12996557, 0.21600303, -0.19479786, 100.07000732, 104.99607849, 33.39999771, 0.00000000
1, 1.4400, 158, 0.08158113, -1.36584854, 0.16484223, -24.76232147, 65.87690735, 0.36448455, 5.49546909, 17.42180634, -127.59426880, 95.49002838, -4.93413544, -34.16527176, -0.65152842, 0.69834691, -0.24488866, -0.16688935, -0.16786611, 0.37390086, -0.07093373, 100.07000732, 104.99607849, 33.39999771, 0.00000000
1, 1.4450, 159, 0.00585577, -1.40477073, 0.09883678, -21.17645073, 66.30262756, -0.12669337, 5.49546909, 17.42180634, -127.59426880, 95.35556030, -4.96454620, -33.83391953, -0.65287781, 0.69822639, -0.24284282, -0.16509981, -0.09251611, 0.41275027, -0.00756416, 100.07000732, 104.99607849, 33.39999771, 0.00000000
1, 1.4500, 160, -0.04197479, -1.44410336, 0.03437138, -20.45497131, 68.33653259, -0.43792069, 5.52470016, 18.09412384, -126.95117950, 95.22043610, -4.99139309, -33.49038315, -0.65423673, 0.69812769, -0.24070491, -0.16325805, -0.04501770, 0.45201516, 0.05439723, 100.07000732, 104.99607849, 33.39999771, 0.00000000
1, 1.4550, 161, -0.04759635, -1.47545719, -0.01264106, -19.46762085, 71.90622711, -0.78603029, 5.52470016, 18.09412384, -126.95117950, 95.09170532, -5.01943779, -33.13055801, -0.65557539, 0.69808948, -0.23848625, -0.16129576, -0.03975124, 0.48328096, 0.09906878, 100.07000732, 104.99607849, 33.39999771, 0.00000000
1, 1.4600, 162, -0.00010692, -1.50198305, -0.05511632, -19.61803627, 72.53652191, -0.97940552, 5.72931862, 18.09412384, -126.80502319, 94.96176147, -5.04598570, -32.76741791, -0.65691686, 0.69804597, -0.23624006, -0.15931968, -0.08760506, 0.50971943, 0.13937683, 100.07000732, 104.99607849, 33.39999771, 0.00000000
1, 1.4650, 163, 0.04517701, -1.49801326, -0.08313028, -20.89537048, 72.24997711, -1.11018336, 5.72931862, 18.85413551, -126.80502319, 94.82535553, -5.07094908, -32.40558243, -0.65828645, 0.69795752, -0.23398684, -0.15736739, -0.13325757, 0.50563318, 0.16517428, 100.07000732, 104.99607849, 33.39999771, 0.00000000
1, 1.4700, 164, 0.09980833, -1.47102475, -0.13343829, -21.68727112, 73.07426453, -0.90519512, 5.72931862, 18.85413551, -126.80502319, 94.68447876, -5.09639120, -32.03963470, -0.65968275, 0.69784236, -0.23170815, -0.15539055, -0.18820411, 0.47856277, 0.21323356, 100.07000732, 104.99607849, 33.39999771, 0.00000000
1, 1.4750, 165, 0.15977889, -1.43104601, -0.17585267, -22.38606453, 72.18185425, -0.25157869, 5.72931862, 18.97106171, -125.69423676, 94.54035187, -5.12385654, -31.67833328, -0.66108847, 0.69768667, -0.22946788, -0.15342715, -0.24853241, 0.43849319, 0.25337708, 100.07000732, 104.99607849, 33.39999771, 0.00000000
1, 1.4800, 166, 0.23114435, -1.37790561, -0.17047970, -22.51051140, 70.90577698, 0.63094604, 5.72931862, 18.97106171, -125.69423676, 94.39603424, -5.15432310, -31.32366753, -0.66248405, 0.69750267, -0.22728801, -0.15147668, -0.32042721, 0.38519293, 0.24575892, 100.07000732, 104.99607849, 33.39999771, 0.00000000
1, 1.4850, 167, 0.32024145, -1.33382452, -0.12300454, -21.77935219, 69.58915710, 2.06244826, 5.84624386, 19.49722290, -125.48962402, 94.25584412, -5.19054270, -30.97601509, -0.66384667, 0.69731003, -0.22519207, -0.14951588, -0.41024581, 0.34090152, 0.19612329, 100.07000732, 104.99607849, 33.39999771, 0.00000000
1, 1.5250, 168, 0.50983489, -1.26719320, 0.19606052, -4.04505587, 41.38498688, 28.50513840, 6.05086231, 20.40339088, -124.72960663, 93.46636963, -5.93998528, -28.78727913, -0.67236984, 0.69553787, -0.21516466, -0.13360438, -0.61311966, 0.27399641, -0.13657963, 100.07000732, 104.99607849, 33.39999771, 0.00000000
1, 1.5300, 169, 0.46291357, -1.29744005, 0.24870844, 0.28752920, 37.03390884, 32.86800766, 6.05086231, 20.40339088, -124.72960663, 93.44970703, -6.11490583, -28.61109924, -0.67289650, 0.69545525, -0.21507387, -0.13151257, -0.56928051, 0.30444211, -0.18980408, 100.07000732, 104.99607849, 33.39999771, 0.00000000
1, 1.5350, 170, 0.41698524, -1.30182493, 0.32270116, 3.32784247, 30.68951225, 37.09466171, 5.49546909, 20.66647148, -125.19731140, 93.45132446, -6.30900335, -28.46792412, -0.67329228, 0.69538307, -0.21531400, -0.12945962, -0.52681917, 0.30905789, -0.26397136, 100.07000732, 104.99607849, 33.39999771, 0.00000000
1, 1.5400, 171, 0.34726557, -1.29895508, 0.33155310, 5.01875782, 24.12839317, 41.15806198, 5.49546909, 20.66647148, -125.19731140, 93.46475983, -6.52145147, -28.35887909, -0.67359489, 0.69528258, -0.21587884, -0.12746947, -0.46072876, 0.30658549, -0.27284411, 100.07000732, 104.99607849, 33.39999771, 0.00000000
1, 1.5450, 172, 0.20863254, -1.31045318, 0.27984458, 7.00830841, 16.45009041, 45.43639755, 5.49546909, 20.66647148, -125.19731140, 93.49238586, -6.75300026, -28.28971100, -0.67378533, 0.69515473, -0.21680932, -0.12556666, -0.32589653, 0.31864637, -0.22110507, 100.07000732, 104.99607849, 33.39999771, 0.00000000
1, 1.5500, 173, 0.11748838, -1.33319354, 0.25333095, 9.13492775, 6.76839542, 51.97868347, 4.91084480, 21.74802589, -124.70037842, 93.54484558, -7.00154781, -28.27825737, -0.67377853, 0.69503069, -0.21821205, -0.12384853, -0.23899822, 0.34199232, -0.19411010, 100.07000732, 104.99607849, 33.39999771, 0.00000000
1, 1.5550, 174, -0.03729556, -1.44132948, 0.26573235, 12.43444920, -5.00631952, 61.99641418, 4.91084480, 21.74802589, -124.70037842, 93.61330414, -7.30928087, -28.32241631, -0.67368227, 0.69478160, -0.22030284, -0.12205490, -0.08922224, 0.45079637, -0.20597661, 100.07000732, 104.99607849, 33.39999771, 0.00000000
1, 1.5600, 175, -0.16716768, -1.52489364, 0.25132388, 12.78043556, -14.08585453, 70.39843750, 4.41391420, 18.59105492, -124.81730652, 93.69020081, -7.65606165, -28.41534615, -0.67352659, 0.69440800, -0.22291537, -0.12028425, 0.03485306, 0.53522277, -0.19077492, 100.07000732, 104.99607849, 33.39999771, 0.00000000
1, 1.5650, 176, -0.27440125, -1.58273399, 0.25101808, 13.31858635, -24.15930557, 79.65061951, 4.41391420, 18.59105492, -124.81730652, 93.77791595, -8.04565620, -28.56254196, -0.67329669, 0.69389981, -0.22610436, -0.11853910, 0.13554081, 0.59404790, -0.18943356, 100.07000732, 104.99607849, 33.39999771, 0.00000000
1, 1.5700, 177, -0.32852587, -1.58777189, 0.31348315, 15.04535389, -32.54782867, 88.78763580, 4.41391420, 18.59105492, -124.81730652, 93.88203430, -8.47785950, -28.75586510, -0.67296815, 0.69329858, -0.22982198, -0.11675964, 0.18221967, 0.60014117, -0.25038439, 100.07000732, 104.99607849, 33.39999771, 0.00000000
1, 1.6000, 178, -0.23664255, -1.24913490, 0.22427155, 24.32131195, -25.23920631, 131.85279846, 0.46769950, 20.63723946, -124.84653473, 94.67430115, -11.75371552, -30.05192375, -0.67059261, 0.68848902, -0.25665939, -0.10205143, 0.03517545, 0.27235967, -0.14778203, 100.07000732, 104.99607849, 33.39999771, 0.00000000
1, 1.6050, 179, -0.22112024, -1.25227559, 0.22276102, 24.87513924, -21.52449608, 142.80047607, 0.46769950, 20.63723946, -124.84653473, 94.83586884, -12.45631027, -30.22093773, -0.67021841, 0.68751931, -0.26167843, -0.09822880, 0.00786068, 0.27821648, -0.14368002, 100.07000732, 104.99607849, 33.39999771, 0.00000000
1, 1.6100, 180, -0.24941112, -1.33807147, 0.27090642, 23.32754898, -28.91418266, 155.61334229, -1.81233561, 21.28032684, -124.93422699, 95.00221252, -13.21915054, -30.43580437, -0.66983014, 0.68629676, -0.26727962, -0.09426516, 0.02334744, 0.36701101, -0.18947089, 100.07000732, 104.99607849, 33.39999771, 0.00000000
1, 1.6150, 181, -0.33292282, -1.42121196, 0.28138095, 20.38164139, -33.33001709, 164.44885254, -1.81233561, 21.28032684, -124.93422699, 95.16374207, -14.02352047, -30.68019295, -0.66948014, 0.68483204, -0.27324873, -0.09020389, 0.09334090, 0.45358562, -0.19781426, 100.07000732, 104.99607849, 33.39999771, 0.00000000
1, 1.6200, 182, -0.45601264, -1.50619388, 0.27068830, 16.13269424, -33.51565170, 170.70272827, -1.81233561, 21.28032684, -124.93422699, 95.30918884, -14.85836792, -30.93154335, -0.66924167, 0.68312943, -0.27937809, -0.08601038, 0.20245478, 0.54235345, -0.18535396, 100.07000732, 104.99607849, 33.39999771, 0.00000000
1, 1.6250, 183, -0.57584417, -1.58658862, 0.24549668, 10.48095608, -29.74739265, 175.70170593, -3.12774038, 17.59719276, -124.70037842, 95.42631531, -15.71934414, -31.16880417, -0.66919637, 0.68117470, -0.28550866, -0.08162173, 0.30794662, 0.62684733, -0.15886270, 100.07000732, 104.99607849, 33.39999771, 0.00000000
1, 1.6300, 184, -0.66663826, -1.62358034, 0.24731113, 4.51995707, -29.90819359, 180.29548645, -3.12774038, 17.59719276, -124.70037842, 95.51881409, -16.60276222, -31.41180229, -0.66930056, 0.67894626, -0.29174173, -0.07717203, 0.38400015, 0.66818243, -0.15972796, 100.07000732, 104.99607849, 33.39999771, 0.00000000
1, 1.6350, 185, -0.72283953, -1.59904718, 0.28060299, 0.45040327, -33.66179657, 184.32385254, -4.41391420, 19.93569183, -124.58345032, 95.60169220, -17.50414085, -31.67889023, -0.66944742, 0.67649084, -0.29817131, -0.07276179, 0.42512918, 0.64824390, -0.19215402, 100.07000732, 104.99607849, 33.39999771, 0.00000000
1, 1.6400, 186, -0.73953098, -1.52246535, 0.32269228, -0.66172665, -35.29421234, 186.64761353, -4.41391420, 19.93569183, -124.58345032, 95.68688965, -18.41593742, -31.95841217, -0.66956782, 0.67392164, -0.30469343, -0.06834100, 0.42659414, 0.57654262, -0.23324046, 100.07000732, 104.99607849, 33.39999771, 0.00000000
1, 1.6450, 187, -0.69817942, -1.45739424, 0.34395146, 0.42290130, -30.73579788, 187.23318481, -4.41391420, 19.93569183, -124.58345032, 95.77502441, -19.33247566, -32.21720886, -0.66967291, 0.67134374, -0.31108159, -0.06375020, 0.37004936, 0.51666451, -0.25335526, 100.07000732, 104.99607849, 33.39999771, 0.00000000
1, 1.6750, 188, -0.38504264, -1.27942634, 0.20569421, -4.05677938, -32.58066559, 166.56546021, -9.17860222, 19.11721611, -123.99883270, 96.19939423, -24.53841400, -33.52472305, -0.67047095, 0.65547413, -0.34564611, -0.03675830, -0.02756542, 0.37323794, -0.11073953, 100.07000732, 104.99607849, 33.39999771, 0.00000000
1, 1.6800, 189, -0.38579506, -1.26674962, 0.19908342, -7.79823017, -41.11717224, 165.32299805, -9.17860222, 19.11721611, -123.99883270, 96.29878235, -25.33829689, -33.84791565, -0.67031258, 0.65268010, -0.35155037, -0.03319801, -0.03952178, 0.36657009, -0.10319020, 100.07000732, 104.99607849, 33.39999771, 0.00000000
1, 1.6850, 190, -0.40073428, -1.23419118, 0.20087086, -12.06025696, -50.89403915, 163.32148743, -11.28325081, 18.85413551, -124.08652496, 96.40537262, -26.12244606, -34.22755051, -0.67008561, 0.64974093, -0.35765874, -0.03003746, -0.03700096, 0.34008333, -0.10398543, 100.07000732, 104.99607849, 33.39999771, 0.00000000
1, 1.6900, 191, -0.42282063, -1.19000578, 0.20133269, -13.33877373, -60.29954147, 161.43107605, -11.28325081, 18.85413551, -124.08652496, 96.53489685, -26.89130020, -34.66257477, -0.66970789, 0.64674455, -0.36396730, -0.02721658, -0.02700313, 0.30205104, -0.10320003, 100.07000732, 104.99607849, 33.39999771, 0.00000000
1, 1.6950, 192, -0.45418197, -1.13378453, 0.19040020, -11.77203178, -72.60898590, 159.64555359, -11.28325081, 18.85413551, -124.08652496, 96.71076202, -27.64322853, -35.17047119, -0.66904974, 0.64376986, -0.37056640, -0.02476842, -0.00736454, 0.25210589, -0.09042244, 100.07000732, 104.99607849, 33.39999771, 0.00000000
1, 1.7000, 193, -0.50329167, -1.09656417, 0.17580892, -7.58462477, -83.80029297, 158.65950012, -13.18327999, 18.35720444, -123.15112305, 96.94715881, -28.38008118, -35.74883270, -0.66804230, 0.64089143, -0.37744719, -0.02261159, 0.03034595, 0.22130489, -0.07322462, 100.07000732, 104.99607849, 33.39999771, 0.00000000
1, 1.7050, 194, -0.54263681, -1.07267392, 0.18090697, -2.20297384, -90.73883057, 157.96994019, -13.18327999, 18.35720444, -123.15112305, 97.23790741, -29.10881042, -36.37217712, -0.66673768, 0.63812512, -0.38449249, -0.02056151, 0.05848485, 0.20397499, -0.07489761, 100.07000732, 104.99607849, 33.39999771, 0.00000000
1, 1.7100, 195, -0.56437451, -1.06283188, 0.21598111, 3.23284245, -96.31419373, 157.10183716, -14.64484024, 18.76644325, -122.80034637, 97.58245087, -29.82657623, -37.03565979, -0.66514474, 0.63548577, -0.39165604, -0.01859966, 0.06916615, 0.20082074, -0.10579363, 100.07000732, 104.99607849, 33.39999771, 0.00000000
1, 1.7800, 196, -0.66381168, -0.43909103, 0.23965576, 2.95876741, -54.63310623, 84.48922729, -24.11575508, 18.76644325, -121.19263458, 103.09709930, -37.58560562, -46.63673019, -0.64047939, 0.60153186, -0.47743464, -0.00135337, 0.05444840, -0.33423820, -0.06321235, 100.07000732, 104.99607849, 33.39999771, 0.00000000
1, 1.7850, 197, -0.63174784, -0.46166995, 0.24967276, 2.51606178, -49.41110992, 75.68103027, -25.34346581, 17.10026360, -121.10494232, 103.36344147, -37.89792252, -47.04972839, -0.63938099, 0.60002184, -0.48079681, -0.00047359, 0.01790958, -0.30747360, -0.07029898, 100.07000732, 104.99607849, 33.39999771, 0.00000000
1, 1.7900, 198, -0.60794109, -0.48953936, 0.25870100, 0.00369774, -43.71097946, 66.52500916, -25.34346581, 17.10026360, -121.10494232, 103.59082794, -38.17090988, -47.41741943, -0.63845944, 0.59862494, -0.48375383, 0.00024624, -0.00981032, -0.27590519, -0.07682629, 100.07000732, 104.99607849, 33.39999771, 0.00000000
1, 1.7950, 199, -0.57810718, -0.50958633, 0.25632250, -3.71626472, -35.32685089, 56.85242081, -26.22040367, 19.11721611, -120.72492981, 103.76119995, -38.40577698, -47.72123718, -0.63780576, 0.59732181, -0.48622009, 0.00083604, -0.04298922, -0.25268966, -0.07255428, 100.07000732, 104.99607849, 33.39999771, 0.00000000
1, 1.8000, 200, -0.53597307, -0.51367438, 0.24310295, -8.16549301, -25.54668617, 46.80177689, -26.22040367, 19.11721611, -120.72492981, 103.88034821, -38.61000443, -47.96550751, -0.63739318, 0.59610236, -0.48825213, 0.00134099, -0.08796155, -0.24594849, -0.05808044, 100.07000732, 104.99607849, 33.39999771, 0.00000000
1, 1.8050, 201, -0.49811599, -0.50090003, 0.22209141, -11.75859547, -16.00008392, 36.62951660, -26.22040367, 19.11721611, -120.72492981, 103.91924286, -38.76889801, -48.12107086, -0.63735396, 0.59499633, -0.48964947, 0.00169800, -0.12811187, -0.25666344, -0.03657587, 100.07000732, 104.99607849, 33.39999771, 0.00000000
1, 1.8100, 202, -0.46385515, -0.47303209, 0.19136749, -14.23742485, -7.41914654, 26.45510674, -27.41888237, 18.94182968, -120.19876862, 103.90284729, -38.88866043, -48.20793152, -0.63756168, 0.59403598, -0.49054331, 0.00194070, -0.16406089, -0.28311497, -0.00610656, 100.07000732, 104.99607849, 33.39999771, 0.00000000
1, 1.8150, 203, -0.44820732, -0.44520670, 0.16665724, -15.79933929, -1.12934172, 16.28451347, -27.41888237, 18.94182968, -120.19876862, 103.84417725, -38.96658707, -48.23997116, -0.63794488, 0.59324789, -0.49099821, 0.00202893, -0.18084773, -0.31011778, 0.01781404, 100.07000732, 104.99607849, 33.39999771, 0.00000000
1, 1.8200, 204, -0.43586922, -0.40915039, 0.13458836, -16.88155365, 3.86163974, 6.70779705, -27.94504547, 19.29260445, -119.87722778, 103.75114441, -39.00394821, -48.22613525, -0.63846356, 0.59263343, -0.49106634, 0.00195555, -0.19374956, -0.34589189, 0.04872642, 100.07000732, 104.99607849, 33.39999771, 0.00000000
1, 1.8250, 205, -0.42264035, -0.36550754, 0.07387309, -17.06003952, 7.79959202, -2.20447946, -27.94504547, 19.29260445, -119.87722778, 103.63306427, -39.00260925, -48.17410660, -0.63907188, 0.59220368, -0.49079433, 0.00173083, -0.20693702, -0.38971013, 0.10804499, 100.07000732, 104.99607849, 33.39999771, 0.00000000
1, 1.8750, 206, -0.18833801, 0.00361591, -0.04405886, -14.15238667, 4.89897442, -84.05233002, -28.17889404, 18.85413551, -119.23413849, 102.07348633, -36.83169937, -46.70719147, -0.64511329, 0.59854561, -0.47481704, -0.01098931, -0.41247153, -0.78506041, 0.21130227, 100.07000732, 104.99607849, 33.39999771, 0.00000000
1, 1.8800, 207, -0.15805653, 0.00242952, -0.05189697, -13.17925453, -0.73571545, -91.34966278, -28.17889404, 18.85413551, -119.23413849, 101.93909454, -36.38420105, -46.59427261, -0.64539629, 0.60005462, -0.47244692, -0.01386055, -0.43661740, -0.78873205, 0.21824317, 100.07000732, 104.99607849, 33.39999771, 0.00000000
1, 1.8850, 208, -0.13954513, -0.00519868, -0.04026356, -12.53813171, -5.61724854, -99.67639160, -28.55890083, 19.58491707, -118.85413361, 101.82092285, -35.89075089, -46.50230408, -0.64554542, 0.60173917, -0.46998876, -0.01708107, -0.44833851, -0.78636670, 0.20601346, 100.07000732, 104.99607849, 33.39999771, 0.00000000
1, 1.8900, 209, -0.12928806, -0.00735981, -0.04677928, -10.87798214, -15.30218792, -107.78005219, -28.55890083, 19.58491707, -118.85413361, 101.74066925, -35.34764862, -46.46021652, -0.64543301, 0.60361594, -0.46758255, -0.02075031, -0.45109260, -0.78973353, 0.21239212, 100.07000732, 104.99607849, 33.39999771, 0.00000000
1, 1.8950, 210, -0.13326357, 0.00020283, -0.04461178, -9.47797775, -20.61918449, -113.63811493, -28.50043869, 20.22800255, -119.17568207, 101.68244934, -34.77045822, -46.44385147, -0.64515460, 0.60563171, -0.46516237, -0.02469589, -0.43901092, -0.80308735, 0.21049958, 100.07000732, 104.99607849, 33.39999771, 0.00000000
1, 1.9000, 211, -0.14573887, 0.00187658, -0.03408916, -8.42752838, -26.39686966, -119.29239655, -28.50043869, 20.22800255, -119.17568207, 101.64095306, -34.17354965, -46.44765091, -0.64474839, 0.60772145, -0.46275693, -0.02881434, -0.41800997, -0.81068778, 0.20052242, 100.07000732, 104.99607849, 33.39999771, 0.00000000
1, 1.9050, 212, -0.15891470, 0.00800644, -0.02955060, -9.24350548, -30.63797188, -124.32544708, -28.50043869, 20.22800255, -119.17568207, 101.61051178, -33.53397751, -46.47877884, -0.64421272, 0.60991305, -0.46031061, -0.03332002, -0.39578712, -0.82290649, 0.19672751, 100.07000732, 104.99607849, 33.39999771, 0.00000000
1, 1.9100, 213, -0.15690845, -0.00068072, -0.00676718, -8.12758636, -35.99230957, -130.18080139, -27.41888237, 17.53873062, -119.46798706, 101.59867096, -32.86035919, -46.53433609, -0.64351010, 0.61222523, -0.45784584, -0.03810976, -0.38816577, -0.82055581, 0.17495836, 100.07000732, 104.99607849, 33.39999771, 0.00000000
1, 1.9150, 214, -0.17196389, 0.00041705, -0.01337788, -8.72987461, -40.32843018, -135.53430176, -27.41888237, 17.53873062, -119.46798706, 101.59314728, -32.15620041, -46.60843277, -0.64270473, 0.61459732, -0.45534241, -0.04317651, -0.36285859, -0.82809287, 0.18276614, 100.07000732, 104.99607849, 33.39999771, 0.00000000
1, 1.9200, 215, -0.16224127, -0.00797162, 0.01047943, -8.92644787, -42.85652161, -140.60450745, -27.68196487, 19.87722778, -119.35106659, 101.59006500, -31.42468262, -46.69062424, -0.64181954, 0.61703497, -0.45275572, -0.04845569, -0.36190373, -0.82631838, 0.16021541, 100.07000732, 104.99607849, 33.39999771, 0.00000000
1, 1.9450, 216, -0.24510416, -0.03072225, 0.08374429, -5.70176649, -63.76350784, -159.58134460, -27.00964546, 19.29260445, -119.99415588, 101.71659851, -27.42656517, -47.37424469, -0.63544804, 0.62988180, -0.43974072, -0.07799359, -0.21900159, -0.83687866, 0.09530029, 100.07000732, 104.99607849, 33.39999771, 0.00000000
1, 1.9500, 217, -0.26633888, -0.06094807, 0.12446243, -6.22403860, -65.39966583, -162.73333740, -27.00964546, 19.29260445, -119.99415588, 101.77062225, -26.57556915, -47.55298996, -0.63377100, 0.63256216, -0.43713325, -0.08434510, -0.18463281, -0.81321836, 0.05665740, 100.07000732, 104.99607849, 33.39999771, 0.00000000
1, 1.9550, 218, -0.27503124, -0.07103127, 0.14257602, -8.23296356, -64.68096924, -165.84532166, -27.00964546, 19.29260445, -119.99415588, 101.80035400, -25.69811058, -47.71858978, -0.63214165, 0.63522577, -0.43431038, -0.09088272, -0.16241086, -0.80962664, 0.04045632, 100.07000732, 104.99607849, 33.39999771, 0.00000000
1, 1.9600, 219, -0.28098816, -0.07051937, 0.15372236, -9.53041935, -63.89464951, -168.61424255, -27.30195808, 20.02338409, -120.02338409, 101.81743622, -24.80785942, -47.87520981, -0.63051361, 0.63787001, -0.43135750, -0.09749410, -0.14250249, -0.81661189, 0.03096412, 100.07000732, 104.99607849, 33.39999771, 0.00000000
1, 1.9650, 220, -0.29949415, -0.06946723, 0.15975735, -10.08105278, -63.03874588, -171.11058044, -27.30195808, 20.02338409, -120.02338409, 101.82592010, -23.90622902, -48.02313614, -0.62886685, 0.64050955, -0.42828253, -0.10415494, -0.10974418, -0.82402849, 0.02638249, 100.07000732, 104.99607849, 33.39999771, 0.00000000
1, 1.9700, 221, -0.32190165, -0.07699880, 0.16466327, -9.99123764, -62.05375671, -172.94602966, -26.68810272, 19.64337921, -120.22800446, 101.82933807, -22.99660110, -48.16261292, -0.62718743, 0.64314914, -0.42510206, -0.11083042, -0.07283914, -0.82271719, 0.02278548, 100.07000732, 104.99607849, 33.39999771, 0.00000000
1, 1.9750, 222, -0.34751743, -0.08924529, 0.18187864, -9.54631138, -60.90405273, -174.25627136, -26.68810272, 19.64337921, -120.22800446, 101.82964325, -22.08171463, -48.29357529, -0.62547004, 0.64578921, -0.42182797, -0.11749426, -0.03256071, -0.81653559, 0.00677135, 100.07000732, 104.99607849, 33.39999771, 0.00000000
1, 1.9800, 223, -0.37413585, -0.09503424, 0.19807102, -9.57426834, -58.76153183, -175.01104736, -26.68810272, 19.64337921, -120.22800446, 101.82312775, -21.16532707, -48.41165161, -0.62374818, 0.64841127, -0.41844654, -0.12411129, 0.00885803, -0.81661391, -0.00835095, 100.07000732, 104.99607849, 33.39999771, 0.00000000
1, 1.9850, 224, -0.40680787, -0.10794184, 0.21195550, -9.68444633, -55.68147278, -175.67231750, -27.24349594, 19.87722778, -120.66647339, 101.80815125, -20.24884224, -48.51232147, -0.62204164, 0.65101719, -0.41493452, -0.13065332, 0.05643531, -0.80936646, -0.02137125, 100.07000732, 104.99607849, 33.39999771, 0.00000000
1, 1.9900, 225, -0.43403029, -0.13647163, 0.21840537, -10.40160179, -52.46171951, -176.56791687, -27.24349594, 19.87722778, -120.66647339, 101.78197479, -19.33127594, -48.59503174, -0.62036830, 0.65359598, -0.41127864, -0.13713291, 0.09868270, -0.78628916, -0.02718496, 100.07000732, 104.99607849, 33.39999771, 0.00000000
1, 2.0350, 226, -0.50251734, -0.39261046, 0.27764621, -17.18740463, -31.73687935, -160.00375366, -25.51885414, 20.19877243, -121.83571625, 101.18509674, -11.46856022, -48.87508011, -0.60700393, 0.67367053, -0.37579358, -0.19103274, 0.29953170, -0.56849021, -0.08920483, 100.07000732, 104.99607849, 33.39999771, 0.00000000
1, 2.0400, 227, -0.51752007, -0.39241838, 0.27818546, -16.68644905, -31.12717819, -156.17489624, -25.51885414, 20.19877243, -121.83571625, 101.10032654, -10.67253876, -48.87827682, -0.60567552, 0.67549956, -0.37188536, -0.19636437, 0.32823989, -0.57164681, -0.09068935, 100.07000732, 104.99607849, 33.39999771, 0.00000000
1, 2.0450, 228, -0.53361142, -0.38875148, 0.28766605, -15.99585438, -31.49138451, -152.33663940, -25.78193474, 20.40339088, -122.50803375, 101.02021027, -9.89500618, -48.88814926, -0.60432452, 0.67724949, -0.36808789, -0.20158441, 0.35772872, -0.57803380, -0.10109655, 100.07000732, 104.99607849, 33.39999771, 0.00000000
1, 2.0500, 229, -0.54350460, -0.38660482, 0.30475011, -15.83869648, -31.82886314, -148.35073853, -25.78193474, 20.40339088, -122.50803375, 100.95449829, -9.16219711, -48.90561295, -0.60295492, 0.67889851, -0.36455315, -0.20650245, 0.38049018, -0.58261639, -0.11900036, 100.07000732, 104.99607849, 33.39999771, 0.00000000
1, 2.0550, 230, -0.54008257, -0.38468111, 0.30216485, -16.03507042, -32.24913788, -143.94166565, -25.31423569, 20.40339088, -123.12189484, 100.87610626, -8.42520905, -48.92916107, -0.60161525, 0.68044841, -0.36099115, -0.21150559, 0.38970059, -0.58672780, -0.11724283, 100.07000732, 104.99607849, 33.39999771, 0.00000000
1, 2.0600, 231, -0.53145498, -0.38711131, 0.28617275, -15.69211388, -32.55400848, -136.87275696, -25.31423569, 20.19877243, -123.12189484, 100.80053711, -7.72269869, -48.96186066, -0.60030115, 0.68186647, -0.35763583, -0.21631777, 0.39335054, -0.58626419, -0.10220011, 100.07000732, 104.99607849, 33.39999771, 0.00000000
1, 2.0650, 232, -0.52264696, -0.40014631, 0.26650757, -14.39087200, -33.21298218, -132.13792419, -25.31423569, 20.19877243, -123.12189484, 100.73223114, -7.04286575, -49.00309753, -0.59896034, 0.68321365, -0.35443762, -0.22099698, 0.39645094, -0.57496965, -0.08343375, 100.07000732, 104.99607849, 33.39999771, 0.00000000
1, 2.0700, 233, -0.51346380, -0.42201605, 0.26015180, -13.14871216, -34.78679276, -127.03859711, -25.66501045, 20.34492874, -123.18035889, 100.67126465, -6.38667250, -49.05751801, -0.59758651, 0.68447614, -0.35143194, -0.22556247, 0.39875555, -0.55465221, -0.07790187, 100.07000732, 104.99607849, 33.39999771, 0.00000000
1, 2.0750, 234, -0.51088256, -0.44196165, 0.26163146, -12.39961815, -36.81254578, -122.15406036, -25.66501045, 20.34492874, -123.18035889, 100.61508942, -5.75267744, -49.12707520, -0.59618771, 0.68564153, -0.34862098, -0.23004192, 0.40726748, -0.53608298, -0.08015849, 100.07000732, 104.99607849, 33.39999771, 0.00000000
1, 2.0800, 235, -0.50659031, -0.45620278, 0.25684008, -12.18857098, -38.49162674, -117.39463043, -25.43115997, 19.90645981, -123.82344055, 100.56053162, -5.14062643, -49.20979691, -0.59478658, 0.68670285, -0.34598768, -0.23443705, 0.41371366, -0.52304339, -0.07612157, 100.07000732, 104.99607849, 33.39999771, 0.00000000
1, 2.1350, 236, -0.85595548, -2.67005968, -0.83614963, -206.62620544, 93.37857056, 147.25936890, -27.97427559, 18.32797432, -123.18035889, 103.06273651, -3.97343278, -52.12056732, -0.57042885, 0.69345087, -0.36312917, -0.24874496, 0.79261005, 1.70041835, 1.05948830, 100.07000732, 104.99607849, 33.39999771, 0.00000000
1, 2.1400, 237, 0.11128856, -1.21465194, -0.86039084, -152.48834229, 206.99456787, 170.02914429, -27.97427559, 18.32797432, -123.18035889, 102.23713684, -5.02956772, -51.29262924, -0.58010912, 0.68915975, -0.36142719, -0.24062970, -0.19211817, 0.24287744, 1.07314539, 100.07000732, 104.99607849, 33.39999771, 0.00000000
1, 2.1450, 238, 0.59216309, -0.38995034, -0.75537646, -118.16827393, 235.29887390, 164.02761841, -27.88658333, 18.62028694, -124.02806091, 101.55252838, -6.07433176, -50.30443954, -0.58903360, 0.68600339, -0.35912395, -0.23123324, -0.69166136, -0.58289444, 0.95833957, 100.07000732, 104.99607849, 33.39999771, 0.00000000
1, 2.1500, 239, 1.00506175, 0.45051908, -1.12765515, -109.97672272, 249.53323364, 139.72612000, -27.88658333, 18.62028694, -124.02806091, 100.87212372, -6.99530506, -49.20557785, -0.59761691, 0.68344414, -0.35568336, -0.22191778, -1.12023735, -1.42329836, 1.32103682, 100.07000732, 104.99607849, 33.39999771, 0.00000000
1, 2.1550, 240, 1.27545428, 1.12317550, -1.34758055, -81.19882965, 219.69851685, 112.88529968, -26.42502213, 19.55568504, -123.94036865, 100.34111786, -7.75160551, -48.22048950, -0.60449523, 0.68167037, -0.35250419, -0.21366304, -1.40392303, -2.09575462, 1.53256965, 100.07000732, 104.99607849, 33.39999771, 0.00000000
1, 2.1600, 241, 1.38170731, 1.25835383, -1.24301827, -39.13640976, 137.41653442, 81.64584351, -26.42502213, 19.55568504, -123.94036865, 100.06140137, -8.27449417, -47.60975266, -0.60851276, 0.68065530, -0.35092807, -0.20801480, -1.52054501, -2.23081040, 1.42231417, 100.07000732, 104.99607849, 33.39999771, 0.00000000
1, 2.1650, 242, 1.43200636, 0.85634410, -0.67363101, -0.55665839, 63.86526871, 37.96992111, -26.42502213, 19.55568504, -123.94036865, 100.01751709, -8.51664829, -47.32497406, -0.60984576, 0.68063986, -0.35034934, -0.20511684, -1.57737613, -1.82925487, 0.85083628, 100.07000732, 104.99607849, 33.39999771, 0.00000000
1, 2.1700, 243, 1.31467342, -0.24064416, 0.34956336, 38.72851944, -50.36399841, 7.44147491, -26.65887070, 17.83104324, -123.67728424, 100.24935913, -8.50886250, -47.58216095, -0.60798913, 0.68110442, -0.35225493, -0.20582159, -1.46362543, -0.73328602, -0.17162926, 100.07000732, 104.99607849, 33.39999771, 0.00000000
1, 2.1750, 244, 1.09286857, -0.74950743, 0.81197280, 11.22470284, -71.46312714, 1.50507367, -26.65887070, 17.83104324, -123.67728424, 100.35815430, -8.45272064, -47.93902588, -0.60656810, 0.68073303, -0.35429680, -0.20772980, -1.24215794, -0.22485834, -0.63295317, 100.07000732, 104.99607849, 33.39999771, 0.00000000
1, 2.1800, 245, 0.60154837, -0.81603920, 1.09881532, -9.66513157, -91.61626434, -0.81249452, -26.80502701, 19.38029861, -124.43729401, 100.37634277, -8.36712360, -48.39393616, -0.60542822, 0.67965114, -0.35661194, -0.21061578, -0.75018406, -0.15889165, -0.92051685, 100.07000732, 104.99607849, 33.39999771, 0.00000000
1, 2.2200, 246, -0.90038192, -1.04844046, 0.20990230, 15.71290874, -16.67734909, 51.58147049, -29.72814941, 17.94796753, -124.49575806, 102.34017944, -9.25165081, -52.32058716, -0.58864808, 0.67464012, -0.38772178, -0.21914825, 0.74005985, 0.08369497, -0.00315107, 100.07000732, 104.99607849, 33.39999771, 0.00000000
1, 2.2250, 247, -0.81552047, -0.99263263, 0.10587970, 5.98262644, 3.67920160, 43.07698059, -29.72814941, 17.94796753, -124.49575806, 102.37518311, -9.46596432, -52.34873962, -0.58894312, 0.67410254, -0.38895056, -0.21782878, 0.65165734, 0.02884501, 0.10185956, 100.07000732, 104.99607849, 33.39999771, 0.00000000
1, 2.2300, 248, -0.70825911, -0.88334441, 0.03880401, 0.67195553, 22.92655373, 33.01758957, -30.69277954, 18.91259766, -124.11575317, 102.36598206, -9.65163231, -52.27074814, -0.58962351, 0.67377955, -0.38933647, -0.21629234, 0.54127789, -0.07981214, 0.16918711, 100.07000732, 104.99607849, 33.39999771, 0.00000000
1, 2.2350, 249, -0.61851287, -0.84836495, 0.17928146, 1.21376741, 35.36075592, 25.94610977, -30.69277954, 18.91259766, -124.11575317, 102.34745026, -9.81594276, -52.12341690, -0.59043068, 0.67370552, -0.38919806, -0.21456355, 0.44826013, -0.11459209, 0.02862011, 100.07000732, 104.99607849, 33.39999771, 0.00000000
1, 2.2400, 250, -0.50487870, -0.85867417, 0.31307319, -2.28685856, 38.28550339, 20.34687996, -30.69277954, 18.91259766, -124.11575317, 102.30743408, -9.95595932, -51.95540237, -0.59133601, 0.67366093, -0.38878569, -0.21295196, 0.33178127, -0.10420187, -0.10557353, 100.07000732, 104.99607849, 33.39999771, 0.00000000
1, 2.2450, 251, -0.41640046, -0.88373435, 0.37880224, -6.38869047, 32.77389908, 17.74396515, -30.89739799, 15.81408882, -123.99883270, 102.25072479, -10.07734394, -51.81178284, -0.59224260, 0.67350072, -0.38840026, -0.21163824, 0.24098319, -0.07907319, -0.17209877, 100.07000732, 104.99607849, 33.39999771, 0.00000000
1, 2.2500, 252, -0.37388670, -0.91689193, 0.41797641, -7.94240665, 25.90449715, 17.49485016, -30.89739799, 15.81408882, -123.99883270, 102.22959137, -10.22020912, -51.71672058, -0.59290153, 0.67329615, -0.38846657, -0.21031831, 0.19615129, -0.04573993, -0.21198395, 100.07000732, 104.99607849, 33.39999771, 0.00000000
1, 2.2550, 253, -0.36182645, -0.95430481, 0.42199472, -7.40944815, 23.26907349, 18.65207672, -31.01432228, 18.79567337, -124.08652496, 102.17569733, -10.33588409, -51.62100220, -0.59368330, 0.67300314, -0.38834321, -0.20927645, 0.18185715, -0.00807341, -0.21672967, 100.07000732, 104.99607849, 33.39999771, 0.00000000
1, 2.2600, 254, -0.36455041, -0.96461928, 0.41025767, -6.36639166, 22.58686447, 19.88441658, -31.01432228, 18.79567337, -124.08652496, 102.12767029, -10.45678806, -51.52985001, -0.59443283, 0.67270881, -0.38828254, -0.20820445, 0.18255357, 0.00244936, -0.20592442, 100.07000732, 104.99607849, 33.39999771, 0.00000000
1, 2.2650, 255, -0.35901535, -0.93303883, 0.38911769, -6.76498127, 20.34445572, 20.29172134, -31.01432228, 18.79567337, -124.08652496, 102.07954407, -10.57726574, -51.45014954, -0.59515887, 0.67237574, -0.38828778, -0.20719409, 0.17499581, -0.02889177, -0.18559653, 100.07000732, 104.99607849, 33.39999771, 0.00000000
1, 2.3250, 256, -0.54790354, -0.94217026, 0.47812766, 1.65966356, -4.82726717, 11.13692188, -31.18971062, 16.28178787, -124.02806091, 102.31951904, -11.41671276, -51.98658371, -0.59487039, 0.66929793, -0.39574090, -0.20385976, 0.34896863, -0.01630772, -0.27193314, 100.07000732, 104.99607849, 33.39999771, 0.00000000
1, 2.3300, 257, -0.57928580, -0.92379093, 0.40721831, -0.51913983, -1.65508926, 8.78661537, -31.68664169, 18.56182289, -124.58345032, 102.32055664, -11.45789528, -52.00432587, -0.59493470, 0.66911864, -0.39603570, -0.20368811, 0.37978733, -0.03440744, -0.20102468, 100.07000732, 104.99607849, 33.39999771, 0.00000000
1, 2.3350, 258, -0.59373105, -0.91225421, 0.37201864, -1.65835321, 0.83093113, 6.37166691, -31.68664169, 18.56182289, -124.58345032, 102.31288910, -11.48992443, -52.00706482, -0.59505379, 0.66897327, -0.39618525, -0.20352647, 0.39371246, -0.04578465, -0.16595368, 100.07000732, 104.99607849, 33.39999771, 0.00000000
1, 2.3400, 259, -0.58549345, -0.89837301, 0.32549179, -2.84737563, 4.27982759, 2.99884319, -31.68664169, 18.56182289, -124.32037354, 102.29508972, -11.50913429, -51.98896027, -0.59523731, 0.66888583, -0.39613628, -0.20337260, 0.38522714, -0.05957684, -0.11967115, 100.07000732, 104.99607849, 33.39999771, 0.00000000
1, 2.3450, 260, -0.54656333, -0.89653993, 0.30741882, -2.86561155, 5.30618763, 0.85030383, -31.68664169, 18.70797920, -124.32037354, 102.27567291, -11.51892185, -51.96342087, -0.59542018, 0.66884387, -0.39599773, -0.20324518, 0.34613431, -0.06140974, -0.10183242, 100.07000732, 104.99607849, 33.39999771, 0.00000000
1, 2.3500, 261, -0.49285507, -0.90675950, 0.29640880, -2.65298367, 4.99920034, -0.80717278, -31.68664169, 18.70797920, -124.32037354, 102.33358765, -11.74061489, -51.92302322, -0.59569937, 0.66861868, -0.39688271, -0.20143339, 0.29051191, -0.05071030, -0.09046356, 100.07000732, 104.99607849, 33.39999771, 0.00000000
1, 2.3550, 262, -0.43747440, -0.92125297, 0.29180840, -3.28579998, 4.08535671, -2.15288234, -31.92049026, 18.44489861, -124.72960663, 102.31252289, -11.73445511, -51.90030289, -0.59584713, 0.66860634, -0.39668489, -0.20142719, 0.23333320, -0.03577980, -0.08552660, 100.07000732, 104.99607849, 33.39999771, 0.00000000
1, 2.3600, 263, -0.40953577, -0.92893147, 0.29478380, -4.08627129, 2.42810106, -3.05849838, -31.92049026, 18.44489861, -124.72960663, 102.28893280, -11.72212791, -51.88491058, -0.59598154, 0.66857409, -0.39649701, -0.20150675, 0.20557296, -0.02822918, -0.08882776, 100.07000732, 104.99607849, 33.39999771, 0.00000000
1, 2.4400, 264, -0.44120497, -0.90925133, 0.29400226, -10.87301064, -7.75160265, -19.75937271, -31.42355919, 17.94796753, -124.78807068, 101.79399109, -10.95346642, -52.15647125, -0.59647870, 0.66736680, -0.39364469, -0.20947230, 0.25000203, -0.05215649, -0.09572567, 100.07000732, 104.99607849, 33.39999771, 0.00000000
1, 2.4450, 265, -0.44548696, -0.89916897, 0.28018367, -10.73517227, -7.74677849, -21.37341499, -31.42355919, 17.94796753, -124.78807068, 101.74319458, -10.84110737, -52.17311096, -0.59646380, 0.66738087, -0.39312720, -0.21043931, 0.25621819, -0.06275250, -0.08267681, 100.07000732, 104.99607849, 33.39999771, 0.00000000
1, 2.4500, 266, -0.45112094, -0.88608503, 0.25992915, -10.44754887, -8.39871788, -23.14522362, -31.42355919, 17.94796753, -124.78807068, 101.71003723, -10.78103447, -52.18340302, -0.59648800, 0.66735226, -0.39284718, -0.21098390, 0.26341230, -0.07623190, -0.06305836, 100.07000732, 104.99607849, 33.39999771, 0.00000000
1, 2.4550, 267, -0.45604408, -0.88188696, 0.24781854, -9.42063713, -8.32302952, -24.48847580, -32.12511063, 18.59105492, -124.78807068, 101.66568756, -10.65284252, -52.19987488, -0.59639525, 0.66744715, -0.39226532, -0.21202621, 0.27000862, -0.08084558, -0.05152071, 100.07000732, 104.99607849, 33.39999771, 0.00000000
1, 2.4600, 268, -0.45887581, -0.88852417, 0.24708898, -8.64475822, -8.07551575, -25.82443428, -32.12511063, 18.59105492, -124.78807068, 101.62471771, -10.51834965, -52.21383286, -0.59627080, 0.66758639, -0.39164460, -0.21308261, 0.27512223, -0.07477007, -0.05142226, 100.07000732, 104.99607849, 33.39999771, 0.00000000
1, 2.4650, 269, -0.46094117, -0.90049946, 0.25117159, -8.22199535, -8.00854683, -27.01999474, -31.16047859, 18.82490540, -124.43729401, 101.58554077, -10.37808704, -52.22634888, -0.59612322, 0.66775644, -0.39099073, -0.21416073, 0.27956104, -0.06337035, -0.05610718, 100.07000732, 104.99607849, 33.39999771, 0.00000000
1, 2.4700, 270, -0.46770644, -0.91836691, 0.24816726, -7.83625841, -7.77285671, -28.00074959, -31.16047859, 18.82490540, -124.43729401, 101.54787445, -10.23324013, -52.23676682, -0.59595835, 0.66795433, -0.39030486, -0.21525069, 0.28880250, -0.04607045, -0.05369772, 100.07000732, 104.99607849, 33.39999771, 0.00000000
1, 2.4750, 271, -0.47623000, -0.93936825, 0.23842458, -7.52206087, -7.40857363, -28.55690002, -31.16047859, 18.82490540, -124.43729401, 101.51135254, -10.08603477, -52.24490356, -0.59578419, 0.66817212, -0.38959563, -0.21633881, 0.29987043, -0.02562353, -0.04453856, 100.07000732, 104.99607849, 33.39999771, 0.00000000
1, 2.4800, 272, -0.47733408, -0.96113646, 0.22846001, -7.35545349, -6.62534714, -29.20634270, -31.77433395, 19.02952385, -124.29114532, 101.47486115, -9.93642712, -52.24860001, -0.59561127, 0.66841143, -0.38884813, -0.21741799, 0.30356139, -0.00440897, -0.03513686, 100.07000732, 104.99607849, 33.39999771, 0.00000000
1, 2.4850, 273, -0.47128254, -0.97280252, 0.21861114, -7.32816553, -6.05557728, -29.71889114, -31.77433395, 19.02952385, -124.29114532, 101.43791962, -9.78486633, -52.24902725, -0.59544146, 0.66866434, -0.38807020, -0.21849301, 0.30013183, 0.00670311, -0.02582241, 100.07000732, 104.99607849, 33.39999771, 0.00000000
1, 2.5150, 274, -0.23775923, -0.90536702, 0.38155106, -12.75103569, 10.90541267, -38.88494110, -30.40046692, 18.97106171, -125.16807556, 101.16284180, -8.86357498, -52.00764465, -0.59516460, 0.67073238, -0.38178641, -0.22391143, 0.08193557, -0.06443659, -0.19202554, 100.07000732, 104.99607849, 33.39999771, 0.00000000
1, 2.5200, 275, -0.23935305, -0.89689028, 0.34533718, -12.67333031, 10.00374031, -40.48477173, -30.40046692, 18.97106171, -125.16807556, 101.08542633, -8.67461586, -51.91880417, -0.59530759, 0.67117077, -0.38021845, -0.22488393, 0.08684725, -0.07360604, -0.15702966, 100.07000732, 104.99607849, 33.39999771, 0.00000000
1, 2.5250, 276, -0.23240852, -0.89629090, 0.36093792, -11.33420086, 10.86870289, -41.21729660, -30.40046692, 18.97106171, -125.16807556, 101.01428986, -8.48275471, -51.82526779, -0.59541625, 0.67166203, -0.37861824, -0.22582728, 0.08316736, -0.07496348, -0.17374592, 100.07000732, 104.99607849, 33.39999771, 0.00000000
1, 2.5300, 277, -0.23316412, -0.90341485, 0.39305556, -11.90173912, 10.72606945, -41.28357315, -30.57585526, 19.40952873, -124.46652985, 100.94075775, -8.29032230, -51.73265839, -0.59553635, 0.67213571, -0.37701273, -0.22678497, 0.08716102, -0.06861350, -0.20701002, 100.07000732, 104.99607849, 33.39999771, 0.00000000
1, 2.5350, 278, -0.24057871, -0.89994705, 0.38974690, -13.48228168, 9.04349613, -41.40872192, -30.57585526, 19.40952873, -124.46652985, 100.86084747, -8.09560108, -51.64859772, -0.59567177, 0.67255110, -0.37543058, -0.22782034, 0.09793511, -0.07280872, -0.20495065, 100.07000732, 104.99607849, 33.39999771, 0.00000000
1, 2.5400, 279, -0.25026667, -0.89183283, 0.34996855, -14.17124176, 7.15998745, -41.54999924, -30.78047371, 19.23414230, -124.46652985, 100.77913666, -7.89831924, -51.57408524, -0.59579277, 0.67292964, -0.37388518, -0.22892492, 0.11112391, -0.08159589, -0.16648024, 100.07000732, 104.99607849, 33.39999771, 0.00000000
1, 2.5450, 280, -0.25498486, -0.89408398, 0.31610391, -13.57190990, 7.58474493, -41.61760330, -30.78047371, 19.23414230, -124.46652985, 100.70038605, -7.70098972, -51.49770737, -0.59590036, 0.67332649, -0.37233120, -0.23000827, 0.11933886, -0.08000819, -0.13389540, 100.07000732, 104.99607849, 33.39999771, 0.00000000
1, 2.5500, 281, -0.25320911, -0.90820611, 0.31770152, -12.87510109, 8.74477482, -41.80914307, -30.78047371, 19.23414230, -124.46652985, 100.64837646, -7.52231550, -51.42436600, -0.59589309, 0.67379671, -0.37093553, -0.23090315, 0.12080856, -0.06652506, -0.13652679, 100.07000732, 104.99607849, 33.39999771, 0.00000000
1, 2.5550, 282, -0.22153583, -0.93714046, 0.35104197, -13.08146667, 8.12048721, -41.99665833, -29.58199310, 18.88336754, -124.96346283, 100.57225800, -7.32342768, -51.34548950, -0.59598696, 0.67421317, -0.36935854, -0.23197085, 0.09232643, -0.03827051, -0.17084178, 100.07000732, 104.99607849, 33.39999771, 0.00000000
1, 2.5600, 283, -0.19696966, -0.94943762, 0.36973101, -14.35000420, 7.13443947, -42.00401306, -29.58199310, 18.88336754, -124.96346283, 100.49071503, -7.12352276, -51.27180099, -0.59610009, 0.67458403, -0.36779276, -0.23308715, 0.07116936, -0.02668883, -0.19075793, 100.07000732, 104.99607849, 33.39999771, 0.00000000
1, 2.6150, 284, -0.24479304, -0.85325038, 0.25953451, -21.48118973, 15.90728474, -35.60504532, -28.09120178, 19.46799088, -125.02191925, 99.27675629, -5.14664364, -50.49902344, -0.59973890, 0.67607462, -0.35099804, -0.24502417, 0.15374210, -0.12997630, -0.10050994, 100.07000732, 104.99607849, 33.39999771, 0.00000000
1, 2.6200, 285, -0.22717004, -0.88015282, 0.21945864, -20.13328171, 19.22063446, -35.29786682, -28.09120178, 19.46799088, -125.02191925, 99.16476440, -4.98787212, -50.37569809, -0.60025048, 0.67628938, -0.34923896, -0.24569133, 0.13898730, -0.10356706, -0.06232653, 100.07000732, 104.99607849, 33.39999771, 0.00000000
1, 2.6250, 286, -0.18302262, -0.91529250, 0.19942141, -19.68635178, 20.54331970, -35.09676743, -28.09120178, 19.46799088, -125.02191925, 99.05480194, -4.83089495, -50.24632263, -0.60076898, 0.67652434, -0.34745458, -0.24630654, 0.09762731, -0.06893337, -0.04409534, 100.07000732, 104.99607849, 33.39999771, 0.00000000
1, 2.6300, 287, -0.13044171, -0.95015574, 0.18902048, -19.01494408, 21.05561829, -34.42711258, -27.50657654, 20.66647148, -125.05115509, 98.94844818, -4.67736435, -50.11524200, -0.60128009, 0.67676979, -0.34568220, -0.24687785, 0.04775899, -0.03456841, -0.03542753, 100.07000732, 104.99607849, 33.39999771, 0.00000000
1, 2.6350, 288, -0.08410841, -0.97209108, 0.18898004, -19.05322456, 21.39171410, -33.92788315, -27.50657654, 20.66647148, -125.05115509, 98.84217072, -4.52631521, -49.98319244, -0.60180056, 0.67700791, -0.34391415, -0.24742585, 0.00406277, -0.01313110, -0.03710075, 100.07000732, 104.99607849, 33.39999771, 0.00000000
1, 2.6400, 289, -0.06094471, -0.98326814, 0.19864470, -18.80134583, 21.33910561, -33.09109116, -27.24349594, 20.72493362, -125.08038330, 98.73759460, -4.37911558, -49.85235596, -0.60231954, 0.67723703, -0.34217358, -0.24794869, -0.01654468, -0.00245010, -0.04850005, 100.07000732, 104.99607849, 33.39999771, 0.00000000
1, 2.6450, 290, -0.05324881, -0.98715782, 0.19702365, -18.49620819, 19.88694954, -31.97286606, -27.24349594, 20.72493362, -125.08038330, 98.63552094, -4.23613358, -49.72984314, -0.60281777, 0.67743945, -0.34050637, -0.24847940, -0.02173132, 0.00098280, -0.04860831, 100.07000732, 104.99607849, 33.39999771, 0.00000000
1, 2.6500, 291, -0.05123880, -0.98246562, 0.18757278, -17.84494019, 16.37308311, -30.45250893, -27.18503380, 20.78339577, -125.25577545, 98.54531097, -4.09421253, -49.63084793, -0.60319853, 0.67762834, -0.33900711, -0.24908972, -0.02125543, -0.00412067, -0.04075407, 100.07000732, 104.99607849, 33.39999771, 0.00000000
1, 2.6550, 292, -0.04941829, -0.97661626, 0.19023395, -16.83070755, 12.42632675, -28.17594719, -27.18503380, 20.78339577, -125.25577545, 98.45503235, -3.96413517, -49.54861069, -0.60357469, 0.67773372, -0.33766466, -0.24971436, -0.02074669, -0.01036695, -0.04490111, 100.07000732, 104.99607849, 33.39999771, 0.00000000
1, 2.6600, 293, -0.05507350, -0.96616936, 0.20285168, -15.79870510, 9.97500134, -25.79385567, -27.18503380, 20.78339577, -125.25577545, 98.37105560, -3.84394169, -49.48047638, -0.60390884, 0.67780304, -0.33646783, -0.25033283, -0.01298665, -0.02119797, -0.05896500, 100.07000732, 104.99607849, 33.39999771, 0.00000000
1, 2.7000, 294, -0.05040934, -0.95779145, 0.18805864, -9.61400032, 18.01981163, -17.65388298, -26.13270950, 20.37415886, -125.13884735, 97.91957855, -3.10776830, -48.89402771, -0.60596663, 0.67900521, -0.32824060, -0.25301096, -0.00462126, -0.03149017, -0.05206793, 100.07000732, 104.99607849, 33.39999771, 0.00000000
1, 2.7050, 295, -0.01655794, -0.97377384, 0.20737305, -8.56740856, 20.07947350, -16.00571251, -26.13270950, 20.37415886, -125.13884735, 97.87064362, -3.04221678, -48.78355789, -0.60633147, 0.67922801, -0.32714069, -0.25296339, -0.03730910, -0.01570772, -0.07205948, 100.07000732, 104.99607849, 33.39999771, 0.00000000
1, 2.7100, 296, 0.00151351, -0.97791827, 0.23523538, -8.53832150, 20.94978714, -14.51314640, -26.13270950, 20.37415886, -125.13884735, 97.82177734, -2.98455048, -48.66983032, -0.60672355, 0.67943895, -0.32606164, -0.25284973, -0.05441396, -0.01177941, -0.10071697, 100.07000732, 104.99607849, 33.39999771, 0.00000000
1, 2.7150, 297, 0.00810974, -0.96508884, 0.25016823, -8.80093384, 19.38814354, -13.39030457, -26.42502213, 21.28032684, -125.28500366, 97.77217865, -2.93130565, -48.56465912, -0.60711288, 0.67960900, -0.32505402, -0.25275588, -0.06010184, -0.02479865, -0.11645786, 100.07000732, 104.99607849, 33.39999771, 0.00000000
1, 2.7200, 298, -0.00549120, -0.94175601, 0.22005908, -8.77349186, 17.43862534, -11.96493149, -26.42502213, 21.28032684, -125.28500366, 97.72336578, -2.88373733, -48.47016907, -0.60748863, 0.67973733, -0.32414031, -0.25268120, -0.04557033, -0.04824118, -0.08718787, 100.07000732, 104.99607849, 33.39999771, 0.00000000
1, 2.7250, 299, -0.04657789, -0.90658164, 0.19088250, -8.72850132, 16.82884216, -11.20888901, -25.69424057, 21.07570839, -125.05115509, 97.67504883, -2.83943415, -48.37924194, -0.60786217, 0.67984891, -0.32326543, -0.25260353, -0.00363076, -0.08351958, -0.05888607, 100.07000732, 104.99607849, 33.39999771, 0.00000000
1, 2.7300, 300, -0.08501525, -0.91766894, 0.17785074, -5.42563295, 17.90128136, -8.24593639, -25.69424057, 21.07570839, -125.05115509, 97.64318085, -2.81041312, -48.28497696, -0.60818475, 0.68001795, -0.32248572, -0.25236872, 0.03542446, -0.07252495, -0.04659732, 100.07000732, 104.99607849, 33.39999771, 0.00000000
1, 2.7350, 301, -0.10545055, -0.94129550, 0.19294055, -3.92935824, 18.17698288, -6.12022877, -25.69424057, 21.07570839, -125.05115509, 97.61884308, -2.79204535, -48.19076157, -0.60848957, 0.68019944, -0.32177791, -0.25204808, 0.05618478, -0.04900000, -0.06221636, 100.07000732, 104.99607849, 33.39999771, 0.00000000
1, 2.7400, 302, -0.11964992, -0.95167053, 0.20329101, -4.42921305, 18.62901115, -4.80616045, -26.07424736, 21.25109673, -125.31423187, 97.59200287, -2.78044748, -48.09515762, -0.60882950, 0.68035394, -0.32109126, -0.25168574, 0.07058695, -0.03871290, -0.07306568, 100.07000732, 104.99607849, 33.39999771, 0.00000000
1, 2.7450, 303, -0.10973837, -0.95414305, 0.19938235, -5.19047022, 19.96488953, -4.13368893, -26.07424736, 21.25109673, -125.31423187, 97.56106567, -2.77302980, -47.99338150, -0.60921770, 0.68049276, -0.32038057, -0.25127631, 0.06083025, -0.03631017, -0.06965442, 100.07000732, 104.99607849, 33.39999771, 0.00000000
1, 2.7900, 304, -0.01629485, -0.98406518, 0.20826182, -2.06931281, 14.80329323, 8.95327568, -25.37269783, 20.81262779, -125.16807556, 97.37543488, -3.00084186, -47.12269974, -0.61278117, 0.68135756, -0.31598854, -0.24576893, -0.03633634, -0.00664976, -0.08166657, 100.07000732, 104.99607849, 33.39999771, 0.00000000
1, 2.7950, 305, -0.06088625, -0.97737682, 0.20131250, -1.66892672, 17.25183105, 10.12821198, -25.37269783, 20.81262779, -125.16807556, 97.36302185, -3.06202006, -47.04343414, -0.61317629, 0.68135923, -0.31580943, -0.24500793, 0.00724071, -0.01330032, -0.07503714, 100.07000732, 104.99607849, 33.39999771, 0.00000000
1, 2.8000, 306, -0.08826192, -0.98006546, 0.18768165, -0.64293593, 17.90153122, 11.00694084, -25.60654831, 21.71879578, -125.57731628, 97.37576294, -3.14117074, -46.96887207, -0.61345518, 0.68143833, -0.31580570, -0.24409324, 0.03340050, -0.01051972, -0.06146654, 100.07000732, 104.99607849, 33.39999771, 0.00000000
1, 2.8050, 307, -0.09792624, -0.98237741, 0.18116789, -0.52140343, 19.79893494, 11.82176876, -25.60654831, 21.71879578, -125.57731628, 97.36826324, -3.21235394, -46.87802124, -0.61386818, 0.68147337, -0.31562039, -0.24319501, 0.04175100, -0.00811804, -0.05494041, 100.07000732, 104.99607849, 33.39999771, 0.00000000
1, 2.8100, 308, -0.06225075, -0.99246776, 0.20387325, -0.93386990, 24.56040573, 12.11577034, -25.60654831, 21.71879578, -125.57731628, 97.35725403, -3.28799176, -46.76368332, -0.61436129, 0.68154317, -0.31531128, -0.24215290, 0.00471833, 0.00198625, -0.07775094, 100.07000732, 104.99607849, 33.39999771, 0.00000000
1, 2.8150, 309, 0.00460371, -1.00289190, 0.19694652, -2.72020149, 28.19814682, 12.29532242, -25.75270271, 22.24495697, -125.19731140, 97.33614349, -3.36681056, -46.63137054, -0.61495835, 0.68159997, -0.31489062, -0.24102196, -0.06347866, 0.01245843, -0.07100421, 100.07000732, 104.99607849, 33.39999771, 0.00000000
1, 2.8200, 310, 0.04590087, -0.99365211, 0.18514781, -3.73822260, 27.20180511, 12.81031513, -25.75270271, 22.24495697, -125.19731140, 97.31005859, -3.44750452, -46.50427246, -0.61557645, 0.68161082, -0.31450078, -0.23992029, -0.10614520, 0.00326329, -0.05953917, 100.07000732, 104.99607849, 33.39999771, 0.00000000
1, 2.8250, 311, 0.06477838, -0.97992146, 0.19349745, -3.13518739, 24.60683060, 13.75729942, -25.37269783, 22.21572685, -125.40192413, 97.28766632, -3.53120828, -46.39063644, -0.61614966, 0.68159664, -0.31421477, -0.23886155, -0.12648660, -0.01044669, -0.06823992, 100.07000732, 104.99607849, 33.39999771, 0.00000000
1, 2.8300, 312, 0.05862282, -0.97380745, 0.20414791, -2.27923131, 21.76206779, 15.04563332, -25.37269783, 22.21572685, -125.40192413, 97.27029419, -3.61948156, -46.29190063, -0.61667114, 0.68155706, -0.31405199, -0.23784050, -0.12187301, -0.01652516, -0.07922409, 100.07000732, 104.99607849, 33.39999771, 0.00000000
1, 2.8350, 313, 0.01489520, -0.95481145, 0.22829854, -2.69913673, 18.58762360, 16.55266380, -25.37269783, 22.21572685, -125.40192413, 97.25176239, -3.71321654, -46.20985031, -0.61717635, 0.68145192, -0.31401485, -0.23687848, -0.07981003, -0.03549893, -0.10377470, 100.07000732, 104.99607849, 33.39999771, 0.00000000
1, 2.9300, 314, -0.40252799, -1.06970513, 0.25862330, -12.02783012, 40.06085587, 3.72319937, -25.16807938, 21.74802589, -125.13884735, 96.66316986, -5.41398430, -44.32033539, -0.62833112, 0.67921036, -0.31053239, -0.21781401, 0.30770367, 0.08048730, -0.14553122, 100.07000732, 104.99607849, 33.39999771, 0.00000000
1, 2.9350, 315, -0.42310646, -1.09262550, 0.21808408, -10.59761429, 42.12111664, 2.56232595, -25.16807938, 21.74802589, -125.13884735, 96.59046173, -5.45080423, -44.11162567, -0.62923867, 0.67928505, -0.30935091, -0.21663959, 0.32772398, 0.10338839, -0.10635705, 100.07000732, 104.99607849, 33.39999771, 0.00000000
1, 2.9400, 316, -0.44905916, -1.10581028, 0.21657215, -11.81725216, 45.71932602, 1.68215537, -24.67114830, 21.42648315, -125.10961914, 96.50973511, -5.48501062, -43.88439941, -0.63022012, 0.67936933, -0.30803171, -0.21539849, 0.35307592, 0.11647740, -0.10628875, 100.07000732, 104.99607849, 33.39999771, 0.00000000
1, 2.9450, 317, -0.44430161, -1.12410235, 0.23077333, -11.67305088, 48.31761551, 0.86594629, -24.67114830, 21.42648315, -125.10961914, 96.42829895, -5.51628208, -43.64369583, -0.63122171, 0.67948991, -0.30661675, -0.21410011, 0.34772527, 0.13463861, -0.12192839, 100.07000732, 104.99607849, 33.39999771, 0.00000000
1, 2.9500, 318, -0.41531461, -1.15530300, 0.22434975, -11.36283398, 48.93389893, -0.03467000, -24.49576187, 21.74802589, -125.10961914, 96.35630798, -5.56895113, -43.39860153, -0.63221812, 0.67961860, -0.30530730, -0.21261784, 0.31804815, 0.16576976, -0.11680819, 100.07000732, 104.99607849, 33.39999771, 0.00000000
1, 2.9550, 319, -0.38239712, -1.18036091, 0.26122537, -12.29151344, 54.87549591, -1.21321046, -24.49576187, 21.74802589, -125.10961914, 96.26811218, -5.59279203, -43.12390137, -0.63330001, 0.67980343, -0.30364090, -0.21118891, 0.28437877, 0.19067453, -0.15506020, 100.07000732, 104.99607849, 33.39999771, 0.00000000
1, 2.9600, 320, -0.33726388, -1.20926774, 0.27957842, -13.71176720, 57.23704529, -2.89145184, -24.52499199, 21.95264435, -124.93422699, 96.17145538, -5.60913324, -42.83645630, -0.63443595, 0.67998844, -0.30184448, -0.20975392, 0.23888481, 0.21940403, -0.17497899, 100.07000732, 104.99607849, 33.39999771, 0.00000000
1, 2.9650, 321, -0.32749173, -1.22782087, 0.29910356, -15.34539509, 59.62816238, -4.42606354, -24.52499199, 21.95264435, -124.93422699, 96.06531525, -5.61859703, -42.53622055, -0.63563341, 0.68016571, -0.29991928, -0.20831065, 0.22886777, 0.23775089, -0.19630864, 100.07000732, 104.99607849, 33.39999771, 0.00000000
1, 2.9700, 322, -0.29869050, -1.23236358, 0.33293647, -16.09215546, 62.17059326, -6.14361858, -24.52499199, 21.95264435, -124.93422699, 95.95404053, -5.62027121, -42.22237396, -0.63686591, 0.68036252, -0.29786351, -0.20684800, 0.19992222, 0.24204263, -0.23198348, 100.07000732, 104.99607849, 33.39999771, 0.00000000
1, 2.9750, 323, -0.25633168, -1.24398267, 0.34167862, -15.96237755, 62.86909485, -7.63586760, -23.03420067, 19.81876564, -124.70037842, 95.84300995, -5.61427975, -41.90426636, -0.63808519, 0.68058306, -0.29574284, -0.20540281, 0.15761063, 0.25344098, -0.24256054, 100.07000732, 104.99607849, 33.39999771, 0.00000000
1, 3.0250, 324, 0.05735770, -1.39035833, 0.15259124, -10.68455410, 74.44644928, -16.50561523, -21.19263268, 21.68956375, -124.32037354, 94.83457184, -5.28601265, -38.44843292, -0.64942193, 0.68422955, -0.27164325, -0.19050235, -0.15009761, 0.39795551, -0.07042500, 100.07000732, 104.99607849, 33.39999771, 0.00000000
1, 3.0300, 325, 0.08348709, -1.38753247, 0.15031345, -11.79434109, 74.80973816, -17.53439331, -21.19263268, 21.68956375, -124.32037354, 94.74042511, -5.22939157, -38.06687164, -0.65051138, 0.68472070, -0.26889801, -0.18890844, -0.17526415, 0.39491087, -0.06966890, 100.07000732, 104.99607849, 33.39999771, 0.00000000
1, 3.0350, 326, 0.12297551, -1.35872531, 0.10106329, -12.87965965, 76.04857635, -18.75292969, -20.98801422, 21.51417732, -124.55422211, 94.64062500, -5.16656303, -37.67875671, -0.65163028, 0.68519735, -0.26606917, -0.18732275, -0.21356159, 0.36594605, -0.02197574, 100.07000732, 104.99607849, 33.39999771, 0.00000000
1, 3.0400, 327, 0.16573258, -1.32889855, 0.04149571, -12.28577518, 76.83142090, -19.23255920, -20.98801422, 21.51417732, -124.55422211, 94.54386902, -5.10097456, -37.28668594, -0.65272868, 0.68569458, -0.26320526, -0.18571828, -0.25503835, 0.33597827, 0.03605628, 100.07000732, 104.99607849, 33.39999771, 0.00000000
1, 3.0450, 328, 0.20291403, -1.30613577, -0.00027324, -11.08061790, 77.18861389, -19.16928291, -20.98801422, 21.51417732, -124.55422211, 94.45346069, -5.03518152, -36.89299774, -0.65378749, 0.68622005, -0.26033950, -0.18408529, -0.29097152, 0.31305659, 0.07636973, 100.07000732, 104.99607849, 33.39999771, 0.00000000
1, 3.0500, 329, 0.25522313, -1.28697145, -0.01786485, -10.05044365, 77.36432648, -18.86273766, -20.19877243, 19.81876564, -124.55422211, 94.36282349, -4.95167589, -36.49821472, -0.65481436, 0.68677211, -0.25736728, -0.18254973, -0.34194043, 0.29368818, 0.09258729, 100.07000732, 104.99607849, 33.39999771, 0.00000000
1, 3.0550, 330, 0.31756532, -1.26786816, -0.00165514, -9.19473171, 77.38589478, -17.99681473, -20.19877243, 19.81876564, -124.55422211, 94.28282928, -4.89057446, -36.10424805, -0.65581179, 0.68732339, -0.25453943, -0.18085149, -0.40307814, 0.27434009, 0.07511359, 100.07000732, 104.99607849, 33.39999771, 0.00000000
1, 3.0600, 331, 0.38723189, -1.23895037, 0.01162672, -9.11343670, 76.89648438, -16.43216515, -19.81876564, 21.45571518, -123.94036865, 94.20394135, -4.83656740, -35.71343994, -0.65680552, 0.68784761, -0.25177026, -0.17911990, -0.47180074, 0.24521589, 0.06069739, 100.07000732, 104.99607849, 33.39999771, 0.00000000
1, 3.0650, 332, 0.39993119, -1.21431494, -0.01562757, -9.70804405, 76.37124634, -15.07007980, -19.81876564, 21.45571518, -123.94036865, 94.12270355, -4.78862143, -35.32582855, -0.65781426, 0.68832779, -0.24904922, -0.17736924, -0.48356968, 0.22044984, 0.08662757, 100.07000732, 104.99607849, 33.39999771, 0.00000000
1, 3.0700, 333, 0.41613406, -1.17036867, -0.03327759, -8.55661297, 75.80252838, -12.71474457, -19.81876564, 21.45571518, -123.94036865, 94.04784393, -4.75168276, -34.94198608, -0.65879273, 0.68880314, -0.24642119, -0.17555346, -0.49904114, 0.17637902, 0.10304970, 100.07000732, 104.99607849, 33.39999771, 0.00000000
1, 3.1250, 334, 0.19824173, -1.32016170, 0.11749427, 0.56938726, 23.42811012, 36.78143311, -17.74334908, 21.33878899, -123.56036377, 93.44572449, -5.28803444, -31.80014992, -0.66779959, 0.69078279, -0.22965728, -0.15530747, -0.28982484, 0.32594398, -0.05930055, 100.07000732, 104.99607849, 33.39999771, 0.00000000
1, 3.1300, 335, 0.16912088, -1.37666059, 0.16282080, 2.16259313, 14.37111282, 46.14957809, -17.74334908, 21.33878899, -123.56036377, 93.45159912, -5.52256823, -31.74165154, -0.66818684, 0.69048333, -0.23064134, -0.15350495, -0.26470357, 0.38273531, -0.10476080, 100.07000732, 104.99607849, 33.39999771, 0.00000000
1, 3.1350, 336, 0.17001274, -1.39615607, 0.19942625, 3.36072779, 5.46738291, 54.79029846, -17.53873062, 20.87108994, -123.44343567, 93.46799469, -5.79760313, -31.73037910, -0.66850221, 0.69006950, -0.23215222, -0.15170492, -0.27029535, 0.40263578, -0.14118686, 100.07000732, 104.99607849, 33.39999771, 0.00000000
1, 3.1400, 337, 0.17156526, -1.39929175, 0.24084866, 4.62421703, -3.26394749, 62.06726456, -17.53873062, 20.87108994, -123.44343567, 93.49552155, -6.10637140, -31.76519966, -0.66873443, 0.68955684, -0.23414393, -0.14994094, -0.27716905, 0.40626609, -0.18221095, 100.07000732, 104.99607849, 33.39999771, 0.00000000
1, 3.1450, 338, 0.15689959, -1.39953804, 0.22485517, 4.57773972, -12.62020969, 68.78517914, -17.53873062, 20.87108994, -123.44343567, 93.52844238, -6.44586849, -31.84918594, -0.66891074, 0.68890750, -0.23660865, -0.14826064, -0.26822382, 0.40719637, -0.16574249, 100.07000732, 104.99607849, 33.39999771, 0.00000000
1, 3.1500, 339, 0.10800049, -1.39427245, 0.20477071, 5.66793776, -24.82014465, 75.38579559, -18.06489372, 20.92955208, -123.47266388, 93.57937622, -6.80533695, -32.00064087, -0.66891795, 0.68817329, -0.23960997, -0.14681070, -0.22546217, 0.40271908, -0.14504635, 100.07000732, 104.99607849, 33.39999771, 0.00000000
1, 3.1550, 340, 0.01834023, -1.38507903, 0.24673806, 8.15858650, -38.18539047, 81.69544220, -18.06489372, 20.92955208, -123.47266388, 93.64768219, -7.20122719, -32.21789932, -0.66878742, 0.68731374, -0.24322669, -0.14547901, -0.14257246, 0.39433411, -0.18614566, 100.07000732, 104.99607849, 33.39999771, 0.00000000
1, 3.1600, 341, -0.06492709, -1.36389422, 0.33004695, 10.43048573, -48.26767731, 87.56033325, -18.44489861, 20.37415886, -123.47266388, 93.73584747, -7.62288904, -32.48848343, -0.66850692, 0.68638271, -0.24732372, -0.14425109, -0.06669907, 0.37402502, -0.26824987, 100.07000732, 104.99607849, 33.39999771, 0.00000000
1, 3.1900, 342, -0.12510833, -1.35108376, 0.28761226, 16.68915367, -28.31369781, 123.63939667, -19.90645981, 18.70797920, -123.44343567, 94.48850250, -10.70576572, -34.19505310, -0.66618097, 0.68012434, -0.27546158, -0.13324702, -0.05873047, 0.37049854, -0.21371309, 100.07000732, 104.99607849, 33.39999771, 0.00000000
1, 3.1950, 343, -0.10669893, -1.39001811, 0.27232295, 18.38471985, -22.22632217, 133.36720276, -19.90645981, 18.70797920, -123.44343567, 94.61377716, -11.36171150, -34.36070633, -0.66612464, 0.67892551, -0.28016260, -0.12979646, -0.08812192, 0.41173446, -0.19651054, 100.07000732, 104.99607849, 33.39999771, 0.00000000
1, 3.2000, 344, -0.12290849, -1.39987922, 0.34702045, 20.11115646, -27.30707359, 144.02021790, -21.01724625, 18.00643158, -123.38497162, 94.76251221, -12.06412697, -34.56338120, -0.66594154, 0.67762661, -0.28533852, -0.12619874, -0.08393428, 0.42407888, -0.26905042, 100.07000732, 104.99607849, 33.39999771, 0.00000000
1, 3.2050, 345, -0.16297668, -1.40460873, 0.39322603, 20.55316734, -35.26198578, 153.49935913, -21.01724625, 18.00643158, -123.38497162, 94.91996765, -12.81414413, -34.80833435, -0.66571581, 0.67611474, -0.29100290, -0.12250976, -0.05656120, 0.43168062, -0.31292158, 100.07000732, 104.99607849, 33.39999771, 0.00000000
1, 3.2100, 346, -0.27012044, -1.45264423, 0.39955318, 19.70290756, -36.71152878, 161.39744568, -21.33878899, 15.63870239, -124.11575317, 95.07959747, -13.60222721, -35.06707001, -0.66550517, 0.67443651, -0.29692307, -0.11863820, 0.03732455, 0.48299021, -0.31714618, 100.07000732, 104.99607849, 33.39999771, 0.00000000
1, 3.2150, 347, -0.38073075, -1.53330088, 0.37171388, 17.97094345, -33.12834930, 168.26997375, -21.33878899, 15.63870239, -124.11575317, 95.23123932, -14.42545509, -35.31361389, -0.66539073, 0.67260104, -0.30291584, -0.11447701, 0.13419905, 0.56730521, -0.28742248, 100.07000732, 104.99607849, 33.39999771, 0.00000000
1, 3.2200, 348, -0.47363454, -1.60741258, 0.36453873, 17.70653915, -35.99747849, 176.02157593, -21.33878899, 15.63870239, -124.11575317, 95.39075470, -15.28532124, -35.58182526, -0.66524470, 0.67060214, -0.30919999, -0.11017074, 0.21275637, 0.64540797, -0.27832615, 100.07000732, 104.99607849, 33.39999771, 0.00000000
1, 3.2250, 349, -0.60768074, -1.62923396, 0.42250049, 19.84343910, -46.07564545, 184.58732605, -22.71265602, 16.69102669, -123.79421234, 95.58134460, -16.18227005, -35.91018295, -0.66489726, 0.66845769, -0.31601724, -0.10587361, 0.33173087, 0.67154956, -0.33400339, 100.07000732, 104.99607849, 33.39999771, 0.00000000
1, 3.2300, 350, -0.68485093, -1.59878767, 0.47802946, 22.25990105, -52.52354813, 194.39273071, -22.71265602, 16.69102669, -123.79421234, 95.80162048, -17.12369919, -36.28191757, -0.66438609, 0.66616946, -0.32329506, -0.10143812, 0.39314777, 0.64594603, -0.38655055, 100.07000732, 104.99607849, 33.39999771, 0.00000000
1, 3.2350, 351, -0.73692846, -1.56926036, 0.50041157, 27.01654434, -47.65805054, 199.49566650, -23.96959877, 13.65097904, -123.76497650, 96.04650116, -18.09147835, -36.63687897, -0.66377509, 0.66391587, -0.33057463, -0.09663830, 0.42917401, 0.62176692, -0.40556395, 100.07000732, 104.99607849, 33.39999771, 0.00000000
1, 3.2800, 352, -0.84342766, -1.30936909, 0.43058398, 31.89996529, -76.91644287, 177.84503174, -28.32505035, 13.94329166, -123.61882019, 98.97208405, -26.41451263, -40.56414413, -0.65344787, 0.64279842, -0.39578509, -0.05630677, 0.40069404, 0.42221403, -0.29649454, 100.07000732, 104.99607849, 33.39999771, 0.00000000
1, 3.2850, 353, -0.92090076, -1.19779885, 0.34429866, 29.85220337, -81.42859650, 176.43156433, -30.51739311, 11.28325081, -123.18035889, 99.39725494, -27.22089577, -41.17070770, -0.65160638, 0.64039159, -0.40310824, -0.05302503, 0.46571958, 0.31808007, -0.20477718, 100.07000732, 104.99607849, 33.39999771, 0.00000000
1, 3.2900, 354, -0.97382170, -1.15831089, 0.39117923, 32.88475037, -82.80108643, 173.73132324, -30.51739311, 11.28325081, -123.18035889, 99.85263062, -28.00864410, -41.79369736, -0.64960259, 0.63806796, -0.41037256, -0.04980148, 0.50624305, 0.28594521, -0.24593046, 100.07000732, 104.99607849, 33.39999771, 0.00000000
1, 3.2950, 355, -1.04834437, -1.10982680, 0.49510694, 36.79195404, -77.31497955, 170.02673340, -32.27126694, 13.00789261, -122.85881042, 100.32418060, -28.77834892, -42.39406967, -0.64753449, 0.63588816, -0.41735733, -0.04645795, 0.56862426, 0.24481821, -0.34394577, 100.07000732, 104.99607849, 33.39999771, 0.00000000
1, 3.3000, 356, -1.07297373, -1.05739224, 0.55903798, 39.31903839, -71.86396027, 168.75743103, -32.27126694, 13.00789261, -122.85881042, 100.81141663, -29.54743195, -42.97838211, -0.64542013, 0.63377017, -0.42417711, -0.04291866, 0.58137435, 0.19999252, -0.40180326, 100.07000732, 104.99607849, 33.39999771, 0.00000000
1, 3.3050, 357, -1.11012220, -1.01817858, 0.60166973, 43.07281113, -65.03096008, 166.94464111, -32.27126694, 13.00789261, -122.85881042, 101.30389404, -30.30457687, -43.52974701, -0.64331108, 0.63176304, -0.43068498, -0.03920175, 0.60687053, 0.16860279, -0.43837094, 100.07000732, 104.99607849, 33.39999771, 0.00000000
1, 3.3100, 358, -1.11583161, -0.98925292, 0.62649906, 45.04565048, -52.46282196, 163.53860474, -33.46974564, 11.92633724, -122.80034637, 101.77985382, -31.05340767, -44.01726151, -0.64133805, 0.62985754, -0.43672228, -0.03519563, 0.60122955, 0.14758877, -0.45736906, 100.07000732, 104.99607849, 33.39999771, 0.00000000
1, 3.3150, 359, -1.07269263, -0.94263852, 0.59854692, 43.11824799, -35.17486572, 159.45350647, -33.46974564, 11.92633724, -122.80034637, 102.20285034, -31.79677773, -44.41141891, -0.63970476, 0.62796646, -0.44213504, -0.03086464, 0.54704809, 0.10896007, -0.42423022, 100.07000732, 104.99607849, 33.39999771, 0.00000000
1, 3.3200, 360, -0.99414366, -0.90490472, 0.51727074, 40.77487183, -18.76343155, 155.45791626, -34.63899231, 12.10172462, -122.88804626, 102.57026672, -32.53578186, -44.71507645, -0.63841349, 0.62607682, -0.44695374, -0.02623992, 0.45774576, 0.07924294, -0.33864719, 100.07000732, 104.99607849, 33.39999771, 0.00000000
1, 3.3250, 361, -0.90908378, -0.85366392, 0.41613364, 38.36259079, -5.54952192, 151.14163208, -34.63899231, 12.10172462, -122.88804626, 102.88832092, -33.26666641, -44.94408798, -0.63741028, 0.62418914, -0.45126188, -0.02142106, 0.36216664, 0.03598065, -0.23400009, 100.07000732, 104.99607849, 33.39999771, 0.00000000
1, 3.3300, 362, -0.84684253, -0.80331075, 0.31651205, 35.21366119, 3.51622653, 145.22862244, -34.63899231, 12.10172462, -122.88804626, 103.16276550, -33.97790146, -45.11854935, -0.63663757, 0.62231094, -0.45513397, -0.01658153, 0.28973299, -0.00655863, -0.13163844, 100.07000732, 104.99607849, 33.39999771, 0.00000000
1, 3.3650, 363, -0.19883133, -0.27313575, 0.11408482, 29.60010910, 31.62361336, 76.07597351, -36.62671661, 11.48786926, -123.67728424, 104.27252960, -37.85290146, -45.18737793, -0.63442218, 0.61298937, -0.47071674, 0.01335247, -0.41373065, -0.49337429, 0.07956002, 100.07000732, 104.99607849, 33.39999771, 0.00000000
1, 3.3700, 364, -0.20359892, -0.27834776, 0.09668466, 30.14032364, 31.54248810, 65.06078339, -37.09441757, 10.78631973, -122.77111816, 104.36690521, -38.20662689, -45.09465408, -0.63422036, 0.61247241, -0.47155699, 0.01661879, -0.41397399, -0.48398951, 0.09725057, 100.07000732, 104.99607849, 33.39999771, 0.00000000
1, 3.3750, 365, -0.23192218, -0.30927113, 0.09622645, 30.69987106, 32.78691864, 53.97178268, -37.09441757, 10.78631973, -122.77111816, 104.44805908, -38.50826645, -44.97702789, -0.63403094, 0.61219108, -0.47206143, 0.01962164, -0.38996059, -0.44948074, 0.09787187, 100.07000732, 104.99607849, 33.39999771, 0.00000000
1, 3.3800, 366, -0.25334644, -0.38429484, 0.09517591, 28.54596710, 34.84770203, 42.72646713, -37.09441757, 10.78631973, -122.77111816, 104.49875641, -38.75812912, -44.82876587, -0.63394606, 0.61207414, -0.47220707, 0.02232289, -0.37211981, -0.37148333, 0.09882403, 100.07000732, 104.99607849, 33.39999771, 0.00000000
1, 3.3850, 367, -0.26686329, -0.45397455, 0.06577590, 22.39897728, 37.51958847, 30.70529366, -37.56211472, 11.02016926, -123.38497162, 104.49544525, -38.95324707, -44.64439774, -0.63408846, 0.61202717, -0.47196168, 0.02463537, -0.36137652, -0.29950079, 0.12765387, 100.07000732, 104.99607849, 33.39999771, 0.00000000
1, 3.3900, 368, -0.28151464, -0.46873957, 0.00770145, 14.82820606, 40.03145599, 17.57676506, -37.56211472, 11.02016926, -123.38497162, 104.43030548, -39.08788681, -44.42285156, -0.63449621, 0.61203432, -0.47130311, 0.02649483, -0.34861296, -0.28321719, 0.18460251, 100.07000732, 104.99607849, 33.39999771, 0.00000000
1, 3.3950, 369, -0.29666483, -0.43538585, -0.07924484, 8.58349609, 44.77145004, 4.97518921, -36.86056519, 10.05553913, -123.70652008, 104.30175781, -39.16708374, -44.15105438, -0.63518065, 0.61211884, -0.47018284, 0.02800253, -0.33450091, -0.31581971, 0.26983577, 100.07000732, 104.99607849, 33.39999771, 0.00000000
1, 3.4000, 370, -0.30000010, -0.38407263, -0.14017881, 4.30130720, 51.99476242, -7.34681129, -36.86056519, 10.05553913, -123.70652008, 104.07563782, -39.19945145, -43.77914810, -0.63632023, 0.61225694, -0.46837622, 0.02935635, -0.33167958, -0.36712441, 0.32827938, 100.07000732, 104.99607849, 33.39999771, 0.00000000
1, 3.4500, 371, 0.10538699, -0.03402872, -0.25370708, -7.67598009, -3.60645628, -107.75236511, -35.13592529, 9.61707115, -125.63578033, 101.93650818, -36.24968338, -40.57519150, -0.64516360, 0.62452710, -0.43973130, 0.01914081, -0.69801295, -0.75303984, 0.42097145, 100.07000732, 104.99607849, 33.39999771, 0.00000000
1, 3.4550, 372, 0.11215200, -0.00115954, -0.24779357, -10.66601276, -11.38638687, -117.08339691, -35.13592529, 9.61707115, -125.63578033, 101.83538818, -35.66511536, -40.49627304, -0.64532918, 0.62646568, -0.43687123, 0.01532020, -0.69665098, -0.79206771, 0.41474259, 100.07000732, 104.99607849, 33.39999771, 0.00000000
1, 3.4600, 373, 0.09836102, 0.03473020, -0.24995320, -11.86787415, -28.83078766, -126.56240845, -34.93130493, 9.55860806, -125.89885712, 101.78344727, -35.01636124, -40.51181793, -0.64518291, 0.62854284, -0.43423244, 0.01073237, -0.67390513, -0.83439147, 0.41732085, 100.07000732, 104.99607849, 33.39999771, 0.00000000
1, 3.4650, 374, 0.07705630, 0.04403052, -0.24684371, -12.49001598, -37.85650253, -133.92027283, -34.93130493, 9.55860806, -125.89885712, 101.75382233, -34.32247162, -40.57249069, -0.64486396, 0.63072348, -0.43163210, 0.00567754, -0.64282799, -0.85046214, 0.41507596, 100.07000732, 104.99607849, 33.39999771, 0.00000000
1, 3.4700, 375, 0.04968545, 0.04417489, -0.24231613, -13.82686520, -46.54629898, -141.01565552, -34.14206314, 9.32475853, -126.51271057, 101.74051666, -33.58509064, -40.67562866, -0.64439452, 0.63297635, -0.42906487, 0.00015837, -0.60496843, -0.85763192, 0.41169092, 100.07000732, 104.99607849, 33.39999771, 0.00000000
1, 3.4750, 376, 0.01896686, 0.06161324, -0.23069219, -15.38828278, -54.14163208, -147.34600830, -34.14206314, 9.32475853, -126.51271057, 101.73793793, -32.80907059, -40.81480789, -0.64379734, 0.63527477, -0.42651796, -0.00577792, -0.56310672, -0.88231379, 0.40144163, 100.07000732, 104.99607849, 33.39999771, 0.00000000
1, 3.4800, 377, -0.02420984, 0.06787820, -0.22483711, -16.13416672, -61.42724991, -153.22366333, -34.14206314, 9.32475853, -126.51271057, 101.74812317, -31.99691963, -40.98792267, -0.64305186, 0.63762760, -0.42399198, -0.01209496, -0.50813705, -0.89596117, 0.39712894, 100.07000732, 104.99607849, 33.39999771, 0.00000000
1, 3.4850, 378, -0.05757890, 0.06215020, -0.19926636, -16.38062286, -65.91922760, -159.21636963, -33.82051849, 8.94475269, -127.33119202, 101.76373291, -31.15084457, -41.17796707, -0.64219207, 0.64004636, -0.42140245, -0.01870937, -0.46239972, -0.89777148, 0.37324849, 100.07000732, 104.99607849, 33.39999771, 0.00000000
