SensorId, TimeStamp (s), FrameNumber, AccX (g), AccY (g), AccZ (g), GyroX (deg/s), GyroY (deg/s), GyroZ (deg/s), MagX (uT), MagY (uT), MagZ (uT), EulerX (deg), EulerY (deg), EulerZ (deg), QuatW, QuatX, QuatY, QuatZ, LinAccX (g), LinAccY (g), LinAccZ (g), Pressure (kPa), Altitude (m), Temperature (degC), HeaveMotion (m)
1, -0.0000, 0, -0.24301888, -0.95953691, 0.07767593, 7.85953426, -32.56800079, 11.18546295, 8.36012840, 1.92926037, -90.61677551, 95.45345306, -11.27131748, -109.14479065, -0.44725361, 0.37302676, -0.63832027, -0.50335121, 0.04753541, -0.01692812, 0.01304824, 100.00800323, 110.21109009, 30.68999863, 0.00000000
1, 0.0050, 1, -0.24189559, -0.96010852, 0.08160941, 7.62542820, -30.92555237, 10.87707043, 8.36012840, 1.92926037, -90.61677551, 95.52347565, -11.31083393, -109.30697632, -0.44650733, 0.37219301, -0.63926840, -0.50342774, 0.04572571, -0.01611287, 0.01031263, 100.00800323, 110.21109009, 30.68999863, 0.00000000
1, 0.0100, 2, -0.24179938, -0.96094322, 0.08590554, 7.31820822, -29.11051941, 10.60877323, 9.00321579, 0.23384975, -90.79216766, 95.59024811, -11.34968662, -109.45989227, -0.44580972, 0.37140000, -0.64016873, -0.50348753, 0.04494959, -0.01504101, 0.00714534, 100.00800323, 110.21109009, 30.68999863, 0.00000000
1, 0.0150, 3, -0.24292071, -0.96426988, 0.09459082, 7.41735744, -28.51448059, 10.48151016, 9.00321579, 0.23384975, -90.79216766, 95.65699768, -11.38802242, -109.60977173, -0.44512373, 0.37062484, -0.64105630, -0.50353658, 0.04539255, -0.01148577, -0.00042508, 100.00800323, 110.21109009, 30.68999863, 0.00000000
1, 0.0200, 4, -0.24297394, -0.97100747, 0.10156487, 7.47696781, -27.57233810, 10.43310452, 8.62320995, 1.66617942, -91.08448029, 95.72322845, -11.42640591, -109.75492859, -0.44446099, 0.36987224, -0.64192492, -0.50356871, 0.04477089, -0.00451544, -0.00629133, 100.00800323, 110.21109009, 30.68999863, 0.00000000
1, 0.0250, 5, -0.23825841, -0.98012245, 0.10841539, 7.28051901, -26.07213974, 10.26104832, 8.62320995, 1.66617942, -91.08448029, 95.78703308, -11.46450424, -109.89243317, -0.44383901, 0.36915305, -0.64275610, -0.50358474, 0.03938544, 0.00483032, -0.01205938, 100.00800323, 110.21109009, 30.68999863, 0.00000000
1, 0.0750, 6, -0.30489275, -1.01032424, 0.21956705, 4.03050661, -19.72736359, 7.40411091, 8.38935947, 1.28617358, -91.63986969, 96.34835815, -11.78955173, -111.13018036, -0.43822038, 0.36265883, -0.65007585, -0.50382823, 0.10013339, 0.03701936, -0.11390787, 100.00800323, 110.21109009, 30.68999863, 0.00000000
1, 0.0800, 7, -0.30821398, -1.00708520, 0.21988513, 3.68426538, -17.69628716, 6.82599068, 8.33089733, 0.96463019, -92.01987457, 96.38602448, -11.81376457, -111.22383881, -0.43781054, 0.36214656, -0.65060353, -0.50387198, 0.10303203, 0.03394020, -0.11358410, 100.00800323, 110.21109009, 30.68999863, 0.00000000
1, 0.0850, 8, -0.30926284, -1.00681925, 0.22833757, 3.09630775, -16.26001358, 6.27182245, 8.33089733, 0.96463019, -92.01987457, 96.43006897, -11.84412384, -111.31241608, -0.43743384, 0.36165512, -0.65115929, -0.50383419, 0.10360439, 0.03383100, -0.12137371, 100.00800323, 110.21109009, 30.68999863, 0.00000000
1, 0.0900, 9, -0.31092077, -1.01086223, 0.22644059, 2.36348367, -14.58384609, 5.83037281, 8.33089733, 0.96463019, -92.01987457, 96.45784760, -11.86499786, -111.38976288, -0.43711063, 0.36121386, -0.65158182, -0.50388485, 0.10483414, 0.03803376, -0.11890842, 100.00800323, 110.21109009, 30.68999863, 0.00000000
1, 0.0950, 10, -0.30422857, -1.01595271, 0.21641608, 1.69372571, -12.21337032, 5.50982571, 8.21397209, 1.28617358, -92.37065125, 96.47980499, -11.88558578, -111.45490265, -0.43685818, 0.36082092, -0.65193921, -0.50392312, 0.09781349, 0.04325913, -0.10848950, 100.00800323, 110.21109009, 30.68999863, 0.00000000
1, 0.1000, 11, -0.29169711, -1.02055788, 0.20893328, 1.16569495, -9.80598545, 5.15330219, 8.21397209, 1.28617358, -92.37065125, 96.49655914, -11.90571499, -111.50761414, -0.43667454, 0.36048102, -0.65223312, -0.50394529, 0.08495782, 0.04798310, -0.10068359, 100.00800323, 110.21109009, 30.68999863, 0.00000000
1, 0.1050, 12, -0.27748889, -1.01709723, 0.20537093, 0.54008406, -8.13303852, 4.88567162, 8.24320412, 0.23384975, -91.90295410, 96.50842285, -11.92544651, -111.55171967, -0.43654221, 0.36017340, -0.65247709, -0.50396407, 0.07041848, 0.04462496, -0.09686804, 100.00800323, 110.21109009, 30.68999863, 0.00000000
1, 0.1100, 13, -0.26737210, -1.00757205, 0.19076487, -0.12088096, -6.49354887, 4.54758930, 8.24320412, 0.23384975, -91.90295410, 96.51524353, -11.94441891, -111.58729553, -0.43645945, 0.35989887, -0.65266991, -0.50398219, 0.06001007, 0.03520804, -0.08209223, 100.00800323, 110.21109009, 30.68999863, 0.00000000
1, 0.1150, 14, -0.26147950, -1.00109673, 0.18461682, -0.56030500, -5.54666805, 4.12007475, 8.24320412, 0.23384975, -91.90295410, 96.51881409, -11.96178722, -111.61781311, -0.43640113, 0.35964900, -0.65282810, -0.50400615, 0.05383059, 0.02881437, -0.07585639, 100.00800323, 110.21109009, 30.68999863, 0.00000000
1, 0.1200, 15, -0.26237080, -0.99336946, 0.17408143, -0.97651905, -3.58834529, 3.64626741, 8.00935364, 1.08155513, -92.16603088, 96.51818848, -11.97791004, -111.63813019, -0.43639463, 0.35944763, -0.65293235, -0.50402033, 0.05446743, 0.02116471, -0.06530698, 100.00800323, 110.21109009, 30.68999863, 0.00000000
1, 0.1550, 16, -0.30217400, -0.97062981, 0.14933184, -2.28354764, 4.10470438, 1.91840267, 7.98012257, -1.95849168, -92.57527161, 96.47307587, -12.11328316, -111.62658691, -0.43726546, 0.35864234, -0.65306091, -0.50367272, 0.09200263, -0.00112073, -0.04137791, 100.00800323, 110.21109009, 30.68999863, 0.00000000
1, 0.1600, 17, -0.29979613, -0.96677244, 0.14921814, -2.22927833, 5.43557978, 1.63396442, 7.98012257, -1.95849168, -92.57527161, 96.45634460, -12.12445831, -111.59988403, -0.43749112, 0.35867292, -0.65293378, -0.50361979, 0.08943082, -0.00496820, -0.04153670, 100.00800323, 110.21109009, 30.68999863, 0.00000000
1, 0.1650, 18, -0.29890227, -0.96512079, 0.13934627, -2.24969578, 7.01448870, 1.14607549, 7.98012257, -1.95849168, -92.57527161, 96.43775940, -12.13405704, -111.56488800, -0.43775111, 0.35875168, -0.65276825, -0.50355220, 0.08839056, -0.00660172, -0.03196929, 100.00800323, 110.21109009, 30.68999863, 0.00000000
1, 0.1700, 19, -0.30065656, -0.96480322, 0.13067164, -2.15683103, 8.03823948, 0.60845995, 7.68781042, 1.37386727, -92.07833862, 96.41847229, -12.14155006, -111.52436829, -0.43802702, 0.35887006, -0.65257674, -0.50347614, 0.09003136, -0.00691316, -0.02362889, 100.00800323, 110.21109009, 30.68999863, 0.00000000
1, 0.1750, 20, -0.30614597, -0.96401799, 0.12851843, -2.15853906, 11.01065159, 0.11849555, 7.68781042, 1.37386727, -92.07833862, 96.39592743, -12.14820576, -111.46848297, -0.43837649, 0.35906765, -0.65232050, -0.50336313, 0.09540735, -0.00771037, -0.02185613, 100.00800323, 110.21109009, 30.68999863, 0.00000000
1, 0.1800, 21, -0.30639458, -0.96723533, 0.13070315, -2.10971475, 12.76257133, -0.29604670, 8.21397209, 0.17538731, -92.37065125, 96.37168884, -12.15375900, -111.40342712, -0.43876594, 0.35931638, -0.65202504, -0.50322914, 0.09555162, -0.00452067, -0.02445330, 100.00800323, 110.21109009, 30.68999863, 0.00000000
1, 0.1850, 22, -0.30051383, -0.96956360, 0.13397868, -2.23818064, 14.47726250, -0.67416716, 8.21397209, 0.17538731, -92.37065125, 96.34957123, -12.17161369, -111.33066559, -0.43924394, 0.35955334, -0.65174782, -0.50300199, 0.08946694, -0.00220104, -0.02812780, 100.00800323, 110.21109009, 30.68999863, 0.00000000
1, 0.1900, 23, -0.29072621, -0.96626079, 0.13243242, -2.43588686, 16.05041695, -0.98467529, 8.21397209, 0.17538731, -92.37065125, 96.32005310, -12.17547131, -111.24850464, -0.43971646, 0.35988733, -0.65137070, -0.50283867, 0.07950146, -0.00551230, -0.02700399, 100.00800323, 110.21109009, 30.68999863, 0.00000000
1, 0.1950, 24, -0.27299303, -0.96271551, 0.12940685, -2.53077817, 17.93863487, -1.32403493, 7.57088566, 1.37386727, -91.93218231, 96.28798676, -12.17862797, -111.15655518, -0.44023636, 0.36027044, -0.65094966, -0.50265473, 0.06171943, -0.00909954, -0.02446348, 100.00800323, 110.21109009, 30.68999863, 0.00000000
1, 0.2000, 25, -0.25455657, -0.96011221, 0.13036953, -2.86592007, 19.12595940, -1.57188594, 7.57088566, 1.37386727, -91.93218231, 96.25292969, -12.18113422, -111.05843353, -0.44078940, 0.36067989, -0.65049404, -0.50246614, 0.04323447, -0.01175851, -0.02595917, 100.00800323, 110.21109009, 30.68999863, 0.00000000
1, 0.2450, 26, -0.10530405, -0.97593439, 0.14851686, -5.77332830, 15.94580460, 0.73782063, 8.53551579, 0.38000584, -91.20140076, 95.86399078, -12.22226620, -110.14713287, -0.44621316, 0.36411762, -0.64602166, -0.50096738, -0.10672082, 0.00347881, -0.05032948, 100.00800323, 110.21109009, 30.68999863, 0.00000000
1, 0.2500, 27, -0.11485989, -0.97930372, 0.14793494, -6.22265673, 15.01997662, 1.42251670, 8.53551579, 0.38000584, -91.20140076, 95.81686401, -12.23694611, -110.07140350, -0.44676617, 0.36428496, -0.64561552, -0.50087631, -0.09740135, 0.00681881, -0.05057730, 100.00800323, 110.21109009, 30.68999863, 0.00000000
1, 0.2550, 28, -0.12778187, -0.98415399, 0.13943778, -6.45777178, 14.02643013, 2.10287142, 7.71704149, 1.43232965, -91.58140564, 95.76968384, -12.25444508, -110.00107574, -0.44730961, 0.36440673, -0.64523417, -0.50079411, -0.08474502, 0.01166331, -0.04292802, 100.00800323, 110.21109009, 30.68999863, 0.00000000
1, 0.2600, 29, -0.14106821, -0.98964047, 0.12947132, -7.15405321, 12.89370155, 2.61051893, 7.71704149, 1.43232965, -91.58140564, 95.72026825, -12.27386570, -109.93673706, -0.44784337, 0.36447561, -0.64486748, -0.50073934, -0.07175772, 0.01715317, -0.03383363, 100.00800323, 110.21109009, 30.68999863, 0.00000000
1, 0.2650, 30, -0.15595607, -0.99062681, 0.12609909, -8.27437019, 11.42076302, 2.62472391, 7.71704149, 1.43232965, -91.58140564, 95.66683197, -12.29260063, -109.87989807, -0.44835359, 0.36448964, -0.64450520, -0.50073892, -0.05718987, 0.01812699, -0.03139948, 100.00800323, 110.21109009, 30.68999863, 0.00000000
1, 0.2700, 31, -0.16544026, -0.98629999, 0.12402918, -9.14428902, 9.71805573, 2.13953447, 7.98012257, 1.16924870, -91.31832886, 95.61082458, -12.30805302, -109.83146667, -0.44881910, 0.36446288, -0.64414936, -0.50079924, -0.04797656, 0.01377039, -0.03029239, 100.00800323, 110.21109009, 30.68999863, 0.00000000
1, 0.2750, 32, -0.16836473, -0.97901237, 0.11810852, -9.17367744, 9.16496849, 1.95146477, 7.98012257, 1.16924870, -91.31832886, 95.55523682, -12.32227230, -109.78574371, -0.44926536, 0.36442852, -0.64380056, -0.50087255, -0.04528230, 0.00645251, -0.02532188, 100.00800323, 110.21109009, 30.68999863, 0.00000000
1, 0.2800, 33, -0.16855419, -0.98892844, 0.12574904, -8.71690273, 9.81126976, 2.76725531, 8.47705364, 1.05232382, -91.96141052, 95.50128937, -12.34078789, -109.73710632, -0.44974008, 0.36439437, -0.64346170, -0.50090683, -0.04540151, 0.01632987, -0.03390490, 100.00800323, 110.21109009, 30.68999863, 0.00000000
1, 0.3150, 34, -0.22379430, -0.99679327, 0.13494812, -10.15993023, 15.06127930, 5.57472658, 7.71704149, 1.25694239, -91.87371826, 95.08856201, -12.52701855, -109.32447815, -0.45376241, 0.36411560, -0.64086783, -0.50080734, 0.00670338, 0.02421698, -0.05026346, 100.00800323, 110.21109009, 30.68999863, 0.00000000
1, 0.3200, 35, -0.21102111, -0.99821031, 0.12400437, -10.70425701, 16.02450371, 5.88503218, 8.24320412, -0.81847411, -91.34755707, 95.01792908, -12.56339073, -109.24531555, -0.45450905, 0.36408970, -0.64041007, -0.50073475, -0.00665478, 0.02568267, -0.04048522, 100.00800323, 110.21109009, 30.68999863, 0.00000000
1, 0.3250, 36, -0.19126703, -0.99940383, 0.10210772, -11.46039200, 16.78448296, 5.87771988, 8.24320412, -0.81847411, -91.34755707, 94.94259644, -12.59996700, -109.16220093, -0.45528841, 0.36406520, -0.63992000, -0.50067091, -0.02698041, 0.02694103, -0.01981161, 100.00800323, 110.21109009, 30.68999863, 0.00000000
1, 0.3300, 37, -0.16666029, -1.00174797, 0.08703659, -12.17342949, 16.88674355, 5.71397305, 7.36626720, 0.49693072, -91.69833374, 94.86350250, -12.63566303, -109.07846832, -0.45607802, 0.36403292, -0.63940930, -0.50062835, -0.05215974, 0.02933123, -0.00602397, 100.00800323, 110.21109009, 30.68999863, 0.00000000
1, 0.3350, 38, -0.14155728, -0.99934328, 0.10625798, -12.09518051, 16.39004517, 6.12176466, 7.36626720, 0.49693072, -91.69833374, 94.78845215, -12.66545677, -108.99803162, -0.45681152, 0.36402798, -0.63891017, -0.50060040, -0.07787086, 0.02690969, -0.02649634, 100.00800323, 110.21109009, 30.68999863, 0.00000000
1, 0.3400, 39, -0.13697603, -0.99840879, 0.13432612, -12.23878765, 16.58845711, 6.51389551, 7.36626720, 0.49693072, -91.69833374, 94.70934296, -12.70480537, -108.91602325, -0.45761049, 0.36396509, -0.63841569, -0.50054729, -0.08311857, 0.02595409, -0.05586836, 100.00800323, 110.21109009, 30.68999863, 0.00000000
1, 0.3450, 40, -0.14045157, -0.99553645, 0.14939877, -12.77787876, 17.16378021, 7.02520180, 7.86319780, 0.93539900, -91.52294922, 94.62683868, -12.74681568, -108.83121490, -0.45844489, 0.36388946, -0.63790530, -0.50048947, -0.08038504, 0.02310169, -0.07234676, 100.00800323, 110.21109009, 30.68999863, 0.00000000
1, 0.3500, 41, -0.14907178, -0.99746263, 0.13511370, -12.70538235, 17.24798775, 7.90259075, 7.86319780, 0.93539900, -91.52294922, 94.54463196, -12.79312325, -108.74623871, -0.45929921, 0.36379239, -0.63740820, -0.50041008, -0.07249865, 0.02511233, -0.05949661, 100.00800323, 110.21109009, 30.68999863, 0.00000000
1, 0.3550, 42, -0.16807018, -0.99872446, 0.12391331, -13.17124653, 17.77578926, 8.97266769, 8.09704781, 0.40923706, -91.52294922, 94.45950317, -12.84484291, -108.65890503, -0.46019840, 0.36366749, -0.63690668, -0.50031322, -0.05432923, 0.02647367, -0.04978932, 100.00800323, 110.21109009, 30.68999863, 0.00000000
1, 0.3600, 43, -0.17804322, -0.99291694, 0.13548149, -13.83073807, 19.49802017, 9.54789352, 8.09704781, 0.40923706, -91.52294922, 94.36908722, -12.89996433, -108.56288147, -0.46116799, 0.36355063, -0.63636458, -0.50019515, -0.04530980, 0.02074039, -0.06289995, 100.00800323, 110.21109009, 30.68999863, 0.00000000
1, 0.3950, 44, 0.02619704, -1.02083051, 0.24584599, -23.39658165, 27.08925629, 17.87755394, 7.45396090, 0.32154340, -91.11370850, 93.55207062, -13.44823265, -107.62876892, -0.47042060, 0.36253628, -0.63142353, -0.49857438, -0.25896394, 0.04965455, -0.18656480, 100.00800323, 110.21109009, 30.68999863, 0.00000000
1, 0.4000, 45, 0.02117286, -1.01283360, 0.28896844, -24.10493851, 21.29963112, 19.39602852, 7.45396090, 0.32154340, -91.11370850, 93.40764618, -13.55162716, -107.52535248, -0.47181064, 0.36197099, -0.63076866, -0.49850041, -0.25577083, 0.04184817, -0.23217027, 100.00800323, 110.21109009, 30.68999863, 0.00000000
1, 0.4050, 46, -0.00008507, -1.02815294, 0.30695906, -25.79298973, 20.00044823, 20.68348122, 7.36626720, 0.87693655, -90.67523956, 93.25619507, -13.66085052, -107.42865753, -0.47321844, 0.36130619, -0.63012266, -0.49846527, -0.23638627, 0.05743012, -0.25279117, 100.00800323, 110.21109009, 30.68999863, 0.00000000
1, 0.4100, 47, -0.00740537, -1.03185284, 0.30350813, -27.62162018, 18.59224129, 22.11033249, 7.36626720, 0.87693655, -90.67523956, 93.09717560, -13.77658272, -107.33924103, -0.47464615, 0.36053270, -0.62948668, -0.49847132, -0.23099199, 0.06145664, -0.25205547, 100.00800323, 110.21109009, 30.68999863, 0.00000000
1, 0.4150, 48, -0.01122543, -1.03634334, 0.29419839, -28.78365135, 18.14384270, 24.42788124, 7.39549828, 0.26308095, -91.52294922, 92.93278503, -13.90354633, -107.25236511, -0.47612888, 0.35966066, -0.62886935, -0.49846658, -0.22924624, 0.06632968, -0.24555030, 100.00800323, 110.21109009, 30.68999863, 0.00000000
1, 0.4200, 49, -0.02532182, -1.04895985, 0.30675170, -30.42569733, 19.15413475, 26.75125504, 7.39549828, 0.26308095, -91.52294922, 92.75878906, -14.04212856, -107.16043091, -0.47771397, 0.35871151, -0.62822956, -0.49844074, -0.21748415, 0.07935073, -0.26108205, 100.00800323, 110.21109009, 30.68999863, 0.00000000
1, 0.4250, 50, -0.03212226, -1.06337047, 0.31632966, -32.57598877, 20.84054375, 28.29101753, 7.39549828, 0.26308095, -91.52294922, 92.57168579, -14.18852043, -107.05965424, -0.47941059, 0.35771066, -0.62752938, -0.49841309, -0.21315134, 0.09421045, -0.27384049, 100.00800323, 110.21109009, 30.68999863, 0.00000000
1, 0.4300, 51, -0.02985225, -1.07610548, 0.33332193, -34.61885071, 22.58501053, 30.35657692, 7.13241720, 0.40923706, -91.14293671, 92.37187195, -14.34527683, -106.94975281, -0.48122948, 0.35664690, -0.62677765, -0.49836844, -0.21806946, 0.10743155, -0.29419869, 100.00800323, 110.21109009, 30.68999863, 0.00000000
1, 0.4350, 52, -0.02477380, -1.08387196, 0.36443564, -36.75157547, 25.98882294, 32.91851044, 7.13241720, 0.40923706, -91.14293671, 92.16541290, -14.50866699, -106.82437897, -0.48316166, 0.35559911, -0.62597030, -0.49826235, -0.22598800, 0.11571382, -0.32883465, 100.00800323, 110.21109009, 30.68999863, 0.00000000
1, 0.4400, 53, -0.00007707, -1.08135676, 0.37655324, -39.85046768, 29.77782249, 35.04624557, 7.07395506, 0.29231218, -91.96141052, 91.92938995, -14.68935776, -106.67680359, -0.48535478, 0.35444966, -0.62501913, -0.49814385, -0.25366625, 0.11380444, -0.34473348, 100.00800323, 110.21109009, 30.68999863, 0.00000000
1, 0.4500, 54, 0.08510752, -1.08405566, 0.43866602, -44.29722595, 31.04029274, 40.39076996, 7.07395506, 0.29231218, -91.96141052, 91.41700745, -15.08774757, -106.36694336, -0.49007457, 0.35183829, -0.62301511, -0.49788460, -0.34563109, 0.11789720, -0.41524673, 100.00800323, 110.21109009, 30.68999863, 0.00000000
1, 0.4550, 55, 0.13382833, -1.07763433, 0.46536082, -49.83047485, 33.33045578, 43.14470673, 6.31394339, 0.46769950, -91.87371826, 91.12433624, -15.30747032, -106.19888306, -0.49268210, 0.35032406, -0.62188083, -0.49779677, -0.39805353, 0.11230437, -0.44661063, 100.00800323, 110.21109009, 30.68999863, 0.00000000
1, 0.4600, 56, 0.17140393, -1.07137299, 0.45442659, -52.63090515, 33.07634354, 45.48774338, 6.31394339, 0.46769950, -91.87371826, 90.81708527, -15.53807068, -106.03096771, -0.49537134, 0.34867680, -0.62072045, -0.49773276, -0.43943471, 0.10702047, -0.44070813, 100.00800323, 110.21109009, 30.68999863, 0.00000000
1, 0.4650, 57, 0.18933195, -1.06810403, 0.42090029, -54.58732605, 30.76495361, 48.22667694, 6.16778708, 0.73078048, -92.42911530, 90.50230408, -15.78138161, -105.87369537, -0.49808168, 0.34685889, -0.61960214, -0.49769148, -0.46131241, 0.10486486, -0.41241217, 100.00800323, 110.21109009, 30.68999863, 0.00000000
1, 0.4700, 58, 0.19638856, -1.06870532, 0.38927710, -56.02841187, 30.01886940, 51.24172974, 6.16778708, 0.73078048, -92.42911530, 90.18033600, -16.03894234, -105.71877289, -0.50085312, 0.34490776, -0.61850697, -0.49762830, -0.47255450, 0.10668902, -0.38615245, 100.00800323, 110.21109009, 30.68999863, 0.00000000
1, 0.4750, 59, 0.19768205, -1.08085001, 0.34268302, -57.23918915, 30.83973312, 54.36129761, 6.16778708, 0.73078048, -92.42911530, 89.84998322, -16.31124306, -105.55782318, -0.50372612, 0.34285951, -0.61740637, -0.49751055, -0.47823650, 0.12020149, -0.34508404, 100.00800323, 110.21109009, 30.68999863, 0.00000000
1, 0.4800, 60, 0.19019729, -1.10594308, 0.29239890, -58.23418045, 31.48595047, 57.57911682, 6.57702398, 0.49693072, -92.39987946, 89.51240540, -16.59872055, -105.39151764, -0.50669414, 0.34071204, -0.61630946, -0.49733186, -0.47537488, 0.14679614, -0.30047816, 100.00800323, 110.21109009, 30.68999863, 0.00000000
1, 0.4850, 61, 0.17205222, -1.14126909, 0.25561523, -59.28617477, 31.01181602, 61.01632309, 6.57702398, 0.49693072, -92.39987946, 89.17325592, -16.89459419, -105.22668457, -0.50968003, 0.33848923, -0.61524123, -0.49712136, -0.46208346, 0.18372011, -0.26946306, 100.00800323, 110.21109009, 30.68999863, 0.00000000
1, 0.4900, 62, 0.15607791, -1.18530262, 0.22776389, -60.49283218, 28.58930206, 64.30390167, 5.61239386, -0.17538731, -93.13066101, 88.82586670, -17.21409225, -105.07073212, -0.51273435, 0.33603811, -0.61424065, -0.49688059, -0.45124102, 0.22947894, -0.24745083, 100.00800323, 110.21109009, 30.68999863, 0.00000000
1, 0.4950, 63, 0.12414054, -1.23330128, 0.20347066, -60.76041031, 25.11574364, 68.18540955, 5.61239386, -0.17538731, -93.13066101, 88.48093414, -17.55251122, -104.93018341, -0.51577520, 0.33339632, -0.61335874, -0.49660236, -0.42480174, 0.27937496, -0.22903983, 100.00800323, 110.21109009, 30.68999863, 0.00000000
1, 0.5400, 64, 0.44563964, -1.66823506, -0.08678896, -71.62887573, 32.84296799, 95.18264008, 4.41391420, -1.75387311, -95.08915710, 85.04072571, -21.20149994, -103.16645050, -0.54757804, 0.30655664, -0.60475171, -0.49036390, -0.80518281, 0.73867244, 0.00627511, 100.00800323, 110.21109009, 30.68999863, 0.00000000
1, 0.5450, 65, 0.49006867, -1.64122677, -0.11525507, -72.68852997, 24.15132713, 98.49418640, 4.41391420, -1.75387311, -95.08915710, 84.61351013, -21.68172264, -102.98859406, -0.55129093, 0.30273885, -0.60393131, -0.48958614, -0.85726702, 0.71533334, 0.02818469, 100.00800323, 110.21109009, 30.68999863, 0.00000000
1, 0.5500, 66, 0.49177662, -1.64290571, -0.11790603, -72.83325958, 13.27882004, 101.56683350, 4.41391420, -1.75387311, -95.08915710, 84.20375061, -22.18140411, -102.86302948, -0.55476886, 0.29859510, -0.60339224, -0.48886648, -0.86699003, 0.72085267, 0.02447079, 100.00800323, 110.21109009, 30.68999863, 0.00000000
1, 0.5550, 67, 0.46375206, -1.64779246, -0.07982253, -74.36901093, 2.70974016, 104.55927277, 3.27389646, -0.81847411, -95.76147461, 83.80474091, -22.70075607, -102.78835297, -0.55803561, 0.29410046, -0.60309714, -0.48823667, -0.84736341, 0.72973275, -0.01978938, 100.00800323, 110.21109009, 30.68999863, 0.00000000
1, 0.5600, 68, 0.34581539, -1.66982985, -0.03078711, -75.41223907, -4.25532055, 108.50764465, 3.27389646, -0.81847411, -95.76147461, 83.41195679, -23.24314690, -102.74462891, -0.56119907, 0.28931868, -0.60298049, -0.48761153, -0.73816562, 0.75599056, -0.07504827, 100.00800323, 110.21109009, 30.68999863, 0.00000000
1, 0.5650, 69, 0.26779777, -1.68978691, -0.00693031, -75.74250793, -5.62481689, 111.77410889, 2.60157847, -1.69541073, -95.76147461, 83.01762390, -23.80230331, -102.70195007, -0.56438106, 0.28440419, -0.60291123, -0.48691517, -0.66910285, 0.78046352, -0.10495213, 100.00800323, 110.21109009, 30.68999863, 0.00000000
1, 0.5700, 70, 0.15573493, -1.69272208, 0.01938047, -76.51490784, -5.67954922, 115.25279999, 2.60157847, -1.69541073, -95.76147461, 82.61637115, -24.37845802, -102.65270996, -0.56762516, 0.27936801, -0.60284853, -0.48613673, -0.56624848, 0.78816962, -0.13735822, 100.00800323, 110.21109009, 30.68999863, 0.00000000
1, 0.5750, 71, 0.09512117, -1.66138327, 0.01892526, -76.78759003, -3.28935313, 117.17098999, 2.60157847, -1.69541073, -95.76147461, 82.20532227, -24.96218491, -102.58431244, -0.57095504, 0.27431524, -0.60272193, -0.48527086, -0.51487863, 0.76185942, -0.14288673, 100.00800323, 110.21109009, 30.68999863, 0.00000000
1, 0.5800, 72, 0.04328053, -1.62709689, 0.04067186, -76.41661835, 1.62810767, 118.51032257, 2.01695418, -1.43232965, -97.28149414, 81.78143311, -25.54859734, -102.48294067, -0.57441652, 0.26933071, -0.60247386, -0.48428488, -0.47235373, 0.73274970, -0.17068830, 100.00800323, 110.21109009, 30.68999863, 0.00000000
1, 0.5850, 73, -0.00587531, -1.60068882, 0.06753851, -75.98886871, 7.54170227, 118.99636078, 2.01695418, -1.43232965, -97.28149414, 81.34389496, -26.12881660, -102.34406281, -0.57799739, 0.26448458, -0.60206831, -0.48319855, -0.43243176, 0.71165222, -0.20376165, 100.00800323, 110.21109009, 30.68999863, 0.00000000
1, 0.6200, 74, -0.15872136, -1.26513445, 0.08878049, -54.62380981, 17.86923027, 108.45487976, 0.11692487, -0.20461853, -99.88307190, 78.22323608, -29.95981216, -100.62413788, -0.60414582, 0.23482594, -0.59702873, -0.47267464, -0.33895361, 0.41548741, -0.26699850, 100.00800323, 110.21109009, 30.68999863, 0.00000000
1, 0.6250, 75, -0.25555041, -1.17354548, 0.07706335, -44.97435760, 5.04888535, 107.64089966, 0.11692487, -0.20461853, -99.88307190, 77.91996765, -30.48150826, -100.46565247, -0.60695446, 0.23094565, -0.59706521, -0.47093907, -0.24992621, 0.32935005, -0.25916618, 100.00800323, 110.21109009, 30.68999863, 0.00000000
1, 0.6300, 76, -0.38858604, -1.15764999, 0.04817267, -36.21478271, -6.92294693, 110.36369324, -0.17538731, -0.29231218, -101.66617584, 77.69044495, -31.02849770, -100.36818695, -0.60940325, 0.22697473, -0.59761059, -0.46901149, -0.12492617, 0.31897697, -0.23321836, 100.00800323, 110.21109009, 30.68999863, 0.00000000
1, 0.6350, 77, -0.55963886, -1.18205416, 0.02267931, -27.17728233, -18.08435822, 114.25897217, -0.17538731, -0.29231218, -101.66617584, 77.53836060, -31.60504723, -100.32891846, -0.61151618, 0.22292513, -0.59867674, -0.46683890, 0.03768415, 0.34899932, -0.20960061, 100.00800323, 110.21109009, 30.68999863, 0.00000000
1, 0.6400, 78, -0.70063305, -1.17748165, 0.02056196, -19.97946167, -27.48144341, 116.53721619, -0.96463019, 0.40923706, -101.52001953, 77.44422150, -32.20391846, -100.33702087, -0.61336207, 0.21879426, -0.60012996, -0.46449995, 0.16986424, 0.35010076, -0.20818487, 100.00800323, 110.21109009, 30.68999863, 0.00000000
1, 0.6450, 79, -0.78107071, -1.12896943, 0.00289580, -15.64462852, -33.23566437, 115.46858215, -0.96463019, 0.40923706, -101.52001953, 77.38998413, -32.80384064, -100.37897491, -0.61497700, 0.21468449, -0.60179794, -0.46211827, 0.24148905, 0.30729729, -0.19033194, 100.00800323, 110.21109009, 30.68999863, 0.00000000
1, 0.6500, 80, -0.81402504, -1.05305266, 0.00347514, -13.06582355, -35.49895477, 111.98174286, -0.96463019, 0.40923706, -101.52001953, 77.35852051, -33.38925934, -100.43843079, -0.61642104, 0.21068363, -0.60352945, -0.45977134, 0.26580584, 0.23695669, -0.19015841, 100.00800323, 110.21109009, 30.68999863, 0.00000000
1, 0.6550, 81, -0.83130407, -0.99308693, -0.00044383, -10.87070656, -35.59058762, 107.85051727, -1.66617942, 0.61385560, -102.60157776, 77.34185791, -33.95460129, -100.50401306, -0.61774367, 0.20684311, -0.60525393, -0.45746744, 0.27479422, 0.18242820, -0.18526714, 100.00800323, 110.21109009, 30.68999863, 0.00000000
1, 0.6600, 82, -0.84546292, -0.98975706, 0.00629013, -8.81909752, -35.57905579, 103.72356415, -1.66617942, 0.61385560, -102.60157776, 77.33917999, -34.49979019, -100.57535553, -0.61895072, 0.20316185, -0.60696727, -0.45520994, 0.28098273, 0.18435894, -0.19093965, 100.00800323, 110.21109009, 30.68999863, 0.00000000
1, 0.6650, 83, -0.90329421, -1.04690945, -0.01044494, -9.43710709, -35.44620895, 99.38813019, -2.22157264, 1.40309846, -103.18620300, 77.33704376, -35.02370834, -100.65218353, -0.62006676, 0.19957639, -0.60861295, -0.45307487, 0.33125243, 0.24666291, -0.17329833, 100.00800323, 110.21109009, 30.68999863, 0.00000000
1, 0.6850, 84, -1.43798041, -0.96648753, -0.11740432, -20.12792397, 4.67192173, 87.12557220, -3.50774622, 2.19234133, -104.06314087, 76.81908417, -36.83167267, -100.38407898, -0.62674898, 0.18722060, -0.61130351, -0.44546852, 0.84027892, 0.18613836, -0.06987144, 100.00800323, 110.21109009, 30.68999863, 0.00000000
1, 0.6900, 85, -1.54055846, -0.87694764, -0.06596704, -19.95393372, 10.99933720, 87.69480133, -4.15083313, 3.06927800, -105.02777100, 76.60338593, -37.24574661, -100.18985748, -0.62890762, 0.18455595, -0.61132699, -0.44350159, 0.93691397, 0.10142802, -0.12321529, 100.00800323, 110.21109009, 30.68999863, 0.00000000
1, 0.6950, 86, -1.53553379, -0.85719228, -0.04420974, -19.20045853, 28.64323425, 90.10372925, -4.15083313, 3.06927800, -105.02777100, 76.32048035, -37.65003586, -99.88071442, -0.63156664, 0.18218711, -0.61088961, -0.44129974, 0.92618895, 0.08668151, -0.14748864, 100.00800323, 110.21109009, 30.68999863, 0.00000000
1, 0.7000, 87, -1.42220438, -0.91247272, -0.02630011, -16.78295517, 47.11656952, 93.38755035, -4.15083313, 3.06927800, -105.02777100, 75.97255707, -38.04661942, -99.44857788, -0.63474888, 0.18015091, -0.61000377, -0.43878806, 0.80732167, 0.14716017, -0.16866881, 100.00800323, 110.21109009, 30.68999863, 0.00000000
1, 0.7050, 88, -1.26955664, -0.98920023, 0.03023645, -14.37026978, 53.95021057, 95.44759369, -4.56007004, 0.93539900, -105.49546814, 75.60287476, -38.44256592, -98.96556091, -0.63811910, 0.17825428, -0.60897738, -0.43609190, 0.64909828, 0.22916356, -0.22879410, 100.00800323, 110.21109009, 30.68999863, 0.00000000
1, 0.7100, 89, -1.11776459, -0.99897301, 0.06046220, -13.33362770, 53.13003540, 93.69729614, -4.56007004, 0.93539900, -105.49546814, 75.23708344, -38.82863617, -98.48459625, -0.64141142, 0.17641312, -0.60796601, -0.43341339, 0.49190849, 0.24424553, -0.26245123, 100.00800323, 110.21109009, 30.68999863, 0.00000000
1, 0.7150, 90, -0.97271353, -0.94409823, 0.04946803, -12.33178806, 54.09746552, 87.08274078, -5.05700064, 3.56620860, -105.90470886, 74.87338257, -39.17910385, -98.00301361, -0.64458281, 0.17478935, -0.60688251, -0.43087748, 0.34198242, 0.19448091, -0.25476664, 100.00800323, 110.21109009, 30.68999863, 0.00000000
1, 0.7200, 91, -0.81174999, -0.88068378, 0.03670737, -12.00256729, 56.89138794, 76.66453552, -5.05700064, 3.56620860, -105.90470886, 74.50615692, -39.47324371, -97.51679993, -0.64761728, 0.17349902, -0.60563552, -0.42859727, 0.17687577, 0.13567816, -0.24538334, 100.00800323, 110.21109009, 30.68999863, 0.00000000
1, 0.7250, 92, -0.62989485, -0.83671629, -0.01143634, -13.70745182, 59.97491074, 65.05230713, -6.31394339, 5.23238802, -106.46009827, 74.12661743, -39.70489502, -97.02752686, -0.65051788, 0.17252097, -0.60417187, -0.42666075, -0.00818960, 0.09579557, -0.20084901, 100.00800323, 110.21109009, 30.68999863, 0.00000000
1, 0.7300, 93, -0.50742453, -0.78549838, -0.07102542, -17.25901031, 62.23430634, 50.81502533, -6.31394339, 5.23238802, -106.46009827, 73.73311615, -39.86249542, -96.54649353, -0.65323037, 0.17185564, -0.60246217, -0.42520005, -0.13282493, 0.04796824, -0.14538713, 100.00800323, 110.21109009, 30.68999863, 0.00000000
1, 0.7550, 94, -0.64776379, -0.66350389, -0.23957257, -7.01600885, 11.45051003, 33.98112106, -6.48933077, 6.63548660, -106.86933899, 72.44952393, -40.45414352, -95.02350616, -0.66194421, 0.16886407, -0.59729201, -0.42018694, 0.00000243, -0.06211539, 0.00764268, 100.00800323, 110.21109009, 30.68999863, 0.00000000
1, 0.7600, 95, -0.63816977, -0.59139621, -0.25348434, -4.33901072, 1.13469923, 30.79182625, -6.48933077, 6.63548660, -106.86933899, 72.38361359, -40.59915543, -94.95486450, -0.66257060, 0.16795988, -0.59740609, -0.41939926, -0.01149438, -0.13230027, 0.02117591, 100.00800323, 110.21109009, 30.68999863, 0.00000000
1, 0.7650, 96, -0.58958817, -0.52100706, -0.26227376, -0.95538390, -9.26396942, 25.48843575, -7.07395506, 8.06781673, -107.24934387, 72.38380432, -40.73466110, -94.96195221, -0.66280282, 0.16710047, -0.59784305, -0.41875234, -0.06188171, -0.20111121, 0.03045986, 100.00800323, 110.21109009, 30.68999863, 0.00000000
1, 0.7700, 97, -0.53907877, -0.46061227, -0.25444075, 2.11978745, -20.85960388, 19.14392662, -7.07395506, 8.06781673, -107.24934387, 72.45533752, -40.85750198, -95.05484009, -0.66259360, 0.16628236, -0.59862441, -0.41829282, -0.11407822, -0.26036358, 0.02396551, 100.00800323, 110.21109009, 30.68999863, 0.00000000
1, 0.7750, 98, -0.48925272, -0.44974354, -0.24734327, 4.38054323, -29.84654617, 12.66165257, -7.30780458, 8.59397793, -107.33703613, 72.58412933, -40.96287537, -95.21781158, -0.66201365, 0.16553371, -0.59965879, -0.41802633, -0.16537447, -0.27050468, 0.01884676, 100.00800323, 110.21109009, 30.68999863, 0.00000000
1, 0.7800, 99, -0.45181215, -0.44321489, -0.28141609, 5.29942131, -36.46591187, 7.19930029, -7.30780458, 8.59397793, -107.33703613, 72.75260925, -41.05174637, -95.43406677, -0.66115272, 0.16483264, -0.60086018, -0.41794062, -0.20395035, -0.27659029, 0.05533666, 100.00800323, 110.21109009, 30.68999863, 0.00000000
1, 0.7850, 100, -0.47508395, -0.43772537, -0.30200580, 6.83476734, -41.22303391, 1.28275752, -7.30780458, 8.59397793, -107.33703613, 72.94561768, -41.12020874, -95.68532562, -0.66009176, 0.16420940, -0.60213524, -0.41802788, -0.18158072, -0.28200024, 0.07853881, 100.00800323, 110.21109009, 30.68999863, 0.00000000
1, 0.7900, 101, -0.51729763, -0.41250637, -0.28551248, 10.21380615, -54.41818619, -5.06869221, -8.09704781, 9.61707115, -108.27243042, 73.23049927, -41.17542648, -96.04074860, -0.65849555, 0.16364153, -0.60385132, -0.41829276, -0.14019379, -0.30757308, 0.06540469, 100.00800323, 110.21109009, 30.68999863, 0.00000000
1, 0.8350, 102, -0.63483953, -0.26785609, -0.20535573, 19.20126152, -66.09646606, -48.19007111, -9.55860806, 11.54633141, -109.58783722, 76.76941681, -40.63722992, -100.37450409, -0.63628322, 0.16375799, -0.62156594, -0.42659459, -0.01641362, -0.46978882, 0.02843747, 100.00800323, 110.21109009, 30.68999863, 0.00000000
1, 0.8400, 103, -0.57991791, -0.28252533, -0.17357111, 19.39402962, -62.94055176, -54.84732437, -9.61707115, 11.92633724, -110.20169067, 77.18113708, -40.44133759, -100.85976410, -0.63341188, 0.16460447, -0.62327850, -0.42804074, -0.06902280, -0.45840567, 0.00161577, 100.00800323, 110.21109009, 30.68999863, 0.00000000
1, 0.8450, 104, -0.54858398, -0.27518103, -0.17936061, 19.01633644, -59.36888885, -60.15541458, -9.61707115, 11.92633724, -110.20169067, 77.57756042, -40.21304321, -101.32649994, -0.63053191, 0.16564888, -0.62483841, -0.42961264, -0.09741764, -0.46934572, 0.01216906, 100.00800323, 110.21109009, 30.68999863, 0.00000000
1, 0.8500, 105, -0.49737260, -0.24815443, -0.20074143, 19.50907135, -54.38193130, -66.07179260, -10.11400127, 12.62788677, -110.61093140, 77.95721436, -39.94811630, -101.76591492, -0.62766415, 0.16695870, -0.62621838, -0.43129244, -0.14513192, -0.50026059, 0.03807038, 100.00800323, 110.21109009, 30.68999863, 0.00000000
1, 0.8550, 106, -0.48299411, -0.21506101, -0.22273108, 20.69576836, -53.34291458, -69.77766418, -10.11400127, 12.62788677, -110.61093140, 78.33751678, -39.66175079, -102.19965363, -0.62473667, 0.16841911, -0.62755573, -0.43302768, -0.15568489, -0.53745133, 0.06446885, 100.00800323, 110.21109009, 30.68999863, 0.00000000
1, 0.8600, 107, -0.52309287, -0.18118683, -0.26281026, 23.21524620, -53.68619919, -73.46335602, -10.11400127, 12.62788677, -110.61093140, 78.73028564, -39.35540390, -102.63599396, -0.62170136, 0.17003964, -0.62891281, -0.43479040, -0.11143555, -0.57559049, 0.10896161, 100.00800323, 110.21109009, 30.68999863, 0.00000000
1, 0.8650, 108, -0.57976753, -0.14963599, -0.27505901, 27.08683968, -54.11770630, -77.34360504, -10.23092651, 13.97252274, -111.02017212, 79.14231110, -39.02801895, -103.07519531, -0.61854053, 0.17186038, -0.63031518, -0.43654835, -0.05037729, -0.61167729, 0.12582429, 100.00800323, 110.21109009, 30.68999863, 0.00000000
1, 0.8700, 109, -0.62871069, -0.14705172, -0.22363740, 31.51752472, -56.63716507, -81.10548401, -10.23092651, 13.97252274, -111.02017212, 79.58390808, -38.68194199, -103.52952576, -0.61519355, 0.17385258, -0.63182926, -0.43829679, 0.00307656, -0.61912584, 0.07937191, 100.00800323, 110.21109009, 30.68999863, 0.00000000
1, 0.8750, 110, -0.65217346, -0.17019714, -0.16296846, 33.99099350, -59.13255692, -85.12230682, -10.34785175, 13.97252274, -111.57556152, 80.04467773, -38.31549454, -103.99839020, -0.61166853, 0.17597018, -0.63341349, -0.44009477, 0.03131030, -0.60105908, 0.02404179, 100.00800323, 110.21109009, 30.68999863, 0.00000000
1, 0.8800, 111, -0.64144081, -0.20566802, -0.14220211, 34.60554886, -57.94768906, -89.30813599, -10.34785175, 13.97252274, -111.57556152, 80.50045013, -37.92451096, -104.45817566, -0.60807693, 0.17823826, -0.63493109, -0.44196844, 0.02580019, -0.57078809, 0.00872684, 100.00800323, 110.21109009, 30.68999863, 0.00000000
1, 0.9050, 112, -0.46292579, -0.18471131, -0.15841277, 37.97713089, -37.49797440, -105.75878906, -10.23092651, 15.90178299, -111.34171295, 82.47582245, -35.59615326, -106.27306366, -0.59073436, 0.19262934, -0.64004350, -0.45196390, -0.12051807, -0.61973643, 0.04936433, 100.00800323, 110.21109009, 30.68999863, 0.00000000
1, 0.9100, 113, -0.45116034, -0.17739254, -0.32633060, 32.77157974, -27.64837837, -105.84333038, -10.23092651, 15.90178299, -111.34171295, 82.78437805, -35.08899689, -106.52552795, -0.58758843, 0.19587260, -0.64050406, -0.45401356, -0.12471855, -0.63240564, 0.22106421, 100.00800323, 110.21109009, 30.68999863, 0.00000000
1, 0.9150, 114, -0.41479248, -0.20141649, -0.21430281, 41.66959381, -40.18689728, -107.06165314, -10.17246437, 16.19409561, -111.80941010, 83.17633057, -34.58216476, -106.84928894, -0.58397663, 0.19912492, -0.64143467, -0.45594090, -0.15407628, -0.61429965, 0.11388370, 100.00800323, 110.21109009, 30.68999863, 0.00000000
1, 0.9200, 115, -0.46015891, -0.19586442, -0.26409814, 41.72179794, -41.82987213, -108.25820923, -10.17246437, 16.19409561, -111.80941010, 83.56872559, -34.06856155, -107.17757416, -0.58027804, 0.20237352, -0.64237958, -0.45789847, -0.10122730, -0.62544501, 0.16859205, 100.00800323, 110.21109009, 30.68999863, 0.00000000
1, 0.9250, 116, -0.46988407, -0.20645744, -0.22582349, 43.75588226, -42.46568680, -108.61473083, -9.52937698, 16.80795097, -112.92019653, 83.96759796, -33.55164719, -107.50365448, -0.57651937, 0.20566498, -0.64335918, -0.45980048, -0.08412142, -0.62054849, 0.13543047, 100.00800323, 110.21109009, 30.68999863, 0.00000000
1, 0.9300, 117, -0.50137663, -0.22541335, -0.23229113, 44.18441010, -42.75931549, -109.29317474, -9.52937698, 16.80795097, -112.92019653, 84.36389160, -33.02964401, -107.82563019, -0.57271785, 0.20897420, -0.64432949, -0.46169645, -0.04503386, -0.60715497, 0.14702998, 100.00800323, 110.21109009, 30.68999863, 0.00000000
1, 0.9350, 118, -0.51643682, -0.23979673, -0.22244243, 44.85067368, -42.17467499, -110.19907379, -9.52937698, 16.80795097, -112.92019653, 84.75106049, -32.50763702, -108.13575745, -0.56893486, 0.21228169, -0.64526081, -0.46356037, -0.02232281, -0.59828162, 0.14233129, 100.00800323, 110.21109009, 30.68999863, 0.00000000
1, 0.9400, 119, -0.52717048, -0.25775972, -0.18643653, 45.74098969, -42.46001816, -111.05845642, -9.67553329, 16.69102669, -112.80327606, 85.14320374, -31.97306252, -108.44470978, -0.56505710, 0.21567257, -0.64619994, -0.46542621, -0.00386807, -0.58582497, 0.11155236, 100.00800323, 110.21109009, 30.68999863, 0.00000000
1, 0.9450, 120, -0.54260486, -0.27281639, -0.16918890, 45.18901062, -41.12118149, -111.89583588, -9.67553329, 16.69102669, -112.80327606, 85.52302551, -31.43201828, -108.74015808, -0.56118792, 0.21909398, -0.64706695, -0.46730128, 0.01951809, -0.57621533, 0.09949168, 100.00800323, 110.21109009, 30.68999863, 0.00000000
1, 0.9500, 121, -0.55045807, -0.28479841, -0.15749402, 44.51485443, -38.49536514, -112.70095825, -9.41245270, 17.77258110, -112.89096832, 85.88634491, -30.88435745, -109.01485443, -0.55736548, 0.22256842, -0.64782822, -0.46917561, 0.03548484, -0.56960714, 0.09284580, 100.00800323, 110.21109009, 30.68999863, 0.00000000
1, 0.9700, 122, -0.54499686, -0.29054433, -0.16120984, 45.41622543, -25.08174133, -113.97006989, -9.26629639, 17.77258110, -112.86173248, 87.19976044, -28.64645386, -109.86621094, -0.54276597, 0.23725739, -0.64982438, -0.47627968, 0.06383789, -0.58449757, 0.11538312, 100.00800323, 110.21109009, 30.68999863, 0.00000000
1, 0.9750, 123, -0.53986979, -0.29660818, -0.18169680, 46.33852768, -21.81283569, -113.41316223, -9.41245270, 18.03566170, -113.70944214, 87.50353241, -28.08470154, -110.02086639, -0.53929901, 0.24110536, -0.65011805, -0.47788209, 0.06738490, -0.58330089, 0.14033097, 100.00800323, 110.21109009, 30.68999863, 0.00000000
1, 0.9800, 124, -0.54176694, -0.30584052, -0.19505529, 47.44273376, -18.82665825, -112.61993408, -9.41245270, 18.03566170, -113.70944214, 87.80162048, -27.52552986, -110.15435028, -0.53590554, 0.24501237, -0.65035379, -0.47938946, 0.07794732, -0.57881689, 0.15808630, 100.00800323, 110.21109009, 30.68999863, 0.00000000
1, 0.9850, 125, -0.55011255, -0.32234031, -0.19505078, 48.06151962, -16.79393005, -111.45770264, -9.41245270, 18.03566170, -113.70944214, 88.08950806, -26.97957420, -110.26993561, -0.53262609, 0.24887745, -0.65054190, -0.48079592, 0.09483994, -0.56691051, 0.16238903, 100.00800323, 110.21109009, 30.68999863, 0.00000000
1, 0.9900, 126, -0.54580140, -0.35334677, -0.19288468, 48.11266708, -14.77710724, -109.83293152, -9.03244686, 18.79567337, -113.56328583, 88.37484741, -26.43250465, -110.37261200, -0.52936846, 0.25279230, -0.65069044, -0.48214847, 0.09900793, -0.54034120, 0.16448081, 100.00800323, 110.21109009, 30.68999863, 0.00000000
1, 0.9950, 127, -0.53174335, -0.37881416, -0.19422507, 47.40924835, -12.10723686, -108.11288452, -9.03244686, 18.79567337, -113.56328583, 88.64761353, -25.89323997, -110.45667267, -0.52621621, 0.25669155, -0.65076357, -0.48343849, 0.09342103, -0.51917237, 0.17001978, 100.00800323, 110.21109009, 30.68999863, 0.00000000
1, 1.0000, 128, -0.51371479, -0.40440795, -0.21331893, 46.42636108, -9.85760498, -106.39929962, -8.12627888, 16.57410049, -113.53404999, 88.90794373, -25.36193466, -110.52488708, -0.52316099, 0.26056054, -0.65076643, -0.48467910, 0.08382189, -0.49768421, 0.19316117, 100.00800323, 110.21109009, 30.68999863, 0.00000000
1, 1.0050, 129, -0.50419980, -0.45711839, -0.23328616, 45.56145859, -8.51539135, -104.56862640, -8.12627888, 16.57410049, -113.53404999, 89.15891266, -24.83940887, -110.58258820, -0.52017933, 0.26437968, -0.65072465, -0.48587474, 0.08264262, -0.44891751, 0.21699035, 100.00800323, 110.21109009, 30.68999863, 0.00000000
1, 1.0100, 130, -0.50786948, -0.50740051, -0.22685875, 44.49795532, -8.14243984, -101.60181427, -8.12627888, 16.57410049, -113.53404999, 89.40206146, -24.33147049, -110.63529205, -0.51727086, 0.26809219, -0.65067035, -0.48701692, 0.09439716, -0.40242720, 0.21430098, 100.00800323, 110.21109009, 30.68999863, 0.00000000
1, 1.0150, 131, -0.51325101, -0.53939879, -0.20105006, 42.61288834, -10.23455715, -97.80700684, -7.80473518, 19.20491028, -113.32943726, 89.63896942, -23.84244919, -110.69670868, -0.51439428, 0.27160397, -0.65065306, -0.48813987, 0.10758856, -0.37404770, 0.19219369, 100.00800323, 110.21109009, 30.68999863, 0.00000000
1, 1.0600, 132, -0.54200500, -0.74150872, -0.13187988, 30.99869728, -16.84474182, -68.72341156, -7.45396090, 20.72493362, -114.61560822, 91.52928925, -20.14091301, -111.38760376, -0.49061337, 0.29683548, -0.65147251, -0.49676031, 0.19660008, -0.19629429, 0.15363044, 100.00800323, 110.21109009, 30.68999863, 0.00000000
1, 1.0650, 133, -0.56128734, -0.75086248, -0.14779554, 28.82679558, -15.71019554, -64.49749756, -7.45396090, 20.52031517, -114.61560822, 91.69805908, -19.81609344, -111.46207428, -0.48839095, 0.29893950, -0.65159333, -0.49752960, 0.22131480, -0.18880647, 0.17234114, 100.00800323, 110.21109009, 30.68999863, 0.00000000
1, 1.0700, 134, -0.58194000, -0.76507151, -0.15967208, 24.55079079, -11.21088982, -60.44504166, -7.45396090, 20.52031517, -114.61560822, 91.83692169, -19.51205826, -111.51217651, -0.48643607, 0.30093247, -0.65157235, -0.49827027, 0.24709427, -0.17633371, 0.18661553, 100.00800323, 110.21109009, 30.68999863, 0.00000000
1, 1.0750, 135, -0.58483624, -0.78073561, -0.17145374, 22.52895355, -7.96538019, -57.04703522, -7.36626720, 20.87108994, -115.11254120, 91.95970154, -19.22543335, -111.54484558, -0.48466995, 0.30285439, -0.65147811, -0.49894944, 0.25480753, -0.16227135, 0.20050773, 100.00800323, 110.21109009, 30.68999863, 0.00000000
1, 1.0800, 136, -0.57960737, -0.79298365, -0.17778815, 20.36538506, -4.78825188, -53.75402069, -7.36626720, 20.87108994, -115.11254120, 92.06603241, -18.95576477, -111.56063080, -0.48309132, 0.30470437, -0.65130877, -0.49957484, 0.25411218, -0.15151900, 0.20870712, 100.00800323, 110.21109009, 30.68999863, 0.00000000
1, 1.0850, 137, -0.57879496, -0.79230201, -0.18288001, 18.71225929, -2.61948299, -50.35132217, -7.19087982, 19.08798599, -114.70330048, 92.14752197, -18.72061348, -111.56087494, -0.48179880, 0.30634370, -0.65107477, -0.50012517, 0.25740725, -0.15353917, 0.21534744, 100.00800323, 110.21109009, 30.68999863, 0.00000000
1, 1.0900, 138, -0.57765836, -0.79005527, -0.17002183, 17.68621063, -2.22975588, -46.61344147, -7.19087982, 19.08798599, -114.70330048, 92.23623657, -18.48707390, -111.56361389, -0.48047924, 0.30798739, -0.65088141, -0.50063640, 0.26004001, -0.15703735, 0.20392029, 100.00800323, 110.21109009, 30.68999863, 0.00000000
1, 1.0950, 139, -0.57630646, -0.79464829, -0.14594024, 16.32222557, -3.27452755, -42.73019028, -7.19087982, 19.08798599, -114.70330048, 92.32004547, -18.27275276, -111.57227325, -0.47923118, 0.30946818, -0.65072978, -0.50111645, 0.26225403, -0.15363587, 0.18129247, 100.00800323, 110.21109009, 30.68999863, 0.00000000
1, 1.1000, 140, -0.56416118, -0.81150842, -0.13240330, 14.20712757, -4.00850010, -39.00522614, -7.07395506, 20.14031029, -114.90792084, 92.39466095, -18.07692337, -111.58522034, -0.47807080, 0.31078205, -0.65059537, -0.50158602, 0.25339878, -0.13783920, 0.16908288, 100.00800323, 110.21109009, 30.68999863, 0.00000000
1, 1.1050, 141, -0.52589989, -0.82454789, -0.13187648, 11.61432266, -3.55391431, -35.63143158, -7.07395506, 20.14031029, -114.90792084, 92.45568848, -17.89803696, -111.59628296, -0.47703093, 0.31195515, -0.65043867, -0.50205100, 0.21817315, -0.12574363, 0.16974048, 100.00800323, 110.21109009, 30.68999863, 0.00000000
1, 1.1300, 142, -0.50088757, -0.83481777, -0.12614846, 6.20196724, -10.53483486, -16.52032471, -6.54779291, 22.06957054, -115.20023346, 92.69318390, -17.27272797, -111.76772308, -0.47272637, 0.31538844, -0.65035701, -0.50407916, 0.20394006, -0.11872870, 0.16820766, 100.00800323, 110.21109009, 30.68999863, 0.00000000
1, 1.1350, 143, -0.51903301, -0.82845950, -0.10840708, 5.64136696, -10.54368210, -13.42880917, -7.01549244, 22.18649483, -116.13563538, 92.71559906, -17.23993874, -111.81338501, -0.47231090, 0.31540084, -0.65049750, -0.50427949, 0.22295406, -0.12537298, 0.15100551, 100.00800323, 110.21109009, 30.68999863, 0.00000000
1, 1.1400, 144, -0.52918220, -0.81957603, -0.08857668, 4.89478445, -9.98549652, -10.81213760, -7.01549244, 22.18649483, -116.13563538, 92.75461578, -17.18357468, -111.86298370, -0.47172204, 0.31558770, -0.65066183, -0.50450158, 0.23373961, -0.13447757, 0.13167036, 100.00800323, 110.21109009, 30.68999863, 0.00000000
1, 1.1450, 145, -0.52833587, -0.81016421, -0.07800549, 3.94630742, -7.50606585, -8.49762726, -7.01549244, 22.18649483, -116.13563538, 92.78520203, -17.13933372, -111.90013885, -0.47126749, 0.31574407, -0.65078598, -0.50466853, 0.23365471, -0.14412317, 0.12167801, 100.00800323, 110.21109009, 30.68999863, 0.00000000
1, 1.1500, 146, -0.50945669, -0.80797350, -0.07492631, 2.70295882, -4.31714487, -6.82844114, -6.89856768, 22.44957542, -116.16486359, 92.80478668, -17.10418701, -111.92102051, -0.47095716, 0.31589785, -0.65084004, -0.50479215, 0.21538842, -0.14649202, 0.11903195, 100.00800323, 110.21109009, 30.68999863, 0.00000000
1, 1.1550, 147, -0.48009264, -0.80807126, -0.07065135, 1.71231413, -1.53370512, -5.59276390, -6.89856768, 22.44957542, -116.16486359, 92.81521606, -17.07586479, -111.92763519, -0.47076678, 0.31605765, -0.65083194, -0.50488019, 0.18651357, -0.14654449, 0.11504513, 100.00800323, 110.21109009, 30.68999863, 0.00000000
1, 1.1600, 148, -0.43945107, -0.80954349, -0.06249229, 1.02783680, -0.61990148, -4.72101736, -7.22011089, 22.01110840, -116.48640442, 92.82090759, -17.05212975, -111.92970276, -0.47063085, 0.31619880, -0.65080214, -0.50495696, 0.14626634, -0.14520729, 0.10710172, 100.00800323, 110.21109009, 30.68999863, 0.00000000
1, 1.1650, 149, -0.39560080, -0.80892861, -0.05132592, 0.21702205, -0.96715540, -3.59730291, -7.22011089, 22.01110840, -116.48640442, 92.82317352, -17.03391838, -111.93386078, -0.47052109, 0.31628382, -0.65077710, -0.50503838, 0.10271475, -0.14593789, 0.09610092, 100.00800323, 110.21109009, 30.68999863, 0.00000000
1, 1.1700, 150, -0.35011795, -0.80184805, -0.04775167, -0.81781936, -3.40348744, -2.59063554, -7.22011089, 22.01110840, -116.48640442, 92.82405853, -17.02020264, -111.95098114, -0.47037894, 0.31626508, -0.65079319, -0.50516170, 0.05746983, -0.15309900, 0.09267078, 100.00800323, 110.21109009, 30.68999863, 0.00000000
1, 1.1750, 151, -0.30115548, -0.78365314, -0.04724908, -1.36469638, -7.92840338, -1.46470046, -7.07395506, 21.92341423, -117.10026550, 92.82923126, -17.01101494, -111.99202728, -0.47014064, 0.31610325, -0.65090579, -0.50533968, 0.00868335, -0.17134562, 0.09238823, 100.00800323, 110.21109009, 30.68999863, 0.00000000
1, 1.2400, 152, 0.46152666, -0.99499393, -0.05880883, -70.20747375, 90.84057617, -0.82801116, -8.30166626, 21.19263268, -118.21104431, 92.86267853, -19.19540405, -114.00320435, -0.47142416, 0.29270101, -0.66174674, -0.50415945, -0.79010141, 0.05194462, 0.10750644, 100.00800323, 110.21109009, 30.68999863, 0.00000000
1, 1.2450, 153, 0.30418622, -0.51327634, 0.01521500, -50.39977646, 85.42023468, -0.08768404, -8.30166626, 21.19263268, -118.21104431, 92.46206665, -19.21469498, -113.55139160, -0.47452739, 0.29354385, -0.65887344, -0.50452119, -0.63324594, -0.43013316, 0.02677562, 100.00800323, 110.21109009, 30.68999863, 0.00000000
1, 1.2500, 154, 0.12702556, -0.26363802, -0.03903157, -26.06040001, 70.91692352, 4.86513901, -7.92166042, 21.54340744, -117.62642670, 92.20853424, -19.25316048, -113.17713928, -0.47700334, 0.29442614, -0.65688944, -0.50425935, -0.45648658, -0.67969775, 0.07618409, 100.00800323, 110.21109009, 30.68999863, 0.00000000
1, 1.2550, 155, 0.00103380, -0.23465306, -0.08050371, -3.83397913, 49.36713409, 12.41097546, -7.92166042, 21.54340744, -117.62642670, 92.10398865, -19.32406998, -112.91815948, -0.47873786, 0.29507950, -0.65593475, -0.50347584, -0.33141586, -0.70834619, 0.11505278, 100.00800323, 110.21109009, 30.68999863, 0.00000000
1, 1.2600, 156, -0.15025081, -0.31549418, -0.02991071, 11.46553326, 18.37605858, 20.45088959, -8.18474102, 21.30955887, -118.03565979, 92.13055420, -19.42934799, -112.82463837, -0.47956395, 0.29514074, -0.65606517, -0.50248277, -0.18185717, -0.62702924, 0.06385839, 100.00800323, 110.21109009, 30.68999863, 0.00000000
1, 1.2650, 157, -0.33099359, -0.44482049, 0.01465588, 16.42956352, -17.50315666, 25.24600792, -8.18474102, 21.30955887, -118.03565979, 92.24562836, -19.55207062, -112.92230225, -0.47940421, 0.29438055, -0.65711647, -0.50170690, -0.00319875, -0.49701980, 0.02018543, 100.00800323, 110.21109009, 30.68999863, 0.00000000
1, 1.2700, 158, -0.47182751, -0.55696654, 0.03543633, 13.80982876, -47.80782318, 25.78385735, -8.18474102, 21.30955887, -118.03565979, 92.40193939, -19.67140961, -113.18119049, -0.47842023, 0.29288387, -0.65874922, -0.50138068, 0.13559116, -0.38410255, 0.00128281, 100.00800323, 110.21109009, 30.68999863, 0.00000000
1, 1.2750, 159, -0.60196698, -0.62401271, 0.00185633, 9.46804905, -62.71035767, 23.97667313, -7.83396673, 20.43262100, -118.09412384, 92.56369019, -19.77798843, -113.51929474, -0.47702128, 0.29101911, -0.66057044, -0.50140339, 0.26400200, -0.31623954, 0.03707039, 100.00800323, 110.21109009, 30.68999863, 0.00000000
1, 1.2800, 160, -0.72078556, -0.63911557, -0.07744621, 6.15590477, -57.28770447, 20.32740021, -7.83396673, 20.43262100, -118.09412384, 92.69950104, -19.86677551, -113.82826996, -0.47573689, 0.28930646, -0.66215473, -0.50152493, 0.38148654, -0.30034950, 0.11838804, 100.00800323, 110.21109009, 30.68999863, 0.00000000
1, 1.2850, 161, -0.81699216, -0.60468197, -0.19860767, 5.02498960, -38.05901718, 16.94438171, -8.09704781, 20.95878410, -118.15258789, 92.77627563, -19.98712730, -114.02821350, -0.47522798, 0.28779858, -0.66327310, -0.50139731, 0.47633904, -0.33391100, 0.24092171, 100.00800323, 110.21109009, 30.68999863, 0.00000000
1, 1.3400, 162, -0.55523050, -1.97756016, 0.15950610, 10.46634960, -8.01732159, -32.91902924, -9.44168377, 21.19263268, -118.50335693, 93.39663696, -19.88366699, -115.30319214, -0.46760571, 0.28351548, -0.66893691, -0.50347519, 0.21399784, 1.03880763, -0.10866069, 100.00800323, 110.21109009, 30.68999863, 0.00000000
1, 1.3450, 163, -0.50306904, -1.93899333, 0.09710402, 10.56759453, 0.84042448, -34.77726364, -9.44168377, 21.19263268, -118.50335693, 93.44390106, -19.71018410, -115.28800201, -0.46673369, 0.28476211, -0.66871983, -0.50386912, 0.16484302, 0.99936491, -0.04518984, 100.00800323, 110.21109009, 30.68999863, 0.00000000
1, 1.3500, 164, -0.53785861, -1.63615072, -0.09092900, 4.80097675, -4.89578867, -22.71252823, -9.09090900, 20.87108994, -119.20491028, 93.47396851, -19.59532547, -115.30686951, -0.46603113, 0.28541294, -0.66864198, -0.50425428, 0.20229146, 0.69608289, 0.14386892, 100.00800323, 110.21109009, 30.68999863, 0.00000000
1, 1.3550, 165, -0.63498473, -1.32642162, -0.25486833, -0.16344933, -15.25242233, -10.87328815, -9.09090900, 20.87108994, -119.20491028, 93.49893188, -19.53654289, -115.38423920, -0.46534920, 0.28538945, -0.66881293, -0.50467044, 0.30101317, 0.38622692, 0.30852509, 100.00800323, 110.21109009, 30.68999863, 0.00000000
1, 1.3600, 166, -0.70168597, -1.03342056, -0.30941015, -1.18144393, -20.46655083, -2.92260766, -9.23706532, 21.07570839, -118.97106171, 93.52889252, -19.51586533, -115.49170685, -0.46470287, 0.28499860, -0.66916621, -0.50501853, 0.36832297, 0.09317677, 0.36385190, 100.00800323, 110.21109009, 30.68999863, 0.00000000
1, 1.3650, 167, -0.70470047, -0.83112681, -0.21785900, 1.33317900, -18.94523048, -0.07912976, -9.23706532, 21.07570839, -118.97106171, 93.56906128, -19.50974846, -115.59200287, -0.46413186, 0.28460956, -0.66957891, -0.50521606, 0.37124670, -0.10927697, 0.27324304, 100.00800323, 110.21109009, 30.68999863, 0.00000000
1, 1.3700, 168, -0.65038317, -0.72961211, -0.07455000, 4.83186674, -14.52075291, -1.77081692, -9.23706532, 21.07570839, -118.97106171, 93.61868286, -19.49642181, -115.66831207, -0.46360868, 0.28443846, -0.66995752, -0.50529087, 0.31674385, -0.21103746, 0.13102199, 100.00800323, 110.21109009, 30.68999863, 0.00000000
1, 1.3750, 169, -0.56167823, -0.69218755, 0.00596208, 8.01621914, -11.21506405, -6.32439661, -9.29552746, 20.98801422, -118.94182587, 93.67778015, -19.46127701, -115.72558594, -0.46304166, 0.28453773, -0.67028224, -0.50532418, 0.22831710, -0.24870396, 0.05172894, 100.00800323, 110.21109009, 30.68999863, 0.00000000
1, 1.3800, 170, -0.48947194, -0.72019124, 0.00188914, 11.58706665, -10.73301220, -12.10692024, -9.29552746, 20.98801422, -118.94182587, 93.75309753, -19.39733315, -115.77832031, -0.46231630, 0.28488839, -0.67060363, -0.50536430, 0.15705106, -0.22094581, 0.05712222, 100.00800323, 110.21109009, 30.68999863, 0.00000000
1, 1.3850, 171, -0.46748152, -0.80580080, -0.05874172, 14.70617199, -11.09465790, -17.72854233, -9.61707115, 21.36802101, -118.59105682, 93.83020782, -19.32181931, -115.82624054, -0.46155161, 0.28533775, -0.67089558, -0.50542235, 0.13648091, -0.13559565, 0.11901661, 100.00800323, 110.21109009, 30.68999863, 0.00000000
1, 1.4250, 172, -0.32541287, -0.92769003, -0.02390054, 18.85511971, 0.39999402, -23.53635406, -9.29552746, 20.90032196, -119.02952576, 94.44089508, -18.35096550, -115.81995392, -0.45535487, 0.29318023, -0.67141020, -0.50587130, 0.01014367, -0.01843700, 0.09466322, 100.00800323, 110.21109009, 30.68999863, 0.00000000
1, 1.4300, 173, -0.33382598, -0.94312847, -0.02259912, 20.86401176, -1.04257417, -23.66641426, -9.29552746, 20.90032196, -119.02952576, 94.54363251, -18.23232079, -115.81584167, -0.45453304, 0.29426423, -0.67158681, -0.50574636, 0.02051363, -0.00351890, 0.09501453, 100.00800323, 110.21109009, 30.68999863, 0.00000000
1, 1.4350, 174, -0.35261512, -0.96032500, -0.02348516, 22.41802025, -3.08351159, -23.69979286, -8.68167210, 21.36802101, -118.12335205, 94.64826965, -18.11657524, -115.81917572, -0.45368570, 0.29529482, -0.67179710, -0.50562721, 0.04125288, 0.01318128, 0.09763901, 100.00800323, 110.21109009, 30.68999863, 0.00000000
1, 1.4400, 175, -0.37716600, -0.96849585, -0.02314078, 23.64328003, -4.33420277, -23.39467621, -8.68167210, 21.36802101, -118.12335205, 94.77017212, -17.99794769, -115.83196259, -0.45273587, 0.29635218, -0.67210120, -0.50545579, 0.06774507, 0.02087583, 0.09918190, 100.00800323, 110.21109009, 30.68999863, 0.00000000
1, 1.4450, 176, -0.38526782, -0.97018886, -0.00978343, 24.42796898, -4.40853071, -22.91570854, -8.56474686, 21.16340256, -118.06489563, 94.89606476, -17.88163757, -115.84507751, -0.45178336, 0.29740882, -0.67242885, -0.50525182, 0.07775474, 0.02209347, 0.08792341, 100.00800323, 110.21109009, 30.68999863, 0.00000000
1, 1.4500, 177, -0.38967049, -0.96693516, 0.01404728, 25.02981758, -4.09820747, -22.56544876, -8.56474686, 21.16340256, -118.06489563, 95.02441406, -17.76716805, -115.85643768, -0.45083869, 0.29847333, -0.67276663, -0.50501812, 0.08400625, 0.01837083, 0.06625569, 100.00800323, 110.21109009, 30.68999863, 0.00000000
1, 1.4550, 178, -0.39395693, -0.96658933, 0.03016600, 25.55195427, -3.18509173, -22.69054222, -8.56474686, 21.16340256, -118.06489563, 95.15378571, -17.65244865, -115.86269379, -0.44991034, 0.29957131, -0.67309481, -0.50475860, 0.09015626, 0.01758125, 0.05231811, 100.00800323, 110.21109009, 30.68999863, 0.00000000
1, 1.4600, 179, -0.39248145, -0.97318089, 0.03926402, 25.81405258, -1.36749458, -22.86086845, -8.50628471, 20.37415886, -118.53259277, 95.28149414, -17.53767395, -115.85910797, -0.44902700, 0.30071887, -0.67338926, -0.50446981, 0.09056968, 0.02374670, 0.04540168, 100.00800323, 110.21109009, 30.68999863, 0.00000000
1, 1.5000, 180, -0.34617344, -0.91782904, 0.08698200, 25.34161377, 20.58558083, -20.47382736, -7.68781042, 21.13417053, -117.80181122, 96.12242889, -16.69794083, -115.28063202, -0.44516087, 0.31194514, -0.67362303, -0.50075352, 0.05824866, -0.03461283, 0.01241053, 100.00300598, 110.63150787, 30.72999954, 0.00000000
1, 1.5050, 181, -0.34049538, -0.89286935, 0.07555129, 26.53170204, 22.25883293, -20.09857368, -7.68781042, 21.13417053, -117.80181122, 96.21854401, -16.60946083, -115.15398407, -0.44501159, 0.31353846, -0.67349398, -0.50006419, 0.05408891, -0.05982756, 0.02552162, 100.00300598, 110.63150787, 30.72999954, 0.00000000
1, 1.5100, 182, -0.34018892, -0.87002194, 0.07594197, 27.57974434, 23.83473015, -20.07435226, -7.36626720, 20.81262779, -117.21718597, 96.31773376, -16.52215576, -115.01907349, -0.44489333, 0.31518489, -0.67335534, -0.49932060, 0.05524376, -0.08292916, 0.02685688, 100.00300598, 110.63150787, 30.72999954, 0.00000000
1, 1.5150, 183, -0.34286070, -0.86890304, 0.07870651, 28.77432060, 24.96855736, -20.44810486, -7.36626720, 20.81262779, -117.21718597, 96.42133331, -16.43381691, -114.87797546, -0.44478214, 0.31688923, -0.67321324, -0.49853206, 0.05937898, -0.08429708, 0.02582945, 100.00300598, 110.63150787, 30.72999954, 0.00000000
1, 1.5200, 184, -0.34791240, -0.90925968, 0.07889595, 30.52921867, 26.74318123, -21.19929314, -6.84010506, 20.95878410, -116.48640442, 96.53115845, -16.34296799, -114.72711945, -0.44468069, 0.31868729, -0.67306167, -0.49768025, 0.06594257, -0.04417872, 0.02742443, 100.00300598, 110.63150787, 30.72999954, 0.00000000
1, 1.5250, 185, -0.35218516, -0.95979571, 0.08550256, 30.61286545, 28.50125313, -21.85949707, -6.84010506, 20.95878410, -116.48640442, 96.63895416, -16.25010300, -114.56669617, -0.44461334, 0.32054326, -0.67286593, -0.49681228, 0.07174757, 0.00610440, 0.02258965, 100.00300598, 110.63150787, 30.72999954, 0.00000000
1, 1.5300, 186, -0.35833383, -0.99982381, 0.09651493, 29.34011269, 30.72794342, -22.21084976, -6.84010506, 20.95878410, -116.48640442, 96.73730469, -16.15706825, -114.39443207, -0.44461972, 0.32243171, -0.67259151, -0.49595541, 0.07942891, 0.04585952, 0.01322695, 100.00300598, 110.63150787, 30.72999954, 0.00000000
1, 1.5350, 187, -0.35346559, -1.02686512, 0.12044413, 27.91683960, 33.68018723, -22.36772728, -6.48933077, 21.01724625, -116.34024811, 96.82488251, -16.06752396, -114.20688629, -0.44473702, 0.32434812, -0.67223108, -0.49508864, 0.07602516, 0.07260177, -0.00917864, 100.00300598, 110.63150787, 30.72999954, 0.00000000
1, 1.5400, 188, -0.33109111, -1.03849459, 0.15051314, 26.41291046, 37.40008163, -22.61044121, -6.48933077, 21.01724625, -116.34024811, 96.89952087, -15.97696877, -113.99977875, -0.44496763, 0.32633287, -0.67175192, -0.49422669, 0.05508280, 0.08390754, -0.03786137, 100.00300598, 110.63150787, 30.72999954, 0.00000000
1, 1.5450, 189, -0.30259839, -1.02194607, 0.17929760, 25.08554268, 41.22599411, -22.85287285, -5.90470600, 18.70797920, -116.54486847, 96.96233368, -15.88775635, -113.77275085, -0.44532177, 0.32837975, -0.67116296, -0.49335152, 0.02802125, 0.06701817, -0.06540082, 100.00300598, 110.63150787, 30.72999954, 0.00000000
1, 1.5700, 190, -0.24264514, -0.86693418, 0.19936071, 27.53128242, 36.40189362, -21.24637985, -5.32008171, 18.67874908, -116.16486359, 97.28722382, -15.46486664, -112.62210083, -0.44720235, 0.33859715, -0.66818953, -0.48875853, -0.02485113, -0.08935170, -0.07949477, 100.00300598, 110.63150787, 30.72999954, 0.00000000
1, 1.5750, 191, -0.25682482, -0.90742528, 0.16422330, 27.35098076, 33.58715057, -21.59159470, -5.32008171, 18.67874908, -116.16486359, 97.37399292, -15.37857533, -112.43512726, -0.44731313, 0.34047768, -0.66779470, -0.48788968, -0.00914911, -0.04901250, -0.04297509, 100.00300598, 110.63150787, 30.72999954, 0.00000000
1, 1.5800, 192, -0.26512673, -0.94797468, 0.15852724, 26.62855530, 31.59222221, -21.45468712, -5.32008171, 18.67874908, -116.16486359, 97.46014404, -15.29199314, -112.25844574, -0.44737768, 0.34229600, -0.66742265, -0.48706648, 0.00062616, -0.00866396, -0.03587124, 100.00300598, 110.63150787, 30.72999954, 0.00000000
1, 1.5850, 193, -0.26811078, -0.99177146, 0.18318319, 25.09227180, 29.30570602, -21.06900406, -4.94007587, 21.04647827, -115.43408203, 97.54573822, -15.20566750, -112.09478760, -0.44738731, 0.34403366, -0.66708374, -0.48629701, 0.00500160, 0.03488559, -0.05913431, 100.00300598, 110.63150787, 30.72999954, 0.00000000
1, 1.5900, 194, -0.26832739, -1.01675224, 0.21500620, 23.19396782, 27.50751305, -20.84233665, -4.94007587, 21.04647827, -115.43408203, 97.62079620, -15.11998844, -111.93938446, -0.44739446, 0.34567747, -0.66672301, -0.48561907, 0.00658705, 0.05959938, -0.08963060, 100.00300598, 110.63150787, 30.72999954, 0.00000000
1, 1.5950, 195, -0.26743305, -1.02090931, 0.22372913, 22.04549026, 28.36760330, -20.80721664, -4.96930695, 21.04647827, -114.87869263, 97.68921661, -15.03525448, -111.77956390, -0.44744313, 0.34731486, -0.66631955, -0.48495904, 0.00710067, 0.06351639, -0.09713944, 100.00300598, 110.63150787, 30.72999954, 0.00000000
1, 1.6000, 196, -0.26466128, -1.01212966, 0.21891266, 21.61808014, 31.29640198, -21.08248711, -4.96930695, 21.04647827, -114.87869263, 97.75173187, -14.95128059, -111.60446930, -0.44757622, 0.34901273, -0.66584325, -0.48427117, 0.00576354, 0.05451086, -0.09118378, 100.00300598, 110.63150787, 30.72999954, 0.00000000
1, 1.6050, 197, -0.26652551, -1.00592208, 0.21533622, 21.58081245, 34.33144379, -21.29009056, -4.96930695, 21.04647827, -114.87869263, 97.81028748, -14.86848354, -111.41365814, -0.44779164, 0.35077891, -0.66530114, -0.48354033, 0.00903591, 0.04807527, -0.08655594, 100.00300598, 110.63150787, 30.72999954, 0.00000000
1, 1.6100, 198, -0.26598817, -1.00243032, 0.22184268, 20.70375252, 36.33691406, -20.98575974, -3.74159598, 21.51417732, -114.79099274, 97.86212921, -14.78873253, -111.21276093, -0.44808334, 0.35256001, -0.66470325, -0.48279637, 0.00984343, 0.04433875, -0.09210899, 100.00300598, 110.63150787, 30.72999954, 0.00000000
1, 1.6150, 199, -0.27239007, -0.99320221, 0.23917696, 19.51992989, 37.32090759, -20.31629181, -3.74159598, 21.51417732, -114.79099274, 97.90716553, -14.71314621, -111.00730896, -0.44843414, 0.35431790, -0.66406882, -0.48205641, 0.01749749, 0.03485150, -0.10861813, 100.00300598, 110.63150787, 30.72999954, 0.00000000
1, 1.6350, 200, -0.24040076, -0.92706323, 0.27221218, 15.23551083, 45.12925720, -17.72714233, -3.82928967, 20.92955208, -113.47559357, 98.02099609, -14.45909405, -110.12155914, -0.45053449, 0.36119324, -0.66113335, -0.47902071, -0.01021199, -0.03219377, -0.13935286, 100.00300598, 110.63150787, 30.72999954, 0.00000000
1, 1.6400, 201, -0.22332333, -0.93112326, 0.26429996, 14.67684174, 47.21387863, -17.70539474, -3.82928967, 20.92955208, -113.47559357, 98.03083801, -14.40381145, -109.86748505, -0.45129147, 0.36298028, -0.66022909, -0.47820398, -0.02632376, -0.02832552, -0.13111058, 100.00300598, 110.63150787, 30.72999954, 0.00000000
1, 1.6450, 202, -0.20530163, -0.94211078, 0.25673342, 13.95637798, 48.03627777, -17.39620209, -3.53697753, 20.92955208, -113.41712952, 98.03633881, -14.35067463, -109.60948944, -0.45208755, 0.36475933, -0.65929496, -0.47738630, -0.04341921, -0.01754039, -0.12337387, 100.00300598, 110.63150787, 30.72999954, 0.00000000
1, 1.6500, 203, -0.19443128, -0.94902194, 0.25085056, 12.57142067, 47.94513702, -16.99517441, -3.53697753, 20.92955208, -113.41712952, 98.03536224, -14.29947853, -109.35231018, -0.45290905, 0.36649570, -0.65833682, -0.47659937, -0.05340207, -0.01083886, -0.11743315, 100.00300598, 110.63150787, 30.72999954, 0.00000000
1, 1.6550, 204, -0.19268242, -0.94766784, 0.24109150, 11.54156780, 47.86132813, -16.77374649, -3.53697753, 20.92955208, -113.41712952, 98.02960205, -14.24933338, -109.09576416, -0.45374709, 0.36820161, -0.65735900, -0.47583646, -0.05427531, -0.01240291, -0.10771685, 100.00300598, 110.63150787, 30.72999954, 0.00000000
1, 1.6600, 205, -0.19177328, -0.94694090, 0.23174797, 11.03625584, 48.45114517, -16.85841370, -3.56620860, 21.36802101, -112.56941986, 98.02079773, -14.19913101, -108.83621979, -0.45460594, 0.36991036, -0.65635431, -0.47507787, -0.05431383, -0.01334634, -0.09847341, 100.00300598, 110.63150787, 30.72999954, 0.00000000
1, 1.6650, 206, -0.17851147, -0.94029927, 0.22940592, 10.46452522, 48.59366226, -17.19825935, -3.56620860, 21.36802101, -112.56941986, 98.00914001, -14.14733028, -108.57576752, -0.45546874, 0.37161836, -0.65532601, -0.47433740, -0.06669941, -0.02022796, -0.09624042, 100.00300598, 110.63150787, 30.72999954, 0.00000000
1, 1.6700, 207, -0.16529739, -0.93359661, 0.22949509, 9.65893459, 47.57524872, -17.14217567, -2.71850324, 21.13417053, -112.45249939, 97.99497223, -14.09503555, -108.32064056, -0.45631427, 0.37328565, -0.65429878, -0.47363302, -0.07903027, -0.02718314, -0.09648421, 100.00300598, 110.63150787, 30.72999954, 0.00000000
1, 1.6750, 208, -0.15231149, -0.93473494, 0.22457001, 9.10668087, 46.24077988, -16.88653564, -2.71850324, 21.13417053, -112.45249939, 97.97999573, -14.04304886, -108.07256317, -0.45713395, 0.37490529, -0.65328783, -0.47295851, -0.09111864, -0.02629135, -0.09174421, 100.00300598, 110.63150787, 30.72999954, 0.00000000
1, 1.6800, 209, -0.13327491, -0.95360935, 0.21684393, 8.86727428, 45.59614944, -16.23286247, -2.71850324, 21.13417053, -112.45249939, 97.96496582, -13.99378967, -107.82832336, -0.45795044, 0.37648636, -0.65229243, -0.47228611, -0.10929368, -0.00764846, -0.08422711, 100.00300598, 110.63150787, 30.72999954, 0.00000000
1, 1.7150, 210, 0.03541964, -0.99226332, 0.22524162, 4.76828814, 27.06229401, -10.27799988, -2.25080395, 21.51417732, -111.66325378, 97.84822845, -13.68839836, -106.44840240, -0.46252450, 0.38537860, -0.64638889, -0.46875986, -0.27276111, 0.02943530, -0.09406868, 100.00300598, 110.63150787, 30.72999954, 0.00000000
1, 1.7200, 211, 0.02889093, -1.00849307, 0.22494175, 3.31108284, 24.11503983, -9.90907288, -2.28003502, 21.71879578, -111.83864594, 97.83396912, -13.65551567, -106.31856537, -0.46294498, 0.38621843, -0.64580190, -0.46846265, -0.26567960, 0.04550254, -0.09401116, 100.00300598, 110.63150787, 30.72999954, 0.00000000
1, 1.7250, 212, 0.00481468, -1.01517606, 0.22677192, 1.68597198, 23.10186005, -10.36821365, -2.28003502, 21.71879578, -111.83864594, 97.81281281, -13.61965752, -106.19361877, -0.46335435, 0.38701689, -0.64519376, -0.46823686, -0.24101415, 0.05199510, -0.09621570, 100.00300598, 110.63150787, 30.72999954, 0.00000000
1, 1.7300, 213, -0.01382555, -1.00583565, 0.23922834, 0.24544477, 24.33419228, -11.44217300, -2.28003502, 21.71879578, -111.83864594, 97.78287506, -13.57927227, -106.06167603, -0.46380031, 0.38784108, -0.64451224, -0.46805197, -0.22174023, 0.04241133, -0.10914461, 100.00300598, 110.63150787, 30.72999954, 0.00000000
1, 1.7350, 214, -0.04639763, -0.97311425, 0.24897416, -1.16621625, 26.18672562, -12.22130013, -1.92926037, 21.57263947, -111.31247711, 97.75856781, -13.51459312, -105.92330933, -0.46413690, 0.38884491, -0.64376223, -0.46791744, -0.18828395, 0.00938838, -0.11939104, 100.00300598, 110.63150787, 30.72999954, 0.00000000
1, 1.7400, 215, -0.08905324, -0.96367311, 0.24705417, -0.65001196, 24.81776619, -11.59450912, -1.92926037, 21.57263947, -111.31247711, 97.72380829, -13.47365856, -105.78889465, -0.46460718, 0.38966399, -0.64304835, -0.46775109, -0.14472833, -0.00033151, -0.11803740, 100.00300598, 110.63150787, 30.72999954, 0.00000000
1, 1.7450, 216, -0.17983121, -0.96199262, 0.24580739, 1.29220068, 20.53783035, -9.61811543, -1.37386727, 21.54340744, -111.19555664, 97.70426178, -13.43959236, -105.67768860, -0.46496409, 0.39037925, -0.64249372, -0.46756208, -0.05334061, -0.00220582, -0.11737610, 100.00300598, 110.63150787, 30.72999954, 0.00000000
1, 1.7500, 217, -0.24847993, -0.97997928, 0.25545770, 1.78604364, 18.33959770, -7.81903124, -1.37386727, 21.54340744, -111.19555664, 97.69017029, -13.41295147, -105.57892609, -0.46528733, 0.39100900, -0.64202404, -0.46735954, 0.01576574, 0.01561760, -0.12745725, 100.00300598, 110.63150787, 30.72999954, 0.00000000
1, 1.7550, 218, -0.29679936, -1.00046062, 0.26657099, 0.12517692, 17.70543480, -6.65628290, -1.37386727, 21.54340744, -111.19555664, 97.66876221, -13.39165115, -105.48419952, -0.46564469, 0.39155912, -0.64155275, -0.46719015, 0.06444062, 0.03594705, -0.13903154, 100.00300598, 110.63150787, 30.72999954, 0.00000000
1, 1.7600, 219, -0.31830785, -1.00927496, 0.27703720, -2.40878105, 18.47854805, -6.39528608, -0.87693655, 21.60187149, -110.72785950, 97.63383484, -13.37213230, -105.38573456, -0.46607208, 0.39206588, -0.64101815, -0.46707278, 0.08625576, 0.04459494, -0.15008269, 100.00300598, 110.63150787, 30.72999954, 0.00000000
1, 1.8200, 220, -0.01119826, -0.98904049, 0.13148479, -6.18911743, 26.39948845, -1.04074502, -1.16924870, 20.54954720, -109.93861389, 96.92502594, -13.23401356, -103.57495117, -0.47522587, 0.39989847, -0.63147861, -0.46419433, -0.21801725, 0.02250329, -0.01550362, 100.00300598, 110.63150787, 30.72999954, 0.00000000
1, 1.8250, 221, 0.05671744, -1.00675774, 0.14463863, -6.41771936, 21.79718208, -0.93721992, -1.16924870, 20.54954720, -109.93861389, 96.86735535, -13.24235153, -103.46321106, -0.47591883, 0.40023300, -0.63087964, -0.46401048, -0.28611898, 0.04011361, -0.02952160, 100.00300598, 110.63150787, 30.72999954, 0.00000000
1, 1.8300, 222, 0.10228441, -1.01711190, 0.16505852, -5.64142275, 13.60560894, -0.40625575, -1.16924870, 21.66033363, -109.17860413, 96.82318115, -13.24840260, -103.39357758, -0.47638342, 0.40040261, -0.63047558, -0.46393675, -0.33184582, 0.05036259, -0.05065718, 100.00300598, 110.63150787, 30.72999954, 0.00000000
1, 1.8350, 223, 0.09605524, -1.02177203, 0.19104691, -4.20101261, 3.71805096, 1.37276053, -1.16924870, 21.66033363, -109.17860413, 96.84576416, -13.07036686, -103.38476563, -0.47550738, 0.40143126, -0.63000578, -0.46458429, -0.32422721, 0.05462995, -0.07673359, 100.00300598, 110.63150787, 30.72999954, 0.00000000
1, 1.8400, 224, 0.00822964, -1.02178824, 0.23507343, -2.74398184, -4.50754166, 3.57675290, -1.16924870, 21.66033363, -109.17860413, 96.83776855, -13.08550262, -103.40988922, -0.47550437, 0.40118456, -0.63010651, -0.46466386, -0.23515208, 0.05428208, -0.12073924, 100.00300598, 110.63150787, 30.72999954, 0.00000000
1, 1.8450, 225, -0.12520179, -1.02517891, 0.24115644, -1.98948061, -7.80409861, 4.78550434, -0.76001167, 21.57263947, -109.29552460, 96.83755493, -13.10470009, -103.45257568, -0.47542188, 0.40085340, -0.63031220, -0.46475500, -0.10204819, 0.05773199, -0.12719333, 100.00300598, 110.63150787, 30.72999954, 0.00000000
1, 1.8500, 226, -0.19430980, -1.02388871, 0.22567660, -3.00784516, -5.83887196, 5.26593637, -0.76001167, 21.57263947, -109.29552460, 96.83006287, -13.12747574, -103.48551941, -0.47542107, 0.40052766, -0.63046485, -0.46482962, -0.03326611, 0.05654449, -0.11195144, 100.00300598, 110.63150787, 30.72999954, 0.00000000
1, 1.8550, 227, -0.22927798, -1.01404715, 0.19859028, -4.96664619, -2.52850389, 5.96566200, -1.25694239, 21.19263268, -109.73399353, 96.80905151, -13.15567303, -103.50201416, -0.47555962, 0.40020931, -0.63052118, -0.46488580, 0.00130661, 0.04681525, -0.08527504, 100.00300598, 110.63150787, 30.72999954, 0.00000000
1, 1.8600, 228, -0.24212864, -1.00970602, 0.19203654, -5.88951921, 0.43962243, 6.78425264, -1.25694239, 21.19263268, -109.73399353, 96.78010559, -13.18969917, -103.50383759, -0.47581246, 0.39990950, -0.63051134, -0.46489838, 0.01362336, 0.04255893, -0.07921286, 100.00300598, 110.63150787, 30.72999954, 0.00000000
1, 1.8650, 229, -0.23008788, -1.01565528, 0.16988890, -6.27981949, 6.37823915, 7.38644886, -1.25694239, 21.19263268, -109.73399353, 96.74237061, -13.23015308, -103.47572327, -0.47624731, 0.39970571, -0.63038051, -0.46480566, 0.00097369, 0.04862849, -0.05765980, 100.00300598, 110.63150787, 30.72999954, 0.00000000
1, 1.9000, 230, -0.07733264, -1.01278162, 0.24950556, -6.69695234, 24.49188995, 13.04628086, -1.28617358, 21.74802589, -110.17246246, 96.37835693, -13.64408493, -102.89146423, -0.48180383, 0.39932555, -0.62810677, -0.46247816, -0.15884581, 0.04655416, -0.14313728, 100.00300598, 110.63150787, 30.72999954, 0.00000000
1, 1.9050, 231, -0.09037348, -0.98931551, 0.30760062, -11.34284210, 17.67517090, 13.85429955, -1.34463608, 21.28032684, -109.79245758, 96.30226135, -13.72269154, -102.80882263, -0.48276517, 0.39906505, -0.62774742, -0.46218833, -0.14728521, 0.02318039, -0.20247616, 100.00300598, 110.63150787, 30.72999954, 0.00000000
1, 1.9100, 232, -0.05113383, -0.97703886, 0.25079516, -12.62586975, -8.34567070, 14.89786816, -1.34463608, 21.28032684, -109.79245758, 96.25145721, -13.79242706, -102.85981750, -0.48305765, 0.39822257, -0.62792897, -0.46236295, -0.18760273, 0.01118547, -0.14656198, 100.00300598, 110.63150787, 30.72999954, 0.00000000
1, 1.9150, 233, -0.08575593, -0.99735987, 0.12865010, -11.86134815, -9.51857185, 16.15711212, -1.34463608, 21.28032684, -109.79245758, 96.20612335, -13.86780167, -102.91745758, -0.48332959, 0.39733779, -0.62817168, -0.46251011, -0.15392293, 0.03192694, -0.02534084, 100.00300598, 110.63150787, 30.72999954, 0.00000000
1, 1.9200, 234, -0.12907438, -1.01570737, 0.12691094, -11.18552876, -0.63702112, 16.43030357, -1.75387311, 21.68956375, -110.28939056, 96.15334320, -13.94928932, -102.92971802, -0.48383805, 0.39663914, -0.62824476, -0.46247894, -0.11195931, 0.05051858, -0.02462957, 100.00300598, 110.63150787, 30.72999954, 0.00000000
1, 1.9250, 235, -0.13287696, -1.01242423, 0.21367331, -11.44490337, -2.63366675, 16.80664253, -1.75387311, 21.68956375, -110.28939056, 96.10178375, -14.03162479, -102.95231628, -0.48430362, 0.39588401, -0.62836081, -0.46248081, -0.10976785, 0.04734291, -0.11231983, 100.00300598, 110.63150787, 30.72999954, 0.00000000
1, 1.9300, 236, -0.16567276, -0.98287010, 0.24079131, -12.11872101, -11.37370205, 17.90382957, -1.60771704, 21.19263268, -110.26015472, 96.05794525, -14.11486912, -103.02027130, -0.48456317, 0.39490756, -0.62866670, -0.46262825, -0.07844208, 0.01801097, -0.14028171, 100.00300598, 110.63150787, 30.72999954, 0.00000000
1, 1.9350, 237, -0.21697207, -0.94437551, 0.21797100, -10.29946232, -11.65353870, 18.61009598, -1.60771704, 21.19263268, -110.26015472, 96.03954315, -14.19944000, -103.09384155, -0.48471788, 0.39400041, -0.62909740, -0.46265399, -0.02851788, -0.02013851, -0.11804364, 100.00300598, 110.63150787, 30.72999954, 0.00000000
1, 1.9400, 238, -0.23283398, -0.93260300, 0.21193881, -8.04066658, -4.25650024, 18.89786148, -1.60771704, 21.19263268, -110.26015472, 96.00742340, -14.29131317, -103.12577057, -0.48512113, 0.39322644, -0.62935048, -0.46254572, -0.01415432, -0.03156258, -0.11247934, 100.00300598, 110.63150787, 30.72999954, 0.00000000
1, 1.9450, 239, -0.24257107, -0.97699499, 0.20125099, -7.69898891, -0.14474054, 18.95646667, -1.81233561, 21.48494530, -110.52323914, 95.97182465, -14.38561440, -103.13655853, -0.48563215, 0.39254090, -0.62952369, -0.46235597, -0.00598259, 0.01318945, -0.10251406, 100.00300598, 110.63150787, 30.72999954, 0.00000000
1, 1.9600, 240, -0.16851354, -1.16373551, 0.06676526, -11.32208252, -0.11682253, 20.86101913, -1.52002335, 21.74802589, -110.31861877, 95.83188629, -14.68082714, -103.19026184, -0.48724470, 0.39016035, -0.63001668, -0.46200284, -0.08465347, 0.20118740, 0.02943707, 100.00300598, 110.63150787, 30.72999954, 0.00000000
1, 1.9650, 241, -0.06209681, -1.23286390, 0.02234085, -12.47173405, 3.93181348, 21.56804085, -1.52002335, 21.74802589, -110.31861877, 95.76747131, -14.79023838, -103.18113708, -0.48800009, 0.38938251, -0.63004923, -0.46181735, -0.19278228, 0.27075911, 0.07292756, 100.00300598, 110.63150787, 30.72999954, 0.00000000
1, 1.9700, 242, -0.02536906, -1.24888241, 0.00258524, -13.91188049, -0.53618324, 21.44482231, -1.92926037, 21.63110161, -110.58170319, 95.70168304, -14.89685059, -103.19482422, -0.48865432, 0.38848650, -0.63014519, -0.46174926, -0.23127785, 0.28717795, 0.09160629, 100.00300598, 110.63150787, 30.72999954, 0.00000000
1, 1.9750, 243, -0.02718925, -1.21949947, -0.01395733, -15.20080566, -2.93386269, 20.73808861, -1.92926037, 21.63110161, -110.58170319, 95.63253784, -14.99881744, -103.22039032, -0.48924965, 0.38753343, -0.63025367, -0.46177149, -0.23115399, 0.25816828, 0.10699414, 100.00300598, 110.63150787, 30.72999954, 0.00000000
1, 1.9800, 244, -0.05766146, -1.17590439, 0.01658985, -15.26248360, -6.69249916, 20.57918167, -2.25080395, 21.36802101, -111.28324890, 95.56808472, -15.09821510, -103.26511383, -0.48973912, 0.38650700, -0.63043767, -0.46186176, -0.20244265, 0.21486422, 0.07529011, 100.00300598, 110.63150787, 30.72999954, 0.00000000
1, 1.9850, 245, -0.12982136, -1.15761602, 0.05959079, -14.45557213, -11.50781727, 21.22528458, -2.25080395, 21.36802101, -111.28324890, 95.51094055, -15.18764114, -103.33399200, -0.49006027, 0.38542867, -0.63070220, -0.46206117, -0.13198201, 0.19683820, 0.03111879, 100.00300598, 110.63150787, 30.72999954, 0.00000000
1, 1.9900, 246, -0.20414053, -1.14943671, 0.04104502, -13.69804287, -15.20623207, 21.75842476, -2.25080395, 21.36802101, -111.28324890, 95.46613312, -15.28896904, -103.42306519, -0.49031168, 0.38423038, -0.63111794, -0.46222484, -0.05922481, 0.18904716, 0.04864430, 100.00300598, 110.63150787, 30.72999954, 0.00000000
1, 1.9950, 247, -0.28701228, -1.15750563, 0.02943449, -13.82293892, -13.58284283, 22.28944206, -2.45542240, 21.42648315, -110.81555176, 95.41869354, -15.39377117, -103.50396729, -0.49061972, 0.38304690, -0.63150412, -0.46235263, 0.02192446, 0.19753867, 0.05921829, 100.00300598, 110.63150787, 30.72999954, 0.00000000
1, 2.0450, 248, -0.46164361, -1.21845126, 0.06919967, -10.61208248, 9.65693569, 11.48064232, -2.54311609, 21.13417053, -111.34171295, 94.78817749, -16.27548218, -103.60543060, -0.49627191, 0.37524778, -0.63186425, -0.46222401, 0.18145934, 0.26171204, 0.00807101, 100.00300598, 110.63150787, 30.72999954, 0.00000000
1, 2.0500, 249, -0.47593561, -1.21963406, 0.07402233, -10.24561024, 11.36794186, 9.97446442, -2.54311609, 21.13417053, -111.34171295, 94.72167969, -16.32993507, -103.55063629, -0.49695423, 0.37498075, -0.63157475, -0.46210307, 0.19479625, 0.26306820, 0.00207006, 100.00300598, 110.63150787, 30.72999954, 0.00000000
1, 2.0550, 250, -0.51453054, -1.23779440, 0.02744063, -10.54322147, 11.91028309, 7.57257986, -3.09850907, 21.39725113, -111.22478485, 94.65254211, -16.37257957, -103.49194336, -0.49760771, 0.37478393, -0.63122785, -0.46203351, 0.23273589, 0.28143710, 0.04737560, 100.00300598, 110.63150787, 30.72999954, 0.00000000
1, 2.0600, 251, -0.55155331, -1.23993194, -0.01506269, -10.52906990, 16.01546669, 4.86607409, -3.09850907, 21.39725113, -111.22478485, 94.57705688, -16.40328026, -103.41074371, -0.49831891, 0.37474445, -0.63074732, -0.46195528, 0.26930684, 0.28370720, 0.08853202, 100.00300598, 110.63150787, 30.72999954, 0.00000000
1, 2.0650, 252, -0.57467502, -1.25621092, 0.00406922, -9.04629135, 22.34753799, 2.78983831, -3.09850907, 21.39725113, -111.22478485, 94.49935150, -16.42595100, -103.29576111, -0.49913749, 0.37492180, -0.63012409, -0.46177804, 0.29196838, 0.29997313, 0.06801773, 100.00300598, 110.63150787, 30.72999954, 0.00000000
1, 2.0700, 253, -0.58249068, -1.27942050, 0.01754626, -7.56425810, 28.52808571, -0.23640811, -2.86465931, 20.75416565, -110.90324402, 94.41956329, -16.43572235, -103.14738464, -0.50003988, 0.37533882, -0.62934560, -0.46152478, 0.29951769, 0.32312509, 0.05315083, 100.00300598, 110.63150787, 30.72999954, 0.00000000
1, 2.0750, 254, -0.60001546, -1.28805029, 0.00261109, -6.10186958, 33.51147079, -2.73010445, -2.86465931, 20.75416565, -110.90324402, 94.33940887, -16.43470192, -102.97211456, -0.50100380, 0.37595597, -0.62844533, -0.46120375, 0.31705421, 0.33168429, 0.06669593, 100.00300598, 110.63150787, 30.72999954, 0.00000000
1, 2.0800, 255, -0.60956335, -1.29779315, -0.00076991, -4.73807287, 43.43427658, -6.43679476, -2.57234716, 20.46185303, -110.55246735, 94.25109863, -16.41857529, -102.74385834, -0.50214082, 0.37690330, -0.62729269, -0.46076298, 0.32682452, 0.34126174, 0.06861120, 100.00300598, 110.63150787, 30.72999954, 0.00000000
1, 2.0850, 256, -0.57412642, -1.29688859, 0.02701365, -4.73170424, 50.93791962, -9.97355652, -2.57234716, 20.46185303, -110.55246735, 94.15001678, -16.39099693, -102.47493744, -0.50343299, 0.37807262, -0.62591887, -0.46026307, 0.29174414, 0.34006593, 0.03929320, 100.00300598, 110.63150787, 30.72999954, 0.00000000
1, 2.0900, 257, -0.51708359, -1.29787195, 0.01508206, -3.47945714, 55.42145920, -13.49300480, -2.57234716, 20.46185303, -110.55246735, 94.04988098, -16.34309959, -102.18190765, -0.50472981, 0.37947762, -0.62440544, -0.45974189, 0.23543449, 0.34074080, 0.04968845, 100.00300598, 110.63150787, 30.72999954, 0.00000000
1, 2.1100, 258, -0.38809696, -1.30020070, 0.10068796, -1.08102846, 77.44527435, -27.65040016, -2.68927217, 21.28032684, -109.70476532, 93.60139465, -15.98773003, -100.71024323, -0.51057184, 0.38728505, -0.61660576, -0.45730096, 0.11191644, 0.34078407, -0.04291394, 100.00300598, 110.63150787, 30.72999954, 0.00000000
1, 2.1150, 259, -0.37833387, -1.29624295, 0.10705175, 1.10454464, 81.33277893, -30.67015457, -2.68927217, 21.28032684, -109.70476532, 93.48806763, -15.85912037, -100.27851868, -0.51212299, 0.38975573, -0.61429036, -0.45658284, 0.10423131, 0.33609855, -0.05112717, 100.00300598, 110.63150787, 30.72999954, 0.00000000
1, 2.1200, 260, -0.36089697, -1.27943385, 0.09353772, 1.66298711, 87.27644348, -34.32122803, -2.36772871, 21.57263947, -109.29552460, 93.36997223, -15.71317291, -99.81542206, -0.51374304, 0.39244923, -0.61178148, -0.45582360, 0.08920546, 0.31852126, -0.03945702, 100.00300598, 110.63150787, 30.72999954, 0.00000000
1, 2.1250, 261, -0.30858445, -1.25153232, 0.11833770, 2.91478062, 94.59650421, -38.47410583, -2.36772871, 21.57263947, -109.29552460, 93.24890900, -15.54758930, -99.31384277, -0.51544470, 0.39542001, -0.60905069, -0.45499128, 0.03951782, 0.28970900, -0.06605583, 100.00300598, 110.63150787, 30.72999954, 0.00000000
1, 2.1300, 262, -0.26011479, -1.22586453, 0.14577897, 3.44507170, 103.03055573, -41.39947510, -1.84156680, 22.18649483, -108.88629150, 93.12030029, -15.36862373, -98.76856232, -0.51729167, 0.39863956, -0.60607702, -0.45405567, -0.00605656, 0.26305759, -0.09538867, 100.00300598, 110.63150787, 30.72999954, 0.00000000
1, 2.1350, 263, -0.17283022, -1.20088470, 0.19312486, 3.71267819, 115.47489929, -44.61148453, -1.84156680, 22.18649483, -108.88629150, 92.98093414, -15.17181873, -98.15975189, -0.51935512, 0.40221557, -0.60275865, -0.45296252, -0.09022553, 0.23699036, -0.14476109, 100.00300598, 110.63150787, 30.72999954, 0.00000000
1, 2.1400, 264, -0.09583195, -1.19586432, 0.22225004, 3.60748315, 120.78158569, -46.62183380, -0.81847411, 22.18649483, -108.12627411, 92.83289337, -14.96857452, -97.52323914, -0.52153456, 0.40590549, -0.59926087, -0.45180637, -0.16388187, 0.23087513, -0.17608637, 100.00300598, 110.63150787, 30.72999954, 0.00000000
1, 2.1450, 265, -0.03386597, -1.20430446, 0.23621468, 2.83821630, 125.17140961, -48.40022659, -0.81847411, 22.33265114, -108.12627411, 92.67757416, -14.75586700, -96.86477661, -0.52379012, 0.40969735, -0.59559649, -0.45061824, -0.22233337, 0.23822248, -0.19244307, 100.00300598, 110.63150787, 30.72999954, 0.00000000
1, 2.1500, 266, 0.02594153, -1.18946898, 0.23467110, 1.77837956, 130.14208984, -49.81055450, -0.81847411, 22.33265114, -108.12627411, 92.51313019, -14.53544521, -96.18161774, -0.52614725, 0.41358495, -0.59175134, -0.44938517, -0.27844661, 0.22229661, -0.19341938, 100.00300598, 110.63150787, 30.72999954, 0.00000000
1, 2.1550, 267, 0.07885478, -1.16473150, 0.24021065, 1.08161151, 134.67906189, -50.42963791, 0.00000000, 20.49108505, -106.92779541, 92.34222412, -14.31090832, -95.47628784, -0.52860165, 0.41754574, -0.58775443, -0.44808561, -0.32759202, 0.19645089, -0.20160876, 100.00300598, 110.63150787, 30.72999954, 0.00000000
1, 2.1800, 268, 0.42405450, -1.09250700, 0.32384634, -1.46946967, 105.49657440, -45.79986572, 0.49693072, 21.01724625, -105.52469635, 91.58825684, -13.18360710, -92.23838043, -0.53941637, 0.43590862, -0.56875002, -0.44219577, -0.65383607, 0.11893305, -0.29701787, 100.00300598, 110.63150787, 30.72999954, 0.00000000
1, 2.1850, 269, 0.48272741, -1.08607817, 0.32748568, -7.47777843, 97.40226746, -41.56983948, 0.49693072, 21.01724625, -105.52469635, 91.44361115, -12.97025681, -91.73489380, -0.54105961, 0.43875220, -0.56548333, -0.44156498, -0.70897299, 0.11160497, -0.30294055, 100.00300598, 110.63150787, 30.72999954, 0.00000000
1, 2.1900, 270, 0.54820877, -1.08497024, 0.36240298, -11.16564178, 74.58986664, -34.24999619, 0.73078048, 23.29728127, -104.79392242, 91.30116272, -12.80751801, -91.34846497, -0.54244888, 0.44076723, -0.56284577, -0.44122350, -0.77144551, 0.10966983, -0.34007359, 100.00300598, 110.63150787, 30.72999954, 0.00000000
1, 2.1950, 271, 0.58597714, -1.09128642, 0.42016599, -14.21021461, 60.38272476, -26.76829529, 0.73078048, 23.29728127, -104.79392242, 91.16089630, -12.67987633, -91.03627014, -0.54368645, 0.44224790, -0.56062424, -0.44104686, -0.80703092, 0.11531068, -0.40013909, 100.00300598, 110.63150787, 30.72999954, 0.00000000
1, 2.2000, 272, 0.60925615, -1.09378028, 0.45970708, -16.80489349, 44.51585388, -18.17515182, 0.73078048, 23.29728127, -104.79392242, 91.02639771, -12.59312057, -90.80657196, -0.54474819, 0.44314852, -0.55889195, -0.44103134, -0.82874858, 0.11732126, -0.44193897, 100.00300598, 110.63150787, 30.72999954, 0.00000000
1, 2.2050, 273, 0.59337920, -1.10904038, 0.49481153, -19.50781250, 29.03821182, -8.41463184, 0.40923706, 22.71265602, -104.35545349, 90.89624023, -12.55348682, -90.65716553, -0.54567111, 0.44344762, -0.55766284, -0.44114578, -0.81207925, 0.13228862, -0.47932965, 100.00300598, 110.63150787, 30.72999954, 0.00000000
1, 2.2100, 274, 0.57609421, -1.11210799, 0.56715649, -22.42350388, 16.60714722, 2.05215335, 0.40923706, 22.71265602, -104.35545349, 90.76568604, -12.56511497, -90.57224274, -0.54654866, 0.44318253, -0.55687577, -0.44131982, -0.79494852, 0.13519858, -0.55394804, 100.00300598, 110.63150787, 30.72999954, 0.00000000
1, 2.2150, 275, 0.55743396, -1.12474620, 0.67442775, -24.79516983, 3.53008938, 13.51312828, 0.58462435, 22.42034531, -104.82315063, 90.63808441, -12.63316631, -90.55487823, -0.54737478, 0.44233048, -0.55657613, -0.44152889, -0.77746773, 0.14783642, -0.66347659, 100.00300598, 110.63150787, 30.72999954, 0.00000000
1, 2.2200, 276, 0.52588123, -1.13013041, 0.75321299, -29.06814003, -13.90236759, 25.80584717, 0.58462435, 22.42034531, -104.82315063, 90.50898743, -12.76197338, -90.62725067, -0.54809600, 0.44074103, -0.55684745, -0.44188136, -0.74804497, 0.15350361, -0.74453497, 100.00300598, 110.63150787, 30.72999954, 0.00000000
1, 2.2250, 277, 0.43395460, -1.17576730, 0.76002342, -32.58025742, -32.35264206, 38.69556427, 0.58462435, 22.42034531, -104.82315063, 90.38376617, -12.95487785, -90.79438782, -0.54868299, 0.43839663, -0.55773818, -0.44236124, -0.65914166, 0.19979498, -0.75381970, 100.00300598, 110.63150787, 30.72999954, 0.00000000
1, 2.2500, 278, -0.13475193, -1.29888630, 0.34790525, -65.74713898, -26.51794624, 97.58367920, -0.55539316, 21.39725113, -105.93393707, 89.32719421, -14.78188705, -91.79367065, -0.55581480, 0.41944960, -0.56425601, -0.44356188, -0.11912687, 0.33090627, -0.36046129, 100.00300598, 110.63150787, 30.72999954, 0.00000000
1, 2.2550, 279, -0.31460589, -1.24320734, 0.30744305, -68.15447235, -27.69610596, 109.60914612, -1.37386727, 23.06343079, -106.31394196, 89.02265930, -15.33292961, -91.92792511, -0.55849612, 0.41456008, -0.56561017, -0.44306588, 0.05179419, 0.27776861, -0.32544196, 100.00300598, 110.63150787, 30.72999954, 0.00000000
1, 2.2600, 280, -0.53389496, -1.20152724, 0.25328732, -67.38916016, -32.36876297, 121.79133606, -1.37386727, 23.06343079, -106.31394196, 88.72889709, -15.94603539, -92.08246613, -0.56126368, 0.40928417, -0.56729305, -0.44232130, 0.26116449, 0.23905519, -0.27671060, 100.00300598, 110.63150787, 30.72999954, 0.00000000
1, 2.2650, 281, -0.74936944, -1.29727554, 0.18607067, -65.10771179, -27.32330704, 133.06420898, -2.16311026, 21.98187637, -106.37240601, 88.43971252, -16.61549950, -92.20642090, -0.56430978, 0.40386713, -0.56907398, -0.44113576, 0.46580657, 0.33820498, -0.21495470, 100.00300598, 110.63150787, 30.72999954, 0.00000000
1, 2.2700, 282, -0.95565248, -1.51266873, 0.06737151, -66.86136627, -6.69578600, 142.37631226, -2.16311026, 21.98187637, -106.37240601, 88.11035919, -17.32886505, -92.21776581, -0.56805199, 0.39855558, -0.57045096, -0.43938148, 0.66063225, 0.55748999, -0.10228580, 100.00300598, 110.63150787, 30.72999954, 0.00000000
1, 2.2750, 283, -0.98989862, -1.68425918, 0.04300756, -73.08811951, 27.55371284, 149.96688843, -2.16311026, 21.98187637, -106.37240601, 87.69354248, -18.07371902, -92.04314423, -0.57287085, 0.39353889, -0.57096195, -0.43697667, 0.68266463, 0.73322153, -0.08469901, 100.00300598, 110.63150787, 30.72999954, 0.00000000
1, 2.2800, 284, -0.86537957, -1.75139844, 0.07826185, -81.31650543, 56.67211151, 157.28538513, -2.30926633, 20.75416565, -106.57702637, 87.18218994, -18.84714508, -91.70629883, -0.57866073, 0.38866729, -0.57067966, -0.43406716, 0.54535592, 0.80483776, -0.12765583, 100.00300598, 110.63150787, 30.72999954, 0.00000000
1, 2.2850, 285, -0.75993329, -1.62538552, 0.11564232, -89.00761414, 67.63400269, 163.70860291, -2.30926633, 20.75416565, -106.57702637, 86.60648346, -19.64741898, -91.30060577, -0.58493233, 0.38362256, -0.57005256, -0.43096179, 0.42672801, 0.68375874, -0.17361227, 100.00300598, 110.63150787, 30.72999954, 0.00000000
1, 2.2900, 286, -0.67669767, -1.56902599, 0.26130283, -88.11965942, 72.15231323, 170.28964233, -3.53697753, 20.28646660, -106.28471375, 86.01599884, -20.47427940, -90.85750580, -0.59138238, 0.37849313, -0.56938410, -0.42756480, 0.32966644, 0.63261080, -0.32831532, 100.00300598, 110.63150787, 30.72999954, 0.00000000
1, 2.2950, 287, -0.56758195, -1.64771271, 0.34886393, -87.70729828, 74.47429657, 175.31715393, -3.53697753, 20.28646660, -106.28471375, 85.41226959, -21.32095337, -90.38832092, -0.59792870, 0.37326223, -0.56869984, -0.42395410, 0.20655617, 0.71704936, -0.42512727, 100.00300598, 110.63150787, 30.72999954, 0.00000000
1, 2.3100, 288, -0.38369900, -1.50406384, 0.11000060, -98.33396149, 71.71520996, 192.24676514, -4.00467682, 19.73107338, -106.95703125, 83.38701630, -24.03800583, -88.87220001, -0.61846024, 0.35566145, -0.56649566, -0.41242534, -0.02025714, 0.59476423, -0.21602538, 100.00300598, 110.63150787, 30.72999954, 0.00000000
1, 2.3150, 289, -0.37314799, -1.46794319, 0.11633048, -96.99173737, 70.06900024, 194.57400513, -4.91084480, 18.70797920, -106.75241089, 82.69149017, -24.96167564, -88.35861969, -0.62517065, 0.34949380, -0.56585276, -0.40844399, -0.04549423, 0.56650805, -0.23246646, 100.00300598, 110.63150787, 30.72999954, 0.00000000
1, 2.3200, 290, -0.35826918, -1.47531521, 0.16272777, -96.39591217, 68.25543976, 196.34588623, -4.91084480, 18.70797920, -106.75241089, 81.98815918, -25.88956261, -87.83737946, -0.63179642, 0.34323162, -0.56524080, -0.40438637, -0.07512754, 0.58207309, -0.28890982, 100.00300598, 110.63150787, 30.72999954, 0.00000000
1, 2.3250, 291, -0.33345005, -1.46274710, 0.19849207, -98.40631104, 64.17005920, 197.50091553, -4.91084480, 18.70797920, -106.75241089, 81.26928711, -26.82029343, -87.32081604, -0.63830858, 0.33677888, -0.56466705, -0.40036657, -0.11460885, 0.57811618, -0.33466095, 100.00300598, 110.63150787, 30.72999954, 0.00000000
1, 2.3300, 292, -0.29514083, -1.44669187, 0.22194946, -100.85295105, 57.92157745, 198.64500427, -5.34931278, 17.88950539, -106.89856720, 80.53808594, -27.75578499, -86.82041168, -0.64465904, 0.33008638, -0.56418461, -0.39642599, -0.16749823, 0.57110482, -0.36803514, 100.00300598, 110.63150787, 30.72999954, 0.00000000
1, 2.3350, 293, -0.22204590, -1.40646648, 0.20221579, -105.00733185, 48.42140961, 198.22610474, -5.34931278, 17.88950539, -106.89856720, 79.80008698, -28.68754578, -86.35767365, -0.65073395, 0.32312605, -0.56384057, -0.39270696, -0.25493872, 0.54035747, -0.35797417, 100.00300598, 110.63150787, 30.72999954, 0.00000000
1, 2.3400, 294, -0.16644481, -1.32066393, 0.16060175, -109.06401825, 36.22368622, 195.56838989, -6.40163708, 17.30488205, -107.71704102, 79.05687714, -29.61632919, -85.94638824, -0.65648639, 0.31583714, -0.56367546, -0.38928461, -0.32463080, 0.46437880, -0.32580733, 100.00300598, 110.63150787, 30.72999954, 0.00000000
1, 2.3450, 295, -0.14307560, -1.25591099, 0.13787298, -111.39514923, 31.07038879, 191.72463989, -6.40163708, 17.30488205, -107.71704102, 78.30413055, -30.52660561, -85.55094147, -0.66201568, 0.30845708, -0.56351095, -0.38606328, -0.36180252, 0.40965492, -0.31251299, 100.00300598, 110.63150787, 30.72999954, 0.00000000
1, 2.3500, 296, -0.13377926, -1.16146576, 0.04889703, -111.56951141, 23.83277130, 186.96252441, -6.40163708, 17.30488205, -107.71704102, 77.56035614, -31.41671181, -85.18506622, -0.66722763, 0.30103773, -0.56343621, -0.38304487, -0.38430566, 0.32548648, -0.23271608, 100.00300598, 110.63150787, 30.72999954, 0.00000000
1, 2.3550, 297, -0.17131160, -1.12088537, 0.01647473, -108.50016785, 13.47979927, 184.01271057, -7.54165459, 16.48640823, -107.86319733, 76.85169983, -32.29995346, -84.86567688, -0.67203611, 0.29358023, -0.56362540, -0.38013756, -0.35981715, 0.29519427, -0.20903054, 100.00300598, 110.63150787, 30.72999954, 0.00000000
1, 2.3850, 298, -0.43092209, -0.93879724, -0.11404141, -80.62472534, -33.09587860, 169.43818665, -8.65244102, 14.73253441, -109.38321686, 73.43259430, -37.52497101, -83.72216034, -0.69360793, 0.24954022, -0.56978744, -0.36329052, -0.17495140, 0.17622265, -0.11387038, 100.00300598, 110.63150787, 30.72999954, 0.00000000
1, 2.3900, 299, -0.46175417, -0.98355865, -0.12867625, -76.91830444, -40.11369705, 167.08557129, -10.69862556, 14.35252857, -110.66939545, 73.01044464, -38.38357162, -83.65766144, -0.69607979, 0.24242488, -0.57158327, -0.36054921, -0.15590966, 0.23147997, -0.10244637, 100.00300598, 110.63150787, 30.72999954, 0.00000000
1, 2.3950, 300, -0.49825254, -0.98474050, -0.14078929, -76.36788177, -47.89319229, 164.86010742, -10.69862556, 14.35252857, -110.66939545, 72.61746216, -39.24272919, -83.63653564, -0.69826978, 0.23524249, -0.57356250, -0.35791969, -0.13109604, 0.24322027, -0.09288479, 100.00300598, 110.63150787, 30.72999954, 0.00000000
1, 2.4000, 301, -0.56877446, -0.92582309, -0.17431909, -77.37383270, -56.47721863, 162.21466064, -10.69862556, 14.35252857, -110.66939545, 72.25149536, -40.10217667, -83.66606903, -0.70016724, 0.22794504, -0.57572174, -0.35545960, -0.07206947, 0.19495955, -0.06137384, 100.00300598, 110.63150787, 30.72999954, 0.00000000
1, 2.4050, 302, -0.64156967, -0.82574797, -0.20180216, -76.32656860, -64.24393463, 159.63265991, -11.72171879, 14.03098488, -111.10786438, 71.92184448, -40.96144104, -83.74295807, -0.70177197, 0.22060816, -0.57806998, -0.35310528, -0.01064800, 0.10555550, -0.03523536, 100.00300598, 110.63150787, 30.72999954, 0.00000000
1, 2.4100, 303, -0.66343105, -0.79409349, -0.19101939, -71.44867706, -70.91989899, 157.97428894, -11.72171879, 14.03098488, -111.10786438, 71.64437103, -41.82360458, -83.86047363, -0.70308876, 0.21334495, -0.58064324, -0.35071868, -0.00011410, 0.08449676, -0.04666495, 100.00300598, 110.63150787, 30.72999954, 0.00000000
1, 2.4150, 304, -0.69836873, -0.74407327, -0.16166665, -63.82853699, -81.00201416, 155.53385925, -12.77404213, 12.62788677, -112.24787903, 71.45106506, -42.69046783, -84.04467773, -0.70399499, 0.20620830, -0.58358079, -0.34828532, 0.02351644, 0.04488749, -0.07537102, 100.00300598, 110.63150787, 30.72999954, 0.00000000
1, 2.4200, 305, -0.71745932, -0.69557071, -0.14770429, -61.12557220, -84.63107300, 152.39846802, -12.77404213, 12.62788677, -112.24787903, 71.29335785, -43.54869843, -84.25830841, -0.70469046, 0.19916542, -0.58660448, -0.34588972, 0.03156276, 0.00673329, -0.08804116, 100.00300598, 110.63150787, 30.72999954, 0.00000000
1, 2.4250, 306, -0.73742807, -0.63278329, -0.15872656, -58.22934723, -83.91160583, 148.10237122, -12.77404213, 12.62788677, -112.24787903, 71.15576935, -44.38577652, -84.47682190, -0.70526958, 0.19231966, -0.58957517, -0.34352458, 0.04092773, -0.04582217, -0.07538792, 100.00300598, 110.63150787, 30.72999954, 0.00000000
1, 2.4300, 307, -0.73800635, -0.56117797, -0.17881083, -54.90174103, -78.00011444, 142.41731262, -14.03098488, 12.59865570, -112.89096832, 71.01859283, -45.18668365, -84.66929626, -0.70584565, 0.18579958, -0.59233135, -0.34118026, 0.03148162, -0.10745261, -0.05357660, 100.00300598, 110.63150787, 30.72999954, 0.00000000
1, 2.4900, 308, -0.41041988, -0.30904341, -0.16645440, -34.47731400, -46.56278610, 36.48818970, -17.04179955, 11.22478771, -115.63870239, 70.02913666, -51.22037888, -86.70996094, -0.70727283, 0.13318376, -0.61262012, -0.32668614, -0.36806053, -0.28010216, -0.04934721, 100.00300598, 110.63150787, 30.72999954, 0.00000000
1, 2.4950, 309, -0.41914478, -0.28517589, -0.18168627, -31.56290436, -47.71942520, 30.53475571, -17.04179955, 11.22478771, -115.63870239, 70.08631134, -51.44592285, -86.98479462, -0.70661622, 0.13071169, -0.61381841, -0.32685626, -0.36182845, -0.30115417, -0.03253568, 100.00300598, 110.63150787, 30.72999954, 0.00000000
1, 2.5000, 310, -0.42421010, -0.25886276, -0.18855952, -28.27202988, -50.58103561, 24.64104271, -18.53259277, 11.60479355, -116.48640442, 70.19151306, -51.64840317, -87.29924011, -0.70577449, 0.12845656, -0.61511344, -0.32713419, -0.35900924, -0.32512373, -0.02371682, 100.00300598, 110.63150787, 30.72999954, 0.00000000
1, 2.5050, 311, -0.41750827, -0.22659606, -0.19517146, -25.36585999, -54.09582520, 18.24593353, -18.53259277, 11.60479355, -116.48640442, 70.34818268, -51.82625198, -87.65999603, -0.70472533, 0.12641087, -0.61651790, -0.32754892, -0.36768571, -0.35553402, -0.01471808, 100.00300598, 110.63150787, 30.72999954, 0.00000000
1, 2.5100, 312, -0.43651384, -0.18318823, -0.22091678, -22.85507393, -57.42336273, 11.15927410, -18.53259277, 11.60479355, -116.48640442, 70.55490875, -51.97559357, -88.06770325, -0.70346594, 0.12458386, -0.61801696, -0.32813051, -0.35030663, -0.39757359, 0.01374664, 100.00300598, 110.63150787, 30.72999954, 0.00000000
1, 2.5150, 313, -0.45239586, -0.13219242, -0.23510185, -20.21534729, -59.88837051, 3.00491476, -18.29874229, 11.40017509, -116.60333252, 70.80928802, -52.08952713, -88.51852417, -0.70200342, 0.12302074, -0.61958063, -0.32890290, -0.33571285, -0.44781306, 0.03099785, 100.00300598, 110.63150787, 30.72999954, 0.00000000
1, 2.5200, 314, -0.46028817, -0.09811006, -0.24029329, -16.92946815, -60.44411087, -7.56581545, -18.29874229, 11.40017509, -116.60333252, 71.10742950, -52.15305328, -89.00360107, -0.70035082, 0.12183425, -0.62114686, -0.32991168, -0.32859972, -0.48194271, 0.03949481, 100.00300598, 110.63150787, 30.72999954, 0.00000000
1, 2.5250, 315, -0.45069087, -0.07958270, -0.25046712, -13.49016190, -58.91556549, -17.84345436, -18.88336754, 10.96170712, -117.18795776, 71.43568420, -52.16382599, -89.50494385, -0.69856763, 0.12105181, -0.62265694, -0.33113179, -0.33845466, -0.50121045, 0.05307521, 100.00300598, 110.63150787, 30.72999954, 0.00000000
1, 2.5300, 316, -0.45005229, -0.06069838, -0.25434753, -10.74031448, -58.66839218, -25.75930786, -18.88336754, 10.96170712, -117.18795776, 71.79218292, -52.13476563, -90.02483368, -0.69665635, 0.12057030, -0.62415254, -0.33251548, -0.33887714, -0.52152580, 0.06045271, 100.00300598, 110.63150787, 30.72999954, 0.00000000
1, 2.5350, 317, -0.44919899, -0.05533791, -0.25199658, -6.95170975, -58.91186523, -33.17429352, -18.88336754, 10.96170712, -117.18795776, 72.16561890, -52.07727432, -90.55094147, -0.69467181, 0.12031819, -0.62562609, -0.33398622, -0.33917248, -0.52882147, 0.06168670, 100.00300598, 110.63150787, 30.72999954, 0.00000000
1, 2.5750, 318, -0.39242992, 0.03853843, -0.25093222, 6.90765572, -55.72015381, -89.00762939, -18.85413551, 8.56474686, -118.09412384, 75.88297272, -50.17462540, -95.20996857, -0.67409813, 0.12850545, -0.63669640, -0.35170421, -0.37595791, -0.65772033, 0.09278319, 100.00300598, 110.63150787, 30.72999954, 0.00000000
1, 2.5800, 319, -0.42027149, 0.02871180, -0.25631994, 11.53868389, -58.35458374, -98.10271454, -18.85413551, 8.56474686, -118.09412384, 76.41736603, -49.76874542, -95.83409119, -0.67089629, 0.13066159, -0.63803327, -0.35459757, -0.34369731, -0.65440565, 0.10249570, 100.00300598, 110.63150787, 30.72999954, 0.00000000
1, 2.5850, 320, -0.42895755, 0.01450270, -0.23604046, 14.62003040, -58.47872925, -103.47284698, -18.85413551, 8.56474686, -118.09412384, 76.95087433, -49.34218597, -96.44787598, -0.66763318, 0.13297532, -0.63934577, -0.35752007, -0.33027738, -0.64711988, 0.08676356, 100.00300598, 110.63150787, 30.72999954, 0.00000000
1, 2.5900, 321, -0.41324681, -0.01062172, -0.19157687, 16.95560074, -58.80669403, -109.32905579, -18.12335587, 10.84478188, -118.47412872, 77.50593567, -48.87452698, -97.07175446, -0.66417629, 0.13558759, -0.64068079, -0.36057475, -0.34091273, -0.62932134, 0.04703468, 100.00300598, 110.63150787, 30.72999954, 0.00000000
1, 2.5950, 322, -0.37745374, -0.03680725, -0.16439168, 17.36219215, -58.54833221, -115.63746643, -18.12335587, 10.84478188, -118.47412872, 78.05603027, -48.37186050, -97.69105530, -0.66060388, 0.13838731, -0.64195746, -0.36378863, -0.37109101, -0.61086774, 0.02471463, 100.00300598, 110.63150787, 30.72999954, 0.00000000
1, 2.6000, 323, -0.33503470, -0.04794366, -0.16529879, 16.97959709, -57.70769119, -121.81679535, -17.86027527, 10.69862556, -118.85413361, 78.59280396, -47.83421707, -98.30014038, -0.65693682, 0.14135715, -0.64314479, -0.36717442, -0.40735561, -0.60775816, 0.03044613, 100.00300598, 110.63150787, 30.72999954, 0.00000000
1, 2.6050, 324, -0.30395979, -0.04475044, -0.17293130, 17.25117302, -57.82287216, -127.11587524, -17.86027527, 10.69862556, -118.85413361, 79.12294769, -47.26694870, -98.90383148, -0.65315586, 0.14447591, -0.64428371, -0.37069225, -0.43182826, -0.61925143, 0.04286775, 100.00300598, 110.63150787, 30.72999954, 0.00000000
1, 2.6100, 325, -0.29158974, -0.04540022, -0.17820916, 18.39636421, -59.31802750, -131.19708252, -17.86027527, 10.69862556, -118.85413361, 79.65609741, -46.67724609, -99.50955200, -0.64923400, 0.14771177, -0.64543295, -0.37428963, -0.43724447, -0.62711233, 0.05298688, 100.00300598, 110.63150787, 30.72999954, 0.00000000
1, 2.6400, 326, -0.51898855, -0.09119619, -0.16415156, 26.24111557, -65.64839935, -152.12863159, -16.69102669, 10.72785759, -119.14644623, 82.89745331, -42.73850250, -103.12260437, -0.62286687, 0.16930127, -0.65263361, -0.39679128, -0.16154775, -0.63503706, 0.07051623, 100.00300598, 110.63150787, 30.72999954, 0.00000000
1, 2.6450, 327, -0.55060571, -0.10351214, -0.16635656, 26.17474937, -63.70397949, -154.81549072, -16.69102669, 10.72785759, -119.14644623, 83.40029907, -42.00828552, -103.67734528, -0.61815846, 0.17329773, -0.65365726, -0.40072483, -0.12059531, -0.63201416, 0.07807498, 100.00300598, 110.63150787, 30.72999954, 0.00000000
1, 2.6500, 328, -0.57723767, -0.12734938, -0.16261004, 26.55165100, -60.12444305, -157.25872803, -15.31715870, 11.10786343, -119.08798218, 83.87526703, -41.26046753, -104.19533539, -0.61347240, 0.17742704, -0.65453631, -0.40466475, -0.08430322, -0.61748767, 0.07948050, 100.00300598, 110.63150787, 30.72999954, 0.00000000
1, 2.6550, 329, -0.59080529, -0.14507833, -0.15447266, 26.17283821, -55.75678253, -159.42820740, -15.31715870, 11.10786343, -119.08798218, 84.31627655, -40.49650192, -104.67221832, -0.60884154, 0.18167546, -0.65523869, -0.40861762, -0.06075405, -0.60905915, 0.07624918, 100.00300598, 110.63150787, 30.72999954, 0.00000000
1, 2.6600, 330, -0.59617323, -0.15728161, -0.15487885, 26.04077148, -51.05466080, -160.92684937, -15.31715870, 11.10786343, -119.08798218, 84.72438049, -39.72014236, -105.10662842, -0.60428530, 0.18603705, -0.65576553, -0.41255441, -0.04508997, -0.60608435, 0.08128589, 100.00300598, 110.63150787, 30.72999954, 0.00000000
1, 2.6650, 331, -0.59836036, -0.17009860, -0.16350843, 26.43304634, -45.51988602, -162.09686279, -15.28792763, 11.72171879, -119.55568695, 85.10025024, -38.93320847, -105.49430847, -0.59982955, 0.19053191, -0.65610754, -0.41644335, -0.03232067, -0.60239720, 0.09424959, 100.00300598, 110.63150787, 30.72999954, 0.00000000
1, 2.6700, 332, -0.60279000, -0.18431762, -0.18521880, 27.46325493, -39.71011734, -162.88282776, -15.28792763, 11.72171879, -119.55568695, 85.44768524, -38.13802338, -105.83476257, -0.59548390, 0.19517161, -0.65627348, -0.42025256, -0.01703765, -0.59717906, 0.12000366, 100.00300598, 110.63150787, 30.72999954, 0.00000000
1, 2.6750, 333, -0.61704028, -0.20666870, -0.17972204, 28.72443390, -35.23452759, -163.14273071, -14.35252857, 10.90324497, -119.46798706, 85.77460480, -37.33823395, -106.13751221, -0.59121811, 0.19992308, -0.65630800, -0.42397153, 0.00819422, -0.58373815, 0.11831612, 100.00300598, 110.63150787, 30.72999954, 0.00000000
1, 2.6800, 334, -0.62721950, -0.23358442, -0.15258196, 29.05253220, -32.90334320, -162.91607666, -14.35252857, 10.90324497, -119.46798706, 86.08571625, -36.53738785, -106.41683960, -0.58698815, 0.20470893, -0.65625465, -0.42763209, 0.02944948, -0.56560099, 0.09486459, 100.00300598, 110.63150787, 30.72999954, 0.00000000
1, 2.6850, 335, -0.63502389, -0.30557710, -0.15483232, 28.66949081, -30.35900879, -161.65878296, -14.35252857, 10.90324497, -119.46798706, 86.37220764, -35.75111389, -106.66878510, -0.58288234, 0.20941493, -0.65610176, -0.43118918, 0.04840739, -0.50206578, 0.10055546, 100.00300598, 110.63150787, 30.72999954, 0.00000000
1, 2.7250, 336, -0.69307780, -0.53339612, -0.21376310, 27.86804771, -25.55438995, -134.08821106, -11.25401878, 12.16018677, -120.22800446, 88.26168823, -29.84912872, -108.19670105, -0.55194986, 0.24479613, -0.65339071, -0.45662534, 0.19339851, -0.33173069, 0.18404807, 100.00300598, 110.63150787, 30.72999954, 0.00000000
1, 2.7300, 337, -0.72078878, -0.56096327, -0.19483961, 27.22779655, -27.16416931, -128.15956116, -11.25401878, 12.16018677, -120.22800446, 88.48403931, -29.21235657, -108.37485504, -0.54831880, 0.24854900, -0.65320581, -0.45922992, 0.23082761, -0.30986017, 0.16823643, 100.00300598, 110.63150787, 30.72999954, 0.00000000
1, 2.7350, 338, -0.74578875, -0.57767963, -0.20796639, 25.89980698, -27.80281830, -122.30415344, -11.25401878, 12.16018677, -120.22800446, 88.68950653, -28.61806488, -108.54811859, -0.54487014, 0.25198665, -0.65304238, -0.46168715, 0.26513803, -0.29836074, 0.18437068, 100.00300598, 110.63150787, 30.72999954, 0.00000000
1, 2.7400, 339, -0.77483839, -0.59641564, -0.22227399, 25.22762489, -26.86071396, -116.76995850, -11.07863140, 13.15404797, -120.31569672, 88.89373016, -28.03710938, -108.71572876, -0.54146469, 0.25535879, -0.65289450, -0.46404395, 0.30313417, -0.28450102, 0.20157985, 100.00300598, 110.63150787, 30.72999954, 0.00000000
1, 2.7450, 340, -0.77936292, -0.60929132, -0.21479927, 23.94218826, -25.19384003, -111.17562103, -11.07863140, 13.15404797, -120.31569672, 89.08399963, -27.48347282, -108.87015533, -0.53821975, 0.25856847, -0.65272582, -0.46627343, 0.31633934, -0.27629900, 0.19699770, 100.00300598, 110.63150787, 30.72999954, 0.00000000
1, 2.7500, 341, -0.76491630, -0.61870444, -0.20646809, 21.90755272, -22.66467285, -102.57176208, -10.61093235, 13.47559166, -120.40338898, 89.25482941, -26.97224236, -109.00691223, -0.53523207, 0.26153132, -0.65253800, -0.46831846, 0.30990848, -0.27109867, 0.19132200, 100.00300598, 110.63150787, 30.72999954, 0.00000000
1, 2.7550, 342, -0.75793356, -0.62103701, -0.21236897, 21.02147484, -21.62587738, -96.78715515, -10.61093235, 13.47559166, -120.40338898, 89.41640472, -26.48951149, -109.13513947, -0.53239137, 0.26432514, -0.65236032, -0.47023165, 0.31056795, -0.27264950, 0.19973809, 100.00300598, 110.63150787, 30.72999954, 0.00000000
1, 2.7600, 343, -0.75956470, -0.62601137, -0.23311579, 20.30326271, -19.71945000, -90.80875397, -10.61093235, 13.47559166, -120.40338898, 89.56779480, -26.03627968, -109.25040436, -0.52972609, 0.26696694, -0.65218061, -0.47199506, 0.31945467, -0.27123690, 0.22284730, 100.00300598, 110.63150787, 30.72999954, 0.00000000
1, 2.7650, 344, -0.76013070, -0.63726044, -0.23072459, 19.98074913, -18.12866020, -84.59755707, -10.28938866, 12.68634892, -120.63723755, 89.71214294, -25.61378670, -109.35481262, -0.52722943, 0.26945359, -0.65201944, -0.47359747, 0.32676661, -0.26329127, 0.22270086, 100.00300598, 110.63150787, 30.72999954, 0.00000000
1, 2.7700, 345, -0.75463563, -0.64521742, -0.20155987, 19.38943481, -17.79851913, -78.20265198, -10.28938866, 12.68634892, -120.63723755, 89.85142517, -25.22302628, -109.45570374, -0.52487391, 0.27174833, -0.65190464, -0.47505853, 0.32747868, -0.25838965, 0.19573987, 100.00300598, 110.63150787, 30.72999954, 0.00000000
1, 2.7950, 346, -0.69432575, -0.58339465, -0.17599304, 12.39966583, -7.85223293, -53.76070023, -10.08477020, 13.85559750, -120.08184814, 90.33560944, -23.68926048, -109.78396606, -0.51592654, 0.28079021, -0.65102887, -0.48076832, 0.29193097, -0.33157885, 0.17836207, 100.00300598, 110.63150787, 30.72999954, 0.00000000
1, 2.8000, 347, -0.67490727, -0.55963397, -0.17728744, 11.13003159, -7.53873205, -48.37407684, -10.43554497, 12.68634892, -120.14031219, 90.40660858, -23.44707870, -109.82381439, -0.51455885, 0.28225216, -0.65083706, -0.48163697, 0.27647281, -0.35706156, 0.18091553, 100.00300598, 110.63150787, 30.72999954, 0.00000000
1, 2.8050, 348, -0.81416422, -0.65166390, -0.28100801, 7.90319633, -6.94938803, -42.11471939, -10.43554497, 12.68634892, -120.14031219, 90.46004486, -23.23620605, -109.86028290, -0.51337743, 0.28347546, -0.65063846, -0.48244679, 0.41952738, -0.26638699, 0.28509974, 100.00300598, 110.63150787, 30.72999954, 0.00000000
1, 2.8100, 349, -1.04140019, -0.59398043, -0.28525177, 3.89906216, -5.49434423, -30.07627296, -10.43554497, 12.68634892, -120.14031219, 90.49050140, -23.08560181, -109.88908386, -0.51253909, 0.28429800, -0.65047061, -0.48308006, 0.64949095, -0.32522392, 0.28944683, 100.00300598, 110.63150787, 30.72999954, 0.00000000
1, 2.8150, 350, -1.03397477, -0.84718561, -0.24321207, 21.21123505, -1.16031384, -1.06498253, -9.96784592, 13.32943535, -120.60800934, 90.59899902, -23.07995987, -109.89537048, -0.51221913, 0.28477928, -0.65092957, -0.48251736, 0.64271736, -0.07239922, 0.24827707, 100.00300598, 110.63150787, 30.72999954, 0.00000000
1, 2.8200, 351, -1.31394911, -1.57859361, 0.04531813, 44.56816101, -21.31685829, 36.11876678, -9.96784592, 13.32943535, -120.60800934, 90.86879730, -23.25875282, -110.01351166, -0.51181710, 0.28430536, -0.65279061, -0.48070604, 0.91983438, 0.65949249, -0.03845859, 100.00300598, 110.63150787, 30.72999954, 0.00000000
1, 2.8250, 352, -2.01123381, -1.91017842, 0.22839244, 43.93502808, -68.05722046, 66.38443756, -10.49400711, 13.06635475, -120.14031219, 91.23913574, -23.58432579, -110.39038849, -0.51072121, 0.28197140, -0.65604979, -0.47880545, 1.61196804, 0.99289882, -0.21823327, 100.00300598, 110.63150787, 30.72999954, 0.00000000
1, 2.8300, 353, -2.45946598, -2.03738546, 0.31324655, 33.15808105, -80.35442352, 77.16480255, -10.49400711, 13.06635475, -120.14031219, 91.58671570, -23.96035576, -110.83902740, -0.50962061, 0.27882451, -0.65947598, -0.47711140, 2.05405426, 1.12270260, -0.29863310, 100.00300598, 110.63150787, 30.72999954, 0.00000000
1, 2.8350, 354, -2.02057195, -2.21559906, 0.35182524, 4.22101974, -37.07347488, 65.91096497, -10.49400711, 13.06635475, -120.37416077, 91.69580078, -24.28541756, -111.05199432, -0.50987566, 0.27624887, -0.66119099, -0.47596219, 1.60962474, 1.30335724, -0.33359200, 100.00300598, 110.63150787, 30.72999954, 0.00000000
1, 2.8400, 355, -1.34715855, -2.29741478, 0.09072436, -29.09276962, 26.90034866, 54.43488312, -11.10786343, 13.24174213, -120.37416077, 91.49311829, -24.56135941, -110.91220856, -0.51213211, 0.27459225, -0.66064250, -0.47525930, 0.93232310, 1.38759613, -0.07307858, 100.00300598, 110.63150787, 30.72999954, 0.00000000
1, 2.8750, 356, 0.16164595, -0.45637792, -0.01921072, 10.13107204, -8.99817848, 22.72473335, -9.90938282, 12.92019844, -120.75416565, 88.89574432, -25.12005806, -107.79042816, -0.53363478, 0.27733538, -0.64370829, -0.47324279, -0.58559662, -0.44907764, 0.00096230, 100.00300598, 110.63150787, 30.72999954, 0.00000000
1, 2.8800, 357, -0.25804469, -0.54341149, -0.01286819, 14.00255680, -56.32895660, 32.62379074, -9.90938282, 12.92019844, -120.75416565, 89.09725189, -25.28835297, -108.09819794, -0.53255624, 0.27558240, -0.64570230, -0.47276521, -0.16839865, -0.36094153, -0.00380409, 100.00300598, 110.63150787, 30.72999954, 0.00000000
1, 2.8850, 358, -0.63505530, -0.54504824, -0.08886581, 12.86927128, -85.24092865, 36.64608002, -10.64016342, 13.32943535, -120.81262970, 89.35765839, -25.49809074, -108.56465912, -0.53085804, 0.27296090, -0.64840788, -0.47249281, 0.20570105, -0.35776973, 0.07523121, 100.00300598, 110.63150787, 30.72999954, 0.00000000
1, 2.8900, 359, -0.93740124, -0.53202176, -0.16044554, 10.94972706, -88.69586182, 34.76544952, -10.64016342, 13.32943535, -120.81262970, 89.62432861, -25.67643356, -109.05430603, -0.52893329, 0.27039987, -0.65109837, -0.47242409, 0.50518435, -0.36926931, 0.15031442, 100.00300598, 110.63150787, 30.72999954, 0.00000000
1, 2.8950, 360, -1.13680565, -0.53283834, -0.23512945, 8.13530064, -68.97698975, 29.20725632, -10.64016342, 13.32943535, -120.81262970, 89.83125305, -25.82457352, -109.43617249, -0.52747941, 0.26833451, -0.65320051, -0.47232550, 0.70231521, -0.36716709, 0.22804812, 100.00300598, 110.63150787, 30.72999954, 0.00000000
1, 2.9000, 361, -1.18862581, -0.52090740, -0.30476266, 5.55249643, -33.25371933, 23.04612732, -11.07863140, 12.65711784, -121.13417053, 89.93974304, -25.94034004, -109.62051392, -0.52694201, 0.26712051, -0.65434974, -0.47202253, 0.75236845, -0.37804982, 0.29968527, 100.00300598, 110.63150787, 30.72999954, 0.00000000
1, 2.9050, 362, -1.08914101, -0.45382604, -0.31032294, 3.40214324, -0.59369963, 18.41887474, -11.07863140, 12.65711784, -121.13417053, 89.95831299, -26.03239250, -109.62356567, -0.52726471, 0.26666239, -0.65464807, -0.47150728, 0.65137243, -0.44437975, 0.30620909, 100.00300598, 110.63150787, 30.72999954, 0.00000000
1, 2.9100, 363, -0.84003824, -0.33306634, -0.24217515, 2.61383319, 13.95729065, 15.58599186, -11.13709450, 12.56942368, -120.60800934, 89.93733215, -26.11011887, -109.54565430, -0.52795309, 0.26656654, -0.65456164, -0.47091067, 0.40082657, -0.56462771, 0.23865977, 100.00300598, 110.63150787, 30.72999954, 0.00000000
1, 2.9150, 364, -0.76161039, -0.31519610, -0.19870710, 1.16893244, 12.48589516, 13.95691395, -11.13709450, 12.56942368, -120.60800934, 89.91261292, -26.17970467, -109.47588348, -0.52858239, 0.26645330, -0.65446013, -0.47040963, 0.32117003, -0.58201879, 0.19501863, 100.00300598, 110.63150787, 30.72999954, 0.00000000
1, 2.9200, 365, -0.68425155, -0.35423857, -0.17695552, -1.08098030, 4.04231310, 12.27705383, -11.13709450, 12.56942368, -120.60800934, 89.89732361, -26.24102783, -109.45314026, -0.52896237, 0.26616195, -0.65448749, -0.47010928, 0.24277496, -0.54252845, 0.17311412, 100.00300598, 110.63150787, 30.72999954, 0.00000000
1, 2.9500, 366, -0.65791857, -1.66420925, 0.07280448, 3.58412910, -1.16171491, -8.83252621, -11.80941200, 12.27711201, -120.60800934, 90.06972504, -26.35705757, -109.69255066, -0.52805680, 0.26492450, -0.65601832, -0.46969262, 0.21357065, 0.76814002, -0.07613099, 100.00300598, 110.63150787, 30.72999954, 0.00000000
1, 2.9550, 367, -0.57105923, -1.59825063, 0.08755285, 2.72323966, 1.78519213, -11.48539734, -11.80941200, 12.27711201, -120.60800934, 90.07878113, -26.29960442, -109.68260956, -0.52784055, 0.26535168, -0.65589982, -0.46985984, 0.12754022, 0.70172930, -0.09040272, 100.00300598, 110.63150787, 30.72999954, 0.00000000
1, 2.9600, 368, -0.51354897, -1.40741765, 0.07133894, 4.03023005, -3.16909790, -10.67371368, -11.34171295, 12.86173630, -120.63723755, 90.10663605, -26.24618149, -109.70029449, -0.52748394, 0.26568419, -0.65593165, -0.47002804, 0.07093655, 0.51049632, -0.07338771, 100.00300598, 110.63150787, 30.72999954, 0.00000000
1, 2.9650, 369, -0.52936816, -1.06684220, -0.04663727, 4.50377226, -11.94175911, -6.33205795, -11.34171295, 12.86173630, -120.63723755, 90.15847015, -26.21442413, -109.76683807, -0.52696002, 0.26572326, -0.65622532, -0.47018367, 0.08766364, 0.16981375, 0.04582727, 100.00300598, 110.63150787, 30.72999954, 0.00000000
1, 2.9700, 370, -0.57443786, -0.92400849, -0.09778503, 5.42402458, -19.57890701, -2.70511866, -11.34171295, 12.86173630, -120.63723755, 90.23373413, -26.20064354, -109.87592316, -0.52628106, 0.26552287, -0.65675533, -0.47031724, 0.13313474, 0.02693249, 0.09813906, 100.00300598, 110.63150787, 30.72999954, 0.00000000
1, 2.9750, 371, -0.66394454, -0.74653578, -0.13825941, 7.47934151, -27.30845451, -0.63712722, -11.48786926, 12.92019844, -120.52031708, 90.33829498, -26.19690704, -110.02809143, -0.52539897, 0.26515144, -0.65752828, -0.47043312, 0.22281048, -0.15049981, 0.14026055, 100.00300598, 110.63150787, 30.72999954, 0.00000000
1, 2.9800, 372, -0.71609837, -0.70148218, -0.14648943, 9.15423107, -27.91907501, -2.18024635, -11.48786926, 12.92019844, -120.52031708, 90.45266724, -26.18515396, -110.18358612, -0.52444732, 0.26484972, -0.65833068, -0.47054273, 0.27512476, -0.19559771, 0.15019633, 100.00300598, 110.63150787, 30.72999954, 0.00000000
1, 2.9850, 373, -0.75271630, -0.71487856, -0.14402188, 10.44751358, -26.81532860, -5.64056778, -11.98479939, 12.62788677, -121.13417053, 90.54916382, -26.20406532, -110.32349396, -0.52372861, 0.26437873, -0.65909290, -0.47054112, 0.31174171, -0.18219399, 0.14928435, 100.00300598, 110.63150787, 30.72999954, 0.00000000
1, 2.9900, 374, -0.76542693, -0.76207304, -0.12869531, 11.34299946, -25.41073418, -10.17527199, -11.98479939, 12.62788677, -121.13417053, 90.66797638, -26.15190887, -110.46455383, -0.52265775, 0.26440734, -0.65978855, -0.47074074, 0.32476121, -0.13517807, 0.13554277, 100.00300598, 110.63150787, 30.72999954, 0.00000000
1, 2.9950, 375, -0.74412048, -0.82816839, -0.10377133, 11.49490738, -24.38484955, -15.16521549, -11.98479939, 12.62788677, -121.13417053, 90.78462219, -26.07460022, -110.59939575, -0.52151102, 0.26460329, -0.66040510, -0.47103769, 0.30450481, -0.06964671, 0.11240898, 100.00300598, 110.63150787, 30.72999954, 0.00000000
1, 3.0300, 376, -0.51128912, -0.88665390, -0.05734330, 12.33267689, -14.24294376, -28.25397301, -11.83864307, 10.11400127, -120.54954529, 91.46575928, -25.16932869, -111.27455902, -0.51330447, 0.26893300, -0.66275960, -0.47428200, 0.08556854, -0.01775671, 0.07737972, 100.00300598, 110.63150787, 30.72999954, 0.00000000
