time,ax,ay,az,aT
0.004000,-0.1436,0.1116,-0.7217,0.744
0.004000,-0.1337,0.1877,-0.4973,0.548
0.004000,0.2426,0.2335,-0.3140,0.460
0.004000,0.3653,0.2629,-0.1835,0.486
0.025000,0.4281,0.2876,-0.0843,0.523
0.025000,0.4428,0.3071,-0.0138,0.539
0.026000,0.3993,0.3115,0.0423,0.508
0.026000,0.2829,0.2862,0.0816,0.411
0.035000,0.2895,0.2166,0.1042,0.376
0.035000,-0.0116,0.1241,0.1052,0.163
0.039000,-0.1059,0.0350,0.0847,0.140
0.048000,-0.1371,-0.0194,0.0356,0.143
0.048000,-0.1482,-0.0748,-0.0327,0.169
0.054000,-0.1891,-0.1261,-0.0915,0.245
0.068000,-0.2452,-0.1803,-0.1287,0.330
0.068000,-0.3355,-0.2565,-0.1180,0.438
0.068000,-0.3374,-0.3191,-0.0259,0.465
0.074000,-0.4237,-0.3062,-0.1729,0.551
0.084000,-0.3392,-0.3129,-0.2649,0.532
0.084000,-0.2872,-0.3103,-0.2328,0.483
0.089000,-0.2218,-0.2699,-0.1052,0.365
0.099000,-0.1425,-0.1968,0.0224,0.244
0.099000,-0.0848,-0.1196,0.1309,0.197
0.104000,-0.0247,-0.0385,0.1846,0.190
0.109000,0.0693,0.0517,0.1668,0.188
0.114000,0.1710,0.1178,0.0918,0.227
0.118000,0.2402,0.1676,0.0027,0.293
0.142000,0.2648,0.1967,-0.0982,0.344
0.143000,0.2376,0.2005,-0.1680,0.353
0.143000,0.1776,0.1981,-0.2021,0.334
0.143000,0.1059,0.1820,-0.1932,0.286
0.152000,0.0202,0.1258,-0.1558,0.201
0.153000,-0.0463,0.0556,-0.1017,0.125
0.153000,-0.0915,0.0117,-0.0621,0.111
0.167000,-0.1178,-0.0275,-0.0059,0.121
0.167000,-0.1636,-0.0648,0.0670,0.188
0.169000,-0.2098,-0.0931,0.1902,0.298
0.184000,-0.2422,-0.1273,0.3373,0.434
0.185000,-0.2296,-0.1438,0.4081,0.490
0.185000,-0.1720,-0.1518,0.3643,0.431
0.189000,-0.1362,-0.1557,0.2323,0.311
0.201000,-0.1006,-0.1358,0.1028,0.198
0.201000,-0.0775,-0.0823,0.0259,0.116
0.205000,-0.0429,-0.0287,-0.0009,0.052
0.217000,-0.0256,0.0201,-0.0014,0.033
0.218000,-0.0157,0.0570,-0.0021,0.059
0.219000,0.0084,0.0916,-0.0244,0.095
0.274000,0.0710,0.1290,-0.0755,0.166
0.275000,0.1459,0.1647,-0.1457,0.264
0.275000,0.1472,0.1726,-0.1705,0.284
0.275000,0.1995,0.2008,-0.2529,0.380
0.275000,0.2807,0.2228,-0.2948,0.464
0.275000,0.3093,0.2194,-0.2485,0.453
0.276000,0.2973,0.1903,-0.1618,0.388
0.276000,0.2711,0.1494,-0.1015,0.326
0.276000,0.2047,0.0848,-0.0627,0.230
0.276000,0.0836,-0.0015,-0.0764,0.113
0.277000,-0.0209,-0.0642,-0.1641,0.177
0.284000,-0.1098,-0.1200,-0.2113,0.267
0.285000,-0.2121,-0.1837,-0.2802,0.397
0.289000,-0.2970,-0.2506,-0.3253,0.507
0.299000,-0.3382,-0.3228,-0.3825,0.604
0.300000,-0.3165,-0.3526,-0.4446,0.650
0.304000,-0.2438,-0.3374,-0.4903,0.643
0.317000,-0.1560,-0.3104,-0.5242,0.629
0.319000,-0.1104,-0.3004,-0.5679,0.652
0.319000,-0.0826,-0.3072,-0.6261,0.702
0.362000,-0.0679,-0.2997,-0.6989,0.763
0.363000,-0.0018,-0.2610,-0.8102,0.851
0.364000,0.0436,-0.2486,-0.8858,0.921
0.364000,0.1068,-0.2167,-0.9904,1.019
0.365000,0.1894,-0.1822,-1.1217,1.152
0.365000,0.2775,-0.1350,-1.2846,1.321
0.365000,0.3804,-0.0920,-1.4383,1.491
0.366000,0.4671,-0.0937,-1.5661,1.637
0.366000,0.5759,-0.1470,-1.6561,1.760
0.370000,0.7116,-0.2355,-1.7082,1.865
0.374000,0.8770,-0.3282,-1.7056,1.946
0.379000,1.0695,-0.4040,-1.6482,2.006
0.385000,1.2751,-0.4439,-1.5598,2.063
0.390000,1.4440,-0.4271,-1.5072,2.130
0.393000,1.5754,-0.4017,-1.4830,2.201
0.399000,1.6616,-0.3685,-1.5207,2.282
0.404000,1.6165,-0.3422,-1.6847,2.360
0.410000,1.8412,-0.3371,-1.9867,2.730
0.414000,1.8686,-0.3481,-2.4150,3.073
0.419000,1.8372,-0.3795,-2.9216,3.472
0.443000,1.7480,-0.4400,-3.4447,3.888
0.444000,1.6275,-0.5408,-3.9319,4.290
0.444000,1.5176,-0.6814,-4.3189,4.628
0.444000,1.4492,-0.8761,-4.5819,4.885
0.445000,1.4155,-1.0983,-4.7374,5.065
0.449000,1.4051,-1.3336,-4.8022,5.178
0.454000,1.4343,-1.5318,-4.8193,5.256
0.459000,1.5431,-1.6572,-4.8147,5.321
0.464000,1.7647,-1.6931,-4.8169,5.402
0.469000,2.1183,-1.5822,-4.8545,5.528
0.476000,2.5176,-1.3629,-4.9584,5.726
0.479000,2.8842,-1.0829,-5.1047,5.962
0.486000,3.2112,-0.7924,-5.2142,6.175
0.489000,3.4571,-0.5177,-5.2843,6.336
0.494000,3.6100,-0.2998,-5.3554,6.465
0.500000,3.6288,-0.1909,-5.4128,6.519
0.504000,3.3782,-0.2888,-5.6739,6.610
0.509000,2.9918,-0.5514,-5.9424,6.676
0.515000,2.2538,-0.9076,-6.1704,6.632
0.520000,1.3501,-1.2729,-6.2069,6.478
0.535000,0.6156,-1.6783,-6.0232,6.283
0.536000,0.1591,-2.2379,-6.2240,6.616
0.537000,0.0701,-2.5100,-5.7902,6.311
0.540000,0.0907,-2.6835,-5.0297,5.702
0.545000,0.2352,-2.8447,-4.4024,5.247
0.549000,0.5371,-2.9129,-3.9678,4.951
0.554000,1.0542,-2.7197,-3.1996,4.330
0.575000,1.5404,-2.3633,-2.5115,3.777
0.576000,1.9767,-1.9640,-2.2239,3.565
0.576000,2.5175,-1.6542,-2.2094,3.736
0.577000,3.0430,-1.4324,-2.2572,4.051
0.579000,3.4895,-1.2900,-2.3575,4.404
0.584000,3.7245,-1.2016,-2.6094,4.704
0.589000,3.6504,-1.1720,-2.9083,4.812
0.594000,3.2853,-1.1968,-3.0763,4.657
0.599000,2.7811,-1.1967,-3.1790,4.390
0.604000,2.2956,-1.2454,-3.2243,4.149
0.610000,1.9064,-1.4166,-3.1609,3.954
0.614000,1.6030,-1.7119,-2.8297,3.675
0.620000,1.4155,-2.0838,-2.0978,3.278
0.633000,1.4483,-2.5350,-1.1448,3.136
0.635000,1.4590,-3.0153,-0.1063,3.351
0.635000,1.3184,-3.5002,0.7737,3.819
0.640000,1.0316,-3.9020,1.4504,4.289
0.645000,0.6782,-4.1571,1.8124,4.585
0.649000,0.3613,-4.2422,1.9017,4.663
0.654000,0.0532,-4.2034,1.7285,4.545
0.678000,-0.2366,-4.0774,1.2729,4.278
0.679000,-0.5256,-3.9176,0.6733,4.010
0.679000,-0.6304,-3.7351,0.0821,3.789
0.680000,-0.4982,-3.4998,-0.2951,3.547
0.680000,-0.1603,-3.2127,-0.5789,3.268
0.687000,0.0144,-2.8992,-0.7879,3.004
0.690000,0.1454,-2.6455,-0.9840,2.826
0.695000,0.4557,-2.5143,-1.2177,2.831
0.700000,0.9427,-2.3606,-1.3426,2.875
0.706000,1.5931,-2.0906,-1.2323,2.903
0.710000,2.1543,-1.7922,-0.9958,2.974
0.714000,2.5323,-1.5733,-0.6876,3.059
0.720000,2.5772,-1.4351,-0.1438,2.953
0.726000,2.4619,-1.4398,0.4233,2.883
0.729000,2.2489,-1.6021,1.0316,2.948
0.735000,1.9435,-1.9257,1.6292,3.184
0.740000,1.5176,-2.4114,2.1885,3.593
0.745000,0.8957,-3.1166,2.5744,4.140
0.750000,0.4860,-3.6626,2.9986,4.758
0.755000,0.1709,-4.1186,3.0998,5.158
0.760000,-0.0402,-4.2128,3.0388,5.195
0.765000,-0.1562,-4.0636,2.8238,4.951
0.770000,-0.0860,-3.7438,2.5779,4.546
0.792000,0.1603,-3.3444,2.2324,4.024
0.793000,0.5390,-3.0033,1.6514,3.469
0.793000,1.0498,-2.8035,0.7582,3.088
0.794000,1.1852,-2.4129,0.7766,2.798
0.802000,1.5342,-1.8665,0.8242,2.553
0.803000,2.1322,-1.2993,0.7245,2.600
0.809000,2.7371,-0.8791,0.5348,2.924
0.810000,3.0949,-0.6636,0.5235,3.208
0.815000,3.2371,-0.6524,0.7114,3.378
0.820000,3.1759,-0.8352,1.0864,3.459
0.825000,2.8757,-1.1702,1.5614,3.475
0.830000,2.4017,-1.5547,2.0241,3.505
0.835000,1.9790,-2.0198,2.3905,3.703
0.840000,1.6717,-2.4375,2.6711,3.984
0.847000,1.3123,-2.6256,2.9793,4.182
0.850000,1.1562,-2.6991,3.1704,4.321
0.855000,1.1784,-2.7755,3.2730,4.450
0.866000,1.3374,-2.8171,3.2973,4.538
0.867000,1.5633,-2.7601,3.2506,4.542
0.870000,1.6678,-2.6122,3.1626,4.428
0.876000,1.7312,-2.4101,3.0451,4.252
0.880000,1.9009,-2.1726,2.8572,4.062
0.885000,2.0675,-1.9477,2.5041,3.787
0.909000,2.1012,-1.8013,2.1250,3.489
0.910000,2.1048,-1.7168,1.8235,3.272
0.910000,2.2368,-1.5167,1.5481,3.115
0.911000,2.1449,-1.2191,1.3020,2.790
0.913000,2.2882,-1.0314,1.0397,2.717
0.915000,2.5213,-0.9520,0.8151,2.816
0.920000,2.6997,-0.8763,0.6209,2.905
0.925000,2.8586,-0.8170,0.6809,3.050
0.931000,2.8901,-0.7728,0.9875,3.150
0.935000,2.8134,-0.7601,1.5357,3.294
0.940000,2.7386,-0.7679,2.2094,3.602
0.945000,2.7233,-0.8198,2.9673,4.110
0.950000,2.6409,-0.8967,3.6431,4.588
0.955000,2.4919,-0.9025,4.1352,4.912
0.960000,2.1766,-0.8627,4.2589,4.860
0.965000,1.9806,-0.8616,4.2658,4.781
0.970000,1.7295,-0.9905,4.0030,4.472
0.982000,1.4957,-1.0758,3.6456,4.085
0.984000,1.4494,-1.0427,3.3585,3.804
0.986000,1.6193,-0.8079,3.2001,3.676
0.990000,2.0215,-0.4297,3.0600,3.692
0.995000,2.5492,-0.0181,2.9896,3.929
1.000000,2.9674,0.3258,2.9410,4.191
1.006000,3.3187,0.6637,2.9183,4.469
1.010000,3.6287,0.9755,3.0085,4.814
1.015000,3.8516,1.2780,3.2262,5.184
1.020000,4.0271,1.6033,3.5153,5.581
1.026000,4.1619,1.9077,3.6929,5.882
1.030000,4.1165,2.1258,3.6085,5.872
1.035000,3.8694,2.2318,3.2900,5.548
1.040000,3.5050,2.2224,2.8134,5.014
1.045000,3.0985,2.1520,2.2976,4.417
1.050000,2.7721,2.0594,1.8199,3.904
1.056000,2.5642,1.9718,1.4338,3.538
1.065000,2.4222,1.8532,1.1872,3.273
1.066000,1.8374,1.0856,0.8029,2.280
1.071000,1.6632,0.8988,0.5741,1.976
1.107000,1.7506,1.0880,0.5687,2.138
1.108000,1.9410,1.4419,0.6948,2.516
1.108000,2.0880,1.7468,0.7870,2.834
1.108000,2.0524,1.8586,0.9794,2.937
1.109000,1.9806,1.7899,1.3360,2.985
1.109000,2.1501,1.6939,1.7379,3.242
1.109000,2.5247,1.7068,2.1226,3.714
1.110000,2.9433,1.8589,2.4008,4.229
1.116000,3.2712,2.0943,2.5339,4.638
1.120000,3.4604,2.3764,2.4858,4.879
1.125000,3.5564,2.6432,2.2597,4.974
1.131000,3.5851,2.8321,1.8995,4.948
1.136000,3.5541,2.9413,1.5094,4.854
1.142000,3.4539,2.9855,1.1547,4.709
1.147000,3.3278,2.9624,0.7974,4.526
1.151000,3.1330,2.8917,0.4524,4.287
1.159000,2.8866,2.7786,0.1825,4.011
1.161000,2.6416,2.6715,-0.0170,3.757
1.166000,2.4198,2.5994,-0.1146,3.553
1.171000,2.2333,2.5455,-0.1273,3.389
1.175000,2.0630,2.5317,-0.0717,3.267
1.181000,1.9352,2.4549,0.2498,3.136
1.186000,1.9436,2.3490,0.7750,3.146
1.196000,2.0784,2.3311,1.1625,3.332
1.197000,2.0738,2.4055,1.0975,3.360
1.201000,1.9323,2.5461,0.8291,3.302
1.206000,1.8622,2.7099,0.6781,3.357
1.241000,1.9281,2.8275,0.5666,3.469
1.242000,1.9865,2.8678,0.3409,3.505
1.243000,2.0013,2.8358,0.0666,3.472
1.243000,2.0088,2.7749,-0.1697,3.430
1.244000,2.0351,2.7209,-0.3342,3.414
1.244000,2.0778,2.6785,-0.3837,3.412
1.245000,2.0886,2.6330,-0.3514,3.379
1.246000,2.0795,2.5604,-0.2395,3.307
1.251000,2.0647,2.4608,-0.0530,3.213
1.256000,2.0491,2.3268,0.1462,3.104
1.261000,2.0159,2.1586,0.3246,2.971
1.266000,1.9724,1.9684,0.4682,2.826
1.271000,1.9067,1.8016,0.5463,2.680
1.278000,1.8095,1.6466,0.5829,2.515
1.280000,1.7431,1.5226,0.5690,2.383
1.286000,1.7313,1.4272,0.5026,2.299
1.305000,1.7576,1.3653,0.4149,2.264
1.307000,1.8219,1.3035,0.3444,2.266
1.307000,1.8789,1.2277,0.3197,2.267
1.308000,1.9123,1.1501,0.3448,2.258
1.311000,1.9630,1.0758,0.3858,2.271
1.316000,2.0291,1.0171,0.4321,2.311
1.321000,2.1391,1.0172,0.5123,2.423
1.326000,2.2883,1.1020,0.6399,2.619
1.331000,2.4502,1.2570,0.7784,2.862
1.336000,2.6317,1.4458,0.9104,3.138
1.342000,2.8564,1.6539,1.0448,3.462
1.346000,3.0953,1.8567,1.1787,3.797
1.351000,3.3358,2.0538,1.3046,4.129
1.356000,3.5347,2.2591,1.4102,4.426
1.361000,3.6868,2.4673,1.4546,4.669
1.366000,3.7799,2.6876,1.4283,4.853
1.371000,3.8187,2.8864,1.3415,4.971
1.376000,3.8270,3.0562,1.1969,5.042
1.381000,3.8096,3.1900,1.0456,5.078
1.386000,3.7449,3.2757,0.9025,5.057
1.396000,3.5971,3.3277,0.7726,4.961
1.397000,3.4360,3.3536,0.6443,4.844
1.407000,3.2855,3.3414,0.5342,4.716
1.407000,3.1242,3.2793,0.4353,4.550
1.440000,2.9356,3.1917,0.3530,4.351
1.442000,2.7462,3.0954,0.2942,4.148
1.442000,2.5680,3.0096,0.2425,3.964
1.443000,2.4182,2.9109,0.1764,3.788
1.443000,2.3205,2.8280,0.0909,3.659
1.444000,2.2773,2.7416,-0.0111,3.564
1.444000,2.2668,2.6706,-0.1054,3.505
1.446000,2.2339,2.5932,-0.1708,3.427
1.451000,2.1764,2.5243,-0.2476,3.342
1.456000,2.1373,2.4588,-0.3360,3.275
1.461000,2.1333,2.3774,-0.4330,3.223
1.467000,2.1307,2.2898,-0.5218,3.171
1.471000,2.1153,2.1717,-0.5930,3.089
1.476000,2.0920,2.0308,-0.6419,2.985
1.481000,2.0728,1.9077,-0.6973,2.902
1.489000,2.0530,1.7594,-0.7666,2.810
1.492000,2.0041,1.6242,-0.8281,2.709
1.496000,1.9163,1.4996,-0.8891,2.591
1.501000,1.8166,1.3791,-0.9661,2.477
1.507000,1.7455,1.2817,-1.0568,2.410
1.512000,1.6815,1.1860,-1.1441,2.354
1.521000,1.6079,1.0943,-1.2138,2.293
1.523000,1.5200,0.9923,-1.2584,2.209
1.549000,1.4127,0.8725,-1.2757,2.094
1.550000,1.2939,0.7406,-1.2775,1.963
1.550000,1.1659,0.5990,-1.2568,1.816
1.551000,1.0622,0.4763,-1.2399,1.701
1.551000,0.9828,0.3846,-1.1959,1.595
1.554000,0.9132,0.3068,-1.1415,1.494
1.556000,0.8610,0.2244,-1.0530,1.379
1.565000,0.7972,0.1157,-0.9810,1.269
1.566000,0.7171,-0.0052,-0.8970,1.148
1.571000,0.6138,-0.1450,-0.8181,1.033
1.577000,0.4919,-0.2896,-0.7325,0.929
1.582000,0.3759,-0.4021,-0.6499,0.852
1.587000,0.3015,-0.4854,-0.5798,0.814
1.592000,0.2493,-0.5466,-0.5342,0.804
1.597000,0.1860,-0.5858,-0.5060,0.796
1.601000,0.0995,-0.6319,-0.5072,0.816
1.606000,0.0016,-0.6947,-0.5114,0.863
1.612000,-0.0811,-0.7711,-0.5181,0.933
1.617000,-0.2204,-0.8612,-0.5250,1.032
1.622000,-0.3900,-0.9601,-0.5485,1.173
1.632000,-0.5681,-1.0245,-0.6004,1.316
1.633000,-0.7071,-1.0617,-0.6973,1.454
1.640000,-0.8259,-1.0783,-0.7764,1.565
1.673000,-0.9415,-1.1083,-0.8427,1.681
1.674000,-1.0611,-1.1612,-0.9032,1.814
1.675000,-1.1632,-1.2346,-0.9530,1.946
1.675000,-1.2527,-1.3214,-0.9681,2.062
1.675000,-1.3270,-1.3850,-0.9870,2.157
1.676000,-1.3766,-1.4209,-1.0144,2.223
1.676000,-1.4017,-1.4437,-1.0526,2.271
1.678000,-1.4214,-1.4631,-1.1041,2.319
1.683000,-1.4477,-1.5221,-1.1642,2.402
1.688000,-1.4856,-1.6232,-1.2208,2.516
1.693000,-1.5323,-1.7373,-1.2623,2.638
1.697000,-1.6047,-1.8428,-1.3078,2.771
1.705000,-1.6883,-1.9443,-1.3694,2.917
1.711000,-1.7854,-2.0391,-1.4470,3.072
1.713000,-1.8746,-2.1273,-1.5261,3.220
1.721000,-1.9221,-2.2106,-1.5973,3.336
1.722000,-1.9566,-2.2890,-1.6702,3.443
1.738000,-1.9639,-2.3840,-1.7645,3.557
1.739000,-2.0013,-2.4691,-1.8778,3.692
1.739000,-1.9971,-2.5492,-2.0058,3.809
1.741000,-1.9800,-2.6457,-2.1390,3.936
1.746000,-1.9667,-2.7514,-2.2155,4.043
1.751000,-1.9883,-2.8734,-2.2351,4.148
1.758000,-2.0138,-2.9901,-2.2002,4.223
1.761000,-2.0573,-3.1157,-2.1156,4.291
1.767000,-2.0806,-3.2238,-2.0074,4.330
1.771000,-2.0575,-3.3286,-1.8659,4.335
1.777000,-1.9976,-3.4186,-1.6957,4.307
1.782000,-1.9106,-3.5009,-1.5207,4.268
1.787000,-1.8110,-3.5974,-1.3502,4.248
1.791000,-1.7155,-3.7106,-1.2156,4.265
1.797000,-1.6193,-3.8094,-1.1405,4.294
1.801000,-1.5250,-3.9252,-1.1320,4.361
1.808000,-1.4540,-4.0652,-1.1441,4.466
1.811000,-1.4445,-4.2051,-1.1577,4.595
1.817000,-1.5035,-4.2922,-1.1387,4.688
1.821000,-1.6141,-4.3068,-1.0727,4.723
1.829000,-1.7569,-4.2350,-0.9549,4.683
1.832000,-1.9152,-4.0670,-0.7852,4.563
1.837000,-2.0505,-3.8220,-0.5760,4.375
1.868000,-2.1439,-3.4885,-0.3252,4.108
1.870000,-2.2051,-3.1004,-0.0383,3.805
1.870000,-2.2723,-2.6965,0.2868,3.538
1.871000,-2.3244,-2.2992,0.6347,3.331
1.871000,-2.3711,-1.9111,0.9951,3.204
1.871000,-2.4100,-1.5277,1.3507,3.157
1.878000,-2.4269,-1.1544,1.6531,3.155
1.879000,-2.4077,-0.8150,1.8925,3.169
1.889000,-2.3266,-0.5133,2.0636,3.152
1.890000,-2.2244,-0.2660,2.1376,3.096
1.900000,-2.0941,-0.1094,2.1022,2.969
1.901000,-1.9576,-0.0342,1.9504,2.764
1.902000,-1.8698,-0.0524,1.6777,2.513
1.907000,-1.8522,-0.1541,1.2751,2.254
1.918000,-1.8833,-0.3225,0.7672,2.059
1.919000,-1.9627,-0.5331,0.2126,2.045
1.922000,-2.0448,-0.8020,-0.3495,2.224
1.934000,-2.1271,-1.0977,-0.8751,2.549
1.935000,-2.1949,-1.4028,-1.3465,2.932
1.938000,-2.2554,-1.7098,-1.7627,3.334
1.951000,-2.2987,-2.0301,-2.1136,3.725
1.952000,-2.3367,-2.3631,-2.3797,4.087
1.953000,-2.3810,-2.6942,-2.5606,4.414
1.958000,-2.4123,-3.0202,-2.6730,4.700
1.962000,-2.4234,-3.2838,-2.7046,4.896
1.967000,-2.4044,-3.4680,-2.6462,4.981
1.972000,-2.3434,-3.5773,-2.4905,4.949
2.020000,-2.2476,-3.5836,-2.2213,4.778
2.021000,-2.1170,-3.4845,-1.8270,4.468
2.022000,-1.9711,-3.3339,-1.3785,4.111
2.024000,-1.8388,-3.1654,-0.9387,3.779
2.025000,-1.7440,-3.0057,-0.5347,3.516
2.026000,-1.6364,-2.8330,-0.1573,3.275
2.027000,-1.5352,-2.6359,0.1809,3.056
2.027000,-1.4525,-2.4026,0.5010,2.852
2.028000,-1.3982,-2.1625,0.7926,2.694
2.029000,-1.3556,-1.9419,1.0574,2.594
2.030000,-1.3652,-1.7358,1.2883,2.557
2.032000,-1.3935,-1.5659,1.4993,2.577
2.037000,-1.4450,-1.3934,1.6764,2.615
2.045000,-1.4746,-1.2306,1.8147,2.642
2.048000,-1.4654,-1.0440,1.9118,2.625
2.052000,-1.4510,-0.8671,1.9631,2.591
2.078000,-1.4531,-0.6929,1.9351,2.517
2.078000,-1.4621,-0.5408,1.8090,2.388
2.079000,-1.5161,-0.4104,1.5951,2.239
2.080000,-1.5987,-0.3236,1.3374,2.109
2.080000,-1.6615,-0.2560,1.0801,1.998
2.083000,-1.6927,-0.1931,0.8404,1.900
2.087000,-1.6945,-0.1252,0.6307,1.812
2.092000,-1.6479,-0.0403,0.4657,1.713
2.097000,-1.5771,0.0393,0.3214,1.610
2.102000,-1.5206,0.1043,0.1981,1.537
2.108000,-1.4757,0.1594,0.0864,1.487
2.113000,-1.4498,0.2166,-0.0278,1.466
2.117000,-1.4305,0.2739,-0.1277,1.462
2.122000,-1.3990,0.3020,-0.2228,1.449
2.127000,-1.3456,0.3206,-0.3083,1.417
2.133000,-1.2918,0.3296,-0.3603,1.381
2.138000,-1.2468,0.3197,-0.3768,1.341
2.146000,-1.1891,0.2959,-0.3506,1.275
2.149000,-1.1136,0.2753,-0.2701,1.178
2.152000,-1.0014,0.2503,-0.1359,1.041
2.157000,-0.8978,0.2356,0.0374,0.929
2.180000,-0.7858,0.2384,0.2443,0.857
2.180000,-0.6488,0.2587,0.4487,0.830
2.181000,-0.4482,0.3208,0.6477,0.851
2.181000,-0.1776,0.4213,0.8338,0.951
2.183000,0.1197,0.5745,0.9897,1.151
2.187000,0.4172,0.7344,1.0886,1.378
2.193000,0.6763,0.9056,1.1330,1.600
2.198000,0.8900,1.1002,1.1422,1.819
2.203000,1.0457,1.2792,1.1210,1.997
2.207000,1.1436,1.4284,1.0696,2.120
2.213000,1.2126,1.5624,1.0071,2.219
2.217000,1.2648,1.6764,0.9437,2.302
2.222000,1.3098,1.7897,0.8675,2.381
2.227000,1.3671,1.8931,0.8004,2.468
2.232000,1.4337,1.9979,0.7450,2.569
2.237000,1.5220,2.1022,0.7064,2.690
2.243000,1.6628,2.2178,0.6919,2.857
2.248000,1.8347,2.3638,0.6749,3.067
2.252000,2.0183,2.5402,0.6390,3.307
2.260000,2.2034,2.7222,0.5721,3.549
2.264000,2.3948,2.8981,0.5320,3.797
2.268000,2.5587,3.0459,0.5041,4.010
2.273000,2.7093,3.1659,0.4739,4.194
2.280000,2.8470,3.2437,0.4560,4.340
2.283000,2.9783,3.2959,0.4311,4.463
2.288000,3.1084,3.3251,0.4232,4.571
2.326000,3.2517,3.3268,0.4204,4.671
2.328000,3.4394,3.3249,0.4006,4.801
2.328000,3.6665,3.3314,0.3662,4.967
2.329000,3.8947,3.3535,0.3147,5.149
2.329000,3.9247,3.3643,0.2435,5.175
2.330000,4.2473,3.3592,0.1500,5.417
2.330000,4.3696,3.3120,0.0465,5.483
2.331000,4.4615,3.2397,-0.0595,5.514
2.333000,4.5309,3.1616,-0.1463,5.527
2.338000,4.5750,3.0682,-0.2090,5.513
2.343000,4.6111,2.9740,-0.2691,5.494
2.348000,4.6656,2.8697,-0.3408,5.488
2.353000,4.7531,2.7888,-0.4022,5.525
2.358000,4.8640,2.7100,-0.4482,5.586
2.367000,5.0123,2.6543,-0.4499,5.690
2.367000,5.1859,2.6195,-0.4310,5.826
2.373000,5.4014,2.6027,-0.4227,6.011
2.386000,5.6297,2.5681,-0.4299,6.203
2.387000,5.8898,2.5202,-0.4448,6.422
2.388000,6.1769,2.4423,-0.4002,6.654
2.400000,6.4688,2.3555,-0.2776,6.890
2.401000,6.7296,2.2813,-0.1107,7.107
2.403000,6.9831,2.1959,0.0662,7.320
2.410000,7.2267,2.0943,0.2695,7.529
2.413000,7.4317,1.9716,0.4557,7.702
2.418000,7.5740,1.8519,0.6100,7.821
2.423000,7.6513,1.7039,0.7250,7.872
2.428000,7.6685,1.5255,0.8199,7.862
2.433000,7.5948,1.3503,0.9041,7.767
2.438000,7.4259,1.2288,1.0490,7.600
2.443000,7.1310,1.1994,1.2512,7.339
2.448000,6.7178,1.2554,1.4932,6.995
2.453000,6.2636,1.3994,1.7024,6.640
2.458000,5.8284,1.6842,1.8712,6.349
2.464000,5.4601,2.0691,1.9880,6.168
2.468000,5.1943,2.5299,2.0361,6.126
2.473000,5.0520,2.9991,1.9826,6.201
2.478000,5.0061,3.4234,1.8254,6.333
2.484000,5.0198,3.7880,1.5749,6.483
2.488000,5.0277,4.0753,1.2751,6.596
2.493000,5.0436,4.2848,0.9743,6.689
2.498000,5.0194,4.3924,0.7051,6.707
2.503000,4.9502,4.3596,0.4819,6.614
2.524000,4.8433,4.1840,0.3125,6.408
2.525000,4.6990,3.8898,0.2281,6.104
2.526000,4.5200,3.4989,0.2047,5.720
2.526000,4.3066,3.0426,0.2252,5.278
2.529000,4.0746,2.5076,0.2587,4.791
2.533000,3.8864,1.9253,0.3075,4.348
2.538000,3.7282,1.3226,0.3670,3.973
2.544000,3.5885,0.7405,0.4325,3.690
2.548000,3.4365,0.2031,0.4992,3.479
2.553000,3.2661,-0.2408,0.5528,3.321
2.561000,3.0920,-0.5959,0.5768,3.201
2.564000,2.9407,-0.8596,0.5714,3.117
2.569000,2.8795,-1.0053,0.5395,3.097
2.575000,2.9125,-1.0791,0.4931,3.145
2.580000,3.0138,-1.0878,0.4728,3.239
2.584000,3.1060,-1.0538,0.5024,3.318
2.588000,3.1842,-0.9486,0.5717,3.371
2.599000,3.2457,-0.7749,0.6684,3.403
2.605000,3.2902,-0.5570,0.7825,3.427
2.606000,3.3172,-0.3100,0.9208,3.457
2.636000,3.3461,-0.0718,1.0564,3.510
2.638000,3.3692,0.1354,1.1982,3.578
2.638000,3.3934,0.3232,1.3242,3.657
2.639000,3.3968,0.4698,1.4460,3.722
2.639000,3.3907,0.5718,1.5486,3.771
2.639000,3.3687,0.6157,1.6389,3.796
2.645000,3.3350,0.5960,1.7234,3.801
2.646000,3.2753,0.5006,1.7923,3.767
2.649000,3.1802,0.3345,1.8310,3.685
2.655000,3.0233,0.1235,1.8346,3.539
2.660000,2.7865,-0.1240,1.7817,3.310
2.665000,2.4510,-0.3960,1.6726,2.994
2.670000,2.0628,-0.6800,1.5030,2.641
2.676000,1.6489,-0.9803,1.3263,2.332
2.680000,1.2285,-1.2658,1.1478,2.105
2.687000,0.8293,-1.5059,0.9876,1.983
2.690000,0.4822,-1.6914,0.8415,1.950
2.697000,0.1826,-1.8316,0.7269,1.979
2.700000,-0.0505,-1.9431,0.6610,2.053
2.706000,-0.2242,-2.0212,0.6273,2.128
2.741000,-0.3463,-2.0619,0.6308,2.184
2.745000,-0.4545,-2.0977,0.6504,2.243
2.745000,-0.5158,-2.1341,0.6960,2.303
2.746000,-0.5542,-2.1641,0.7317,2.351
2.746000,-0.5389,-2.2000,0.7647,2.391
2.747000,-0.5230,-2.2380,0.8000,2.434
2.747000,-0.5131,-2.2795,0.8330,2.481
2.747000,-0.5312,-2.3397,0.8609,2.549
2.750000,-0.5987,-2.4473,0.8862,2.671
2.754000,-0.7059,-2.5856,0.9011,2.828
2.759000,-0.8886,-2.7614,0.8816,3.032
2.766000,-1.1346,-2.9726,0.8347,3.289
2.770000,-1.3858,-3.1788,0.7628,3.551
2.775000,-1.6328,-3.3853,0.6583,3.816
2.780000,-1.8922,-3.5868,0.5453,4.092
2.785000,-2.1279,-3.7733,0.4451,4.355
2.789000,-2.3617,-3.9715,0.3481,4.634
2.795000,-2.5716,-4.1581,0.2592,4.896
2.802000,-2.7648,-4.3548,0.2020,5.162
2.805000,-2.9654,-4.5493,0.1620,5.433
2.839000,-3.1542,-4.7054,0.1124,5.666
2.841000,-3.3433,-4.8212,0.0557,5.867
2.842000,-3.5038,-4.9095,0.0130,6.032
2.842000,-3.6384,-4.9638,-0.0275,6.155
2.843000,-3.7664,-4.9793,-0.0566,6.244
2.844000,-3.8829,-4.9870,-0.0884,6.321
2.844000,-3.9763,-4.9513,-0.1447,6.352
2.846000,-4.0516,-4.9348,-0.2228,6.389
2.850000,-4.0990,-4.9057,-0.3298,6.401
2.854000,-4.1403,-4.8692,-0.4490,6.407
2.859000,-4.1757,-4.8496,-0.6066,6.428
2.865000,-4.1909,-4.8493,-0.7641,6.455
2.869000,-4.2051,-4.8665,-0.9163,6.497
2.874000,-4.2280,-4.9004,-1.0488,6.557
2.880000,-4.2523,-4.9682,-1.1663,6.643
2.884000,-4.2758,-5.0912,-1.2568,6.766
2.889000,-4.3319,-5.2453,-1.3204,6.930
2.894000,-4.4111,-5.4428,-1.3429,7.133
2.900000,-4.5110,-5.6415,-1.3292,7.345
2.905000,-4.6124,-5.8465,-1.2821,7.556
2.913000,-4.7321,-6.0523,-1.2160,7.778
2.914000,-4.8342,-6.2801,-1.1333,8.006
2.919000,-4.9571,-6.4935,-1.0317,8.234
2.924000,-5.0935,-6.7257,-0.9834,8.494
2.957000,-5.1669,-6.9159,-0.9744,8.688
2.959000,-5.2111,-7.0404,-0.9831,8.814
2.960000,-5.2595,-7.0777,-0.9807,8.872
2.960000,-5.2762,-7.0422,-0.9888,8.855
2.961000,-5.2423,-6.9510,-0.9740,8.761
2.962000,-5.1627,-6.8209,-0.9483,8.607
2.962000,-5.0732,-6.6862,-0.9308,8.444
2.965000,-4.9907,-6.5566,-0.9238,8.292
2.970000,-4.8985,-6.4634,-0.9368,8.164
2.975000,-4.7534,-6.4019,-0.9838,8.034
2.980000,-4.5580,-6.4131,-1.0524,7.938
2.985000,-4.3171,-6.4875,-1.1854,7.882
2.990000,-4.0355,-6.6349,-1.3706,7.886
2.997000,-3.8544,-6.8243,-1.6366,8.007
3.004000,-3.8022,-7.0532,-1.9718,8.252
3.004000,-3.8645,-7.2777,-2.3377,8.565
3.009000,-4.0696,-7.4355,-2.6597,8.884
3.015000,-4.3814,-7.5016,-2.9209,9.165
3.020000,-4.7159,-7.4798,-3.1021,9.371
3.030000,-4.9676,-7.3627,-3.2004,9.441
3.033000,-5.1101,-7.1474,-3.1769,9.343
3.034000,-5.0934,-6.8469,-2.9542,9.031
3.041000,-4.9007,-6.4831,-2.4966,8.502
3.068000,-4.5897,-6.0929,-1.8212,7.843
3.070000,-4.2275,-5.7154,-1.0391,7.185
3.070000,-3.8164,-5.3509,-0.2738,6.578
3.070000,-3.3687,-5.0203,0.4044,6.059
3.071000,-2.9131,-4.7407,0.9563,5.646
3.071000,-2.4283,-4.4866,1.3500,5.277
3.075000,-1.9215,-4.2801,1.5878,4.953
3.080000,-1.4193,-4.1030,1.7223,4.671
3.086000,-0.9432,-3.9626,1.7676,4.440
3.089000,-0.5296,-3.8560,1.7068,4.250
3.094000,-0.2118,-3.8091,1.5301,4.110
3.101000,-0.0425,-3.8819,1.2208,4.070
3.104000,-0.0619,-4.0402,0.7722,4.114
3.109000,-0.1788,-4.2493,0.2526,4.261
3.115000,-0.3333,-4.4711,-0.2483,4.490
3.120000,-0.5250,-4.6925,-0.6627,4.768
3.127000,-0.7512,-4.9127,-0.9925,5.068
3.130000,-1.0019,-5.1140,-1.2542,5.360
3.135000,-1.2601,-5.2646,-1.4733,5.610
3.140000,-1.4919,-5.3371,-1.6540,5.783
3.173000,-1.7068,-5.3105,-1.8075,5.864
3.175000,-1.8805,-5.1673,-1.9286,5.827
3.175000,-1.9939,-4.8935,-2.0292,5.660
3.176000,-2.0491,-4.5299,-2.1015,5.398
3.178000,-1.9984,-4.0836,-2.1575,5.032
3.178000,-1.8183,-3.5518,-2.1375,4.527
3.181000,-1.6073,-2.9949,-2.0396,3.964
3.181000,-1.3750,-2.4542,-1.8809,3.384
3.186000,-1.0644,-1.9232,-1.6550,2.751
3.190000,-0.6971,-1.3996,-1.3795,2.085
3.195000,-0.3317,-0.8930,-1.0940,1.451
3.200000,0.0080,-0.4082,-0.8375,0.932
3.205000,0.2998,0.0353,-0.6609,0.727
3.210000,0.5749,0.4251,-0.5528,0.904
3.215000,0.8040,0.7706,-0.4944,1.218
3.220000,1.0232,1.0552,-0.4477,1.536
3.225000,1.1573,1.2515,-0.3916,1.749
3.229000,1.2235,1.3793,-0.3119,1.870
3.235000,1.2003,1.4509,-0.2514,1.900
3.240000,1.1214,1.4764,-0.2290,1.868
3.245000,0.9852,1.4448,-0.2366,1.765
3.250000,0.8223,1.3702,-0.2836,1.623
3.254000,0.6862,1.2776,-0.3667,1.496
3.276000,0.5721,1.1696,-0.4399,1.374
3.277000,0.4851,1.0969,-0.4882,1.295
3.278000,0.4514,1.0499,-0.4968,1.246
3.278000,0.4548,0.9982,-0.4417,1.182
3.280000,0.4827,0.9479,-0.3322,1.114
3.286000,0.5520,0.9235,-0.1919,1.093
3.290000,0.6532,0.9058,-0.0233,1.117
3.295000,0.7694,0.9402,0.1329,1.222
3.304000,0.9440,1.0078,0.2552,1.404
3.305000,1.1568,1.0930,0.3672,1.633
3.310000,1.3816,1.1723,0.4736,1.873
3.315000,1.6256,1.2287,0.5695,2.116
3.320000,1.8861,1.2909,0.6665,2.381
3.326000,2.1658,1.3734,0.8001,2.686
3.330000,2.4276,1.4825,0.9237,2.991
3.335000,2.6720,1.5994,0.9654,3.260
3.342000,2.9131,1.7072,0.9606,3.511
3.345000,3.1340,1.8225,0.9166,3.740
3.350000,3.3229,1.9361,0.8576,3.940
3.355000,3.4720,2.0472,0.8142,4.112
3.361000,3.5791,2.1396,0.7628,4.239
3.365000,3.6397,2.2086,0.7296,4.319
3.370000,3.6778,2.2734,0.7217,4.384
3.379000,3.6887,2.3247,0.7105,4.418
3.383000,3.6967,2.3630,0.7272,4.447
3.385000,3.6988,2.3876,0.7833,4.472
3.390000,3.7172,2.4088,0.8552,4.511
3.416000,3.7423,2.4099,0.8946,4.540
3.417000,3.7861,2.4078,0.8970,4.576
3.418000,3.8610,2.4315,0.8485,4.641
3.418000,3.9711,2.4733,0.7566,4.739
3.419000,4.1739,2.5380,0.6407,4.927
3.424000,4.4617,2.6541,0.5206,5.217
3.425000,4.7837,2.7732,0.4154,5.545
3.431000,5.0896,2.9024,0.3036,5.867
3.435000,5.3425,2.9980,0.1973,6.129
3.440000,5.5283,3.0410,0.1205,6.311
3.446000,5.6471,3.0579,0.0853,6.422
3.452000,5.7183,3.0250,0.0797,6.470
3.455000,5.7996,2.9642,0.1083,6.514
3.465000,5.8913,2.8732,0.1373,6.556
3.468000,5.9812,2.7690,0.2022,6.594
3.473000,6.0672,2.6899,0.2623,6.642
3.504000,6.1540,2.6311,0.3102,6.700
3.505000,6.2537,2.5927,0.3939,6.781
3.506000,6.3473,2.5677,0.4942,6.865
3.507000,6.4632,2.5607,0.6035,6.978
3.511000,6.6182,2.5836,0.7197,7.141
3.512000,6.7930,2.6460,0.8423,7.339
3.513000,6.9443,2.7429,0.9522,7.527
3.513000,7.0862,2.8931,1.0373,7.724
3.515000,7.2254,3.0630,1.0807,7.922
3.521000,7.3666,3.2115,1.1163,8.113
3.527000,7.4997,3.3075,1.1319,8.274
3.531000,7.6485,3.3723,1.1207,8.434
3.536000,7.7719,3.3841,1.0897,8.546
3.541000,7.9006,3.3524,1.0343,8.645
3.546000,8.0106,3.2412,0.9591,8.695
3.551000,8.1041,3.0624,0.9051,8.711
3.556000,8.0999,2.8112,0.8817,8.619
3.561000,7.9863,2.5094,0.9291,8.423
3.566000,7.6944,2.2005,1.0296,8.069
3.571000,7.2447,1.9235,1.1489,7.583
3.581000,6.6977,1.7339,1.2817,7.036
3.583000,6.1907,1.6896,1.4348,6.576
3.586000,5.7527,1.7645,1.5887,6.223
3.591000,5.3765,1.9105,1.6835,5.949
3.627000,5.0815,2.0848,1.7005,5.750
3.628000,4.8601,2.2536,1.6087,5.594
3.629000,4.6977,2.4141,1.4284,5.471
3.629000,4.5677,2.5349,1.2130,5.363
3.630000,4.4792,2.6278,0.9728,5.283
3.630000,4.4128,2.6779,0.7181,5.211
3.631000,4.3805,2.6325,0.4788,5.133
3.631000,4.3700,2.4988,0.2770,5.042
3.636000,4.3932,2.2740,0.1279,4.948
3.641000,4.4212,1.9726,0.0343,4.841
3.646000,4.4276,1.6016,-0.0133,4.708
3.651000,4.3988,1.2118,-0.0336,4.563
3.656000,4.3039,0.8128,-0.0576,4.380
3.661000,4.1479,0.4334,-0.0563,4.171
3.666000,3.9505,0.0956,-0.0416,3.952
3.671000,3.7239,-0.2199,0.0177,3.730
3.681000,3.4619,-0.4667,0.1118,3.495
3.682000,3.2364,-0.7068,0.2262,3.320
3.686000,3.0238,-0.9257,0.3627,3.183
3.716000,2.8530,-1.0921,0.5280,3.100
3.717000,2.7121,-1.1602,0.7407,3.041
3.718000,2.6271,-1.1282,0.9763,3.021
3.718000,2.5696,-1.0051,1.2338,3.022
3.719000,2.4817,-0.8538,1.4910,3.018
3.719000,2.3992,-0.6718,1.7209,3.028
3.722000,2.3603,-0.4831,1.9206,3.081
3.726000,2.3571,-0.2884,2.0920,3.165
3.731000,2.3851,-0.0634,2.2439,3.275
3.736000,2.4411,0.1624,2.3595,3.399
3.743000,2.5272,0.3720,2.4334,3.528
3.747000,2.6261,0.5670,2.4440,3.632
3.752000,2.6990,0.7370,2.3960,3.684
3.756000,2.7414,0.8634,2.2947,3.678
3.761000,2.7602,0.9285,2.1402,3.614
3.766000,2.7408,0.9368,1.9808,3.509
3.771000,2.6667,0.8691,1.8189,3.343
3.779000,2.5429,0.7351,1.6621,3.126
3.782000,2.3716,0.5508,1.5150,2.868
3.786000,2.1349,0.3296,1.3903,2.569
3.790000,1.8186,0.0739,1.2689,2.219
3.811000,1.4616,-0.2041,1.1706,1.884
3.812000,1.1098,-0.4941,1.0743,1.622
3.813000,0.7537,-0.8108,1.0139,1.501
3.813000,0.3946,-1.1163,1.0185,1.562
3.816000,0.0537,-1.3895,1.0335,1.733
3.822000,-0.2375,-1.6156,1.0616,1.948
3.827000,-0.4576,-1.7947,1.0888,2.148
3.831000,-0.6595,-1.9800,1.1129,2.365
3.837000,-0.7181,-2.1701,1.1008,2.537
3.841000,-0.9472,-2.3870,1.0671,2.781
3.846000,-1.0406,-2.5902,1.0430,2.980
3.851000,-1.1466,-2.7939,1.0144,3.186
3.856000,-1.2675,-3.0099,0.9934,3.414
3.863000,-1.3845,-3.1981,0.9919,3.623
3.867000,-1.4896,-3.3953,0.9810,3.835
3.871000,-1.5929,-3.6067,0.9772,4.062
3.876000,-1.7300,-3.8082,0.9900,4.298
3.882000,-1.8746,-3.9924,1.0140,4.526
3.887000,-2.0365,-4.1477,1.0250,4.733
3.892000,-2.1912,-4.2750,1.0347,4.914
3.905000,-2.3796,-4.3651,1.0257,5.076
3.908000,-2.5634,-4.4346,0.9978,5.219
3.910000,-2.7308,-4.4834,0.9581,5.336
3.912000,-2.8914,-4.5240,0.9326,5.449
3.916000,-3.0236,-4.5595,0.8922,5.543
3.921000,-3.1251,-4.6003,0.8462,5.625
3.950000,-3.2081,-4.6580,0.7847,5.710
3.952000,-3.2607,-4.7232,0.7096,5.783
3.953000,-3.3166,-4.7815,0.6330,5.853
3.953000,-3.3735,-4.8333,0.5450,5.919
3.954000,-3.4361,-4.8751,0.4574,5.982
3.955000,-3.4853,-4.8957,0.3513,6.020
3.959000,-3.5429,-4.9189,0.2412,6.067
3.962000,-3.5969,-4.9568,0.1371,6.126
3.967000,-3.6282,-5.0146,0.0512,6.190
3.971000,-3.6536,-5.0986,-0.0449,6.273
3.977000,-3.6755,-5.2211,-0.1222,6.386
3.988000,-3.7132,-5.3726,-0.1831,6.533
3.989000,-3.7737,-5.5455,-0.2439,6.712
3.994000,-3.8333,-5.7064,-0.2858,6.880
3.999000,-3.9230,-5.8816,-0.3157,7.077
4.002000,-4.0547,-6.0604,-0.3194,7.299
4.007000,-4.2116,-6.2095,-0.3206,7.510
4.013000,-4.3459,-6.3428,-0.3096,7.695
4.017000,-4.4745,-6.4433,-0.2793,7.850
4.022000,-4.5782,-6.5302,-0.2580,7.979
4.031000,-4.6475,-6.6003,-0.2523,8.076
4.034000,-4.6729,-6.6445,-0.2407,8.127
4.037000,-4.6713,-6.6698,-0.2329,8.146
4.070000,-4.6668,-6.6740,-0.2363,8.147
4.071000,-4.6497,-6.6669,-0.2488,8.132
4.072000,-4.6322,-6.6554,-0.2706,8.113
4.072000,-4.5976,-6.6134,-0.2827,8.060
4.073000,-4.5483,-6.5605,-0.2905,7.988
4.074000,-4.5036,-6.4966,-0.2724,7.910
4.075000,-4.4515,-6.4269,-0.2456,7.822
4.077000,-4.3848,-6.3847,-0.2053,7.748
4.082000,-4.2822,-6.4203,-0.1901,7.720
4.087000,-4.1364,-6.5482,-0.2266,7.749
4.092000,-4.0098,-6.7109,-0.3290,7.825
4.098000,-3.9357,-6.9489,-0.5046,8.002
4.103000,-3.9117,-7.1973,-0.7105,8.222
4.107000,-3.9759,-7.4368,-0.9537,8.487
4.116000,-4.1402,-7.6093,-1.2101,8.747
4.119000,-4.3994,-7.7213,-1.4749,9.008
4.124000,-4.7127,-7.7626,-1.7405,9.246
4.158000,-5.0464,-7.7300,-1.9636,9.438
4.160000,-5.3691,-7.5586,-2.1124,9.509
4.163000,-5.5899,-7.2816,-2.1457,9.427
4.164000,-5.6490,-6.8994,-2.0345,9.146
4.165000,-5.4508,-6.4436,-1.7521,8.620
4.166000,-5.0578,-5.9658,-1.3012,7.929
4.166000,-4.5922,-5.5267,-0.7350,7.223
4.167000,-4.1309,-5.1355,-0.1664,6.593
4.168000,-3.6189,-4.7806,0.3057,6.004
4.172000,-3.0779,-4.4845,0.6666,5.480
4.180000,-2.5726,-4.2315,0.9452,5.042
4.183000,-2.5551,-4.0483,1.1582,4.925
4.187000,-1.7169,-3.9482,1.3269,4.505
4.194000,-1.3648,-3.9526,1.4393,4.422
4.196000,-1.0726,-4.0424,1.5000,4.443
4.202000,-0.8905,-4.2366,1.4611,4.569
4.207000,-0.8445,-4.5461,1.2869,4.800
4.212000,-0.9200,-4.9255,0.9998,5.109
4.217000,-1.0712,-5.3064,0.6626,5.454
4.222000,-1.2665,-5.6376,0.2997,5.786
4.228000,-1.4723,-5.8994,-0.0309,6.080
4.238000,-1.6714,-6.0743,-0.2898,6.307
4.239000,-1.8611,-6.1733,-0.4983,6.467
4.255000,-2.0176,-6.1471,-0.6745,6.505
4.256000,-2.1883,-6.0352,-0.8710,6.479
4.257000,-2.3252,-5.8378,-1.0927,6.378
4.258000,-2.3636,-5.5360,-1.3203,6.163
4.263000,-2.3369,-5.0865,-1.5202,5.800
4.267000,-2.2097,-4.5632,-1.6018,5.317
4.272000,-2.0467,-3.9853,-1.5251,4.733
4.277000,-1.8577,-3.4086,-1.3484,4.109
4.283000,-1.6117,-2.8363,-1.1471,3.458
4.288000,-1.3017,-2.2636,-0.9815,2.790
4.293000,-0.9501,-1.7071,-0.8476,2.130
4.298000,-0.5860,-1.1550,-0.7557,1.500
4.302000,-0.2574,-0.6584,-0.7279,1.015
4.308000,0.0399,-0.2273,-0.7503,0.785
4.313000,0.2913,0.1403,-0.8087,0.871
4.318000,0.4682,0.4232,-0.8743,1.078
4.323000,0.5676,0.6082,-0.9614,1.271
4.327000,0.5993,0.7179,-1.0457,1.403
4.340000,0.5731,0.7788,-1.1413,1.496
4.340000,0.4748,0.7772,-1.2285,1.529
4.360000,0.3168,0.7234,-1.2950,1.517
4.363000,0.1134,0.6339,-1.3209,1.470
4.364000,-0.0750,0.5290,-1.3057,1.411
4.364000,-0.2386,0.4045,-1.2584,1.343
4.365000,-0.3437,0.3014,-1.1667,1.253
4.368000,-0.3899,0.2012,-1.0279,1.118
4.373000,-0.3946,0.1413,-0.8707,0.966
4.377000,-0.3669,0.0957,-0.7189,0.813
4.383000,-0.2807,0.0480,-0.5868,0.652
4.390000,-0.1312,0.0098,-0.4552,0.474
4.393000,0.0551,-0.0261,-0.2905,0.297
4.397000,0.2474,-0.0450,-0.1290,0.283
4.402000,0.4449,-0.0193,0.0174,0.446
4.407000,0.6527,0.0299,0.1172,0.664
4.412000,0.8802,0.0974,0.1823,0.904
4.418000,1.1152,0.1975,0.2295,1.156
4.422000,1.3413,0.3017,0.2704,1.401
4.427000,1.5552,0.4162,0.2878,1.635
4.434000,1.7739,0.5437,0.2839,1.877
4.437000,1.9710,0.6722,0.3015,2.104
4.446000,2.1319,0.8039,0.3331,2.303
4.447000,2.2478,0.9107,0.3857,2.456
4.452000,2.3321,1.0133,0.4398,2.581
4.474000,2.4142,1.1125,0.5001,2.705
4.475000,2.4988,1.2153,0.5616,2.835
4.476000,2.5668,1.3243,0.6196,2.954
4.476000,2.6733,1.4562,0.6547,3.114
4.479000,2.8161,1.5827,0.6550,3.296
4.482000,2.9489,1.6956,0.6085,3.456
4.488000,3.0887,1.8241,0.5348,3.627
4.498000,3.3000,1.9992,0.3361,3.873
4.499000,3.3603,2.0557,0.3406,3.954
4.503000,3.5138,2.1781,0.2303,4.141
4.508000,3.7020,2.2938,0.0842,4.356
4.513000,3.9420,2.4127,-0.0493,4.622
4.517000,4.2022,2.5607,-0.1798,4.924
4.523000,4.4631,2.7064,-0.3023,5.228
4.528000,4.6910,2.8235,-0.3926,5.489
4.533000,4.8811,2.9384,-0.4648,5.716
4.538000,5.0042,3.0004,-0.4952,5.856
4.549000,5.1085,2.9860,-0.4767,5.936
4.550000,5.1846,2.9290,-0.4048,5.969
4.553000,5.2542,2.8583,-0.2823,5.988
4.591000,5.3202,2.7887,-0.1286,6.008
4.593000,5.3724,2.7222,0.0178,6.023
4.593000,5.4377,2.6640,0.1372,6.057
4.594000,5.5327,2.6071,0.2011,6.120
4.595000,5.6862,2.5227,0.2215,6.225
4.595000,5.8552,2.4110,0.1914,6.335
4.596000,6.0080,2.2789,0.1445,6.427
4.596000,6.1473,2.1671,0.0692,6.518
4.599000,6.3210,2.0710,-0.0199,6.652
4.603000,6.4860,2.0097,-0.0771,6.791
4.610000,6.5897,2.0047,-0.1046,6.889
4.613000,6.6638,2.0252,-0.0760,6.965
4.619000,6.7461,2.0445,-0.0397,7.049
4.623000,6.9065,2.0678,-0.0193,7.209
4.628000,7.1877,2.0472,-0.0411,7.474
4.633000,7.5535,1.9730,-0.0810,7.807
4.638000,7.9846,1.8308,-0.1315,8.193
4.643000,8.4252,1.6537,-0.1784,8.588
4.648000,8.8535,1.4848,-0.1621,8.979
4.653000,9.1880,1.3454,-0.0756,9.286
4.664000,9.4071,1.2666,0.1042,9.493
4.667000,9.4897,1.2818,0.3578,9.583
4.669000,9.4862,1.4510,0.6531,9.619
4.673000,9.4087,1.7549,0.9416,9.617
4.708000,9.3098,2.2053,1.2132,9.644
4.710000,9.2035,2.7683,1.4315,9.717
4.710000,9.0962,3.3908,1.5940,9.838
4.711000,9.0138,4.0413,1.6794,10.020
4.711000,8.9766,4.6879,1.6828,10.266
4.712000,8.9717,5.2319,1.6408,10.515
4.712000,8.9288,5.6201,1.5416,10.662
4.714000,8.8376,5.8282,1.4168,10.681
4.718000,8.6931,5.8537,1.3075,10.562
4.723000,8.4765,5.6965,1.2426,10.288
4.728000,8.1975,5.4000,1.2435,9.895
4.735000,7.8495,4.9716,1.3196,9.385
4.738000,7.4190,4.4118,1.4298,8.749
4.746000,6.9714,3.7713,1.5185,8.070
4.750000,6.5227,3.0703,1.5213,7.368
4.753000,6.0353,2.3426,1.4529,6.635
4.760000,5.4912,1.6057,1.3256,5.873
4.765000,4.9371,0.8913,1.1762,5.153
4.768000,4.4095,0.2406,1.0579,4.541
4.774000,3.9054,-0.3309,0.9853,4.041
4.783000,3.4442,-0.7845,0.9321,3.653
4.785000,3.0432,-1.1079,0.8675,3.353
4.789000,2.7148,-1.3176,0.7370,3.106
4.823000,2.4829,-1.4158,0.5172,2.905
4.825000,2.3470,-1.4220,0.2280,2.754
4.826000,2.2764,-1.3121,-0.0604,2.628
4.827000,2.3014,-1.0964,-0.2950,2.566
4.827000,2.4235,-0.7970,-0.4589,2.592
4.828000,2.6276,-0.4460,-0.4784,2.708
4.828000,2.8071,-0.0995,-0.3660,2.833
4.829000,2.9264,0.2187,-0.1778,2.940
4.833000,2.9824,0.4793,0.0445,3.021
4.838000,3.0107,0.6962,0.2549,3.101
4.844000,2.9778,0.8526,0.4242,3.126
4.848000,2.9076,0.9556,0.5905,3.117
4.853000,2.7830,1.0140,0.7678,3.060
4.859000,2.6406,1.0073,0.9244,2.974
4.865000,2.4611,0.9326,1.0622,2.838
4.868000,2.2399,0.7926,1.1762,2.651
4.876000,1.9845,0.5922,1.2591,2.424
4.880000,1.6853,0.3314,1.3155,2.163
4.885000,1.3916,0.0237,1.3504,1.939
4.889000,1.1152,-0.2736,1.3474,1.770
4.897000,0.8421,-0.5626,1.3307,1.672
4.901000,0.5823,-0.7973,1.3342,1.660
4.905000,0.3451,-1.0021,1.3249,1.697
4.932000,0.1553,-1.1854,1.3057,1.770
4.933000,0.0174,-1.3332,1.2941,1.858
4.934000,-0.0807,-1.4527,1.2903,1.945
4.934000,-0.1343,-1.5275,1.2802,1.997
4.934000,-0.1674,-1.5768,1.2617,2.026
4.935000,-0.1759,-1.5945,1.2255,2.019
4.941000,-0.1710,-1.5940,1.1837,1.993
4.945000,-0.1821,-1.6264,1.1416,1.995
4.949000,-0.2187,-1.6704,1.1206,2.023
4.954000,-0.2807,-1.7453,1.1232,2.094
4.959000,-0.3780,-1.8612,1.1538,2.222
4.965000,-0.5098,-1.9999,1.1813,2.378
4.968000,-0.6714,-2.1763,1.2149,2.581
4.976000,-0.8221,-2.3781,1.2279,2.800
4.980000,-0.9569,-2.6145,1.2346,3.046
4.985000,-1.1024,-2.8814,1.2465,3.327
4.990000,-1.3105,-3.1506,1.2699,3.641
4.997000,-1.5668,-3.4294,1.2854,3.983
5.000000,-1.8568,-3.6841,1.2834,4.321
5.005000,-2.1421,-3.9451,1.2640,4.664
5.034000,-2.4226,-4.1952,1.2390,5.000
5.035000,-2.6960,-4.4180,1.1795,5.308
5.035000,-2.9236,-4.6260,1.0951,5.581
5.036000,-3.1368,-4.8005,0.9954,5.820
5.036000,-3.3453,-4.9606,0.8660,6.046
5.036000,-3.5276,-5.1229,0.7575,6.266
5.039000,-3.6695,-5.2829,0.6412,6.464
5.045000,-3.7756,-5.4367,0.5079,6.639
5.049000,-3.8509,-5.5993,0.3506,6.805
5.054000,-3.8957,-5.7324,0.1670,6.933
5.059000,-3.9507,-5.8430,0.0005,7.053
5.064000,-3.9874,-5.9201,-0.1588,7.139
5.068000,-4.0439,-6.0076,-0.2869,7.248
5.075000,-4.1061,-6.0871,-0.3980,7.353
5.079000,-4.1693,-6.1631,-0.4944,7.457
5.084000,-4.2238,-6.2308,-0.5688,7.549
5.090000,-4.2747,-6.3073,-0.6450,7.647
5.096000,-4.3171,-6.3772,-0.6922,7.732
5.099000,-4.3871,-6.4527,-0.7344,7.837
5.105000,-4.4918,-6.5073,-0.7601,7.943
5.108000,-4.6026,-6.5600,-0.7764,8.051
5.133000,-4.6860,-6.5771,-0.7784,8.113
5.135000,-4.7398,-6.6114,-0.7900,8.173
5.136000,-4.7401,-6.6528,-0.8088,8.209
5.136000,-4.7037,-6.7040,-0.8367,8.232
5.137000,-4.6477,-6.7603,-0.8740,8.250
5.139000,-4.6006,-6.8123,-0.9137,8.271
5.146000,-4.5770,-6.8461,-0.9295,8.287
5.150000,-4.6174,-6.8372,-0.9287,8.302
5.155000,-4.7052,-6.7955,-0.8851,8.313
5.160000,-4.8068,-6.7449,-0.8179,8.323
5.165000,-4.9029,-6.6948,-0.7294,8.330
5.170000,-4.9914,-6.6452,-0.6461,8.336
5.174000,-5.0411,-6.6055,-0.5702,8.329
5.180000,-5.0854,-6.5925,-0.5067,8.341
5.185000,-5.0695,-6.6012,-0.4771,8.337
5.190000,-4.9718,-6.6364,-0.4815,8.306
5.195000,-4.7902,-6.6935,-0.5341,8.248
5.199000,-4.5724,-6.7822,-0.6305,8.204
5.205000,-4.3545,-6.8718,-0.7802,8.173
5.223000,-4.2272,-7.0102,-0.9832,8.245
5.223000,-4.1857,-7.1829,-1.2537,8.407
5.224000,-4.2346,-7.3224,-1.5223,8.595
5.224000,-4.3997,-7.3755,-1.7432,8.763
5.232000,-4.6380,-7.3418,-1.9426,8.899
5.234000,-4.8867,-7.2110,-2.0912,8.958
5.241000,-5.0908,-7.0261,-2.1862,8.948
5.245000,-5.1856,-6.7724,-2.1867,8.806
5.250000,-5.1137,-6.4481,-2.0420,8.479
5.255000,-4.8560,-6.0555,-1.7040,7.947
5.260000,-4.4943,-5.6376,-1.1682,7.304
5.265000,-4.1052,-5.2427,-0.5307,6.680
5.269000,-3.6768,-4.8884,0.0906,6.117
5.274000,-3.2094,-4.5970,0.6476,5.644
5.279000,-2.7341,-4.3376,1.1403,5.253
5.286000,-2.2894,-4.1432,1.5774,4.990
5.290000,-1.8708,-3.9780,1.9371,4.804
5.295000,-1.4711,-3.8544,2.2309,4.690
5.299000,-1.0810,-3.8112,2.4467,4.656
5.305000,-0.7051,-3.8456,2.5839,4.686
5.309000,-0.3463,-3.9373,2.6496,4.758
5.316000,-0.0380,-4.1097,2.6318,4.880
5.320000,0.1434,-4.3173,2.5447,5.013
5.324000,0.1526,-4.5692,2.3069,5.121
5.360000,0.0881,-4.8048,1.9550,5.188
5.362000,-0.0089,-5.0063,1.5353,5.236
5.363000,-0.1432,-5.1645,1.0702,5.276
5.363000,-0.3121,-5.2809,0.6633,5.332
5.363000,-0.5033,-5.3335,0.2863,5.365
5.364000,-0.7165,-5.3219,-0.0888,5.371
5.364000,-0.9464,-5.2473,-0.4641,5.352
5.365000,-1.1834,-5.0842,-0.8342,5.286
5.370000,-1.3841,-4.8271,-1.1821,5.159
5.377000,-1.5222,-4.4858,-1.4623,4.958
5.380000,-1.5975,-4.0650,-1.6581,4.672
5.385000,-1.5669,-3.5935,-1.7745,4.303
5.391000,-1.4503,-3.0756,-1.7572,3.828
5.396000,-1.2860,-2.5447,-1.6355,3.287
5.401000,-1.0625,-1.9897,-1.4792,2.697
5.406000,-0.7634,-1.4568,-1.2741,2.080
5.412000,-0.4275,-0.9517,-1.0281,1.465
5.416000,-0.1315,-0.4841,-0.7660,0.916
5.420000,0.1187,-0.0629,-0.5461,0.562
5.455000,0.2897,0.2786,-0.3807,0.554
5.456000,0.3910,0.5572,-0.2796,0.736
5.457000,0.4630,0.7680,-0.2139,0.922
5.457000,0.5038,0.9308,-0.1501,1.069
5.458000,0.5150,1.0422,-0.0787,1.165
5.458000,0.4946,1.1126,0.0025,1.218
5.458000,0.4260,1.1280,0.0649,1.208
5.460000,0.3143,1.0770,0.0892,1.125
5.465000,0.1884,1.0150,0.0564,1.034
5.470000,0.0730,0.9430,-0.0304,0.946
5.478000,-0.0204,0.8868,-0.1301,0.897
5.480000,-0.1081,0.8470,-0.2253,0.883
5.485000,-0.1539,0.8239,-0.3372,0.903
5.491000,-0.1340,0.8221,-0.4654,0.954
5.520000,-0.0242,0.7011,-0.7384,1.019
5.523000,0.0361,0.7756,-0.7468,1.077
5.524000,0.0974,0.8499,-0.7535,1.140
5.524000,0.1837,0.8879,-0.8183,1.221
5.525000,0.3069,0.9376,-0.9145,1.345
5.525000,0.4887,0.9968,-1.0034,1.496
5.526000,0.6924,1.0620,-1.0561,1.650
5.546000,0.9181,1.1288,-1.0416,1.789
5.547000,1.1655,1.1898,-0.9673,1.926
5.547000,1.4035,1.2447,-0.8411,2.056
5.548000,1.6390,1.3271,-0.6849,2.217
5.551000,1.8723,1.4181,-0.5088,2.403
5.555000,2.0954,1.5143,-0.3323,2.607
5.560000,2.3014,1.5708,-0.2037,2.794
5.565000,2.4713,1.6116,-0.1306,2.953
5.570000,2.6457,1.6703,-0.1275,3.131
5.575000,2.7940,1.7234,-0.1655,3.287
5.580000,2.9440,1.8011,-0.2206,3.458
5.588000,3.1009,1.8967,-0.2977,3.647
5.591000,3.2646,1.9861,-0.3605,3.838
5.595000,3.4231,2.0599,-0.4114,4.016
5.600000,3.6008,2.1399,-0.4692,4.215
5.605000,3.7776,2.2039,-0.5218,4.405
5.610000,3.9729,2.2523,-0.5621,4.601
5.615000,4.1819,2.2897,-0.5683,4.802
5.621000,4.4141,2.3187,-0.5669,5.018
5.631000,4.6836,2.3868,-0.5315,5.284
5.633000,5.0048,2.4584,-0.4955,5.598
5.635000,5.3574,2.5565,-0.4854,5.956
5.640000,5.7005,2.6547,-0.5035,6.309
5.675000,5.9933,2.7315,-0.5164,6.607
5.677000,6.2307,2.7819,-0.5144,6.843
5.677000,6.4297,2.8038,-0.4781,7.031
5.678000,6.5970,2.8065,-0.3673,7.179
5.678000,6.7378,2.7878,-0.2179,7.295
5.679000,6.8377,2.7791,-0.0566,7.381
5.679000,6.9281,2.7543,0.0947,7.456
5.681000,7.0544,2.7396,0.2381,7.571
5.685000,7.1856,2.7520,0.3688,7.703
5.691000,7.3141,2.7650,0.4744,7.834
5.695000,7.4208,2.7976,0.5502,7.950
5.700000,7.5152,2.8333,0.5889,8.053
5.705000,7.5353,2.8840,0.6075,8.091
5.710000,7.6652,2.9688,0.6346,8.244
5.715000,7.7228,3.0708,0.6631,8.337
5.721000,7.8278,3.2069,0.6665,8.485
5.727000,8.0108,3.3408,0.6379,8.703
5.731000,8.2784,3.4267,0.5943,8.979
5.736000,8.6060,3.4383,0.5096,9.281
5.740000,8.9186,3.3485,0.4197,9.536
5.745000,9.1299,3.1480,0.3346,9.663
5.751000,9.2061,2.8006,0.2587,9.626
5.756000,9.0955,2.3835,0.2637,9.406
5.766000,8.7415,2.0095,0.3442,8.976
5.768000,8.2032,1.7585,0.4948,8.404
5.770000,7.6013,1.6596,0.6763,7.810
5.802000,7.0230,1.7467,0.8307,7.285
5.804000,6.5332,1.9793,0.8909,6.884
5.805000,6.1821,2.2998,0.8402,6.649
5.805000,6.0003,2.6432,0.6221,6.586
5.806000,5.9775,2.9948,0.2879,6.692
5.806000,6.0554,3.2893,-0.0871,6.892
5.807000,6.1588,3.4998,-0.4589,7.099
5.813000,6.2536,3.6115,-0.8146,7.267
5.815000,6.3106,3.6263,-1.1344,7.366
5.820000,6.3326,3.5325,-1.3719,7.380
5.826000,6.3048,3.3681,-1.5008,7.304
5.830000,6.2036,3.1571,-1.5159,7.124
5.835000,6.0340,2.8995,-1.4296,6.845
5.841000,5.7914,2.5928,-1.2829,6.474
5.846000,5.5128,2.2330,-1.1189,6.052
5.850000,5.2153,1.7869,-0.9023,5.586
5.855000,4.9231,1.2786,-0.6573,5.129
5.878000,4.6536,0.7445,-0.3963,4.729
5.880000,4.3761,0.1945,-0.0985,4.381
5.881000,4.0692,-0.3547,0.2692,4.093
5.881000,3.7249,-0.8538,0.6770,3.881
5.881000,3.3364,-1.2977,1.0979,3.744
5.886000,2.9164,-1.6237,1.4956,3.658
5.891000,2.4774,-1.8529,1.8291,3.594
5.896000,2.0458,-1.9636,2.1031,3.530
5.901000,1.6515,-1.9666,2.3102,3.454
5.906000,1.3206,-1.8741,2.4577,3.361
5.911000,1.0818,-1.6645,2.5531,3.234
5.917000,0.9633,-1.3310,2.6108,3.085
5.920000,0.9620,-0.9004,2.6572,2.966
5.926000,1.0267,-0.4407,2.6492,2.875
5.931000,1.1381,0.0002,2.5722,2.813
5.936000,1.3431,0.4239,2.4005,2.783
5.943000,1.6171,0.8225,2.1823,2.838
5.946000,1.9161,1.2141,1.9565,2.996
5.951000,2.2009,1.5929,1.7616,3.238
5.957000,2.4571,1.9084,1.5953,3.496
5.966000,2.6577,2.1359,1.4433,3.703
5.968000,2.8217,2.2367,1.3128,3.833
5.970000,2.9014,2.1820,1.1779,3.817
6.009000,2.8654,1.9857,1.0289,3.635
6.011000,2.7246,1.6875,0.8637,3.319
6.011000,2.5320,1.3377,0.7111,2.951
6.012000,2.3097,0.9871,0.5953,2.581
6.012000,2.0366,0.6360,0.5163,2.195
6.013000,1.6962,0.3011,0.4551,1.782
6.013000,1.3329,0.0007,0.4287,1.400
6.014000,0.9946,-0.2843,0.4274,1.119
6.016000,0.6671,-0.5749,0.4584,0.993
6.020000,0.3342,-0.8493,0.5311,1.056
6.027000,0.0080,-1.0854,0.6455,1.263
6.031000,-0.2926,-1.2669,0.7752,1.514
6.036000,-0.5523,-1.3993,0.9393,1.774
6.041000,-0.7596,-1.4787,1.1207,2.005
6.046000,-0.8860,-1.5170,1.2692,2.167
6.052000,-0.9365,-1.5550,1.3797,2.280
6.056000,-0.9477,-1.5987,1.4667,2.368
6.067000,-0.9575,-1.6637,1.5296,2.454
6.070000,-0.9877,-1.7318,1.5804,2.544
6.073000,-1.0599,-1.8269,1.6021,2.651
6.110000,-1.1741,-1.9250,1.6189,2.776
6.111000,-1.3136,-2.0504,1.6191,2.924
6.112000,-1.4489,-2.1826,1.5909,3.065
6.113000,-1.5518,-2.2934,1.5395,3.168
6.113000,-1.6532,-2.3899,1.4932,3.267
6.113000,-1.7604,-2.5129,1.4545,3.395
6.114000,-1.8878,-2.6502,1.4329,3.555
6.114000,-2.0329,-2.8094,1.4093,3.743
6.116000,-2.1857,-2.9672,1.3958,3.941
6.121000,-2.3272,-3.1434,1.3827,4.148
6.126000,-2.4670,-3.3137,1.3725,4.353
6.131000,-2.6002,-3.4995,1.3435,4.562
6.136000,-2.7271,-3.6820,1.2936,4.761
6.142000,-2.8497,-3.8932,1.2297,4.979
6.146000,-2.9704,-4.0952,1.1592,5.190
6.151000,-3.0822,-4.2712,1.1012,5.381
6.157000,-3.1804,-4.4449,1.0364,5.563
6.161000,-3.2890,-4.5977,0.9217,5.728
6.166000,-3.3767,-4.7572,0.7644,5.884
6.172000,-3.4080,-4.9382,0.5982,6.030
6.178000,-3.4258,-5.1335,0.4498,6.188
6.181000,-3.4159,-5.3476,0.3239,6.354
6.186000,-3.4119,-5.5567,0.2300,6.525
6.216000,-3.4425,-5.7393,0.1634,6.695
6.217000,-3.4981,-5.8921,0.1140,6.853
6.218000,-3.5643,-6.0298,0.0627,7.005
6.218000,-3.6507,-6.1426,0.0118,7.146
6.219000,-3.7406,-6.2277,-0.0266,7.265
6.219000,-3.8173,-6.3069,-0.0333,7.372
6.221000,-3.8808,-6.3458,-0.0283,7.438
6.228000,-3.9360,-6.3566,-0.0113,7.477
6.231000,-3.9830,-6.3394,0.0147,7.487
6.237000,-3.9932,-6.2918,0.0207,7.452
6.242000,-3.9571,-6.2286,0.0259,7.379
6.247000,-3.9109,-6.1616,0.0300,7.298
6.252000,-3.8689,-6.0792,0.0404,7.206
6.257000,-3.8383,-5.9841,0.0640,7.110
6.262000,-3.8218,-5.8887,0.1055,7.021
6.267000,-3.8073,-5.8026,0.1525,6.942
6.271000,-3.7831,-5.7311,0.1834,6.870
6.277000,-3.7420,-5.7170,0.2171,6.836
6.285000,-3.6577,-5.7582,0.2080,6.825
6.286000,-3.5138,-5.9052,0.1635,6.873
6.327000,-3.3007,-6.1508,0.0716,6.981
6.328000,-3.0471,-6.5405,-0.0532,7.216
6.329000,-2.7915,-7.0189,-0.2250,7.557
6.329000,-2.6031,-7.5072,-0.4008,7.956
6.330000,-2.5774,-8.0121,-0.6046,8.438
6.330000,-2.7454,-8.4780,-0.8126,8.948
6.331000,-3.0968,-8.8894,-0.9841,9.465
6.331000,-3.6194,-9.2231,-1.0761,9.966
6.331000,-4.2837,-9.3845,-1.0789,10.372
6.336000,-4.9842,-9.3173,-1.0023,10.614
6.343000,-5.6320,-9.0421,-0.8624,10.687
6.347000,-6.1023,-8.5608,-0.6084,10.531
6.352000,-6.3259,-7.9286,-0.2135,10.145
6.358000,-6.2720,-7.1783,0.3080,9.537
6.362000,-5.9841,-6.3925,0.8935,8.802
6.368000,-5.5558,-5.6323,1.4233,8.038
6.373000,-5.0066,-4.9445,1.8855,7.285
6.377000,-4.3656,-4.3209,2.2753,6.550
6.381000,-3.6572,-3.7972,2.5403,5.852
6.387000,-2.9200,-3.3865,2.7043,5.226
6.399000,-2.1808,-3.0946,2.7863,4.701
6.400000,-1.4424,-2.9298,2.7665,4.280
6.402000,-0.7744,-2.8900,2.6804,4.017
6.407000,-0.2585,-2.9552,2.4972,3.878
6.445000,0.1006,-3.0913,2.2484,3.824
6.446000,0.2985,-3.3245,1.8961,3.839
6.447000,0.2876,-3.6612,1.4221,3.938
6.447000,0.1306,-4.0574,0.8868,4.155
6.448000,-0.0953,-4.4804,0.3364,4.494
6.448000,-0.3658,-4.8940,-0.1735,4.911
6.449000,-0.6950,-5.2492,-0.6067,5.330
6.449000,-1.0296,-5.5495,-0.9341,5.721
6.452000,-1.3788,-5.7559,-1.1772,6.035
6.458000,-1.7085,-5.8886,-1.3530,6.279
6.462000,-1.9589,-5.8692,-1.4419,6.353
6.468000,-2.1393,-5.7139,-1.4438,6.270
6.471000,-2.2472,-5.4419,-1.4068,6.053
6.476000,-2.2588,-5.0608,-1.3623,5.707
6.483000,-2.1432,-4.5809,-1.2867,5.219
6.487000,-1.9580,-4.0458,-1.1613,4.642
6.491000,-1.7041,-3.4908,-0.9580,4.001
6.499000,-1.4295,-2.9139,-0.6964,3.320
6.501000,-1.1465,-2.3565,-0.4373,2.657
6.507000,-0.8819,-1.8191,-0.2247,2.034
6.513000,-0.6690,-1.3187,-0.0951,1.482
6.517000,-0.5256,-0.8877,-0.0297,1.032
6.522000,-0.4108,-0.5066,-0.0001,0.652
6.565000,-0.3749,-0.1971,0.0344,0.425
6.566000,-0.3247,0.0385,0.0855,0.338
6.566000,-0.2862,0.2151,0.1723,0.397
6.566000,-0.2888,0.3438,0.2733,0.526
6.566000,-0.3032,0.4566,0.3859,0.670
6.567000,-0.3293,0.5130,0.5129,0.797
6.567000,-0.3718,0.5277,0.6402,0.909
6.568000,-0.4328,0.5369,0.7395,1.011
6.568000,-0.5117,0.5510,0.7943,1.094
6.572000,-0.5658,0.5717,0.7907,1.128
6.577000,-0.5828,0.6163,0.7488,1.132
6.582000,-0.5627,0.6656,0.6907,1.112
6.588000,-0.4839,0.7172,0.6457,1.080
6.593000,-0.3486,0.7906,0.5972,1.050
6.597000,-0.2103,0.8726,0.5555,1.056
6.602000,-0.0520,0.9732,0.5086,1.099
6.608000,0.1357,1.0610,0.4614,1.165
6.612000,0.3550,1.1741,0.4238,1.298
6.617000,0.5749,1.2866,0.3935,1.463
6.621000,0.7900,1.3949,0.3513,1.641
6.627000,1.0098,1.5162,0.2830,1.844
6.632000,1.2129,1.6097,0.2147,2.027
6.637000,1.4039,1.6922,0.1247,2.202
6.683000,1.6020,1.7780,0.0321,2.393
6.685000,1.7956,1.8628,-0.0777,2.588
6.685000,1.9934,1.9339,-0.1642,2.782
6.686000,2.1934,1.9821,-0.2182,2.964
6.686000,2.4052,2.0315,-0.2351,3.157
6.687000,2.5929,2.0629,-0.2226,3.321
6.687000,2.8262,2.1078,-0.1835,3.530
6.687000,3.0467,2.1702,-0.0799,3.741
6.688000,3.2501,2.2648,0.0637,3.962
6.688000,3.4147,2.3987,0.1967,4.178
6.693000,3.5860,2.5624,0.2880,4.417
6.697000,3.7929,2.7346,0.3207,4.687
6.705000,4.0032,2.9262,0.3117,4.968
6.708000,4.2338,3.1231,0.2371,5.266
6.714000,4.4605,3.3108,0.1164,5.556
6.719000,4.6806,3.4795,-0.0261,5.832
6.722000,4.8919,3.6294,-0.1542,6.093
6.735000,5.0766,3.7479,-0.2581,6.315
6.736000,5.2280,3.8328,-0.3327,6.491
6.737000,5.3578,3.8962,-0.3875,6.636
6.779000,5.4780,3.9405,-0.4128,6.761
6.780000,5.6102,3.9609,-0.3867,6.878
6.781000,5.7831,3.9385,-0.2975,7.003
6.781000,5.9529,3.8825,-0.1263,7.108
6.781000,6.1245,3.8217,0.1191,7.220
6.782000,6.2787,3.7492,0.4022,7.324
6.782000,6.4060,3.6553,0.6936,7.408
6.783000,6.4658,3.5786,0.9856,7.455
6.783000,6.4748,3.5167,1.2298,7.470
6.788000,6.4455,3.4365,1.3951,7.436
6.793000,6.3904,3.3310,1.5007,7.361
6.798000,6.3240,3.1720,1.5277,7.238
6.803000,6.2302,2.9813,1.4331,7.054
6.808000,6.1190,2.8072,1.2961,6.856
6.813000,6.0099,2.6784,1.1508,6.680
6.818000,5.9725,2.6358,1.0358,6.610
6.822000,6.0525,2.6914,0.9490,6.692
6.828000,6.2325,2.8233,0.9214,6.904
6.833000,6.5027,3.0121,0.8760,7.220
6.837000,6.8019,3.2305,0.7983,7.572
6.876000,7.0890,3.4616,0.6884,7.919
6.877000,7.3324,3.6475,0.5633,8.209
6.878000,7.5294,3.7641,0.4158,8.428
6.878000,7.7228,3.7802,0.2267,8.601
6.878000,7.9100,3.6838,-0.0250,8.726
6.879000,8.0191,3.4510,-0.3270,8.736
6.879000,8.0408,3.1250,-0.6283,8.650
6.880000,7.8919,2.7850,-0.8451,8.411
6.883000,7.5707,2.5488,-0.9465,8.044
6.888000,7.1117,2.4452,-0.9448,7.579
6.893000,6.6213,2.4845,-0.8548,7.124
6.897000,6.1501,2.6285,-0.7249,6.727
6.904000,5.7604,2.8677,-0.6249,6.465
6.909000,5.5142,3.1565,-0.6146,6.383
6.914000,5.4398,3.4729,-0.7150,6.493
6.918000,5.5149,3.7593,-0.8965,6.734
6.923000,5.6477,3.9862,-1.1151,7.002
6.928000,5.7801,4.1150,-1.3511,7.223
6.933000,5.8998,4.1191,-1.5774,7.366
6.938000,6.0376,4.0198,-1.7691,7.466
6.945000,6.2702,3.8008,-1.8922,7.572
6.948000,6.5493,3.4808,-1.9248,7.663
6.953000,6.8436,3.0765,-1.8741,7.734
6.981000,7.1148,2.6332,-1.7404,7.784
6.983000,7.3389,2.1628,-1.5599,7.808
6.984000,7.4870,1.6674,-1.3996,7.797
6.984000,7.5580,1.1645,-1.2643,7.751
6.984000,7.5422,0.6537,-1.1253,7.654
6.985000,7.4379,0.1427,-0.9564,7.501
6.988000,7.2674,-0.3611,-0.7484,7.315
6.994000,7.0501,-0.8241,-0.4849,7.115
6.998000,6.8015,-1.2286,-0.1694,6.914
7.003000,6.5314,-1.5506,0.1760,6.715
7.007000,6.2354,-1.8043,0.5504,6.515
7.013000,5.8803,-1.9632,0.9457,6.271
7.019000,5.5546,-2.0179,1.3089,6.053
7.022000,5.2662,-1.9986,1.6246,5.862
7.028000,5.0481,-1.9009,1.9306,5.729
7.033000,4.8833,-1.7252,2.2170,5.634
7.038000,4.7427,-1.4956,2.4566,5.547
7.045000,4.6019,-1.2103,2.6157,5.430
7.048000,4.4697,-0.8631,2.6631,5.274
7.053000,4.3322,-0.5180,2.6298,5.094
7.058000,4.2006,-0.2049,2.5091,4.897
7.067000,4.1010,0.0496,2.3396,4.722
7.070000,4.0138,0.2544,2.1454,4.558
7.073000,3.8978,0.4061,1.9293,4.368
7.116000,3.7465,0.4888,1.7008,4.143
7.118000,3.5574,0.4922,1.4791,3.884
7.118000,3.3020,0.3876,1.2480,3.551
7.119000,3.0261,0.1873,1.0270,3.201
7.119000,2.7614,-0.1228,0.8332,2.887
7.119000,2.4839,-0.5167,0.7005,2.632
7.120000,2.1904,-0.9445,0.6243,2.466
7.120000,1.8497,-1.3419,0.5594,2.353
7.121000,1.4888,-1.7109,0.4772,2.318
7.124000,1.1247,-2.0534,0.3809,2.372
7.129000,0.7645,-2.3938,0.2876,2.529
7.134000,0.4023,-2.7253,0.2455,2.766
7.139000,0.0379,-3.0554,0.2573,3.066
7.144000,-0.3237,-3.3454,0.3109,3.375
7.149000,-0.6513,-3.5997,0.3756,3.677
7.153000,-0.9379,-3.8022,0.4440,3.941
7.161000,-1.1805,-3.9678,0.5094,4.171
7.167000,-1.3794,-4.1188,0.5839,4.383
7.168000,-1.5540,-4.2697,0.6699,4.593
7.173000,-1.7115,-4.4108,0.7628,4.792
7.209000,-1.8163,-4.5811,0.8602,5.003
7.213000,-1.9014,-4.7766,0.9952,5.237
7.214000,-1.9983,-4.9835,1.1390,5.489
7.215000,-2.1501,-5.1826,1.2769,5.754
7.218000,-2.3350,-5.3712,1.3920,6.020
7.219000,-2.5149,-5.5322,1.4578,6.249
7.220000,-2.6851,-5.6807,1.4838,6.456
7.221000,-2.8764,-5.8124,1.4818,6.652
7.221000,-3.0602,-5.9373,1.4587,6.837
7.224000,-3.2367,-6.0386,1.4241,6.998
7.229000,-3.4156,-6.1209,1.3777,7.143
7.234000,-3.6113,-6.1921,1.3170,7.288
7.238000,-3.8213,-6.2527,1.2394,7.432
7.245000,-4.0673,-6.3008,1.1616,7.589
7.248000,-4.2966,-6.3340,1.0833,7.730
7.254000,-4.5096,-6.3473,0.9950,7.850
7.264000,-4.6919,-6.3509,0.9326,7.951
7.266000,-4.8484,-6.3743,0.8960,8.059
7.268000,-5.0080,-6.4111,0.8564,8.180
7.273000,-5.1708,-6.4562,0.8401,8.314
7.304000,-5.3057,-6.5023,0.8133,8.432
7.305000,-5.4274,-6.5588,0.7879,8.550
7.305000,-5.5717,-6.6023,0.7690,8.673
7.305000,-5.7196,-6.6339,0.7518,8.791
7.306000,-5.8759,-6.6540,0.7318,8.907
7.306000,-6.0263,-6.6862,0.7138,9.029
7.314000,-6.1591,-6.7065,0.6812,9.131
7.315000,-6.2671,-6.7295,0.6314,9.217
7.320000,-6.3553,-6.7256,0.5765,9.271
7.325000,-6.4691,-6.7144,0.5142,9.338
7.328000,-6.5704,-6.6982,0.4588,9.394
7.334000,-6.6736,-6.6841,0.4103,9.454
7.340000,-6.7572,-6.6694,0.3662,9.501
7.346000,-6.8213,-6.6639,0.3171,9.541
7.350000,-6.8517,-6.6551,0.2459,9.555
7.354000,-6.8341,-6.6434,0.1362,9.532
7.363000,-6.7638,-6.6310,0.0236,9.472
7.367000,-6.6529,-6.6208,-0.1086,9.387
7.369000,-6.5326,-6.6106,-0.2177,9.296
7.373000,-6.4363,-6.6006,-0.3113,9.224
7.410000,-6.3402,-6.5885,-0.3776,9.151
7.411000,-6.2539,-6.5983,-0.4166,9.101
7.411000,-6.1940,-6.6323,-0.4308,9.085
7.412000,-6.1341,-6.6806,-0.4608,9.081
7.412000,-6.0408,-6.7433,-0.5132,9.068
7.413000,-5.8566,-6.8251,-0.5953,9.013
7.413000,-5.5768,-6.9191,-0.6923,8.914
7.413000,-5.2278,-7.0638,-0.8282,8.827
7.420000,-4.8551,-7.2739,-1.0314,8.806
7.424000,-4.5160,-7.5662,-1.3328,8.912
7.429000,-4.1960,-7.9628,-1.7389,9.167
7.434000,-3.9716,-8.4438,-2.2016,9.587
7.438000,-3.8450,-8.9680,-2.6772,10.118
7.444000,-3.8970,-9.4341,-3.0746,10.660
7.449000,-4.1609,-9.7908,-3.2963,11.137
7.454000,-4.5693,-10.0327,-3.3693,11.528
7.459000,-4.9374,-10.1246,-3.3199,11.743
7.464000,-5.1884,-10.0970,-3.1523,11.782
7.469000,-5.2792,-9.9282,-2.8686,11.605
7.474000,-5.1783,-9.5630,-2.3877,11.134
7.480000,-4.8884,-9.0370,-1.7001,10.414
7.485000,-3.8429,-8.6148,-0.8349,9.470
7.490000,-2.6052,-8.1689,0.1948,8.576
7.498000,-2.3162,-7.3777,1.0102,7.798
7.504000,-2.2497,-6.4591,1.6021,7.025
7.506000,-2.0204,-5.4768,2.0936,6.202
7.553000,-1.5856,-4.5823,2.5669,5.486
7.556000,-0.9863,-3.8990,3.0248,5.032
7.557000,-0.2592,-3.4856,3.3878,4.868
7.557000,0.5999,-3.2954,3.6364,4.944
7.560000,1.4735,-3.2614,3.7675,5.196
7.562000,2.2815,-3.3167,3.7633,5.511
7.563000,2.9495,-3.4231,3.6012,5.778
7.563000,3.3792,-3.6119,3.2950,5.943
7.564000,3.4943,-3.9020,2.8114,5.945
7.565000,3.3650,-4.2461,2.2183,5.854
7.565000,3.0968,-4.5602,1.5787,5.734
7.565000,2.7623,-4.8260,0.9391,5.639
7.569000,2.3690,-5.0544,0.3791,5.595
7.575000,1.9272,-5.2085,-0.0837,5.554
7.582000,1.4880,-5.2914,-0.4729,5.517
7.586000,1.1039,-5.2604,-0.7879,5.432
7.589000,0.7827,-5.1264,-1.0308,5.287
7.613000,0.4984,-4.8652,-1.2014,5.036
7.614000,0.2775,-4.4841,-1.3021,4.678
7.615000,0.1606,-4.0001,-1.3376,4.221
7.615000,0.1956,-3.4396,-1.3222,3.690
7.616000,0.3671,-2.8333,-1.2322,3.111
7.620000,0.6198,-2.2343,-1.0707,2.554
7.626000,0.9339,-1.6770,-0.8596,2.103
7.630000,1.2898,-1.1430,-0.6309,1.835
7.636000,1.6393,-0.6492,-0.3992,1.808
7.641000,1.9407,-0.1806,-0.1797,1.957
7.646000,2.1890,0.2460,0.0465,2.203
7.650000,2.3719,0.6257,0.3151,2.473
7.655000,2.4989,0.9201,0.6182,2.734
7.660000,2.5752,1.1373,0.9410,2.968
7.666000,2.5951,1.2907,1.2567,3.159
7.670000,2.5568,1.4172,1.5339,3.301
7.676000,2.4844,1.5101,1.7580,3.398
7.680000,2.4260,1.5960,1.9122,3.477
7.686000,2.3652,1.6852,2.0181,3.537
7.690000,2.3088,1.7772,2.0590,3.568
7.696000,2.2187,1.8651,2.0089,3.527
7.700000,2.1408,1.9589,1.8707,3.452
7.705000,2.0750,2.0610,1.6570,3.361
7.717000,2.0506,2.1744,1.4308,3.314
7.719000,2.0954,2.2980,1.2141,3.338
7.720000,2.2047,2.4775,1.0409,3.476
7.765000,2.3567,2.6647,0.9042,3.671
7.767000,2.4794,2.8404,0.7776,3.850
7.768000,2.5867,2.9875,0.6684,4.008
7.768000,2.7032,3.1328,0.5719,4.177
7.769000,2.8085,3.2395,0.4666,4.313
7.769000,2.8912,3.3082,0.3743,4.409
7.770000,2.9849,3.3270,0.2709,4.478
7.770000,3.0630,3.3033,0.1804,4.509
7.771000,3.1597,3.2591,0.0812,4.540
7.771000,3.2383,3.1843,0.0089,4.542
7.776000,3.2803,3.1201,-0.0605,4.528
7.781000,3.3169,3.0643,-0.1006,4.517
7.785000,3.3530,3.0147,-0.1210,4.511
7.790000,3.4107,2.9884,-0.1074,4.536
7.796000,3.4917,2.9707,-0.0768,4.585
7.802000,3.5989,2.9762,-0.0172,4.670
7.806000,3.7250,3.0001,0.0686,4.783
7.814000,3.8843,3.0401,0.1612,4.935
7.815000,4.0383,3.0936,0.2580,5.094
7.821000,4.1921,3.1680,0.3468,5.266
7.863000,4.3545,3.2748,0.4322,5.466
7.865000,4.5449,3.4045,0.5047,5.701
7.865000,4.7556,3.5664,0.5448,5.969
7.866000,4.9554,3.7579,0.5596,6.244
7.866000,5.1370,3.9719,0.5372,6.516
7.867000,5.2946,4.1811,0.4540,6.762
7.867000,5.4593,4.3857,0.3366,7.011
7.868000,5.6259,4.5686,0.2044,7.250
7.868000,5.7892,4.7224,0.0673,7.471
7.871000,5.9295,4.8276,-0.0699,7.647
7.876000,6.0253,4.8797,-0.1808,7.756
7.880000,6.0499,4.8736,-0.2773,7.774
7.885000,5.9918,4.7856,-0.3760,7.678
7.890000,5.8608,4.6330,-0.4460,7.484
7.895000,5.6600,4.4161,-0.5135,7.197
7.901000,5.4259,4.1546,-0.5737,6.858
7.906000,5.1925,3.9207,-0.6076,6.535
7.911000,4.9914,3.6956,-0.6248,6.242
7.917000,4.8038,3.4867,-0.6228,5.968
7.921000,4.6109,3.2966,-0.6186,5.702
7.959000,4.4156,3.0947,-0.6243,5.428
7.960000,4.2614,2.9242,-0.6540,5.209
7.961000,4.2632,2.8115,-0.7291,5.159
7.961000,4.1242,2.7566,-0.8493,5.033
7.962000,4.1626,2.7497,-0.9615,5.081
7.962000,4.2895,2.7715,-1.0081,5.205
7.963000,4.4422,2.8312,-0.9607,5.355
7.963000,4.5653,2.9166,-0.8649,5.486
7.966000,4.7041,3.0419,-0.7665,5.654
7.970000,4.8772,3.1827,-0.6920,5.865
7.977000,5.0961,3.3125,-0.6845,6.117
7.981000,5.3530,3.3854,-0.7463,6.378
7.986000,5.6234,3.3700,-0.8577,6.612
7.992000,5.8781,3.2398,-1.0233,6.789
7.997000,6.0787,2.9898,-1.1897,6.878
8.002000,6.1870,2.5964,-1.3256,6.839
8.006000,6.1772,2.0456,-1.4335,6.663
8.011000,6.0813,1.4002,-1.4846,6.415
8.016000,5.9287,0.7469,-1.4527,6.150
8.020000,5.7062,0.1081,-1.3166,5.857
8.045000,5.3812,-0.4391,-1.0626,5.503
8.047000,4.9384,-0.8390,-0.7301,5.062
8.047000,4.4195,-1.0238,-0.3391,4.549
8.048000,3.9453,-0.9260,0.0426,4.053
8.048000,3.6597,-0.5503,0.3503,3.717
8.051000,3.6623,0.0356,0.5653,3.706
8.056000,3.9303,0.7183,0.6593,4.049
8.061000,4.3640,1.3961,0.5732,4.618
8.066000,4.9498,2.0298,0.3247,5.360
8.072000,5.6378,2.5532,-0.0588,6.189
8.077000,6.3141,2.9893,-0.5041,7.004
8.081000,6.9272,3.3059,-0.9073,7.729
8.086000,7.4450,3.5046,-1.1721,8.312
8.092000,7.8381,3.5585,-1.2530,8.699
8.096000,8.0780,3.4581,-1.1771,8.866
8.101000,8.1910,3.1889,-0.9978,8.846
8.106000,8.1992,2.7703,-0.7517,8.687
8.112000,8.1343,2.2433,-0.4588,8.450
8.116000,7.9726,1.6008,-0.1579,8.133
8.121000,7.6919,0.8824,0.1139,7.743
8.128000,7.3290,0.0862,0.3300,7.337
8.131000,6.9184,-0.6722,0.4757,6.967
8.136000,6.4634,-1.3731,0.5965,6.635
8.142000,5.9742,-1.9826,0.7186,6.336
8.151000,5.4454,-2.4827,0.8535,6.045
8.153000,4.8986,-2.8493,1.0014,5.755
8.156000,4.4038,-3.1010,1.1358,5.505
8.205000,3.9710,-3.2425,1.2807,5.284
8.207000,3.6141,-3.2667,1.4002,5.069
8.208000,3.3505,-3.1802,1.4818,4.851
8.208000,3.1964,-2.9956,1.5617,4.651
8.209000,3.1367,-2.7468,1.6445,4.482
8.210000,3.0992,-2.4702,1.7201,4.320
8.211000,3.0308,-2.1689,1.7407,4.113
8.211000,2.9502,-1.8770,1.6919,3.885
8.212000,2.9009,-1.6108,1.5741,3.673
8.213000,2.9086,-1.3542,1.4311,3.513
8.213000,2.9512,-1.1225,1.2893,3.411
8.216000,3.0284,-0.9185,1.1558,3.369
8.221000,3.0820,-0.7555,1.0406,3.339
8.227000,3.1007,-0.6830,0.9245,3.307
8.231000,3.0867,-0.7088,0.8364,3.276
8.237000,3.0329,-0.8284,0.7883,3.241
8.241000,2.8726,-1.0513,0.7683,3.154
8.246000,2.5962,-1.3156,0.7496,3.005
8.251000,2.2509,-1.6144,0.6919,2.855
8.256000,1.9014,-1.9074,0.6119,2.762
8.262000,1.5696,-2.1940,0.5701,2.757
8.268000,1.2367,-2.4670,0.5498,2.814
8.270000,0.8743,-2.7211,0.5632,2.913
8.303000,0.4966,-2.9641,0.5625,3.058
8.306000,0.1217,-3.1818,0.5506,3.231
8.307000,-0.2245,-3.3796,0.5350,3.429
8.307000,-0.5776,-3.5621,0.5378,3.648
8.308000,-0.9400,-3.7456,0.5517,3.901
8.308000,-1.2830,-3.9237,0.5865,4.170
8.309000,-1.6035,-4.0941,0.6590,4.446
8.311000,-1.8875,-4.2695,0.7597,4.729
8.316000,-2.1372,-4.4447,0.8911,5.012
8.321000,-2.3646,-4.6599,1.0389,5.328
8.326000,-2.6035,-4.8655,1.1883,5.645
8.332000,-2.8723,-5.0663,1.3104,5.969
8.336000,-3.1546,-5.2267,1.3836,6.260
8.342000,-3.4310,-5.3512,1.4245,6.514
8.348000,-3.6994,-5.4393,1.4377,6.733
8.351000,-3.9383,-5.4933,1.4231,6.907
8.357000,-4.1457,-5.5187,1.4021,7.043
8.388000,-4.3381,-5.5163,1.3623,7.149
8.391000,-4.5159,-5.5153,1.3086,7.247
8.391000,-4.6505,-5.5039,1.2455,7.312
8.392000,-4.7517,-5.4917,1.1827,7.358
8.392000,-4.8221,-5.4866,1.1251,7.391
8.393000,-4.8905,-5.4848,1.0867,7.428
8.393000,-4.9594,-5.4943,1.0341,7.473
8.396000,-5.0481,-5.5056,1.0053,7.537
8.402000,-5.1399,-5.5330,0.9668,7.614
8.407000,-5.2375,-5.5842,0.9304,7.712
8.411000,-5.3240,-5.6553,0.9056,7.820
8.417000,-5.3254,-5.7398,0.8899,7.880
8.425000,-5.5409,-5.8281,0.8928,8.091
8.427000,-5.6547,-5.9102,0.8902,8.228
8.433000,-5.7650,-5.9837,0.8797,8.355
8.438000,-5.8839,-6.0537,0.8636,8.486
8.442000,-5.8799,-6.1310,0.8298,8.535
8.447000,-6.2124,-6.2301,0.8310,8.837
8.452000,-6.4148,-6.3314,0.8260,9.051
8.456000,-6.6117,-6.4370,0.8437,9.266
8.462000,-6.7960,-6.5275,0.8577,9.462
8.466000,-6.9845,-6.5711,0.8681,9.629
8.472000,-7.1295,-6.5797,0.8514,9.739
8.482000,-7.2119,-6.5749,0.8029,9.792
8.483000,-7.2535,-6.5232,0.7518,9.784
8.487000,-7.2614,-6.4536,0.7029,9.740
8.516000,-7.2285,-6.3732,0.6421,9.658
8.517000,-7.1718,-6.2632,0.5621,9.538
8.518000,-6.9859,-6.0715,0.3218,9.261
8.519000,-6.9773,-6.0685,0.3208,9.253
8.519000,-6.8371,-5.9675,0.1689,9.077
8.520000,-6.7114,-5.8883,0.0127,8.928
8.521000,-6.5691,-5.8194,-0.1360,8.777
8.527000,-6.4173,-5.7538,-0.2580,8.623
8.531000,-6.2632,-5.6918,-0.3486,8.470
8.537000,-6.1236,-5.6529,-0.4130,8.344
8.543000,-6.0031,-5.6274,-0.4345,8.240
8.547000,-5.8780,-5.6324,-0.3939,8.150
8.552000,-5.7982,-5.6797,-0.2892,8.122
8.557000,-5.7376,-5.7308,-0.1689,8.111
8.563000,-5.6792,-5.7831,-0.0429,8.106
8.567000,-5.6446,-5.8481,0.0432,8.128
8.571000,-5.6265,-5.9309,0.0873,8.176
8.577000,-5.5292,-6.0403,0.0443,8.189
8.581000,-5.3286,-6.1930,-0.0683,8.170
8.586000,-5.0607,-6.4560,-0.3149,8.209
8.616000,-4.7733,-6.8079,-0.6905,8.343
8.617000,-4.5453,-7.2168,-1.1687,8.609
8.617000,-4.3764,-7.6855,-1.7754,9.021
8.617000,-4.2519,-8.1317,-2.4023,9.485
8.618000,-4.2052,-8.5213,-2.9842,9.960
8.618000,-4.2404,-8.8178,-3.4465,10.374
8.621000,-4.3405,-8.9837,-3.7537,10.660
8.628000,-4.4477,-8.9910,-3.8486,10.744
8.633000,-4.4634,-8.8053,-3.7288,10.553
8.641000,-4.3826,-8.4386,-3.3681,10.088
8.642000,-4.1310,-7.8938,-2.7953,9.338
8.647000,-3.6628,-7.1953,-2.0800,8.338
8.659000,-2.9907,-6.3607,-1.3398,7.155
8.660000,-2.1914,-5.4703,-0.6946,5.934
8.678000,-1.3300,-4.5813,-0.1951,4.774
8.680000,-0.4142,-3.7342,0.1371,3.760
8.681000,0.5289,-2.9861,0.3879,3.057
8.681000,1.4534,-2.4093,0.5761,2.872
8.683000,2.2865,-2.0259,0.7251,3.140
8.687000,2.9681,-1.8740,0.8417,3.610
8.722000,3.4597,-1.9414,0.9466,4.079
8.723000,3.7374,-2.2468,0.9893,4.472
8.723000,3.8140,-2.7784,0.9603,4.815
8.724000,3.7373,-3.4667,0.9343,5.183
8.724000,3.6112,-4.2253,0.9738,5.643
8.724000,3.4485,-5.0023,1.1002,6.175
8.725000,3.2000,-5.7361,1.2898,6.694
8.728000,2.9362,-6.3431,1.4951,7.148
8.733000,2.7054,-6.7636,1.6930,7.479
8.737000,2.5685,-6.9150,1.9041,7.618
8.742000,2.5618,-6.7856,2.1368,7.561
8.747000,2.7645,-6.3688,2.3108,7.317
8.751000,3.1595,-5.7759,2.4172,7.013
8.757000,3.6724,-5.0890,2.4776,6.747
8.762000,4.2657,-4.3328,2.5103,6.578
8.768000,4.9486,-3.5413,2.4833,6.572
8.772000,5.7203,-2.6848,2.3841,6.754
8.777000,6.4933,-1.7934,2.2478,7.102
8.784000,7.2005,-0.8772,2.0785,7.546
8.787000,7.8012,0.0444,1.9132,8.033
8.814000,8.3119,0.9066,1.7441,8.541
8.815000,8.7245,1.6755,1.5729,9.022
8.816000,9.0692,2.3364,1.4108,9.471
8.817000,9.2983,2.9184,1.2718,9.828
8.817000,9.4098,3.4296,1.1673,10.083
8.821000,9.4065,3.8589,1.0469,10.221
8.822000,9.2666,4.1992,0.9152,10.215
8.827000,9.0476,4.4463,0.7484,10.109
8.833000,8.7327,4.6149,0.5466,9.892
8.837000,8.3276,4.7062,0.3267,9.571
8.842000,7.8320,4.7438,0.1152,9.157
8.847000,7.2730,4.7458,-0.0712,8.685
8.852000,6.6778,4.7200,-0.2801,8.182
8.859000,6.0924,4.6720,-0.4967,7.694
8.863000,5.5539,4.5861,-0.7084,7.237
8.868000,5.0620,4.4861,-0.9070,6.824
8.872000,4.6106,4.3897,-1.0972,6.460
8.878000,4.1808,4.3211,-1.2688,6.145
8.882000,3.8043,4.2618,-1.4454,5.893
8.887000,3.5154,4.2098,-1.6599,5.730
8.893000,3.3806,4.1651,-1.9020,5.692
8.897000,3.3498,4.1612,-2.1468,5.757
8.902000,3.3896,4.1933,-2.3941,5.900
8.907000,3.4877,4.2612,-2.6313,6.103
8.929000,3.6368,4.3792,-2.8508,6.366
8.930000,3.8776,4.5425,-3.0119,6.689
8.930000,4.1895,4.7213,-3.0998,7.032
8.931000,4.5414,4.8844,-3.1386,7.371
8.933000,4.9230,5.0267,-3.1119,7.693
8.938000,5.2763,5.1240,-3.0177,7.950
8.943000,5.5702,5.2098,-2.8706,8.149
8.947000,5.7969,5.2812,-2.7239,8.301
8.952000,5.9876,5.3479,-2.5659,8.428
8.957000,6.1637,5.3980,-2.3848,8.533
8.962000,6.2846,5.3789,-2.1713,8.552
8.968000,6.3434,5.2981,-1.8996,8.480
8.972000,6.3398,5.2226,-1.6299,8.374
8.978000,6.2958,5.1549,-1.3699,8.251
8.983000,6.2043,5.1238,-1.1199,8.124
8.987000,6.0964,5.0983,-0.9064,7.999
8.994000,6.0104,5.0617,-0.7293,7.892
8.997000,5.9392,5.0307,-0.5911,7.806
9.003000,5.8919,4.9788,-0.4917,7.729
9.008000,5.8709,4.9085,-0.4265,7.664
9.033000,5.8592,4.8411,-0.3952,7.611
9.035000,5.8376,4.7790,-0.3834,7.554
9.036000,5.8037,4.7412,-0.3979,7.505
9.036000,5.7715,4.7252,-0.4363,7.472
9.037000,5.7099,4.7165,-0.4862,7.422
9.038000,5.6284,4.6912,-0.5306,7.346
9.045000,5.5178,4.6517,-0.5669,7.239
9.048000,5.4306,4.5598,-0.5998,7.116
9.054000,5.4005,4.4276,-0.6099,7.010
9.060000,5.4659,4.3103,-0.5586,6.983
9.063000,5.6409,4.2365,-0.3787,7.065
9.069000,5.8318,4.1770,-0.1230,7.174
9.073000,5.8994,4.0549,0.1603,7.160
9.079000,5.8295,3.8513,0.4064,6.999
9.083000,5.6205,3.6095,0.6702,6.713
9.089000,5.2539,3.3418,1.0548,6.315
9.094000,4.8120,3.0227,1.5454,5.889
9.098000,4.4058,2.7006,2.1222,5.586
9.103000,4.0044,2.4309,2.7222,5.418
9.110000,3.6255,2.2072,3.2411,5.340
9.113000,3.2956,2.0152,3.5929,5.276
9.118000,2.9910,1.8385,3.7944,5.170
9.124000,2.7286,1.6532,3.8149,4.973
9.136000,2.4940,1.5264,3.6603,4.685
9.137000,2.3014,1.4386,3.3318,4.297
9.138000,2.1965,1.3397,2.8930,3.872
9.144000,2.1811,1.2077,2.4197,3.474
9.187000,2.2119,0.9826,1.9921,3.135
9.188000,2.2673,0.6763,1.6874,2.906
9.188000,2.3613,0.3099,1.5352,2.834
9.189000,2.4631,-0.0994,1.5515,2.913
9.189000,2.5392,-0.5349,1.7837,3.149
9.189000,2.5780,-0.9797,2.2448,3.556
9.190000,2.5557,-1.4380,2.9283,4.144
9.190000,2.4394,-1.8878,3.7796,4.878
9.190000,2.2729,-2.2803,4.7048,5.701
9.197000,2.0684,-2.5529,5.6308,6.519
9.198000,1.8790,-2.6931,6.5300,7.309
9.204000,1.7909,-2.6813,7.3317,8.009
9.210000,1.8397,-2.5489,7.9161,8.517
9.213000,1.9697,-2.3251,8.2167,8.764
9.218000,2.1756,-2.0656,8.2490,8.778
9.223000,2.4445,-1.7904,8.0433,8.595
9.228000,2.7303,-1.5076,7.6782,8.287
9.233000,3.0514,-1.2276,7.1958,7.912
9.238000,3.4069,-0.9492,6.6935,7.570
9.275000,3.7242,-0.6589,6.2661,7.319
9.276000,3.9455,-0.3816,5.9527,7.152
9.276000,4.0777,-0.1415,5.7397,7.042
9.276000,4.0966,0.0369,5.6515,6.980
9.277000,4.0047,0.1390,5.6689,6.942
9.277000,3.8167,0.1820,5.7914,6.938
9.277000,3.5926,0.1637,6.0163,7.009
9.278000,3.3426,0.1034,6.3476,7.175
9.285000,3.0333,-0.0079,6.7987,7.445
9.289000,2.6557,-0.2200,7.3061,7.777
9.293000,2.1744,-0.4699,7.8400,8.149
9.298000,1.6143,-0.6846,8.4249,8.605
9.304000,1.0594,-0.8852,9.0216,9.127
9.309000,0.5270,-1.0828,9.6240,9.699
9.313000,0.0413,-1.2575,10.1689,10.246
9.318000,-0.4192,-1.3708,10.6223,10.719
9.323000,-0.8063,-1.4623,10.9545,11.081
9.329000,-1.1151,-1.5345,11.1398,11.300
9.333000,-1.3580,-1.6040,11.1970,11.393
9.338000,-1.5779,-1.6541,11.1174,11.350
9.344000,-1.7655,-1.6851,10.8845,11.155
9.349000,-1.8537,-1.7135,10.4918,10.791
9.353000,-1.8165,-1.7448,9.9956,10.308
9.392000,-1.7046,-1.7245,9.4498,9.756
9.394000,-1.6427,-1.6627,8.9343,9.235
9.395000,-1.6357,-1.5671,8.5167,8.813
9.395000,-1.6884,-1.4596,8.2568,8.553
9.396000,-1.7863,-1.3711,8.1423,8.448
9.397000,-1.9365,-1.3204,8.1203,8.452
9.398000,-2.0645,-1.3336,8.1594,8.521
9.398000,-2.1916,-1.4270,8.3336,8.734
9.399000,-2.4013,-1.5715,8.6834,9.145
9.403000,-2.5638,-1.7566,9.1597,9.673
9.410000,-2.6625,-2.0131,9.6919,10.251
9.414000,-2.7166,-2.2997,10.1398,10.746
9.419000,-2.7716,-2.6115,10.4259,11.100
9.427000,-2.8274,-2.9530,10.4898,11.258
9.429000,-2.9007,-3.2691,10.3560,11.240
9.435000,-2.9772,-3.5243,10.0248,11.035
9.439000,-3.0280,-3.6974,9.5139,10.647
9.449000,-3.0534,-3.7961,8.8531,10.105
9.451000,-3.0891,-3.8376,8.1203,9.498
9.454000,-3.0850,-3.8342,7.3686,8.861
9.493000,-3.0676,-3.7960,6.6045,8.212
9.496000,-2.9770,-3.7066,5.8216,7.516
9.497000,-2.8159,-3.5688,5.0399,6.787
9.498000,-2.5772,-3.3613,4.3011,6.037
9.498000,-2.2806,-3.0727,3.6369,5.279
9.499000,-1.9218,-2.7399,3.0846,4.551
9.499000,-1.5876,-2.3776,2.6658,3.909
9.500000,-1.3332,-2.0507,2.3784,3.412
9.500000,-1.1277,-1.7955,2.1964,3.053
9.510000,-0.8634,-1.5422,2.1386,2.774
9.514000,-0.8562,-1.5301,2.1073,2.741
9.514000,-0.8018,-1.4931,2.1447,2.733
9.518000,-0.7719,-1.4572,2.1931,2.744
9.524000,-0.7592,-1.3959,2.2665,2.768
9.529000,-0.7684,-1.3117,2.3791,2.823
9.534000,-0.8066,-1.2162,2.4944,2.890
9.538000,-0.8427,-1.1145,2.6148,2.965
9.550000,-0.8862,-1.0421,2.7471,3.069
9.551000,-0.9513,-0.9894,2.8911,3.200
9.554000,-1.0236,-0.9441,3.0513,3.354
9.558000,-1.0885,-0.8966,3.1891,3.487
9.610000,-1.1197,-0.8445,3.2827,3.570
9.612000,-1.1221,-0.7924,3.3344,3.606
9.612000,-1.0813,-0.7332,3.3564,3.602
9.613000,-0.9784,-0.6766,3.3607,3.565
9.614000,-0.8303,-0.6085,3.3785,3.532
9.614000,-0.6660,-0.5528,3.4386,3.546
9.614000,-0.5263,-0.5123,3.5357,3.611
9.615000,-0.3969,-0.4964,3.6460,3.701
9.615000,-0.2993,-0.4669,3.7452,3.786
9.616000,-0.2167,-0.4645,3.8357,3.870
9.616000,-0.1492,-0.4796,3.9269,3.959
9.619000,-0.1061,-0.4999,3.9831,4.016
9.626000,-0.0682,-0.5088,4.0163,4.049
9.629000,-0.0258,-0.4632,4.0502,4.077
9.634000,0.0279,-0.4038,4.1111,4.131
9.639000,0.0644,-0.3189,4.1891,4.202
9.644000,0.0904,-0.2158,4.2886,4.295
9.649000,0.1109,-0.1231,4.3899,4.393
9.655000,0.1330,-0.0433,4.5264,4.529
9.662000,0.1352,0.0548,4.6618,4.664
9.664000,0.1078,0.1376,4.7625,4.766
9.670000,0.0581,0.2316,4.8450,4.851
9.674000,-0.0019,0.3009,4.8922,4.901
9.705000,-0.0650,0.3431,4.8727,4.885
9.706000,-0.0857,0.3681,4.8228,4.838
9.707000,-0.1118,0.3518,4.7522,4.767
9.708000,-0.1361,0.3255,4.6706,4.684
9.708000,-0.1919,0.2989,4.5803,4.594
9.708000,-0.2718,0.2867,4.4668,4.484
9.709000,-0.3565,0.2864,4.3206,4.345
9.714000,-0.4387,0.3007,4.1634,4.197
9.718000,-0.5088,0.3200,3.9955,4.040
9.726000,-0.5619,0.3443,3.8266,3.883
9.729000,-0.6002,0.3762,3.6883,3.756
9.734000,-0.6215,0.4132,3.5564,3.634
9.738000,-0.6115,0.4480,3.4070,3.490
9.744000,-0.5727,0.4830,3.2354,3.321
9.748000,-0.5293,0.4987,3.0608,3.146
9.753000,-0.4619,0.4858,2.8909,2.968
9.760000,-0.4068,0.4201,2.7327,2.795
9.764000,-0.3494,0.3328,2.5961,2.641
9.769000,-0.2731,0.2289,2.4738,2.499
9.774000,-0.1824,0.1202,2.3204,2.331
9.781000,-0.0441,-0.0051,2.1311,2.132
9.785000,0.1155,-0.1255,1.9108,1.918
9.789000,0.2843,-0.2150,1.7222,1.759
9.834000,0.3977,-0.3645,1.5628,1.653
9.835000,0.5132,-0.5595,1.4040,1.596
9.836000,0.6235,-0.7379,1.2600,1.588
9.836000,0.6739,-0.9210,1.1575,1.625
9.836000,0.6694,-1.1157,1.0746,1.688
9.836000,0.6629,-1.2954,1.0114,1.772
9.837000,0.6617,-1.4338,0.9798,1.858
9.837000,0.6872,-1.5334,0.9940,1.952
9.837000,0.7273,-1.6016,0.9822,2.015
9.839000,0.7818,-1.6719,0.9541,2.078
9.845000,0.8387,-1.7613,0.9122,2.153
9.849000,0.9002,-1.8507,0.8592,2.230
9.855000,0.9400,-1.9260,0.8167,2.294
9.860000,0.9628,-1.9944,0.8327,2.366
9.866000,0.9639,-2.0391,0.8830,2.422
9.870000,0.9263,-2.1010,0.9600,2.489
9.875000,0.8671,-2.1417,1.0348,2.532
9.880000,0.8053,-2.2041,1.1191,2.600
9.884000,0.7554,-2.2500,1.2224,2.670
9.917000,0.7224,-2.2717,1.3470,2.738
9.918000,0.7085,-2.2552,1.4923,2.796
9.919000,0.7256,-2.2149,1.6530,2.857
9.919000,0.7329,-2.1867,1.7466,2.893
9.919000,0.7470,-2.1875,1.7079,2.874
9.920000,0.7343,-2.2029,1.5343,2.783
9.920000,0.6880,-2.2303,1.2047,2.627
9.925000,0.5770,-2.2314,0.7532,2.425
9.928000,0.5043,-2.2088,0.2787,2.283
9.935000,0.4720,-2.1554,-0.1966,2.215
9.939000,0.4105,-2.0957,-0.6839,2.242
9.944000,0.3272,-2.1012,-1.1847,2.434
9.949000,0.2246,-2.1241,-1.6457,2.696
9.954000,-0.0049,-2.1809,-2.0569,2.998
9.958000,-0.3154,-2.2881,-2.4612,3.375
9.964000,-0.6971,-2.3784,-2.7697,3.717
9.969000,-1.1467,-2.3888,-2.9532,3.968
9.974000,-1.6306,-2.3431,-2.9712,4.120
9.979000,-2.1030,-2.2265,-2.8216,4.164
9.984000,-2.5348,-2.0722,-2.5430,4.146
9.990000,-2.8760,-1.9232,-2.1771,4.088
9.994000,-3.1263,-1.7554,-1.7432,3.987
9.999000,-3.3028,-1.5878,-1.2731,3.879
10.004000,-3.4030,-1.4299,-0.8011,3.777
10.045000,-3.4128,-1.3154,-0.3806,3.677
10.045000,-3.3779,-1.2512,-0.0721,3.603
10.046000,-3.2863,-1.1801,0.0546,3.492
10.046000,-3.1265,-1.0833,0.0094,3.309
10.047000,-2.8941,-0.9541,-0.1997,3.054
10.047000,-2.6015,-0.8433,-0.5359,2.787
10.047000,-2.2971,-0.7850,-0.9624,2.611
10.048000,-2.0147,-0.8084,-1.4092,2.588
10.050000,-1.7522,-0.9041,-1.8106,2.677
10.055000,-1.5120,-1.0338,-2.1064,2.791
10.060000,-1.2915,-1.1710,-2.2749,2.866
10.065000,-1.1289,-1.2846,-2.3449,2.902
10.070000,-1.0265,-1.3841,-2.3480,2.912
10.074000,-0.9601,-1.4621,-2.2939,2.885
10.080000,-0.9106,-1.5521,-2.1780,2.825
10.085000,-0.8587,-1.6397,-1.9982,2.724
10.089000,-0.8235,-1.7175,-1.7575,2.592
10.126000,-0.8144,-1.8071,-1.4638,2.464
10.127000,-0.8601,-1.9201,-1.1660,2.405
10.128000,-0.9601,-2.0228,-0.8841,2.407
10.128000,-1.0808,-2.0907,-0.6544,2.443
10.128000,-1.1979,-2.0975,-0.5082,2.468
10.129000,-1.3019,-2.0863,-0.4381,2.498
10.129000,-1.4190,-2.0832,-0.4105,2.554
10.129000,-1.5467,-2.0763,-0.4207,2.623
10.135000,-1.7161,-2.0701,-0.4615,2.728
10.140000,-1.8812,-2.0835,-0.5208,2.855
10.146000,-2.0348,-2.0804,-0.5842,2.968
10.149000,-2.1480,-2.0488,-0.6252,3.034
10.155000,-2.2588,-1.9692,-0.6126,3.059
10.160000,-2.3388,-1.8419,-0.5677,3.031
10.165000,-2.3494,-1.6766,-0.5361,2.936
10.170000,-2.2693,-1.4804,-0.5508,2.765
10.174000,-2.1300,-1.2538,-0.5998,2.543
10.181000,-1.9602,-1.0162,-0.6850,2.312
10.186000,-1.7657,-0.7564,-0.8058,2.083
10.190000,-1.5440,-0.4772,-0.9304,1.865
10.200000,-1.3051,-0.1860,-1.0517,1.686
10.202000,-1.0855,0.0878,-1.2052,1.624
10.205000,-0.8899,0.3395,-1.3907,1.686
10.261000,-0.7382,0.5683,-1.5837,1.837
10.262000,-0.6039,0.7839,-1.7505,2.011
10.263000,-0.5110,0.9503,-1.8812,2.169
10.264000,-0.4139,1.0606,-1.9662,2.272
10.264000,-0.2959,1.1530,-1.9984,2.326
10.265000,-0.2048,1.2422,-1.9735,2.341
10.266000,-0.1433,1.3182,-1.9180,2.332
10.266000,-0.0991,1.3885,-1.8228,2.294
10.267000,-0.0840,1.4580,-1.6882,2.232
10.267000,-0.0811,1.5174,-1.5288,2.155
10.267000,-0.0876,1.5860,-1.3713,2.099
10.268000,-0.0822,1.6423,-1.2138,2.044
10.270000,-0.0791,1.6889,-1.0565,1.994
10.275000,-0.0590,1.7043,-0.9043,1.930
10.280000,-0.0529,1.6888,-0.7672,1.856
10.287000,-0.0318,1.6808,-0.6429,1.800
10.291000,0.0379,1.6758,-0.5625,1.768
10.296000,0.1750,1.7117,-0.4952,1.790
10.300000,0.3627,1.7813,-0.4142,1.864
10.304000,0.5767,1.8915,-0.3366,2.006
10.312000,0.7832,2.0491,-0.2695,2.210
10.318000,0.9797,2.2229,-0.1889,2.437
10.319000,1.1176,2.3716,-0.0997,2.624
10.364000,1.2139,2.5001,-0.0065,2.779
10.366000,1.2711,2.5893,0.0883,2.886
10.366000,1.2988,2.6777,0.1822,2.982
10.367000,1.3093,2.7631,0.2611,3.069
10.367000,1.3311,2.8382,0.3368,3.153
10.367000,1.3428,2.9246,0.3975,3.243
10.368000,1.3422,3.0176,0.4240,3.330
10.368000,1.3628,3.0910,0.4259,3.405
10.368000,1.4023,3.1784,0.4227,3.500
10.371000,1.4512,3.2727,0.3853,3.601
10.376000,1.5306,3.3855,0.3163,3.729
10.380000,1.6336,3.4954,0.2449,3.866
10.386000,1.7671,3.5832,0.1687,3.999
10.391000,1.8927,3.6416,0.1260,4.106
10.395000,1.9940,3.6949,0.0974,4.200
10.400000,2.0875,3.7357,0.0423,4.280
10.406000,2.1926,3.7738,-0.0277,4.365
10.411000,2.3188,3.8163,-0.1263,4.467
10.416000,2.4852,3.8560,-0.2200,4.593
10.419000,2.6845,3.9073,-0.2917,4.750
10.464000,2.8995,3.9721,-0.3556,4.931
10.465000,3.1417,4.0788,-0.4236,5.166
10.466000,3.3869,4.1817,-0.4716,5.402
10.466000,3.6274,4.2446,-0.5090,5.607
10.467000,3.8582,4.2508,-0.5404,5.766
10.467000,4.0507,4.1810,-0.5441,5.847
10.468000,4.1901,4.0639,-0.4987,5.858
10.468000,4.2914,3.9021,-0.4280,5.816
10.469000,4.3930,3.6888,-0.3202,5.745
10.471000,4.5048,3.4721,-0.1780,5.690
10.476000,4.6174,3.2235,0.0031,5.631
10.481000,4.7431,2.9862,0.1988,5.608
10.488000,4.8916,2.7533,0.3824,5.626
10.492000,5.0558,2.5512,0.5152,5.686
10.496000,5.2215,2.3631,0.5855,5.761
10.500000,5.3888,2.1916,0.5959,5.848
10.510000,5.5816,2.0628,0.5825,5.979
10.511000,5.8119,1.9721,0.5456,6.162
10.516000,6.0816,1.9333,0.4714,6.399
10.520000,6.3810,1.9294,0.3554,6.676
10.533000,6.6903,1.9050,0.2171,6.960
10.534000,6.9900,1.8455,0.0950,7.230
10.536000,7.2800,1.7148,0.0131,7.479
10.540000,7.5671,1.5534,-0.0237,7.725
10.586000,7.8393,1.3445,0.0228,7.954
10.588000,8.0822,1.1072,0.1259,8.159
10.589000,8.2525,0.8436,0.2755,8.300
10.589000,8.3793,0.5828,0.4589,8.412
10.590000,8.4458,0.3534,0.6708,8.480
10.591000,8.4354,0.1913,0.9080,8.486
10.591000,8.3317,0.0774,1.1771,8.415
10.592000,8.1348,0.0141,1.4538,8.264
10.593000,7.8312,0.0258,1.7227,8.018
10.593000,7.4640,0.1221,1.9381,7.713
10.597000,7.0408,0.2982,2.1024,7.354
10.601000,6.5690,0.5590,2.2391,6.963
10.607000,6.1344,0.8707,2.3147,6.614
10.612000,5.7640,1.2481,2.3271,6.340
10.616000,5.4668,1.6665,2.3034,6.162
10.622000,5.2567,2.0754,2.2346,6.077
10.629000,5.1355,2.4407,2.1281,6.071
10.631000,5.1122,2.7068,1.9870,6.116
10.635000,5.1619,2.8370,1.8211,6.165
10.641000,5.2584,2.8220,1.6403,6.189
10.682000,5.3629,2.6706,1.4904,6.174
10.683000,5.4251,2.4114,1.3785,6.095
10.684000,5.4572,2.0661,1.2879,5.976
10.686000,5.4614,1.6510,1.2043,5.831
10.687000,5.4413,1.1908,1.1327,5.684
10.688000,5.3874,0.6616,1.0705,5.532
10.689000,5.2810,0.0850,0.9630,5.369
10.690000,5.1633,-0.5170,0.8560,5.259
10.693000,5.0463,-1.1497,0.7424,5.229
10.694000,4.8811,-1.7876,0.6297,5.236
10.698000,4.6632,-2.4091,0.5370,5.276
10.703000,4.4408,-3.0069,0.4667,5.383
10.706000,4.2169,-3.5325,0.4405,5.519
10.712000,3.9608,-4.0192,0.4391,5.660
10.716000,3.6771,-4.4266,0.4263,5.770
10.721000,3.3718,-4.7555,0.3855,5.842
10.727000,3.0426,-5.0083,0.3454,5.870
10.731000,2.6801,-5.1993,0.3159,5.858
10.736000,2.3157,-5.3399,0.2610,5.826
10.741000,1.9730,-5.3901,0.2263,5.744
10.748000,1.6407,-5.3795,0.2046,5.628
10.751000,1.3400,-5.3136,0.2026,5.484
10.755000,1.0826,-5.2187,0.2490,5.336
10.804000,0.8564,-5.1141,0.3312,5.196
10.808000,0.6753,-4.9886,0.4417,5.053
10.809000,0.5110,-4.8675,0.5633,4.927
10.812000,0.3654,-4.7634,0.6716,4.824
10.812000,0.1977,-4.6742,0.7687,4.741
10.813000,0.0102,-4.6382,0.8423,4.714
10.813000,-0.1923,-4.6123,0.8782,4.699
10.814000,-0.4099,-4.6185,0.8952,4.722
10.815000,-0.6255,-4.6625,0.9126,4.792
10.816000,-0.8557,-4.7088,0.9063,4.871
10.817000,-1.1056,-4.7358,0.8690,4.940
10.817000,-1.3653,-4.7314,0.7938,4.988
10.821000,-1.6328,-4.7249,0.6905,5.047
10.829000,-1.8979,-4.7218,0.5788,5.122
10.831000,-2.1560,-4.7110,0.4664,5.202
10.837000,-2.4120,-4.7065,0.3823,5.302
10.842000,-2.6633,-4.7131,0.3389,5.424
10.847000,-2.8984,-4.7383,0.3385,5.565
10.852000,-3.1407,-4.7711,0.3575,5.723
10.857000,-3.3593,-4.8285,0.4008,5.896
10.861000,-3.5614,-4.8792,0.4347,6.056
10.866000,-3.7639,-4.9136,0.4666,6.207
10.871000,-3.9548,-4.9365,0.4893,6.344
10.919000,-4.1321,-4.9389,0.5151,6.460
10.921000,-4.3074,-4.9577,0.5397,6.590
10.922000,-4.4594,-4.9768,0.5654,6.706
10.922000,-4.5955,-4.9939,0.5972,6.813
10.923000,-4.7372,-5.0185,0.6230,6.929
10.923000,-4.8847,-5.0537,0.6306,7.057
10.924000,-5.0331,-5.0792,0.6154,7.177
10.924000,-5.1515,-5.0931,0.5987,7.269
10.925000,-5.2854,-5.1122,0.5901,7.377
10.926000,-5.4563,-5.1554,0.5823,7.529
10.929000,-5.6333,-5.1944,0.5705,7.684
10.931000,-5.8066,-5.2277,0.5382,7.832
10.936000,-5.9907,-5.2606,0.4710,7.986
10.941000,-6.1737,-5.2928,0.3735,8.140
10.948000,-6.3222,-5.3168,0.2552,8.265
10.952000,-6.4434,-5.3182,0.1473,8.356
10.957000,-6.5831,-5.3191,0.0496,8.464
10.963000,-6.7170,-5.3301,-0.0500,8.575
10.968000,-6.8312,-5.3635,-0.1419,8.686
10.972000,-6.9280,-5.4144,-0.2022,8.795
11.022000,-7.0194,-5.4657,-0.2522,8.900
11.023000,-7.1103,-5.5080,-0.2921,8.999
11.024000,-7.1841,-5.5358,-0.3385,9.076
11.024000,-7.2335,-5.5541,-0.3842,9.128
11.024000,-7.2492,-5.5699,-0.4339,9.152
11.025000,-7.2455,-5.6120,-0.4902,9.178
11.025000,-7.2154,-5.6684,-0.5412,9.192
11.027000,-7.2067,-5.7176,-0.5820,9.218
11.028000,-7.1668,-5.7593,-0.6246,9.215
11.028000,-7.1460,-5.8221,-0.6621,9.241
11.029000,-7.0941,-5.8918,-0.6948,9.248
11.032000,-7.0206,-5.9610,-0.7370,9.239
11.036000,-6.9327,-6.0274,-0.7529,9.217
11.042000,-6.8687,-6.0813,-0.7618,9.205
11.047000,-6.7305,-6.1083,-0.7710,9.122
11.051000,-6.3580,-5.9415,-0.7779,8.737
11.057000,-6.2153,-5.9669,-0.6827,8.643
11.061000,-6.0653,-5.9804,-0.7747,8.553
11.067000,-5.9941,-5.9777,-0.8403,8.507
11.071000,-5.9753,-6.0160,-0.8252,8.519
11.077000,-5.9273,-6.0306,-0.7968,8.493
11.083000,-5.8455,-6.0142,-0.7523,8.421
11.086000,-5.6914,-5.9862,-0.7039,8.290
11.091000,-5.3981,-5.9632,-0.6822,8.072
11.123000,-4.9898,-5.9322,-0.6939,7.783
11.124000,-4.6553,-5.9603,-0.6768,7.593
11.125000,-4.4353,-6.0477,-0.6883,7.531
11.125000,-4.2577,-6.1630,-0.7451,7.528
11.125000,-4.0243,-6.3224,-0.8517,7.543
11.126000,-3.7114,-6.4958,-0.9528,7.542
11.128000,-3.3666,-6.6998,-1.0058,7.565
11.133000,-3.0666,-6.9104,-1.0279,7.630
11.138000,-2.8614,-7.1421,-1.0240,7.762
11.141000,-2.7219,-7.3747,-1.0230,7.927
11.148000,-2.5931,-7.6328,-1.0151,8.125
11.151000,-2.4699,-7.8843,-0.9904,8.321
11.156000,-2.3161,-8.1168,-0.9605,8.495
11.162000,-2.1149,-8.3946,-0.9536,8.709
11.167000,-1.8373,-8.7080,-1.0318,8.959
11.171000,-1.4880,-9.0419,-1.1849,9.240
11.178000,-1.1555,-9.3594,-1.3764,9.530
11.184000,-0.8872,-9.6504,-1.5917,9.821
11.188000,-0.6948,-9.8572,-1.7897,10.042
11.192000,-0.6089,-9.9583,-1.9487,10.165
11.245000,-0.5569,-9.9216,-2.0156,10.140
11.248000,-0.4768,-9.7154,-1.9377,9.918
11.248000,-0.3298,-9.3560,-1.6667,9.509
11.249000,-0.1541,-8.8730,-1.2007,8.955
11.249000,0.0169,-8.2406,-0.5666,8.260
11.250000,0.2100,-7.5069,0.1031,7.511
11.250000,0.4792,-6.7488,0.7524,6.807
11.251000,0.8630,-6.0283,1.3834,6.245
11.251000,1.3751,-5.3371,2.0002,5.863
11.252000,2.0148,-4.6763,2.5927,5.714
11.252000,2.6833,-4.0924,3.1430,5.816
11.253000,3.4380,-3.5804,3.6050,6.135
11.256000,4.2600,-3.1407,3.9676,6.615
11.262000,5.1083,-2.7517,4.2014,7.164
11.267000,5.9315,-2.3976,4.2789,7.697
11.273000,6.6906,-2.0672,4.1928,8.162
11.277000,7.3109,-1.7843,3.9623,8.505
11.283000,7.7861,-1.5700,3.5853,8.714
11.289000,8.1090,-1.4188,3.0773,8.789
11.296000,8.2869,-1.3593,2.4586,8.750
11.298000,8.3101,-1.3813,1.7785,8.610
11.303000,8.2249,-1.4528,1.0862,8.423
11.307000,8.0428,-1.5477,0.4504,8.203
11.360000,7.7959,-1.6409,-0.0632,7.967
11.361000,7.4607,-1.7125,-0.4492,7.668
11.362000,7.0617,-1.7355,-0.6977,7.305
11.362000,6.6163,-1.7164,-0.8300,6.886
11.362000,6.1375,-1.6302,-0.8296,6.404
11.363000,5.6611,-1.4937,-0.7303,5.900
11.363000,5.2310,-1.2843,-0.5590,5.415
11.363000,4.9145,-1.0090,-0.2945,5.026
11.364000,4.7067,-0.6319,0.0552,4.749
11.364000,4.6004,-0.2007,0.4961,4.631
11.364000,4.5010,0.2690,0.9787,4.614
11.368000,4.3846,0.7418,1.4033,4.663
11.373000,4.2916,1.2245,1.6925,4.773
11.377000,4.2405,1.6978,1.8699,4.936
11.382000,4.1859,2.1521,1.9522,5.096
11.387000,4.0811,2.5866,1.9897,5.225
11.392000,3.9312,2.9919,1.9943,5.328
11.397000,3.7645,3.3439,1.9323,5.393
11.401000,3.5835,3.6453,1.7800,5.413
11.408000,3.3833,3.8769,1.5379,5.371
11.413000,3.1239,4.0512,1.2377,5.263
11.417000,2.8481,4.1059,0.8781,5.074
11.421000,2.5877,4.0943,0.5197,4.871
11.453000,2.2093,4.0431,0.3355,4.620
11.454000,2.0843,3.9625,0.0457,4.477
11.455000,2.0380,3.9100,-0.1836,4.413
11.455000,2.0366,3.8518,-0.3806,4.374
11.455000,1.9320,3.8000,-0.5211,4.295
11.456000,1.7366,3.7717,-0.6098,4.197
11.458000,1.5035,3.7672,-0.6560,4.109
11.463000,1.3026,3.7724,-0.6837,4.049
11.467000,1.1982,3.7489,-0.7068,3.999
11.472000,1.1714,3.7113,-0.7084,3.956
11.477000,1.1718,3.6787,-0.6789,3.920
11.482000,1.1851,3.6582,-0.6183,3.895
11.487000,1.2351,3.6427,-0.5268,3.882
11.492000,1.3438,3.6421,-0.4021,3.903
11.497000,1.4792,3.6700,-0.2732,3.966
11.504000,1.6224,3.7028,-0.1478,4.045
11.511000,1.7829,3.7595,-0.0548,4.161
11.512000,1.9724,3.8304,-0.0041,4.308
11.521000,2.1935,3.8869,0.0353,4.463
11.528000,2.4023,3.9524,0.0729,4.626
11.528000,2.6183,4.0655,0.0869,4.836
11.549000,2.8484,4.1923,0.0533,5.069
11.550000,3.0901,4.3329,-0.0372,5.322
11.550000,3.3264,4.4751,-0.1963,5.579
11.550000,3.5687,4.6114,-0.3710,5.843
11.554000,3.8050,4.7274,-0.4890,6.088
11.558000,3.9993,4.8493,-0.5121,6.307
11.562000,4.1731,4.9604,-0.4427,6.497
11.568000,4.3167,5.0703,-0.3172,6.667
11.572000,4.4997,5.1719,-0.1646,6.857
11.577000,4.6998,5.2385,0.0002,7.038
11.583000,4.9196,5.2824,0.1699,7.220
11.587000,5.1588,5.2771,0.3273,7.387
11.592000,5.3767,5.2658,0.4982,7.542
11.597000,5.5828,5.2653,0.6419,7.701
11.602000,5.7717,5.2824,0.7602,7.861
11.607000,5.9269,5.2838,0.8557,7.986
11.612000,6.0411,5.2933,0.9403,8.087
11.617000,6.1452,5.2869,0.9947,8.167
11.622000,6.2464,5.2624,1.0093,8.230
11.628000,6.3492,5.2124,1.0009,8.275
11.633000,6.4296,5.1249,0.9722,8.279
11.637000,6.4660,5.0143,0.9378,8.236
11.669000,6.4780,4.8521,0.9071,8.144
11.670000,6.4561,4.6792,0.8875,8.023
11.670000,6.4126,4.5171,0.8717,7.892
11.671000,6.3596,4.3826,0.8360,7.769
11.671000,6.3596,4.2353,0.7830,7.681
11.671000,6.4198,4.0465,0.7294,7.624
11.673000,6.5093,3.8259,0.6754,7.580
11.679000,6.6423,3.5806,0.6474,7.574
11.683000,6.7903,3.3301,0.6212,7.588
11.689000,6.8816,3.1220,0.6257,7.583
11.693000,6.9522,2.9637,0.6294,7.584
11.699000,7.0166,2.8980,0.5797,7.614
11.703000,7.1153,2.9009,0.5200,7.701
11.709000,7.2218,2.9100,0.4530,7.799
11.713000,7.4075,2.9012,0.3332,7.962
11.718000,7.6865,2.8407,0.1422,8.196
11.723000,8.0293,2.6829,-0.0549,8.466
11.729000,8.3996,2.4347,-0.2672,8.749
11.733000,8.7492,2.1415,-0.4297,9.018
11.738000,9.0231,1.8293,-0.5088,9.221
11.757000,9.1923,1.5339,-0.4981,9.333
11.759000,9.2044,1.3007,-0.3408,9.302
11.761000,9.0530,1.1682,-0.0810,9.128
11.764000,8.7528,1.1411,0.2181,8.830
11.765000,8.3794,1.2248,0.5243,8.485
11.768000,8.0069,1.4049,0.7463,8.163
11.773000,7.7096,1.6406,0.8479,7.928
11.826000,7.5231,1.8862,0.8344,7.801
11.828000,7.4660,2.0982,0.6799,7.785
11.829000,7.5037,2.2879,0.4473,7.857
11.830000,7.5596,2.4024,0.1616,7.934
11.830000,7.6211,2.3862,-0.1286,7.987
11.831000,7.6904,2.2559,-0.3700,8.023
11.831000,7.7267,2.0088,-0.6075,8.007
11.831000,7.7300,1.6711,-0.8241,7.951
11.832000,7.6968,1.2746,-1.0763,7.875
11.832000,7.6485,0.8646,-1.3012,7.806
11.833000,7.6261,0.4361,-1.4886,7.782
11.836000,7.6391,-0.0086,-1.6116,7.807
11.839000,7.6656,-0.4559,-1.6508,7.855
11.843000,7.6900,-0.9312,-1.5824,7.906
11.848000,7.6353,-1.4951,-1.4760,7.919
11.854000,7.4811,-2.1111,-1.2698,7.876
11.858000,7.2999,-2.6852,-0.9834,7.840
11.865000,6.9753,-3.2362,-0.6678,7.718
11.868000,6.6630,-3.7739,-0.3857,7.667
11.873000,6.3479,-4.2677,-0.0758,7.649
11.923000,6.0273,-4.6749,0.2449,7.632
11.924000,5.6635,-4.9928,0.5681,7.571
11.924000,5.2355,-5.2375,0.8765,7.457
11.925000,4.7597,-5.3784,1.1814,7.279
11.925000,4.2639,-5.4086,1.4407,7.036
11.926000,3.8004,-5.3429,1.6473,6.760
11.926000,3.3428,-5.1838,1.7867,6.422
11.926000,2.9221,-4.9598,1.8517,6.047
11.927000,2.5734,-4.6958,1.8283,5.658
11.927000,2.3047,-4.4360,1.7406,5.293
11.930000,2.1247,-4.1861,1.6031,4.961
11.934000,2.0329,-3.9656,1.4353,4.682
11.939000,1.9978,-3.7895,1.2897,4.474
11.945000,1.9928,-3.6700,1.1878,4.342
11.949000,1.9597,-3.6036,1.1005,4.247
11.953000,1.8826,-3.5769,1.0513,4.177
11.958000,1.7373,-3.5572,0.9971,4.082
11.965000,1.5549,-3.5779,0.9189,4.008
11.968000,1.3430,-3.6007,0.8291,3.931
11.973000,1.1107,-3.6098,0.7304,3.847
12.019000,0.8924,-3.6369,0.6374,3.799
12.021000,0.6590,-3.6737,0.5601,3.774
12.021000,0.4059,-3.7462,0.4816,3.799
12.022000,0.1213,-3.8399,0.4116,3.864
12.022000,-0.1783,-3.9509,0.3716,3.972
12.023000,-0.4800,-4.0938,0.3786,4.139
12.023000,-0.7984,-4.2667,0.4326,4.362
12.026000,-1.1213,-4.4715,0.5242,4.640
12.027000,-1.4389,-4.6840,0.5888,4.935
12.029000,-1.7204,-4.9046,0.6792,5.242
12.029000,-2.0010,-5.1333,0.7624,5.562
12.034000,-2.2714,-5.3614,0.8527,5.885
12.042000,-2.5364,-5.5981,0.9792,6.223
12.046000,-2.8222,-5.8069,1.1106,6.551
12.057000,-3.1192,-5.9899,1.2375,6.866
12.058000,-3.4134,-6.1334,1.3648,7.151
12.060000,-3.6780,-6.2399,1.4740,7.392
12.065000,-3.9445,-6.3367,1.5293,7.619
12.069000,-4.1913,-6.4306,1.5430,7.829
12.074000,-4.3685,-6.5191,1.5246,7.994
12.104000,-4.5170,-6.6031,1.4938,8.139
12.105000,-4.6510,-6.6807,1.4818,8.274
12.105000,-4.7422,-6.7646,1.4886,8.394
12.106000,-4.8264,-6.8524,1.4995,8.515
12.106000,-4.9232,-6.9466,1.4734,8.641
12.107000,-5.0182,-7.0206,1.4026,8.743
12.111000,-5.0877,-7.0727,1.2989,8.809
12.114000,-5.1725,-7.1327,1.1907,8.891
12.120000,-5.2727,-7.1655,1.0830,8.962
12.127000,-5.3835,-7.1901,0.9517,9.032
12.130000,-5.5075,-7.2280,0.8304,9.125
12.135000,-5.6472,-7.2819,0.7071,9.242
12.140000,-5.8193,-7.3577,0.5885,9.399
12.147000,-6.0097,-7.4556,0.4769,9.588
12.150000,-6.1993,-7.5801,0.3818,9.800
12.154000,-6.3739,-7.7069,0.3221,10.006
12.162000,-6.5288,-7.8145,0.3025,10.187
12.167000,-6.6691,-7.9115,0.3181,10.352
12.170000,-6.8068,-7.9740,0.3427,10.490
12.175000,-6.9373,-8.0425,0.3789,10.628
12.221000,-7.0654,-8.0785,0.4172,10.740
12.222000,-7.1482,-8.1058,0.4768,10.818
12.223000,-7.1858,-8.1294,0.5433,10.864
12.223000,-7.2167,-8.1105,0.6025,10.873
12.224000,-7.2121,-8.0758,0.6209,10.845
12.225000,-7.1602,-7.9942,0.6129,10.750
12.226000,-7.0492,-7.8876,0.6001,10.596
12.227000,-6.8934,-7.7494,0.5799,10.388
12.228000,-6.7071,-7.6065,0.5261,10.155
12.228000,-6.5335,-7.4832,0.4529,9.944
12.231000,-6.3725,-7.4299,0.3931,9.796
12.234000,-6.2194,-7.4253,0.3537,9.692
12.239000,-6.0670,-7.4572,0.2914,9.618
12.245000,-5.9104,-7.4732,0.2038,9.530
12.249000,-5.7903,-7.4972,0.1240,9.474
12.254000,-5.7018,-7.5028,0.0615,9.424
12.261000,-5.6593,-7.4880,0.0207,9.386
12.266000,-5.6411,-7.4620,0.0088,9.354
12.269000,-5.6304,-7.4631,0.0118,9.349
12.275000,-5.6223,-7.5175,-0.0276,9.387
12.279000,-5.5330,-7.6394,-0.0920,9.433
12.284000,-5.3482,-7.8454,-0.1549,9.496
12.289000,-5.0822,-8.1305,-0.2449,9.591
12.327000,-4.8020,-8.4778,-0.3593,9.750
12.329000,-4.5602,-8.8781,-0.5173,9.994
12.330000,-4.4307,-9.3189,-0.7212,10.344
12.330000,-4.4276,-9.7730,-0.9303,10.769
12.331000,-4.5626,-10.1749,-1.1539,11.211
12.332000,-4.8185,-10.4852,-1.3440,11.617
12.333000,-5.1089,-10.6518,-1.4979,11.908
12.334000,-5.3975,-10.6490,-1.6051,12.046
12.334000,-5.5619,-10.4447,-1.6387,11.946
12.340000,-5.5612,-10.1059,-1.5552,11.639
12.345000,-5.2852,-9.6453,-1.3154,11.077
12.349000,-4.7314,-9.0944,-0.9217,10.293
12.354000,-3.9550,-8.4903,-0.3761,9.374
12.360000,-3.0757,-7.8483,0.2322,8.433
12.365000,-2.1654,-7.2493,0.8137,7.609
12.369000,-1.2315,-6.7234,1.3244,6.962
12.374000,-0.2980,-6.2020,1.7803,6.459
12.380000,0.5437,-5.7360,2.1591,6.153
12.385000,1.3173,-5.3734,2.4218,6.039
12.390000,2.0346,-5.1362,2.5485,6.084
12.435000,2.6857,-5.0488,2.5172,6.248
12.437000,3.2301,-5.0888,2.3082,6.454
12.437000,3.6051,-5.2460,1.9145,6.647
12.438000,3.7848,-5.5044,1.3391,6.813
12.438000,3.8389,-5.7963,0.6646,6.984
12.439000,3.8683,-6.0731,0.0402,7.201
12.439000,3.8754,-6.3273,-0.4757,7.435
12.440000,3.8370,-6.5336,-0.8847,7.628
12.440000,3.7670,-6.6906,-1.1789,7.768
12.441000,3.6948,-6.7756,-1.3889,7.842
12.445000,3.6015,-6.7763,-1.5357,7.826
12.449000,3.4993,-6.6831,-1.5972,7.711
12.455000,3.4244,-6.5071,-1.5516,7.515
12.460000,3.3715,-6.2024,-1.3419,7.186
12.465000,3.3266,-5.7947,-0.9949,6.755
12.470000,3.2895,-5.3467,-0.6022,6.306
12.474000,3.2841,-4.8369,-0.1908,5.850
12.480000,3.3442,-4.2770,0.1909,5.433
12.485000,3.4494,-3.6835,0.5254,5.074
12.491000,3.5853,-3.0755,0.8075,4.792
12.496000,3.7227,-2.4344,1.0727,4.576
12.501000,3.8803,-1.7919,1.3468,4.481
12.504000,4.0527,-1.1390,1.6076,4.506
12.552000,4.1944,-0.5308,1.8546,4.617
12.554000,4.3038,0.0217,2.0536,4.769
12.556000,4.3644,0.5189,2.2019,4.916
12.556000,4.3832,0.9347,2.2849,5.031
12.557000,4.3577,1.2932,2.2883,5.089
12.557000,4.2667,1.5951,2.2146,5.065
12.558000,4.1406,1.8493,2.0738,4.986
12.558000,4.0039,2.0567,1.8925,4.883
12.559000,3.8878,2.2199,1.6978,4.788
12.559000,3.7876,2.3514,1.4971,4.703
12.563000,3.7111,2.4518,1.2978,4.633
12.567000,3.6238,2.5443,1.1072,4.564
12.570000,3.5409,2.6463,0.9066,4.513
12.576000,3.4718,2.7294,0.6963,4.471
12.580000,3.4214,2.8055,0.5032,4.453
12.585000,3.3825,2.8628,0.3659,4.446
12.589000,3.3435,2.8995,0.3034,4.436
12.596000,3.3253,2.9410,0.3130,4.450
12.599000,3.3353,2.9808,0.3680,4.488
12.604000,3.3566,3.0333,0.4293,4.544
12.613000,3.3845,3.0816,0.4177,4.596
12.616000,3.4408,3.1405,0.3261,4.670
12.620000,3.5197,3.1782,0.1788,4.746
12.624000,3.6142,3.2307,0.0288,4.848
12.664000,3.6813,3.2790,-0.1239,4.931
12.665000,3.7039,3.3396,-0.2816,4.995
12.666000,3.6942,3.3888,-0.4441,5.033
12.666000,3.6814,3.4460,-0.6182,5.080
12.666000,3.6336,3.4748,-0.7891,5.089
12.667000,3.5540,3.4736,-0.9588,5.061
12.667000,3.4645,3.4497,-1.0935,5.010
12.667000,3.3771,3.4321,-1.1762,4.957
12.671000,3.2997,3.4307,-1.1950,4.908
12.676000,3.2557,3.4548,-1.1502,4.884
12.681000,3.2552,3.4975,-1.1020,4.903
12.685000,3.3195,3.5827,-1.0958,5.006
12.691000,3.4485,3.6770,-1.1193,5.164
12.695000,3.6255,3.7754,-1.1627,5.362
12.700000,3.8158,3.8939,-1.2451,5.592
12.705000,3.9980,3.9993,-1.3205,5.807
12.712000,4.1647,4.0961,-1.3383,5.993
12.716000,4.2969,4.1460,-1.3436,6.120
12.720000,4.4591,4.1708,-1.3148,6.246
12.772000,4.6778,4.1539,-1.2398,6.378
12.775000,4.9426,4.1282,-1.1332,6.539
12.777000,5.2128,4.0986,-0.9689,6.701
12.779000,5.4546,4.0698,-0.7135,6.843
12.780000,5.6826,4.0228,-0.4108,6.974
12.780000,5.9159,3.9624,-0.0994,7.121
12.781000,6.1277,3.8669,0.1840,7.248
12.781000,6.3255,3.7318,0.4317,7.357
12.782000,6.5022,3.5717,0.6941,7.451
12.782000,6.6343,3.4202,0.9798,7.528
12.783000,6.7365,3.2776,1.2744,7.599
12.784000,6.8662,3.1607,1.5600,7.718
12.785000,7.0330,3.0912,1.8100,7.893
12.790000,7.2345,3.0617,2.0483,8.118
12.795000,7.4320,3.0627,2.2432,8.345
12.801000,7.6325,3.1132,2.3920,8.583
12.805000,7.8380,3.2010,2.5043,8.829
12.811000,8.0478,3.3113,2.5773,9.076
12.817000,8.2162,3.4130,2.6088,9.271
12.820000,8.3741,3.5156,2.5989,9.447
12.833000,8.5379,3.6069,2.5549,9.614
12.834000,8.7504,3.6987,2.4628,9.814
12.838000,8.9870,3.7931,2.3278,10.029
12.840000,9.2374,3.8539,2.1597,10.239
12.891000,9.5010,3.8784,1.9469,10.445
12.893000,9.7343,3.7801,1.7305,10.585
12.895000,9.8843,3.5518,1.5538,10.617
12.897000,9.9228,3.1722,1.3929,10.510
12.897000,9.7693,2.7040,1.2862,10.218
12.898000,9.4610,2.2101,1.2357,9.794
12.900000,9.0518,1.7939,1.2051,9.306
12.901000,8.5475,1.5537,1.1607,8.765
12.901000,7.9730,1.5114,1.1286,8.193
12.902000,7.4419,1.6434,1.0850,7.698
12.904000,6.9925,1.9256,1.0009,7.322
12.905000,6.6558,2.2669,0.8407,7.081
12.906000,6.4622,2.6192,0.5811,6.997
12.911000,6.3987,2.9577,0.2467,7.054
12.916000,6.4434,3.2536,-0.0964,7.219
12.921000,6.5498,3.4704,-0.4142,7.424
12.926000,6.6858,3.5716,-0.6680,7.609
12.932000,6.7986,3.5570,-0.8429,7.719
12.935000,6.7344,3.4215,-0.9295,7.611
12.941000,7.0273,3.1488,-0.9372,7.757
12.996000,7.1125,2.7531,-0.8996,7.680
12.997000,7.1816,2.2751,-0.8718,7.584
12.998000,7.2445,1.7797,-0.8824,7.512
12.999000,7.2919,1.2905,-0.9311,7.463
13.000000,7.3233,0.8049,-0.9912,7.434
13.001000,7.2994,0.3353,-1.0167,7.378
13.002000,7.2010,-0.1282,-0.9617,7.266
13.003000,7.0332,-0.6188,-0.8549,7.112
13.004000,6.8233,-1.1124,-0.6773,6.946
13.005000,6.5400,-1.6019,-0.4484,6.748
13.006000,6.2022,-2.0549,-0.1593,6.536
13.007000,5.8338,-2.4019,0.1827,6.312
13.008000,5.4307,-2.6928,0.5982,6.091
13.013000,5.0173,-2.8844,1.0480,5.881
13.016000,4.6339,-2.9577,1.5409,5.709
13.022000,4.2696,-2.9379,2.0180,5.562
13.027000,3.9336,-2.8639,2.4259,5.437
13.032000,3.6545,-2.7402,2.7591,5.336
13.036000,3.4320,-2.5958,2.9813,5.235
13.042000,3.2777,-2.4333,3.0995,5.126
13.046000,3.1740,-2.2607,3.1376,5.003
13.052000,3.1071,-2.1084,3.1025,4.871
13.056000,3.0691,-2.0037,3.0040,4.739
13.063000,3.0261,-1.9349,2.8132,4.562
13.065000,2.9089,-1.8877,2.5116,4.282
13.071000,2.7649,-1.8556,2.1234,3.949
13.120000,2.5785,-1.8305,1.6590,3.571
13.125000,2.3874,-1.7916,1.1956,3.215
13.127000,2.1967,-1.7508,0.7507,2.908
13.131000,1.9872,-1.7277,0.3847,2.661
13.132000,1.7825,-1.7444,0.0715,2.495
13.133000,1.5454,-1.7636,-0.1624,2.351
13.134000,1.2829,-1.8145,-0.3241,2.246
13.134000,1.0048,-1.8946,-0.4519,2.192
13.134000,0.7161,-1.9942,-0.5528,2.190
13.135000,0.4337,-2.1036,-0.6171,2.235
13.135000,0.1693,-2.2329,-0.6352,2.328
13.136000,-0.0499,-2.3828,-0.6141,2.461
13.139000,-0.2361,-2.5899,-0.5465,2.657
13.144000,-0.4155,-2.8562,-0.4279,2.918
13.146000,-0.5833,-3.1674,-0.2776,3.233
13.151000,-0.7781,-3.4880,-0.1102,3.575
13.156000,-1.0178,-3.7969,0.0718,3.932
13.163000,-1.2979,-4.0801,0.2449,4.289
13.166000,-1.6015,-4.3206,0.4164,4.627
13.171000,-1.9307,-4.5562,0.5794,4.982
13.218000,-2.2499,-4.7801,0.7195,5.332
13.219000,-2.5821,-4.9900,0.8870,5.688
13.220000,-2.9086,-5.1601,1.0266,6.012
13.220000,-3.2413,-5.2948,1.1313,6.310
13.222000,-3.5634,-5.3890,1.2133,6.574
13.223000,-3.8392,-5.4448,1.2632,6.781
13.224000,-4.0833,-5.4798,1.2766,6.952
13.225000,-4.2906,-5.5185,1.2776,7.106
13.226000,-4.4449,-5.5783,1.2471,7.241
13.227000,-4.5366,-5.6688,1.2284,7.364
13.228000,-4.5924,-5.8067,1.2357,7.506
13.233000,-4.6293,-5.9615,1.2300,7.647
13.236000,-4.6520,-6.1246,1.2131,7.786
13.243000,-4.6726,-6.2679,1.1728,7.905
13.246000,-4.7128,-6.3960,1.1305,8.025
13.252000,-4.7943,-6.5039,1.0861,8.153
13.256000,-4.8405,-6.5828,1.0420,8.237
13.261000,-4.8420,-6.6672,1.0122,8.302
13.267000,-4.8755,-6.7531,0.9536,8.384
13.272000,-4.8981,-6.8498,0.8517,8.464
13.278000,-4.9026,-6.9548,0.7209,8.540
13.281000,-4.9180,-7.0896,0.5753,8.648
13.286000,-4.9611,-7.2307,0.4411,8.780
13.340000,-5.0246,-7.3479,0.2963,8.907
13.343000,-5.0992,-7.4370,0.1553,9.019
13.344000,-5.2064,-7.4931,0.0397,9.124
13.345000,-5.3320,-7.5304,-0.0506,9.227
13.346000,-5.4378,-7.5563,-0.1444,9.311
13.347000,-5.5357,-7.5721,-0.2132,9.382
13.347000,-5.6260,-7.5830,-0.2518,9.445
13.348000,-5.7014,-7.5934,-0.2483,9.499
13.348000,-5.7765,-7.6033,-0.2100,9.551
13.349000,-5.8632,-7.5818,-0.1491,9.586
13.351000,-5.9497,-7.5428,-0.0513,9.607
13.352000,-6.0074,-7.4864,0.0619,9.599
13.353000,-6.0027,-7.4150,0.1787,9.542
13.357000,-5.9358,-7.3360,0.2972,9.441
13.362000,-5.8378,-7.2641,0.4341,9.329
13.367000,-5.7280,-7.1996,0.5916,9.219
13.372000,-5.6685,-7.1402,0.7099,9.144
13.382000,-5.6714,-7.0931,0.8122,9.118
13.384000,-5.6886,-7.0558,0.9079,9.109
13.386000,-5.7082,-7.0233,0.9804,9.103
13.391000,-5.7039,-7.0027,1.0135,9.088
13.444000,-5.6086,-7.0109,0.9840,9.032
13.445000,-5.3625,-7.0432,0.8683,8.895
13.445000,-4.9492,-7.1384,0.6621,8.711
13.446000,-4.4715,-7.2972,0.4131,8.568
13.446000,-4.0277,-7.5392,0.1116,8.548
13.446000,-3.6919,-7.8219,-0.2477,8.653
13.447000,-3.5285,-8.1091,-0.6554,8.868
13.447000,-3.5251,-8.3431,-1.0753,9.121
13.448000,-3.7126,-8.4895,-1.4209,9.374
13.448000,-4.0548,-8.5686,-1.6803,9.627
13.448000,-4.4722,-8.5824,-1.8504,9.853
13.453000,-4.8643,-8.5342,-1.9526,10.015
13.457000,-5.1613,-8.4403,-1.9408,10.082
13.462000,-5.3870,-8.3050,-1.8247,10.066
13.467000,-5.4434,-8.0946,-1.5802,9.882
13.472000,-5.2943,-7.8256,-1.1306,9.516
13.478000,-4.9161,-7.5262,-0.5311,9.005
13.482000,-4.3975,-7.2376,0.1223,8.470
13.487000,-4.3745,-6.9441,0.7811,8.244
13.491000,-3.2135,-6.6492,1.3851,7.514
13.528000,-2.4699,-6.3892,1.8718,7.101
13.528000,-1.6368,-6.1664,2.2676,6.771
13.529000,-0.7741,-5.9504,2.5843,6.533
13.529000,0.0462,-5.7521,2.8309,6.411
13.530000,0.7950,-5.5963,3.0022,6.400
13.530000,1.4245,-5.5118,3.0809,6.473
13.531000,1.8961,-5.5289,2.9829,6.562
13.531000,2.1885,-5.6154,2.7154,6.610
13.537000,2.3044,-5.7588,2.3049,6.617
13.543000,2.2874,-5.9055,1.7567,6.572
13.547000,2.1880,-6.0094,1.1646,6.500
13.553000,2.0163,-6.0502,0.6244,6.408
13.558000,1.7867,-6.0071,0.1655,6.269
13.563000,1.5069,-5.8766,-0.2026,6.070
13.567000,1.2036,-5.6557,-0.4961,5.804
13.573000,0.9275,-5.3441,-0.7196,5.472
13.577000,0.7459,-4.9554,-0.8990,5.091
13.581000,0.6916,-4.4676,-1.0317,4.637
13.588000,0.7312,-3.9262,-1.0625,4.133
13.593000,0.7591,-3.3463,-0.9438,3.559
13.598000,0.8420,-2.7598,-0.7142,2.972
13.602000,1.0177,-2.1839,-0.4264,2.447
13.608000,1.2647,-1.6067,-0.0974,2.047
13.663000,1.5529,-1.0379,0.1840,1.877
13.664000,1.8294,-0.4822,0.3937,1.932
13.665000,2.0840,0.0619,0.5959,2.168
13.665000,2.2803,0.5555,0.7713,2.471
13.666000,2.4064,0.9822,0.9172,2.756
13.667000,2.4732,1.3262,1.0431,2.994
13.668000,2.4689,1.5524,1.1178,3.123
13.668000,2.3960,1.6877,1.1174,3.137
13.668000,2.2333,1.7518,1.0275,3.019
13.669000,1.9912,1.7651,0.8484,2.793
13.670000,1.6981,1.7513,0.6045,2.513
13.670000,1.4098,1.7211,0.3295,2.249
13.672000,1.1532,1.6824,0.0886,2.042
13.677000,0.9643,1.6619,-0.1275,1.926
13.682000,0.8529,1.6648,-0.2803,1.891
13.688000,0.8337,1.6797,-0.3819,1.914
13.693000,0.8461,1.7080,-0.4323,1.954
13.697000,0.9048,1.7693,-0.4196,2.031
13.702000,0.9954,1.8372,-0.3730,2.123
13.707000,1.1128,1.8876,-0.3236,2.215
13.712000,1.2405,1.9353,-0.2642,2.314
13.717000,1.3850,1.9936,-0.2187,2.437
13.722000,1.5297,2.0627,-0.1605,2.573
13.746000,1.6719,2.1259,-0.1043,2.707
13.748000,1.8498,2.1757,-0.0570,2.856
13.748000,2.0660,2.1909,-0.0304,3.012
13.748000,2.2741,2.2161,-0.0078,3.175
13.749000,2.3330,2.2468,0.0299,3.239
13.752000,2.5611,2.2517,0.0732,3.411
13.757000,2.6472,2.2168,0.1241,3.455
13.762000,2.6970,2.1328,0.1708,3.443
13.767000,2.7064,1.9955,0.2152,3.369
13.773000,2.7181,1.8789,0.2693,3.315
13.778000,2.7399,1.7837,0.3064,3.284
13.783000,2.7840,1.7241,0.3289,3.291
13.787000,2.8648,1.6814,0.3246,3.338
13.793000,2.9828,1.6485,0.2937,3.421
13.797000,3.1230,1.6345,0.2435,3.533
13.802000,3.2999,1.6445,0.2171,3.693
13.807000,3.5064,1.6639,0.2313,3.888
13.813000,3.7304,1.7310,0.2547,4.120
13.818000,3.9716,1.8574,0.2776,4.393
13.823000,4.2517,2.0146,0.2858,4.714
13.830000,4.5648,2.2039,0.3009,5.078
13.833000,4.8893,2.3991,0.2989,5.454
13.838000,5.1983,2.5975,0.2775,5.818
13.890000,5.5296,2.7819,0.2391,6.195
13.892000,5.8905,2.9669,0.1864,6.598
13.893000,6.2388,3.1324,0.1408,6.982
13.894000,6.6130,3.2858,0.1145,7.385
13.894000,6.9599,3.4579,0.1219,7.773
13.894000,7.2504,3.6150,0.1700,8.103
13.895000,7.4918,3.7335,0.2344,8.374
13.895000,7.6930,3.8177,0.2958,8.593
13.895000,7.8854,3.8560,0.3252,8.784
13.897000,8.0858,3.8749,0.2700,8.970
13.897000,8.2702,3.9056,0.1880,9.148
13.898000,8.4291,3.9624,0.1938,9.316
13.902000,8.5311,4.0021,0.1963,9.425
13.908000,8.5815,4.0562,0.1860,9.494
13.912000,8.5782,4.1104,0.1846,9.514
13.918000,8.5501,4.1601,0.1778,9.510
13.924000,8.5359,4.2391,0.1824,9.532
13.930000,8.5693,4.3234,0.1599,9.600
13.934000,8.6596,4.4179,0.0939,9.722
13.938000,8.8020,4.5201,0.0013,9.895
14.002000,9.0437,4.5843,-0.1176,10.140
14.003000,9.3748,4.5840,-0.2649,10.439
14.004000,9.7251,4.4948,-0.4261,10.722
14.005000,10.0535,4.2689,-0.5505,10.936
14.006000,10.2835,3.9517,-0.6217,11.034
14.009000,10.3892,3.5818,-0.6543,11.009
14.010000,10.3352,3.2407,-0.6129,10.849
14.011000,10.0864,2.9621,-0.5152,10.525
14.014000,9.6658,2.7971,-0.4358,10.072
14.014000,9.1461,2.7577,-0.4157,9.562
14.015000,8.6163,2.8346,-0.5028,9.085
14.016000,8.1343,3.0662,-0.7084,8.722
14.017000,7.7093,3.3540,-0.9838,8.465
14.017000,7.3959,3.7071,-1.2662,8.369
14.018000,7.2318,4.0727,-1.5355,8.441
14.019000,7.0939,4.3662,-1.7868,8.519
14.025000,6.9913,4.5634,-2.0075,8.587
14.034000,6.9256,4.6375,-2.1539,8.609
14.036000,6.8508,4.6001,-2.1898,8.538
14.039000,6.7555,4.4325,-2.1058,8.350
14.043000,6.6609,4.1058,-1.9743,8.070
14.103000,6.5579,3.6465,-1.8361,7.725
14.104000,6.4442,3.1147,-1.6964,7.356
14.106000,6.2965,2.5177,-1.5363,6.953
14.108000,6.0861,1.9178,-1.3773,6.528
14.110000,5.8410,1.3257,-1.2508,6.119
14.110000,5.6188,0.7460,-1.1732,5.788
14.112000,5.4343,0.1889,-1.0746,5.543
14.113000,5.2713,-0.3168,-0.9217,5.361
14.114000,5.1032,-0.7760,-0.7575,5.217
14.114000,4.9269,-1.1588,-0.6397,5.102
14.115000,4.7660,-1.4438,-0.5703,5.012
14.115000,4.6041,-1.6358,-0.5275,4.914
14.116000,4.5106,-1.7132,-0.5157,4.852
14.116000,4.4610,-1.6767,-0.4725,4.789
14.120000,4.4318,-1.5547,-0.3552,4.710
14.126000,4.3768,-1.3864,-0.1668,4.594
14.129000,4.2767,-1.2341,0.0608,4.452
14.135000,4.1674,-1.0956,0.3126,4.320
14.138000,4.0463,-0.9543,0.5782,4.197
14.145000,3.9297,-0.8491,0.8404,4.107
14.148000,3.8350,-0.7505,1.0812,4.055
14.153000,3.7254,-0.6809,1.3145,4.009
14.158000,3.5676,-0.6213,1.5301,3.931
14.164000,3.4092,-0.6053,1.7135,3.863
14.167000,3.2547,-0.6337,1.8740,3.809
14.173000,3.0928,-0.6933,2.0043,3.750
14.224000,2.8707,-0.7921,2.0922,3.639
14.226000,2.5910,-0.9299,2.1187,3.474
14.227000,2.3017,-1.0970,2.0527,3.273
14.227000,2.0172,-1.3127,1.9330,3.087
14.228000,1.7243,-1.5732,1.7581,2.922
14.228000,1.4348,-1.8643,1.5500,2.817
14.229000,1.1563,-2.1689,1.3213,2.791
14.229000,0.8914,-2.4651,1.0820,2.836
14.230000,0.6402,-2.7167,0.8492,2.917
14.230000,0.3883,-2.9387,0.6354,3.032
14.231000,0.1150,-3.1150,0.4601,3.151
14.233000,-0.1465,-3.2558,0.3019,3.273
14.239000,-0.3866,-3.3633,0.1920,3.391
14.244000,-0.5979,-3.4517,0.1332,3.506
14.249000,-0.7858,-3.5171,0.1014,3.605
14.254000,-0.9664,-3.5793,0.0941,3.709
14.259000,-1.1257,-3.6274,0.1134,3.800
14.265000,-1.2924,-3.6686,0.1425,3.892
14.268000,-1.4596,-3.7196,0.2152,4.001
14.275000,-1.6274,-3.7621,0.3193,4.111
14.279000,-1.7833,-3.8448,0.4619,4.263
14.284000,-1.9540,-3.9708,0.6215,4.469
14.289000,-2.1346,-4.1015,0.7881,4.690
14.336000,-2.3107,-4.2558,0.9523,4.935
14.337000,-2.4967,-4.4359,1.1188,5.212
14.337000,-2.7046,-4.6280,1.2733,5.509
14.337000,-2.9387,-4.8013,1.3847,5.797
14.338000,-3.1658,-4.9589,1.4654,6.063
14.338000,-3.3858,-5.1030,1.5204,6.310
14.338000,-3.6036,-5.2236,1.5642,6.536
14.339000,-3.8193,-5.3406,1.5564,6.748
14.339000,-4.0039,-5.4689,1.4952,6.941
14.339000,-4.1506,-5.5923,1.3997,7.104
14.346000,-4.2953,-5.6894,1.2799,7.243
14.348000,-4.4453,-5.7863,1.1502,7.387
14.355000,-4.5912,-5.8906,1.0180,7.538
14.360000,-4.7232,-6.0057,0.8952,7.693
14.365000,-4.8440,-6.1295,0.7671,7.850
14.369000,-4.9537,-6.2669,0.6291,8.013
14.373000,-5.0809,-6.3958,0.4857,8.183
14.379000,-5.2234,-6.5184,0.3202,8.359
14.385000,-5.3430,-6.6397,0.1441,8.524
14.435000,-5.4398,-6.7511,-0.0142,8.670
14.438000,-5.5043,-6.8582,-0.1552,8.795
14.439000,-5.5869,-6.9200,-0.2625,8.898
14.440000,-5.6757,-6.9532,-0.3461,8.982
14.441000,-5.7709,-6.9582,-0.4278,9.050
14.441000,-5.8580,-6.9532,-0.5052,9.106
14.442000,-5.9421,-6.9554,-0.5640,9.165
14.443000,-5.9921,-6.9597,-0.5922,9.203
14.444000,-6.0153,-6.9566,-0.5877,9.215
14.444000,-6.0141,-6.9581,-0.5554,9.214
14.445000,-5.9744,-6.9430,-0.4812,9.172
14.445000,-5.8818,-6.9015,-0.3580,9.075
14.448000,-5.7725,-6.8628,-0.1859,8.970
14.455000,-5.6511,-6.8413,0.0065,8.873
14.459000,-5.5297,-6.8351,0.2143,8.794
14.464000,-5.4514,-6.8226,0.4257,8.743
14.469000,-5.4329,-6.8372,0.6403,8.756
14.475000,-5.4406,-6.8572,0.8487,8.794
14.479000,-5.4673,-6.8633,1.0363,8.836
14.485000,-5.4915,-6.8410,1.1385,8.846
14.490000,-5.4987,-6.8402,1.1532,8.852
14.496000,-5.4603,-6.8205,1.0828,8.804
14.500000,-5.3715,-6.7985,0.9538,8.717
14.504000,-5.1822,-6.7814,0.7378,8.567
14.509000,-4.8876,-6.8249,0.4448,8.406
14.548000,-4.0622,-7.1733,-0.1878,8.246
14.550000,-4.0553,-7.1309,-0.1959,8.206
14.550000,-3.6870,-7.4279,-0.6323,8.317
14.550000,-3.3930,-7.7767,-1.1376,8.561
14.551000,-3.2399,-8.1175,-1.6569,8.896
14.551000,-3.2993,-8.3755,-2.1424,9.253
14.551000,-3.5278,-8.5282,-2.5341,9.571
14.552000,-3.8602,-8.5799,-2.8102,9.819
14.555000,-4.2271,-8.5462,-2.9270,9.974
14.560000,-4.5299,-8.4313,-2.8653,9.991
14.565000,-4.7135,-8.2371,-2.6560,9.855
14.569000,-4.7228,-7.9274,-2.2750,9.504
14.575000,-4.5293,-7.5349,-1.7156,8.957
14.580000,-4.1523,-7.0793,-1.0260,8.271
14.587000,-3.7091,-6.6120,-0.2547,7.586
14.590000,-3.2453,-6.1773,0.4661,6.993
14.599000,-2.7489,-5.7657,1.0907,6.480
14.601000,-2.2299,-5.4201,1.6356,6.085
14.604000,-1.6787,-5.1337,2.0935,5.793
14.662000,-1.1194,-4.9024,2.4761,5.605
14.663000,-0.5906,-4.7460,2.7925,5.538
14.664000,-0.1042,-4.6315,3.0230,5.532
14.664000,0.3540,-4.5992,3.1291,5.574
14.665000,0.8267,-4.6126,3.0919,5.614
14.665000,1.2087,-4.6713,2.9327,5.646
14.666000,1.4305,-4.8325,2.6063,5.674
14.667000,1.4998,-5.0336,2.1133,5.661
14.667000,1.4697,-5.2372,1.5213,5.648
14.668000,1.4167,-5.3771,0.9392,5.639
14.668000,1.3269,-5.4595,0.4370,5.635
14.669000,1.1909,-5.4935,0.0462,5.621
14.670000,0.9996,-5.4667,-0.2569,5.563
14.675000,0.7962,-5.3714,-0.4841,5.452
14.682000,0.6318,-5.1730,-0.6542,5.252
14.686000,0.5129,-4.8800,-0.7431,4.963
14.690000,0.4423,-4.4754,-0.7891,4.566
14.697000,0.4652,-3.9882,-0.7736,4.089
14.702000,0.5815,-3.4359,-0.7016,3.555
14.704000,0.6738,-2.8664,-0.5595,2.997
14.752000,0.7271,-2.3222,-0.4312,2.471
14.753000,0.7868,-1.7981,-0.3745,1.998
14.753000,1.0011,-1.2516,-0.3461,1.640
14.753000,1.2209,-0.7025,-0.3105,1.442
14.754000,1.4247,-0.1844,-0.2943,1.466
14.754000,1.5874,0.2864,-0.2718,1.636
14.754000,1.7138,0.6961,-0.2767,1.870
14.754000,1.8133,1.0324,-0.2873,2.106
14.755000,1.8569,1.3002,-0.2799,2.284
14.755000,1.8306,1.4906,-0.2493,2.374
14.763000,1.7602,1.6052,-0.2053,2.391
14.765000,1.6699,1.6879,-0.1596,2.380
14.770000,1.5840,1.7344,-0.0834,2.350
14.776000,1.5146,1.7618,0.0307,2.324
14.781000,1.4664,1.7752,0.1585,2.308
14.785000,1.4447,1.7632,0.2716,2.296
14.790000,1.4393,1.7395,0.3650,2.287
14.794000,1.4195,1.7096,0.4075,2.259
14.800000,1.3975,1.6809,0.3896,2.220
14.805000,1.3806,1.6536,0.3067,2.176
14.821000,1.3906,1.6402,0.1976,2.159
14.826000,1.4199,1.6374,0.0796,2.169
14.828000,1.4664,1.6293,0.0175,2.192
14.829000,1.5134,1.6132,-0.0461,2.212
14.830000,1.5754,1.6014,-0.1066,2.249
14.835000,1.6551,1.6135,-0.1806,2.318
14.841000,1.7780,1.6580,-0.2487,2.444
14.877000,1.9180,1.7185,-0.3010,2.593
14.878000,2.0846,1.7830,-0.3279,2.763
14.878000,2.3136,1.8849,-0.3316,3.003
14.879000,2.5713,2.0049,-0.3100,3.275
14.879000,2.8424,2.1374,-0.2846,3.568
14.880000,3.1222,2.2347,-0.2365,3.847
14.880000,3.3890,2.2990,-0.1754,4.099
14.880000,3.6186,2.3495,-0.1113,4.316
14.886000,3.8068,2.4010,-0.0396,4.501
14.891000,3.9647,2.4671,0.0320,4.670
14.896000,4.1120,2.5506,0.0892,4.840
14.900000,4.2605,2.6301,0.1198,5.008
14.906000,4.3889,2.6841,0.0973,5.146
14.913000,4.5285,2.7442,0.0648,5.296
14.916000,4.6619,2.8192,0.0438,5.448
14.921000,4.8203,2.8973,0.0150,5.624
14.975000,4.9701,2.9762,0.0264,5.793
14.977000,5.0777,3.0511,0.0418,5.924
14.977000,5.1647,3.1291,0.0563,6.039
14.978000,5.2458,3.2106,0.0655,6.151
14.978000,5.3441,3.2735,0.0643,6.267
14.980000,5.4502,3.3203,0.0601,6.382
14.981000,5.5664,3.3511,0.0407,6.497
14.982000,5.6542,3.3539,0.0328,6.574
14.983000,5.6924,3.3312,0.0218,6.596
14.984000,5.6926,3.2852,0.0030,6.573
14.986000,5.7004,3.2331,0.0028,6.553
14.987000,5.7256,3.1866,0.0163,6.553
14.988000,5.7466,3.1317,0.0363,6.545
14.992000,5.7562,3.0419,0.0677,6.511
14.998000,5.7620,2.9440,0.0744,6.471
15.006000,5.7493,2.8353,0.0276,6.410
15.006000,5.7210,2.7498,-0.0699,6.348
15.013000,5.6774,2.6898,-0.1987,6.286
15.016000,5.6666,2.6819,-0.3130,6.277
15.021000,5.7317,2.7094,-0.3957,6.352
15.028000,5.8866,2.7553,-0.4325,6.514
15.031000,6.0714,2.8291,-0.4594,6.714
15.035000,6.2714,2.9257,-0.5174,6.940
15.040000,6.5054,3.0449,-0.6063,7.208
15.095000,6.7731,3.1413,-0.7403,7.503
15.098000,7.0284,3.2023,-0.8998,7.776
15.100000,7.2686,3.2328,-1.0728,8.027
15.101000,7.5081,3.2254,-1.2588,8.268
15.102000,7.7391,3.1680,-1.4215,8.482
15.103000,7.9832,3.0677,-1.5487,8.691
15.104000,8.1967,2.8885,-1.6333,8.843
15.105000,8.2986,2.6352,-1.6585,8.864
15.107000,8.2605,2.3272,-1.6103,8.732
15.108000,8.0879,2.0128,-1.4846,8.466
15.109000,7.7697,1.7592,-1.2722,8.067
15.110000,7.3641,1.6100,-0.9599,7.599
15.111000,6.9034,1.6136,-0.5916,7.114
15.113000,6.4548,1.7746,-0.2184,6.698
15.116000,6.0520,2.0811,0.0707,6.400
15.120000,5.7378,2.4611,0.2349,6.248
15.127000,5.5502,2.8689,0.2508,6.253
15.132000,5.5120,3.2632,0.1598,6.408
15.137000,5.5700,3.5790,0.0012,6.621
15.142000,5.6610,3.7799,-0.1789,6.809
15.146000,5.7866,3.8846,-0.3726,6.980
15.150000,5.9393,3.8785,-0.5650,7.116
15.155000,6.0944,3.7733,-0.6862,7.201
15.211000,6.2379,3.5617,-0.7309,7.220
15.212000,6.3360,3.2557,-0.7280,7.161
15.212000,6.4175,2.8695,-0.7062,7.065
15.212000,6.4371,2.3794,-0.6559,6.894
15.212000,6.3783,1.8020,-0.6013,6.655
15.213000,6.2758,1.1790,-0.5564,6.410
15.213000,6.1971,0.5607,-0.5020,6.243
15.213000,6.0709,-0.0215,-0.4068,6.085
15.214000,5.8500,-0.5506,-0.2855,5.883
15.214000,5.5685,-1.0238,-0.1646,5.664
15.214000,5.2436,-1.4459,-0.0058,5.439
15.217000,4.8601,-1.7915,0.2000,5.184
15.220000,4.4567,-2.0319,0.4239,4.916
15.226000,4.0507,-2.1498,0.6487,4.632
15.232000,3.6902,-2.1476,0.8763,4.359
15.237000,3.4033,-1.9970,1.1161,4.101
15.241000,3.2240,-1.7262,1.4076,3.919
15.246000,3.1226,-1.3887,1.7430,3.836
15.251000,3.0220,-1.0258,2.0663,3.802
15.255000,2.8907,-0.6784,2.3268,3.772
15.261000,2.7951,-0.3447,2.5073,3.771
15.266000,2.7402,-0.0507,2.6196,3.791
15.270000,2.7134,0.2053,2.6588,3.804
15.305000,2.7404,0.4061,2.6607,3.841
15.306000,2.8065,0.5559,2.6038,3.868
15.307000,2.8774,0.6370,2.5214,3.879
15.307000,2.9154,0.6595,2.3994,3.833
15.308000,2.8650,0.6060,2.2307,3.681
15.308000,2.7289,0.4836,1.9940,3.414
15.308000,2.4956,0.2924,1.6801,3.023
15.317000,2.1847,0.0330,1.3257,2.556
15.318000,1.8493,-0.2423,0.9676,2.101
15.321000,1.5335,-0.4959,0.6473,1.737
15.326000,1.2157,-0.7187,0.3869,1.464
15.332000,0.8891,-0.9058,0.1865,1.283
15.337000,0.5777,-1.1024,0.0246,1.245
15.341000,0.2648,-1.3233,-0.0866,1.352
15.346000,-0.0583,-1.5403,-0.1780,1.552
15.351000,-0.3939,-1.7732,-0.2469,1.833
15.356000,-0.7204,-2.0045,-0.2788,2.148
15.363000,-1.0376,-2.2197,-0.2788,2.466
15.367000,-1.3381,-2.4448,-0.2393,2.797
15.372000,-1.6174,-2.6826,-0.1578,3.136
15.428000,-1.8364,-2.9288,-0.0248,3.457
15.429000,-2.0578,-3.1960,0.1166,3.803
15.430000,-2.2479,-3.4335,0.2592,4.112
15.430000,-2.4306,-3.6698,0.4078,4.421
15.430000,-2.6062,-3.8959,0.5621,4.721
15.431000,-2.7863,-4.0864,0.7295,4.999
15.431000,-2.9757,-4.2344,0.8859,5.251
15.431000,-3.1482,-4.3398,1.0339,5.460
15.432000,-3.2896,-4.4194,1.1451,5.627
15.432000,-3.4264,-4.4761,1.2409,5.772
15.433000,-3.5607,-4.5062,1.3311,5.895
15.433000,-3.6856,-4.5294,1.3894,6.002
15.437000,-3.7989,-4.5386,1.4157,6.086
15.442000,-3.9053,-4.5148,1.4100,6.134
15.446000,-3.9860,-4.4962,1.3653,6.162
15.452000,-4.0364,-4.4813,1.3005,6.170
15.456000,-4.0587,-4.4688,1.2517,6.165
15.462000,-4.1034,-4.4668,1.1923,6.182
15.468000,-4.1611,-4.5040,1.1195,6.233
15.471000,-4.2293,-4.5779,1.0260,6.316
15.522000,-4.2867,-4.7007,0.9165,6.427
15.523000,-4.3090,-4.8617,0.8121,6.547
15.523000,-4.3397,-5.0541,0.7127,6.700
15.524000,-4.4218,-5.2608,0.6252,6.901
15.524000,-4.5049,-5.4506,0.5565,7.093
15.524000,-4.5987,-5.6595,0.5354,7.312
15.525000,-4.7198,-5.8932,0.5282,7.569
15.525000,-4.8825,-6.1228,0.5082,7.848
15.526000,-5.2543,-6.4078,0.3964,8.296
15.527000,-5.2585,-6.4631,0.4057,8.342
15.527000,-5.4887,-6.5229,0.3471,8.532
15.532000,-5.6745,-6.5348,0.2929,8.660
15.537000,-5.8159,-6.5146,0.2312,8.736
15.541000,-5.9225,-6.4698,0.1668,8.773
15.546000,-5.9803,-6.4055,0.1023,8.764
15.551000,-5.9965,-6.3193,0.0326,8.712
15.555000,-5.9928,-6.2188,-0.0402,8.636
15.561000,-5.9524,-6.0824,-0.1139,8.511
15.566000,-5.8517,-5.9465,-0.1858,8.345
15.570000,-5.7122,-5.8495,-0.2511,8.180
15.576000,-5.5509,-5.7969,-0.3288,8.033
15.584000,-5.3989,-5.7792,-0.4168,7.920
15.587000,-5.2683,-5.7824,-0.5154,7.839
15.641000,-5.1661,-5.8065,-0.6056,7.796
15.645000,-5.0828,-5.8611,-0.6541,7.786
15.648000,-5.0015,-5.9341,-0.6298,7.786
15.651000,-4.9487,-6.0158,-0.5496,7.809
15.652000,-4.8907,-6.0939,-0.4639,7.827
15.653000,-4.8346,-6.2043,-0.3941,7.875
15.654000,-4.7589,-6.3659,-0.3713,7.957
15.654000,-4.6324,-6.6072,-0.4335,8.081
15.654000,-4.4552,-6.9088,-0.5998,8.243
15.655000,-4.2703,-7.2539,-0.8481,8.460
15.655000,-4.0895,-7.6327,-1.1468,8.735
15.656000,-3.9654,-7.9999,-1.4885,9.052
15.656000,-3.9505,-8.3287,-1.8178,9.396
15.657000,-4.0562,-8.5730,-2.1057,9.715
15.661000,-4.2727,-8.7084,-2.3254,9.975
15.667000,-4.5491,-8.7123,-2.4239,10.123
15.672000,-4.8518,-8.5898,-2.3650,10.145
15.677000,-5.0944,-8.3402,-2.1152,9.999
15.682000,-5.1738,-7.9614,-1.6673,9.640
15.686000,-5.1020,-7.4658,-1.0263,9.101
15.691000,-4.9245,-6.8656,-0.2693,8.453
15.697000,-4.6895,-6.2323,0.4692,7.814
15.701000,-4.3610,-5.5972,1.0956,7.180
15.706000,-3.9155,-4.9783,1.6243,6.539
15.761000,-3.3988,-4.4149,2.0721,5.944
15.763000,-2.8278,-3.9392,2.4341,5.426
15.763000,-2.2075,-3.5754,2.7076,4.999
15.764000,-1.5269,-3.3114,2.8849,4.650
15.764000,-0.7957,-3.1352,2.9657,4.388
15.765000,-0.0456,-2.9857,2.9235,4.179
15.766000,0.6968,-2.8851,2.7676,4.058
15.766000,1.3784,-2.8624,2.4766,4.028
15.767000,1.9722,-2.9505,2.1055,4.126
15.768000,2.4280,-3.1799,1.6711,4.336
15.768000,2.6477,-3.5146,1.1284,4.543
15.769000,2.6487,-3.9127,0.5163,4.753
15.772000,2.5441,-4.2944,-0.0950,4.992
15.777000,2.4230,-4.6439,-0.5948,5.272
15.782000,2.2089,-4.9635,-0.9537,5.516
15.787000,1.9124,-5.2401,-1.1958,5.705
15.794000,1.5674,-5.4365,-1.3522,5.817
15.797000,1.1797,-5.5518,-1.4516,5.858
15.802000,0.8097,-5.5251,-1.5226,5.788
15.806000,0.5005,-5.3785,-1.5484,5.619
15.812000,0.2717,-5.1018,-1.4977,5.324
15.818000,0.1378,-4.7312,-1.3686,4.927
15.821000,0.1177,-4.2766,-1.1685,4.435
15.882000,0.2760,-3.7190,-0.9051,3.837
15.885000,0.4942,-3.1228,-0.5651,3.212
15.885000,0.6812,-2.5479,-0.2353,2.648
15.886000,0.8703,-2.0259,0.0743,2.206
15.886000,1.1020,-1.5332,0.3536,1.921
15.887000,1.3804,-1.0608,0.5902,1.838
15.887000,1.6699,-0.5917,0.7575,1.927
15.887000,1.9809,-0.1350,0.8910,2.176
15.888000,2.2701,0.3118,1.0077,2.503
15.888000,2.5183,0.7435,1.1048,2.849
15.889000,2.7177,1.1479,1.1704,3.174
15.889000,2.8638,1.5229,1.1905,3.455
