time,ax,ay,az,aT
0.009000,-0.1407,0.0560,-1.6160,1.623
0.009000,0.0304,0.0817,-1.6547,1.657
0.010000,0.1196,0.0765,-1.7613,1.767
0.010000,0.0007,0.1025,-1.4219,1.426
0.010000,0.0856,0.0701,-1.2891,1.294
0.011000,0.1890,0.0101,-1.4271,1.440
0.011000,0.1833,0.0060,-1.1565,1.171
0.017000,0.1880,0.0520,-0.6213,0.651
0.026000,0.1955,0.0468,-0.3306,0.387
0.027000,0.1283,0.0640,-0.2214,0.264
0.036000,0.0273,0.0603,-0.1070,0.126
0.037000,0.0482,0.0735,-0.0279,0.092
0.041000,0.1700,0.0075,0.0664,0.183
0.048000,0.2785,0.0125,0.1450,0.314
0.051000,0.3338,-0.0312,0.1505,0.368
0.056000,0.2189,-0.0519,0.0426,0.229
0.061000,0.0577,-0.0353,-0.1881,0.200
0.072000,-0.1054,-0.1821,-0.4315,0.480
0.072000,-0.2067,-0.2311,-0.7999,0.858
0.075000,-0.0659,-0.1126,-1.4272,1.433
0.082000,-0.1822,-0.0669,-1.9430,1.953
0.085000,-0.1909,0.0368,-2.9478,2.954
0.090000,-0.4453,0.0345,-2.9168,2.951
0.104000,-0.4727,0.0241,-2.5592,2.603
0.106000,-0.3270,0.0169,-2.7532,2.773
0.106000,-0.3302,0.0937,-2.8650,2.885
0.114000,-0.4363,0.0964,-2.8972,2.931
0.115000,-0.3834,0.1423,-3.0675,3.095
0.120000,-0.2971,0.3630,-2.7759,2.815
0.125000,-0.1189,0.6232,-1.3394,1.482
0.130000,0.1137,0.5172,-0.6759,0.859
0.135000,0.2489,0.4266,-0.2981,0.577
0.140000,0.1457,0.4604,-0.0903,0.491
0.146000,-0.0230,0.2985,0.0359,0.302
0.150000,0.0703,0.0965,-0.1079,0.161
0.155000,0.4460,0.1003,-0.1747,0.489
0.160000,0.6780,0.1063,0.0768,0.691
0.170000,0.4289,0.0743,0.6101,0.749
0.171000,-0.1020,0.0860,1.1136,1.122
0.175000,-0.4120,0.1134,1.4485,1.510
0.180000,-0.3452,0.2237,1.5313,1.586
0.186000,-0.1116,0.2919,1.4223,1.456
0.190000,0.0814,0.3507,1.1678,1.222
0.196000,0.2322,0.3992,0.9355,1.043
0.201000,0.2911,0.4555,0.7355,0.913
0.205000,0.3147,0.5235,0.6397,0.884
0.209000,0.2936,0.5797,0.7935,1.026
0.223000,0.1453,0.5449,0.9121,1.072
0.224000,0.0070,0.4284,1.1152,1.195
0.224000,0.0268,0.3880,1.1995,1.261
0.230000,0.0953,0.4233,1.1127,1.194
0.235000,0.0186,0.3888,0.9959,1.069
0.239000,0.0598,0.3356,0.8610,0.926
0.251000,0.1133,0.2717,0.6623,0.725
0.252000,0.0777,0.3248,0.5239,0.621
0.258000,0.0298,0.4046,0.4622,0.615
0.259000,0.1474,0.5115,0.4625,0.705
0.264000,0.3104,0.4973,0.3957,0.707
0.270000,0.3735,0.4171,0.2905,0.631
0.274000,0.3530,0.2016,0.1543,0.435
0.279000,0.3853,0.0327,-0.0846,0.396
0.284000,0.5344,0.0063,-0.1370,0.552
0.290000,0.4904,0.0119,-0.0246,0.491
0.296000,0.4122,-0.0680,-0.0274,0.419
0.299000,0.4465,-0.0544,-0.0734,0.456
0.304000,0.2980,0.1143,-0.0645,0.326
0.310000,0.0444,0.3541,0.0017,0.357
0.323000,0.1772,0.5691,0.0054,0.596
0.325000,0.3314,0.6760,-0.0008,0.753
0.326000,0.2595,0.6249,0.1077,0.685
0.342000,0.1819,0.5953,0.3138,0.697
0.344000,0.1222,0.5201,0.6008,0.804
0.344000,0.0324,0.4468,0.7942,0.912
0.345000,0.0320,0.4541,0.9801,1.081
0.348000,0.1592,0.4220,1.1660,1.250
0.376000,0.2679,0.3116,1.0701,1.146
0.377000,0.3988,0.3024,0.9103,1.039
0.377000,0.2821,0.2409,0.7058,0.797
0.378000,-0.0708,0.1441,0.3829,0.415
0.379000,-0.3664,0.0079,0.0707,0.373
0.382000,-0.2464,-0.0643,-0.0852,0.268
0.384000,-0.1155,0.0089,-0.1402,0.182
0.388000,-0.1626,0.1675,-0.0466,0.238
0.397000,-0.1948,0.4089,0.3409,0.567
0.398000,-0.2252,0.6182,0.7803,1.021
0.403000,-0.3370,0.7996,1.1593,1.448
0.408000,-0.5775,0.8927,1.4853,1.827
0.414000,-0.7121,0.8829,1.7395,2.077
0.418000,-0.7817,0.8317,1.8291,2.156
0.423000,-0.8179,0.7605,1.6015,1.952
0.438000,-0.7906,0.6622,1.0026,1.438
0.439000,-0.7448,0.5763,0.3554,1.007
0.440000,-0.6417,0.4583,-0.3614,0.867
0.443000,-0.5452,0.2943,-0.9708,1.152
0.448000,-0.4882,0.1190,-1.5042,1.586
0.453000,-0.5528,-0.0554,-1.9449,2.023
0.458000,-0.6604,-0.1996,-2.2647,2.367
0.470000,-0.7410,-0.2337,-2.4497,2.570
0.472000,-0.7594,-0.1965,-2.4068,2.531
0.473000,-0.6736,-0.0661,-2.0960,2.203
0.480000,-0.6286,0.1929,-1.6901,1.813
0.483000,-0.6517,0.4274,-1.2919,1.509
0.488000,-0.7802,0.5606,-0.9853,1.376
0.495000,-0.9748,0.5873,-0.7172,1.345
0.499000,-1.0948,0.6268,-0.4540,1.341
0.502000,-1.0916,0.6472,-0.1763,1.281
0.507000,-1.0464,0.6909,0.0874,1.257
0.513000,-1.0534,0.8792,0.2892,1.402
0.518000,-1.0899,0.9632,0.2929,1.484
0.522000,-1.1087,0.8997,0.2019,1.442
0.529000,-1.1867,0.7370,-0.0077,1.397
0.532000,-1.2715,0.4876,-0.2138,1.378
0.537000,-1.3874,0.2071,-0.5097,1.492
0.542000,-1.5181,-0.0347,-0.8523,1.741
0.556000,-1.6533,-0.1995,-1.0763,1.983
0.557000,-1.7913,-0.3420,-1.2917,2.235
0.558000,-2.0042,-0.4783,-1.5488,2.578
0.562000,-2.1336,-0.5821,-1.8662,2.894
0.569000,-2.2261,-0.7391,-1.9901,3.076
0.572000,-2.1223,-0.8915,-1.8106,2.929
0.589000,-2.0079,-0.9273,-1.5387,2.694
0.592000,-2.0196,-0.9975,-1.3365,2.619
0.594000,-2.0657,-1.0019,-1.0509,2.525
0.596000,-1.9751,-0.8683,-0.8307,2.312
0.597000,-1.7073,-0.6329,-0.5369,1.898
0.602000,-1.4773,-0.3595,-0.1661,1.529
0.607000,-1.1636,-0.0384,0.0751,1.167
0.611000,-0.8819,0.1515,0.2268,0.923
0.616000,-0.7088,0.3372,0.2724,0.831
0.621000,-0.5736,0.7809,0.5679,1.123
0.626000,-0.3721,1.4223,2.0746,2.543
0.631000,-0.0763,2.1286,4.3751,4.866
0.636000,0.4262,2.5685,4.6768,5.353
0.641000,0.6314,2.6936,3.7053,4.624
0.647000,0.9259,2.7105,2.2638,3.651
0.653000,1.0784,2.5806,0.2848,2.811
0.656000,0.4993,2.1602,-1.6288,2.751
0.671000,-0.4687,1.5378,-2.8089,3.236
0.673000,-1.1372,0.9200,-3.1063,3.433
0.673000,-1.3646,0.4342,-3.0206,3.343
0.676000,-1.3964,0.2333,-3.3397,3.627
0.682000,-1.3866,0.1356,-3.8070,4.054
0.686000,-1.1525,0.3414,-4.0106,4.187
0.691000,-0.8287,0.7116,-3.9124,4.062
0.696000,-0.7569,0.9012,-3.6611,3.846
0.701000,-0.9452,0.8859,-3.3119,3.556
0.706000,-1.0710,0.7661,-2.8551,3.144
0.712000,-1.1734,0.7395,-2.5337,2.888
0.715000,-1.2524,0.9061,-2.4120,2.865
0.721000,-1.3202,1.2105,-2.5061,3.080
0.727000,-1.1613,1.5121,-2.4529,3.107
0.739000,-0.8140,1.7344,-2.3889,3.062
0.741000,-0.4380,1.8365,-2.3548,3.018
0.742000,-0.0953,1.8972,-2.3145,2.994
0.747000,0.1835,2.0498,-2.1842,3.001
0.751000,0.3490,2.2300,-1.9309,2.970
0.756000,0.3349,2.2648,-1.7626,2.889
0.770000,-0.0363,2.0579,-1.6998,2.669
0.772000,-0.5761,1.4711,-1.4455,2.141
0.772000,-0.8727,0.8125,-0.7175,1.392
0.776000,-1.5176,0.3534,0.1163,1.563
0.780000,-3.1820,0.0444,-0.3848,3.206
0.786000,-3.5854,0.0382,0.5638,3.630
0.790000,-2.9392,-0.0268,2.0062,3.559
0.802000,-2.2836,-0.0648,2.4909,3.380
0.803000,-1.6236,0.2274,3.0560,3.468
0.805000,-0.9695,0.7888,4.0777,4.265
0.811000,-0.5038,1.2929,4.8548,5.049
0.815000,-0.3721,1.5701,5.2219,5.465
0.820000,-0.6220,1.7228,5.4426,5.743
0.824000,-1.1121,1.7037,5.3584,5.732
0.830000,-1.6208,1.5915,4.8360,5.343
0.835000,-2.0797,1.4197,3.9296,4.667
0.840000,-2.3820,1.3372,2.8152,3.923
0.846000,-2.4887,1.2939,1.7881,3.326
0.850000,-2.3420,1.3996,0.7993,2.843
0.855000,-1.9847,1.5608,-0.0231,2.525
0.863000,-1.4162,1.6825,-0.5598,2.269
0.865000,-0.8089,1.7487,-0.8565,2.108
0.870000,-0.3469,1.6466,-0.9351,1.925
0.875000,-0.1726,1.3613,-0.9776,1.685
0.884000,-0.1666,1.0148,-1.0544,1.473
0.886000,-0.2457,0.7078,-1.4363,1.620
0.890000,-0.3383,0.5150,-1.9199,2.016
0.913000,-0.4468,0.5047,-2.2737,2.371
0.915000,-0.5257,0.6466,-2.6060,2.736
0.916000,-0.4569,0.8628,-2.8761,3.037
0.916000,-0.3441,1.0243,-2.9308,3.124
0.917000,-0.1120,1.0428,-2.7555,2.948
0.919000,0.0907,1.0184,-2.3119,2.528
0.924000,0.1199,0.8953,-1.7481,1.968
0.929000,0.1160,0.7589,-1.0668,1.314
0.934000,0.0561,0.8300,-0.3496,0.902
0.939000,0.0513,0.8702,0.3605,0.943
0.945000,0.1111,0.9402,1.0760,1.433
0.950000,0.2003,0.9976,1.8640,2.124
0.954000,0.3129,0.9477,2.5426,2.731
0.958000,0.2904,0.6934,2.8748,2.972
0.964000,0.0797,0.4066,2.8176,2.848
0.986000,-0.2280,0.1525,2.4693,2.485
0.994000,-0.5754,-0.0894,1.8396,1.930
0.996000,-0.9208,-0.1757,1.0772,1.428
0.997000,-1.2011,-0.0977,0.3329,1.250
0.998000,-1.4396,-0.0472,-0.2113,1.456
0.998000,-1.5847,0.0367,-0.5341,1.673
0.998000,-1.5816,0.0161,-0.6457,1.708
1.015000,-1.4376,-0.0845,-0.7688,1.632
1.016000,-1.1146,-0.1713,-0.9035,1.445
1.017000,-0.6911,-0.2564,-0.9175,1.177
1.019000,-0.3002,-0.3139,-0.9511,1.046
1.023000,0.0048,-0.4136,-0.8533,0.948
1.029000,0.1658,-0.5108,-0.7262,0.903
1.033000,0.1689,-0.5803,-0.6869,0.915
1.038000,0.0714,-0.7281,-0.7588,1.054
1.043000,-0.0877,-0.9494,-0.7769,1.230
1.048000,-0.2817,-1.1248,-0.9018,1.469
1.053000,-0.5294,-1.2875,-1.1620,1.813
1.058000,-0.7588,-1.4542,-1.2852,2.084
1.063000,-0.9303,-1.6315,-1.3701,2.325
1.069000,-1.2742,-1.9069,-1.5588,2.773
1.073000,-1.6196,-2.1647,-1.8233,3.261
1.083000,-1.9728,-2.3241,-2.1905,3.754
1.085000,-2.2060,-2.3847,-2.4159,4.048
1.089000,-2.3653,-2.2617,-2.4998,4.118
1.093000,-2.5461,-2.1610,-2.4343,4.133
1.116000,-2.6584,-2.0183,-2.2405,4.020
1.118000,-2.5352,-1.9316,-2.0356,3.782
1.118000,-2.2205,-1.8438,-1.7954,3.399
1.119000,-1.8200,-1.7408,-1.5745,2.970
1.119000,-1.3502,-1.5910,-1.3931,2.509
1.124000,-0.9554,-1.4830,-1.1170,2.088
1.129000,-0.6409,-1.4401,-0.7480,1.745
1.133000,-0.4256,-1.4800,-0.4894,1.616
1.138000,-0.2347,-1.5533,-0.2524,1.591
1.143000,-0.1537,-1.6034,-0.0873,1.613
1.148000,-0.1556,-1.6312,0.1541,1.646
1.153000,-0.1795,-1.6374,0.4166,1.699
1.157000,-0.3624,-1.7366,0.6897,1.903
1.164000,-0.6613,-1.9149,0.6525,2.128
1.168000,-1.0030,-2.1147,0.3933,2.373
1.172000,-1.4061,-2.2626,0.0794,2.665
1.178000,-1.7629,-2.4134,-0.3204,3.006
1.183000,-2.0158,-2.4933,-0.7679,3.297
1.188000,-2.1676,-2.5565,-1.1318,3.538
1.194000,-2.2657,-2.6546,-1.3572,3.745
1.198000,-2.2719,-2.7682,-1.4945,3.880
1.203000,-2.0828,-2.8955,-1.5465,3.888
1.207000,-1.7180,-2.9847,-1.5871,3.792
1.216000,-1.3088,-2.9990,-1.6307,3.656
1.218000,-0.8945,-2.9990,-1.5955,3.513
1.222000,-0.4853,-3.0309,-1.5170,3.424
1.241000,-0.1409,-3.0314,-1.3664,3.328
1.243000,0.1359,-2.9894,-1.1913,3.221
1.244000,0.2647,-2.9850,-1.1417,3.207
1.244000,0.2710,-3.0459,-1.1213,3.257
1.250000,0.1578,-3.2109,-1.1080,3.400
1.252000,-0.0471,-3.4352,-0.9938,3.576
1.257000,-0.3471,-3.7120,-0.9152,3.839
1.262000,-0.6416,-3.8559,-0.8626,4.003
1.267000,-0.7809,-3.8719,-0.8718,4.045
1.272000,-0.7625,-3.7656,-0.7610,3.917
1.279000,-0.6820,-3.6177,-0.5302,3.719
1.282000,-0.5306,-3.4076,-0.2106,3.455
1.286000,-0.2627,-3.2381,0.1763,3.254
1.291000,-0.0269,-3.0645,0.6043,3.124
1.297000,0.1480,-2.9213,1.0448,3.106
1.301000,0.3091,-2.8165,1.5171,3.214
1.306000,0.4316,-2.7311,2.0952,3.469
1.314000,0.4396,-2.6021,2.7286,3.796
1.320000,0.4524,-2.4739,3.3401,4.181
1.321000,0.4343,-2.3652,3.8603,4.548
1.326000,0.4179,-2.2358,4.3196,4.882
1.335000,0.3787,-2.0954,4.6406,5.106
1.336000,0.2301,-1.8784,4.8881,5.242
1.341000,0.0912,-1.7017,5.0637,5.343
1.346000,0.0264,-1.4876,5.1067,5.319
1.351000,-0.0049,-1.3256,5.0532,5.224
1.356000,0.0258,-1.1789,4.8953,5.035
1.361000,-0.0058,-1.0478,4.5785,4.697
1.366000,0.0198,-0.8965,4.1910,4.286
1.371000,0.0447,-0.7559,3.7043,3.781
1.376000,0.0075,-0.7053,3.2552,3.331
1.381000,-0.0842,-0.7010,2.8531,2.939
1.385000,-0.1266,-0.7158,2.4910,2.595
1.391000,-0.1906,-0.7265,2.1070,2.237
1.396000,-0.1902,-0.8166,1.8470,2.028
1.401000,-0.2251,-0.9014,1.6276,1.874
1.406000,-0.1682,-0.9704,1.4704,1.770
1.412000,-0.0481,-0.9879,1.3227,1.652
1.415000,0.1063,-0.9992,1.2251,1.585
1.421000,0.3447,-1.0593,1.1468,1.599
1.426000,0.5638,-1.0943,1.0922,1.646
1.434000,0.8598,-1.0558,1.0615,1.726
1.437000,1.0984,-0.9776,1.1264,1.852
1.441000,1.3491,-0.8934,1.0859,1.949
1.466000,1.6019,-0.7336,1.0692,2.061
1.468000,1.7917,-0.6999,1.0833,2.208
1.468000,1.9142,-0.6837,1.1978,2.359
1.469000,2.0387,-0.6164,1.2543,2.472
1.469000,2.1671,-0.5606,1.2265,2.552
1.472000,2.2893,-0.5781,1.2533,2.673
1.475000,2.3880,-0.5423,1.2343,2.742
1.480000,2.4229,-0.5130,1.2627,2.780
1.485000,2.3471,-0.5042,1.2404,2.702
1.490000,2.3233,-0.5038,1.1914,2.659
1.495000,2.2585,-0.4712,1.1086,2.560
1.500000,2.2608,-0.4752,1.1021,2.560
1.505000,2.1917,-0.5060,1.0859,2.498
1.510000,2.1592,-0.5438,1.1153,2.490
1.515000,2.1945,-0.6505,1.2025,2.586
1.520000,2.3549,-0.8044,1.2780,2.798
1.524000,2.4895,-0.9312,1.4424,3.024
1.531000,2.6434,-1.0379,1.6360,3.277
1.535000,2.7472,-1.1081,1.8587,3.497
1.540000,2.7415,-1.2061,2.0961,3.656
1.554000,2.7435,-1.2509,2.4079,3.859
1.556000,2.7105,-1.3261,2.6052,3.986
1.556000,2.5875,-1.4966,2.8886,4.157
1.562000,2.3940,-1.6840,3.1524,4.302
1.566000,2.2566,-1.8448,3.4257,4.498
1.570000,2.1699,-1.9821,3.5933,4.642
1.575000,2.1185,-2.2017,3.7649,4.849
1.580000,2.0876,-2.4005,3.9625,5.082
1.584000,2.0338,-2.4855,4.0350,5.157
1.589000,1.9352,-2.5048,3.9922,5.095
1.596000,1.8134,-2.4266,3.9591,4.985
1.599000,1.7046,-2.3230,3.9546,4.893
1.604000,1.4564,-2.2532,4.0771,4.881
1.609000,1.2949,-2.0974,4.1541,4.830
1.614000,1.1150,-1.9323,4.2623,4.811
1.619000,0.9048,-1.8329,4.3578,4.813
1.623000,0.8078,-1.8516,4.4622,4.898
1.633000,0.8065,-1.8071,4.5727,4.983
1.636000,0.7425,-1.7643,4.6533,5.032
1.638000,0.7303,-1.7809,4.6512,5.034
1.663000,0.7889,-1.7162,4.6426,5.012
1.664000,0.8944,-1.5769,4.5610,4.908
1.664000,1.0658,-1.4950,4.4539,4.818
1.665000,1.2649,-1.3430,4.3148,4.693
1.665000,1.4294,-1.2118,4.1246,4.530
1.668000,1.5065,-1.0963,3.9769,4.392
1.673000,1.6138,-0.9173,3.8551,4.279
1.678000,1.7416,-0.6985,3.6828,4.133
1.683000,1.7995,-0.4950,3.4887,3.957
1.688000,1.7992,-0.2371,3.3234,3.787
1.693000,1.8324,0.0083,3.0936,3.596
1.699000,1.8655,0.2580,2.8520,3.418
1.708000,1.8675,0.4978,2.6657,3.293
1.710000,1.9507,0.7300,2.5322,3.279
1.714000,2.0572,1.0215,2.3964,3.319
1.719000,2.2038,1.3288,2.2676,3.430
1.724000,2.3898,1.7135,2.1859,3.664
1.730000,2.5741,2.0749,2.1512,3.944
1.735000,2.7924,2.4006,2.1058,4.242
1.738000,2.9652,2.6927,2.0205,4.486
1.758000,3.0919,2.8817,1.9505,4.655
1.761000,3.2034,3.0296,1.9171,4.808
1.762000,3.2251,3.0834,1.9509,4.870
1.763000,3.2193,3.0761,2.0753,4.913
1.764000,3.2052,2.9834,2.0843,4.850
1.768000,3.0229,2.7957,2.0135,4.583
1.773000,2.8404,2.5727,1.8990,4.277
1.778000,2.5818,2.3648,1.7336,3.907
1.783000,2.2402,2.1102,1.4054,3.383
1.789000,1.8594,1.8692,1.0467,2.837
1.793000,1.5505,1.6620,0.7058,2.380
1.798000,1.3252,1.4529,0.3426,1.996
1.803000,1.0721,1.3079,0.0464,1.692
1.807000,0.9011,1.1982,-0.2760,1.524
1.813000,0.6906,1.0840,-0.5570,1.401
1.817000,0.5201,0.9899,-0.7127,1.326
1.822000,0.2937,0.8989,-0.8532,1.274
1.829000,0.0839,0.8616,-0.9904,1.315
1.833000,-0.1350,0.8351,-1.0813,1.373
1.838000,-0.3084,0.8217,-1.2408,1.520
1.843000,-0.4388,0.8501,-1.3683,1.670
1.848000,-0.4834,0.8967,-1.4565,1.777
1.852000,-0.5211,1.0066,-1.5678,1.935
1.857000,-0.5880,1.1370,-1.7403,2.160
1.865000,-0.5981,1.2372,-1.8905,2.337
1.869000,-0.5520,1.3744,-2.0373,2.519
1.871000,-0.4791,1.4769,-2.1446,2.648
1.891000,-0.4402,1.5826,-2.2223,2.764
1.893000,-0.3609,1.6605,-2.3348,2.888
1.894000,-0.3203,1.7632,-2.3745,2.975
1.894000,-0.3042,1.8858,-2.4540,3.110
1.899000,-0.2241,2.0260,-2.5970,3.301
1.902000,-0.1493,2.1672,-2.7316,3.490
1.907000,-0.0849,2.3091,-2.8269,3.651
1.912000,0.0287,2.4259,-2.9423,3.813
1.916000,0.1671,2.4625,-3.0156,3.897
1.922000,0.2846,2.4909,-3.0826,3.973
1.928000,0.3623,2.5425,-3.0905,4.018
1.932000,0.3716,2.5428,-3.0253,3.969
1.936000,0.3846,2.5449,-2.9251,3.896
1.941000,0.3591,2.5653,-2.9122,3.897
1.947000,0.3815,2.6564,-2.8600,3.922
1.952000,0.3970,2.6821,-2.7373,3.853
1.956000,0.4421,2.7235,-2.7121,3.869
1.964000,0.5184,2.7302,-2.6023,3.807
1.967000,0.6169,2.6545,-2.4368,3.656
1.971000,0.7134,2.5107,-2.1800,3.401
1.976000,0.8226,2.3728,-1.9062,3.153
1.991000,0.8922,2.2598,-1.7018,2.966
1.993000,0.8698,2.2457,-1.5166,2.846
1.993000,0.8101,2.2346,-1.3697,2.743
1.999000,0.7253,2.2120,-1.2540,2.644
2.002000,0.5769,2.1780,-1.1263,2.519
2.007000,0.4389,2.1013,-0.9366,2.342
2.013000,0.3301,2.0108,-0.8089,2.192
2.016000,0.2479,1.9496,-0.6835,2.081
2.021000,0.1734,1.8887,-0.5175,1.966
2.029000,0.0943,1.8715,-0.3728,1.911
2.032000,-0.0155,1.8929,-0.2496,1.909
2.036000,-0.1034,1.8596,-0.0666,1.864
2.041000,-0.2578,1.8673,0.0686,1.886
2.047000,-0.3994,1.8179,0.2276,1.875
2.055000,-0.5669,1.6971,0.3051,1.815
2.056000,-0.7869,1.5984,0.4763,1.844
2.066000,-0.9425,1.4548,0.7219,1.878
2.067000,-1.1079,1.3451,0.9627,1.991
2.071000,-1.3163,1.3050,1.1556,2.184
2.076000,-1.4770,1.3437,1.2527,2.357
2.092000,-1.5803,1.3966,1.3926,2.527
2.094000,-1.6027,1.5565,1.5083,2.696
2.097000,-1.5202,1.5600,1.7000,2.763
2.098000,-1.5696,1.5508,1.9580,2.950
2.101000,-1.6116,1.5215,2.1718,3.103
2.105000,-1.5820,1.3571,2.3965,3.176
2.111000,-1.5453,1.2107,2.6486,3.297
2.119000,-1.4798,1.0767,2.9036,3.432
2.121000,-1.3619,0.8666,3.0442,3.446
2.125000,-1.2827,0.6519,3.1925,3.502
2.130000,-1.2324,0.4277,3.2407,3.493
2.135000,-1.2394,0.1562,3.2033,3.438
2.140000,-1.2081,-0.0666,3.0977,3.326
2.145000,-1.2196,-0.2572,2.9599,3.212
2.150000,-1.2333,-0.4149,2.8168,3.103
2.155000,-1.3227,-0.5367,2.6113,2.976
2.162000,-1.4017,-0.5888,2.4157,2.854
2.165000,-1.4508,-0.6688,2.2731,2.778
2.170000,-1.5254,-0.6781,2.1433,2.717
2.175000,-1.6086,-0.6427,2.0242,2.664
2.181000,-1.6408,-0.6416,2.0210,2.681
2.189000,-1.6814,-0.6647,2.2127,2.857
2.190000,-1.6443,-0.6979,2.5104,3.081
2.217000,-1.5751,-0.8040,2.8130,3.323
2.219000,-1.4930,-0.9691,3.2756,3.728
2.220000,-1.3933,-1.1528,3.6872,4.107
2.221000,-1.2739,-1.2841,4.0046,4.394
2.221000,-1.2353,-1.3491,4.2992,4.672
2.222000,-1.2632,-1.4631,4.5110,4.908
2.225000,-1.2476,-1.5617,4.6113,5.026
2.229000,-1.2628,-1.7047,4.6839,5.142
2.234000,-1.2055,-1.8369,4.6979,5.186
2.239000,-1.1476,-1.9630,4.6748,5.198
2.245000,-1.0365,-2.0348,4.5767,5.115
2.250000,-0.8746,-2.0426,4.3705,4.903
2.255000,-0.6886,-2.0293,4.2118,4.726
2.261000,-0.4811,-1.9540,4.0317,4.506
2.265000,-0.2662,-1.8188,3.8686,4.283
2.270000,-0.0607,-1.6713,3.7370,4.094
2.274000,0.1691,-1.5615,3.7184,4.037
2.283000,0.3731,-1.4247,3.7144,3.996
2.285000,0.5251,-1.2468,3.7394,3.977
2.289000,0.6898,-0.9850,3.7620,3.949
2.314000,0.8740,-0.6637,3.7485,3.906
2.316000,1.0681,-0.3742,3.7465,3.914
2.316000,1.2671,-0.0618,3.7894,3.996
2.317000,1.4490,0.2396,3.8914,4.159
2.318000,1.5158,0.4505,3.9731,4.276
2.319000,1.5461,0.5829,4.0010,4.329
2.324000,1.5494,0.6649,4.0752,4.410
2.329000,1.5113,0.6938,4.1788,4.497
2.334000,1.4438,0.6815,4.3091,4.595
2.339000,1.3731,0.5769,4.3867,4.633
2.346000,1.2926,0.3512,4.3924,4.592
2.349000,1.2001,0.1914,4.2713,4.441
2.354000,1.1605,0.0134,4.0808,4.243
2.359000,1.1091,-0.1342,3.7953,3.956
2.364000,1.0793,-0.2421,3.4817,3.653
2.369000,1.0785,-0.3623,3.1550,3.354
2.373000,1.1018,-0.4413,2.8445,3.082
2.381000,1.0919,-0.5294,2.5691,2.841
2.384000,1.1135,-0.6550,2.2431,2.589
2.389000,1.1640,-0.8173,1.9963,2.451
2.394000,1.1836,-0.9712,1.7755,2.344
2.415000,1.1606,-1.0302,1.4663,2.135
2.416000,1.1332,-1.0990,1.1266,1.939
2.418000,0.9985,-1.1441,0.7015,1.673
2.419000,0.9218,-1.0736,0.3183,1.450
2.419000,0.8054,-0.9879,-0.0038,1.275
2.423000,0.6730,-0.8913,-0.2503,1.145
2.429000,0.5177,-0.7280,-0.4282,0.991
2.433000,0.3752,-0.6137,-0.5283,0.892
2.438000,0.2617,-0.4618,-0.6103,0.809
2.445000,0.1362,-0.3469,-0.6192,0.723
2.449000,-0.0062,-0.2217,-0.5029,0.550
2.453000,-0.1179,-0.1606,-0.4075,0.454
2.457000,-0.2372,-0.0427,-0.3360,0.413
2.463000,-0.3450,0.0049,-0.3243,0.473
2.468000,-0.4916,0.0541,-0.3675,0.616
2.474000,-0.5790,0.1160,-0.4181,0.724
2.481000,-0.6839,0.1667,-0.4976,0.862
2.484000,-0.7321,0.1874,-0.6631,1.005
2.488000,-0.7767,0.1943,-0.8071,1.137
2.508000,-0.7890,0.1686,-0.9653,1.258
2.509000,-0.7809,0.1182,-1.1325,1.381
2.510000,-0.8148,0.0998,-1.2470,1.493
2.510000,-0.7998,0.0422,-1.3705,1.587
2.515000,-0.7718,-0.0233,-1.4361,1.631
2.518000,-0.7668,-0.1116,-1.5349,1.719
2.523000,-0.7535,-0.2506,-1.6259,1.809
2.529000,-0.8297,-0.3694,-1.7358,1.959
2.532000,-0.8757,-0.4890,-1.8454,2.100
2.537000,-0.9170,-0.6280,-1.9927,2.282
2.542000,-0.9696,-0.7369,-2.1041,2.431
2.547000,-0.9548,-0.8078,-2.1745,2.509
2.552000,-0.9172,-0.9145,-2.1993,2.552
2.557000,-0.8755,-1.0553,-2.2625,2.646
2.562000,-0.8466,-1.1695,-2.3232,2.735
2.569000,-0.7996,-1.3345,-2.3887,2.851
2.572000,-0.7681,-1.5022,-2.3968,2.931
2.579000,-0.7160,-1.6771,-2.4622,3.064
2.582000,-0.6459,-1.8240,-2.5493,3.200
2.587000,-0.5819,-1.9259,-2.6218,3.305
2.592000,-0.5052,-2.0325,-2.6988,3.416
2.604000,-0.4469,-2.1852,-2.8211,3.596
2.605000,-0.4360,-2.2683,-2.9739,3.766
2.606000,-0.4389,-2.4069,-3.1191,3.964
2.616000,-0.4107,-2.5164,-3.2612,4.140
2.629000,-0.4017,-2.6206,-3.4407,4.344
2.630000,-0.4504,-2.7313,-3.6098,4.549
2.630000,-0.5186,-2.8219,-3.8208,4.778
2.645000,-0.5942,-2.8756,-3.9663,4.935
2.647000,-0.6652,-2.9875,-4.1274,5.138
2.648000,-0.6937,-3.0734,-4.2227,5.269
2.648000,-0.7251,-3.2286,-4.3311,5.451
2.652000,-0.7285,-3.3549,-4.3977,5.579
2.656000,-0.7206,-3.4594,-4.4679,5.696
2.662000,-0.7253,-3.5392,-4.4939,5.766
2.666000,-0.6874,-3.5853,-4.5333,5.820
2.671000,-0.6478,-3.6137,-4.5189,5.822
2.678000,-0.5512,-3.6368,-4.3913,5.728
2.682000,-0.3998,-3.6111,-4.3323,5.654
2.686000,-0.2414,-3.5804,-4.2560,5.567
2.691000,-0.1217,-3.6237,-4.1599,5.518
2.696000,-0.0382,-3.6285,-4.0848,5.464
2.701000,0.0304,-3.6979,-3.9948,5.444
2.706000,0.1129,-3.7984,-3.9091,5.452
2.716000,0.1900,-3.9178,-3.7918,5.456
2.717000,0.2449,-4.0706,-3.6023,5.441
2.721000,0.3260,-4.1966,-3.3861,5.402
2.726000,0.4001,-4.3460,-3.2056,5.415
2.751000,0.4837,-4.4449,-2.9771,5.372
2.752000,0.5742,-4.6084,-2.7555,5.400
2.753000,0.6307,-4.8078,-2.6055,5.505
2.755000,0.6294,-4.9575,-2.3644,5.528
2.755000,0.6064,-5.1268,-2.1591,5.596
2.756000,0.5243,-5.2893,-2.0590,5.700
2.762000,0.4724,-5.4086,-2.1647,5.845
2.766000,0.4502,-5.4577,-2.3320,5.952
2.771000,0.4295,-5.4838,-2.4676,6.029
2.776000,0.4748,-5.5390,-2.5021,6.096
2.780000,0.5405,-5.4673,-2.4953,6.034
2.786000,0.6388,-5.5003,-2.4184,6.042
2.790000,0.7289,-5.5375,-2.2308,6.014
2.795000,0.8708,-5.5597,-1.9972,5.971
2.800000,1.0304,-5.5935,-1.7726,5.957
2.805000,1.2071,-5.5983,-1.5040,5.921
2.811000,1.3687,-5.5293,-1.2153,5.824
2.817000,1.4480,-5.4371,-0.9137,5.700
2.821000,1.5649,-5.2748,-0.6016,5.535
2.825000,1.6524,-5.1308,-0.2050,5.394
2.845000,1.7105,-4.9725,0.1253,5.260
2.847000,1.7629,-4.7719,0.3415,5.099
2.847000,1.7541,-4.5886,0.5372,4.942
2.848000,1.7385,-4.4112,0.6862,4.791
2.850000,1.7180,-4.1999,0.8625,4.619
2.855000,1.7598,-3.9324,1.0377,4.431
2.860000,1.8330,-3.6382,1.2138,4.251
2.865000,1.8806,-3.3298,1.4433,4.087
2.870000,1.8503,-3.0047,1.5419,3.851
2.875000,1.7784,-2.6281,1.6051,3.556
2.880000,1.7155,-2.2140,1.6354,3.243
2.885000,1.6806,-1.8204,1.5561,2.926
2.890000,1.7142,-1.4454,1.5274,2.713
2.896000,1.7421,-1.0642,1.4491,2.503
2.900000,1.7834,-0.6705,1.3232,2.320
2.905000,1.7614,-0.3352,1.2818,2.204
2.910000,1.7358,0.0106,1.3245,2.183
2.915000,1.6900,0.2685,1.4105,2.218
2.919000,1.6120,0.4603,1.5994,2.317
2.924000,1.5882,0.5496,1.8048,2.466
2.933000,1.4850,0.5163,2.0811,2.608
2.935000,1.3216,0.4927,2.2299,2.638
2.940000,1.1580,0.4373,2.4518,2.747
2.961000,0.9280,0.3018,2.6314,2.807
2.962000,0.6892,0.2109,2.6949,2.790
2.963000,0.4779,0.1190,2.7017,2.746
2.964000,0.2821,0.0422,2.6613,2.677
2.964000,0.1021,-0.0331,2.5930,2.595
2.969000,-0.1053,-0.1693,2.3939,2.402
2.976000,-0.3448,-0.2507,2.1817,2.223
2.980000,-0.6047,-0.3705,1.8656,1.996
2.984000,-0.8279,-0.4372,1.5681,1.826
2.989000,-1.0628,-0.4715,1.2226,1.687
2.996000,-1.2544,-0.5068,0.9202,1.636
2.999000,-1.3885,-0.5141,0.5534,1.581
3.004000,-1.4727,-0.4641,0.2613,1.566
3.009000,-1.5644,-0.4067,-0.0086,1.616
3.015000,-1.6347,-0.3298,-0.2874,1.692
3.019000,-1.7056,-0.2166,-0.5726,1.812
3.024000,-1.7912,-0.1239,-0.8758,1.998
3.032000,-1.8938,-0.0228,-1.1348,2.208
3.034000,-1.9680,0.1660,-1.4260,2.436
3.038000,-1.9396,0.3632,-1.6584,2.578
3.043000,-1.8905,0.5094,-1.8583,2.699
3.062000,-1.7733,0.6237,-2.0159,2.756
3.063000,-1.6475,0.8089,-2.0933,2.784
3.064000,-1.5256,0.9739,-2.0377,2.725
3.064000,-1.3637,1.1951,-1.9978,2.698
3.069000,-1.2312,1.3815,-1.9857,2.714
3.073000,-1.0199,1.5184,-1.9108,2.645
3.079000,-0.7917,1.6123,-1.8214,2.558
3.083000,-0.5532,1.7783,-1.7272,2.540
3.089000,-0.3468,1.9658,-1.6572,2.594
3.096000,-0.1817,2.1168,-1.6357,2.681
3.100000,-0.0246,2.2937,-1.6171,2.807
3.103000,0.0868,2.4199,-1.6302,2.919
3.109000,0.1020,2.5048,-1.6226,2.986
3.114000,0.1027,2.5200,-1.5965,2.985
3.119000,0.1557,2.5392,-1.5761,2.993
3.123000,0.2037,2.5557,-1.5589,3.000
3.133000,0.2607,2.5500,-1.5377,2.989
3.135000,0.2814,2.5676,-1.5389,3.007
3.138000,0.3278,2.5683,-1.5502,3.018
3.143000,0.3325,2.5351,-1.6242,3.029
3.178000,0.2757,2.4568,-1.6431,2.968
3.179000,0.2143,2.4003,-1.6067,2.896
3.180000,0.1414,2.2917,-1.5533,2.772
3.180000,0.0496,2.2077,-1.5450,2.695
3.180000,-0.0441,2.1394,-1.5479,2.641
3.181000,-0.1205,2.1010,-1.5237,2.598
3.181000,-0.1703,2.0380,-1.4147,2.487
3.183000,-0.1626,2.0679,-1.2615,2.428
3.187000,-0.2010,2.0611,-1.0520,2.323
3.192000,-0.2112,2.0348,-0.7407,2.176
3.198000,-0.2101,2.0268,-0.3732,2.072
3.203000,-0.2366,2.0627,0.0093,2.076
3.208000,-0.2686,2.0585,0.4522,2.125
3.213000,-0.2961,2.1259,0.9067,2.330
3.218000,-0.2662,2.2574,1.3153,2.626
3.222000,-0.2510,2.3067,1.6994,2.876
3.230000,-0.2335,2.3663,2.0344,3.129
3.232000,-0.2832,2.4265,2.2916,3.350
3.237000,-0.3259,2.5180,2.5881,3.626
3.242000,-0.3427,2.5237,2.8425,3.817
3.248000,-0.3886,2.5528,3.0255,3.978
3.251000,-0.4946,2.5746,3.1566,4.103
3.256000,-0.5745,2.5240,3.2043,4.119
3.280000,-0.5876,2.4280,3.2599,4.107
3.282000,-0.5746,2.3085,3.2328,4.014
3.282000,-0.5261,2.1775,3.1877,3.896
3.282000,-0.5689,2.0715,3.1441,3.808
3.283000,-0.5787,1.9284,3.0592,3.662
3.287000,-0.6291,1.7442,3.0313,3.553
3.291000,-0.5907,1.5407,3.0151,3.437
3.297000,-0.5329,1.3807,3.0444,3.385
3.301000,-0.4484,1.2477,3.0907,3.363
3.306000,-0.3063,1.1060,3.2474,3.444
3.311000,-0.1568,1.0107,3.4451,3.594
3.316000,-0.0119,0.9112,3.6739,3.785
3.321000,0.0951,0.8268,3.9147,4.002
3.329000,0.2260,0.7928,4.1505,4.232
3.332000,0.4215,0.7781,4.4149,4.503
3.337000,0.5593,0.8299,4.6642,4.770
3.341000,0.6227,0.9432,4.8197,4.950
3.348000,0.6355,1.0888,4.9432,5.101
3.351000,0.5831,1.2568,5.0682,5.254
3.357000,0.5017,1.3850,5.1826,5.388
3.367000,0.4131,1.3606,5.3361,5.522
3.368000,0.2908,1.3511,5.4857,5.657
3.371000,0.1712,1.2464,5.6169,5.756
3.376000,0.1021,1.0703,5.7437,5.843
3.396000,0.0477,0.9377,5.8518,5.927
3.397000,0.0225,0.7480,5.9149,5.962
3.398000,0.0264,0.5992,5.9043,5.935
3.398000,0.0305,0.4435,5.8630,5.880
3.401000,0.1017,0.2884,5.6480,5.656
3.406000,0.2277,0.1865,5.4032,5.411
3.413000,0.4032,0.0979,5.1555,5.172
3.416000,0.5852,0.0231,4.8576,4.893
3.421000,0.7595,-0.0326,4.6078,4.670
3.425000,0.9591,-0.0976,4.4737,4.576
3.431000,1.1695,-0.1643,4.3738,4.530
3.436000,1.4030,-0.1800,4.3418,4.566
3.440000,1.5738,-0.1134,4.3345,4.613
3.447000,1.7178,-0.0104,4.3781,4.703
3.455000,1.7993,0.1696,4.4174,4.773
3.458000,1.8424,0.4549,4.4448,4.833
3.481000,1.9236,0.8066,4.3836,4.855
3.482000,1.9589,1.1357,4.3390,4.894
3.482000,1.9221,1.5064,4.4084,5.040
3.483000,1.8874,1.8486,4.5244,5.239
3.483000,1.8408,2.0495,4.6770,5.428
3.486000,1.7270,2.1348,4.7698,5.504
3.490000,1.6107,2.1328,4.8815,5.565
3.496000,1.4059,2.0596,4.9256,5.521
3.500000,1.2060,1.9056,4.8422,5.342
3.505000,1.0754,1.6610,4.6601,5.063
3.511000,0.9596,1.4197,4.3629,4.687
3.516000,0.9039,1.1701,3.9464,4.214
3.522000,0.8987,0.9296,3.4997,3.731
3.526000,0.9009,0.7186,3.0598,3.270
3.531000,0.9438,0.5302,2.6817,2.892
3.535000,0.9893,0.3558,2.3710,2.594
3.539000,1.0375,0.1841,2.1208,2.368
3.545000,1.1699,0.0102,1.9404,2.266
3.549000,1.2692,-0.2059,1.8636,2.264
3.555000,1.4078,-0.3617,1.7514,2.276
3.560000,1.5066,-0.4350,1.6589,2.283
3.566000,1.5134,-0.4594,1.4907,2.173
3.571000,1.4238,-0.4402,1.3443,2.007
3.607000,1.3123,-0.3579,1.2606,1.855
3.608000,1.1452,-0.2984,1.1250,1.633
3.608000,1.0186,-0.2288,1.0111,1.453
3.609000,0.8529,-0.1444,0.9382,1.276
3.609000,0.6336,-0.0501,0.8848,1.089
3.609000,0.3822,0.2545,0.7428,0.873
3.610000,0.3971,0.2166,0.7159,0.847
3.610000,0.3000,0.3501,0.6600,0.805
3.615000,0.1883,0.5350,0.6040,0.829
3.620000,0.0999,0.6543,0.4261,0.787
3.624000,-0.0375,0.7383,0.3151,0.804
3.630000,-0.1497,0.8852,0.1946,0.919
3.634000,-0.2567,0.9659,0.0909,1.004
3.638000,-0.3702,1.0157,-0.0082,1.081
3.645000,-0.4901,1.0514,-0.1312,1.167
3.649000,-0.5591,1.0398,-0.2734,1.212
3.654000,-0.6560,1.0165,-0.4300,1.284
3.659000,-0.7207,0.9697,-0.6488,1.371
3.664000,-0.7226,0.8906,-0.8073,1.403
3.669000,-0.7042,0.8144,-0.9968,1.467
3.673000,-0.6271,0.7779,-1.2099,1.569
3.682000,-0.5084,0.6872,-1.3628,1.609
3.684000,-0.4557,0.6025,-1.5535,1.727
3.689000,-0.3370,0.4670,-1.7269,1.820
3.694000,-0.2354,0.3950,-1.7972,1.855
3.715000,-0.0998,0.2168,-1.8387,1.854
3.717000,-0.0685,0.1099,-1.9472,1.951
3.717000,0.0217,-0.0030,-2.1037,2.104
3.717000,0.0795,-0.1166,-2.2936,2.298
3.720000,0.1026,-0.2925,-2.4329,2.453
3.724000,0.1083,-0.4595,-2.6201,2.662
3.730000,0.1565,-0.6571,-2.8019,2.882
3.733000,0.1920,-0.8356,-2.9428,3.065
3.739000,0.2052,-1.0589,-3.1215,3.303
3.745000,0.2463,-1.2547,-3.2612,3.503
3.749000,0.2508,-1.4380,-3.4053,3.705
3.753000,0.2279,-1.6512,-3.5271,3.901
3.758000,0.2041,-1.7454,-3.6312,4.034
3.764000,0.1313,-1.8741,-3.7992,4.238
3.769000,0.0715,-1.9722,-3.9303,4.398
3.773000,-0.0162,-2.0616,-4.0509,4.545
3.782000,-0.0554,-2.1632,-4.1489,4.679
3.784000,-0.1373,-2.2648,-4.2601,4.827
3.787000,-0.1708,-2.3452,-4.3584,4.952
3.816000,-0.1585,-2.4518,-4.4101,5.048
3.817000,-0.1702,-2.5410,-4.3889,5.074
3.818000,-0.1026,-2.6346,-4.3476,5.085
3.818000,-0.0256,-2.6464,-4.3149,5.062
3.819000,0.0105,-2.7028,-4.2166,5.009
3.819000,0.0324,-2.7547,-4.1129,4.950
3.823000,0.0948,-2.7489,-3.9438,4.808
3.830000,0.1332,-2.8198,-3.7408,4.686
3.834000,0.1240,-2.9318,-3.5015,4.569
3.838000,0.0961,-3.0635,-3.3099,4.511
3.845000,0.1022,-3.2006,-3.2091,4.534
3.849000,0.0633,-3.3981,-3.1414,4.628
3.853000,0.0871,-3.5073,-3.0206,4.630
3.857000,0.1496,-3.6336,-2.9235,4.666
3.862000,0.1935,-3.7647,-2.8618,4.733
3.867000,0.3064,-3.9072,-2.7875,4.809
3.872000,0.4404,-4.0495,-2.6409,4.855
3.879000,0.5424,-4.2273,-2.4792,4.931
3.882000,0.6176,-4.3736,-2.2214,4.944
3.887000,0.7834,-4.5291,-1.9752,5.003
3.893000,0.9105,-4.6460,-1.6665,5.019
3.897000,1.0088,-4.7486,-1.3719,5.045
3.902000,1.0661,-4.8731,-1.1418,5.117
3.907000,1.1469,-4.9979,-0.9592,5.217
3.915000,1.2386,-5.0564,-0.7739,5.263
3.918000,1.3098,-5.0989,-0.7173,5.313
3.922000,1.3338,-5.1233,-0.5669,5.324
3.944000,1.3825,-5.0867,-0.4138,5.287
3.946000,1.4294,-5.1107,-0.2959,5.315
3.946000,1.4792,-5.1045,-0.1608,5.317
3.947000,1.4818,-5.1547,0.0034,5.363
3.948000,1.4683,-5.1822,0.1512,5.388
3.952000,1.4053,-5.2013,0.2373,5.393
3.956000,1.3382,-5.2338,0.2593,5.408
3.961000,1.2934,-5.1884,0.2460,5.353
3.966000,1.2970,-5.1036,0.2885,5.274
3.972000,1.3031,-5.0703,0.3674,5.248
3.977000,1.3118,-5.0743,0.4159,5.258
3.982000,1.2629,-5.0843,0.4962,5.262
3.987000,1.1403,-5.1007,0.5292,5.253
3.992000,1.0992,-5.0347,0.4960,5.177
3.997000,1.1274,-4.8199,0.4038,4.966
4.002000,1.2059,-4.6264,0.3123,4.791
4.006000,1.2724,-4.3561,0.1523,4.541
4.032000,1.3777,-4.0211,-0.0141,4.251
4.034000,1.4575,-3.7367,-0.3019,4.022
4.034000,1.6028,-3.4214,-0.6175,3.828
4.035000,1.6821,-3.1464,-0.8723,3.673
4.035000,1.8131,-2.8689,-1.1765,3.592
4.037000,1.9769,-2.4852,-1.5084,3.516
4.041000,2.1976,-2.1194,-1.7482,3.518
4.047000,2.4419,-1.7329,-1.9678,3.583
4.051000,2.6307,-1.4192,-2.0762,3.639
4.056000,2.8280,-1.1487,-2.0949,3.702
4.062000,3.0150,-0.8815,-1.9713,3.709
4.066000,3.0959,-0.7178,-1.7249,3.616
4.071000,3.0782,-0.6462,-1.3274,3.414
4.076000,2.9721,-0.5980,-0.8699,3.154
4.082000,2.7927,-0.5860,-0.4417,2.887
4.086000,2.4782,-0.5746,0.0289,2.544
4.091000,2.1060,-0.5603,0.4312,2.222
4.096000,1.6769,-0.6061,0.7528,1.935
4.101000,1.2262,-0.7245,0.9292,1.701
4.106000,0.7966,-0.8053,1.0347,1.534
4.117000,0.2157,-0.9109,1.0692,1.421
4.118000,-0.4279,-1.0961,1.0474,1.575
4.121000,-1.0693,-1.2053,0.9214,1.856
4.126000,-1.6534,-1.2761,0.6532,2.188
4.148000,-2.1683,-1.2964,0.3053,2.545
4.150000,-2.5615,-1.2846,-0.0502,2.866
4.151000,-2.8692,-1.2567,-0.4561,3.165
4.151000,-3.1153,-1.1763,-0.8665,3.441
4.152000,-3.2456,-1.1097,-1.3075,3.671
4.156000,-3.3206,-0.9987,-1.6756,3.851
4.162000,-3.3529,-0.9026,-2.0233,4.019
4.165000,-3.3524,-0.7996,-2.3263,4.158
4.170000,-3.3222,-0.6918,-2.5892,4.268
4.175000,-3.2482,-0.5453,-2.8143,4.332
4.181000,-3.1351,-0.3674,-2.9560,4.325
4.185000,-2.9544,-0.1985,-3.0384,4.243
4.190000,-2.7491,-0.0104,-3.0974,4.141
4.195000,-2.5457,0.1805,-3.1090,4.022
4.199000,-2.3248,0.3784,-3.0280,3.836
4.205000,-2.1463,0.5857,-2.8569,3.621
4.210000,-1.9712,0.7755,-2.6799,3.416
4.215000,-1.7607,1.0024,-2.5331,3.244
4.220000,-1.5426,1.1795,-2.3573,3.054
4.224000,-1.3266,1.3475,-2.2124,2.910
4.232000,-1.1980,1.5292,-2.1324,2.885
4.235000,-1.1018,1.6659,-2.0331,2.850
4.240000,-1.0349,1.7495,-1.9678,2.829
4.274000,-1.0403,1.8374,-1.9341,2.863
4.276000,-0.9957,1.9083,-1.8411,2.832
4.277000,-0.9440,1.9431,-1.7846,2.802
4.278000,-0.9065,1.9774,-1.7026,2.762
4.279000,-0.8497,1.9832,-1.6355,2.707
4.279000,-0.8071,1.9574,-1.5286,2.611
4.280000,-0.7930,1.9676,-1.4583,2.574
4.281000,-0.7621,2.0227,-1.4271,2.590
4.284000,-0.7411,2.0037,-1.3533,2.529
4.289000,-0.7494,1.9631,-1.2823,2.462
4.296000,-0.7514,1.8818,-1.2380,2.375
4.299000,-0.7624,1.8149,-1.1459,2.278
4.304000,-0.8089,1.7416,-1.1394,2.233
4.309000,-0.8432,1.7003,-1.0796,2.183
4.315000,-0.8562,1.6619,-0.9117,2.080
4.319000,-0.8646,1.6296,-0.8074,2.014
4.324000,-0.8974,1.6032,-0.6543,1.950
4.334000,-0.9401,1.6091,-0.3974,1.906
4.336000,-1.0115,1.6282,-0.1565,1.923
4.340000,-1.0563,1.6751,0.1141,1.984
4.371000,-1.0484,1.7537,0.4785,2.098
4.372000,-0.9925,1.8356,0.9965,2.312
4.373000,-0.9701,1.8766,1.4950,2.588
4.373000,-1.0026,1.8793,2.0005,2.922
4.374000,-1.0569,1.9192,2.5076,3.330
4.374000,-1.2072,1.9167,2.8987,3.679
4.379000,-1.3124,1.9073,3.2719,4.008
4.381000,-1.4489,1.9195,3.4976,4.245
4.383000,-1.5644,1.9218,3.7193,4.469
4.388000,-1.7209,1.9240,3.8462,4.632
4.393000,-1.8703,1.8757,3.8735,4.693
4.399000,-1.8785,1.7634,3.8471,4.630
4.403000,-1.7869,1.6014,3.8747,4.558
4.408000,-1.6937,1.4309,3.9351,4.517
4.415000,-1.5555,1.3050,3.9207,4.415
4.419000,-1.4271,1.2001,3.9181,4.339
4.425000,-1.3252,1.0565,3.9582,4.306
4.428000,-1.2658,0.9277,3.9674,4.266
4.433000,-1.0792,0.8493,4.0172,4.245
4.439000,-0.8968,0.8240,4.0599,4.239
4.444000,-0.8164,0.7943,4.2151,4.366
4.448000,-0.6402,0.7934,4.2099,4.332
4.453000,-0.4621,0.8812,4.3034,4.417
4.460000,-0.3704,0.9331,4.4686,4.580
4.481000,-0.1876,0.9965,4.7100,4.818
4.483000,0.0312,1.0190,4.9748,5.078
4.484000,0.1806,0.9759,5.2984,5.391
4.484000,0.2683,0.9297,5.5589,5.642
4.484000,0.2965,0.9469,5.7702,5.855
4.488000,0.3635,0.9434,5.9297,6.015
4.492000,0.3425,0.9148,6.1238,6.201
4.497000,0.3101,0.8058,6.3213,6.380
4.502000,0.3164,0.6545,6.5218,6.562
4.507000,0.3712,0.5257,6.8234,6.854
4.512000,0.3836,0.3809,7.0728,7.093
4.517000,0.4201,0.1912,7.2388,7.253
4.522000,0.4378,0.0665,7.3837,7.397
4.528000,0.5225,0.0496,7.4261,7.445
4.533000,0.5830,0.0713,7.3568,7.380
4.538000,0.6167,0.1362,7.2692,7.297
4.543000,0.6452,0.1461,7.1106,7.141
4.549000,0.6591,0.2117,6.9508,6.985
4.554000,0.6274,0.2183,6.7495,6.782
4.557000,0.5839,0.2692,6.6168,6.648
4.565000,0.6150,0.3694,6.4166,6.457
4.570000,0.6775,0.6218,6.2038,6.272
4.573000,0.7998,0.9591,6.0648,6.192
4.577000,0.9099,1.3115,5.9872,6.196
4.604000,0.9693,1.6686,5.8915,6.200
4.605000,1.0423,1.9488,5.7632,6.172
4.606000,1.1073,2.1325,5.6161,6.109
4.606000,1.1188,2.2816,5.4717,6.033
4.609000,1.1988,2.4054,4.9998,5.676
4.609000,1.2034,2.3819,4.9755,5.646
4.614000,1.2240,2.3429,4.6953,5.388
4.617000,1.2815,2.2355,4.4082,5.106
4.622000,1.3404,1.9957,4.0858,4.741
4.626000,1.3629,1.7984,3.7666,4.391
4.632000,1.4615,1.6028,3.4503,4.075
4.637000,1.5336,1.3623,3.0854,3.705
4.641000,1.6155,1.1484,2.6908,3.342
4.647000,1.7405,0.9643,2.2934,3.036
4.652000,1.8492,0.8298,1.9130,2.787
4.657000,1.9752,0.7189,1.6332,2.662
4.674000,2.0805,0.6365,1.3059,2.538
4.675000,2.1721,0.4996,1.0823,2.478
4.677000,2.2237,0.3462,0.8617,2.410
4.678000,2.2403,0.2679,0.6084,2.337
4.682000,2.2268,0.2408,0.3993,2.275
4.687000,2.1907,0.2480,0.2100,2.215
4.691000,2.1633,0.2419,0.0384,2.177
4.696000,2.0845,0.2707,-0.1083,2.105
4.701000,1.9784,0.3145,-0.1921,2.012
4.706000,1.8451,0.3524,-0.2894,1.901
4.712000,1.7136,0.4052,-0.3624,1.798
4.717000,1.5932,0.4660,-0.4444,1.718
4.721000,1.4596,0.5633,-0.5187,1.648
4.726000,1.2863,0.6797,-0.5926,1.571
4.732000,1.1324,0.7869,-0.7808,1.585
4.736000,0.9835,0.8631,-0.8344,1.552
4.742000,0.8295,0.8798,-0.7941,1.447
4.747000,0.6752,0.9656,-0.8516,1.454
4.751000,0.5779,1.0510,-0.8921,1.495
4.756000,0.4560,1.1623,-0.9083,1.544
4.763000,0.3765,1.2557,-0.9079,1.595
4.767000,0.3013,1.3290,-0.9459,1.659
4.771000,0.2472,1.3582,-0.9816,1.694
4.776000,0.1788,1.3644,-0.9938,1.697
4.783000,0.1078,1.3293,-1.0371,1.689
4.788000,0.0440,1.2740,-1.1308,1.704
4.791000,0.0496,1.2031,-1.1483,1.664
4.826000,0.0956,1.1386,-1.2209,1.672
4.832000,0.1578,1.0731,-1.2026,1.619
4.833000,0.1691,0.9805,-1.1867,1.549
4.833000,0.2374,0.8649,-1.1114,1.428
4.833000,0.2981,0.7361,-1.0700,1.332
4.834000,0.3609,0.6129,-1.0697,1.285
4.835000,0.4449,0.4837,-1.0457,1.235
4.835000,0.4904,0.3023,-1.0701,1.215
4.836000,0.5141,0.1527,-1.1858,1.301
4.841000,0.5355,-0.0006,-1.2610,1.370
4.845000,0.5550,-0.1887,-1.3100,1.435
4.850000,0.5726,-0.3205,-1.3927,1.540
4.856000,0.6745,-0.4817,-1.5135,1.726
4.867000,0.6718,-0.6579,-1.6557,1.904
4.869000,0.7128,-0.8330,-1.7358,2.053
4.872000,0.7329,-0.9868,-1.8849,2.250
4.874000,0.7489,-1.1745,-2.0192,2.453
4.899000,0.7607,-1.3425,-2.2102,2.696
4.903000,0.7894,-1.4079,-2.3600,2.859
4.904000,0.8518,-1.5471,-2.4850,3.049
4.904000,0.8426,-1.6351,-2.5613,3.153
4.905000,0.8910,-1.7347,-2.6442,3.286
4.908000,0.9846,-1.8094,-2.7380,3.426
4.909000,1.0706,-1.8853,-2.7614,3.511
4.915000,1.0985,-1.9513,-2.7938,3.580
4.920000,1.1302,-2.0285,-2.8013,3.639
4.924000,1.1229,-2.1486,-2.8537,3.744
4.929000,1.0670,-2.3017,-2.9292,3.875
4.935000,1.0530,-2.4082,-3.0061,3.993
4.939000,1.0619,-2.4948,-3.1014,4.120
4.945000,1.1075,-2.5899,-3.2123,4.272
4.949000,1.1700,-2.6594,-3.2645,4.370
4.954000,1.1944,-2.7538,-3.1985,4.386
4.960000,1.2672,-2.8134,-3.1722,4.425
4.965000,1.2711,-2.9315,-3.0973,4.450
4.970000,1.3090,-3.1344,-3.0430,4.560
4.975000,1.4000,-3.3188,-2.9425,4.651
4.982000,1.4386,-3.5451,-2.8150,4.750
4.985000,1.4995,-3.7627,-2.7227,4.881
4.989000,1.5855,-3.9686,-2.6703,5.039
5.017000,1.6246,-4.1229,-2.5958,5.136
5.018000,1.6770,-4.2775,-2.6018,5.280
5.018000,1.7070,-4.4631,-2.6094,5.444
5.019000,1.7049,-4.5914,-2.5325,5.514
5.019000,1.7620,-4.6739,-2.5003,5.586
5.019000,1.7782,-4.7820,-2.4122,5.643
5.024000,1.8275,-4.8086,-2.2566,5.617
5.029000,1.9057,-4.8608,-2.1053,5.629
5.034000,1.9383,-4.9177,-1.9463,5.633
5.038000,1.9563,-4.9744,-1.7892,5.637
5.044000,1.9497,-5.0053,-1.6605,5.622
5.048000,1.8683,-5.0079,-1.5338,5.561
5.053000,1.7792,-5.0356,-1.4642,5.538
5.058000,1.7113,-5.0978,-1.4110,5.559
5.063000,1.7170,-5.2066,-1.4268,5.665
5.068000,1.7218,-5.2989,-1.4946,5.769
5.074000,1.7112,-5.4272,-1.5664,5.902
5.080000,1.6702,-5.5119,-1.6396,5.988
5.083000,1.5821,-5.5406,-1.6781,6.001
5.088000,1.4684,-5.5441,-1.6652,5.972
5.111000,1.3965,-5.4769,-1.6464,5.887
5.115000,1.3474,-5.3583,-1.5644,5.742
5.116000,1.3308,-5.1715,-1.3953,5.519
5.116000,1.3184,-4.9935,-1.2063,5.304
5.118000,1.2966,-4.8562,-1.0791,5.141
5.119000,1.2743,-4.7738,-0.9703,5.035
5.123000,1.2760,-4.6631,-0.8372,4.906
5.131000,1.1842,-4.4403,-0.7919,4.663
5.137000,1.0967,-4.1850,-0.9086,4.421
5.139000,0.9941,-3.8686,-1.0412,4.128
5.144000,0.8951,-3.5176,-1.1991,3.823
5.149000,0.8545,-3.0866,-1.3845,3.489
5.152000,0.7957,-2.7143,-1.5712,3.236
5.158000,0.8619,-2.4097,-1.7013,3.073
5.164000,0.9531,-2.1203,-1.7490,2.909
5.168000,0.9949,-1.9149,-1.7570,2.783
5.175000,0.9832,-1.7002,-1.7471,2.629
5.180000,1.0119,-1.5124,-1.5879,2.415
5.183000,0.9949,-1.3751,-1.3656,2.178
5.188000,0.9548,-1.3390,-1.0162,1.933
5.193000,0.9279,-1.3344,-0.5636,1.720
5.208000,0.9214,-1.2955,-0.0633,1.591
5.209000,0.8594,-1.3285,0.4290,1.639
5.209000,0.6944,-1.3434,0.8223,1.721
5.224000,0.4693,-1.3598,1.1570,1.846
5.225000,0.2106,-1.3659,1.4069,1.972
5.225000,-0.0693,-1.3554,1.5860,2.087
5.232000,-0.3563,-1.3375,1.4984,2.040
5.233000,-0.6176,-1.2885,1.4363,2.026
5.237000,-1.0347,-1.4404,1.7056,2.461
5.242000,-1.4605,-1.5965,1.6528,2.723
5.247000,-1.8170,-1.6350,1.5248,2.881
5.252000,-2.2319,-1.6443,1.4105,3.110
5.257000,-2.6099,-1.6077,1.1545,3.276
5.262000,-2.8867,-1.4913,0.7406,3.333
5.267000,-3.0773,-1.3521,0.3557,3.380
5.272000,-3.2365,-1.2091,-0.0266,3.455
5.277000,-3.3644,-1.0666,-0.4156,3.554
5.282000,-3.5215,-0.8901,-0.8394,3.728
5.287000,-3.5931,-0.7013,-1.2359,3.864
5.291000,-3.6086,-0.5402,-1.5614,3.969
5.296000,-3.5202,-0.3634,-1.8065,3.973
5.301000,-3.3305,-0.2141,-1.9856,3.883
5.306000,-3.1325,-0.0084,-2.0701,3.755
5.315000,-2.9044,0.1505,-2.2038,3.649
5.316000,-2.7319,0.3174,-2.3844,3.640
5.321000,-2.5001,0.4972,-2.5209,3.585
5.342000,-2.2760,0.6589,-2.6302,3.540
5.344000,-2.0731,0.8716,-2.7102,3.522
5.344000,-1.8599,1.0422,-2.7513,3.481
5.345000,-1.6746,1.2589,-2.8065,3.502
5.350000,-1.5504,1.4096,-2.8158,3.510
5.353000,-1.4157,1.4557,-2.7627,3.429
5.356000,-1.3252,1.5309,-2.6689,3.350
5.362000,-1.2334,1.6112,-2.6112,3.307
5.366000,-1.1140,1.6941,-2.5847,3.285
5.370000,-0.9832,1.7817,-2.4821,3.210
5.376000,-0.9775,1.8144,-2.4277,3.185
5.381000,-0.9552,1.8183,-2.4027,3.161
5.386000,-0.9712,1.8130,-2.3469,3.121
5.392000,-1.0326,1.7817,-2.3874,3.153
5.396000,-1.0466,1.7700,-2.3610,3.131
5.401000,-1.0662,1.7064,-2.3203,3.071
5.405000,-1.0364,1.5914,-2.2792,2.967
5.412000,-1.0481,1.4726,-2.1807,2.832
5.415000,-1.0395,1.4415,-2.0936,2.746
5.420000,-1.0056,1.4212,-1.9367,2.604
5.425000,-0.9539,1.4359,-1.7507,2.457
5.439000,-0.9396,1.4258,-1.5280,2.291
5.440000,-0.9293,1.4143,-1.2716,2.117
5.442000,-0.9444,1.3469,-0.9905,1.920
5.448000,-0.9398,1.3213,-0.6875,1.761
5.450000,-0.9420,1.3605,-0.3222,1.686
5.455000,-0.9151,1.3839,-0.0593,1.660
5.461000,-0.9073,1.4691,0.2227,1.741
5.465000,-0.8393,1.5448,0.4833,1.823
5.470000,-0.8049,1.5724,0.7726,1.928
5.476000,-0.8279,1.6186,1.0690,2.109
5.480000,-0.7908,1.6735,1.3481,2.290
5.485000,-0.7271,1.6444,1.6223,2.422
5.490000,-0.7038,1.6837,1.7691,2.542
5.496000,-0.7283,1.7274,1.9136,2.679
5.500000,-0.7582,1.7868,2.0102,2.794
5.505000,-0.8962,1.8028,2.1071,2.914
5.512000,-1.0204,1.7537,2.2138,3.003
5.515000,-1.1139,1.7713,2.2848,3.098
5.519000,-1.3291,1.7142,2.4084,3.241
5.524000,-1.4282,1.6169,2.5370,3.330
5.531000,-1.3968,1.5462,2.5987,3.331
5.539000,-1.3879,1.4025,2.6944,3.340
5.543000,-1.3327,1.2476,2.9103,3.435
5.559000,-1.2271,1.1384,3.2387,3.646
5.561000,-1.0565,0.9965,3.6130,3.894
5.563000,-0.8071,0.8852,4.0060,4.181
5.563000,-0.6128,0.8024,4.3555,4.471
5.565000,-0.3881,0.7400,4.6662,4.740
5.569000,-0.1908,0.7191,4.9233,4.979
5.574000,-0.0212,0.7537,5.1340,5.189
5.582000,0.1449,0.8584,5.3081,5.379
5.584000,0.2647,0.9802,5.4474,5.541
5.589000,0.4031,1.1553,5.6193,5.751
5.596000,0.4812,1.2568,5.7375,5.893
5.599000,0.4561,1.3872,5.9211,6.099
5.608000,0.3397,1.4154,6.1323,6.303
5.609000,0.1420,1.4270,6.2986,6.460
5.615000,-0.0696,1.3554,6.4512,6.592
5.619000,-0.2758,1.2839,6.6448,6.773
5.624000,-0.3733,1.1529,6.8217,6.929
5.632000,-0.3820,0.9934,6.9414,7.022
5.638000,-0.3569,0.8843,7.1259,7.189
5.639000,-0.2840,0.6965,7.2579,7.297
5.659000,-0.1987,0.5141,7.3258,7.346
5.660000,-0.0416,0.4186,7.3513,7.363
5.661000,0.2014,0.3981,7.2511,7.265
5.661000,0.4487,0.4028,7.1644,7.190
5.664000,0.7431,0.4352,7.0509,7.103
5.668000,1.0194,0.4332,7.0780,7.164
5.673000,1.1821,0.3897,7.1334,7.241
5.679000,1.2863,0.3837,7.2194,7.343
5.684000,1.3374,0.4390,7.2784,7.413
5.688000,1.4049,0.5530,7.3340,7.488
5.697000,1.5081,0.7707,7.2928,7.487
5.702000,1.6802,1.1252,7.2191,7.497
5.703000,1.8271,1.5130,7.1368,7.521
5.710000,1.9241,1.9574,7.0216,7.539
5.713000,1.9689,2.3312,6.9473,7.588
5.719000,1.9401,2.6076,6.9230,7.648
5.723000,1.8716,2.8052,6.8235,7.611
5.731000,1.8112,2.8328,6.6916,7.489
5.733000,1.7305,2.7502,6.5680,7.328
5.739000,1.6845,2.5571,6.3374,7.038
5.743000,1.7140,2.2993,6.0385,6.685
5.755000,1.7522,2.0586,5.6622,6.274
5.756000,1.7560,1.8376,5.1899,5.779
5.758000,1.7567,1.6108,4.7491,5.314
5.766000,1.7737,1.3720,4.2833,4.835
5.769000,1.8453,1.1790,3.8335,4.415
5.773000,1.9574,0.9703,3.4671,4.098
5.779000,2.0554,0.7611,3.2374,3.910
5.783000,2.1469,0.6088,3.0508,3.780
5.787000,2.2801,0.4519,2.8693,3.693
5.793000,2.3501,0.2611,2.7571,3.632
5.797000,2.3788,0.1042,2.6309,3.548
5.803000,2.3596,0.0271,2.4478,3.400
5.808000,2.3549,-0.0281,2.3463,3.324
5.813000,2.3691,-0.1092,2.1376,3.193
5.819000,2.3227,-0.1032,2.0684,3.112
5.823000,2.1849,-0.0731,1.9756,2.947
5.829000,2.0128,-0.0171,1.8326,2.722
5.832000,1.8201,0.1032,1.6995,2.492
5.837000,1.5827,0.2446,1.5787,2.249
5.842000,1.3598,0.3472,1.4823,2.041
5.847000,1.1919,0.5039,1.3692,1.884
5.859000,0.9973,0.6663,1.2682,1.746
5.861000,0.8068,0.7478,1.1692,1.605
5.874000,0.6657,0.8540,1.0081,1.479
5.875000,0.5045,1.0150,0.8297,1.405
5.875000,0.4042,1.1381,0.6251,1.360
5.882000,0.2400,1.2487,0.4345,1.344
5.882000,0.1366,1.3114,0.2725,1.346
5.887000,0.0319,1.2884,0.1823,1.302
5.892000,-0.0764,1.2243,0.0319,1.227
5.897000,-0.1146,1.1534,-0.0825,1.162
5.902000,-0.0996,1.0581,-0.1996,1.081
5.908000,-0.0791,0.9386,-0.2832,0.984
5.912000,-0.0075,0.8502,-0.3789,0.931
5.917000,0.0842,0.7043,-0.5032,0.870
5.922000,0.2390,0.5375,-0.7155,0.926
5.926000,0.3108,0.3634,-0.9228,1.039
5.931000,0.4071,0.1586,-1.1294,1.211
5.937000,0.4967,-0.0360,-1.3209,1.412
5.942000,0.5180,-0.2054,-1.4921,1.593
5.947000,0.5119,-0.3957,-1.6962,1.815
5.952000,0.5055,-0.5656,-1.8873,2.034
5.956000,0.4656,-0.7746,-2.0919,2.279
5.978000,0.4476,-0.9983,-2.2881,2.536
5.979000,0.4158,-1.2501,-2.4471,2.779
5.980000,0.4086,-1.4737,-2.6410,3.052
5.980000,0.3547,-1.7305,-2.8004,3.311
5.982000,0.3243,-1.9526,-2.7935,3.424
5.986000,0.2886,-2.1580,-2.9582,3.673
5.991000,0.3290,-2.3310,-3.1649,3.944
5.997000,0.3304,-2.5207,-3.2535,4.129
6.002000,0.3289,-2.6615,-3.4200,4.346
6.007000,0.3271,-2.8220,-3.5495,4.546
6.012000,0.3197,-3.0201,-3.6900,4.779
6.016000,0.3379,-3.1371,-3.8794,5.001
6.022000,0.3216,-3.2482,-4.0391,5.193
6.026000,0.3421,-3.3622,-4.1760,5.372
6.030000,0.3802,-3.4762,-4.2875,5.533
6.036000,0.3835,-3.5288,-4.4483,5.691
6.042000,0.3370,-3.6127,-4.5717,5.837
6.046000,0.2453,-3.7008,-4.6818,5.973
6.051000,0.1280,-3.8052,-4.8384,6.157
6.056000,0.0110,-3.8999,-4.9937,6.336
6.066000,-0.0464,-4.0146,-5.0758,6.472
6.067000,-0.0992,-4.1523,-5.1158,6.590
6.070000,-0.1141,-4.2811,-5.0971,6.657
6.075000,-0.0935,-4.4702,-4.9887,6.699
6.106000,-0.0374,-4.6525,-4.8481,6.719
6.107000,-0.0035,-4.7704,-4.7663,6.744
6.108000,0.0109,-4.8582,-4.6980,6.758
6.108000,-0.0253,-4.9590,-4.5954,6.761
6.109000,-0.0596,-5.0485,-4.5088,6.769
6.109000,-0.0724,-5.1247,-4.3856,6.746
6.110000,-0.0467,-5.2685,-4.3289,6.819
6.118000,-0.0184,-5.3701,-4.2166,6.828
6.120000,0.0650,-5.4793,-4.0870,6.836
6.126000,0.1194,-5.5364,-3.9186,6.784
6.130000,0.2431,-5.5653,-3.7474,6.714
6.135000,0.3310,-5.5712,-3.5257,6.601
6.140000,0.4524,-5.5230,-3.3252,6.463
6.145000,0.5714,-5.5193,-3.1173,6.364
6.150000,0.6423,-5.4718,-2.9617,6.255
6.155000,0.6503,-5.4024,-2.8847,6.159
6.161000,0.6886,-5.3570,-2.7092,6.042
6.165000,0.7621,-5.3214,-2.5909,5.968
6.171000,0.7609,-5.3030,-2.5153,5.918
6.175000,0.7997,-5.2944,-2.4465,5.887
6.190000,0.8039,-5.3554,-2.3867,5.918
6.191000,0.7854,-5.4452,-2.3121,5.968
6.191000,0.8062,-5.4655,-2.2393,5.961
6.198000,0.8138,-5.4500,-2.1610,5.919
6.201000,0.8756,-5.4224,-2.0248,5.854
6.205000,0.9489,-5.3824,-1.9598,5.806
6.211000,0.9933,-5.3325,-1.7629,5.703
6.215000,1.0711,-5.2773,-1.5631,5.607
6.220000,1.1614,-5.1908,-1.3369,5.485
6.226000,1.2016,-5.1022,-1.1104,5.358
6.230000,1.2179,-4.9972,-0.9076,5.223
6.235000,1.0859,-4.9078,-0.6759,5.072
6.240000,0.9562,-4.8675,-0.5348,4.989
6.245000,0.8118,-4.8215,-0.4532,4.910
6.249000,0.7096,-4.7964,-0.3688,4.863
6.254000,0.6182,-4.7748,-0.3817,4.830
6.259000,0.5727,-4.6401,-0.4296,4.695
6.264000,0.5204,-4.3638,-0.6224,4.439
6.269000,0.4870,-3.9575,-0.8736,4.082
6.275000,0.4056,-3.4931,-1.1854,3.711
6.281000,0.3647,-3.0947,-1.5099,3.463
6.284000,0.3955,-2.7589,-1.6388,3.233
6.289000,0.4608,-2.4044,-1.6968,2.979
6.319000,0.5942,-2.0833,-1.6386,2.716
6.320000,0.7266,-1.8130,-1.5122,2.470
6.320000,0.8556,-1.6683,-1.2725,2.266
6.321000,0.9768,-1.5748,-0.8933,2.057
6.321000,1.0481,-1.4854,-0.6335,1.925
6.321000,1.1440,-1.4060,-0.3091,1.839
6.325000,1.1782,-1.3482,-0.0422,1.791
6.329000,1.2254,-1.2847,0.2098,1.788
6.333000,1.1879,-1.1980,0.3873,1.731
6.338000,1.1211,-1.1842,0.5858,1.733
6.344000,1.0234,-1.2123,0.7021,1.735
6.350000,0.8899,-1.2002,0.8561,1.722
6.359000,0.7400,-1.2391,0.9496,1.728
6.359000,0.5162,-1.3053,1.0853,1.774
6.365000,0.2450,-1.3406,1.2109,1.823
6.369000,0.0196,-1.3718,1.3477,1.923
6.374000,-0.1646,-1.4017,1.4213,2.003
6.384000,-0.3801,-1.3678,1.3938,1.990
6.392000,-0.6153,-1.3114,1.3323,1.968
6.392000,-0.8800,-1.2224,1.2609,1.964
6.393000,-1.1080,-1.0584,1.1007,1.887
6.408000,-1.3115,-0.8767,0.8520,1.793
6.409000,-1.5100,-0.6791,0.5533,1.746
6.413000,-1.6630,-0.4392,0.2958,1.745
6.414000,-1.8044,-0.2550,-0.0759,1.824
6.418000,-1.8892,-0.0276,-0.3722,1.926
6.423000,-1.9370,0.1786,-0.6768,2.060
6.431000,-1.8932,0.3919,-0.8941,2.130
6.433000,-1.7461,0.6059,-1.0835,2.142
6.438000,-1.5868,0.8463,-1.2167,2.171
6.444000,-1.3268,1.0442,-1.2838,2.121
6.448000,-1.1361,1.2228,-1.3618,2.154
6.453000,-0.9450,1.3673,-1.4462,2.203
6.457000,-0.7795,1.5070,-1.4722,2.246
6.464000,-0.6173,1.6870,-1.5910,2.400
6.467000,-0.4509,1.8592,-1.7117,2.567
6.474000,-0.3424,1.9739,-1.7289,2.646
6.479000,-0.2674,2.0885,-1.7912,2.764
6.482000,-0.1772,2.1668,-1.7698,2.803
6.487000,-0.0359,2.2430,-1.6716,2.798
6.496000,0.0732,2.3622,-1.5713,2.838
6.516000,0.0949,2.4335,-1.4327,2.825
6.517000,0.1181,2.4395,-1.2709,2.753
6.518000,0.0715,2.4063,-1.1006,2.647
6.518000,0.0509,2.3487,-1.0363,2.568
6.519000,-0.0389,2.3070,-1.0090,2.518
6.523000,-0.1738,2.3096,-1.0188,2.530
6.527000,-0.1765,2.3030,-1.0937,2.556
6.533000,-0.2080,2.2941,-1.1857,2.591
6.537000,-0.2256,2.2188,-1.2535,2.558
6.542000,-0.2608,2.1613,-1.2085,2.490
6.547000,-0.2735,2.1188,-1.1274,2.416
6.552000,-0.2276,2.1353,-0.9139,2.334
6.558000,-0.1356,2.0643,-0.6760,2.176
6.562000,-0.1173,2.0369,-0.4045,2.080
6.567000,-0.0482,2.0703,-0.1372,2.075
6.572000,0.0475,1.9939,0.1757,2.002
6.583000,0.1739,1.9077,0.4765,1.974
6.584000,0.2729,1.8933,0.7656,2.060
6.588000,0.3178,1.9379,1.0141,2.210
6.594000,0.3037,2.0301,1.1555,2.356
6.612000,0.2519,2.1430,1.3618,2.552
6.612000,0.1718,2.2117,1.5729,2.719
6.612000,0.1331,2.2369,1.8467,2.904
6.613000,0.1357,2.2201,2.0605,3.032
6.617000,0.1206,2.2745,2.3626,3.282
6.621000,0.0949,2.3134,2.5974,3.480
6.627000,0.1021,2.3559,2.8722,3.716
6.631000,0.0824,2.3871,3.1460,3.950
6.636000,0.0839,2.3859,3.2779,4.055
6.641000,0.0515,2.3804,3.3726,4.128
6.646000,-0.0034,2.3827,3.4139,4.163
6.651000,-0.1046,2.3476,3.4545,4.178
6.656000,-0.1684,2.2799,3.5279,4.204
6.661000,-0.2298,2.1779,3.5912,4.206
6.666000,-0.1952,2.1662,3.6611,4.258
6.671000,-0.1192,2.0463,3.7853,4.305
6.676000,-0.0231,1.9599,3.9570,4.416
6.681000,0.1673,1.8733,4.1231,4.532
6.686000,0.3870,1.7935,4.3580,4.728
6.691000,0.6241,1.7782,4.6352,5.004
6.701000,0.8521,1.8098,4.8563,5.252
6.709000,0.9916,1.8498,5.0666,5.484
6.710000,1.0831,1.8937,5.2020,5.641
6.733000,1.0785,1.8930,5.3864,5.810
6.734000,1.0709,1.9219,5.5625,5.982
6.734000,0.9625,2.0976,5.7254,6.173
6.735000,0.8918,2.2330,5.8510,6.326
6.735000,0.8422,2.3685,6.0394,6.542
6.738000,0.6701,2.4013,6.3552,6.827
6.741000,0.5220,2.3525,6.5847,7.012
6.748000,0.3356,2.2578,6.7589,7.134
6.754000,0.1229,2.0931,6.9421,7.252
6.757000,-0.0490,1.8416,7.0936,7.329
6.761000,-0.1130,1.6062,7.1917,7.370
6.766000,-0.1288,1.4062,7.1146,7.253
6.770000,-0.1136,1.1581,6.8726,6.970
6.775000,-0.0366,1.0418,6.6241,6.706
6.780000,0.0853,0.9096,6.3698,6.435
6.788000,0.3019,0.8288,6.1007,6.164
6.791000,0.5702,0.8000,5.9105,5.992
6.795000,0.8139,0.7446,5.7969,5.901
6.800000,1.0019,0.6938,5.6667,5.796
6.806000,1.1779,0.6189,5.6943,5.848
6.815000,1.3181,0.5845,5.7191,5.898
6.816000,1.4056,0.5641,5.7244,5.921
6.824000,1.5698,0.6505,5.6884,5.937
6.825000,1.7146,0.8555,5.6063,5.925
6.864000,1.7728,1.0949,5.4399,5.825
6.865000,1.8184,1.3111,5.3420,5.793
6.866000,1.7628,1.4915,5.2048,5.694
6.866000,1.6951,1.6792,5.1380,5.665
6.866000,1.6225,1.7995,5.0884,5.636
6.866000,1.5191,1.8378,5.0510,5.585
6.867000,1.4424,1.7871,4.9205,5.430
6.867000,1.3158,1.6106,4.8303,5.259
6.870000,1.2186,1.3590,4.6204,4.968
6.875000,1.1293,1.1645,4.2960,4.592
6.880000,1.0768,0.9364,3.9271,4.178
6.884000,1.0731,0.7116,3.5358,3.763
6.890000,1.0921,0.5434,3.1682,3.395
6.895000,1.1504,0.4153,2.8506,3.102
6.899000,1.2769,0.2973,2.6007,2.912
6.904000,1.4142,0.1362,2.4370,2.821
6.909000,1.4998,-0.0457,2.3647,2.801
6.916000,1.6442,-0.1712,2.2048,2.756
6.919000,1.7470,-0.2212,2.1509,2.780
6.924000,1.7533,-0.2772,2.2029,2.829
6.942000,1.7734,-0.2438,2.3149,2.926
6.942000,1.8147,-0.2318,2.4313,3.043
6.943000,1.7837,-0.2629,2.4707,3.059
6.950000,1.7829,-0.2439,2.4955,3.077
6.951000,1.7539,-0.2024,2.5029,3.063
6.955000,1.6820,-0.1574,2.4667,2.990
6.959000,1.5334,-0.0330,2.3631,2.817
6.965000,1.3267,0.1254,2.1850,2.559
6.969000,1.1003,0.3222,1.9182,2.235
6.974000,0.9113,0.4636,1.6461,1.938
6.979000,0.7000,0.5548,1.3716,1.637
6.984000,0.4736,0.6726,1.1593,1.421
6.989000,0.3799,0.7571,0.8562,1.204
6.994000,0.2608,0.8184,0.6660,1.087
6.998000,0.1902,0.8915,0.4304,1.008
7.005000,0.1175,0.9430,0.2548,0.984
7.009000,0.0666,0.9108,0.0604,0.915
7.013000,0.0209,0.8528,-0.1192,0.861
7.019000,-0.0123,0.7897,-0.2676,0.834
7.024000,-0.0493,0.7363,-0.4756,0.878
7.032000,-0.0730,0.6856,-0.6809,0.969
7.033000,-0.1168,0.5998,-0.9168,1.102
7.038000,-0.1569,0.4380,-1.1450,1.236
7.062000,-0.1807,0.3010,-1.2794,1.327
7.063000,-0.1760,0.1321,-1.4060,1.423
7.063000,-0.1423,-0.0241,-1.5850,1.592
7.063000,-0.1246,-0.1814,-1.7445,1.758
7.064000,-0.0985,-0.3750,-1.8821,1.922
7.069000,-0.0807,-0.5842,-2.0410,2.124
7.074000,-0.0879,-0.7893,-2.2377,2.375
7.078000,-0.0291,-1.0133,-2.4193,2.623
7.083000,0.0094,-1.2284,-2.5957,2.872
7.089000,0.0231,-1.4244,-2.7834,3.127
7.094000,0.0117,-1.5932,-2.9342,3.339
7.098000,0.0090,-1.8099,-3.1058,3.595
7.103000,-0.0210,-1.9965,-3.2955,3.853
7.109000,-0.0472,-2.1993,-3.4461,4.088
7.113000,-0.0889,-2.3673,-3.6195,4.326
7.119000,-0.0696,-2.5647,-3.7295,4.527
7.123000,-0.1191,-2.7343,-3.8360,4.712
7.129000,-0.1392,-2.8957,-3.9511,4.901
7.133000,-0.1899,-3.0075,-4.0410,5.041
7.137000,-0.2403,-3.1249,-4.2182,5.255
7.143000,-0.2310,-3.1970,-4.3462,5.400
7.156000,-0.2338,-3.3058,-4.5039,5.592
7.157000,-0.2873,-3.4003,-4.5957,5.724
7.159000,-0.3055,-3.5060,-4.7528,5.914
7.165000,-0.3029,-3.6071,-4.8798,6.076
7.168000,-0.2771,-3.7315,-4.9193,6.181
7.172000,-0.3240,-3.8140,-4.9167,6.231
7.177000,-0.3427,-3.8986,-4.9417,6.304
7.183000,-0.3332,-3.9682,-4.9344,6.341
7.188000,-0.3292,-4.0318,-4.9021,6.356
7.193000,-0.2707,-4.0976,-4.9096,6.401
7.197000,-0.2319,-4.1553,-4.9401,6.459
7.202000,-0.1936,-4.1696,-4.9218,6.453
7.207000,-0.1127,-4.1427,-4.9386,6.447
7.212000,-0.0110,-4.1007,-4.9235,6.408
7.217000,0.0947,-4.1351,-4.7833,6.324
7.222000,0.1401,-4.2001,-4.7478,6.340
7.231000,0.2694,-4.2949,-4.7547,6.413
7.232000,0.3631,-4.3598,-4.6846,6.410
7.238000,0.4068,-4.4542,-4.5758,6.399
7.242000,0.4554,-4.5662,-4.4975,6.425
7.262000,0.4992,-4.6214,-4.3566,6.371
7.263000,0.5812,-4.6727,-4.1841,6.299
7.264000,0.7037,-4.7512,-3.9395,6.212
7.264000,0.8333,-4.7807,-3.7592,6.139
7.267000,0.9936,-4.7711,-3.5643,6.038
7.272000,1.1152,-4.7682,-3.3906,5.956
7.277000,1.1956,-4.7003,-3.2142,5.818
7.281000,1.2615,-4.5820,-3.0471,5.645
7.287000,1.3656,-4.4853,-2.8416,5.482
7.292000,1.5055,-4.4250,-2.6432,5.370
7.296000,1.6645,-4.3389,-2.4902,5.272
7.301000,1.7921,-4.3064,-2.2988,5.200
7.307000,1.8621,-4.2917,-2.1360,5.143
7.313000,1.8867,-4.2922,-1.9875,5.092
7.317000,1.9277,-4.4038,-1.8915,5.166
7.321000,1.9710,-4.4421,-1.7427,5.163
7.327000,1.9758,-4.4595,-1.5434,5.116
7.331000,1.9475,-4.4963,-1.3512,5.083
7.336000,1.9697,-4.5144,-1.1110,5.049
7.342000,1.9297,-4.5735,-0.8946,5.044
7.347000,1.9113,-4.5542,-0.6349,4.980
7.351000,1.8811,-4.5708,-0.3392,4.954
7.356000,1.8797,-4.6122,-0.1366,4.982
7.383000,1.8899,-4.5919,0.1524,4.968
7.384000,1.8804,-4.5538,0.3722,4.941
7.385000,1.8173,-4.4431,0.5781,4.835
7.385000,1.6572,-4.2890,0.6695,4.647
7.385000,1.4143,-4.1824,0.7233,4.474
7.386000,1.1194,-4.0302,0.8281,4.264
7.391000,0.8543,-3.8087,0.8807,4.001
7.395000,0.5785,-3.5489,0.7833,3.680
7.402000,0.3353,-3.2751,0.6196,3.350
7.406000,0.1344,-2.9793,0.4591,3.017
7.410000,-0.0788,-2.6589,0.3258,2.680
7.415000,-0.2010,-2.4072,0.1836,2.423
7.421000,-0.3309,-2.1873,0.1645,2.218
7.425000,-0.4108,-1.9969,0.2802,2.058
7.431000,-0.4001,-1.8867,0.5304,2.000
7.435000,-0.4110,-1.7389,0.7645,1.943
7.440000,-0.4297,-1.5762,0.9893,1.910
7.446000,-0.4204,-1.4633,1.1692,1.920
7.450000,-0.4433,-1.3915,1.3517,1.990
7.455000,-0.4198,-1.3292,1.2957,1.903
7.462000,-0.3913,-1.2790,1.4894,2.002
7.465000,-0.3999,-1.3579,1.7840,2.277
7.472000,-0.4468,-1.4132,2.0020,2.491
7.477000,-0.4814,-1.3678,2.2272,2.658
7.491000,-0.4983,-1.3038,2.4640,2.832
7.493000,-0.5262,-1.2488,2.6140,2.944
7.494000,-0.6127,-1.1564,2.8424,3.129
7.499000,-0.6951,-1.0637,2.9597,3.221
7.501000,-0.7777,-0.9997,2.9919,3.249
7.505000,-0.8513,-0.8326,3.0064,3.234
7.510000,-0.9398,-0.6640,2.9070,3.126
7.515000,-1.0270,-0.4454,2.7254,2.946
7.521000,-1.1514,-0.1795,2.4855,2.745
7.525000,-1.3083,0.0639,2.1897,2.552
7.530000,-1.4482,0.2565,1.8573,2.369
7.535000,-1.6146,0.4151,1.4935,2.238
7.540000,-1.7696,0.6096,1.0626,2.152
7.545000,-1.8588,0.7538,0.6677,2.114
7.550000,-2.0143,0.9343,0.2302,2.232
7.555000,-2.1124,1.1108,-0.2041,2.395
7.559000,-2.2295,1.2216,-0.5466,2.600
7.566000,-2.2435,1.3338,-0.7830,2.725
7.570000,-2.1834,1.4956,-0.9946,2.827
7.574000,-2.0775,1.6065,-1.1912,2.884
7.591000,-1.9419,1.6995,-1.2965,2.888
7.592000,-1.8291,1.7512,-1.4421,2.914
7.592000,-1.7408,1.8400,-1.5974,2.995
7.599000,-1.6771,1.8466,-1.7931,3.072
7.600000,-1.6209,1.8143,-1.9887,3.142
7.605000,-1.6216,1.8008,-2.1747,3.256
7.612000,-1.5977,1.7487,-2.3393,3.329
7.614000,-1.5507,1.7566,-2.4777,3.410
7.619000,-1.4683,1.7216,-2.5926,3.441
7.624000,-1.3813,1.6799,-2.7294,3.490
7.630000,-1.3229,1.6390,-2.7590,3.471
7.635000,-1.2376,1.5726,-2.7963,3.439
7.640000,-1.1305,1.4356,-2.8293,3.368
7.644000,-1.0352,1.3283,-2.8628,3.321
7.649000,-0.9303,1.2701,-2.8846,3.286
7.654000,-0.8615,1.2084,-2.9186,3.274
7.659000,-0.7618,1.1122,-2.9456,3.239
7.664000,-0.6650,1.0558,-2.9343,3.189
7.669000,-0.5612,1.0633,-2.9158,3.154
7.675000,-0.4364,1.0248,-2.8925,3.100
7.680000,-0.3221,0.9860,-2.8232,3.008
7.683000,-0.2087,0.9446,-2.6747,2.844
7.689000,-0.0995,0.9195,-2.5519,2.714
7.721000,-0.0547,0.8897,-2.4520,2.609
7.722000,-0.0078,0.8785,-2.2435,2.409
7.722000,-0.0189,0.9388,-2.0340,2.240
7.723000,-0.0665,0.9529,-1.7446,1.989
7.723000,-0.1796,0.9541,-1.4113,1.713
7.723000,-0.2905,0.9998,-1.0749,1.496
7.723000,-0.3995,1.0201,-0.7858,1.348
7.730000,-0.4538,1.0918,-0.5010,1.284
7.733000,-0.4917,1.1640,-0.1655,1.274
7.738000,-0.5229,1.2913,0.1294,1.399
7.744000,-0.5187,1.3873,0.4363,1.544
7.749000,-0.5218,1.4809,0.6571,1.702
7.754000,-0.5205,1.5404,0.9087,1.863
7.759000,-0.5125,1.6116,1.1341,2.036
7.765000,-0.4978,1.6940,1.3976,2.252
7.769000,-0.4286,1.7968,1.7419,2.539
7.773000,-0.3959,1.9057,2.0066,2.796
7.780000,-0.3253,2.0010,2.2730,3.046
7.783000,-0.3056,2.0917,2.5310,3.298
7.788000,-0.3727,2.1491,2.7115,3.480
7.793000,-0.3998,2.1440,2.7806,3.534
7.824000,-0.4133,2.1223,2.8392,3.569
7.825000,-0.4463,2.0219,2.8487,3.522
7.825000,-0.4840,1.9480,2.8714,3.503
7.825000,-0.5096,1.8128,2.8429,3.410
7.826000,-0.4795,1.6911,2.7515,3.265
7.826000,-0.4250,1.5714,2.7291,3.178
7.829000,-0.3847,1.4777,2.6802,3.085
7.833000,-0.2893,1.4228,2.7200,3.083
7.838000,-0.1868,1.4304,2.8629,3.206
7.842000,-0.1155,1.4361,3.0274,3.353
7.848000,-0.0491,1.4705,3.2396,3.558
7.853000,-0.0497,1.4880,3.4970,3.801
7.857000,-0.0861,1.5407,3.7920,4.094
7.862000,-0.1201,1.5801,4.0165,4.318
7.868000,-0.2039,1.6875,4.2614,4.588
7.873000,-0.2589,1.8287,4.4451,4.814
7.878000,-0.3119,1.9029,4.6512,5.035
7.883000,-0.3989,1.8310,4.8939,5.240
7.888000,-0.4958,1.7346,5.1011,5.411
7.893000,-0.5519,1.5897,5.2988,5.560
7.898000,-0.6228,1.4080,5.4728,5.685
7.902000,-0.7229,1.1059,5.6205,5.774
7.907000,-0.7466,0.7527,5.6799,5.778
7.939000,-0.7658,0.4302,5.6895,5.757
7.940000,-0.7251,0.1027,5.6231,5.671
7.942000,-0.5574,-0.2842,5.4737,5.509
7.942000,-0.3725,-0.6941,5.2922,5.350
7.943000,-0.1678,-0.9777,5.0813,5.177
7.943000,0.0712,-1.2376,4.8413,4.997
7.947000,0.3468,-1.4302,4.6013,4.831
7.948000,0.6758,-1.4877,4.3691,4.665
7.952000,1.0102,-1.4196,4.0874,4.443
7.957000,1.3876,-1.1705,3.8834,4.287
7.962000,1.7551,-0.8151,3.7212,4.194
7.968000,1.9569,-0.4086,3.6247,4.139
7.973000,2.0097,-0.0926,3.7227,4.232
7.977000,1.9254,0.0821,3.9429,4.389
7.981000,1.7834,0.1268,4.2990,4.656
7.987000,1.6441,0.1222,4.7014,4.982
7.991000,1.4956,0.0624,4.9513,5.173
7.997000,1.4122,0.0496,5.1152,5.307
8.002000,1.3409,-0.0195,5.1499,5.322
8.007000,1.2842,-0.0664,5.0174,5.180
8.044000,1.2301,-0.1790,4.8232,4.981
8.046000,1.2261,-0.3594,4.6491,4.822
8.046000,1.2295,-0.5972,4.4859,4.690
8.047000,1.2240,-0.8393,4.3694,4.615
8.047000,1.2671,-1.0595,4.1944,4.508
8.048000,1.2870,-1.2263,4.1359,4.502
8.048000,1.4010,-1.3657,4.0837,4.528
8.049000,1.4630,-1.5048,3.9803,4.500
8.052000,1.5300,-1.6124,3.9527,4.535
8.056000,1.6548,-1.6719,3.8643,4.524
8.062000,1.7507,-1.7121,3.7395,4.470
8.066000,1.7813,-1.7431,3.6213,4.396
8.072000,1.7608,-1.7609,3.4638,4.266
8.078000,1.6838,-1.7785,3.2252,4.050
8.081000,1.6027,-1.8495,3.0988,3.949
8.086000,1.5366,-1.9054,2.9407,3.826
8.092000,1.4565,-2.0306,2.7758,3.735
8.097000,1.3740,-2.1809,2.6396,3.689
8.102000,1.3008,-2.3028,2.4655,3.616
8.106000,1.2940,-2.3949,2.2583,3.537
8.113000,1.2692,-2.5071,2.0374,3.471
8.116000,1.2262,-2.6441,1.8056,3.429
8.122000,1.1718,-2.7915,1.5893,3.419
8.126000,1.1276,-2.8960,1.3171,3.375
8.132000,1.0787,-3.0447,1.0130,3.385
8.138000,1.0442,-3.1379,0.6944,3.379
8.140000,1.0117,-3.2486,0.3851,3.424
8.169000,0.9671,-3.3351,0.0927,3.474
8.171000,0.8702,-3.4283,-0.2451,3.545
8.171000,0.7623,-3.5446,-0.5610,3.669
8.171000,0.5896,-3.6581,-0.8597,3.804
8.172000,0.4806,-3.7928,-1.1583,3.995
8.172000,0.3262,-3.9564,-1.4925,4.241
8.176000,0.2133,-4.0958,-1.7044,4.441
8.181000,0.0899,-4.2202,-1.9115,4.634
8.186000,-0.0291,-4.3603,-2.0445,4.816
8.191000,-0.1190,-4.4625,-2.2136,4.983
8.197000,-0.2136,-4.5831,-2.3211,5.142
8.200000,-0.2947,-4.6825,-2.3982,5.269
8.205000,-0.3701,-4.8025,-2.5003,5.427
8.210000,-0.4960,-4.9185,-2.5582,5.566
8.215000,-0.6141,-4.9868,-2.6177,5.665
8.220000,-0.7585,-5.0544,-2.7054,5.783
8.226000,-0.9402,-5.1153,-2.8165,5.915
8.233000,-1.1122,-5.2257,-2.9176,6.088
8.238000,-1.3218,-5.3155,-3.0566,6.272
8.240000,-1.4806,-5.4445,-3.1499,6.462
8.259000,-1.6050,-5.5280,-3.2645,6.618
8.262000,-1.7437,-5.6151,-3.4076,6.796
8.263000,-1.8868,-5.6469,-3.5695,6.942
8.263000,-2.0422,-5.6342,-3.7645,7.077
8.264000,-2.2293,-5.6573,-3.9517,7.252
8.269000,-2.4220,-5.6437,-4.1454,7.410
8.275000,-2.5970,-5.6759,-4.2594,7.557
8.280000,-2.8214,-5.6837,-4.4658,7.759
8.284000,-2.9659,-5.6568,-4.6308,7.889
8.290000,-3.0596,-5.6223,-4.7687,7.982
8.296000,-3.1596,-5.5458,-4.9467,8.075
8.301000,-3.2279,-5.4973,-5.1289,8.182
8.305000,-3.3431,-5.4882,-5.3106,8.337
8.310000,-3.4359,-5.3935,-5.5015,8.436
8.314000,-3.4827,-5.3286,-5.7350,8.568
8.319000,-3.5625,-5.3022,-5.8723,8.677
8.324000,-3.5814,-5.2398,-5.9905,8.727
8.334000,-3.5111,-5.1894,-6.0058,8.679
8.336000,-3.4226,-5.1050,-5.9546,8.558
8.341000,-3.3392,-5.0248,-5.8686,8.417
8.381000,-3.2562,-4.9210,-5.7382,8.231
8.383000,-3.2021,-4.8532,-5.6568,8.112
8.384000,-3.1629,-4.7838,-5.5668,7.992
8.384000,-3.1316,-4.7824,-5.4277,7.883
8.385000,-3.0361,-4.7557,-5.2514,7.708
8.385000,-3.0055,-4.7184,-5.1578,7.609
8.386000,-3.0372,-4.7327,-5.0869,7.583
8.386000,-3.0188,-4.7529,-4.9886,7.523
8.386000,-2.9739,-4.7478,-4.8822,7.431
8.389000,-2.8879,-4.7555,-4.7749,7.332
8.395000,-2.7728,-4.7016,-4.5830,7.127
8.398000,-2.6428,-4.6149,-4.3666,6.881
8.405000,-2.5628,-4.4693,-4.0992,6.584
8.409000,-2.4442,-4.4299,-3.8451,6.355
8.415000,-2.4124,-4.4736,-3.5253,6.185
8.420000,-2.4436,-4.5002,-3.2374,6.058
8.424000,-2.4517,-4.4741,-2.9599,5.898
8.429000,-2.5320,-4.4669,-2.8245,5.860
8.434000,-2.5679,-4.4596,-2.7349,5.828
8.438000,-2.5954,-4.4092,-2.6910,5.781
8.445000,-2.6673,-4.3486,-2.7452,5.793
8.449000,-2.6934,-4.3160,-2.7845,5.800
8.454000,-2.6908,-4.3007,-2.6772,5.736
8.458000,-2.6935,-4.2673,-2.5261,5.643
8.466000,-2.6075,-4.2224,-2.2500,5.449
8.471000,-2.4715,-4.1426,-1.9350,5.197
8.474000,-2.3120,-4.0624,-1.5692,4.931
8.479000,-2.1076,-4.0269,-1.1836,4.697
8.514000,-1.8820,-3.9464,-0.8285,4.450
8.515000,-1.6312,-3.8030,-0.5493,4.174
8.516000,-1.3961,-3.6511,-0.3119,3.921
8.516000,-1.2420,-3.5327,-0.0088,3.745
8.518000,-1.1300,-3.4630,0.3957,3.664
8.518000,-1.0306,-3.4367,0.7718,3.670
8.519000,-0.9553,-3.4004,1.0356,3.681
8.519000,-0.8796,-3.3488,1.2035,3.666
8.523000,-0.8608,-3.3089,1.2494,3.640
8.529000,-0.7913,-3.3075,1.2593,3.626
8.533000,-0.7685,-3.3459,1.2809,3.664
8.539000,-0.7536,-3.3644,1.1848,3.646
8.543000,-0.7293,-3.4061,1.0307,3.633
8.547000,-0.6663,-3.4985,0.9334,3.682
8.552000,-0.6363,-3.6062,0.8378,3.756
8.558000,-0.5646,-3.7519,0.7653,3.871
8.563000,-0.4583,-3.8949,0.7231,3.988
8.567000,-0.2748,-3.9973,0.6636,4.061
8.572000,-0.0497,-4.1155,0.6203,4.162
8.606000,0.1662,-4.2019,0.5409,4.240
8.607000,0.4078,-4.2280,0.5190,4.279
8.607000,0.7087,-4.2124,0.5524,4.307
8.607000,1.0248,-4.2538,0.6650,4.426
8.608000,1.2859,-4.2934,0.7758,4.548
8.608000,1.4998,-4.2755,0.9107,4.622
8.608000,1.7233,-4.3688,1.0578,4.814
8.615000,1.9235,-4.4054,1.1906,4.952
8.616000,2.0854,-4.4699,1.2516,5.089
8.623000,2.3051,-4.5642,1.3750,5.295
8.626000,2.5347,-4.7174,1.4576,5.550
8.632000,2.7438,-4.8649,1.5876,5.807
8.636000,2.9534,-5.0166,1.5810,6.032
8.642000,3.1068,-5.1765,1.6006,6.246
8.648000,3.1747,-5.3352,1.5555,6.400
8.651000,3.2111,-5.4782,1.4846,6.521
8.656000,3.3175,-5.5519,1.4668,6.632
8.664000,3.5172,-5.5806,1.4399,6.752
8.667000,3.8490,-5.5205,1.4591,6.886
8.671000,4.2239,-5.3484,1.4166,6.961
8.676000,4.5598,-5.1508,1.3891,7.018
8.703000,4.9125,-4.9752,1.2593,7.104
8.704000,5.2549,-4.6735,1.2163,7.137
8.704000,5.6080,-4.3109,1.1835,7.172
8.704000,5.9539,-3.9254,1.0984,7.216
8.704000,6.3059,-3.5322,1.0663,7.306
8.706000,6.6353,-3.1238,1.0776,7.413
8.711000,7.0281,-2.7057,1.0626,7.606
8.717000,7.2946,-2.3119,1.0642,7.726
8.721000,7.6264,-1.9276,1.0490,7.936
8.726000,7.9151,-1.5870,1.0767,8.144
8.732000,8.1884,-1.2497,1.0730,8.352
8.738000,8.4322,-0.9274,1.0809,8.552
8.743000,8.5697,-0.6635,1.0669,8.661
8.746000,8.6150,-0.3793,1.0522,8.687
8.752000,8.5765,-0.1985,1.0705,8.645
8.757000,8.5466,-0.0832,1.0163,8.607
8.761000,8.4391,-0.0043,1.0956,8.510
8.766000,8.2810,0.0407,1.2315,8.372
8.770000,8.0363,0.0349,1.3210,8.144
8.775000,7.7679,0.0331,1.4021,7.894
8.797000,7.3542,0.0303,1.3648,7.480
8.798000,6.8335,-0.0140,1.2236,6.942
8.798000,6.2664,-0.0492,1.0287,6.351
8.798000,5.6892,-0.1038,0.8427,5.752
8.802000,5.1617,-0.1290,0.5438,5.192
8.805000,4.7035,-0.1340,0.3237,4.717
8.811000,4.3014,-0.1663,0.0894,4.306
8.816000,3.9074,-0.1922,-0.0920,3.913
8.821000,3.4283,-0.1591,-0.2685,3.443
8.825000,2.9914,-0.1050,-0.4040,3.020
8.830000,2.5134,-0.0298,-0.6088,2.586
8.835000,2.1234,0.0305,-0.7822,2.263
8.840000,1.7588,0.0140,-0.8978,1.975
8.845000,1.4002,0.0399,-0.9368,1.685
8.850000,1.1236,-0.0040,-0.9613,1.479
8.855000,0.8932,-0.1062,-0.9715,1.324
8.860000,0.6395,-0.1687,-1.0081,1.206
8.864000,0.4080,-0.1990,-1.0282,1.124
8.871000,0.2467,-0.2260,-1.1706,1.217
8.875000,0.0696,-0.3189,-1.2797,1.321
8.881000,-0.0157,-0.3819,-1.3602,1.413
8.885000,0.0004,-0.4482,-1.3857,1.456
8.889000,-0.0112,-0.5059,-1.5310,1.612
8.910000,-0.0071,-0.6120,-1.6426,1.753
8.911000,0.0073,-0.7095,-1.6658,1.811
8.911000,0.0302,-0.7788,-1.7464,1.912
8.912000,0.0645,-0.8394,-1.7816,1.970
8.914000,0.0913,-0.8431,-1.8767,2.059
8.921000,0.1489,-0.8998,-2.0075,2.205
8.925000,0.2018,-0.9547,-2.1766,2.385
8.931000,0.3025,-0.9954,-2.3097,2.533
8.935000,0.3559,-1.0336,-2.4186,2.654
8.939000,0.3883,-1.0336,-2.5681,2.795
8.944000,0.4454,-1.0478,-2.7366,2.964
8.949000,0.5253,-1.0807,-2.8498,3.093
8.954000,0.6399,-1.0461,-2.9891,3.231
8.961000,0.7415,-1.0801,-3.0946,3.361
8.965000,0.8801,-1.1207,-3.1401,3.448
8.969000,0.9916,-1.1722,-3.2165,3.564
8.974000,1.0637,-1.2777,-3.2735,3.671
8.979000,1.1654,-1.3487,-3.2943,3.746
8.984000,1.2680,-1.4185,-3.3077,3.816
8.990000,1.3119,-1.4846,-3.3207,3.867
8.995000,1.4116,-1.5494,-3.3142,3.921
8.999000,1.5075,-1.5790,-3.3335,3.985
9.003000,1.5871,-1.6166,-3.3236,4.022
9.008000,1.6553,-1.6716,-3.2558,4.017
9.032000,1.7547,-1.7320,-3.1802,4.024
9.033000,1.8399,-1.8026,-3.0276,3.975
9.034000,1.9063,-1.7997,-2.9129,3.919
9.034000,1.9753,-1.7906,-2.8336,3.891
9.034000,1.9895,-1.8040,-2.7158,3.819
9.040000,1.9894,-1.8113,-2.6286,3.761
9.044000,1.9414,-1.7790,-2.5338,3.654
9.048000,1.8962,-1.7526,-2.4436,3.555
9.054000,1.9352,-1.7226,-2.3243,3.481
9.058000,1.9652,-1.7225,-2.2550,3.452
9.063000,2.0051,-1.6398,-2.1567,3.371
9.068000,2.0861,-1.5680,-2.0414,3.313
9.073000,2.1555,-1.4857,-1.8423,3.201
9.078000,2.2322,-1.4098,-1.6359,3.106
9.084000,2.2969,-1.3361,-1.5086,3.056
9.089000,2.3473,-1.2863,-1.3551,3.000
9.094000,2.3573,-1.2202,-1.2235,2.923
9.099000,2.3099,-1.1977,-1.1114,2.829
9.103000,2.2604,-1.1783,-1.0787,2.768
9.108000,2.2614,-1.1262,-1.0511,2.736
9.115000,2.2027,-1.1516,-1.0431,2.696
9.119000,2.1823,-1.1177,-1.0568,2.670
9.124000,2.1572,-1.1320,-1.0921,2.670
9.151000,2.1154,-1.1323,-1.1371,2.655
9.153000,2.0161,-1.1639,-1.2634,2.649
9.154000,1.9767,-1.2193,-1.3776,2.700
9.154000,1.9396,-1.2527,-1.5010,2.754
9.154000,1.9144,-1.2350,-1.6310,2.802
9.155000,1.9441,-1.2068,-1.7079,2.855
9.158000,1.9856,-1.1271,-1.7793,2.895
9.163000,2.0557,-1.0960,-1.7830,2.934
9.168000,2.1616,-1.0874,-1.7479,2.985
9.174000,2.2789,-1.0487,-1.6691,3.013
9.179000,2.4244,-1.0352,-1.5539,3.060
9.184000,2.5431,-0.9799,-1.3403,3.037
9.189000,2.6901,-0.8978,-1.1530,3.061
9.192000,2.7791,-0.8036,-1.0088,3.064
9.197000,2.8677,-0.7262,-0.8838,3.087
9.202000,2.8914,-0.6637,-0.8547,3.087
9.207000,2.8550,-0.6208,-0.8832,3.052
9.232000,2.9068,-0.6214,-0.8424,3.090
9.233000,2.9078,-0.5769,-0.7705,3.063
9.234000,2.8748,-0.5733,-0.7417,3.024
9.234000,2.7842,-0.6491,-0.7036,2.944
9.234000,2.7101,-0.7204,-0.7038,2.891
9.238000,2.5643,-0.7609,-0.6898,2.762
9.242000,2.4501,-0.8806,-0.6594,2.686
9.247000,2.3771,-1.0003,-0.6936,2.671
9.252000,2.2973,-1.1556,-0.7732,2.685
9.257000,2.2491,-1.2861,-0.8334,2.722
9.262000,2.2805,-1.3844,-0.9195,2.822
9.267000,2.2599,-1.4716,-1.0265,2.886
9.273000,2.3430,-1.4997,-1.0659,2.979
9.279000,2.4389,-1.4782,-1.0568,3.041
9.283000,2.5547,-1.4310,-1.0685,3.117
9.287000,2.6876,-1.3200,-1.0724,3.180
9.292000,2.8065,-1.1929,-1.0708,3.232
9.297000,2.8660,-0.9831,-1.1067,3.226
9.301000,2.9666,-0.8106,-1.1659,3.289
9.307000,3.0746,-0.6083,-1.1887,3.352
9.318000,3.1539,-0.3979,-1.2395,3.412
9.320000,3.1783,-0.1843,-1.2992,3.439
9.322000,3.1381,0.0277,-1.3607,3.420
9.371000,3.0880,0.2424,-1.3451,3.377
9.372000,3.0100,0.4536,-1.3863,3.345
9.373000,2.9469,0.6082,-1.3479,3.297
9.373000,2.8678,0.6894,-1.2757,3.214
9.373000,2.7944,0.7712,-1.2008,3.138
9.374000,2.7578,0.8178,-1.0395,3.059
9.374000,2.7199,0.8575,-0.8353,2.972
9.374000,2.7288,0.8593,-0.7198,2.950
9.375000,2.7222,0.8154,-0.5615,2.897
9.375000,2.8026,0.7523,-0.3891,2.928
9.379000,2.9344,0.6724,-0.2697,3.023
9.381000,3.0122,0.6521,-0.1529,3.086
9.386000,3.0958,0.5505,-0.1249,3.147
9.391000,3.1207,0.4683,-0.0132,3.156
9.396000,3.1418,0.3814,0.0316,3.165
9.402000,3.1713,0.3243,0.0265,3.188
9.407000,3.1970,0.2085,0.1176,3.206
9.415000,3.2859,0.2067,0.2143,3.299
9.418000,3.3114,0.1876,0.3812,3.339
9.421000,3.3523,0.1535,0.5442,3.400
9.427000,3.3867,0.1640,0.6913,3.460
9.457000,3.4695,0.1906,0.9637,3.606
9.458000,3.5376,0.2254,1.3133,3.780
9.459000,3.6082,0.3283,1.7186,4.010
9.459000,3.7503,0.4793,2.1167,4.333
9.459000,3.7581,0.6126,2.4115,4.507
9.459000,3.7750,0.7576,2.6681,4.684
9.463000,3.7335,0.9226,2.9455,4.844
9.466000,3.7176,1.1004,3.1146,4.973
9.472000,3.6647,1.2616,3.2661,5.068
9.476000,3.6274,1.4252,3.3518,5.140
9.481000,3.5532,1.5816,3.3121,5.109
9.486000,3.4728,1.7258,3.2523,5.061
9.490000,3.4124,1.9319,3.2033,5.063
9.496000,3.3216,2.0515,3.1219,4.999
9.501000,3.3150,2.2087,3.1111,5.054
9.505000,3.3017,2.3824,3.0511,5.088
9.511000,3.3314,2.5337,2.9083,5.097
9.516000,3.3869,2.6528,2.8094,5.138
9.521000,3.4352,2.7615,2.6755,5.156
9.525000,3.4950,2.8622,2.5951,5.210
9.531000,3.5548,2.9168,2.4485,5.210
9.536000,3.6077,2.9540,2.2623,5.183
9.540000,3.6920,2.9670,2.0867,5.176
9.553000,3.8298,2.9560,1.9529,5.217
9.555000,3.9903,2.9044,1.8179,5.260
9.556000,4.0658,2.8244,1.6196,5.209
9.560000,4.0900,2.7571,1.4014,5.128
9.615000,4.1252,2.6739,1.2520,5.073
9.616000,4.0808,2.6017,1.0639,4.955
9.617000,4.0601,2.4905,0.9186,4.851
9.618000,4.0657,2.4195,0.7444,4.789
9.618000,4.1791,2.3388,0.6277,4.830
9.618000,4.2592,2.2487,0.4371,4.836
9.619000,4.3299,2.1496,0.3570,4.847
9.619000,4.3960,2.0725,0.3394,4.872
9.620000,4.4651,2.0250,0.3174,4.913
9.620000,4.4967,1.9976,0.2649,4.928
9.621000,4.4955,1.9903,0.2297,4.922
9.623000,4.4997,1.9578,0.2525,4.914
9.624000,4.4400,1.9072,0.2256,4.838
9.630000,4.3976,1.8338,0.2878,4.773
9.638000,4.3889,1.8356,0.3553,4.771
9.639000,4.3543,1.8454,0.4448,4.750
9.651000,4.2555,1.9014,0.5226,4.690
9.656000,4.0944,1.9390,0.6391,4.575
9.657000,3.8753,1.9723,0.7464,4.412
9.659000,3.6171,1.9458,0.8585,4.196
9.696000,3.3677,1.9694,1.0399,4.038
9.697000,3.1871,1.9638,1.2567,3.949
9.697000,3.0587,1.9524,1.3628,3.876
9.697000,2.9421,1.9447,1.4418,3.810
9.698000,2.9140,1.9645,1.4650,3.807
9.698000,2.8687,2.0477,1.4565,3.814
9.699000,2.7823,2.0772,1.4929,3.779
9.699000,2.6616,2.0504,1.5334,3.693
9.706000,2.5975,1.9629,1.5424,3.603
9.710000,2.5468,1.9438,1.6155,3.588
9.716000,2.4950,2.0024,1.5995,3.577
9.719000,2.4063,1.9591,1.6068,3.494
9.724000,2.3233,1.9358,1.6183,3.430
9.729000,2.2654,1.9062,1.6219,3.376
9.734000,2.2183,1.8319,1.6129,3.298
9.739000,2.2060,1.7516,1.5723,3.226
9.746000,2.1809,1.7323,1.5336,3.179
9.750000,2.2006,1.7072,1.4420,3.136
9.753000,2.2147,1.7002,1.3620,3.107
9.759000,2.2163,1.6992,1.3679,3.110
9.801000,2.1479,1.6278,1.3064,2.995
9.803000,2.1346,1.5651,1.2852,2.942
9.803000,2.1239,1.4825,1.2373,2.870
9.804000,2.1297,1.4060,1.1820,2.812
9.804000,2.1834,1.3697,1.1289,2.814
9.804000,2.2415,1.3228,1.0468,2.805
9.805000,2.2679,1.2919,0.9790,2.788
9.805000,2.3271,1.2271,0.8659,2.770
9.806000,2.3283,1.1880,0.7673,2.724
9.809000,2.3190,1.1553,0.6712,2.676
9.814000,2.3046,1.0649,0.6637,2.624
9.818000,2.3660,1.0073,0.5916,2.639
9.824000,2.3767,0.9732,0.4719,2.611
9.829000,2.3747,0.9079,0.3861,2.572
9.833000,2.3956,0.8471,0.3701,2.568
9.838000,2.4080,0.7643,0.3519,2.551
9.843000,2.3315,0.7272,0.2601,2.456
9.848000,2.2895,0.6701,0.1662,2.391
9.853000,2.2300,0.6057,0.0417,2.311
9.858000,2.1315,0.5702,-0.0296,2.207
9.864000,2.0540,0.5154,-0.0621,2.119
9.868000,1.9594,0.4540,-0.1202,2.015
9.872000,1.8502,0.3496,-0.1062,1.886
9.916000,1.7916,0.2909,-0.0344,1.815
9.917000,1.7145,0.1945,0.0304,1.726
9.917000,1.5926,0.1555,0.0091,1.600
9.918000,1.4600,0.1116,-0.0195,1.464
9.918000,1.3434,0.0057,-0.0457,1.344
9.919000,1.1822,-0.0693,-0.1103,1.189
9.921000,1.0415,-0.1297,-0.2106,1.070
9.921000,0.9262,-0.2202,-0.2675,0.989
9.921000,0.8357,-0.3035,-0.2598,0.926
9.923000,0.7583,-0.3477,-0.2256,0.864
9.929000,0.6656,-0.4105,-0.1556,0.797
9.932000,0.5619,-0.4585,-0.1190,0.735
9.938000,0.4379,-0.5156,-0.1159,0.686
9.943000,0.3338,-0.5821,-0.1368,0.685
9.948000,0.2401,-0.6486,-0.1218,0.702
9.952000,0.1715,-0.6883,-0.1451,0.724
9.957000,0.0940,-0.7374,-0.2185,0.775
9.963000,-0.0138,-0.7571,-0.2965,0.813
9.968000,-0.0778,-0.7765,-0.3551,0.857
9.972000,-0.1460,-0.8047,-0.3225,0.879
10.018000,-0.2875,-0.8582,-0.3280,0.963
10.019000,-0.3853,-0.8727,-0.2495,0.986
10.019000,-0.4705,-0.8771,-0.2906,1.037
10.019000,-0.5669,-0.8931,-0.3387,1.111
10.019000,-0.6555,-0.9064,-0.4393,1.202
10.020000,-0.7558,-0.9024,-0.5132,1.284
10.020000,-0.7864,-0.9191,-0.5843,1.343
10.020000,-0.8360,-0.9348,-0.6334,1.405
10.021000,-0.9018,-0.9351,-0.6485,1.452
10.021000,-0.9671,-0.9535,-0.5965,1.483
10.027000,-1.0099,-0.9518,-0.5802,1.504
10.032000,-1.0254,-0.9922,-0.5159,1.517
10.036000,-1.0450,-1.0389,-0.4278,1.534
10.042000,-0.9846,-1.0539,-0.3709,1.489
10.048000,-0.9205,-1.0777,-0.2760,1.444
10.053000,-0.9367,-1.0893,-0.1815,1.448
10.057000,-0.9135,-1.1010,-0.1520,1.439
10.065000,-0.9587,-1.1103,-0.1826,1.478
10.068000,-1.0125,-1.1244,-0.2207,1.529
10.073000,-1.0770,-1.1624,-0.2208,1.600
10.076000,-1.1167,-1.2075,-0.3001,1.672
10.122000,-1.1077,-1.2235,-0.4032,1.699
10.123000,-1.0692,-1.2770,-0.4704,1.731
10.124000,-1.0324,-1.2794,-0.4992,1.718
10.124000,-0.9782,-1.3051,-0.4993,1.706
10.124000,-0.9785,-1.3058,-0.4943,1.705
10.124000,-0.9641,-1.3106,-0.5132,1.706
10.125000,-0.9899,-1.3051,-0.4792,1.707
10.125000,-0.9822,-1.3156,-0.4690,1.708
10.125000,-1.0077,-1.3376,-0.4946,1.746
10.126000,-1.0020,-1.3517,-0.4960,1.754
10.131000,-1.0486,-1.3749,-0.4686,1.792
10.136000,-1.0280,-1.3352,-0.5105,1.761
10.142000,-1.0166,-1.3544,-0.5569,1.783
10.147000,-1.0287,-1.3324,-0.4909,1.753
10.151000,-1.0115,-1.3004,-0.4679,1.713
10.156000,-0.9219,-1.3609,-0.4593,1.707
10.161000,-0.8557,-1.3518,-0.4389,1.659
10.166000,-0.8034,-1.2969,-0.4639,1.595
10.171000,-0.7697,-1.3230,-0.5345,1.621
10.177000,-0.7356,-1.3296,-0.6265,1.644
10.182000,-0.6822,-1.3212,-0.7254,1.654
10.186000,-0.6095,-1.3169,-0.7547,1.636
10.192000,-0.5558,-1.3454,-0.7096,1.619
10.198000,-0.4946,-1.3660,-0.7363,1.629
10.200000,-0.4786,-1.3524,-0.7675,1.627
10.205000,-0.4524,-1.3906,-0.7509,1.644
10.245000,-0.3754,-1.3684,-0.7366,1.599
10.246000,-0.3554,-1.3479,-0.7294,1.573
10.246000,-0.3037,-1.3794,-0.7199,1.585
10.246000,-0.3257,-1.3962,-0.7223,1.605
10.247000,-0.3567,-1.4317,-0.7678,1.663
10.247000,-0.3510,-1.4283,-0.7893,1.669
10.247000,-0.3761,-1.4196,-0.7940,1.669
10.247000,-0.3288,-1.4245,-0.8011,1.667
10.251000,-0.2860,-1.3902,-0.8604,1.660
10.255000,-0.2673,-1.3766,-0.8429,1.636
10.260000,-0.2055,-1.3384,-0.8084,1.577
10.265000,-0.2011,-1.3117,-0.7665,1.532
10.273000,-0.2228,-1.3035,-0.7174,1.504
10.276000,-0.2444,-1.3094,-0.7233,1.516
10.282000,-0.2560,-1.2886,-0.7315,1.504
10.287000,-0.2600,-1.2816,-0.7826,1.524
10.289000,-0.2374,-1.2286,-0.7355,1.451
10.332000,-0.2122,-1.2278,-0.7266,1.442
10.333000,-0.1961,-1.1956,-0.7176,1.408
10.333000,-0.2039,-1.1820,-0.6726,1.375
10.334000,-0.2068,-1.0962,-0.6634,1.298
10.334000,-0.1904,-1.0628,-0.6469,1.259
10.334000,-0.2100,-1.0390,-0.6423,1.239
10.334000,-0.2060,-1.0009,-0.5826,1.176
10.335000,-0.2070,-1.0109,-0.5348,1.162
10.335000,-0.1866,-1.0092,-0.5470,1.163
10.339000,-0.1831,-1.0030,-0.5854,1.176
10.345000,-0.1834,-0.9665,-0.5839,1.144
10.349000,-0.1765,-0.9639,-0.5919,1.145
10.355000,-0.1552,-0.9355,-0.6498,1.150
10.360000,-0.1555,-0.9529,-0.7074,1.197
10.364000,-0.1175,-1.0463,-0.7408,1.287
10.369000,-0.1033,-1.1129,-0.7646,1.354
10.374000,-0.0746,-1.1551,-0.8119,1.414
10.379000,-0.0432,-1.2016,-0.8874,1.494
10.384000,-0.0217,-1.1955,-0.9170,1.507
10.389000,0.0453,-1.2530,-0.9986,1.603
10.398000,0.1072,-1.2643,-1.0839,1.669
10.399000,0.1589,-1.2986,-1.0163,1.657
10.403000,0.2549,-1.3340,-1.0604,1.723
10.409000,0.2760,-1.3541,-1.0228,1.719
10.434000,0.3223,-1.3688,-1.0041,1.728
10.435000,0.3728,-1.3706,-0.9681,1.719
10.436000,0.4369,-1.3361,-0.9629,1.704
10.436000,0.4839,-1.3081,-0.9261,1.674
10.436000,0.5278,-1.2627,-0.9081,1.642
10.438000,0.5472,-1.2073,-0.9161,1.611
10.445000,0.5396,-1.1204,-0.9356,1.556
10.448000,0.5026,-1.0305,-0.8804,1.446
10.454000,0.5124,-0.9571,-0.8846,1.400
10.459000,0.5169,-0.8501,-0.8168,1.287
10.465000,0.5016,-0.7908,-0.7775,1.217
10.469000,0.4644,-0.7245,-0.7405,1.135
10.474000,0.4341,-0.6558,-0.7297,1.073
10.479000,0.4175,-0.5707,-0.7308,1.017
10.483000,0.4220,-0.5288,-0.7293,0.995
10.489000,0.4427,-0.5276,-0.7636,1.028
10.494000,0.4461,-0.5170,-0.7355,1.004
10.500000,0.4513,-0.5254,-0.6785,0.970
10.503000,0.4871,-0.5793,-0.6621,1.006
10.509000,0.5418,-0.6188,-0.5978,1.017
10.549000,0.5440,-0.6533,-0.5264,1.000
10.549000,0.6107,-0.6899,-0.5075,1.052
10.550000,0.6248,-0.6734,-0.4932,1.043
10.550000,0.6506,-0.7213,-0.4309,1.063
10.550000,0.6550,-0.7664,-0.3972,1.084
10.551000,0.6715,-0.7800,-0.4327,1.116
10.551000,0.6474,-0.7743,-0.5255,1.138
10.551000,0.6572,-0.7559,-0.5677,1.151
10.554000,0.7078,-0.7514,-0.6215,1.205
10.559000,0.7773,-0.6597,-0.7512,1.266
10.565000,0.7869,-0.5766,-0.7988,1.261
10.567000,0.7912,-0.4997,-0.8266,1.249
10.572000,0.8216,-0.4195,-0.8776,1.273
10.578000,0.8730,-0.3143,-0.9255,1.311
10.584000,0.9261,-0.2178,-0.9033,1.312
10.587000,0.9303,-0.1254,-0.9162,1.312
10.593000,0.9170,0.0494,-0.8517,1.253
10.597000,0.9030,0.1601,-0.8609,1.258
10.603000,0.8837,0.2925,-0.8385,1.253
10.607000,0.8785,0.4062,-0.7870,1.247
10.613000,0.8278,0.4916,-0.6730,1.175
10.622000,0.7651,0.6323,-0.7094,1.220
10.624000,0.7046,0.7422,-0.7190,1.251
10.681000,0.6249,0.8571,-0.6541,1.246
10.683000,0.5261,0.9270,-0.6152,1.231
10.683000,0.4635,1.0327,-0.5163,1.244
10.684000,0.3725,1.0573,-0.4605,1.212
10.684000,0.2868,1.1128,-0.3927,1.214
10.685000,0.2399,1.1896,-0.4111,1.281
10.685000,0.2028,1.2279,-0.3530,1.294
10.686000,0.2591,1.2856,-0.3592,1.360
10.687000,0.2699,1.3263,-0.2984,1.386
10.687000,0.3045,1.3699,-0.1941,1.417
10.688000,0.3006,1.4064,-0.1089,1.442
10.688000,0.2149,1.4737,-0.0546,1.490
10.688000,0.1793,1.4716,0.0644,1.484
10.693000,0.1507,1.4833,0.1783,1.502
10.698000,0.1248,1.5045,0.2396,1.529
10.702000,0.1515,1.5133,0.2456,1.541
10.711000,0.2092,1.5316,0.2375,1.564
10.717000,0.2357,1.6410,0.2035,1.670
10.718000,0.2333,1.6884,0.2176,1.718
10.722000,0.2021,1.7667,0.3251,1.808
10.726000,0.1139,1.7714,0.4616,1.834
10.769000,0.0384,1.7070,0.5049,1.781
10.770000,0.0326,1.6952,0.6271,1.808
10.770000,0.0032,1.7292,0.7493,1.885
10.771000,0.0386,1.7798,0.8142,1.958
10.771000,0.0883,1.8517,0.9412,2.079
10.771000,0.1378,1.8660,1.0443,2.143
10.772000,0.2136,1.8704,1.1209,2.191
10.772000,0.2891,1.9513,1.2573,2.339
10.772000,0.3528,2.0653,1.2621,2.446
10.777000,0.4062,2.1189,1.3338,2.537
10.783000,0.3892,2.1366,1.4800,2.628
10.787000,0.4027,2.1825,1.6786,2.783
10.792000,0.4280,2.2325,1.8528,2.933
10.796000,0.3888,2.2891,2.0099,3.071
10.802000,0.3779,2.3587,2.1064,3.185
10.806000,0.3308,2.4367,2.1903,3.293
10.813000,0.3094,2.4964,2.2375,3.367
10.816000,0.2539,2.4902,2.2650,3.376
10.822000,0.2601,2.5830,2.2342,3.425
10.827000,0.2419,2.6360,2.1646,3.419
10.831000,0.0703,2.6643,2.1161,3.403
10.836000,0.0087,2.7657,2.2035,3.536
10.842000,-0.0000,2.7681,2.1563,3.509
10.891000,-0.0539,2.7982,2.2112,3.567
10.892000,-0.0596,2.7485,2.2703,3.565
10.893000,-0.1106,2.6621,2.2927,3.515
10.893000,-0.1711,2.6108,2.3361,3.508
10.894000,-0.2291,2.5013,2.3167,3.417
10.894000,-0.3227,2.4389,2.3613,3.410
10.894000,-0.3994,2.3546,2.3504,3.351
10.895000,-0.4280,2.2435,2.3176,3.254
10.895000,-0.4015,2.1537,2.4352,3.276
10.896000,-0.3270,2.0423,2.5597,3.291
10.896000,-0.2114,1.9978,2.6503,3.326
10.900000,-0.1213,1.9460,2.7596,3.379
10.905000,0.0052,1.8438,2.8684,3.410
10.911000,0.0703,1.7820,3.0459,3.530
10.915000,0.1935,1.7437,3.1102,3.571
10.921000,0.3410,1.7120,3.1499,3.601
10.925000,0.4532,1.6774,3.1699,3.615
10.932000,0.5295,1.6737,3.2040,3.653
10.937000,0.5533,1.6291,3.2593,3.685
10.941000,0.5652,1.5364,3.3071,3.690
10.987000,0.6130,1.4557,3.3859,3.736
10.988000,0.6464,1.3868,3.4334,3.759
10.988000,0.7200,1.3823,3.4975,3.829
10.989000,0.7285,1.3658,3.5400,3.864
10.989000,0.7723,1.3014,3.6448,3.946
10.989000,0.8348,1.3063,3.6920,4.004
10.989000,0.9205,1.3418,3.7534,4.091
10.990000,1.0705,1.3531,3.8217,4.193
10.990000,1.2104,1.4215,3.8660,4.293
10.991000,1.3809,1.4442,3.8957,4.378
10.995000,1.5411,1.5071,3.9540,4.503
11.001000,1.6386,1.5292,4.0098,4.594
11.006000,1.7500,1.5511,4.0345,4.663
11.010000,1.8533,1.6181,4.1141,4.794
11.015000,1.9894,1.6920,4.2677,5.003
11.020000,2.0390,1.8010,4.4518,5.217
11.024000,2.1171,1.8851,4.5920,5.396
11.029000,2.1449,1.9415,4.7215,5.537
11.035000,2.0628,1.9652,4.8090,5.590
11.039000,2.0336,1.9202,4.9021,5.644
11.047000,1.9635,1.9262,4.9509,5.664
11.049000,1.9843,1.9949,4.9696,5.711
11.054000,2.0148,2.1164,4.8766,5.685
11.059000,1.9040,2.2141,4.7965,5.616
11.109000,1.8027,2.2953,4.7007,5.533
11.111000,1.6682,2.3385,4.5892,5.414
11.112000,1.5600,2.3917,4.3998,5.245
11.113000,1.4924,2.5024,4.2715,5.171
11.114000,1.4457,2.6420,4.1946,5.164
11.115000,1.3607,2.7866,4.0232,5.080
11.116000,1.3037,2.9095,3.8888,5.029
11.117000,1.2366,2.9580,3.8320,4.996
11.118000,1.1663,3.0160,3.7499,4.952
11.118000,1.0642,2.9919,3.7379,4.905
11.119000,0.9639,2.9313,3.7576,4.862
11.119000,0.8893,2.8550,3.6507,4.719
11.124000,0.8071,2.7177,3.4940,4.500
11.131000,0.7412,2.6084,3.2233,4.212
11.133000,0.7367,2.4640,2.9149,3.887
11.140000,0.7506,2.2783,2.6772,3.595
11.144000,0.7831,2.0829,2.3381,3.228
11.150000,0.9033,1.9184,1.9386,2.873
11.153000,1.0374,1.7400,1.5843,2.572
11.158000,1.1805,1.5678,1.3451,2.379
11.163000,1.2825,1.3942,1.0654,2.173
11.168000,1.3891,1.2443,0.8270,2.040
11.173000,1.4907,1.1462,0.7205,2.014
11.215000,1.5090,0.9304,0.6596,1.892
11.217000,1.5471,0.7767,0.5943,1.830
11.218000,1.5332,0.5836,0.5121,1.719
11.218000,1.5301,0.3615,0.4443,1.634
11.219000,1.5259,0.1847,0.3312,1.572
11.219000,1.4774,-0.0096,0.2013,1.491
11.219000,1.4015,-0.1587,0.0692,1.412
11.220000,1.3607,-0.3237,-0.0478,1.400
11.220000,1.3381,-0.4750,-0.1457,1.427
11.223000,1.3194,-0.5880,-0.2194,1.461
11.229000,1.2712,-0.7313,-0.2997,1.497
11.233000,1.1717,-0.8199,-0.4348,1.495
11.239000,1.0616,-0.9392,-0.5790,1.531
11.243000,1.0219,-1.0058,-0.6629,1.580
11.248000,0.9641,-1.1344,-0.7774,1.680
11.253000,0.9383,-1.2813,-0.9245,1.838
11.258000,0.8773,-1.3443,-1.0710,1.930
11.267000,0.7883,-1.3995,-1.2478,2.034
11.269000,0.7426,-1.4605,-1.4113,2.163
11.274000,0.6854,-1.4825,-1.5357,2.242
11.321000,0.6885,-1.5530,-1.6660,2.379
11.323000,0.6465,-1.5603,-1.7930,2.463
11.323000,0.6503,-1.5780,-1.8711,2.533
11.324000,0.6758,-1.6084,-1.9910,2.647
11.324000,0.6771,-1.6091,-2.0789,2.715
11.325000,0.6922,-1.5745,-2.1272,2.736
11.325000,0.7090,-1.5772,-2.1052,2.724
11.325000,0.7417,-1.5975,-2.1036,2.744
11.326000,0.7644,-1.5571,-2.1516,2.764
11.326000,0.7459,-1.5469,-2.1819,2.777
11.328000,0.7178,-1.5315,-2.2356,2.803
11.334000,0.7396,-1.5795,-2.2407,2.839
11.337000,0.7281,-1.6106,-2.2359,2.850
11.343000,0.7597,-1.6339,-2.2618,2.892
11.348000,0.8152,-1.6471,-2.2824,2.930
11.354000,0.8760,-1.6452,-2.3099,2.968
11.357000,0.8777,-1.6672,-2.3324,2.998
11.364000,0.9015,-1.7267,-2.3116,3.023
11.367000,0.8948,-1.8173,-2.3505,3.103
11.371000,0.8669,-1.9363,-2.3580,3.172
11.376000,0.8538,-2.0163,-2.3533,3.214
11.418000,0.8987,-2.0867,-2.4155,3.316
11.419000,0.9082,-2.1471,-2.5204,3.433
11.419000,0.8967,-2.2116,-2.6585,3.572
11.420000,0.9095,-2.3086,-2.7864,3.731
11.421000,0.9466,-2.3330,-2.9210,3.856
11.421000,0.9002,-2.3991,-3.0454,3.980
11.421000,0.8971,-2.4377,-3.2147,4.133
11.422000,0.8729,-2.4624,-3.4071,4.293
11.422000,0.8582,-2.4756,-3.5556,4.417
11.426000,0.8599,-2.4674,-3.6648,4.501
11.431000,0.8659,-2.4594,-3.8042,4.612
11.436000,0.8999,-2.4346,-3.7992,4.601
11.441000,0.9019,-2.4431,-3.7813,4.591
11.446000,0.9271,-2.4184,-3.7244,4.536
11.451000,0.9014,-2.3771,-3.5928,4.401
11.456000,0.8946,-2.3558,-3.4321,4.258
11.462000,0.8996,-2.3450,-3.3167,4.160
11.466000,0.8783,-2.2710,-3.2059,4.026
11.471000,0.8647,-2.2608,-3.0904,3.925
11.476000,0.8182,-2.3096,-2.9893,3.865
11.482000,0.7170,-2.3769,-2.8978,3.816
11.486000,0.6711,-2.4602,-2.8684,3.838
11.490000,0.5917,-2.6358,-2.8341,3.915
11.497000,0.4959,-2.7381,-2.7398,3.905
11.503000,0.4462,-2.8963,-2.6191,3.930
11.505000,0.4021,-3.0934,-2.4626,3.974
11.554000,0.3562,-3.3291,-2.3107,4.068
11.556000,0.3140,-3.5340,-2.0538,4.100
11.556000,0.3063,-3.7129,-1.8018,4.138
11.557000,0.3194,-3.8801,-1.5500,4.190
11.557000,0.3507,-4.0285,-1.2865,4.243
11.558000,0.3784,-4.1485,-1.0568,4.298
11.558000,0.3928,-4.2358,-0.9300,4.354
11.558000,0.4291,-4.3023,-0.7649,4.391
11.559000,0.4173,-4.3051,-0.6187,4.369
11.559000,0.4004,-4.2827,-0.6278,4.347
11.565000,0.3635,-4.2567,-0.6172,4.317
11.566000,0.3106,-4.2485,-0.5390,4.294
11.571000,0.3304,-4.2197,-0.4914,4.261
11.576000,0.4318,-4.1942,-0.5195,4.248
11.581000,0.4519,-4.1478,-0.4247,4.194
11.587000,0.4048,-4.1670,-0.2909,4.197
11.591000,0.3717,-4.1703,-0.0775,4.188
11.598000,0.3219,-4.1555,0.1318,4.170
11.602000,0.2772,-4.2091,0.3845,4.236
11.605000,0.2499,-4.2405,0.5658,4.285
11.609000,0.1659,-4.2835,0.7234,4.347
11.653000,0.0757,-4.3216,0.8859,4.412
11.654000,-0.0061,-4.3881,0.9722,4.494
11.655000,-0.0266,-4.3971,0.9606,4.501
11.655000,-0.0192,-4.3627,0.9803,4.472
11.656000,0.0136,-4.3543,0.9622,4.459
11.656000,0.0984,-4.3216,0.9491,4.426
11.656000,0.2232,-4.2837,0.9650,4.397
11.657000,0.3736,-4.2763,0.9502,4.397
11.657000,0.4921,-4.2542,0.8568,4.367
11.659000,0.6009,-4.2263,0.7257,4.330
11.664000,0.6884,-4.1352,0.6117,4.236
11.669000,0.8502,-3.9642,0.4264,4.077
11.674000,1.0290,-3.7198,0.2825,3.870
11.680000,1.1815,-3.4739,0.1202,3.671
11.685000,1.3125,-3.1858,-0.0724,3.446
11.689000,1.4221,-2.8530,-0.1804,3.193
11.697000,1.6059,-2.4854,-0.1992,2.966
11.701000,1.7944,-2.1288,-0.2748,2.798
11.704000,1.9203,-1.7113,-0.3425,2.595
11.709000,2.0479,-1.3171,-0.4549,2.477
11.755000,2.1764,-0.9160,-0.3800,2.392
11.756000,2.1978,-0.5506,-0.3236,2.289
11.756000,2.1148,-0.1814,-0.2069,2.133
11.756000,2.0447,0.0842,-0.0446,2.047
11.756000,1.9423,0.3146,0.1106,1.971
11.757000,1.8272,0.4352,0.3203,1.905
11.757000,1.6325,0.5034,0.5080,1.782
11.757000,1.4729,0.5237,0.6305,1.686
11.758000,1.2387,0.4861,0.7953,1.550
11.759000,0.9567,0.4196,0.8780,1.365
11.766000,0.6227,0.3169,0.9692,1.195
11.768000,0.3644,0.3171,0.9876,1.099
11.773000,0.0791,0.2384,0.9642,0.996
11.779000,-0.1346,0.1335,0.9371,0.956
11.784000,-0.3514,0.0243,0.9090,0.975
11.789000,-0.5708,-0.1107,0.8630,1.041
11.793000,-0.8001,-0.2737,0.7610,1.138
11.799000,-1.0445,-0.3783,0.6701,1.297
11.804000,-1.3015,-0.4986,0.4708,1.471
11.809000,-1.5287,-0.6082,0.2567,1.665
11.859000,-1.7481,-0.6494,-0.0436,1.865
11.860000,-1.9000,-0.6577,-0.3558,2.042
11.860000,-2.0045,-0.6805,-0.7177,2.235
11.860000,-2.1073,-0.6288,-1.0406,2.433
11.861000,-2.1463,-0.5696,-1.3650,2.607
11.861000,-2.1792,-0.4615,-1.7074,2.807
11.861000,-2.1703,-0.3810,-2.0103,2.983
11.862000,-2.1343,-0.2536,-2.2998,3.148
11.862000,-2.0712,-0.0960,-2.5090,3.255
11.863000,-2.0004,0.0032,-2.7047,3.364
11.863000,-1.8500,0.0800,-2.7963,3.354
11.868000,-1.7539,0.1987,-2.9035,3.398
11.874000,-1.5969,0.3423,-3.0049,3.420
11.879000,-1.4745,0.4825,-3.1363,3.499
11.883000,-1.3388,0.6405,-3.1806,3.510
11.895000,-1.1887,0.7252,-3.2316,3.519
11.896000,-1.0575,0.8206,-3.2820,3.545
11.899000,-0.9426,0.9265,-3.3106,3.565
11.908000,-0.7643,1.0236,-3.3558,3.591
11.909000,-0.6805,1.0785,-3.3698,3.603
11.913000,-0.5377,1.1461,-3.3098,3.544
11.917000,-0.4193,1.1757,-3.2287,3.462
11.922000,-0.2917,1.2178,-3.2366,3.470
11.951000,-0.1888,1.2503,-3.3190,3.552
11.952000,-0.1059,1.2808,-3.3275,3.567
11.952000,0.0191,1.3453,-3.3816,3.639
11.952000,0.1288,1.3406,-3.4145,3.671
11.953000,0.1682,1.3463,-3.4355,3.694
11.955000,0.2501,1.3528,-3.4781,3.740
11.957000,0.2909,1.3124,-3.5161,3.764
11.962000,0.2905,1.2568,-3.5324,3.761
11.967000,0.2655,1.2078,-3.5652,3.774
11.972000,0.2873,1.1631,-3.5448,3.742
11.976000,0.2982,1.0947,-3.3968,3.581
11.982000,0.3695,1.0693,-3.1787,3.374
11.987000,0.4752,1.0584,-2.9144,3.137
11.992000,0.5892,1.0565,-2.5853,2.854
11.997000,0.7162,1.1038,-2.2704,2.624
12.001000,0.7680,1.1095,-1.9124,2.341
12.007000,0.8447,1.1448,-1.6550,2.182
12.030000,0.8360,1.2091,-1.3952,2.027
12.030000,0.7083,1.2596,-1.1378,1.839
12.030000,0.5451,1.3056,-0.8994,1.676
12.031000,0.4325,1.3618,-0.6703,1.578
12.031000,0.3918,1.4492,-0.4506,1.567
12.036000,0.3338,1.5341,-0.1661,1.579
12.041000,0.2798,1.6456,0.1118,1.673
12.047000,0.1551,1.6971,0.4092,1.753
12.051000,0.0576,1.7262,0.7952,1.901
12.056000,-0.0344,1.7524,1.1717,2.108
12.062000,-0.1611,1.8225,1.5168,2.377
12.067000,-0.1550,1.9008,1.7800,2.609
12.072000,-0.1691,2.0081,1.9708,2.819
12.077000,-0.1650,2.0555,2.0745,2.925
12.081000,-0.1425,2.1130,2.1248,3.000
12.086000,-0.0321,2.1638,2.2534,3.124
12.091000,0.0105,2.2102,2.3643,3.237
12.096000,0.0624,2.2099,2.5033,3.340
12.102000,0.0713,2.1770,2.7084,3.476
12.106000,0.0658,2.0333,2.9415,3.576
12.111000,0.0554,1.8480,3.1739,3.673
12.116000,0.0061,1.6478,3.5492,3.913
12.121000,0.0231,1.5520,3.9311,4.226
12.127000,0.0801,1.4891,4.2287,4.484
12.177000,0.1149,1.4183,4.4612,4.683
12.178000,0.2427,1.3467,4.6212,4.820
12.178000,0.3866,1.3413,4.7760,4.976
12.178000,0.5659,1.3781,4.9161,5.137
12.179000,0.7734,1.4599,5.0438,5.307
12.179000,0.9329,1.5193,5.2020,5.499
12.179000,1.0156,1.5846,5.4288,5.746
12.179000,1.0504,1.6249,5.6426,5.965
12.180000,1.0614,1.6252,5.8648,6.178
12.180000,1.0700,1.5423,6.2887,6.563
12.180000,1.0891,1.4283,6.5905,6.831
12.185000,1.1757,1.3040,6.7176,6.943
12.191000,1.2790,1.1886,6.8543,7.073
12.196000,1.3820,1.0459,6.8546,7.070
12.200000,1.4461,0.8902,6.6758,6.888
12.205000,1.5236,0.7292,6.4955,6.712
12.210000,1.6119,0.5824,6.2782,6.508
12.215000,1.7280,0.4384,5.9764,6.237
12.220000,1.8626,0.3410,5.6742,5.982
12.225000,2.0442,0.2666,5.3958,5.776
12.231000,2.2247,0.1630,5.1824,5.642
12.235000,2.4188,0.0687,4.9979,5.553
12.240000,2.6170,0.0892,4.8735,5.532
12.274000,2.7643,0.0737,4.7399,5.488
12.275000,2.8873,0.1420,4.6352,5.463
12.275000,3.0272,0.2440,4.5069,5.435
12.276000,3.1289,0.3247,4.4076,5.415
12.276000,3.1833,0.5058,4.3681,5.429
12.276000,3.2098,0.7180,4.2710,5.391
12.276000,3.1939,0.9988,4.1473,5.329
12.280000,3.1808,1.3193,4.0877,5.345
12.286000,3.1243,1.5781,4.0754,5.372
12.291000,3.0720,1.7962,4.1743,5.485
12.295000,2.9445,1.9850,4.2169,5.513
12.299000,2.7228,2.0811,4.2289,5.443
12.305000,2.5502,2.0771,4.1192,5.271
12.309000,2.3386,2.0331,3.9049,4.985
12.316000,2.1622,1.9489,3.6075,4.635
12.320000,1.9707,1.7747,3.2655,4.207
12.325000,1.8315,1.5257,2.9011,3.755
12.334000,1.6656,1.2692,2.5572,3.305
12.335000,1.5118,1.0326,2.1510,2.825
12.339000,1.4012,0.8495,1.7757,2.416
12.388000,1.3467,0.6637,1.4149,2.063
12.389000,1.4032,0.5523,1.0785,1.854
12.389000,1.4227,0.4003,0.8093,1.685
12.389000,1.4483,0.2726,0.6504,1.611
12.390000,1.4829,0.0862,0.5371,1.579
12.390000,1.5366,-0.0781,0.4212,1.595
12.390000,1.5713,-0.2031,0.3123,1.615
12.390000,1.6356,-0.3368,0.2747,1.692
12.391000,1.6217,-0.3663,0.2057,1.675
12.391000,1.5919,-0.4405,0.1194,1.656
12.397000,1.4979,-0.5474,0.0998,1.598
12.399000,1.3950,-0.5648,0.0821,1.507
12.404000,1.2347,-0.5551,0.0595,1.355
12.409000,1.0482,-0.5023,0.0292,1.163
12.414000,0.8708,-0.4130,-0.0108,0.964
12.418000,0.6664,-0.3094,-0.0221,0.735
12.423000,0.4778,-0.1655,0.0118,0.506
12.429000,0.2690,-0.0511,-0.0313,0.276
12.433000,0.0249,0.0171,-0.0864,0.092
12.438000,-0.1829,0.0742,-0.0844,0.215
12.443000,-0.3785,0.1468,-0.1542,0.434
12.475000,-0.5548,0.2368,-0.3223,0.684
12.475000,-0.6957,0.3227,-0.4687,0.899
12.476000,-0.8418,0.3450,-0.6101,1.095
12.476000,-0.9431,0.3682,-0.7704,1.272
12.476000,-0.9616,0.3637,-0.9709,1.414
12.476000,-0.9597,0.3556,-1.1230,1.519
12.478000,-0.9302,0.3942,-1.3032,1.649
12.483000,-0.8806,0.3868,-1.4873,1.771
12.488000,-0.8542,0.3329,-1.6276,1.868
12.493000,-0.8434,0.2572,-1.7383,1.949
12.499000,-0.8120,0.1330,-1.8102,1.988
12.504000,-0.7501,0.0130,-1.8338,1.981
12.510000,-0.7199,-0.1100,-1.9168,2.051
12.513000,-0.6301,-0.2643,-1.9874,2.102
12.519000,-0.4829,-0.4218,-2.0603,2.158
12.522000,-0.4335,-0.5316,-2.2285,2.332
12.529000,-0.3740,-0.6537,-2.3318,2.450
12.534000,-0.2756,-0.7804,-2.4347,2.572
12.538000,-0.1526,-0.9614,-2.4941,2.677
12.542000,-0.0834,-1.1112,-2.4961,2.734
12.550000,-0.0247,-1.2989,-2.5770,2.886
12.553000,0.0281,-1.4739,-2.6432,3.027
12.557000,0.0322,-1.6510,-2.6855,3.153
12.567000,0.0186,-1.8056,-2.6701,3.223
12.568000,0.0542,-1.9567,-2.7023,3.337
12.572000,0.1010,-2.1191,-2.7105,3.442
12.614000,0.0987,-2.2565,-2.7447,3.555
12.615000,0.1312,-2.3936,-2.7883,3.677
12.616000,0.1048,-2.5227,-2.8746,3.826
12.616000,0.0456,-2.6289,-3.0057,3.993
12.617000,0.0011,-2.7339,-3.1242,4.151
12.617000,-0.0724,-2.7993,-3.2202,4.267
12.618000,-0.1371,-2.8962,-3.2913,4.386
12.618000,-0.2023,-2.9917,-3.2514,4.423
12.618000,-0.2228,-3.0641,-3.2897,4.501
12.629000,-0.2131,-3.1538,-3.3200,4.584
12.630000,-0.1924,-3.1963,-3.3613,4.642
12.635000,-0.1466,-3.2781,-3.3491,4.689
12.638000,-0.0950,-3.3750,-3.3171,4.733
12.643000,-0.0089,-3.3984,-3.3176,4.749
12.647000,0.0422,-3.4463,-3.3245,4.789
12.653000,0.1153,-3.4906,-3.3043,4.808
12.657000,0.2032,-3.4926,-3.3024,4.811
12.664000,0.2704,-3.5383,-3.2423,4.807
12.667000,0.3291,-3.5659,-3.2270,4.821
12.675000,0.3486,-3.6302,-3.1539,4.821
12.677000,0.3862,-3.7764,-3.1066,4.905
12.703000,0.3679,-3.9687,-3.0013,4.989
12.704000,0.3920,-4.1323,-2.8574,5.039
12.704000,0.4658,-4.3272,-2.7443,5.145
12.704000,0.4773,-4.5366,-2.6406,5.271
12.705000,0.5488,-4.6526,-2.4601,5.291
12.706000,0.6158,-4.7519,-2.3298,5.328
12.712000,0.6570,-4.8418,-2.1637,5.344
12.717000,0.6815,-4.9484,-2.0069,5.383
12.721000,0.6962,-5.0364,-1.8237,5.401
12.729000,0.7251,-5.0462,-1.6908,5.371
12.733000,0.7513,-5.0833,-1.6629,5.401
12.738000,0.7318,-5.1049,-1.6898,5.427
12.743000,0.7426,-5.1752,-1.7092,5.501
12.748000,0.8005,-5.2199,-1.8070,5.581
12.752000,0.9291,-5.1999,-1.9639,5.636
12.756000,1.0869,-5.1917,-2.0528,5.688
12.763000,1.2689,-5.2042,-2.0690,5.742
12.766000,1.3986,-5.2038,-1.9863,5.743
12.771000,1.5027,-5.2549,-1.8310,5.764
12.777000,1.5334,-5.2571,-1.6583,5.722
12.813000,1.5367,-5.2753,-1.4515,5.683
12.814000,1.4885,-5.3264,-1.2275,5.665
12.814000,1.3890,-5.3270,-0.9981,5.595
12.815000,1.3343,-5.2679,-0.7924,5.492
12.815000,1.3198,-5.1898,-0.5695,5.385
12.815000,1.3122,-5.0356,-0.4038,5.219
12.815000,1.3164,-4.8802,-0.2809,5.062
12.819000,1.3640,-4.7379,-0.1865,4.934
12.821000,1.4044,-4.6234,-0.0943,4.833
12.826000,1.4541,-4.5823,-0.0258,4.808
12.831000,1.4608,-4.5449,0.0358,4.774
12.837000,1.4465,-4.5092,0.0091,4.735
12.841000,1.4394,-4.3476,-0.1318,4.582
12.846000,1.4296,-4.0723,-0.3413,4.329
12.852000,1.4432,-3.7650,-0.5572,4.070
12.856000,1.4535,-3.3911,-0.7837,3.772
12.864000,1.5012,-3.0301,-0.9326,3.508
12.866000,1.5647,-2.6770,-1.0970,3.289
12.870000,1.6775,-2.2929,-1.2266,3.095
12.875000,1.8467,-1.9119,-1.2689,2.946
12.905000,2.0629,-1.5657,-1.2097,2.858
12.906000,2.2161,-1.2801,-0.9966,2.746
12.906000,2.3263,-1.0371,-0.7449,2.654
12.906000,2.4368,-0.8316,-0.4212,2.609
12.907000,2.4689,-0.6484,-0.0930,2.554
12.907000,2.4992,-0.5878,0.2875,2.583
12.911000,2.4369,-0.5143,0.5717,2.555
12.916000,2.3252,-0.4883,0.8958,2.539
12.920000,2.1289,-0.4864,1.1494,2.468
12.925000,1.8153,-0.4388,1.3419,2.300
12.930000,1.4953,-0.4823,1.3154,2.049
12.935000,1.2089,-0.5568,1.2663,1.837
12.940000,0.9557,-0.6184,1.2310,1.677
12.946000,0.6563,-0.6696,1.2427,1.557
12.950000,0.3227,-0.7145,1.3257,1.540
12.955000,0.0002,-0.7701,1.4272,1.622
12.961000,-0.3278,-0.7985,1.4753,1.709
12.966000,-0.6544,-0.8521,1.4295,1.788
12.971000,-0.8652,-0.8666,1.3449,1.819
12.976000,-1.0327,-0.8328,1.1881,1.781
12.981000,-1.2005,-0.7527,0.9261,1.693
12.986000,-1.2781,-0.6169,0.6498,1.561
12.990000,-1.2855,-0.4442,0.2903,1.391
13.036000,-1.3308,-0.2870,-0.0995,1.365
13.037000,-1.3237,-0.1258,-0.5073,1.423
13.038000,-1.3366,0.0090,-0.7821,1.549
13.038000,-1.3216,0.1510,-1.0315,1.683
13.038000,-1.2930,0.3526,-1.2630,1.842
13.038000,-1.1956,0.5592,-1.4021,1.926
13.039000,-1.0935,0.7272,-1.5522,2.033
13.039000,-0.9264,0.9502,-1.7421,2.190
13.039000,-0.8398,1.1057,-1.9457,2.390
13.042000,-0.7278,1.2653,-2.1105,2.566
13.046000,-0.6525,1.4153,-2.2436,2.732
13.050000,-0.5700,1.5413,-2.3955,2.905
13.055000,-0.4437,1.6791,-2.5066,3.049
13.060000,-0.3667,1.7740,-2.5460,3.125
13.064000,-0.3047,1.8425,-2.6430,3.236
13.069000,-0.2456,1.9133,-2.7117,3.328
13.075000,-0.1702,1.9483,-2.7425,3.368
13.079000,-0.0904,1.9736,-2.7523,3.388
13.084000,-0.0854,1.9752,-2.8341,3.456
13.090000,-0.0333,1.9507,-2.8994,3.495
13.096000,-0.0613,1.9765,-2.9410,3.544
13.100000,-0.0428,1.9168,-2.9466,3.515
13.103000,-0.0183,1.9006,-2.9476,3.507
13.108000,-0.0095,1.8896,-2.9341,3.490
13.161000,-0.0191,1.8412,-2.9492,3.477
13.162000,-0.0397,1.8128,-2.9617,3.473
13.162000,-0.1123,1.7997,-2.9928,3.494
13.162000,-0.2038,1.7282,-2.9491,3.424
13.163000,-0.2449,1.6921,-2.8064,3.286
13.163000,-0.2285,1.6623,-2.6749,3.158
13.163000,-0.1617,1.6532,-2.4758,2.981
13.164000,-0.0563,1.6859,-2.2404,2.804
13.164000,-0.0008,1.6625,-2.0189,2.615
13.165000,0.0548,1.6855,-1.8257,2.485
13.165000,0.0817,1.7307,-1.5533,2.327
13.168000,0.0771,1.7959,-1.2922,2.214
13.173000,0.0146,1.8592,-1.0428,2.132
13.179000,-0.0864,1.9009,-0.8100,2.068
13.184000,-0.0920,1.9309,-0.5171,2.001
13.190000,-0.0813,1.9701,-0.2315,1.985
13.199000,-0.0755,2.0069,0.0301,2.009
13.199000,-0.1581,2.0357,0.3224,2.067
13.203000,-0.2072,2.0140,0.5308,2.093
13.208000,-0.2421,2.0325,0.7437,2.178
13.213000,-0.3129,2.0504,0.9923,2.299
13.217000,-0.3072,2.0458,1.2068,2.395
13.222000,-0.2941,2.0909,1.4400,2.556
13.259000,-0.3432,2.1038,1.6678,2.707
13.260000,-0.3845,2.0845,1.9114,2.854
13.261000,-0.4036,2.0884,2.0849,2.978
13.261000,-0.4054,2.0981,2.2312,3.089
13.261000,-0.3804,1.9997,2.5084,3.230
13.262000,-0.3309,1.8141,2.7559,3.316
13.262000,-0.3148,1.6156,2.9115,3.345
13.264000,-0.3225,1.4549,3.1073,3.446
13.267000,-0.3396,1.2962,3.2572,3.522
13.272000,-0.3301,1.1706,3.3993,3.610
13.278000,-0.2487,1.0499,3.5725,3.732
13.282000,-0.2315,0.9437,3.7143,3.839
13.287000,-0.1019,0.8955,4.0549,4.154
13.292000,0.0614,0.8809,4.2206,4.312
13.298000,0.2511,0.9091,4.4720,4.570
13.302000,0.4629,1.0302,4.8567,4.986
13.308000,0.6873,1.1720,5.1685,5.344
13.316000,0.8477,1.2858,5.4907,5.703
13.318000,0.8843,1.3812,5.9046,6.128
13.322000,0.8833,1.3881,6.1417,6.358
13.327000,0.8014,1.3943,6.2855,6.488
13.378000,0.7130,1.3453,6.3817,6.561
13.379000,0.6322,1.2982,6.4733,6.632
13.379000,0.5592,1.2556,6.4454,6.590
13.379000,0.4153,1.1841,6.3368,6.460
13.380000,0.3723,1.0149,6.2122,6.306
13.380000,0.4492,0.9257,6.1489,6.234
13.380000,0.6313,0.7948,6.1470,6.230
13.381000,0.8301,0.6800,6.0751,6.169
13.381000,1.0354,0.6100,6.1106,6.228
13.381000,1.2469,0.5368,6.1743,6.322
13.382000,1.4554,0.4913,6.1297,6.319
13.388000,1.7111,0.4235,6.0656,6.317
13.393000,1.9685,0.4482,6.0322,6.361
13.398000,2.2015,0.5081,5.9793,6.392
13.402000,2.4153,0.5099,6.0432,6.528
13.406000,2.5287,0.5376,6.0563,6.585
13.411000,2.6083,0.6577,6.0451,6.617
13.416000,2.6783,0.8702,5.9687,6.600
13.421000,2.7361,1.1981,5.8605,6.578
13.427000,2.7479,1.5907,5.7322,6.553
13.431000,2.7139,1.9282,5.6051,6.519
13.436000,2.6053,2.1287,5.5244,6.468
13.441000,2.4674,2.2520,5.4565,6.398
13.490000,2.3213,2.3528,5.3224,6.265
13.492000,2.1359,2.4379,5.2247,6.148
13.492000,2.0189,2.3923,5.0700,5.959
13.494000,1.9084,2.2713,4.8919,5.721
13.494000,1.7638,2.1224,4.6185,5.380
13.495000,1.6859,1.9318,4.2836,4.992
13.495000,1.7102,1.7144,3.8758,4.570
13.495000,1.7338,1.5354,3.5224,4.216
13.496000,1.7781,1.3669,3.1643,3.879
13.496000,1.8342,1.2284,2.7846,3.553
13.499000,1.9236,1.0920,2.4771,3.321
13.503000,2.0229,0.9821,2.2778,3.201
13.506000,2.1327,0.8311,2.1191,3.119
13.511000,2.2245,0.6710,1.9606,3.040
13.515000,2.3013,0.5566,1.8142,2.983
13.521000,2.2817,0.4136,1.7107,2.882
13.526000,2.2593,0.2684,1.5855,2.773
13.530000,2.2272,0.2267,1.5011,2.695
13.535000,2.0922,0.1875,1.3614,2.503
13.540000,1.9285,0.2390,1.2119,2.290
13.546000,1.7237,0.3076,1.0530,2.043
13.551000,1.4890,0.3520,0.9422,1.797
13.555000,1.2455,0.3917,0.8748,1.572
13.560000,0.9742,0.4738,0.7858,1.338
13.611000,0.7991,0.5504,0.6203,1.152
13.612000,0.6123,0.6448,0.4764,1.009
13.613000,0.4470,0.7695,0.3781,0.967
13.613000,0.2936,0.8688,0.2343,0.947
13.613000,0.2118,0.9308,0.1288,0.963
13.613000,0.1153,1.0155,-0.0794,1.025
13.614000,-0.0128,1.0815,-0.2278,1.105
13.614000,-0.0746,1.0911,-0.2924,1.132
13.614000,-0.1440,1.0653,-0.4289,1.157
13.614000,-0.1591,1.0761,-0.5175,1.205
13.615000,-0.1895,1.0708,-0.6228,1.253
13.620000,-0.1945,1.0137,-0.8115,1.313
13.633000,-0.1884,0.9383,-0.9521,1.350
13.634000,-0.1230,0.8608,-1.1311,1.427
13.635000,-0.0917,0.7365,-1.2476,1.452
13.642000,-0.0031,0.6778,-1.3472,1.508
13.648000,0.0544,0.5220,-1.4491,1.541
13.651000,0.0591,0.3676,-1.5842,1.627
13.654000,0.1666,0.1956,-1.6089,1.629
13.660000,0.3418,0.0443,-1.6095,1.646
13.701000,0.4987,-0.1337,-1.7200,1.796
13.702000,0.6732,-0.3057,-1.8018,1.948
13.702000,0.7840,-0.4214,-1.8308,2.036
13.703000,0.8121,-0.5544,-1.9481,2.182
13.703000,0.7314,-0.7748,-2.0916,2.347
13.703000,0.6419,-0.9952,-2.1531,2.457
13.704000,0.6128,-1.2093,-2.2670,2.641
13.704000,0.6130,-1.4285,-2.3969,2.857
13.704000,0.5726,-1.6088,-2.5235,3.047
13.710000,0.5615,-1.7920,-2.6208,3.224
13.716000,0.4982,-1.9865,-2.7387,3.420
13.721000,0.4329,-2.1896,-2.7911,3.574
13.725000,0.3948,-2.3684,-2.9218,3.782
13.731000,0.3763,-2.5483,-3.0730,4.010
13.734000,0.3481,-2.7217,-3.1703,4.193
13.739000,0.3820,-2.8438,-3.2570,4.341
13.746000,0.4274,-2.9400,-3.3138,4.451
13.749000,0.4985,-3.0206,-3.3649,4.549
13.754000,0.5711,-3.1139,-3.3598,4.616
13.759000,0.6595,-3.2100,-3.3345,4.675
13.808000,0.6587,-3.3361,-3.2559,4.708
13.810000,0.6645,-3.4536,-3.1908,4.749
13.810000,0.6986,-3.5717,-3.1011,4.781
13.811000,0.7301,-3.6605,-3.0827,4.841
13.811000,0.7471,-3.7357,-3.1019,4.913
13.812000,0.7665,-3.8361,-3.0822,4.980
13.813000,0.7616,-3.9090,-3.1002,5.047
13.813000,0.7780,-4.0475,-3.0578,5.132
13.814000,0.7874,-4.1973,-2.9816,5.208
13.815000,0.7941,-4.3519,-2.9000,5.290
13.816000,0.8170,-4.5457,-2.8776,5.442
13.819000,0.8845,-4.7306,-2.7949,5.565
13.824000,0.9223,-4.9374,-2.6615,5.684
13.829000,0.9566,-5.1421,-2.4988,5.797
13.834000,1.0115,-5.3423,-2.3763,5.934
13.839000,1.0725,-5.5594,-2.2534,6.094
13.846000,1.1637,-5.7340,-2.1326,6.227
13.849000,1.2208,-5.8492,-2.1167,6.339
13.853000,1.2764,-5.9238,-2.1289,6.423
13.858000,1.2923,-5.9463,-2.1524,6.455
13.863000,1.2991,-5.9355,-2.2351,6.474
13.870000,1.2106,-5.9032,-2.3337,6.462
13.874000,1.2176,-5.8782,-2.3931,6.462
13.878000,1.2120,-5.8703,-2.4207,6.464
13.884000,1.2755,-5.8866,-2.4140,6.489
13.888000,1.3507,-5.8696,-2.3947,6.482
13.893000,1.4663,-5.9006,-2.3986,6.536
13.958000,1.5411,-5.8935,-2.4688,6.573
13.959000,1.6085,-5.9395,-2.4714,6.631
13.960000,1.7000,-5.9828,-2.5569,6.725
13.960000,1.7394,-6.0184,-2.6299,6.794
13.960000,1.7822,-6.0150,-2.7715,6.858
13.961000,1.8286,-5.9983,-2.8192,6.875
13.961000,1.8528,-5.9397,-2.8974,6.864
13.961000,1.9271,-5.8603,-2.9202,6.825
13.962000,2.0039,-5.7909,-2.9115,6.784
13.962000,2.0740,-5.7101,-2.8428,6.707
13.963000,2.0873,-5.6159,-2.8360,6.629
13.963000,2.0774,-5.5057,-2.6855,6.468
13.963000,2.0373,-5.4017,-2.5877,6.327
13.964000,1.9624,-5.2969,-2.5113,6.182
13.967000,1.8573,-5.2534,-2.4729,6.096
13.978000,1.8083,-5.1228,-2.5133,5.986
13.978000,1.7678,-4.9746,-2.5749,5.874
13.982000,1.7641,-4.7221,-2.6958,5.716
13.988000,1.7615,-4.3514,-2.8354,5.484
13.993000,1.8073,-3.9313,-2.9120,5.215
13.998000,1.8845,-3.5122,-2.9543,4.961
14.002000,1.9238,-3.1164,-2.9098,4.678
14.006000,1.9699,-2.7500,-2.7592,4.365
14.045000,2.0060,-2.3783,-2.5360,4.014
14.046000,1.9746,-2.1646,-2.2236,3.678
14.046000,1.9616,-1.9538,-1.8389,3.324
14.047000,1.9072,-1.7777,-1.4513,2.984
14.047000,1.8405,-1.6637,-0.9535,2.658
14.047000,1.7377,-1.5234,-0.4939,2.363
14.048000,1.5326,-1.4395,-0.1423,2.107
14.048000,1.2781,-1.3639,0.1159,1.873
14.052000,1.0340,-1.3070,0.4311,1.721
14.058000,0.7362,-1.3122,0.6334,1.633
14.063000,0.4426,-1.3265,0.7849,1.604
14.066000,0.1312,-1.3685,0.8404,1.611
14.072000,-0.1022,-1.4672,0.9100,1.729
14.077000,-0.4444,-1.5623,0.9721,1.893
14.082000,-0.7020,-1.6535,1.0485,2.080
14.087000,-0.9110,-1.7650,1.0841,2.263
14.092000,-1.1151,-1.8624,1.0888,2.428
14.136000,-1.2233,-1.8962,1.0698,2.497
14.138000,-1.3311,-1.8324,0.9791,2.467
14.138000,-1.3697,-1.7617,0.8124,2.375
14.138000,-1.3654,-1.6699,0.6653,2.257
14.139000,-1.3161,-1.5594,0.4542,2.091
14.139000,-1.1839,-1.3560,0.2414,1.816
14.139000,-1.0980,-1.1291,-0.0400,1.575
14.140000,-0.9967,-0.8904,-0.3036,1.371
14.140000,-0.8921,-0.6440,-0.5683,1.238
14.141000,-0.8394,-0.3881,-0.8222,1.237
14.147000,-0.7789,-0.1846,-0.9720,1.259
14.151000,-0.7414,0.0544,-1.1137,1.339
14.155000,-0.6665,0.2911,-1.1803,1.386
14.161000,-0.5942,0.5466,-1.2871,1.519
14.166000,-0.5772,0.7326,-1.3884,1.673
14.171000,-0.5433,0.9493,-1.5013,1.857
14.175000,-0.4803,1.1199,-1.5015,1.934
14.182000,-0.4787,1.2538,-1.5424,2.045
14.187000,-0.4714,1.3948,-1.5617,2.146
14.192000,-0.4552,1.5468,-1.5622,2.245
14.197000,-0.4828,1.6722,-1.5653,2.341
14.201000,-0.5683,1.7511,-1.6479,2.471
14.205000,-0.5756,1.7793,-1.6421,2.489
14.253000,-0.5552,1.8214,-1.6582,2.525
14.254000,-0.5644,1.8486,-1.6340,2.531
14.254000,-0.5269,1.8986,-1.6701,2.583
14.255000,-0.4694,1.9226,-1.6343,2.567
14.255000,-0.4780,1.9460,-1.5844,2.555
14.255000,-0.5000,1.9714,-1.5443,2.554
14.256000,-0.4827,1.9323,-1.5089,2.499
14.256000,-0.5176,1.9405,-1.5408,2.531
14.256000,-0.5424,1.8983,-1.4887,2.473
14.257000,-0.5789,1.8516,-1.4413,2.417
14.260000,-0.5625,1.8479,-1.3077,2.333
14.265000,-0.5625,1.8208,-1.1523,2.227
14.271000,-0.5694,1.8059,-1.0039,2.143
14.276000,-0.5521,1.8054,-0.8483,2.070
14.282000,-0.5873,1.7645,-0.7021,1.988
14.285000,-0.6441,1.7522,-0.5391,1.943
14.291000,-0.6862,1.7617,-0.3639,1.925
14.298000,-0.6875,1.7737,-0.2436,1.918
14.300000,-0.6721,1.8260,-0.1041,1.949
14.305000,-0.7094,1.9191,0.0021,2.046
14.310000,-0.7156,2.0170,0.1134,2.143
14.358000,-0.7219,2.0789,0.2464,2.214
14.358000,-0.6903,2.1432,0.4229,2.291
14.359000,-0.6640,2.1310,0.6187,2.316
14.359000,-0.5951,2.1494,0.9293,2.416
14.360000,-0.5336,2.2155,1.2160,2.583
14.360000,-0.5154,2.2995,1.4327,2.758
14.360000,-0.4643,2.3635,1.6994,2.948
14.361000,-0.3949,2.4478,1.8556,3.097
14.361000,-0.3932,2.5399,1.9897,3.250
14.361000,-0.3853,2.5659,2.1688,3.382
14.364000,-0.4495,2.5234,2.2850,3.434
14.369000,-0.4895,2.4981,2.4240,3.515
14.374000,-0.4668,2.4530,2.5049,3.537
14.379000,-0.4120,2.3782,2.6066,3.552
14.385000,-0.3395,2.2956,2.8246,3.656
14.390000,-0.2945,2.1790,3.1014,3.802
14.395000,-0.2263,1.9734,3.4177,3.953
14.400000,-0.1421,1.7861,3.8090,4.209
14.404000,0.0685,1.5889,4.1224,4.419
14.409000,0.0919,1.4506,4.2666,4.507
14.415000,0.2036,1.4963,4.8067,5.038
14.419000,0.4732,1.5409,5.0722,5.322
14.424000,0.6509,1.5601,5.3000,5.563
14.479000,0.7822,1.6594,5.5621,5.857
14.481000,0.8407,1.8143,5.9443,6.272
14.481000,0.8717,1.9931,6.3219,6.686
14.482000,0.7869,2.1717,6.5272,6.924
14.482000,0.5548,2.3565,6.7777,7.197
14.482000,0.1825,2.5113,7.0326,7.470
14.483000,-0.2105,2.5399,7.1696,7.609
14.483000,-0.5719,2.5045,7.2295,7.672
14.484000,-0.9325,2.3812,7.2456,7.684
14.484000,-1.1803,2.2537,7.1992,7.635
14.485000,-1.4279,2.0580,7.0523,7.484
14.485000,-1.5342,1.8282,6.7863,7.194
14.489000,-1.3109,1.6514,6.4334,6.770
14.494000,-1.1386,1.5547,6.1806,6.474
14.498000,-0.9462,1.4425,6.0114,6.254
14.504000,-0.6598,1.3175,6.0002,6.178
14.509000,-0.2498,1.1583,5.6755,5.798
14.515000,0.2804,1.0687,5.5621,5.671
14.519000,0.8424,0.9938,5.5833,5.733
14.523000,1.3292,0.9358,5.6191,5.850
14.561000,1.7984,0.9426,5.7125,6.063
14.562000,2.1715,0.9136,5.7174,6.184
14.563000,2.4153,0.9682,5.6529,6.223
14.563000,2.5274,1.0824,5.6147,6.252
14.564000,2.6130,1.2706,5.4979,6.218
14.564000,2.5934,1.6092,5.3525,6.161
14.565000,2.5620,1.9641,5.2025,6.123
14.565000,2.4252,2.2795,5.0835,6.076
14.569000,2.1327,2.5193,5.0670,6.047
14.574000,1.8900,2.6471,5.0881,6.039
14.578000,1.6373,2.6885,5.1055,5.998
14.583000,1.4863,2.7242,5.1049,5.974
14.588000,1.3649,2.6419,5.0431,5.855
14.594000,1.2729,2.5151,4.9271,5.676
14.598000,1.2509,2.3728,4.7525,5.457
14.602000,1.3014,2.1863,4.5073,5.176
14.608000,1.3770,1.9920,4.2181,4.864
14.613000,1.4823,1.8410,3.8737,4.538
14.618000,1.6819,1.6187,3.4980,4.205
14.622000,1.8589,1.3904,3.1705,3.929
14.632000,2.0256,1.2456,2.8675,3.725
14.635000,2.1733,1.0432,2.6296,3.567
14.637000,2.3094,0.8027,2.3538,3.394
14.642000,2.4270,0.6016,2.2728,3.379
14.691000,2.4650,0.3871,2.2781,3.379
14.692000,2.6440,0.2384,2.3123,3.521
14.693000,2.6791,0.1048,2.2318,3.488
14.694000,2.5918,-0.0166,2.2086,3.405
14.695000,2.4178,-0.0731,2.2141,3.279
14.696000,2.2121,-0.1244,2.1528,3.089
14.697000,1.9676,-0.1619,2.0577,2.852
14.698000,1.7480,-0.1206,1.9868,2.649
14.698000,1.5627,-0.0706,1.8679,2.436
14.699000,1.3635,-0.0122,1.7108,2.188
14.699000,1.1592,0.0762,1.5252,1.917
14.702000,0.9835,0.1891,1.3683,1.696
14.708000,0.8478,0.2883,1.0753,1.399
14.713000,0.7419,0.4099,0.7899,1.159
14.717000,0.6445,0.4714,0.5930,0.995
14.722000,0.5551,0.5435,0.4062,0.877
14.728000,0.5050,0.5803,0.2103,0.798
14.732000,0.4703,0.6251,0.0363,0.783
14.738000,0.4318,0.6436,-0.1423,0.788
14.742000,0.4134,0.6337,-0.3373,0.828
14.748000,0.4079,0.5744,-0.5366,0.886
14.753000,0.4204,0.5198,-0.7142,0.978
14.756000,0.4531,0.4491,-0.8698,1.079
14.806000,0.5036,0.3316,-1.0247,1.189
14.807000,0.5504,0.2125,-1.2246,1.359
14.807000,0.6603,0.0869,-1.3521,1.507
14.807000,0.7669,-0.0353,-1.5101,1.694
14.808000,0.8849,-0.1517,-1.6389,1.869
14.808000,0.9614,-0.3125,-1.8579,2.115
14.808000,0.9773,-0.5000,-2.0400,2.317
14.808000,1.0430,-0.6767,-2.2000,2.527
14.809000,1.0440,-0.8607,-2.4092,2.763
14.809000,1.0255,-1.0621,-2.5626,2.958
14.816000,1.0645,-1.2273,-2.6672,3.123
14.817000,1.0751,-1.4143,-2.7352,3.262
14.822000,1.1080,-1.5482,-2.7857,3.374
14.826000,1.1706,-1.6983,-2.7543,3.441
14.831000,1.2198,-1.8236,-2.7653,3.530
14.836000,1.2099,-2.0047,-2.7759,3.632
14.841000,1.1479,-2.1980,-2.7644,3.714
14.847000,1.0699,-2.4321,-2.8218,3.876
14.852000,1.0024,-2.6123,-2.9433,4.061
14.856000,0.9045,-2.7971,-3.1382,4.300
14.909000,0.8340,-2.9535,-3.4519,4.619
14.910000,0.7860,-3.1046,-3.6881,4.885
14.910000,0.7722,-3.2421,-3.9185,5.144
14.911000,0.7470,-3.3637,-4.1884,5.424
14.911000,0.7007,-3.4717,-4.4165,5.661
14.911000,0.6019,-3.5817,-4.6004,5.861
14.912000,0.5251,-3.6962,-4.6325,5.950
14.912000,0.4416,-3.8144,-4.6757,6.050
14.912000,0.3538,-3.9632,-4.7565,6.201
14.913000,0.3097,-4.1328,-4.7815,6.328
14.913000,0.2613,-4.3162,-4.7820,6.447
14.915000,0.2302,-4.4387,-4.8011,6.543
14.920000,0.2543,-4.4956,-4.7718,6.561
14.926000,0.3266,-4.5680,-4.7230,6.579
14.930000,0.3467,-4.6344,-4.7025,6.611
14.935000,0.3405,-4.7379,-4.5764,6.596
14.944000,0.3391,-4.8375,-4.3688,6.527
14.948000,0.2686,-4.9699,-4.1754,6.497
14.951000,0.2148,-5.1634,-3.9725,6.518
14.956000,0.1133,-5.3014,-3.8030,6.525
14.961000,0.0551,-5.4819,-3.6599,6.592
14.997000,0.0206,-5.6496,-3.4904,6.641
14.998000,-0.0188,-5.7830,-3.3329,6.675
14.998000,-0.0324,-5.8843,-3.2255,6.710
14.998000,-0.0661,-5.9772,-3.0939,6.731
14.999000,-0.0791,-5.9855,-2.9288,6.664
14.999000,-0.0882,-5.9670,-2.8089,6.596
14.999000,-0.0524,-5.9480,-2.6341,6.505
15.000000,-0.0342,-5.9217,-2.5453,6.446
15.005000,-0.0627,-5.8526,-2.5304,6.376
15.010000,-0.0284,-5.7909,-2.4266,6.279
15.016000,-0.0175,-5.7941,-2.3511,6.253
15.020000,0.0032,-5.8169,-2.2107,6.223
15.024000,0.0503,-5.8807,-2.1870,6.274
15.030000,0.1142,-5.9401,-2.1366,6.314
15.035000,0.1731,-5.9689,-2.1525,6.347
15.039000,0.2462,-5.9285,-2.2084,6.331
15.045000,0.3336,-5.9838,-2.2516,6.402
15.049000,0.3707,-6.0455,-2.2726,6.469
15.054000,0.4566,-6.0895,-2.1471,6.473
15.059000,0.6377,-6.0603,-2.0741,6.437
15.067000,0.8329,-5.9576,-1.9890,6.336
15.069000,1.0041,-5.8103,-1.8582,6.182
15.074000,1.0797,-5.7001,-1.6939,6.044
15.126000,1.1893,-5.5197,-1.5415,5.853
15.126000,1.2686,-5.3080,-1.3772,5.629
15.127000,1.3130,-5.0776,-1.3229,5.409
15.127000,1.3005,-4.8855,-1.2709,5.213
15.127000,1.1977,-4.7155,-1.2785,5.030
15.128000,1.0548,-4.5862,-1.2426,4.867
15.128000,0.9029,-4.3469,-1.1920,4.597
15.129000,0.7685,-4.0795,-1.2152,4.325
15.129000,0.7009,-3.7228,-1.2424,3.987
15.129000,0.6426,-3.3089,-1.2402,3.592
15.130000,0.6149,-2.8264,-1.1606,3.117
15.135000,0.6178,-2.4925,-1.0707,2.782
15.139000,0.6351,-2.3054,-0.9419,2.570
15.145000,0.6265,-2.0881,-0.7265,2.298
15.149000,0.5899,-1.9174,-0.4248,2.051
15.154000,0.6383,-1.7895,-0.2118,1.912
15.160000,0.6349,-1.7246,0.0016,1.838
15.164000,0.6086,-1.6186,0.2869,1.753
15.169000,0.5380,-1.5743,0.6057,1.771
15.173000,0.4373,-1.5898,0.9578,1.907
15.228000,0.3408,-1.6222,1.3073,2.111
15.229000,0.2128,-1.6365,1.6345,2.323
15.230000,0.0513,-1.6900,1.9181,2.557
15.230000,-0.1244,-1.7441,2.2273,2.832
15.230000,-0.2855,-1.8232,2.4545,3.071
15.230000,-0.4539,-1.8606,2.6426,3.264
15.231000,-0.7062,-1.9166,2.7654,3.438
15.231000,-0.9637,-1.9955,2.8997,3.650
15.231000,-1.1428,-2.0715,2.9186,3.757
15.232000,-1.3495,-2.0865,2.8894,3.811
15.232000,-1.5265,-2.0458,2.7883,3.780
15.238000,-1.6509,-1.9948,2.5869,3.660
15.239000,-1.7279,-1.8860,2.3140,3.449
15.244000,-1.7462,-1.7489,2.0014,3.180
15.249000,-1.6846,-1.5768,1.6730,2.850
15.252000,-1.6151,-1.3384,1.3481,2.493
15.259000,-1.4522,-1.0794,1.0100,2.072
15.263000,-1.3256,-0.8472,0.6517,1.703
15.269000,-1.2092,-0.6175,0.2760,1.386
15.274000,-1.1225,-0.3163,-0.0262,1.167
15.278000,-1.0270,-0.0134,-0.2720,1.062
15.327000,-0.9276,0.2487,-0.5591,1.111
15.329000,-0.8549,0.5152,-0.7539,1.251
15.330000,-0.7868,0.7307,-0.9859,1.458
15.331000,-0.6655,0.9460,-1.1713,1.646
15.332000,-0.5358,1.1460,-1.2747,1.796
15.333000,-0.3443,1.3337,-1.2986,1.893
15.333000,-0.1229,1.5563,-1.2917,2.026
15.334000,0.1744,1.7496,-1.2804,2.175
15.334000,0.3519,1.9510,-1.2963,2.369
15.336000,0.5002,2.1387,-1.3490,2.578
15.337000,0.6194,2.2163,-1.3790,2.683
15.337000,0.6400,2.3016,-1.4124,2.775
15.343000,0.5984,2.3274,-1.4901,2.828
15.348000,0.5685,2.3534,-1.5666,2.884
15.353000,0.4618,2.3564,-1.6872,2.935
15.357000,0.3934,2.3722,-1.8255,3.019
15.362000,0.3676,2.3463,-1.9335,3.062
15.367000,0.3171,2.2575,-2.0923,3.094
15.372000,0.2612,2.2112,-2.1917,3.124
15.380000,0.2118,2.1650,-2.2986,3.165
15.382000,0.1158,2.1406,-2.3888,3.210
15.387000,0.0428,2.0757,-2.4145,3.184
15.392000,-0.0578,2.0119,-2.3898,3.124
15.448000,-0.1836,1.8988,-2.3696,3.042
15.449000,-0.3014,1.8009,-2.3348,2.964
15.450000,-0.3250,1.6974,-2.2613,2.846
15.452000,-0.3603,1.6428,-2.1179,2.704
15.453000,-0.3452,1.6283,-1.9952,2.598
15.454000,-0.3212,1.6343,-1.8333,2.477
15.455000,-0.3028,1.6296,-1.5845,2.293
15.455000,-0.3212,1.6043,-1.3469,2.119
15.456000,-0.3522,1.5970,-1.0129,1.924
15.457000,-0.3217,1.5857,-0.7359,1.777
15.458000,-0.2416,1.6444,-0.5181,1.741
15.459000,-0.2172,1.7437,-0.1447,1.763
15.460000,-0.2338,1.7406,0.2337,1.772
15.464000,-0.3297,1.7443,0.5569,1.860
15.468000,-0.4134,1.7815,0.8249,2.006
15.471000,-0.5165,1.7917,1.0305,2.130
15.477000,-0.5765,1.8320,1.3194,2.330
15.484000,-0.5958,1.8567,1.4521,2.431
15.489000,-0.5382,1.8975,1.6083,2.545
15.492000,-0.4852,1.9444,1.6898,2.621
15.498000,-0.4532,1.9998,1.7923,2.723
15.502000,-0.3611,1.9875,1.9111,2.781
15.506000,-0.3474,2.0085,2.0584,2.897
15.576000,-0.3015,1.9451,2.2624,2.999
15.579000,-0.1853,1.8576,2.4658,3.093
15.579000,-0.1013,1.7533,2.5850,3.125
15.579000,0.0458,1.5890,2.7325,3.161
15.580000,0.2149,1.5034,2.9464,3.315
15.580000,0.3922,1.4179,3.0165,3.356
15.581000,0.5868,1.3732,3.0697,3.414
15.582000,0.7697,1.3675,3.1641,3.532
15.582000,0.9717,1.4318,3.3354,3.758
15.582000,1.1523,1.5639,3.5025,4.005
15.583000,1.2704,1.7561,3.7775,4.355
15.583000,1.3452,1.9535,4.1176,4.752
15.584000,1.3427,2.1865,4.5078,5.187
15.584000,1.3059,2.4012,5.0001,5.698
15.585000,1.2972,2.5875,5.3715,6.102
15.585000,1.2253,2.7757,5.6478,6.411
15.590000,1.0353,2.9408,5.8836,6.659
15.596000,0.8804,3.0517,6.1553,6.926
15.600000,0.7343,3.0435,6.2327,6.975
15.606000,0.6688,2.9428,6.3077,6.992
15.610000,0.6238,2.7639,6.3371,6.942
15.615000,0.7405,2.5169,6.3187,6.842
15.621000,0.9657,2.3530,6.2578,6.755
15.627000,1.2033,2.1980,6.0949,6.590
15.634000,1.4963,2.0811,5.8876,6.421
15.635000,1.7893,1.9501,5.6127,6.205
15.640000,2.1449,1.8463,5.3710,6.071
15.691000,2.4053,1.7367,5.1914,5.979
15.692000,2.6764,1.6148,4.9952,5.893
15.694000,2.9490,1.5646,4.8280,5.870
15.695000,3.1470,1.5123,4.8046,5.939
15.696000,3.3112,1.4461,4.8629,6.058
15.697000,3.4088,1.4139,4.9643,6.186
15.699000,3.4325,1.4988,5.0367,6.277
15.700000,3.4086,1.6598,5.0825,6.341
15.701000,3.2839,1.8316,5.2137,6.428
15.702000,3.0610,2.0134,5.3030,6.446
15.703000,2.8624,2.1355,5.4625,6.526
15.703000,2.6931,2.2020,5.5314,6.534
15.706000,2.5365,2.2125,5.5955,6.530
15.709000,2.3326,2.1502,5.5041,6.353
15.715000,2.0449,2.0363,5.3698,6.096
15.719000,1.7573,1.8781,5.1281,5.737
15.724000,1.5580,1.7356,4.7316,5.275
15.732000,1.4235,1.5836,4.3413,4.835
15.735000,1.3780,1.3984,3.9334,4.396
