time,ax,ay,az,aT
0.004000,-0.4206,0.0035,0.2737,0.502
0.005000,-0.4445,0.0236,0.3045,0.539
0.005000,-0.4417,0.0860,0.2689,0.524
0.005000,-0.3857,0.1238,0.1835,0.445
0.032000,-0.3043,0.1444,0.0531,0.341
0.032000,-0.2377,0.1652,-0.1129,0.311
0.032000,-0.2071,0.1791,-0.2525,0.373
0.033000,-0.1787,0.1676,-0.3443,0.423
0.033000,-0.1464,0.1546,-0.4054,0.458
0.082000,-0.0927,0.1668,-0.4694,0.507
0.083000,-0.0891,0.1732,-0.4959,0.533
0.083000,-0.1174,0.1667,-0.4440,0.489
0.083000,-0.1543,0.1684,-0.3064,0.382
0.083000,-0.1616,0.1680,-0.1430,0.273
0.083000,-0.1563,0.1746,0.0131,0.235
0.083000,-0.1534,0.1783,0.1355,0.271
0.084000,-0.1744,0.1958,0.2148,0.339
0.084000,-0.2556,0.1936,0.3276,0.458
0.084000,-0.3041,0.1646,0.4694,0.583
0.139000,-0.2696,0.1323,0.5944,0.666
0.140000,-0.1946,0.1203,0.6048,0.647
0.140000,-0.1008,0.1264,0.5413,0.565
0.140000,0.0308,0.1654,0.4158,0.448
0.140000,0.1094,0.2160,0.2929,0.380
0.140000,0.1186,0.2283,0.1845,0.317
0.140000,0.0994,0.2195,0.0857,0.256
0.141000,0.0855,0.2089,0.0012,0.226
0.141000,0.0674,0.1989,-0.0715,0.222
0.141000,0.0258,0.2017,-0.0916,0.223
0.141000,0.0200,0.2167,-0.0472,0.223
0.141000,-0.0022,0.2317,0.0354,0.234
0.177000,-0.0215,0.2153,0.1632,0.271
0.177000,-0.0116,0.2033,0.3028,0.365
0.177000,0.0198,0.2338,0.4351,0.494
0.178000,0.0607,0.2417,0.5483,0.602
0.178000,0.0686,0.2411,0.6136,0.663
0.178000,0.0366,0.2251,0.6023,0.644
0.178000,-0.0108,0.1963,0.5335,0.569
0.228000,-0.0930,0.1622,0.4550,0.492
0.229000,-0.1649,0.1135,0.3718,0.422
0.229000,-0.2105,0.0670,0.2673,0.347
0.229000,-0.1924,0.0512,0.1655,0.259
0.229000,-0.1372,0.0348,0.0331,0.145
0.230000,-0.0118,0.0395,-0.1490,0.155
0.230000,0.1146,0.0728,-0.3641,0.389
0.230000,0.1393,0.0803,-0.5620,0.585
0.230000,0.1530,0.0790,-0.6686,0.690
0.230000,0.1756,0.0860,-0.6915,0.719
0.231000,0.1766,0.0751,-0.6021,0.632
0.263000,0.1184,0.0821,-0.4461,0.469
0.264000,0.0395,0.0782,-0.2261,0.242
0.264000,-0.0102,0.0700,0.0677,0.098
0.264000,-0.0588,0.0616,0.3728,0.382
0.264000,-0.0963,0.0454,0.6104,0.620
0.264000,-0.0989,0.0305,0.7543,0.761
0.307000,0.0216,0.0505,0.7856,0.788
0.308000,0.1865,0.0838,0.6971,0.726
0.308000,0.3000,0.0902,0.5416,0.626
0.308000,0.3328,0.0555,0.3622,0.495
0.309000,0.2960,0.0016,0.1904,0.352
0.309000,0.1843,-0.0593,0.0619,0.203
0.309000,0.0521,-0.1106,-0.0158,0.123
0.309000,-0.0483,-0.1738,-0.0931,0.203
0.309000,-0.1550,-0.2393,-0.1533,0.324
0.351000,-0.2443,-0.2878,-0.1580,0.409
0.352000,-0.2972,-0.3099,-0.1265,0.448
0.352000,-0.3066,-0.2960,-0.0803,0.434
0.352000,-0.2696,-0.2656,-0.0290,0.380
0.352000,-0.2337,-0.2642,-0.0110,0.353
0.353000,-0.1819,-0.2583,-0.0598,0.322
0.353000,-0.0903,-0.2477,-0.1419,0.299
0.353000,0.0220,-0.2203,-0.2356,0.323
0.353000,0.1575,-0.1735,-0.2933,0.375
0.402000,0.2883,-0.1360,-0.3415,0.467
0.402000,0.3767,-0.1297,-0.3921,0.559
0.402000,0.3826,-0.1112,-0.4406,0.594
0.402000,0.3373,-0.1186,-0.4918,0.608
0.402000,0.2649,-0.1209,-0.5121,0.589
0.403000,0.2039,-0.1538,-0.5042,0.565
0.403000,0.1422,-0.1862,-0.4393,0.498
0.403000,0.0413,-0.2040,-0.3437,0.402
0.403000,-0.0634,-0.2029,-0.2316,0.314
0.403000,-0.1678,-0.2000,-0.1482,0.300
0.441000,-0.2672,-0.2432,-0.1176,0.380
0.442000,-0.3045,-0.2799,-0.1490,0.440
0.442000,-0.2657,-0.2931,-0.2686,0.478
0.442000,-0.2638,-0.2799,-0.4406,0.585
0.442000,-0.0863,-0.2640,-0.6192,0.679
0.442000,-0.0157,-0.2453,-0.7687,0.807
0.443000,0.0436,-0.2379,-0.8772,0.910
0.443000,0.0847,-0.2465,-0.9710,1.005
0.483000,0.0790,-0.2591,-1.0477,1.082
0.483000,0.0510,-0.2683,-1.1052,1.138
0.483000,0.0224,-0.2715,-1.1364,1.169
0.484000,-0.0158,-0.2663,-1.0792,1.112
0.484000,-0.0748,-0.2552,-0.9674,1.003
0.484000,-0.1520,-0.2408,-0.7723,0.823
0.484000,-0.2393,-0.2162,-0.5540,0.641
0.485000,-0.3147,-0.1964,-0.3652,0.521
0.515000,-0.3467,-0.1934,-0.2106,0.449
0.515000,-0.3332,-0.1903,-0.0758,0.391
0.516000,-0.3029,-0.1945,0.0344,0.362
0.516000,-0.2636,-0.1676,0.1298,0.338
0.516000,-0.2351,-0.1460,0.2105,0.348
0.516000,-0.2182,-0.1228,0.2409,0.347
0.516000,-0.2228,-0.1195,0.2260,0.339
0.569000,-0.2424,-0.1242,0.1731,0.323
0.569000,-0.2652,-0.1413,0.0894,0.314
0.569000,-0.3034,-0.1491,-0.0130,0.338
0.570000,-0.3761,-0.1833,-0.1223,0.436
0.570000,-0.4954,-0.1933,-0.2336,0.581
0.570000,-0.6570,-0.2051,-0.2918,0.748
0.570000,-0.7901,-0.2355,-0.4022,0.917
0.570000,-0.8743,-0.2704,-0.4016,0.999
0.571000,-0.8388,-0.2885,-0.3647,0.959
0.571000,-0.7401,-0.3043,-0.3730,0.883
0.616000,-0.6419,-0.3199,-0.3668,0.806
0.616000,-0.5316,-0.3040,-0.3250,0.693
0.616000,-0.4444,-0.2515,-0.2643,0.575
0.617000,-0.3560,-0.1958,-0.1586,0.436
0.617000,-0.2467,-0.1562,-0.0104,0.292
0.617000,-0.1524,-0.1161,0.1418,0.238
0.618000,-0.0802,-0.0760,0.2768,0.298
0.618000,-0.0400,-0.0599,0.4042,0.411
0.618000,-0.0081,-0.0585,0.5048,0.508
0.618000,-0.0039,-0.0528,0.5645,0.567
0.662000,0.0104,-0.0382,0.5883,0.590
0.662000,0.0298,-0.0146,0.5833,0.584
0.662000,0.0639,-0.0084,0.5354,0.539
0.663000,0.1085,-0.0125,0.4347,0.448
0.663000,0.1757,-0.0315,0.2600,0.315
0.663000,0.0743,0.0048,0.0349,0.082
0.663000,-0.1974,0.1205,-0.0989,0.252
0.663000,-0.5627,0.2533,-0.1483,0.635
0.663000,-0.8792,0.3334,-0.1084,0.947
0.698000,-1.0536,0.3674,0.0424,1.117
0.699000,-1.0734,0.3589,0.2154,1.152
0.699000,-0.9592,0.3244,0.3124,1.060
0.699000,-0.8007,0.2755,0.2973,0.897
0.699000,-0.6853,0.2271,0.2155,0.753
0.699000,-0.6242,0.2157,0.0812,0.665
0.700000,-0.6085,0.2441,-0.1341,0.669
0.702000,-0.5939,0.3031,-0.3657,0.760
0.706000,-0.5449,0.3500,-0.5583,0.855
0.731000,-0.4734,0.3565,-0.7075,0.923
0.731000,-0.3985,0.3681,-0.8466,1.005
0.732000,-0.3557,0.3750,-0.9949,1.121
0.732000,-0.3474,0.4253,-1.1739,1.296
0.732000,-0.3807,0.4735,-1.3621,1.491
0.737000,-0.4148,0.4862,-1.5595,1.685
0.761000,-0.4567,0.4974,-1.7923,1.915
0.762000,-0.5236,0.5145,-2.0415,2.170
0.763000,-0.6089,0.5327,-2.2734,2.413
0.763000,-0.7109,0.5331,-2.5117,2.664
0.763000,-0.8183,0.4917,-2.7347,2.897
0.768000,-0.9291,0.4420,-2.9328,3.108
0.773000,-1.1018,0.3597,-3.1559,3.362
0.777000,-1.3540,0.2402,-3.4179,3.684
0.782000,-1.6057,0.1052,-3.7353,4.067
0.786000,-1.8344,-0.0134,-4.0382,4.435
0.811000,-2.0460,-0.1225,-4.3335,4.794
0.812000,-2.2030,-0.2291,-4.5967,5.102
0.812000,-2.2988,-0.3062,-4.9089,5.429
0.813000,-2.3654,-0.3560,-5.2057,5.729
0.813000,-2.4220,-0.3799,-5.4533,5.979
0.818000,-2.4583,-0.3442,-5.6206,6.144
0.823000,-2.5290,-0.2462,-5.7146,6.254
0.827000,-2.6388,-0.1265,-5.7925,6.367
0.832000,-2.7123,-0.0179,-5.8485,6.447
0.838000,-2.6904,-0.0072,-5.7872,6.382
0.852000,-2.6014,-0.0798,-5.6681,6.237
0.853000,-2.4883,-0.2046,-5.5634,6.098
0.853000,-2.3658,-0.3261,-5.4642,5.963
0.918000,-2.2222,-0.4270,-5.3303,5.791
0.919000,-2.0910,-0.5255,-5.1092,5.545
0.919000,-1.9499,-0.6105,-4.8067,5.223
0.919000,-1.7637,-0.6601,-4.4802,4.860
0.920000,-1.5247,-0.6746,-4.1368,4.460
0.920000,-1.2202,-0.6779,-3.7482,4.000
0.920000,-0.8448,-0.6344,-3.3362,3.500
0.921000,-0.3919,-0.5299,-2.8958,2.970
0.921000,0.1517,-0.3954,-2.4469,2.483
0.921000,0.6742,-0.2456,-2.1198,2.238
0.922000,1.1148,-0.1101,-1.7631,2.089
0.922000,1.4967,0.0245,-1.3713,2.030
0.922000,1.8792,0.2066,-0.6427,1.997
0.922000,2.2273,0.4185,-0.0950,2.268
0.929000,2.5406,0.6002,0.5333,2.664
0.932000,2.8299,0.7374,1.1738,3.151
0.938000,3.0520,0.8604,1.8288,3.661
0.942000,3.1995,0.9516,2.4671,4.151
0.947000,3.2541,0.9802,2.9626,4.509
0.952000,3.2268,0.9520,3.2104,4.650
0.960000,3.1021,0.8827,3.2327,4.566
0.962000,2.9271,0.8286,3.1211,4.358
0.967000,2.7703,0.8312,3.0174,4.180
0.972000,2.6951,0.9194,2.9244,4.082
1.029000,2.6759,1.0243,2.8365,4.032
1.029000,2.7139,1.0805,2.8308,4.068
1.034000,2.7767,1.0913,2.9062,4.165
1.038000,2.8557,1.1190,2.9535,4.258
1.039000,2.9498,1.1610,2.9958,4.362
1.040000,3.0167,1.2052,3.0130,4.431
1.041000,3.0406,1.2469,3.0043,4.453
1.043000,3.0400,1.3067,2.9941,4.462
1.044000,3.0169,1.3468,2.9809,4.450
1.044000,2.9857,1.3794,2.9624,4.426
1.045000,2.9542,1.3973,2.9571,4.407
1.046000,2.8949,1.3672,2.9925,4.382
1.047000,2.8759,1.3019,3.1680,4.472
1.049000,2.9786,1.2251,3.4130,4.693
1.050000,3.1375,1.2183,3.6274,4.948
1.056000,3.2936,1.3174,3.7930,5.193
1.058000,3.4254,1.4474,4.0050,5.465
1.063000,3.5852,1.7342,4.2774,5.844
1.068000,3.7631,2.0955,4.5164,6.241
1.074000,3.8391,2.3935,4.6832,6.512
1.079000,3.7984,2.5801,4.7643,6.617
1.083000,3.6213,2.6579,4.6862,6.491
1.087000,3.3287,2.6635,4.5005,6.199
1.095000,2.9800,2.6044,4.2873,5.835
1.098000,2.6178,2.5293,4.0167,5.421
1.104000,2.2202,2.4744,3.6676,4.950
1.168000,1.7940,2.4237,3.2582,4.439
1.169000,1.3748,2.3851,2.8585,3.969
1.170000,0.9915,2.3498,2.5048,3.575
1.170000,0.6441,2.2677,2.1609,3.198
1.170000,0.3283,2.1802,1.8243,2.862
1.171000,0.0925,2.1479,1.7167,2.751
1.171000,0.3889,2.5687,3.3277,4.222
1.171000,0.4649,2.6617,3.2823,4.251
1.172000,0.3097,2.6382,2.6526,3.754
1.172000,-0.1094,2.4208,1.8041,3.021
1.173000,-0.6771,2.0852,1.1447,2.473
1.173000,-1.2149,1.7464,0.8197,2.280
1.173000,-1.6369,1.5116,0.6707,2.327
1.174000,-1.8587,1.4553,0.5080,2.415
1.177000,-1.8596,1.5362,0.3701,2.440
1.183000,-1.7572,1.6599,0.2376,2.429
1.188000,-1.6283,1.7543,-0.0710,2.395
1.195000,-1.3927,1.8218,-0.5088,2.349
1.198000,-1.2680,1.8885,-0.7911,2.408
1.203000,-1.2247,1.9572,-0.9838,2.510
1.261000,-1.1851,2.0304,-1.1599,2.622
1.262000,-1.1514,2.1200,-1.3153,2.748
1.263000,-1.2025,2.1730,-1.5310,2.918
1.263000,-1.3246,2.1966,-1.6989,3.077
1.264000,-1.4770,2.1766,-1.8019,3.188
1.265000,-1.6596,2.1131,-1.8116,3.241
1.266000,-1.8385,2.0017,-1.8001,3.260
1.266000,-1.9706,1.8807,-1.8012,3.266
1.267000,-2.0915,1.7286,-1.7721,3.241
1.268000,-2.2297,1.5600,-1.7753,3.249
1.269000,-2.3208,1.3965,-1.8007,3.253
1.269000,-2.3720,1.2120,-1.8149,3.223
1.270000,-2.3784,1.0255,-1.7965,3.152
1.274000,-2.2966,0.9067,-1.8204,3.068
1.280000,-2.2033,0.8070,-1.9579,3.056
1.283000,-2.1038,0.7361,-2.0841,3.051
1.289000,-2.0651,0.6698,-2.1296,3.041
1.294000,-2.0610,0.6173,-2.0488,2.971
1.298000,-2.0369,0.5329,-1.9015,2.837
1.303000,-2.0044,0.4115,-1.8146,2.735
1.370000,-1.9564,0.2700,-1.8432,2.701
1.371000,-1.9191,0.1086,-1.9251,2.720
1.372000,-1.8660,-0.0439,-1.9621,2.708
1.373000,-1.7947,-0.1661,-1.9616,2.664
1.373000,-1.7075,-0.2796,-1.9405,2.600
1.373000,-1.6502,-0.3756,-1.9059,2.549
1.373000,-1.6229,-0.4997,-1.8313,2.497
1.374000,-1.6329,-0.6256,-1.6807,2.425
1.375000,-1.6397,-0.7870,-1.5379,2.382
1.375000,-1.6961,-0.9937,-1.3954,2.411
1.376000,-1.7687,-1.2192,-1.2075,2.464
1.376000,-1.8533,-1.4066,-1.0002,2.533
1.376000,-1.8879,-1.5872,-0.7589,2.581
1.377000,-1.8706,-1.7854,-0.5745,2.649
1.378000,-1.8519,-2.0012,-0.5064,2.773
1.383000,-1.9108,-2.2033,-0.4944,2.958
1.388000,-2.0472,-2.3772,-0.5000,3.177
1.394000,-2.2275,-2.5247,-0.4800,3.401
1.398000,-2.4038,-2.6892,-0.4323,3.633
1.404000,-2.5898,-2.8704,-0.4316,3.890
1.413000,-2.7900,-3.1040,-0.4853,4.202
1.416000,-2.9727,-3.3653,-0.6079,4.531
1.418000,-3.0994,-3.6562,-0.7610,4.853
1.423000,-3.1484,-3.9590,-0.9871,5.154
1.477000,-3.1778,-4.2620,-1.2258,5.456
1.479000,-3.2094,-4.5909,-1.4546,5.787
1.480000,-3.2526,-4.9452,-1.6398,6.142
1.481000,-3.3554,-5.3054,-1.7714,6.523
1.482000,-3.5533,-5.6328,-1.8013,6.899
1.483000,-3.7960,-5.8912,-1.7078,7.213
1.483000,-4.0141,-6.1149,-1.5151,7.470
1.484000,-4.1880,-6.3012,-1.3073,7.678
1.485000,-4.3008,-6.4763,-1.1107,7.853
1.486000,-4.3232,-6.6569,-0.8396,7.982
1.487000,-4.2884,-6.8862,-0.5184,8.129
1.487000,-3.9880,-6.6904,-0.3910,7.799
1.488000,-3.4992,-6.3280,-0.8119,7.277
1.495000,-3.3769,-6.5158,-0.5958,7.363
1.498000,-3.3231,-6.9368,-0.1989,7.694
1.503000,-3.1578,-7.3214,0.1359,7.975
1.511000,-3.1009,-7.7944,0.3987,8.398
1.516000,-3.1293,-8.1206,0.5053,8.717
1.520000,-3.0993,-8.2077,0.4168,8.783
1.581000,-2.8259,-7.9521,0.2057,8.442
1.582000,-2.3028,-7.4552,-0.0985,7.803
1.582000,-1.5885,-6.8851,-0.3564,7.075
1.583000,-0.7739,-6.2922,-0.5437,6.363
1.583000,0.1341,-5.6787,-0.7422,5.729
1.583000,1.0388,-5.1430,-0.9034,5.324
1.583000,1.8916,-4.6811,-0.9792,5.143
1.584000,2.6223,-4.2742,-0.9747,5.108
1.584000,3.2401,-3.8991,-0.9118,5.151
1.584000,3.7619,-3.5363,-0.7616,5.219
1.585000,4.2382,-3.1877,-0.4939,5.326
1.585000,4.6715,-2.8556,-0.1403,5.477
1.586000,5.0163,-2.5378,0.2245,5.626
1.590000,5.3010,-2.2609,0.5901,5.793
1.595000,5.5326,-2.0034,0.9179,5.955
1.599000,5.6660,-1.7676,1.1670,6.049
1.604000,5.6692,-1.5658,1.3561,6.036
1.610000,5.5740,-1.3855,1.4855,5.933
1.614000,5.4476,-1.2358,1.6268,5.818
1.619000,5.3046,-1.1357,1.7920,5.713
1.671000,5.1522,-1.0706,1.9232,5.603
1.672000,4.9742,-1.0162,2.0182,5.463
1.673000,4.7674,-0.9633,2.0766,5.289
1.673000,4.5422,-0.8921,2.0723,5.072
1.673000,4.3132,-0.8095,2.0105,4.827
1.674000,4.0874,-0.6866,1.8583,4.542
1.674000,3.8670,-0.5590,1.7502,4.281
1.674000,3.7022,-0.4359,1.6698,4.085
1.675000,3.5995,-0.2963,1.6025,3.951
1.675000,3.5663,-0.1471,1.4958,3.870
1.675000,3.5807,0.0357,1.3378,3.823
1.681000,3.6374,0.2423,1.1430,3.820
1.685000,3.6928,0.4608,0.8903,3.826
1.691000,3.7301,0.6603,0.6067,3.836
1.695000,3.7221,0.8504,0.3143,3.831
1.699000,3.6238,1.0170,0.0231,3.764
1.703000,3.4259,1.1702,-0.2401,3.628
1.710000,3.1671,1.3245,-0.4632,3.464
1.715000,2.8932,1.4444,-0.6363,3.296
1.718000,2.6310,1.5564,-0.7188,3.140
1.772000,2.3928,1.6652,-0.7186,3.002
1.773000,2.1481,1.7541,-0.6863,2.857
1.773000,1.8568,1.8354,-0.7131,2.706
1.774000,1.5766,1.8971,-0.7319,2.573
1.774000,1.3222,1.9396,-0.6995,2.449
1.775000,1.1106,1.9796,-0.5944,2.346
1.775000,0.9252,2.0337,-0.4510,2.279
1.775000,0.7734,2.0684,-0.2935,2.228
1.776000,0.6674,2.0836,-0.1488,2.193
1.776000,0.6576,2.0842,-0.0290,2.186
1.776000,0.7391,2.1132,0.0728,2.240
1.781000,0.8898,2.1727,0.1591,2.353
1.784000,1.0901,2.2386,0.2177,2.499
1.791000,1.2938,2.3251,0.2394,2.672
1.796000,1.4529,2.3961,0.2242,2.811
1.799000,1.5337,2.4494,0.2275,2.899
1.804000,1.5624,2.4849,0.2803,2.949
1.809000,1.5343,2.4930,0.3587,2.949
1.814000,1.4640,2.4809,0.4693,2.919
1.821000,1.3636,2.4846,0.5691,2.891
1.829000,1.2189,2.4610,0.6534,2.823
1.832000,1.0350,2.4317,0.7053,2.735
1.834000,0.8100,2.4161,0.7272,2.650
1.839000,0.5208,2.3930,0.6643,2.538
1.881000,0.2300,2.4057,0.6174,2.494
1.882000,-0.0069,2.4041,0.5817,2.473
1.882000,-0.2325,2.4195,0.5692,2.496
1.882000,-0.3748,2.4353,0.5583,2.526
1.882000,-0.4646,2.4279,0.5803,2.539
1.883000,-0.4804,2.4043,0.6159,2.528
1.883000,-0.4701,2.3791,0.6486,2.510
1.883000,-0.3959,2.3832,0.6927,2.513
1.884000,-0.2342,2.3757,0.7671,2.507
1.891000,0.0050,2.3851,0.8261,2.524
1.896000,0.2664,2.3922,0.8437,2.551
1.900000,0.4944,2.4016,0.8127,2.583
1.904000,0.6818,2.4350,0.7673,2.642
1.911000,0.8185,2.4921,0.7432,2.726
1.914000,0.8829,2.5465,0.7381,2.794
1.921000,0.9326,2.5576,0.7447,2.822
1.924000,0.9823,2.5232,0.7605,2.812
1.929000,1.0796,2.5029,0.7758,2.834
1.935000,1.2073,2.5063,0.7455,2.880
1.939000,1.2884,2.5141,0.7369,2.920
1.972000,1.3035,2.5166,0.8003,2.945
1.974000,1.2887,2.5235,0.9257,2.981
1.975000,1.2132,2.5323,1.0223,2.988
1.975000,1.1326,2.5170,1.0923,2.968
1.975000,1.0589,2.5207,1.1357,2.961
1.976000,0.9682,2.5098,1.1931,2.943
1.976000,0.8630,2.4459,1.2498,2.879
1.985000,0.7866,2.4082,1.2792,2.838
1.985000,0.6459,2.2627,1.2480,2.664
1.990000,0.5516,2.1128,1.1685,2.477
2.002000,0.5228,2.0350,1.0148,2.333
2.003000,0.6025,1.9746,0.8999,2.252
2.006000,0.7856,1.8812,0.8193,2.197
2.021000,0.9763,1.7358,0.7489,2.128
2.023000,1.2441,1.5241,0.7128,2.093
2.023000,1.5622,1.3108,0.7207,2.163
2.027000,1.9137,1.1459,0.7749,2.361
2.029000,2.2861,0.9886,0.9088,2.651
2.035000,2.5380,0.7908,1.1123,2.882
2.040000,2.6960,0.5500,1.3107,3.048
2.049000,2.8203,0.2976,1.4922,3.205
2.050000,2.9469,0.0670,1.6567,3.381
2.055000,3.0353,-0.1440,1.8068,3.535
2.090000,3.0787,-0.3378,1.9329,3.651
2.091000,3.0750,-0.4784,2.0375,3.720
2.091000,3.0604,-0.5920,2.1254,3.773
2.092000,3.0544,-0.6523,2.2062,3.824
2.092000,3.0975,-0.6571,2.3252,3.928
2.092000,3.2039,-0.6854,2.4821,4.110
2.093000,3.3851,-0.7542,2.6598,4.371
2.102000,3.5905,-0.8732,2.8578,4.671
2.102000,3.7793,-1.0355,3.0686,4.977
2.116000,3.9635,-1.1643,3.2345,5.247
2.117000,4.1547,-1.2696,3.3625,5.494
2.119000,4.3650,-1.3204,3.4811,5.737
2.119000,4.5579,-1.3408,3.5927,5.957
2.137000,4.7382,-1.3263,3.6539,6.129
2.138000,4.8933,-1.2626,3.6887,6.257
2.138000,4.9752,-1.1885,3.7088,6.318
2.139000,5.0079,-1.0726,3.6310,6.278
2.153000,5.0488,-0.9126,3.4316,6.172
2.154000,5.0810,-0.7084,3.1472,6.019
2.155000,5.1019,-0.4886,2.8146,5.847
2.169000,5.1283,-0.2363,2.4967,5.709
2.170000,5.1912,0.0534,2.2296,5.650
2.171000,5.1849,0.3659,2.0114,5.573
2.232000,5.3388,0.6892,1.8728,5.700
2.232000,5.3919,1.0089,1.7898,5.770
2.233000,5.3922,1.3057,1.7046,5.804
2.234000,5.3421,1.5868,1.5983,5.798
2.234000,5.2753,1.8428,1.5283,5.793
2.234000,5.2134,2.0427,1.5164,5.801
2.235000,5.1896,2.1865,1.5529,5.842
2.235000,5.0986,2.2573,1.6207,5.807
2.236000,5.0743,2.2360,1.7271,5.808
2.236000,5.0588,2.1345,1.9146,5.815
2.236000,5.0528,1.9815,2.1635,5.843
2.237000,5.0370,1.8103,2.4251,5.876
2.237000,5.0257,1.6444,2.6725,5.925
2.241000,5.0093,1.5004,2.8574,5.959
2.245000,4.9545,1.3374,2.9750,5.932
2.250000,4.9184,1.1362,3.0156,5.880
2.258000,4.8396,0.8947,2.9939,5.761
2.261000,4.7514,0.6632,2.8887,5.600
2.266000,4.6158,0.4034,2.6743,5.350
2.270000,4.3999,0.1348,2.4324,5.029
2.276000,4.1881,-0.0966,2.1850,4.725
2.280000,3.9780,-0.2671,1.8653,4.402
2.285000,3.7274,-0.3974,1.5532,4.058
2.290000,3.4795,-0.4826,1.2587,3.732
2.319000,3.2369,-0.5513,1.0467,3.446
2.320000,3.0431,-0.5983,0.8909,3.227
2.320000,2.8336,-0.6236,0.8055,3.011
2.320000,2.6369,-0.6491,0.7347,2.813
2.320000,2.4731,-0.6502,0.7102,2.654
2.320000,2.3566,-0.6103,0.7575,2.549
2.326000,2.2945,-0.5392,0.8403,2.502
2.330000,2.3111,-0.4297,0.9580,2.538
2.335000,2.3247,-0.2990,1.1075,2.592
2.341000,2.3423,-0.1668,1.2618,2.666
2.345000,2.3640,-0.0209,1.4021,2.749
2.350000,2.3992,0.1214,1.5395,2.853
2.357000,2.4594,0.2527,1.6379,2.966
2.360000,2.5204,0.3674,1.7065,3.066
2.365000,2.5485,0.4632,1.7381,3.119
2.370000,2.5430,0.5369,1.7326,3.124
2.377000,2.4876,0.5843,1.7002,3.069
2.380000,2.3869,0.6123,1.6027,2.940
2.385000,2.2454,0.6090,1.4623,2.748
2.448000,2.0607,0.5863,1.2962,2.504
2.449000,1.8614,0.5157,1.1050,2.225
2.450000,1.6593,0.4282,0.8958,1.934
2.451000,1.4115,0.3367,0.6774,1.601
2.451000,1.1128,0.2312,0.4907,1.238
2.451000,0.8109,0.0930,0.3122,0.874
2.452000,0.5370,-0.0705,0.1519,0.563
2.452000,0.3294,-0.2520,0.0147,0.415
2.452000,0.1902,-0.4185,-0.1024,0.471
2.452000,0.1080,-0.5762,-0.2583,0.641
2.453000,0.0706,-0.7040,-0.4607,0.844
2.453000,0.0227,-0.7997,-0.6734,1.046
2.453000,-0.0331,-0.8799,-0.8891,1.251
2.455000,-0.1063,-0.9563,-1.0767,1.444
2.460000,-0.2284,-1.0534,-1.2361,1.640
2.466000,-0.3889,-1.1986,-1.3573,1.852
2.471000,-0.5522,-1.3613,-1.4168,2.041
2.478000,-0.6940,-1.5485,-1.4269,2.217
2.483000,-0.8024,-1.7270,-1.3642,2.342
2.485000,-0.9010,-1.9330,-1.3581,2.528
2.532000,-1.0262,-2.1621,-1.3826,2.764
2.533000,-1.1218,-2.3700,-1.4397,2.991
2.534000,-1.2263,-2.5570,-1.5439,3.229
2.534000,-1.2824,-2.7305,-1.6352,3.431
2.535000,-1.3525,-2.9382,-1.7591,3.682
2.535000,-1.4435,-3.1702,-1.9152,3.975
2.535000,-1.5677,-3.4029,-2.0700,4.280
2.536000,-1.7318,-3.6537,-2.2274,4.616
2.536000,-1.9434,-3.8704,-2.3513,4.928
2.536000,-2.1285,-4.0555,-2.4320,5.186
2.542000,-2.3497,-4.2472,-2.4622,5.443
2.545000,-2.5829,-4.4244,-2.5116,5.706
2.551000,-2.7890,-4.5977,-2.5514,5.952
2.558000,-2.9227,-4.7532,-2.5557,6.137
2.561000,-3.0245,-4.8911,-2.5657,6.297
2.565000,-3.1300,-5.0089,-2.6414,6.470
2.570000,-3.2344,-5.1425,-2.7492,6.668
2.579000,-3.3451,-5.2608,-2.8748,6.865
2.581000,-3.4113,-5.3626,-2.9989,7.028
2.585000,-3.4692,-5.4532,-3.0974,7.167
2.614000,-3.5187,-5.5730,-3.1755,7.316
2.615000,-3.5409,-5.7389,-3.2306,7.477
2.615000,-3.5625,-5.9197,-3.2244,7.624
2.615000,-3.5953,-6.1112,-3.2074,7.782
2.616000,-3.6436,-6.3049,-3.1845,7.948
2.616000,-3.6814,-6.4824,-3.1487,8.093
2.621000,-3.7253,-6.6603,-3.0762,8.228
2.625000,-3.7965,-6.8313,-2.9816,8.365
2.631000,-3.9286,-6.9978,-2.8579,8.519
2.636000,-4.1074,-7.1816,-2.6310,8.682
2.641000,-4.2536,-7.3749,-2.3751,8.839
2.647000,-4.3241,-7.5374,-2.1792,8.959
2.650000,-4.3738,-7.7100,-2.0388,9.096
2.655000,-4.4167,-7.8684,-1.9899,9.240
2.660000,-4.4167,-8.0001,-2.0566,9.367
2.665000,-4.4096,-8.0979,-2.1504,9.468
2.670000,-4.3906,-8.1608,-2.2636,9.539
2.675000,-4.3673,-8.1702,-2.4295,9.577
2.681000,-4.3881,-8.1952,-2.5996,9.653
2.685000,-4.4532,-8.2786,-2.7327,9.789
2.693000,-4.5870,-8.4415,-2.8308,10.016
2.697000,-4.7539,-8.6502,-2.8910,10.285
2.700000,-4.9517,-8.8610,-2.9270,10.564
2.761000,-5.1616,-9.0428,-2.9556,10.824
2.762000,-5.3594,-9.1787,-2.9600,11.033
2.762000,-5.5544,-9.2735,-2.9718,11.211
2.763000,-5.7489,-9.3009,-3.0053,11.340
2.763000,-5.9524,-9.2466,-3.0821,11.421
2.764000,-6.1575,-9.1558,-3.1833,11.484
2.765000,-6.3711,-9.0286,-3.3063,11.534
2.765000,-6.6122,-8.8599,-3.4444,11.579
2.765000,-6.8728,-8.6428,-3.6100,11.617
2.766000,-7.0712,-8.3481,-3.8322,11.592
2.766000,-7.2066,-7.9753,-4.1328,11.516
2.767000,-7.2499,-7.5221,-4.5172,11.382
2.767000,-7.1575,-6.9998,-4.9734,11.179
2.772000,-6.8386,-6.4393,-5.4939,10.882
2.826000,-6.3532,-5.8905,-6.0185,10.549
2.828000,-5.7492,-5.3845,-6.5254,10.229
2.828000,-4.9556,-4.8084,-6.9586,9.803
2.829000,-4.0761,-4.2167,-7.2483,9.324
2.829000,-3.1879,-3.6360,-7.4587,8.889
2.830000,-2.3680,-3.0672,-7.5606,8.496
2.831000,-1.5648,-2.5209,-7.5128,8.077
2.831000,-0.7690,-2.0171,-7.3151,7.627
2.831000,-0.0031,-1.5750,-6.9706,7.146
2.832000,0.6708,-1.2238,-6.4942,6.642
2.832000,1.2267,-0.9623,-5.9611,6.162
2.833000,1.6502,-0.7649,-5.3986,5.697
2.869000,1.8964,-0.5986,-4.8312,5.225
2.870000,1.9876,-0.4344,-4.2812,4.740
2.870000,1.9240,-0.3118,-3.7259,4.205
2.870000,1.7492,-0.2471,-3.1438,3.606
2.870000,1.5135,-0.2403,-2.5331,2.961
2.871000,1.1665,-0.3253,-1.8797,2.236
2.871000,0.7013,-0.4522,-1.2872,1.534
2.871000,0.1998,-0.6009,-0.8989,1.100
2.906000,-0.4126,-0.8365,-0.6238,1.122
2.906000,-1.1302,-1.1313,-0.4519,1.662
2.907000,-1.8758,-1.4120,-0.4278,2.386
2.907000,-2.5633,-1.6418,-0.4426,3.076
2.907000,-3.1257,-1.8058,-0.4357,3.636
2.908000,-3.5484,-1.8887,-0.4017,4.040
2.908000,-3.9065,-1.9850,-0.3001,4.392
2.940000,-4.2118,-2.1014,-0.1878,4.711
2.941000,-4.4309,-2.1875,-0.0718,4.942
2.941000,-4.5568,-2.2458,0.0744,5.081
2.942000,-4.6301,-2.2669,0.3008,5.164
2.942000,-4.5619,-2.1574,0.5785,5.079
2.942000,-4.3606,-1.9358,0.9044,4.856
2.942000,-4.1051,-1.5952,1.2064,4.566
2.974000,-3.8197,-1.2533,1.4605,4.277
2.975000,-3.5115,-0.9484,1.7049,4.017
2.975000,-3.1329,-0.7141,1.9514,3.759
2.976000,-2.6887,-0.5220,2.2092,3.519
2.976000,-2.2232,-0.3499,2.4340,3.315
2.976000,-1.7769,-0.2073,2.5675,3.129
2.977000,-1.3688,-0.0303,2.5780,2.919
3.003000,-1.0373,0.1789,2.4273,2.646
3.004000,-0.7587,0.3868,2.1615,2.323
3.004000,-0.4944,0.5659,1.8034,1.954
3.004000,-0.1930,0.7637,1.4545,1.654
3.005000,0.1264,0.9473,1.1752,1.515
3.038000,0.4777,1.1194,0.9923,1.570
3.038000,0.8344,1.2916,0.8886,1.776
3.039000,1.1628,1.4351,0.8399,2.029
3.039000,1.4586,1.5500,0.8124,2.278
3.039000,1.7016,1.6430,0.7767,2.490
3.039000,1.9021,1.7190,0.7258,2.665
3.040000,2.0815,1.7617,0.6813,2.811
3.067000,2.2231,1.7925,0.6505,2.929
3.067000,2.3722,1.7974,0.6526,3.047
3.068000,2.5171,1.7573,0.6925,3.147
3.068000,2.6426,1.6744,0.7314,3.213
3.068000,2.7398,1.5752,0.7789,3.255
3.068000,2.8065,1.4551,0.8230,3.267
3.098000,2.8713,1.2998,0.8182,3.256
3.099000,2.8818,1.1383,0.8175,3.204
3.099000,2.8813,0.9971,0.7850,3.148
3.099000,2.8741,0.8737,0.7400,3.094
3.099000,2.8750,0.7493,0.6829,3.049
3.099000,2.8720,0.6216,0.6041,3.000
3.134000,2.8460,0.4859,0.4802,2.927
3.136000,2.7946,0.3523,0.2949,2.832
3.136000,2.7398,0.2641,0.1014,2.754
3.136000,2.7124,0.2284,-0.0689,2.723
3.136000,2.7177,0.2505,-0.2374,2.740
3.137000,2.7509,0.3232,-0.4108,2.800
3.137000,2.7451,0.4372,-0.5837,2.840
3.137000,2.7814,0.5805,-0.7129,2.929
3.170000,2.8431,0.7509,-0.7669,3.039
3.171000,2.9202,0.9363,-0.7291,3.152
3.171000,3.0153,1.1414,-0.5973,3.279
3.171000,3.1018,1.3492,-0.3861,3.405
3.171000,3.1820,1.5285,-0.0792,3.531
3.172000,3.2750,1.6597,0.2819,3.682
3.172000,3.4001,1.7667,0.7062,3.896
3.207000,3.5163,1.8178,1.1375,4.119
3.207000,3.6070,1.8226,1.5348,4.323
3.208000,3.6722,1.8458,1.8721,4.516
3.208000,3.7024,1.8395,2.2068,4.686
3.208000,3.7194,1.8014,2.5553,4.859
3.208000,3.7424,1.6979,2.8983,5.029
3.208000,3.6971,1.5265,3.2422,5.149
3.253000,3.6052,1.2657,3.6277,5.269
3.253000,3.5051,0.9348,4.0042,5.403
3.254000,3.3517,0.5410,4.3714,5.535
3.254000,3.1481,0.1538,4.6380,5.608
3.254000,3.0455,-0.1620,4.7111,5.612
3.254000,2.8672,-0.5115,4.8777,5.681
3.255000,2.6907,-0.7987,5.0566,5.783
3.255000,2.6121,-0.9520,5.1421,5.846
3.255000,2.6454,-1.0026,5.1750,5.898
3.306000,2.7377,-1.0271,5.1965,5.963
3.307000,2.8934,-1.0424,5.2303,6.068
3.307000,3.0907,-1.0701,5.2647,6.198
3.308000,3.3460,-1.0815,5.2851,6.348
3.308000,3.6227,-1.0721,5.2463,6.465
3.308000,3.8893,-1.0707,5.2583,6.627
3.309000,4.1286,-1.0703,5.3114,6.812
3.309000,4.3230,-1.0473,5.3333,6.945
3.309000,4.4653,-0.9901,5.3192,7.015
3.310000,4.5816,-0.9107,5.2685,7.041
3.310000,4.6743,-0.7710,5.1647,7.008
3.350000,4.7767,-0.5950,4.9745,6.922
3.351000,4.9028,-0.3898,4.7292,6.823
3.351000,5.0332,-0.2079,4.4632,6.730
3.351000,5.1603,-0.0446,4.2077,6.659
3.352000,5.2744,0.1074,3.9967,6.618
3.352000,5.3683,0.2601,3.7990,6.582
3.352000,5.4086,0.3992,3.6076,6.514
3.352000,5.3714,0.5176,3.3867,6.371
3.353000,5.3314,0.6275,3.1607,6.230
3.389000,5.2481,0.7410,2.9253,6.054
3.389000,5.1577,0.8679,2.6853,5.879
3.390000,5.0744,0.9891,2.4722,5.731
3.390000,4.9725,1.0808,2.3030,5.585
3.390000,4.8688,1.1553,2.1966,5.465
3.390000,4.7832,1.1791,2.1435,5.373
3.391000,4.7540,1.1642,2.1576,5.349
3.427000,4.7312,1.0841,2.2024,5.330
3.428000,4.7409,0.9652,2.2703,5.344
3.429000,4.7521,0.8024,2.3560,5.364
3.429000,4.7650,0.6364,2.4351,5.389
3.429000,4.7919,0.4623,2.4407,5.397
3.429000,4.8204,0.2609,2.3920,5.388
3.429000,4.8195,0.0468,2.3011,5.341
3.430000,4.8203,-0.1610,2.1684,5.288
3.463000,4.7916,-0.3648,1.9964,5.204
3.464000,4.7506,-0.5235,1.7742,5.098
3.465000,4.7137,-0.6322,1.5332,4.997
3.465000,4.5205,-0.6933,1.3267,4.762
3.465000,4.3102,-0.7042,1.2100,4.532
3.466000,4.0899,-0.6554,1.1638,4.303
3.466000,3.8838,-0.5685,1.1615,4.093
3.500000,3.7114,-0.4362,1.2005,3.925
3.501000,3.5677,-0.2326,1.2350,3.783
3.501000,3.4454,0.0014,1.2670,3.671
3.501000,3.3324,0.2703,1.2939,3.585
3.501000,3.2262,0.5549,1.3371,3.536
3.502000,3.1214,0.8260,1.3985,3.519
3.502000,3.0165,1.0647,1.4804,3.525
3.503000,2.9275,1.2802,1.5657,3.558
3.536000,2.8424,1.4770,1.6660,3.611
3.536000,2.7611,1.6429,1.7379,3.653
3.537000,2.6645,1.7968,1.8001,3.684
3.537000,2.5573,1.9097,1.8331,3.681
3.537000,2.4378,1.9939,1.8227,3.639
3.538000,2.2961,2.0394,1.7590,3.539
3.538000,2.1226,2.0679,1.6473,3.390
3.575000,1.9219,2.0672,1.5310,3.211
3.576000,1.7133,2.0257,1.4244,3.011
3.576000,1.5256,1.9549,1.3083,2.804
3.576000,1.3691,1.8485,1.1758,2.583
3.577000,1.2629,1.7491,1.0101,2.382
3.577000,1.1708,1.6234,0.7996,2.155
3.577000,1.0641,1.5048,0.5804,1.932
3.578000,0.9404,1.3600,0.3675,1.694
3.611000,0.7778,1.1696,0.1703,1.415
3.611000,0.5607,0.9611,-0.0078,1.113
3.612000,0.3149,0.7342,-0.1741,0.818
3.612000,0.0807,0.5319,-0.3113,0.622
3.612000,-0.1133,0.3303,-0.4027,0.533
3.612000,-0.2837,0.1101,-0.4675,0.558
3.648000,-0.4521,-0.1195,-0.5589,0.729
3.648000,-0.5935,-0.3549,-0.7238,1.001
3.648000,-0.7157,-0.5845,-0.9194,1.304
3.649000,-0.8401,-0.8033,-1.1043,1.603
3.649000,-1.0095,-1.0087,-1.3122,1.939
3.649000,-1.2214,-1.2052,-1.5379,2.304
3.649000,-1.4588,-1.4166,-1.7217,2.664
3.650000,-1.6825,-1.6226,-1.8392,2.974
3.680000,-1.8736,-1.8284,-1.8861,3.227
3.681000,-2.0536,-2.0268,-1.9297,3.471
3.681000,-2.0954,-2.2296,-1.9915,3.651
3.682000,-2.4559,-2.4128,-2.0667,4.015
3.682000,-2.6399,-2.5742,-2.1628,4.275
3.682000,-2.8145,-2.7151,-2.2549,4.514
3.682000,-2.9299,-2.8358,-2.3363,4.699
3.710000,-3.0818,-2.9652,-2.4523,4.930
3.711000,-3.2439,-3.0909,-2.6148,5.188
3.711000,-3.3969,-3.1911,-2.7733,5.423
3.711000,-3.5269,-3.2803,-2.8896,5.617
3.712000,-3.6382,-3.3552,-2.9824,5.778
3.724000,-3.7408,-3.4329,-3.1115,5.955
3.725000,-3.8135,-3.4891,-3.2433,6.102
3.725000,-3.8726,-3.5548,-3.3611,6.239
3.767000,-3.8899,-3.6206,-3.4316,6.326
3.768000,-3.8438,-3.6858,-3.4378,6.339
3.768000,-3.7586,-3.7392,-3.4254,6.312
3.769000,-3.6753,-3.7953,-3.4256,6.297
3.769000,-3.6131,-3.8687,-3.4147,6.299
3.769000,-3.5619,-3.9498,-3.3571,6.290
3.770000,-3.4693,-4.0605,-3.2678,6.261
3.770000,-3.3780,-4.2052,-3.1634,6.253
3.770000,-3.2883,-4.4035,-3.0753,6.298
3.803000,-3.2455,-4.6435,-3.0013,6.411
3.804000,-3.2379,-4.8939,-2.9434,6.565
3.805000,-3.2415,-5.1884,-2.8564,6.752
3.805000,-3.2226,-5.5080,-2.8243,6.979
3.805000,-3.1785,-5.8396,-2.8827,7.247
3.806000,-3.0975,-6.1454,-2.9740,7.497
3.806000,-2.9964,-6.4202,-3.0526,7.715
3.841000,-2.9013,-6.6687,-3.1785,7.937
3.842000,-2.8219,-6.8644,-3.3323,8.136
3.843000,-2.7488,-7.0146,-3.4516,8.287
3.843000,-2.6868,-7.1452,-3.5650,8.425
3.843000,-2.6715,-7.2513,-3.7850,8.605
3.844000,-2.6720,-7.2731,-3.7957,8.628
3.844000,-2.6335,-7.2679,-3.9389,8.676
3.844000,-2.5779,-7.2453,-4.0565,8.695
3.875000,-2.5793,-7.2890,-4.1581,8.779
3.876000,-2.6067,-7.3861,-4.2455,8.909
3.877000,-2.5958,-7.4912,-4.2683,9.004
3.877000,-2.5756,-7.5520,-4.2744,9.052
3.877000,-2.5966,-7.5830,-4.2995,9.096
3.878000,-2.6562,-7.5699,-4.3294,9.116
3.878000,-2.6992,-7.5339,-4.3497,9.109
3.909000,-2.7182,-7.5110,-4.3390,9.090
3.910000,-2.7510,-7.5417,-4.3169,9.115
3.910000,-2.8046,-7.6162,-4.3026,9.186
3.910000,-2.8713,-7.6745,-4.2724,9.241
3.910000,-2.9602,-7.6828,-4.2623,9.271
3.911000,-3.0445,-7.5860,-4.2941,9.233
3.945000,-3.1217,-7.3915,-4.3606,9.132
3.946000,-3.1723,-7.1255,-4.4619,8.986
3.946000,-3.1624,-6.7903,-4.5862,8.783
3.946000,-2.9842,-6.4361,-4.7287,8.526
3.947000,-2.7928,-6.0535,-4.8157,8.224
3.947000,-2.4876,-5.5177,-5.0118,7.858
3.947000,-2.1131,-4.8563,-5.2806,7.479
3.971000,-1.7201,-4.1433,-5.4680,7.073
3.972000,-1.3160,-3.4126,-5.5525,6.649
3.972000,-0.9010,-2.6577,-5.5536,6.222
3.973000,-0.4439,-1.9097,-5.4999,5.839
3.973000,-0.0006,-1.2135,-5.3801,5.515
3.973000,0.4716,-0.6075,-5.1891,5.246
4.003000,0.9412,-0.0684,-4.9178,5.008
4.004000,1.3815,0.4005,-4.6025,4.822
4.004000,1.7919,0.7984,-4.2554,4.686
4.005000,2.1770,1.1201,-3.8816,4.589
4.005000,2.5150,1.3652,-3.4837,4.508
4.005000,2.8195,1.5517,-3.1006,4.469
4.030000,3.0568,1.7034,-2.7274,4.437
4.031000,3.1688,1.7792,-2.3332,4.319
4.032000,3.1652,1.7694,-1.9181,4.102
4.032000,3.0274,1.6911,-1.4944,3.776
4.032000,2.7604,1.5198,-1.0679,3.327
4.065000,2.4055,1.2798,-0.6651,2.805
4.066000,1.9773,0.9737,-0.3365,2.230
4.066000,1.4858,0.6425,-0.0701,1.620
4.066000,0.9338,0.2987,0.1175,0.987
4.067000,0.3405,-0.0452,0.2461,0.423
4.067000,-0.2724,-0.3580,0.3274,0.556
4.067000,-0.8711,-0.6440,0.3406,1.136
4.102000,-1.4554,-0.8929,0.3050,1.734
4.103000,-2.0152,-1.1066,0.2090,2.309
4.103000,-2.5528,-1.2677,0.0747,2.851
4.103000,-3.0703,-1.3828,-0.0375,3.368
4.104000,-3.5126,-1.4446,-0.1419,3.801
4.104000,-3.8840,-1.4548,-0.2574,4.155
4.104000,-4.1728,-1.4181,-0.4004,4.425
4.104000,-4.3812,-1.3414,-0.5300,4.613
4.133000,-4.5093,-1.2414,-0.6580,4.723
4.134000,-4.5690,-1.1201,-0.7768,4.768
4.134000,-4.5413,-0.9898,-0.8700,4.729
4.135000,-4.4191,-0.8503,-0.9492,4.599
4.135000,-4.1887,-0.6995,-0.9713,4.356
4.135000,-3.8645,-0.5473,-0.9485,4.017
4.163000,-3.4828,-0.3775,-0.8691,3.609
4.164000,-3.0961,-0.1998,-0.7911,3.202
4.164000,-2.7265,-0.0127,-0.7316,2.823
4.164000,-2.3670,0.1859,-0.7051,2.477
4.164000,-2.0822,0.3674,-0.7017,2.228
4.165000,-1.8480,0.5081,-0.6666,2.029
4.198000,-1.6352,0.6318,-0.6023,1.854
4.199000,-1.4605,0.7292,-0.5208,1.713
4.199000,-1.3213,0.7948,-0.4281,1.600
4.199000,-1.2123,0.8193,-0.3434,1.503
4.200000,-1.1210,0.8268,-0.2957,1.424
4.200000,-1.0282,0.8461,-0.2899,1.363
4.200000,-0.9072,0.8821,-0.2996,1.300
4.230000,-0.7508,0.9326,-0.2935,1.233
4.231000,-0.5594,0.9901,-0.2982,1.176
4.231000,-0.3640,1.0450,-0.2944,1.145
4.232000,-0.1695,1.0905,-0.2747,1.137
4.232000,0.0144,1.1357,-0.2391,1.161
4.232000,0.1877,1.1761,-0.1972,1.207
4.269000,0.2234,1.2213,-0.1343,1.249
4.269000,0.5037,1.2634,-0.0578,1.361
4.269000,0.6432,1.2955,0.0204,1.447
4.270000,0.7713,1.3032,0.0957,1.517
4.270000,0.8900,1.3272,0.1658,1.607
4.270000,0.9921,1.3627,0.2333,1.702
4.270000,1.0992,1.4194,0.2913,1.819
4.270000,1.2034,1.4657,0.3611,1.931
4.305000,1.3071,1.5067,0.4503,2.045
4.306000,1.4101,1.5494,0.5421,2.164
4.307000,1.4860,1.5795,0.6511,2.264
4.307000,1.5655,1.5920,0.8033,2.373
4.307000,1.6417,1.5825,0.9704,2.478
4.308000,1.7022,1.5431,1.1062,2.550
4.308000,1.7376,1.4958,1.1703,2.574
4.336000,1.7409,1.4815,1.2325,2.597
4.338000,1.7957,1.5071,1.2833,2.673
4.338000,1.8351,1.5324,1.3374,2.739
4.338000,1.8970,1.5713,1.3873,2.827
4.339000,1.9241,1.6072,1.4644,2.903
4.339000,1.9213,1.6306,1.6188,2.995
4.339000,1.9125,1.6199,1.8287,3.103
4.377000,1.8929,1.5726,2.0864,3.226
4.378000,1.8315,1.4456,2.3513,3.313
4.378000,1.7476,1.2819,2.6297,3.408
4.379000,1.6917,1.1270,2.8951,3.537
4.379000,1.6905,0.9904,3.1255,3.689
4.379000,1.6767,0.8577,3.3184,3.816
4.379000,1.6744,0.6931,3.4763,3.920
4.380000,1.7029,0.4967,3.5971,4.011
4.411000,1.7384,0.2854,3.7020,4.100
4.412000,1.7955,0.0713,3.7864,4.191
4.412000,1.8604,-0.1381,3.8478,4.276
4.412000,1.9209,-0.3119,3.9104,4.368
4.413000,1.9820,-0.4762,3.9621,4.456
4.413000,2.0583,-0.6166,4.0104,4.550
4.446000,2.1375,-0.7476,4.0409,4.632
4.447000,2.2392,-0.8785,4.0751,4.732
4.448000,2.3274,-1.0235,4.1542,4.870
4.448000,2.4308,-1.1588,4.2875,5.063
4.448000,2.5612,-1.3083,4.4511,5.299
4.449000,2.7115,-1.4265,4.5804,5.511
4.449000,2.8402,-1.5307,4.6633,5.671
4.449000,2.9782,-1.6471,4.8531,5.928
4.484000,3.0995,-1.7329,5.0893,6.206
4.485000,3.2229,-1.7835,5.2661,6.426
4.486000,3.3267,-1.8398,5.3689,6.578
4.486000,3.4278,-1.9089,5.4098,6.683
4.486000,3.5498,-1.9575,5.3818,6.738
4.487000,3.6543,-1.9710,5.3115,6.742
4.487000,3.7583,-1.9232,5.1848,6.686
4.519000,3.8710,-1.8092,5.0236,6.595
4.521000,3.9900,-1.6340,4.8521,6.491
4.522000,4.1081,-1.3973,4.6849,6.386
4.522000,4.1937,-1.1068,4.5268,6.269
4.522000,4.2686,-0.7933,4.3921,6.176
4.523000,4.3257,-0.4260,4.2497,6.079
4.523000,4.3717,-0.0097,4.1066,5.998
4.559000,4.3825,0.4219,3.9654,5.925
4.560000,4.3703,0.8593,3.8428,5.883
4.560000,4.3802,1.3262,3.7672,5.928
4.561000,4.4265,1.7794,3.7119,6.045
4.561000,4.5044,2.2045,3.6550,6.205
4.561000,4.6303,2.5797,3.6226,6.420
4.561000,4.7871,2.8620,3.6194,6.649
4.562000,4.9885,3.0631,3.6282,6.887
4.599000,5.1625,3.1589,3.6415,7.063
4.600000,5.2993,3.1493,3.6304,7.154
4.601000,5.3773,3.0226,3.5783,7.131
4.601000,5.3583,2.7955,3.4829,6.975
4.601000,5.3885,2.4944,3.3609,6.823
4.602000,5.3028,2.1602,3.2104,6.565
4.602000,5.1497,1.7981,2.9914,6.221
4.602000,4.9654,1.3988,2.7471,5.845
4.639000,4.8031,0.9934,2.4899,5.501
4.640000,4.6346,0.6089,2.2204,5.175
4.641000,4.4766,0.2574,1.9251,4.880
4.641000,4.2933,-0.0370,1.6737,4.608
4.641000,4.0517,-0.2620,1.4381,4.307
4.642000,3.7955,-0.4294,1.2377,4.015
4.642000,3.5610,-0.5150,1.1058,3.764
4.642000,3.3749,-0.5261,1.0421,3.571
4.678000,3.2228,-0.4341,1.0178,3.407
4.680000,3.0762,-0.2651,1.0546,3.263
4.680000,2.9082,-0.0652,1.1903,3.143
4.681000,2.7477,0.1438,1.4121,3.093
4.681000,2.5971,0.3640,1.6760,3.112
4.681000,2.4588,0.5854,1.9189,3.173
4.682000,2.3424,0.8170,2.0946,3.247
4.682000,2.2096,1.0471,2.1865,3.280
4.719000,2.0627,1.2465,2.2304,3.284
4.719000,1.9062,1.4128,2.2334,3.258
4.720000,1.7477,1.5342,2.1907,3.195
4.720000,1.6015,1.6178,2.1074,3.102
4.720000,1.4816,1.6872,1.9998,3.007
4.720000,1.3789,1.7143,1.8807,2.894
4.720000,1.2882,1.6917,1.7570,2.758
4.721000,1.2143,1.6456,1.6122,2.604
4.755000,1.1283,1.5857,1.4561,2.431
4.756000,1.0255,1.5336,1.2795,2.245
4.756000,0.9030,1.4771,1.1136,2.059
4.756000,0.7636,1.4337,0.9473,1.880
4.756000,0.6145,1.3622,0.7827,1.687
4.756000,0.4721,1.2868,0.6320,1.509
4.756000,0.3224,1.1859,0.4738,1.317
4.797000,0.1795,1.0501,0.2915,1.104
4.798000,0.0410,0.9054,0.0898,0.911
4.798000,-0.0880,0.7768,-0.1302,0.793
4.799000,-0.2174,0.6329,-0.3518,0.756
4.799000,-0.3089,0.5025,-0.5483,0.805
4.799000,-0.3864,0.3715,-0.6934,0.876
4.799000,-0.4955,0.2279,-0.8564,1.015
4.799000,-0.5981,0.0857,-1.0231,1.188
4.800000,-0.6792,-0.0325,-1.1617,1.346
4.840000,-0.7629,-0.1606,-1.2582,1.480
4.840000,-0.8419,-0.2724,-1.3104,1.581
4.841000,-0.9209,-0.3942,-1.3235,1.660
4.841000,-1.0355,-0.5262,-1.3170,1.756
4.841000,-1.1761,-0.6760,-1.2891,1.871
4.842000,-1.4086,-0.9286,-1.2753,2.115
4.842000,-1.4438,-0.9975,-1.3213,2.197
4.842000,-1.5280,-1.1553,-1.3531,2.345
4.877000,-1.6204,-1.2919,-1.4449,2.526
4.878000,-1.7232,-1.4240,-1.5679,2.730
4.878000,-1.7981,-1.5636,-1.6863,2.919
4.879000,-1.8641,-1.7169,-1.7922,3.104
4.879000,-1.9167,-1.8701,-1.8883,3.277
4.879000,-1.9870,-2.0087,-2.0079,3.466
4.879000,-2.0201,-2.1278,-2.1126,3.615
4.880000,-2.0450,-2.2610,-2.1975,3.758
4.920000,-2.0379,-2.4302,-2.2653,3.898
4.921000,-2.0131,-2.6320,-2.3536,4.064
4.921000,-1.9923,-2.8452,-2.4601,4.256
4.921000,-2.0020,-3.0265,-2.5750,4.450
4.922000,-2.0041,-3.1737,-2.6669,4.604
4.922000,-2.0229,-3.2729,-2.7100,4.706
4.922000,-2.0317,-3.3666,-2.7518,4.799
4.922000,-2.0228,-3.4526,-2.8241,4.898
4.958000,-1.9389,-3.5524,-2.8934,4.975
4.959000,-1.8590,-3.6608,-3.0358,5.106
4.959000,-1.8767,-3.8304,-3.1290,5.290
4.960000,-1.9183,-4.0349,-3.1848,5.487
4.960000,-1.9435,-4.2928,-3.1093,5.646
4.960000,-1.9306,-4.5857,-3.0061,5.813
4.960000,-1.8849,-4.8853,-2.9544,6.012
4.961000,-1.8351,-5.1607,-2.9971,6.244
5.006000,-1.8436,-5.4715,-3.1578,6.581
5.006000,-1.8647,-5.7979,-3.4098,6.980
5.007000,-1.8623,-6.0691,-3.6851,7.340
5.007000,-1.9276,-6.3394,-3.9260,7.702
5.008000,-2.0004,-6.5557,-4.1274,8.001
5.008000,-2.0499,-6.6986,-4.2628,8.200
5.008000,-2.0929,-6.7850,-4.3181,8.310
5.009000,-2.1247,-6.8489,-4.3008,8.362
5.009000,-2.1997,-6.8613,-4.2616,8.371
5.043000,-2.3083,-6.8656,-4.2367,8.391
5.044000,-2.4193,-6.8570,-4.2141,8.404
5.045000,-2.4920,-6.8691,-4.1605,8.409
5.045000,-2.5622,-6.9162,-4.0785,8.428
5.045000,-2.6152,-6.9986,-3.9614,8.457
5.046000,-2.6720,-7.1041,-3.8385,8.505
5.046000,-2.7463,-7.1658,-3.8298,8.577
5.047000,-2.8930,-7.2075,-3.7989,8.646
5.082000,-3.0547,-7.2792,-3.7792,8.752
5.083000,-3.2217,-7.3808,-3.7588,8.887
5.083000,-3.4056,-7.5051,-3.7738,9.065
5.083000,-3.5963,-7.6518,-3.8365,9.285
5.084000,-3.7433,-7.7534,-4.0016,9.494
5.084000,-3.8778,-7.7709,-4.2136,9.653
5.084000,-3.9617,-7.6852,-4.4412,9.720
5.119000,-3.9566,-7.5103,-4.6816,9.694
5.121000,-3.8621,-7.2101,-4.9731,9.573
5.122000,-3.6855,-6.8445,-5.2705,9.392
5.122000,-3.3573,-6.3871,-5.5494,9.103
5.122000,-3.0021,-5.8764,-5.7812,8.773
5.123000,-2.5866,-5.2860,-6.0208,8.419
5.123000,-2.1279,-4.5662,-6.2746,8.047
5.124000,-1.6655,-3.7984,-6.3839,7.613
5.159000,-1.2048,-3.0056,-6.3179,7.099
5.160000,-0.7843,-2.2434,-6.1270,6.572
5.161000,-0.4043,-1.5654,-5.8714,6.090
5.161000,-0.0604,-0.9604,-5.5800,5.662
5.162000,0.2661,-0.4819,-5.2533,5.282
5.162000,0.5417,-0.1155,-4.9245,4.956
5.162000,0.7441,0.1396,-4.6254,4.687
5.162000,0.8684,0.3029,-4.3199,4.417
5.202000,0.9436,0.4101,-4.0249,4.154
5.203000,0.9530,0.5067,-3.7046,3.859
5.203000,0.9614,0.5834,-3.3136,3.499
5.204000,0.9855,0.6487,-2.9127,3.143
5.204000,0.9821,0.6596,-2.4732,2.742
5.204000,0.9082,0.6276,-2.0242,2.306
5.204000,0.7543,0.5094,-1.5448,1.793
5.205000,0.5543,0.3243,-1.0713,1.249
5.242000,0.2990,0.0867,-0.6086,0.684
5.243000,0.0098,-0.2111,-0.1673,0.270
5.243000,-0.3203,-0.5257,0.2172,0.653
5.243000,-0.6913,-0.7996,0.5424,1.188
5.243000,-1.0791,-0.9994,0.8083,1.678
5.243000,-1.5217,-1.1631,0.9643,2.144
5.244000,-2.0112,-1.3281,1.0161,2.616
5.244000,-2.4876,-1.4537,0.9970,3.049
5.279000,-2.9269,-1.5366,0.9988,3.453
5.281000,-3.3121,-1.5479,1.0071,3.792
5.281000,-3.6886,-1.4636,1.0221,4.098
5.281000,-3.9893,-1.2981,1.0701,4.329
5.282000,-4.2043,-1.0486,1.1199,4.475
5.282000,-4.3220,-0.7757,1.1400,4.537
5.282000,-4.3784,-0.5223,1.1138,4.548
5.283000,-4.3785,-0.2836,1.0559,4.513
5.325000,-4.2819,-0.0499,0.9667,4.390
5.327000,-4.1105,0.1906,0.8582,4.203
5.327000,-3.8883,0.4237,0.7188,3.977
5.327000,-3.6302,0.6560,0.5888,3.736
5.328000,-3.3315,0.8613,0.4350,3.468
5.328000,-3.0209,1.0229,0.2978,3.203
5.328000,-2.7224,1.1454,0.1316,2.956
5.328000,-2.4408,1.2170,-0.0657,2.728
5.329000,-2.1808,1.2907,-0.2362,2.545
5.363000,-1.9787,1.3208,-0.3563,2.406
5.364000,-1.8269,1.3219,-0.4041,2.291
5.365000,-1.6652,1.3063,-0.4039,2.155
5.365000,-1.4717,1.3146,-0.3420,2.003
5.365000,-1.2749,1.3057,-0.2622,1.844
5.366000,-1.0889,1.2798,-0.1647,1.688
5.366000,-0.9209,1.2414,-0.0955,1.549
5.366000,-0.7780,1.1786,-0.0591,1.413
5.410000,-0.6673,1.1037,-0.0409,1.290
5.410000,-0.5744,1.0144,0.0094,1.166
5.410000,-0.5016,0.9298,0.0393,1.057
5.411000,-0.4461,0.8288,0.0036,0.941
5.411000,-0.4034,0.7518,-0.0500,0.855
5.411000,-0.3613,0.6801,-0.0826,0.775
5.411000,-0.3005,0.6234,-0.0988,0.699
5.411000,-0.2020,0.5985,-0.1007,0.640
5.411000,-0.0803,0.5791,-0.0808,0.590
5.449000,0.0670,0.5894,-0.0482,0.595
5.450000,0.2389,0.6143,0.0378,0.660
5.450000,0.4640,0.6563,0.1986,0.828
5.451000,0.7205,0.7198,0.3935,1.092
5.451000,1.0010,0.8215,0.5697,1.415
5.451000,1.2785,0.9514,0.7415,1.758
5.452000,1.5431,1.0925,0.9092,2.098
5.452000,1.7581,1.2300,1.0485,2.388
5.495000,1.9787,1.3615,1.2145,2.691
5.496000,2.1590,1.4797,1.3615,2.950
5.496000,2.2895,1.5774,1.4489,3.135
5.496000,2.3819,1.6786,1.4818,3.269
5.496000,2.4506,1.7954,1.5300,3.401
5.497000,2.4736,1.9131,1.6076,3.516
5.497000,2.4512,1.9984,1.7219,3.601
5.497000,2.4411,2.0754,1.9441,3.748
5.497000,2.4792,2.1270,2.2567,3.970
5.529000,2.5440,2.1220,2.4771,4.137
5.530000,2.6120,2.0845,2.6365,4.257
5.530000,2.6827,2.0285,2.7822,4.365
5.530000,2.7468,1.9327,2.9358,4.461
5.530000,2.7877,1.8020,3.0733,4.524
5.530000,2.7840,1.6151,3.2091,4.545
5.531000,2.7434,1.3816,3.3381,4.536
5.564000,2.6877,1.0994,3.4603,4.517
5.565000,2.7056,0.8402,3.4608,4.473
5.565000,2.7493,0.4873,3.4884,4.468
5.565000,2.7307,0.0981,3.5335,4.467
5.566000,2.6812,-0.2672,3.5267,4.438
5.566000,2.6345,-0.5775,3.5020,4.420
5.567000,2.5790,-0.8493,3.4573,4.396
5.572000,2.5171,-1.0729,3.3950,4.360
5.608000,2.4850,-1.2482,3.3182,4.329
5.609000,2.5138,-1.3369,3.2701,4.336
5.609000,2.5914,-1.3438,3.2364,4.358
5.610000,2.7103,-1.3121,3.2246,4.412
5.610000,2.8559,-1.3065,3.2798,4.541
5.610000,2.9992,-1.3225,3.3921,4.717
5.611000,3.1450,-1.3291,3.5277,4.909
5.612000,3.3026,-1.2954,3.6553,5.094
5.617000,3.4668,-1.2455,3.7627,5.266
5.621000,3.6350,-1.1868,3.8451,5.423
5.652000,3.7779,-1.1531,3.8853,5.541
5.653000,3.8742,-1.1539,3.9291,5.637
5.653000,3.9668,-1.1891,4.0000,5.758
5.653000,4.0510,-1.2470,4.0499,5.862
5.654000,4.1079,-1.2820,4.0190,5.888
5.654000,4.1494,-1.2652,3.8956,5.830
5.657000,4.1778,-1.2303,3.7186,5.727
5.665000,4.1957,-1.1817,3.5195,5.602
5.668000,4.2153,-1.1384,3.2987,5.472
5.671000,4.2510,-1.0548,3.0901,5.360
5.715000,4.3170,-0.9236,2.9084,5.287
5.716000,4.4011,-0.7545,2.7705,5.255
5.716000,4.4577,-0.5189,2.6860,5.230
5.716000,4.5322,-0.2121,2.6377,5.248
5.717000,4.6246,0.2016,2.5611,5.290
5.717000,4.7297,0.6669,2.4418,5.364
5.717000,4.8521,1.1549,2.3588,5.517
5.717000,4.9697,1.5794,2.3454,5.718
5.718000,5.0391,1.9044,2.3512,5.878
5.723000,5.1299,2.1849,2.3711,6.059
5.730000,5.2487,2.4542,2.5052,6.313
5.731000,5.3690,2.6328,2.7167,6.568
5.738000,5.4043,2.6561,2.8755,6.673
5.745000,5.3500,2.5407,2.9600,6.621
5.750000,5.2376,2.3658,2.9726,6.470
5.752000,5.1530,2.1553,3.0284,6.354
5.756000,5.0439,1.8615,3.0387,6.176
5.815000,4.8771,1.4940,2.9412,5.888
5.815000,4.6892,1.0748,2.7557,5.544
5.816000,4.5426,0.6854,2.5280,5.244
5.816000,4.4211,0.3360,2.2928,4.992
5.816000,4.2864,0.0459,2.0552,4.754
5.817000,4.1103,-0.1918,1.8135,4.497
5.817000,3.8857,-0.3795,1.5632,4.206
5.817000,3.6347,-0.5216,1.3452,3.911
5.818000,3.3958,-0.5942,1.1930,3.648
5.818000,3.1771,-0.5634,1.0875,3.405
5.818000,2.9999,-0.4294,1.0166,3.196
5.818000,2.8545,-0.2450,1.0185,3.041
5.824000,2.7073,-0.0176,1.0760,2.913
5.838000,2.5750,0.2239,1.1624,2.834
5.839000,2.4644,0.4814,1.2724,2.815
5.839000,2.3802,0.7621,1.4010,2.865
5.845000,2.2860,1.0485,1.5211,2.939
5.848000,2.1698,1.3069,1.6274,3.011
5.853000,2.0267,1.5321,1.7005,3.057
5.856000,1.8804,1.7289,1.7400,3.091
5.918000,1.7149,1.8973,1.7365,3.091
5.919000,1.5513,2.0278,1.7020,3.068
5.919000,1.3776,2.1250,1.6627,3.030
5.919000,1.1868,2.1770,1.6114,2.957
5.920000,0.9985,2.1718,1.5288,2.837
5.920000,0.8388,2.1215,1.4100,2.682
5.920000,0.7036,2.0242,1.2583,2.485
5.920000,0.6114,1.8846,1.0786,2.256
5.921000,0.5193,1.7340,0.8618,2.005
5.921000,0.4202,1.5894,0.6323,1.761
5.921000,0.2997,1.4629,0.3858,1.542
5.922000,0.1626,1.3475,0.1510,1.366
5.922000,-0.0027,1.2365,-0.0567,1.238
5.929000,-0.1846,1.1109,-0.2180,1.147
5.932000,-0.3616,0.9992,-0.3090,1.107
5.937000,-0.5362,0.8918,-0.3682,1.104
5.942000,-0.6988,0.7815,-0.3930,1.120
5.948000,-0.8497,0.6943,-0.4057,1.170
5.952000,-0.9644,0.6139,-0.4343,1.223
5.960000,-1.0719,0.5400,-0.4913,1.297
5.963000,-1.1652,0.4390,-0.5717,1.370
5.967000,-1.2370,0.3183,-0.6587,1.437
5.972000,-1.2992,0.1682,-0.7619,1.515
6.053000,-1.3520,-0.0017,-0.8838,1.615
6.054000,-1.4213,-0.1765,-1.0047,1.749
6.055000,-1.5069,-0.3659,-1.1082,1.906
6.055000,-1.6089,-0.5697,-1.1797,2.075
6.055000,-1.6985,-0.7733,-1.2553,2.249
6.056000,-1.7374,-1.0031,-1.3059,2.394
6.056000,-1.8550,-1.2305,-1.3509,2.604
6.056000,-1.9312,-1.4380,-1.4112,2.791
6.057000,-1.9950,-1.6329,-1.4822,2.974
6.057000,-2.0561,-1.8011,-1.5687,3.152
6.057000,-2.1361,-1.9543,-1.6606,3.338
6.057000,-2.2255,-2.1117,-1.7438,3.529
6.058000,-2.3078,-2.2664,-1.8255,3.714
6.058000,-2.3750,-2.4246,-1.9077,3.893
6.059000,-2.4037,-2.5985,-2.0312,4.081
6.059000,-2.4607,-2.7352,-2.1622,4.268
6.059000,-2.4958,-2.8132,-2.3222,4.420
6.063000,-2.4617,-2.8185,-2.4442,4.470
6.068000,-2.4346,-2.8201,-2.5210,4.498
6.073000,-2.4313,-2.8376,-2.5722,4.536
6.078000,-2.3562,-2.8902,-2.6338,4.565
6.083000,-2.2306,-2.9587,-2.6534,4.557
6.090000,-2.1215,-3.0672,-2.6890,4.598
6.095000,-2.0290,-3.2304,-2.7359,4.694
6.098000,-1.9245,-3.4000,-2.7435,4.774
6.152000,-1.8534,-3.6290,-2.7431,4.912
6.153000,-1.8301,-3.9149,-2.7469,5.121
6.153000,-1.8328,-4.2193,-2.7621,5.366
6.153000,-1.8542,-4.5109,-2.7767,5.612
6.154000,-1.8824,-4.7853,-2.7980,5.854
6.154000,-1.9383,-5.0345,-2.8236,6.089
6.154000,-2.0195,-5.2776,-2.8490,6.328
6.155000,-2.0993,-5.5312,-2.8623,6.572
6.155000,-2.1749,-5.7854,-2.8756,6.817
6.155000,-2.2343,-6.0089,-2.8985,7.036
6.156000,-2.3110,-6.1996,-2.9194,7.232
6.160000,-2.4454,-6.3331,-2.9405,7.398
6.164000,-2.5920,-6.4120,-2.9859,7.533
6.168000,-2.7458,-6.3979,-3.0749,7.611
6.172000,-2.8662,-6.3144,-3.2069,7.640
6.177000,-2.9102,-6.2212,-3.3673,7.649
6.182000,-2.8833,-6.1446,-3.4959,7.635
6.187000,-2.8570,-6.1775,-3.5447,7.674
6.238000,-2.8486,-6.2938,-3.5400,7.763
6.239000,-2.8819,-6.4408,-3.5129,7.882
6.239000,-2.9500,-6.5610,-3.5062,8.003
6.240000,-3.0913,-6.6209,-3.5124,8.107
6.240000,-3.2722,-6.6395,-3.5218,8.197
6.240000,-3.4637,-6.7002,-3.5177,8.323
6.241000,-3.6295,-6.7787,-3.4953,8.446
6.241000,-3.7407,-6.8817,-3.4596,8.563
6.242000,-3.8115,-6.9375,-3.4395,8.631
6.242000,-3.8846,-6.8981,-3.4472,8.635
6.242000,-3.9648,-6.7659,-3.4943,8.585
6.249000,-4.0376,-6.5194,-3.5787,8.462
6.253000,-4.0621,-6.1634,-3.7051,8.259
6.258000,-4.0046,-5.7171,-3.8616,7.977
6.263000,-3.8605,-5.2142,-4.0385,7.642
6.268000,-3.6109,-4.6787,-4.2141,7.259
6.273000,-3.2826,-4.1229,-4.3713,6.847
6.278000,-2.9240,-3.5166,-4.5053,6.420
6.282000,-2.6145,-2.9081,-4.6136,6.048
6.287000,-2.3139,-2.2928,-4.7078,5.725
6.342000,-1.9961,-1.7146,-4.7426,5.424
6.343000,-1.6590,-1.1999,-4.7826,5.202
6.343000,-1.3051,-0.7390,-4.8131,5.041
6.344000,-0.9450,-0.3284,-4.7766,4.880
6.344000,-0.5790,0.0247,-4.6541,4.690
6.344000,-0.2051,0.3104,-4.4696,4.485
6.345000,0.1240,0.5233,-4.2378,4.272
6.345000,0.3889,0.6775,-3.9805,4.056
6.345000,0.5510,0.7848,-3.6854,3.808
6.346000,0.6124,0.8060,-3.3200,3.471
6.346000,0.5494,0.7604,-2.8844,3.033
6.350000,0.3816,0.6240,-2.3888,2.498
6.354000,0.1237,0.4710,-1.8434,1.907
6.358000,-0.2930,0.3038,-1.2609,1.330
6.363000,-0.6861,0.2181,-0.8885,1.144
6.368000,-1.0080,0.0491,-0.5891,1.169
6.373000,-1.4375,-0.2673,-0.0998,1.466
6.380000,-1.8658,-0.5631,0.3938,1.988
6.385000,-2.2185,-0.7475,0.8053,2.476
6.390000,-2.5482,-0.8705,1.1637,2.933
6.394000,-2.8670,-0.9399,1.4302,3.339
6.398000,-3.1822,-0.9673,1.5504,3.670
6.402000,-3.4842,-0.9573,1.5607,3.936
6.446000,-3.7607,-0.9310,1.4855,4.149
6.447000,-3.9637,-0.8734,1.3659,4.282
6.447000,-4.0690,-0.7720,1.1856,4.308
6.448000,-4.1177,-0.6368,0.9832,4.281
6.448000,-4.1505,-0.4888,0.8023,4.256
6.448000,-4.1365,-0.3424,0.6288,4.198
6.448000,-4.0949,-0.1952,0.4748,4.127
6.449000,-4.0234,-0.0783,0.3477,4.039
6.449000,-3.9219,0.0397,0.2067,3.928
6.455000,-3.7905,0.1511,0.0302,3.794
6.458000,-3.6507,0.2731,-0.1816,3.665
6.464000,-3.4956,0.4079,-0.4043,3.542
6.470000,-3.2967,0.5387,-0.5804,3.390
6.473000,-3.0588,0.6369,-0.6931,3.200
6.480000,-2.8347,0.6850,-0.7480,3.011
6.483000,-2.6238,0.7193,-0.7624,2.825
6.489000,-2.4377,0.7612,-0.7704,2.667
6.494000,-2.2453,0.8132,-0.7504,2.503
6.499000,-2.0345,0.8345,-0.6858,2.303
6.503000,-1.7981,0.8325,-0.5790,2.064
6.577000,-1.5511,0.7848,-0.4592,1.798
6.578000,-1.3243,0.7370,-0.3387,1.553
6.578000,-1.1297,0.6914,-0.2463,1.347
6.578000,-0.9530,0.6550,-0.1846,1.171
6.578000,-0.8085,0.6159,-0.1580,1.029
6.578000,-0.6887,0.5481,-0.1616,0.895
6.579000,-0.6037,0.4609,-0.1687,0.778
6.579000,-0.5222,0.3404,-0.1838,0.650
6.579000,-0.4415,0.2107,-0.1992,0.528
6.579000,-0.3619,0.0600,-0.1716,0.405
6.580000,-0.2928,-0.0782,-0.1750,0.350
6.580000,-0.1959,-0.2107,-0.1824,0.341
6.580000,-0.0578,-0.3453,-0.1506,0.381
6.580000,0.1532,-0.4099,-0.0750,0.444
6.580000,0.4009,-0.4071,0.0325,0.572
6.583000,0.6849,-0.3491,0.1506,0.783
6.590000,0.9999,-0.2720,0.2650,1.070
6.595000,1.2978,-0.1784,0.3521,1.357
6.599000,1.5586,-0.0761,0.4067,1.613
6.603000,1.7899,0.0520,0.4362,1.843
6.611000,1.9987,0.2153,0.4360,2.057
6.616000,2.1752,0.4281,0.4208,2.257
6.618000,2.3338,0.6499,0.4336,2.461
6.623000,2.4866,0.8544,0.4987,2.676
6.672000,2.6447,1.0506,0.6202,2.913
6.673000,2.8013,1.2171,0.8002,3.157
6.673000,2.9393,1.3680,0.9857,3.389
6.673000,3.0421,1.5153,1.1788,3.597
6.673000,3.1144,1.6469,1.3720,3.781
6.674000,3.1805,1.7772,1.5818,3.972
6.674000,3.2279,1.9011,1.8054,4.159
6.675000,3.2763,2.0188,2.0163,4.345
6.675000,3.3086,2.0968,2.1882,4.487
6.675000,3.2891,2.1111,2.3402,4.555
6.679000,3.2896,2.0860,2.5845,4.675
6.684000,3.3295,2.0094,2.8729,4.835
6.689000,3.3749,1.8977,3.0539,4.931
6.694000,3.3877,1.7393,3.1710,4.955
6.699000,3.4397,1.5582,3.3389,5.041
6.703000,3.5287,1.3616,3.4786,5.139
6.709000,3.6115,1.1520,3.5136,5.169
6.714000,3.6429,0.9465,3.4545,5.109
6.719000,3.6393,0.7213,3.4404,5.060
6.723000,3.6678,0.5100,3.4788,5.081
6.730000,3.6735,0.3030,3.5767,5.136
6.733000,3.6638,0.2007,3.6213,5.155
6.739000,3.7508,0.1195,3.5941,5.196
6.794000,3.7910,0.0070,3.6655,5.273
6.795000,3.8084,-0.0604,3.7492,5.345
6.796000,3.8031,-0.0492,3.8213,5.392
6.796000,3.7873,0.0285,3.8763,5.419
6.796000,3.8066,0.1652,3.8925,5.447
6.796000,3.9088,0.3491,3.8768,5.516
6.797000,4.1007,0.4843,3.8462,5.643
6.797000,4.3217,0.4892,3.8437,5.804
6.798000,4.5478,0.3402,3.9266,6.018
6.798000,4.7498,0.1208,4.1299,6.295
6.798000,4.9422,-0.0832,4.3593,6.591
6.800000,5.0917,-0.2433,4.4539,6.769
6.805000,5.1932,-0.3189,4.4544,6.849
6.809000,5.2513,-0.3054,4.4352,6.880
6.815000,5.2589,-0.2580,4.4059,6.865
6.819000,5.2063,-0.2102,4.4049,6.823
6.825000,5.0388,-0.1931,4.3651,6.669
6.829000,4.7762,-0.2254,4.2295,6.384
6.837000,4.4670,-0.2732,4.0491,6.035
6.840000,4.1525,-0.3099,3.8725,5.686
6.845000,3.8401,-0.2968,3.6834,5.329
6.850000,3.5829,-0.2291,3.5275,5.033
6.854000,3.3832,-0.3148,3.5173,4.890
6.916000,3.3888,-0.6733,3.7648,5.110
6.916000,3.5391,-0.2532,3.5027,4.986
6.917000,3.6377,0.2341,3.3361,4.941
6.917000,3.6008,0.6093,3.2678,4.901
6.918000,3.5031,0.9755,3.1065,4.783
6.918000,3.5429,1.3447,2.9175,4.782
6.918000,3.6041,1.5921,2.8276,4.850
6.919000,3.6079,1.6176,2.8345,4.865
6.919000,3.5477,1.4692,2.8682,4.793
6.919000,3.4646,1.2785,2.8661,4.675
6.920000,3.4115,1.1986,2.7850,4.564
6.920000,4.0014,2.3050,2.3841,5.197
6.920000,4.4013,2.7418,1.7402,5.470
6.924000,3.5253,2.0192,1.6214,4.374
6.929000,2.6927,0.7454,1.5606,3.200
6.934000,2.1268,-0.6885,1.8160,2.880
6.939000,1.6583,-1.8885,2.4016,3.476
6.944000,1.3408,-2.6689,2.8936,4.159
6.954000,1.1555,-3.0212,2.9079,4.350
6.955000,1.1982,-3.0433,2.4893,4.110
7.007000,1.4900,-2.9026,1.9476,3.800
7.008000,1.9089,-2.7066,1.5063,3.638
7.008000,2.4066,-2.4239,1.1610,3.608
7.009000,2.9174,-2.0572,0.9025,3.682
7.009000,3.3563,-1.6669,0.6476,3.803
7.009000,3.6623,-1.2911,0.4312,3.907
7.010000,3.8729,-0.9635,0.3827,4.009
7.010000,3.9137,-0.6748,0.5540,4.010
7.010000,3.7945,-0.3684,0.9460,3.928
7.011000,3.5994,-0.0452,1.3698,3.852
7.012000,3.3788,0.3036,1.7189,3.803
7.016000,3.1474,0.6273,2.0573,3.812
7.021000,2.9196,0.8919,2.4030,3.885
7.025000,2.7128,1.0730,2.6303,3.928
7.030000,2.5298,1.2132,2.7173,3.906
7.035000,2.3373,1.2888,2.5660,3.702
7.040000,2.1138,1.3114,2.3922,3.451
7.045000,1.8696,1.3585,2.0366,3.080
7.049000,1.7097,1.3631,1.6415,2.734
7.054000,1.5163,1.3711,1.1578,2.349
7.130000,1.2936,1.3396,0.7688,2.015
7.131000,1.0559,1.2643,0.3363,1.681
7.131000,0.8389,1.2047,-0.0749,1.470
7.132000,0.5954,1.1025,-0.4633,1.336
7.132000,0.2732,0.8717,-0.8792,1.268
7.132000,-0.1028,0.6686,-1.1146,1.304
7.132000,-0.4437,0.4935,-1.3942,1.544
7.133000,-0.7713,0.2248,-1.6503,1.835
7.133000,-1.0976,-0.0081,-1.8974,2.192
7.133000,-1.3099,-0.2010,-2.1384,2.516
7.133000,-1.3656,-0.4018,-2.3733,2.767
7.134000,-1.3248,-0.6773,-2.5112,2.919
7.134000,-1.4054,-0.9915,-2.6670,3.174
7.134000,-1.5548,-1.2270,-2.7521,3.391
7.134000,-1.7517,-1.3603,-2.8173,3.586
7.135000,-1.9671,-1.4362,-2.8714,3.765
7.141000,-2.1627,-1.4860,-2.8983,3.910
7.146000,-2.2569,-1.4813,-2.7862,3.880
7.150000,-2.1271,-1.0068,-2.5845,3.495
7.155000,-1.8944,-0.6306,-2.8241,3.459
7.163000,-1.9023,-0.5916,-3.2208,3.787
7.167000,-2.0574,-0.8851,-3.3808,4.055
7.170000,-2.2913,-1.2978,-3.2839,4.209
7.220000,-2.3377,-1.4922,-3.1390,4.189
7.221000,-2.2784,-1.5981,-3.0613,4.137
7.222000,-2.3008,-1.8819,-3.1011,4.296
7.225000,-2.4570,-2.3210,-3.0569,4.557
7.226000,-2.6412,-2.7792,-2.8652,4.786
7.228000,-2.7276,-3.0483,-2.6635,4.881
7.230000,-2.6917,-3.1361,-2.5937,4.879
7.232000,-2.5694,-3.1096,-2.6272,4.814
7.233000,-2.4286,-3.0746,-2.6606,4.736
7.234000,-2.2885,-3.0592,-2.7486,4.706
7.234000,-2.1859,-3.0662,-2.8833,4.743
7.235000,-2.1669,-3.0951,-2.9829,4.814
7.238000,-2.1810,-3.1438,-2.9757,4.847
7.241000,-2.1774,-3.1711,-2.9149,4.826
7.246000,-2.1489,-3.2492,-2.9944,4.913
7.252000,-2.0420,-3.4013,-3.3608,5.199
7.257000,-1.8059,-3.5027,-3.7518,5.441
7.260000,-1.5580,-3.5488,-3.9423,5.528
7.266000,-1.4481,-3.6112,-3.9788,5.565
7.271000,-1.4992,-3.7138,-3.9410,5.619
7.281000,-1.6271,-3.8351,-3.8531,5.675
7.283000,-1.7811,-3.9867,-3.6389,5.684
7.285000,-1.9463,-4.1594,-3.2157,5.606
7.290000,-2.0093,-4.2969,-2.7070,5.462
7.361000,-1.9197,-4.4074,-2.1977,5.286
7.362000,-1.7063,-4.4753,-1.6744,5.074
7.363000,-1.4644,-4.5572,-1.1407,4.921
7.363000,-1.1887,-4.6396,-0.6430,4.832
7.363000,-0.9611,-4.7164,-0.2606,4.820
7.364000,-0.7268,-4.8247,0.1927,4.883
7.364000,-0.3870,-4.7935,0.7540,4.868
7.365000,-0.0691,-4.8129,0.5763,4.848
7.365000,0.1756,-4.2451,0.0126,4.249
7.365000,0.3213,-3.9079,-0.3437,3.936
7.366000,0.1561,-3.9749,-0.3760,3.996
7.366000,-0.0278,-4.1449,-0.7068,4.205
7.366000,-0.4651,-4.4129,-1.2670,4.615
7.367000,-1.1085,-4.6633,-2.0853,5.227
7.367000,-1.8128,-4.8549,-3.0653,6.021
7.370000,-2.4210,-5.0027,-4.0180,6.858
7.375000,-2.8779,-5.2045,-4.7512,7.612
7.381000,-3.2015,-5.4390,-5.0954,8.111
7.387000,-3.3948,-5.7501,-5.1767,8.449
7.398000,-3.4030,-6.0783,-5.0890,8.627
7.399000,-3.3133,-6.3505,-4.8084,8.627
7.402000,-3.1528,-6.5472,-4.3761,8.483
7.406000,-2.9459,-6.6802,-3.8553,8.256
7.477000,-2.6878,-6.8236,-3.2686,8.029
7.480000,-2.4450,-6.9554,-2.7418,7.866
7.482000,-2.2603,-7.0121,-2.2492,7.703
7.483000,-2.1012,-7.0136,-1.8997,7.564
7.485000,-1.9855,-6.9702,-1.6468,7.432
7.486000,-1.8691,-6.8822,-1.4601,7.279
7.487000,-1.6600,-6.6206,-1.3240,6.953
7.488000,-1.2364,-6.0620,-1.4778,6.361
7.489000,-0.7049,-5.3388,-1.7460,5.661
7.491000,-0.1913,-4.4848,-2.1824,4.991
7.493000,0.2487,-3.4934,-2.6070,4.366
7.494000,0.6079,-2.4457,-2.9074,3.848
7.496000,0.9011,-1.4161,-3.0743,3.503
7.497000,1.1434,-0.4737,-3.0823,3.321
7.498000,1.3235,0.2834,-3.2739,3.543
7.498000,1.4091,0.8766,-3.3420,3.731
7.499000,1.4264,1.2945,-3.4633,3.963
7.500000,1.3125,1.5807,-3.5342,4.088
7.501000,1.1513,1.7762,-3.5401,4.125
7.507000,1.0096,1.9126,-3.5666,4.171
7.514000,0.8675,2.0549,-3.4695,4.125
7.516000,0.7793,2.1736,-3.4927,4.187
7.521000,0.6864,2.2712,-3.2403,4.016
7.581000,0.5746,2.3233,-2.9428,3.793
7.581000,0.4365,2.3199,-2.6195,3.526
7.582000,0.2815,2.2773,-2.3017,3.250
7.582000,0.0642,2.2169,-1.9297,2.940
7.583000,-0.1954,2.0877,-1.4786,2.566
7.583000,-0.4484,1.8876,-1.0401,2.201
7.583000,-0.6636,1.6212,-0.6338,1.863
7.584000,-0.8670,1.2906,-0.2316,1.572
7.584000,-1.0725,0.9317,0.1088,1.425
7.584000,-1.3300,0.5687,0.4493,1.515
7.585000,-1.5569,0.2233,0.7363,1.737
7.585000,-1.7386,-0.1232,0.9270,1.974
7.585000,-1.8296,-0.4513,1.0311,2.148
7.591000,-1.8636,-0.7389,1.0421,2.259
7.596000,-1.8436,-0.9621,1.0493,2.329
7.602000,-1.8250,-1.1180,1.0532,2.385
7.605000,-1.8008,-1.2164,1.0420,2.410
7.614000,-1.7903,-1.1639,1.1691,2.435
7.617000,-1.8022,-1.0324,1.3045,2.453
7.620000,-1.8077,-0.8651,1.4194,2.456
7.671000,-1.8527,-0.7006,1.4899,2.479
7.672000,-1.9087,-0.5796,1.5595,2.532
7.672000,-1.9544,-0.4762,1.6493,2.601
7.672000,-2.0304,-0.3615,1.6425,2.636
7.672000,-2.1251,-0.2403,1.6157,2.680
7.673000,-2.1975,-0.1317,1.5548,2.695
7.673000,-2.2456,0.0006,1.4482,2.672
7.673000,-2.2410,0.1376,1.3204,2.605
7.674000,-2.1814,0.2794,1.1405,2.477
7.674000,-2.0622,0.4000,0.9565,2.308
7.678000,-1.8861,0.4897,0.7831,2.100
7.681000,-1.6794,0.5557,0.6202,1.874
7.687000,-1.4587,0.5907,0.4770,1.644
7.691000,-1.0519,0.8312,0.3581,1.388
7.696000,-0.3748,1.3301,0.3898,1.436
7.700000,-0.0544,1.2799,0.5063,1.377
7.705000,0.0565,0.9588,0.5252,1.095
7.770000,0.1455,0.5997,0.3865,0.728
7.770000,0.2511,0.3394,0.0858,0.431
7.771000,0.3520,0.1972,-0.3023,0.504
7.771000,0.4794,0.1281,-0.6578,0.824
7.771000,0.5999,0.1084,-0.9208,1.104
7.771000,0.7260,0.1193,-1.1561,1.370
7.772000,0.8437,0.1636,-1.4043,1.646
7.772000,0.9388,0.2295,-1.6604,1.921
7.772000,1.0087,0.2934,-1.9143,2.184
7.772000,1.0826,0.3752,-2.1490,2.435
7.773000,1.1866,0.4919,-2.3593,2.686
7.773000,1.2510,0.5627,-2.5182,2.868
7.773000,1.2672,0.6197,-2.7020,3.048
7.781000,1.3144,0.7645,-2.9003,3.275
7.782000,1.4127,0.9703,-2.9639,3.424
7.787000,1.5063,1.1389,-2.8566,3.424
7.792000,1.5540,1.2458,-2.6239,3.294
7.796000,1.5891,1.3337,-2.2545,3.064
7.802000,1.6546,1.4737,-1.8422,2.882
7.807000,1.7239,1.6435,-1.4234,2.775
7.865000,1.7559,1.8228,-1.0084,2.724
7.866000,1.7194,2.0016,-0.6309,2.713
7.866000,1.6357,2.1650,-0.2792,2.728
7.867000,1.5358,2.3081,-0.0107,2.772
7.867000,1.3764,2.3685,0.3156,2.758
7.868000,1.2202,2.3871,0.6063,2.749
7.871000,1.0621,2.4043,0.8277,2.756
7.872000,0.9020,2.4394,1.0545,2.806
7.873000,0.7425,2.4996,1.2314,2.884
7.874000,0.5980,2.5563,1.4111,2.981
7.874000,0.4284,2.6169,1.5814,3.087
7.875000,0.3032,2.7148,1.7256,3.231
7.877000,0.2364,2.8022,1.8653,3.375
7.878000,0.1848,2.8695,1.9529,3.476
7.882000,0.1340,2.8860,2.0914,3.567
7.886000,0.0510,2.8635,2.2518,3.643
7.893000,-0.0186,2.8143,2.4387,3.724
7.897000,-0.1102,2.7193,2.6376,3.790
7.902000,-0.1924,2.6118,2.7905,3.827
7.908000,-0.2461,2.5470,2.9072,3.873
7.912000,-0.2735,2.5247,3.0256,3.950
7.916000,-0.3033,2.5041,3.1481,4.034
7.922000,-0.2757,2.4802,3.2600,4.105
7.998000,-0.2241,2.4341,3.3685,4.162
7.999000,-0.1534,2.3630,3.4636,4.196
8.000000,-0.0826,2.2170,3.6125,4.239
8.001000,0.0150,2.0845,3.7119,4.257
8.002000,0.1177,1.9417,3.8003,4.269
8.003000,0.2305,1.7815,3.8989,4.293
8.004000,0.3463,1.6182,3.9981,4.327
8.005000,0.4653,1.4638,4.0427,4.325
8.006000,0.5706,1.2487,4.1618,4.382
8.007000,0.6937,1.0495,4.2283,4.411
8.008000,0.7985,0.8878,4.2232,4.389
8.009000,0.8992,0.7802,4.1850,4.351
8.010000,1.0127,0.7435,4.0803,4.269
8.011000,1.1411,0.7562,3.9621,4.192
8.013000,1.2557,0.8210,3.8643,4.145
8.014000,1.3543,0.8948,3.8109,4.142
8.017000,1.4536,0.9323,3.8305,4.202
8.018000,1.5771,0.8904,3.9233,4.321
8.019000,1.7294,0.7712,4.0531,4.474
8.022000,1.9049,0.5938,4.2083,4.657
8.032000,2.0773,0.3600,4.3788,4.860
8.036000,2.2346,0.1107,4.5023,5.028
8.037000,2.3413,-0.2045,4.6576,5.217
8.120000,2.4268,-0.5228,4.7465,5.356
8.121000,2.5221,-0.8155,4.7573,5.446
8.121000,2.6246,-1.0487,4.7027,5.487
8.122000,2.7173,-1.2247,4.5808,5.465
8.122000,2.8000,-1.3265,4.4162,5.395
8.122000,2.8557,-1.3613,4.2334,5.285
8.123000,2.8628,-1.3479,4.0516,5.141
8.123000,2.8333,-1.2768,3.8521,4.949
8.123000,2.7840,-1.1454,3.6325,4.718
8.124000,2.7197,-0.9395,3.4072,4.460
8.124000,2.6572,-0.6377,3.1596,4.177
8.124000,2.6010,-0.2640,2.9137,3.915
8.125000,2.5388,0.1980,2.7052,3.715
8.125000,2.4893,0.7406,2.5415,3.634
8.125000,2.4166,1.3060,2.4125,3.656
8.126000,2.2847,1.8650,2.3130,3.748
8.126000,2.1104,2.3860,2.2686,3.911
8.126000,1.9182,2.8329,2.2836,4.113
8.132000,1.7297,3.1932,2.3571,4.329
8.138000,1.5618,3.4645,2.4671,4.531
8.149000,1.4216,3.6441,2.6181,4.707
8.150000,1.2828,3.7124,2.8118,4.830
8.152000,1.1647,3.6858,3.0000,4.893
8.156000,1.0745,3.5499,3.1775,4.884
8.223000,1.0145,3.3091,3.3106,4.790
8.225000,0.9348,2.9423,3.4044,4.596
8.227000,0.8454,2.4378,3.4610,4.317
8.228000,0.7804,1.8607,3.4542,4.000
8.229000,0.7874,1.2378,3.3871,3.691
8.229000,0.8639,0.6458,3.2891,3.461
8.230000,0.9641,0.0756,3.1295,3.276
8.230000,1.0956,-0.4265,2.9117,3.140
8.232000,1.2321,-0.8696,2.6671,3.064
8.232000,1.3906,-1.2892,2.4415,3.091
8.233000,1.5544,-1.6851,2.2567,3.217
8.234000,1.7188,-2.0400,2.0912,3.390
8.234000,1.8435,-2.3256,1.9327,3.542
8.235000,1.9029,-2.5432,1.7889,3.645
8.236000,1.9140,-2.6522,1.6761,3.675
8.237000,1.9105,-2.6839,1.6062,3.665
8.242000,1.8876,-2.6505,1.5837,3.619
8.247000,1.8571,-2.5737,1.6229,3.565
8.253000,1.8093,-2.4568,1.7066,3.496
8.258000,1.7583,-2.3118,1.8303,3.433
8.263000,1.7037,-2.1442,1.9671,3.372
8.268000,1.6478,-1.9882,2.1002,3.329
8.272000,1.5857,-1.8658,2.2176,3.304
8.336000,1.5148,-1.7653,2.2976,3.270
8.337000,1.4466,-1.7161,2.3260,3.232
8.337000,1.3687,-1.6744,2.3061,3.162
8.338000,1.2592,-1.6457,2.2333,3.047
8.338000,1.1200,-1.6298,2.1128,2.894
8.338000,0.9989,-1.6193,1.9690,2.738
8.338000,0.8740,-1.6573,1.8167,2.610
8.339000,0.7451,-1.7272,1.6725,2.517
8.339000,0.6147,-1.8230,1.5373,2.463
8.340000,0.5162,-1.9500,1.4109,2.462
8.340000,0.4303,-2.1104,1.3126,2.522
8.341000,0.3476,-2.3040,1.2254,2.633
8.341000,0.2754,-2.5172,1.1613,2.786
8.346000,0.2211,-2.7463,1.1229,2.975
8.349000,0.1918,-2.9634,1.1028,3.168
8.353000,0.1806,-3.1565,1.0985,3.347
8.358000,0.1328,-3.3475,1.0858,3.522
8.364000,0.0606,-3.5505,1.0550,3.704
8.368000,-0.0548,-3.7784,0.9845,3.905
8.371000,-0.1987,-4.0559,0.8842,4.156
8.434000,-0.3639,-4.3429,0.7493,4.422
8.435000,-0.5335,-4.6268,0.5489,4.690
8.436000,-0.7147,-4.8717,0.3095,4.934
8.438000,-0.8928,-5.0984,0.0408,5.176
8.439000,-1.0942,-5.2978,-0.2619,5.416
8.442000,-1.2801,-5.4654,-0.5698,5.642
8.444000,-1.4651,-5.6256,-0.8755,5.879
8.446000,-1.6276,-5.7658,-1.1719,6.105
8.447000,-1.7772,-5.9098,-1.4350,6.336
8.448000,-1.8997,-6.0740,-1.6913,6.585
8.449000,-2.0097,-6.2374,-1.9429,6.835
8.450000,-2.0761,-6.4078,-2.2065,7.088
8.451000,-2.1187,-6.5616,-2.4699,7.324
8.453000,-2.1710,-6.7153,-2.7474,7.573
8.454000,-2.2377,-6.8133,-3.0558,7.795
8.455000,-2.3403,-6.8839,-3.3786,8.017
8.458000,-2.4643,-6.8867,-3.6657,8.181
8.463000,-2.5856,-6.8584,-3.9458,8.324
8.467000,-2.6879,-6.8281,-4.2143,8.462
8.473000,-2.7904,-6.8052,-4.4472,8.595
8.479000,-2.8812,-6.7821,-4.6280,8.702
8.483000,-2.9746,-6.7587,-4.7785,8.796
8.488000,-3.0801,-6.7233,-4.8821,8.861
8.559000,-3.1616,-6.6917,-4.9393,8.898
8.560000,-3.2427,-6.6646,-4.9552,8.916
8.561000,-3.3163,-6.6180,-4.9301,8.894
8.561000,-3.3749,-6.6050,-4.8714,8.874
8.562000,-3.4257,-6.5900,-4.8175,8.853
8.562000,-3.4712,-6.5804,-4.7615,8.833
8.563000,-3.4991,-6.5710,-4.7154,8.812
8.563000,-3.4976,-6.5598,-4.6624,8.775
8.563000,-3.5002,-6.5351,-4.6268,8.739
8.564000,-3.5116,-6.5065,-4.5917,8.703
8.564000,-3.5247,-6.4838,-4.5596,8.675
8.565000,-3.5441,-6.4403,-4.5258,8.632
8.565000,-3.5675,-6.3810,-4.4903,8.579
8.566000,-3.6164,-6.3467,-4.4388,8.548
8.566000,-3.6550,-6.3207,-4.3690,8.509
8.569000,-3.6641,-6.3319,-4.2712,8.471
8.574000,-3.6822,-6.3470,-4.1837,8.447
8.579000,-3.7140,-6.3730,-4.0969,8.438
8.583000,-3.7572,-6.3959,-4.0395,8.446
8.588000,-3.8119,-6.4181,-3.9804,8.460
8.595000,-3.8588,-6.4372,-3.9313,8.473
8.599000,-3.9028,-6.4700,-3.8924,8.500
8.602000,-3.9653,-6.5093,-3.8469,8.538
8.673000,-4.0295,-6.5429,-3.7997,8.572
8.674000,-4.0667,-6.5829,-3.7483,8.598
8.675000,-4.1108,-6.6245,-3.7140,8.636
8.675000,-4.1571,-6.6653,-3.6703,8.671
8.675000,-4.2247,-6.7386,-3.6174,8.737
8.676000,-4.2943,-6.8083,-3.5838,8.811
8.676000,-4.3445,-6.8603,-3.5766,8.873
8.676000,-4.3706,-6.9110,-3.5837,8.928
8.677000,-4.3702,-6.9414,-3.5908,8.954
8.677000,-4.3531,-6.9776,-3.6216,8.986
8.678000,-4.3004,-7.0171,-3.6685,9.011
8.678000,-4.2171,-7.0572,-3.7531,9.037
8.678000,-4.1198,-7.0813,-3.8703,9.061
8.679000,-3.9918,-7.0579,-4.0225,9.052
8.679000,-3.8069,-6.9989,-4.1449,8.981
8.684000,-3.5912,-6.9473,-4.1922,8.873
8.689000,-3.3466,-6.9629,-4.1528,8.771
8.693000,-3.0868,-7.0571,-4.0270,8.692
8.697000,-2.8259,-7.1855,-3.8510,8.628
8.703000,-2.5803,-7.3408,-3.6537,8.596
8.708000,-2.3281,-7.4776,-3.4759,8.568
8.713000,-2.0618,-7.5892,-3.2913,8.525
8.718000,-1.7956,-7.6613,-3.0713,8.447
8.722000,-1.5360,-7.7151,-2.8305,8.360
8.772000,-1.3094,-7.8117,-2.5546,8.322
8.776000,-1.0986,-7.9768,-2.2151,8.351
8.777000,-0.8840,-8.2320,-1.8383,8.481
8.777000,-0.6509,-8.5292,-1.4818,8.681
8.778000,-0.3897,-8.8182,-1.1432,8.901
8.779000,-0.0760,-9.0697,-0.8343,9.108
8.779000,0.2326,-9.2681,-0.5668,9.288
8.779000,0.5554,-9.4320,-0.2832,9.453
8.780000,0.8972,-9.5448,0.0623,9.587
8.780000,1.2676,-9.6595,0.4671,9.753
8.781000,1.6506,-9.7947,0.8907,9.973
8.784000,2.0598,-9.9403,1.3307,10.238
8.788000,2.5027,-10.0599,1.7872,10.519
8.793000,2.9789,-10.0756,2.1625,10.727
8.799000,3.4613,-10.0408,2.5118,10.914
8.804000,3.9210,-9.9012,2.7755,11.005
8.812000,4.3534,-9.6282,2.8869,10.954
8.815000,4.7351,-9.2314,2.8581,10.761
8.818000,5.0589,-8.7322,2.7302,10.455
8.823000,5.3767,-8.1405,2.5251,10.077
8.886000,5.7024,-7.4879,2.2669,9.681
8.888000,6.0427,-6.8033,2.0081,9.318
8.888000,6.4004,-6.1198,1.7319,9.023
8.888000,6.7300,-5.4107,1.4360,8.754
8.889000,7.0095,-4.7403,1.1850,8.545
8.889000,7.2955,-4.0947,0.9550,8.420
8.890000,7.5416,-3.4741,0.7361,8.336
8.890000,7.7640,-2.8958,0.5448,8.304
8.890000,7.9459,-2.3880,0.3882,8.306
8.891000,8.1148,-1.9613,0.2512,8.352
8.891000,8.2782,-1.6200,0.1718,8.437
8.891000,8.4266,-1.3400,0.1211,8.533
8.892000,8.5459,-1.1161,0.0915,8.619
8.901000,8.6004,-0.9553,0.0613,8.654
8.902000,8.5906,-0.8332,0.0256,8.631
8.905000,8.5003,-0.7465,0.0060,8.533
8.908000,8.3582,-0.6834,0.0000,8.386
8.913000,8.1535,-0.6430,0.0100,8.179
8.920000,7.9252,-0.6272,0.0501,7.950
8.922000,7.6864,-0.6382,0.1728,7.715
8.979000,7.4499,-0.6877,0.3773,7.491
8.980000,7.2577,-0.7827,0.6036,7.325
8.980000,7.1073,-0.8855,0.8367,7.211
8.981000,7.0181,-0.9698,1.0668,7.165
8.981000,6.9707,-1.0385,1.2721,7.162
8.982000,6.9506,-1.0703,1.4310,7.177
8.982000,6.9385,-1.0609,1.5217,7.182
8.982000,6.9130,-1.0126,1.5371,7.154
8.983000,6.8636,-0.9355,1.4893,7.085
8.983000,6.8046,-0.8226,1.3448,6.985
8.983000,6.7019,-0.7099,1.1016,6.829
8.984000,6.5765,-0.6021,0.7575,6.647
8.988000,6.4088,-0.5062,0.3323,6.437
8.993000,6.2297,-0.4673,-0.1450,6.249
8.999000,6.0381,-0.4296,-0.6301,6.086
9.003000,5.8314,-0.4214,-1.1062,5.950
9.011000,5.5974,-0.3967,-1.5608,5.824
9.016000,5.3362,-0.3575,-1.9791,5.703
9.018000,5.0882,-0.3034,-2.3967,5.633
9.024000,4.8582,-0.2533,-2.7825,5.604
9.095000,4.6556,-0.2233,-3.1095,5.603
9.096000,4.4854,-0.2108,-3.3826,5.622
9.096000,4.3335,-0.2463,-3.6089,5.645
9.097000,4.2094,-0.2795,-3.7738,5.660
9.097000,4.1204,-0.3150,-3.8967,5.680
9.097000,4.0452,-0.3403,-3.9605,5.671
9.098000,3.9959,-0.3438,-3.9871,5.655
9.098000,3.9490,-0.3327,-3.9742,5.612
9.098000,3.8953,-0.3192,-3.9414,5.551
9.099000,3.8235,-0.3175,-3.8865,5.461
9.099000,3.7649,-0.3329,-3.8145,5.370
9.099000,3.7129,-0.3578,-3.7326,5.277
9.100000,3.6675,-0.4117,-3.6603,5.198
9.100000,3.6530,-0.4993,-3.5735,5.135
9.101000,3.6698,-0.6133,-3.4726,5.089
9.103000,3.7179,-0.7418,-3.3767,5.077
9.108000,3.7901,-0.8898,-3.2929,5.099
9.114000,3.8866,-1.0232,-3.2428,5.164
9.120000,3.9928,-1.1375,-3.2333,5.262
9.124000,4.1181,-1.2110,-3.2380,5.377
9.130000,4.2551,-1.2438,-3.2521,5.498
9.133000,4.3698,-1.2719,-3.2730,5.606
9.139000,4.4235,-1.2980,-3.3247,5.684
9.222000,4.4284,-1.3382,-3.3804,5.730
9.223000,4.3697,-1.3617,-3.3972,5.700
9.223000,4.2782,-1.3783,-3.4182,5.647
9.224000,4.1516,-1.4096,-3.4577,5.584
9.224000,4.0182,-1.4341,-3.5179,5.530
9.225000,3.8708,-1.4711,-3.6061,5.491
9.225000,3.7237,-1.5226,-3.7172,5.477
9.225000,3.5839,-1.5743,-3.8368,5.481
9.226000,3.4465,-1.6307,-3.9789,5.511
9.226000,3.2949,-1.6797,-4.1292,5.543
9.226000,3.1557,-1.7257,-4.2826,5.593
9.227000,3.0121,-1.7782,-4.4464,5.657
9.227000,2.9080,-1.8267,-4.6107,5.749
9.228000,2.8221,-1.8497,-4.7755,5.847
9.228000,2.7663,-1.8729,-4.9430,5.966
9.228000,2.7219,-1.8819,-5.0918,6.073
9.229000,2.6986,-1.8498,-5.2073,6.150
9.229000,2.6536,-1.8198,-5.2920,6.193
9.234000,2.5877,-1.7674,-5.3486,6.199
9.239000,2.5201,-1.7118,-5.3578,6.163
9.244000,2.4490,-1.6433,-5.3176,6.081
9.249000,2.3702,-1.6075,-5.2642,5.993
9.253000,2.3077,-1.5635,-5.2144,5.913
9.261000,2.2427,-1.4993,-5.1253,5.792
9.264000,2.1972,-1.4125,-4.9899,5.632
9.269000,2.1641,-1.3034,-4.8348,5.455
9.273000,2.1100,-1.1989,-4.6796,5.271
9.338000,2.0423,-1.1060,-4.5386,5.098
9.340000,1.9322,-1.0442,-4.4048,4.922
9.343000,1.7916,-1.0037,-4.3092,4.773
9.346000,1.6229,-0.9655,-4.2159,4.620
9.347000,1.4594,-0.9417,-4.1176,4.469
9.348000,1.2840,-0.9322,-4.0166,4.319
9.349000,1.1132,-0.9345,-3.9151,4.176
9.350000,0.9566,-0.9224,-3.8035,4.029
9.351000,0.8115,-0.9171,-3.6672,3.866
9.352000,0.6926,-0.9143,-3.5162,3.699
9.353000,0.6188,-0.8708,-3.3599,3.526
9.354000,0.5946,-0.8227,-3.1981,3.355
9.355000,0.6050,-0.7988,-3.0380,3.199
9.356000,0.6499,-0.7921,-2.8770,3.054
9.359000,0.6956,-0.7983,-2.7105,2.910
9.360000,0.7587,-0.8244,-2.5313,2.768
9.360000,0.8557,-0.8324,-2.3442,2.631
9.364000,0.9604,-0.8462,-2.1491,2.501
9.369000,1.0583,-0.8565,-1.9558,2.383
9.375000,1.1521,-0.8438,-1.7544,2.262
9.379000,1.2653,-0.8184,-1.5645,2.172
9.385000,1.3835,-0.7684,-1.3644,2.089
9.388000,1.4972,-0.7272,-1.1542,2.026
9.439000,1.6140,-0.6760,-0.9436,1.988
9.439000,1.7145,-0.6316,-0.7279,1.967
9.439000,1.8231,-0.5866,-0.5049,1.981
9.440000,1.8344,-0.5420,-0.2797,1.933
9.440000,1.9782,-0.4951,-0.0692,2.040
9.440000,2.0200,-0.4723,0.1339,2.079
9.441000,2.0389,-0.4548,0.3077,2.112
9.441000,2.0449,-0.4568,0.4547,2.144
9.441000,2.0095,-0.4658,0.5701,2.140
9.441000,1.9566,-0.4827,0.6752,2.125
9.444000,1.9320,-0.5283,0.7725,2.147
9.449000,1.9572,-0.5524,0.8167,2.192
9.454000,2.0534,-0.5669,0.8535,2.295
9.460000,2.2252,-0.5431,0.8924,2.458
9.464000,2.4418,-0.5117,0.9194,2.659
9.469000,2.7050,-0.4710,0.9462,2.904
9.474000,3.0004,-0.4256,0.9944,3.189
9.480000,3.3231,-0.3423,1.0423,3.499
9.483000,3.6609,-0.2496,1.0782,3.824
9.489000,3.9727,-0.1265,1.1020,4.125
9.555000,4.2345,0.0084,1.1286,4.382
9.556000,4.4695,0.1517,1.1549,4.619
9.556000,4.6588,0.2776,1.1815,4.814
9.557000,4.8405,0.4004,1.2107,5.006
9.557000,4.9812,0.5154,1.2426,5.160
9.558000,5.1120,0.6491,1.2868,5.311
9.558000,5.2163,0.7946,1.3436,5.445
9.558000,5.2983,0.9370,1.4198,5.565
9.558000,5.3797,1.0955,1.5204,5.697
9.559000,5.4245,1.2413,1.6308,5.799
9.559000,5.4542,1.3506,1.7630,5.889
9.559000,5.4572,1.4470,1.9071,5.959
9.560000,5.4743,1.5214,2.0584,6.043
9.560000,5.4813,1.5803,2.1926,6.111
9.565000,5.4835,1.6361,2.3073,6.170
9.569000,5.5118,1.6647,2.4097,6.242
9.574000,5.5567,1.6831,2.5120,6.326
9.579000,5.6349,1.7132,2.6096,6.442
9.584000,5.6981,1.7399,2.7117,6.546
9.590000,5.7657,1.7588,2.8112,6.651
9.594000,5.8160,1.7891,2.9084,6.744
9.599000,5.8753,1.8283,3.0222,6.855
9.604000,5.9317,1.8932,3.1287,6.968
9.672000,5.9898,1.9718,3.2305,7.085
9.673000,5.9945,2.0685,3.3341,7.164
9.673000,5.9578,2.1691,3.4303,7.209
9.674000,5.9253,2.2591,3.5068,7.246
9.674000,5.8727,2.3503,3.5709,7.264
9.674000,5.8115,2.4523,3.6105,7.268
9.675000,5.7396,2.5746,3.6378,7.267
9.675000,5.6663,2.7218,3.6572,7.273
9.675000,5.5725,2.8964,3.6497,7.264
9.676000,5.4627,3.0672,3.6107,7.231
9.676000,5.3226,3.2320,3.5475,7.167
9.676000,5.1449,3.3812,3.4864,7.075
9.677000,4.9680,3.5486,3.4110,6.993
9.677000,4.8039,3.7313,3.3376,6.938
9.680000,4.6526,3.8985,3.2758,6.897
9.685000,4.4975,4.0502,3.2351,6.863
9.690000,4.3031,4.1889,3.1630,6.787
9.696000,4.1436,4.3266,3.0666,6.730
9.700000,4.0311,4.4564,2.9653,6.701
9.704000,3.9706,4.5877,2.8517,6.704
9.711000,3.9474,4.7352,2.7191,6.738
9.715000,3.9497,4.8941,2.5724,6.795
9.719000,3.9365,5.0407,2.4622,6.853
9.724000,3.8983,5.1943,2.3814,6.917
9.791000,3.8543,5.3262,2.3230,6.973
9.792000,3.8454,5.4388,2.3011,7.047
9.793000,3.8213,5.5274,2.3061,7.104
9.793000,3.7607,5.5968,2.3404,7.137
9.793000,3.7041,5.6684,2.4061,7.186
9.793000,3.6396,5.7445,2.4770,7.238
9.794000,3.5720,5.8420,2.5578,7.310
9.794000,3.4964,5.9439,2.6363,7.383
9.795000,3.4127,6.0429,2.7101,7.450
9.795000,3.3043,6.1270,2.7839,7.497
9.795000,3.1713,6.1676,2.8791,7.509
9.795000,3.0402,6.1957,3.0050,7.527
9.796000,2.9301,6.2136,3.1233,7.546
9.796000,2.8196,6.2068,3.2240,7.541
9.799000,2.7014,6.1896,3.3285,7.529
9.806000,2.5876,6.1645,3.4058,7.503
9.810000,2.4493,6.1289,3.5036,7.472
9.816000,2.3487,6.0781,3.5932,7.441
9.819000,2.2690,6.0290,3.6868,7.422
9.828000,2.1531,5.9767,3.7648,7.385
9.831000,2.0489,5.9548,3.8323,7.372
9.834000,1.9708,5.9370,3.9179,7.381
9.839000,1.9068,5.9399,4.0121,7.417
9.892000,1.9049,5.9254,4.1147,7.461
9.893000,1.8792,5.9363,4.2015,7.512
9.893000,1.8556,5.9176,4.3299,7.564
9.894000,1.8079,5.8954,4.4254,7.590
9.894000,1.7980,5.8578,4.5025,7.604
9.894000,1.7928,5.8071,4.5681,7.603
9.895000,1.8040,5.7505,4.6199,7.594
9.895000,1.8608,5.6855,4.6480,7.576
9.895000,1.9341,5.6170,4.6669,7.555
9.896000,2.0574,5.5594,4.6576,7.539
9.896000,2.1800,5.5196,4.6466,7.537
9.900000,2.3088,5.4859,4.6267,7.539
9.906000,2.4196,5.4771,4.5911,7.545
9.910000,2.4861,5.4526,4.5613,7.531
9.917000,2.5251,5.3933,4.5562,7.498
9.920000,2.5535,5.2752,4.5831,7.440
9.928000,2.5928,5.1033,4.6465,7.373
9.931000,2.6409,4.8654,4.7319,7.283
9.935000,2.6640,4.5472,4.8272,7.147
9.939000,2.6818,4.1754,4.8991,6.973
10.005000,2.7351,3.7909,4.9861,6.835
10.006000,2.8142,3.4032,5.0215,6.687
10.007000,2.9262,2.9744,5.1205,6.605
10.009000,3.0522,2.5430,5.2138,6.555
10.011000,3.2138,2.1689,5.2610,6.535
10.013000,3.4184,1.8572,5.3440,6.610
10.013000,3.6414,1.5887,5.4296,6.728
10.014000,3.8448,1.3372,5.5775,6.905
10.015000,4.0573,1.1264,5.7184,7.101
10.016000,4.2403,0.9847,5.8662,7.305
10.017000,4.3649,0.9117,5.9896,7.467
10.019000,4.4625,0.8736,6.1192,7.624
10.019000,4.5088,0.8890,6.2236,7.736
10.021000,4.4941,0.9742,6.2761,7.780
10.022000,4.4352,1.1072,6.2859,7.772
10.023000,4.3513,1.2973,6.2360,7.714
10.027000,4.2331,1.4936,6.1305,7.598
10.030000,4.1052,1.6847,5.9483,7.421
10.037000,3.9695,1.8750,5.7541,7.238
10.041000,3.8283,2.0237,5.5693,7.055
10.049000,3.6840,2.1091,5.3724,6.847
10.052000,3.5653,2.1217,5.1516,6.615
10.056000,3.4671,2.0661,4.9139,6.359
10.134000,3.4114,1.9213,4.6863,6.107
10.135000,3.4124,1.7088,4.4354,5.851
10.136000,3.4986,1.4574,4.1948,5.653
10.137000,3.6434,1.1600,3.9650,5.508
10.138000,3.8198,0.8234,3.7582,5.421
10.139000,3.9992,0.4775,3.5347,5.359
10.141000,4.1527,0.1482,3.3236,5.321
10.142000,4.2657,-0.1596,3.1156,5.285
10.144000,4.3218,-0.4480,2.9205,5.235
10.147000,4.3141,-0.7481,2.7431,5.167
10.148000,4.2451,-1.0602,2.5880,5.084
10.149000,4.1135,-1.3880,2.4341,4.977
10.150000,3.9408,-1.6886,2.2812,4.856
10.151000,3.7153,-1.9812,2.1173,4.713
10.152000,3.4615,-2.2368,1.9473,4.558
10.153000,3.1943,-2.4744,1.7614,4.408
10.154000,2.9235,-2.7039,1.5783,4.284
10.156000,2.6646,-2.9093,1.4008,4.186
10.156000,2.4703,-3.0790,1.2023,4.127
10.158000,2.2976,-3.2155,1.0042,4.078
10.161000,2.1418,-3.3328,0.7946,4.041
10.166000,1.9360,-3.4477,0.6069,4.000
10.172000,1.7259,-3.6134,0.4979,4.035
10.183000,1.7571,-3.8718,0.3544,4.267
10.186000,1.7370,-4.0053,0.1408,4.368
10.187000,1.7984,-4.1042,-0.0097,4.481
10.190000,1.8163,-4.1587,-0.1470,4.540
10.267000,1.8246,-4.2216,-0.2475,4.606
10.269000,1.7801,-4.2244,-0.2833,4.593
10.271000,1.7096,-4.1685,-0.2590,4.513
10.272000,1.6035,-4.1076,-0.2132,4.415
10.273000,1.4614,-4.0538,-0.1390,4.311
10.275000,1.2835,-3.9905,-0.0293,4.192
10.276000,1.0843,-3.8798,0.0775,4.029
10.277000,0.8736,-3.7679,0.1638,3.871
10.278000,0.6439,-3.7044,0.1994,3.765
10.279000,0.3808,-3.6753,0.1651,3.699
10.279000,0.1029,-3.6758,0.0804,3.678
10.280000,-0.1658,-3.6912,-0.0472,3.695
10.282000,-0.4182,-3.6780,-0.2054,3.707
10.283000,-0.6498,-3.6654,-0.3894,3.743
10.284000,-0.8417,-3.6708,-0.5767,3.810
10.286000,-1.0110,-3.7090,-0.7651,3.920
10.286000,-1.1510,-3.7534,-0.9468,4.038
10.288000,-1.2718,-3.8109,-1.1359,4.175
10.288000,-1.3475,-3.8695,-1.3155,4.303
10.302000,-1.4044,-3.9317,-1.5047,4.438
10.304000,-1.4214,-3.9678,-1.7101,4.548
10.305000,-1.3940,-3.9733,-1.9224,4.629
10.307000,-1.3247,-3.9553,-2.1318,4.684
10.353000,-1.2351,-3.9379,-2.3170,4.733
10.354000,-1.1276,-3.9140,-2.4805,4.769
10.355000,-1.0234,-3.9079,-2.6229,4.817
10.355000,-0.9508,-3.9212,-2.7393,4.877
10.355000,-0.9047,-3.9449,-2.8327,4.940
10.356000,-0.8898,-3.9861,-2.9129,5.017
10.356000,-0.8961,-4.0356,-2.9849,5.099
10.356000,-0.9235,-4.0816,-3.0513,5.179
10.357000,-0.9718,-4.1400,-3.1266,5.278
10.357000,-1.0647,-4.1776,-3.1941,5.365
10.363000,-1.1782,-4.2231,-3.2611,5.464
10.366000,-1.3027,-4.2810,-3.3061,5.564
10.370000,-1.4333,-4.3298,-3.3340,5.649
10.405000,-1.5629,-4.3744,-3.3353,5.719
10.406000,-1.6675,-4.4167,-3.3316,5.778
10.406000,-1.7640,-4.4476,-3.3276,5.828
10.406000,-1.8646,-4.4741,-3.3329,5.882
10.406000,-1.9789,-4.5250,-3.3521,5.969
10.407000,-2.0975,-4.5833,-3.3877,6.073
10.407000,-2.1942,-4.6303,-3.4395,6.171
10.410000,-2.2859,-4.6673,-3.5240,6.279
10.415000,-2.3513,-4.6946,-3.6340,6.385
10.421000,-2.3951,-4.6999,-3.7575,6.476
10.426000,-2.4390,-4.7094,-3.8898,6.577
10.431000,-2.4877,-4.6941,-4.0116,6.657
10.436000,-2.5365,-4.6901,-4.1040,6.729
10.444000,-2.5830,-4.6753,-4.1812,6.783
10.447000,-2.6081,-4.6405,-4.2458,6.809
10.451000,-2.6309,-4.6096,-4.2715,6.813
10.456000,-2.6417,-4.5825,-4.2824,6.806
10.494000,-2.6214,-4.5473,-4.2881,6.778
10.495000,-2.6036,-4.4686,-4.3149,6.735
10.495000,-2.5839,-4.4084,-4.3219,6.692
10.495000,-2.5527,-4.3384,-4.3354,6.643
10.495000,-2.5221,-4.2634,-4.3243,6.576
10.496000,-2.4848,-4.1980,-4.2936,6.499
10.496000,-2.4883,-4.1445,-4.2601,6.443
10.496000,-2.5229,-4.1006,-4.2311,6.410
10.502000,-2.5649,-4.0806,-4.1827,6.382
10.506000,-2.5811,-4.0704,-4.0978,6.326
10.511000,-2.5953,-4.0771,-3.9957,6.271
10.516000,-2.6294,-4.1130,-3.8907,6.242
10.521000,-2.7093,-4.2041,-3.7493,6.251
10.526000,-2.7604,-4.4031,-3.5982,6.321
10.532000,-2.7368,-4.6167,-3.4594,6.385
10.537000,-2.6629,-4.8258,-3.3397,6.445
10.544000,-2.5702,-5.0255,-3.2269,6.502
10.546000,-2.4753,-5.1916,-3.1664,6.565
10.552000,-2.4261,-5.3569,-3.1604,6.676
10.557000,-2.3939,-5.5238,-3.1585,6.798
10.624000,-2.3452,-5.6987,-3.1128,6.904
10.625000,-2.2608,-5.8336,-3.0304,6.952
10.625000,-2.1482,-5.9046,-2.9087,6.924
10.626000,-2.0339,-5.9143,-2.7477,6.831
10.626000,-1.9444,-5.8963,-2.5353,6.706
10.627000,-1.8626,-5.8684,-2.3076,6.575
10.627000,-1.8649,-5.9285,-1.9380,6.510
10.627000,-1.7235,-6.0795,-1.5537,6.507
10.628000,-1.6488,-6.2858,-1.2077,6.610
10.628000,-1.5689,-6.4950,-0.9094,6.743
10.628000,-1.4908,-6.6709,-0.6612,6.867
10.629000,-1.4196,-6.8334,-0.5108,6.998
10.629000,-1.3646,-7.0176,-0.4125,7.161
10.630000,-1.3162,-7.2494,-0.3160,7.375
10.631000,-1.2547,-7.5424,-0.2261,7.649
10.638000,-1.1629,-7.8674,-0.1310,7.954
10.642000,-1.0047,-8.1468,-0.0544,8.209
10.647000,-0.7679,-8.3694,0.0225,8.405
10.652000,-0.4885,-8.5013,0.0952,8.516
10.658000,-0.1827,-8.5261,0.1685,8.530
10.662000,0.1354,-8.4223,0.2014,8.426
10.666000,0.4401,-8.2330,0.2154,8.248
10.672000,0.7604,-7.9819,0.2154,8.021
10.728000,1.0918,-7.6581,0.1819,7.738
10.729000,1.4388,-7.2111,0.0916,7.354
10.729000,1.8323,-6.6366,-0.0097,6.885
10.730000,2.3051,-5.9208,-0.0976,6.354
10.730000,2.7709,-5.0758,-0.1696,5.785
10.730000,3.2096,-4.1756,-0.2303,5.272
10.731000,3.6570,-3.2320,-0.2533,4.887
10.731000,4.1053,-2.2821,-0.2124,4.702
10.731000,4.5179,-1.3771,-0.1029,4.724
10.731000,4.8967,-0.4796,0.0535,4.920
10.732000,5.2222,0.3839,0.2519,5.242
10.732000,5.4718,1.1871,0.4846,5.620
10.737000,5.6593,1.9297,0.7751,6.029
10.742000,5.7914,2.5967,1.0873,6.439
10.747000,5.8509,3.1994,1.4446,6.823
10.752000,5.8158,3.7297,1.8296,7.147
10.757000,5.6669,4.1781,2.2350,7.387
10.762000,5.3991,4.5410,2.6143,7.524
10.766000,5.0150,4.8163,2.9504,7.553
10.772000,4.5559,4.9945,3.2310,7.493
10.844000,4.0652,5.0879,3.4628,7.376
10.844000,3.5363,5.0920,3.6264,7.182
10.845000,2.9481,4.9573,3.7648,6.888
10.845000,2.2895,4.7440,3.8897,6.548
10.845000,1.6019,4.4696,3.9939,6.204
10.845000,0.9002,4.1707,4.0557,5.887
10.846000,0.2277,3.8599,4.0660,5.611
10.846000,-0.4342,3.5235,4.0679,5.399
10.846000,-1.0682,3.1668,4.0567,5.256
10.846000,-1.6501,2.7811,4.0184,5.158
10.846000,-2.1319,2.4005,3.9774,5.111
10.846000,-2.5473,2.0159,3.9292,5.098
10.847000,-2.8509,1.6375,3.8623,5.072
10.847000,-3.0594,1.2680,3.7747,5.021
10.847000,-3.1565,0.8837,3.6762,4.925
10.852000,-3.1377,0.5137,3.5434,4.761
10.858000,-3.0154,0.1580,3.3406,4.503
10.862000,-2.8716,-0.1498,3.0805,4.214
10.866000,-2.7188,-0.4189,2.7780,3.910
10.872000,-2.5573,-0.6374,2.4335,3.587
10.881000,-2.4043,-0.8074,2.0642,3.270
10.882000,-2.2722,-0.9287,1.6849,2.977
10.887000,-2.0987,-1.0133,1.3197,2.678
10.951000,-1.8913,-1.0848,0.9687,2.386
10.952000,-1.6545,-1.1409,0.6389,2.109
10.953000,-1.3954,-1.1817,0.2991,1.853
10.953000,-1.1425,-1.1785,-0.0389,1.642
10.953000,-0.9079,-1.1314,-0.3679,1.497
10.953000,-0.7130,-1.0332,-0.7191,1.447
10.954000,-0.5265,-0.8696,-1.1067,1.503
10.954000,-0.3581,-0.6644,-1.4899,1.670
10.954000,-0.2028,-0.4151,-1.8591,1.916
10.954000,-0.0388,-0.1717,-2.1856,2.193
10.955000,0.1125,0.0754,-2.4481,2.452
10.955000,0.2705,0.2949,-2.6613,2.691
10.955000,0.4330,0.5155,-2.8562,2.935
10.958000,0.6118,0.7109,-3.0308,3.173
10.965000,0.8190,0.9047,-3.1587,3.386
10.967000,1.0401,1.0967,-3.2619,3.595
10.973000,1.2637,1.2768,-3.3410,3.793
10.978000,1.4827,1.4139,-3.4512,4.013
10.985000,1.7041,1.5270,-3.5565,4.229
10.987000,1.9353,1.6427,-3.6617,4.455
11.055000,2.1546,1.7659,-3.7738,4.691
11.056000,2.3765,1.9089,-3.8710,4.927
11.056000,2.5604,2.0692,-3.9559,5.146
11.057000,2.7088,2.2016,-4.0140,5.319
11.058000,2.8077,2.3136,-4.0237,5.425
11.058000,2.8067,2.3763,-3.9684,5.410
11.058000,2.9285,2.4042,-3.8579,5.407
11.059000,2.9147,2.4235,-3.6777,5.281
11.059000,2.8586,2.4198,-3.4545,5.095
11.059000,2.7581,2.4147,-3.2145,4.876
11.060000,2.5938,2.4128,-2.9602,4.616
11.060000,2.3681,2.4236,-2.6914,4.327
11.061000,2.1142,2.4400,-2.4058,4.026
11.061000,1.8366,2.4470,-2.0890,3.705
11.061000,1.5520,2.4161,-1.7602,3.368
11.068000,1.2626,2.3471,-1.4144,3.017
11.073000,0.9419,2.2640,-1.0877,2.682
11.078000,0.6257,2.1907,-0.7940,2.413
11.083000,0.3354,2.1419,-0.5309,2.232
11.087000,0.0879,2.0957,-0.2911,2.118
11.094000,-0.1052,2.0570,-0.0483,2.060
11.098000,-0.2534,2.0354,0.1831,2.059
11.102000,-0.3641,2.0356,0.3939,2.105
11.107000,-0.4350,2.0647,0.5862,2.190
11.167000,-0.4614,2.1301,0.7604,2.308
11.169000,-0.4622,2.1953,0.9256,2.427
11.170000,-0.4445,2.2581,1.0936,2.548
11.173000,-0.4177,2.3232,1.2714,2.681
11.176000,-0.3814,2.3689,1.4538,2.806
11.179000,-0.3309,2.3711,1.6336,2.898
11.180000,-0.2634,2.3395,1.8199,2.976
11.181000,-0.1738,2.2641,1.9859,3.017
11.182000,-0.0715,2.1521,2.1194,3.021
11.184000,0.0582,2.0108,2.2299,3.003
11.185000,0.2060,1.8428,2.2885,2.945
11.186000,0.3981,1.6673,2.3265,2.890
11.187000,0.6393,1.4799,2.3466,2.847
11.188000,0.9054,1.2806,2.3585,2.832
11.189000,1.1725,1.0888,2.3744,2.863
11.190000,1.3972,0.8809,2.3997,2.913
11.195000,1.6180,0.6739,2.4608,3.021
11.198000,1.8347,0.4967,2.5435,3.175
11.203000,2.0595,0.3828,2.6551,3.382
11.208000,2.2824,0.3367,2.7860,3.617
11.213000,2.4985,0.3679,2.9649,3.895
11.217000,2.6884,0.4950,3.1511,4.172
11.223000,2.7920,0.6914,3.3540,4.418
11.303000,2.7903,0.9232,3.5303,4.594
11.306000,2.7503,1.1352,3.6774,4.730
11.308000,2.6914,1.3149,3.8690,4.893
11.309000,2.6424,1.3859,4.1119,5.080
11.310000,2.6011,1.3553,4.3962,5.285
11.310000,2.5961,1.2420,4.6690,5.485
11.314000,2.6774,1.1083,4.9064,5.698
11.315000,2.8037,1.0519,5.0488,5.870
11.317000,2.9648,1.0797,5.0843,5.984
11.317000,3.1150,1.1795,5.0253,6.029
11.318000,3.2440,1.3297,4.9199,6.041
11.319000,3.3351,1.4630,4.7849,6.013
11.319000,3.3905,1.5700,4.6061,5.931
11.320000,3.4413,1.6629,4.3838,5.816
11.320000,3.4921,1.7514,4.1231,5.680
11.322000,3.5261,1.8261,3.8291,5.516
11.322000,3.5383,1.9086,3.4974,5.329
11.323000,3.5048,2.0017,3.1521,5.121
11.323000,3.4310,2.1177,2.8509,4.938
11.325000,3.3601,2.2279,2.6056,4.800
11.328000,3.2974,2.3231,2.4543,4.722
11.333000,3.2359,2.4296,2.3896,4.699
11.339000,3.1613,2.5425,2.3946,4.711
11.345000,3.0692,2.6880,2.4402,4.754
11.349000,2.9717,2.8613,2.5094,4.829
11.353000,2.8716,3.0407,2.6042,4.927
11.358000,2.7711,3.2067,2.7292,5.041
11.428000,2.6798,3.3185,2.8792,5.146
11.429000,2.5929,3.3710,3.0779,5.250
11.429000,2.5177,3.3473,3.2887,5.325
11.430000,2.4639,3.2421,3.4897,5.363
11.430000,2.4223,3.0843,3.6472,5.356
11.431000,2.3809,2.8833,3.7441,5.292
11.431000,2.3659,2.6535,3.7450,5.164
11.431000,2.3822,2.4098,3.6551,4.984
11.432000,2.4319,2.1547,3.5037,4.778
11.432000,2.5007,1.8672,3.3175,4.555
11.432000,2.5886,1.5815,3.1261,4.356
11.433000,2.6715,1.2811,2.9512,4.182
11.433000,2.7494,1.0021,2.7646,4.026
11.433000,2.8291,0.7662,2.5594,3.891
11.434000,2.8988,0.5664,2.3526,3.776
11.439000,2.9486,0.4120,2.1394,3.666
11.443000,2.9860,0.2917,1.9322,3.569
11.448000,3.0325,0.2074,1.7330,3.499
11.454000,3.0743,0.1617,1.5560,3.449
11.459000,3.1332,0.1690,1.4178,3.443
11.464000,3.2214,0.2387,1.3179,3.489
11.468000,3.3247,0.3489,1.2344,3.564
11.473000,3.4506,0.4781,1.1981,3.684
11.551000,3.5633,0.6141,1.1730,3.801
11.552000,3.6435,0.7373,1.2231,3.913
11.552000,3.6844,0.8424,1.3263,4.005
11.553000,3.6599,0.9650,1.4391,4.049
11.553000,3.5342,1.0829,1.5679,4.015
11.553000,3.3102,1.1770,1.7009,3.903
11.554000,3.0259,1.2373,1.7924,3.728
11.554000,2.7004,1.2997,1.8402,3.517
11.554000,2.3720,1.3448,1.8540,3.297
11.555000,2.0694,1.3875,1.8270,3.090
11.555000,1.7877,1.4207,1.7788,2.895
11.555000,1.5242,1.4371,1.7238,2.713
11.555000,1.2737,1.4560,1.6674,2.554
11.556000,1.0288,1.4606,1.6097,2.405
11.556000,0.7867,1.4410,1.5701,2.272
11.556000,0.5473,1.3979,1.5587,2.164
11.561000,0.3153,1.3333,1.5728,2.086
11.563000,0.1194,1.2662,1.5408,1.998
11.568000,-0.0237,1.1918,1.4747,1.896
11.573000,-0.1286,1.1053,1.3700,1.765
11.579000,-0.2027,0.9921,1.2387,1.600
11.584000,-0.2628,0.8412,1.1102,1.417
11.588000,-0.2706,0.6759,0.9507,1.197
11.668000,-0.2308,0.4942,0.7603,0.936
11.669000,-0.1746,0.2889,0.5681,0.661
11.669000,-0.1069,0.0911,0.3764,0.402
11.669000,-0.0662,-0.1258,0.1805,0.230
11.670000,-0.0640,-0.3704,-0.0168,0.376
11.670000,-0.0953,-0.6358,-0.2278,0.682
11.670000,-0.1623,-0.9120,-0.4714,1.039
11.671000,-0.2408,-1.1845,-0.7116,1.403
11.671000,-0.3282,-1.4335,-0.9772,1.766
11.671000,-0.4194,-1.6708,-1.2369,2.121
11.672000,-0.4906,-1.8845,-1.4812,2.447
11.672000,-0.5294,-2.0899,-1.6954,2.743
11.672000,-0.5693,-2.2945,-1.8845,3.023
11.673000,-0.6029,-2.5003,-2.0582,3.294
11.673000,-0.6662,-2.6902,-2.2020,3.540
11.673000,-0.7497,-2.8858,-2.3039,3.768
11.674000,-0.8533,-3.0921,-2.3739,3.991
11.685000,-0.9720,-3.2958,-2.4473,4.219
11.686000,-1.0797,-3.4995,-2.5316,4.452
11.689000,-1.1622,-3.6454,-2.6073,4.630
11.698000,-1.2176,-3.7503,-2.6745,4.764
11.704000,-1.2583,-3.8455,-2.7304,4.881
11.705000,-1.2893,-3.9291,-2.7561,4.970
11.768000,-1.3181,-3.9881,-2.7514,5.021
11.768000,-1.3111,-4.0327,-2.7404,5.049
11.769000,-1.2854,-4.0679,-2.7063,5.052
11.769000,-1.2364,-4.0984,-2.6325,5.025
11.770000,-1.1810,-4.1246,-2.5430,4.987
11.770000,-1.1147,-4.1353,-2.4569,4.938
11.770000,-1.0474,-4.1301,-2.3884,4.885
11.770000,-0.9959,-4.1239,-2.3233,4.837
11.771000,-0.9626,-4.1552,-2.2831,4.838
11.771000,-0.9524,-4.2290,-2.2392,4.879
11.772000,-0.9414,-4.3549,-2.1892,4.964
11.772000,-0.9295,-4.5329,-2.1450,5.100
11.772000,-0.8908,-4.7409,-2.1231,5.270
11.773000,-0.8396,-4.9814,-2.1046,5.473
11.779000,-0.7662,-5.2328,-2.1038,5.692
11.785000,-0.6708,-5.4831,-2.1445,5.926
11.788000,-0.5558,-5.7466,-2.2196,6.185
11.795000,-0.4330,-6.0223,-2.3218,6.469
11.799000,-0.2926,-6.2960,-2.4224,6.752
11.803000,-0.1392,-6.5814,-2.5217,7.049
11.888000,0.0084,-6.8521,-2.6270,7.338
11.889000,0.1552,-7.1099,-2.7408,7.622
11.890000,0.3108,-7.3360,-2.8487,7.876
11.890000,0.4515,-7.5105,-2.9629,8.086
11.890000,0.5893,-7.6266,-3.0738,8.244
11.891000,0.6813,-7.6721,-3.2509,8.360
11.891000,0.7560,-7.6471,-3.4725,8.433
11.891000,0.7990,-7.5758,-3.6667,8.454
11.892000,0.8243,-7.4917,-3.8406,8.459
11.892000,0.8348,-7.4516,-3.9777,8.488
11.892000,0.8159,-7.4938,-4.0491,8.557
11.893000,0.7605,-7.6035,-4.0958,8.670
11.893000,0.6856,-7.7277,-4.1224,8.785
11.894000,0.6293,-7.7900,-4.1481,8.848
11.894000,0.5509,-7.8022,-4.1920,8.874
11.894000,0.4007,-7.7835,-4.2448,8.875
11.895000,0.2556,-7.7694,-4.2610,8.865
11.895000,0.1422,-7.7620,-4.1835,8.819
11.902000,0.0398,-7.7948,-4.0368,8.778
11.905000,-0.0271,-7.8343,-3.8692,8.738
11.909000,-0.0509,-7.8301,-3.6855,8.654
11.914000,-0.0360,-7.7445,-3.5245,8.509
11.918000,-0.0015,-7.5945,-3.4099,8.325
11.924000,0.0385,-7.3614,-3.3323,8.081
11.983000,0.1007,-7.0573,-3.2819,7.784
11.983000,0.2159,-6.6946,-3.2587,7.449
11.984000,0.3791,-6.2851,-3.2455,7.084
11.984000,0.5754,-5.8231,-3.2423,6.690
11.985000,0.7469,-5.2991,-3.2749,6.274
11.985000,0.8788,-4.7183,-3.3430,5.849
11.986000,1.0017,-4.1148,-3.4248,5.447
11.986000,1.1010,-3.4937,-3.4842,5.056
11.986000,1.1787,-2.8932,-3.4947,4.688
11.986000,1.2367,-2.3386,-3.4466,4.345
11.987000,1.2725,-1.8391,-3.3424,4.022
11.987000,1.2716,-1.4026,-3.1846,3.705
11.990000,1.2578,-1.0220,-2.9587,3.373
11.994000,1.2689,-0.6693,-2.7031,3.060
12.000000,1.2903,-0.3638,-2.4155,2.763
12.004000,1.3001,-0.1116,-2.1008,2.473
12.009000,1.2698,0.0800,-1.7737,2.183
12.015000,1.1968,0.2132,-1.4485,1.891
12.019000,1.0765,0.3000,-1.1302,1.589
12.024000,0.8972,0.3358,-0.8237,1.263
12.108000,0.6687,0.3198,-0.5366,0.915
12.109000,0.4273,0.2549,-0.2739,0.568
12.110000,0.1590,0.1557,-0.0404,0.226
12.110000,-0.1261,0.0199,0.1731,0.215
12.110000,-0.3941,-0.1546,0.3377,0.541
12.111000,-0.6590,-0.3384,0.4533,0.868
12.111000,-0.9564,-0.5222,0.5125,1.204
12.111000,-1.2863,-0.7055,0.5110,1.554
12.112000,-1.6653,-0.8780,0.4704,1.940
12.112000,-2.0527,-1.0346,0.4003,2.333
12.112000,-2.4100,-1.1653,0.3129,2.695
12.113000,-2.7251,-1.2764,0.1846,3.015
12.113000,-3.0102,-1.3609,0.0393,3.304
12.113000,-3.2653,-1.4300,-0.1395,3.567
12.113000,-3.4784,-1.4882,-0.3372,3.798
12.114000,-3.6282,-1.5091,-0.5439,3.967
12.114000,-3.6933,-1.4994,-0.7356,4.053
12.115000,-3.6932,-1.4973,-0.9264,4.091
12.121000,-3.6065,-1.4838,-1.1043,4.053
12.125000,-3.4407,-1.4517,-1.2667,3.943
12.130000,-3.1936,-1.3961,-1.4184,3.763
12.137000,-2.9012,-1.3197,-1.5640,3.550
12.140000,-2.5972,-1.2393,-1.6701,3.327
12.144000,-2.2862,-1.1644,-1.7392,3.100
12.150000,-1.9851,-1.0910,-1.7619,2.870
12.154000,-1.7127,-1.0453,-1.7528,2.664
12.221000,-1.4736,-0.9869,-1.7432,2.487
12.222000,-1.3035,-0.9278,-1.7429,2.366
12.222000,-1.2044,-0.8680,-1.7733,2.313
12.222000,-1.1640,-0.8190,-1.8058,2.299
12.222000,-1.1607,-0.7837,-1.8454,2.317
12.223000,-1.1222,-0.7712,-1.8897,2.329
12.223000,-1.0557,-0.7693,-1.9315,2.332
12.223000,-0.9395,-0.7611,-1.9898,2.328
12.224000,-0.7760,-0.7104,-2.0549,2.309
12.224000,-0.5843,-0.6456,-2.0930,2.267
12.224000,-0.3672,-0.5507,-2.1044,2.206
12.225000,-0.1173,-0.4540,-2.0769,2.129
12.225000,0.1628,-0.3363,-2.0366,2.071
12.226000,0.4420,-0.2219,-1.9742,2.035
12.234000,0.7180,-0.0866,-1.8919,2.025
12.236000,0.9880,0.0449,-1.7684,2.026
12.240000,1.2546,0.1774,-1.6203,2.057
12.245000,1.5105,0.3038,-1.4406,2.109
12.250000,1.7506,0.4380,-1.2172,2.177
12.255000,1.9750,0.5704,-0.9646,2.271
12.325000,2.1576,0.7300,-0.7042,2.384
12.326000,2.2999,0.8986,-0.4196,2.505
12.327000,2.4023,1.0646,-0.1132,2.630
12.327000,2.4477,1.2347,0.2029,2.749
12.327000,2.4243,1.3896,0.5261,2.843
12.328000,2.3914,1.5243,0.8350,2.956
12.328000,2.3660,1.6414,1.1513,3.101
12.328000,2.3353,1.7686,1.4696,3.277
12.329000,2.2969,1.8942,1.7735,3.465
12.329000,2.2696,2.0325,2.0606,3.678
12.329000,2.2794,2.1905,2.3216,3.922
12.330000,2.3019,2.3608,2.5563,4.172
12.330000,2.2847,2.5223,2.7674,4.386
12.330000,2.2321,2.6836,2.9758,4.587
12.331000,2.1564,2.8187,3.1960,4.776
12.336000,2.0599,2.9444,3.3799,4.933
12.339000,1.9546,3.0772,3.5418,5.083
12.345000,1.8810,3.2147,3.6768,5.234
12.351000,1.8343,3.3690,3.7803,5.386
12.356000,1.8164,3.4964,3.8662,5.520
12.362000,1.8344,3.6093,3.9445,5.653
12.364000,1.8692,3.6956,4.0339,5.781
12.369000,1.9089,3.7507,4.1346,5.900
12.435000,1.9415,3.7531,4.2583,5.999
12.436000,1.9504,3.6840,4.3861,6.051
12.436000,1.9836,3.5766,4.5318,6.104
12.437000,2.0723,3.4694,4.6809,6.184
12.437000,2.2001,3.3863,4.8167,6.286
12.437000,2.3454,3.2938,4.9269,6.374
12.437000,2.4487,3.1704,5.0043,6.410
12.438000,2.5293,3.0330,5.0561,6.416
12.438000,2.5944,2.8600,5.0725,6.375
12.438000,2.6110,2.6780,5.0728,6.303
12.439000,2.5962,2.5089,5.0548,6.212
12.439000,2.5717,2.3889,4.9995,6.109
12.439000,2.5088,2.3132,4.9120,5.981
12.440000,2.4172,2.3014,4.8213,5.864
12.445000,2.3260,2.3221,4.7655,5.789
12.451000,2.2136,2.3373,4.7709,5.755
12.455000,2.0998,2.3136,4.8660,5.783
12.504000,2.0325,2.2127,5.0146,5.846
12.504000,2.0308,2.0560,5.1828,5.934
12.505000,2.0800,1.8793,5.3372,6.029
12.505000,2.1846,1.7326,5.4346,6.108
12.505000,2.3180,1.6231,5.4536,6.144
12.505000,2.4391,1.5435,5.4235,6.144
12.505000,2.5383,1.4606,5.3326,6.084
12.506000,2.6370,1.3745,5.2338,6.020
12.506000,2.7568,1.2785,5.1204,5.954
12.506000,2.8760,1.1965,4.9998,5.891
12.514000,2.9945,1.1623,4.8772,5.840
12.518000,3.0978,1.1925,4.7407,5.787
12.521000,3.1763,1.2944,4.6023,5.740
12.528000,3.2445,1.4725,4.4691,5.716
12.533000,3.2974,1.7002,4.3771,5.738
12.535000,3.3373,1.9679,4.2947,5.784
12.539000,3.3785,2.2824,4.2171,5.866
12.609000,3.4041,2.6265,4.1561,5.980
12.609000,3.3973,2.9975,4.0920,6.105
12.610000,3.3531,3.3736,4.0559,6.251
12.610000,3.2671,3.7090,4.0472,6.388
12.610000,3.1463,3.9748,4.0607,6.495
12.611000,3.0176,4.1302,4.1224,6.570
12.611000,2.9025,4.1700,4.2579,6.629
12.612000,2.8228,4.0775,4.4356,6.653
12.612000,2.8332,3.8737,4.5976,6.646
12.612000,2.8909,3.5660,4.7034,6.572
12.613000,2.9956,3.1903,4.7194,6.436
12.613000,3.0996,2.7708,4.6271,6.221
12.613000,3.1864,2.3011,4.4653,5.949
12.614000,3.3112,1.8080,4.2755,5.702
12.616000,3.4717,1.3399,4.0701,5.515
12.621000,3.6676,0.9002,3.8743,5.410
12.626000,3.8629,0.5368,3.6979,5.374
12.630000,4.0309,0.2403,3.5294,5.363
12.638000,4.1331,0.0370,3.3857,5.343
12.640000,4.1529,-0.0877,3.2693,5.286
12.645000,4.1165,-0.1320,3.1868,5.208
12.651000,4.0364,-0.1003,3.1097,5.096
12.657000,3.8981,-0.0123,3.0544,4.952
12.744000,3.7066,0.1197,2.9918,4.765
12.745000,3.4694,0.2667,2.9144,4.539
12.745000,3.1724,0.4357,2.8222,4.268
12.745000,2.8516,0.5903,2.7002,3.971
12.746000,2.5026,0.7504,2.5657,3.662
12.746000,2.1664,0.9083,2.4159,3.370
12.746000,1.8337,1.0426,2.2625,3.093
12.746000,1.5524,1.1461,2.1127,2.861
12.747000,1.3157,1.2283,1.9520,2.655
12.747000,1.1161,1.2649,1.7801,2.452
12.747000,0.9300,1.2758,1.5880,2.239
12.748000,0.7600,1.2584,1.3922,2.025
12.748000,0.6108,1.2200,1.1928,1.812
12.748000,0.4727,1.1629,0.9995,1.605
12.749000,0.3387,1.0820,0.8024,1.389
12.749000,0.1922,0.9904,0.5927,1.170
12.749000,0.0715,0.8997,0.3822,0.980
12.749000,-0.0263,0.7908,0.1713,0.810
12.752000,-0.1202,0.6687,-0.0376,0.680
12.758000,-0.2296,0.5239,-0.2274,0.616
12.763000,-0.3426,0.3752,-0.4245,0.662
12.767000,-0.4592,0.2262,-0.6307,0.812
12.771000,-0.5580,0.0959,-0.8506,1.022
12.778000,-0.6606,-0.0298,-1.0626,1.252
12.781000,-0.7719,-0.1721,-1.2592,1.487
12.786000,-0.8823,-0.3212,-1.4426,1.721
12.791000,-0.9825,-0.4655,-1.6201,1.951
12.869000,-1.0727,-0.6062,-1.7696,2.156
12.869000,-1.1578,-0.7413,-1.8816,2.330
12.870000,-1.2187,-0.8875,-1.9778,2.487
12.870000,-1.2508,-1.0567,-2.0414,2.617
12.870000,-1.2636,-1.2274,-2.0868,2.731
12.871000,-1.2618,-1.3950,-2.1359,2.846
12.871000,-1.2286,-1.5444,-2.1835,2.943
12.871000,-1.1785,-1.6951,-2.2203,3.032
12.872000,-1.1303,-1.8398,-2.2345,3.107
12.872000,-1.0697,-2.0168,-2.2359,3.195
12.872000,-0.8839,-2.2985,-2.1793,3.288
12.873000,-0.8794,-2.3705,-2.2080,3.357
12.873000,-0.7737,-2.5325,-2.2001,3.443
12.873000,-0.6817,-2.6768,-2.2012,3.532
12.874000,-0.5890,-2.7912,-2.2064,3.606
12.874000,-0.4908,-2.9191,-2.1873,3.680
12.884000,-0.4039,-3.0362,-2.1436,3.739
12.886000,-0.3115,-3.1959,-2.0782,3.825
12.886000,-0.2356,-3.3638,-2.0215,3.932
12.892000,-0.1835,-3.5404,-1.9619,4.052
12.897000,-0.1530,-3.7066,-1.9206,4.177
12.901000,-0.1275,-3.8553,-1.9191,4.308
12.907000,-0.1121,-3.9865,-1.9356,4.433
12.992000,-0.0926,-4.1099,-1.9703,4.559
12.993000,-0.0236,-4.1961,-2.0156,4.655
12.993000,0.0632,-4.2719,-2.0809,4.752
12.993000,0.1509,-4.3419,-2.0944,4.823
12.994000,0.2130,-4.4087,-2.0705,4.875
12.994000,0.2758,-4.4892,-2.0403,4.939
12.995000,0.3489,-4.5911,-1.9993,5.020
12.995000,0.4131,-4.7185,-1.9377,5.118
12.995000,0.4899,-4.8549,-1.8771,5.228
12.996000,0.5626,-4.9694,-1.8128,5.320
12.996000,0.6190,-5.0907,-1.7519,5.419
12.996000,0.6620,-5.2332,-1.6803,5.536
12.996000,0.6653,-5.3972,-1.5981,5.668
12.997000,0.6291,-5.5890,-1.5363,5.830
12.997000,0.5681,-5.8041,-1.4998,6.022
12.997000,0.4535,-6.0301,-1.5005,6.231
12.998000,0.3095,-6.2618,-1.5456,6.457
12.998000,0.1506,-6.4746,-1.6206,6.676
13.002000,0.0244,-6.6064,-1.7183,6.826
13.007000,-0.0975,-6.7447,-1.8100,6.984
13.012000,-0.2771,-6.8823,-1.9316,7.154
13.016000,-0.4406,-6.9161,-1.9945,7.211
13.022000,-0.5856,-6.9037,-1.9940,7.210
13.028000,-0.7404,-6.8578,-2.0334,7.191
13.032000,-0.8818,-6.7980,-2.0572,7.157
13.036000,-1.0332,-6.7457,-2.0803,7.134
13.041000,-1.1942,-6.7537,-2.1099,7.176
13.120000,-1.3078,-6.8242,-2.0909,7.256
13.121000,-1.4317,-6.9955,-2.0279,7.423
13.121000,-1.5421,-7.2007,-2.0192,7.636
13.122000,-1.6656,-7.3753,-2.0810,7.842
13.122000,-1.7947,-7.5045,-2.2255,8.031
13.123000,-1.9224,-7.5929,-2.4571,8.209
13.123000,-2.0624,-7.6735,-2.7546,8.410
13.123000,-2.1619,-7.7406,-3.0534,8.597
13.124000,-2.2012,-7.8295,-3.3873,8.810
13.124000,-2.1994,-7.9517,-3.7037,9.043
13.124000,-2.1772,-8.0678,-4.0053,9.267
13.125000,-2.1608,-8.1127,-4.3017,9.433
13.125000,-2.0999,-8.0453,-4.6026,9.504
13.125000,-2.0206,-7.8368,-4.8937,9.458
13.126000,-1.8699,-7.5012,-5.1918,9.312
13.126000,-1.6408,-7.0678,-5.4801,9.093
13.127000,-1.3455,-6.5988,-5.7274,8.841
13.132000,-1.0011,-6.1086,-5.9094,8.558
13.137000,-0.6628,-5.6001,-6.0118,8.243
13.146000,-0.3926,-5.0810,-6.0130,7.882
13.148000,-0.1545,-4.5612,-5.9204,7.475
13.153000,0.1020,-4.0472,-5.7344,7.020
13.156000,0.3933,-3.5637,-5.4382,6.514
13.247000,0.7430,-3.1214,-5.0342,5.970
13.247000,1.1391,-2.7363,-4.5565,5.436
13.248000,1.5288,-2.3690,-4.0315,4.920
13.248000,1.8332,-2.1180,-3.5672,4.536
13.248000,2.0951,-1.9059,-3.1851,4.262
13.249000,2.3256,-1.6946,-2.8393,4.043
13.249000,2.5129,-1.5374,-2.5396,3.889
13.249000,2.6017,-1.4680,-2.2907,3.764
13.250000,2.5944,-1.5195,-2.1022,3.669
13.250000,2.5005,-1.6338,-1.9593,3.572
13.250000,2.3154,-1.7731,-1.8694,3.464
13.250000,2.0031,-1.9509,-1.8250,3.339
13.251000,1.5783,-2.1378,-1.8235,3.223
13.251000,1.0844,-2.3305,-1.8577,3.171
13.251000,0.5695,-2.5091,-1.8964,3.196
13.252000,0.0938,-2.6460,-1.9416,3.283
13.252000,-0.3356,-2.7412,-2.0030,3.412
13.252000,-0.7141,-2.7891,-2.0275,3.521
13.253000,-1.0824,-2.7677,-2.0243,3.596
13.258000,-1.4119,-2.6866,-1.9935,3.631
13.262000,-1.4107,-2.5813,-1.9228,3.514
13.268000,-2.0498,-2.4644,-1.8297,3.691
13.271000,-2.3287,-2.3356,-1.7354,3.727
13.278000,-2.5753,-2.1976,-1.6186,3.753
13.285000,-2.7918,-2.0409,-1.5012,3.770
13.286000,-2.9730,-1.8874,-1.4022,3.790
13.368000,-3.0928,-1.7200,-1.3171,3.776
13.369000,-3.1559,-1.5494,-1.2508,3.732
13.372000,-3.1766,-1.3897,-1.2058,3.671
13.374000,-3.1428,-1.2265,-1.2035,3.582
13.375000,-3.0857,-1.0644,-1.2176,3.484
13.376000,-2.9978,-0.9175,-1.2431,3.373
13.378000,-2.8911,-0.7541,-1.2510,3.239
13.379000,-2.7391,-0.5919,-1.2228,3.058
13.380000,-2.5442,-0.4305,-1.1558,2.827
13.381000,-2.3325,-0.2747,-1.0645,2.579
13.382000,-2.1094,-0.1153,-0.9273,2.307
13.383000,-1.8628,0.0423,-0.7396,2.005
13.384000,-1.6164,0.1819,-0.5348,1.712
13.385000,-1.3567,0.2969,-0.3232,1.426
13.386000,-1.0905,0.4188,-0.0950,1.172
13.387000,-0.8182,0.5400,0.1281,0.989
13.388000,-0.5946,0.6486,0.3773,0.957
13.388000,-0.3887,0.7491,0.6091,1.041
13.389000,-0.2122,0.8301,0.8383,1.199
13.390000,-0.0441,0.9143,1.0644,1.404
13.423000,0.0010,0.9829,1.2444,1.586
13.424000,0.3008,1.0314,1.4217,1.782
13.425000,0.4795,1.0763,1.6417,2.021
13.425000,0.6351,1.1272,1.8471,2.255
13.427000,0.7701,1.1774,2.0261,2.467
13.427000,0.9100,1.2210,2.2048,2.680
13.428000,1.0502,1.2678,2.3928,2.904
13.428000,1.1952,1.3107,2.5783,3.130
13.432000,1.3853,1.3660,2.7802,3.393
13.438000,1.6155,1.4384,2.9625,3.668
13.445000,1.8717,1.5378,3.1374,3.964
13.449000,2.1577,1.6655,3.3139,4.291
13.452000,2.4160,1.8002,3.4348,4.569
13.456000,2.6488,1.9751,3.5479,4.848
13.521000,2.8391,2.1398,3.6720,5.111
13.521000,2.9915,2.3180,3.7712,5.343
13.522000,3.1156,2.4882,3.8168,5.520
13.522000,3.1964,2.6428,3.8228,5.641
13.522000,3.2603,2.8011,3.7920,5.732
13.523000,3.3048,2.9515,3.7363,5.796
13.523000,3.3369,3.1082,3.6585,5.846
13.523000,3.3542,3.2623,3.5778,5.890
13.523000,3.3635,3.4013,3.4846,5.918
13.525000,3.3409,3.5065,3.4055,5.921
13.526000,3.3129,3.5686,3.3309,5.900
13.528000,3.2605,3.5782,3.2465,5.829
13.529000,3.2033,3.5356,3.1715,5.729
13.530000,3.1536,3.4630,3.1156,5.625
13.537000,3.1358,3.3628,3.0953,5.543
13.538000,3.1739,3.2450,3.1109,5.503
13.546000,3.2322,3.1167,3.1886,5.507
13.547000,3.2914,2.9926,3.3092,5.544
13.553000,3.3233,2.8653,3.4270,5.568
13.557000,3.3642,2.7183,3.5564,5.600
13.634000,3.4213,2.5373,3.6945,5.638
13.635000,3.5117,2.3559,3.8511,5.720
13.636000,3.6307,2.1742,3.9831,5.812
13.637000,3.7254,2.0402,4.0860,5.894
13.638000,3.7862,1.9706,4.1864,5.979
13.640000,3.7652,1.9367,4.3395,6.063
13.643000,3.6576,1.9790,4.5352,6.153
13.645000,3.4782,2.0660,4.7781,6.261
13.648000,3.2966,2.1640,5.1058,6.451
13.649000,3.1299,2.2274,5.4578,6.674
13.650000,2.9637,2.2079,5.8288,6.902
13.651000,2.8125,2.1078,6.1825,7.112
13.653000,2.6977,1.9768,6.4991,7.309
13.654000,2.5950,1.8865,6.6925,7.422
13.655000,2.5135,1.8583,6.7128,7.405
13.656000,2.4649,1.8107,6.7755,7.434
13.658000,2.3585,1.7535,6.6557,7.276
13.659000,2.2610,1.7107,6.4332,7.030
13.659000,2.2107,1.6876,6.2042,6.799
13.660000,2.2143,1.6601,5.9450,6.558
13.663000,2.2814,1.6405,5.5963,6.262
13.668000,2.3614,1.6171,5.2112,5.945
13.674000,2.4732,1.6067,4.8069,5.640
13.678000,2.5761,1.6096,4.3934,5.341
13.682000,2.6845,1.6309,3.9900,5.078
13.687000,2.7937,1.6800,3.5921,4.851
13.772000,2.8822,1.7382,3.2190,4.657
13.773000,2.9455,1.8412,2.8612,4.500
13.775000,2.9981,1.9939,2.5304,4.401
13.777000,3.0733,2.2058,2.1956,4.374
13.780000,3.1643,2.4460,1.8833,4.421
13.781000,3.2591,2.7023,1.6149,4.531
13.782000,3.3433,2.9316,1.4355,4.673
13.783000,3.4004,3.1097,1.3614,4.805
13.785000,3.4306,3.2077,1.3608,4.890
13.785000,3.4318,3.2089,1.4288,4.911
13.788000,3.4305,3.1298,1.5621,4.899
13.788000,3.4315,2.9820,1.7077,4.856
13.789000,3.4541,2.7775,1.8296,4.795
13.790000,3.4983,2.5354,1.9084,4.723
13.792000,3.5520,2.2605,1.9254,4.630
13.794000,3.6036,1.9704,1.9146,4.531
13.795000,3.6386,1.6843,1.8598,4.420
13.796000,3.6521,1.3979,1.7855,4.299
13.797000,3.6319,1.1046,1.7522,4.181
13.798000,3.5851,0.8500,1.7651,4.085
13.799000,3.5379,0.6435,1.8288,4.034
13.799000,3.4809,0.4999,1.9174,4.005
13.803000,3.4047,0.4285,2.0065,3.975
13.808000,3.3070,0.4171,2.1105,3.945
13.813000,3.1831,0.4583,2.2456,3.922
13.818000,3.0452,0.5230,2.4043,3.915
13.827000,2.9003,0.6203,2.5623,3.919
13.829000,2.7558,0.7360,2.7290,3.948
13.905000,2.6049,0.8502,2.8990,3.989
13.905000,2.4499,0.9580,3.0696,4.043
13.906000,2.3197,1.0638,3.2354,4.121
13.906000,2.2001,1.1624,3.3700,4.189
13.906000,2.0742,1.2463,3.4850,4.243
13.907000,1.9424,1.3084,3.5732,4.272
13.907000,1.7924,1.3580,3.6298,4.270
13.907000,1.6222,1.4092,3.6498,4.235
13.908000,1.4387,1.4501,3.6239,4.160
13.908000,1.2229,1.4518,3.5618,4.036
13.908000,1.0081,1.4236,3.4778,3.891
13.908000,0.8302,1.3446,3.3606,3.714
13.909000,0.6938,1.2480,3.1863,3.492
13.909000,0.5722,1.1363,2.9650,3.226
13.909000,0.4770,1.0289,2.6782,2.908
13.910000,0.4126,0.9402,2.3648,2.578
13.960000,0.3472,0.8674,2.0368,2.241
13.961000,0.3047,0.7688,1.7171,1.906
13.961000,0.2703,0.6534,1.4199,1.586
13.962000,0.2343,0.5022,1.1383,1.266
13.962000,0.1654,0.3084,0.8535,0.922
13.962000,0.0876,0.1177,0.5992,0.617
13.962000,0.0342,-0.0419,0.3465,0.351
13.963000,0.0581,-0.1954,0.0768,0.218
13.963000,0.1232,-0.3480,-0.1907,0.416
13.963000,0.1936,-0.5308,-0.4370,0.714
13.964000,0.2241,-0.7507,-0.6741,1.034
13.968000,0.2173,-0.9645,-0.8922,1.332
13.974000,0.1566,-1.1676,-1.1060,1.616
13.979000,0.0813,-1.3277,-1.3248,1.877
13.983000,0.0010,-1.4955,-1.5419,2.148
13.987000,-0.0791,-1.6752,-1.7406,2.417
13.995000,-0.1704,-1.8835,-1.9091,2.687
13.998000,-0.2512,-2.1063,-2.0502,2.950
14.003000,-0.3373,-2.3300,-2.1686,3.201
14.007000,-0.4049,-2.5384,-2.2765,3.434
14.069000,-0.4727,-2.7287,-2.3790,3.651
14.075000,-0.5358,-2.8866,-2.4570,3.828
14.076000,-0.5967,-3.0409,-2.5011,3.982
14.080000,-0.6813,-3.2254,-2.5404,4.162
14.081000,-0.7989,-3.4221,-2.5915,4.366
14.083000,-0.9064,-3.6047,-2.6544,4.567
14.085000,-1.0087,-3.7688,-2.7149,4.753
14.086000,-1.0771,-3.9141,-2.7682,4.914
14.088000,-1.1166,-4.0559,-2.8026,5.055
14.089000,-1.1560,-4.1906,-2.8488,5.197
14.090000,-1.2076,-4.3047,-2.9117,5.335
14.091000,-1.2433,-4.4049,-2.9931,5.469
14.092000,-1.2754,-4.4791,-3.0784,5.583
14.093000,-1.2970,-4.5390,-3.1652,5.684
14.095000,-1.2916,-4.5780,-3.2342,5.752
14.097000,-1.2804,-4.5926,-3.2879,5.792
14.098000,-1.2683,-4.6074,-3.3194,5.819
14.099000,-1.2605,-4.6609,-3.3285,5.864
14.103000,-1.2529,-4.7433,-3.3412,5.936
14.109000,-1.2364,-4.8332,-3.3380,6.003
14.114000,-1.2276,-4.9571,-3.3167,6.089
14.119000,-1.2484,-5.1021,-3.2963,6.201
14.123000,-1.2553,-5.2539,-3.2387,6.298
14.210000,-1.2365,-5.4630,-3.1465,6.424
14.211000,-1.1825,-5.6959,-3.0412,6.564
14.211000,-1.0837,-5.9311,-2.9469,6.711
14.212000,-0.9858,-6.1546,-2.8803,6.866
14.212000,-0.8935,-6.3608,-2.8365,7.022
14.213000,-0.8306,-6.5474,-2.8275,7.180
14.213000,-0.7992,-6.7047,-2.8488,7.329
14.213000,-0.7850,-6.8611,-2.8547,7.473
14.214000,-0.8021,-7.0044,-2.8528,7.606
14.214000,-0.8098,-7.1133,-2.8596,7.709
14.214000,-0.8324,-7.1874,-2.8846,7.789
14.215000,-0.8484,-7.2051,-2.9516,7.832
14.215000,-0.8534,-7.1571,-3.0580,7.830
14.216000,-0.8453,-7.0409,-3.1462,7.758
14.216000,-0.8601,-6.9046,-3.1994,7.658
14.216000,-0.8953,-6.8154,-3.1796,7.574
14.217000,-0.9079,-6.8283,-3.0843,7.547
14.217000,-0.9049,-6.9626,-2.9378,7.611
14.220000,-0.9028,-7.1755,-2.7953,7.754
14.224000,-0.9183,-7.3429,-2.7430,7.892
14.230000,-0.9730,-7.4001,-2.8142,7.977
14.234000,-1.0671,-7.3901,-2.9391,8.024
14.240000,-1.1809,-7.4152,-3.0821,8.117
14.247000,-1.3163,-7.5154,-3.2049,8.276
14.250000,-1.4227,-7.6922,-3.3031,8.491
14.253000,-1.4758,-7.8710,-3.3552,8.683
14.340000,-1.4753,-7.9774,-3.4547,8.818
14.341000,-1.4353,-7.9820,-3.5969,8.872
14.341000,-1.3697,-7.8614,-3.7722,8.827
14.341000,-1.2591,-7.6463,-3.9642,8.704
14.342000,-1.0911,-7.3464,-4.1512,8.508
14.342000,-0.8706,-6.9854,-4.3477,8.274
14.342000,-0.6241,-6.5684,-4.4672,7.968
14.343000,-0.2894,-6.0784,-4.5263,7.584
14.343000,0.0251,-5.5193,-4.4938,7.117
14.344000,0.3147,-4.8916,-4.4033,6.589
14.344000,0.5962,-4.2418,-4.2548,6.037
14.344000,0.8502,-3.6090,-4.0294,5.476
14.345000,1.1200,-2.9871,-3.7727,4.941
14.345000,1.3883,-2.4099,-3.4726,4.449
14.345000,1.6473,-1.8698,-3.1533,4.019
14.345000,1.9041,-1.3983,-2.8100,3.671
14.346000,2.1295,-0.9627,-2.4618,3.394
14.346000,2.3136,-0.5925,-2.1304,3.200
14.350000,2.4539,-0.2760,-1.8231,3.069
14.355000,2.5381,0.0009,-1.5301,2.964
14.359000,2.5347,0.2084,-1.2638,2.840
14.364000,2.4366,0.3324,-1.0264,2.665
14.369000,2.2102,0.3610,-0.7989,2.378
14.374000,1.8581,0.3040,-0.6051,1.978
14.380000,1.4286,0.1478,-0.4451,1.504
14.384000,0.9653,-0.0540,-0.3284,1.021
14.389000,0.5066,-0.2918,-0.2504,0.636
14.478000,0.0743,-0.5333,-0.2083,0.577
14.480000,-0.2932,-0.7420,-0.2021,0.823
14.480000,-0.6200,-0.9342,-0.2193,1.143
14.480000,-0.9156,-1.1120,-0.2361,1.460
14.481000,-1.1821,-1.2340,-0.2403,1.726
14.481000,-1.4385,-1.3317,-0.2633,1.978
14.481000,-1.6821,-1.3807,-0.3075,2.198
14.482000,-1.9295,-1.4000,-0.3703,2.412
14.482000,-2.1780,-1.3798,-0.4112,2.611
14.483000,-2.4133,-1.3250,-0.4517,2.790
14.483000,-2.6425,-1.2424,-0.4916,2.961
14.483000,-2.8227,-1.1374,-0.5216,3.088
14.484000,-2.9179,-1.0121,-0.5319,3.134
14.484000,-2.9332,-0.8476,-0.5226,3.098
14.484000,-2.8662,-0.6346,-0.5154,2.980
14.485000,-2.7434,-0.4211,-0.5364,2.827
14.485000,-2.5557,-0.2246,-0.5835,2.631
14.485000,-2.3440,-0.0549,-0.6590,2.435
14.485000,-2.1203,0.0858,-0.7509,2.251
14.490000,-1.9087,0.1972,-0.8830,2.112
14.571000,-1.7428,0.2725,-1.0431,2.049
14.572000,-1.6200,0.3171,-1.1976,2.039
14.572000,-1.5377,0.3331,-1.3489,2.072
14.572000,-1.4695,0.3571,-1.4920,2.124
14.573000,-1.3624,0.3679,-1.6101,2.141
14.573000,-1.2139,0.3896,-1.6792,2.108
14.574000,-0.9999,0.3959,-1.7067,2.017
14.574000,-0.7204,0.4157,-1.6974,1.890
14.575000,-0.4043,0.4289,-1.6517,1.754
14.575000,-0.0660,0.4238,-1.5767,1.634
14.575000,0.2732,0.4148,-1.4511,1.534
14.576000,0.6396,0.4231,-1.2892,1.500
14.576000,1.0042,0.4559,-1.1032,1.560
14.576000,1.3408,0.5158,-0.8830,1.686
14.577000,1.6104,0.5754,-0.6243,1.821
14.577000,1.8108,0.6494,-0.3269,1.951
14.577000,1.9302,0.7159,0.0016,2.059
14.583000,1.9879,0.7748,0.3467,2.162
14.586000,2.0152,0.8117,0.6938,2.281
14.588000,2.0335,0.8624,1.0336,2.439
14.661000,2.0427,0.9213,1.3941,2.639
14.663000,2.0450,0.9886,1.7394,2.861
14.663000,2.0212,1.0662,2.0503,3.070
14.666000,1.9974,1.1683,2.2956,3.260
14.667000,1.9735,1.2761,2.4925,3.426
14.668000,1.9420,1.4031,2.6309,3.558
14.669000,1.9195,1.5330,2.7088,3.657
14.670000,1.9010,1.7040,2.7385,3.744
14.670000,1.8932,1.8969,2.7105,3.812
14.671000,1.8984,2.1070,2.6491,3.881
14.672000,1.9091,2.3298,2.5737,3.962
14.672000,1.9395,2.5600,2.4746,4.054
14.674000,1.9894,2.7739,2.3733,4.158
14.675000,2.0656,2.9764,2.2822,4.282
14.676000,2.1587,3.1578,2.2035,4.414
14.677000,2.2611,3.3230,2.1420,4.554
14.678000,2.3801,3.4602,2.1123,4.701
14.682000,2.4965,3.5594,2.1160,4.835
14.685000,2.5985,3.6255,2.1532,4.953
14.690000,2.6597,3.6369,2.2238,5.025
14.697000,2.6710,3.6201,2.3201,5.062
14.700000,2.6278,3.5656,2.4469,5.060
14.705000,2.5139,3.4687,2.5801,5.001
14.795000,2.3440,3.3247,2.7408,4.905
14.799000,2.1711,3.1649,2.8955,4.808
14.800000,2.0435,2.9873,3.0467,4.731
14.801000,1.9804,2.7992,3.2061,4.694
14.802000,1.9846,2.6080,3.3620,4.695
14.805000,1.9957,2.3898,3.5552,4.726
14.806000,1.9496,2.1303,3.7350,4.721
14.806000,1.8752,1.9110,3.8754,4.710
14.807000,1.7366,1.7586,4.0366,4.733
14.809000,1.5917,1.6945,4.2230,4.821
14.810000,1.4551,1.6946,4.3748,4.912
14.812000,1.2884,1.7329,4.5137,5.004
14.813000,1.1134,1.7567,4.7423,5.178
14.815000,0.9853,1.7852,4.9794,5.381
14.816000,0.8585,1.7729,5.2654,5.622
14.817000,0.7860,1.7461,5.5737,5.893
14.818000,0.7460,1.7261,5.8156,6.112
14.819000,0.7218,1.6794,6.0771,6.346
14.820000,0.7374,1.6226,6.3267,6.573
14.820000,0.8045,1.5601,6.5117,6.744
14.820000,0.9204,1.4991,6.6585,6.887
14.821000,1.0851,1.4586,6.7453,6.986
14.821000,1.2908,1.4335,6.7462,7.017
14.853000,1.5162,1.4239,6.6542,6.972
14.854000,1.7511,1.4108,6.5222,6.899
14.854000,2.0196,1.4134,6.3505,6.812
14.855000,2.3164,1.4245,6.1442,6.719
14.855000,2.6104,1.4489,5.9108,6.622
14.855000,2.8798,1.5322,5.6407,6.516
14.856000,3.1409,1.6788,5.3367,6.416
14.861000,3.3767,1.8958,4.9943,6.320
14.864000,3.6061,2.1427,4.7167,6.312
14.870000,3.7812,2.4000,4.4747,6.331
14.875000,3.9211,2.6579,4.2563,6.368
14.880000,4.0474,2.8877,4.1187,6.456
14.884000,4.1456,3.0604,4.0376,6.546
14.889000,4.2494,3.1736,4.0366,6.665
14.964000,4.3754,3.1888,4.0891,6.785
14.964000,4.5021,3.1225,4.1827,6.893
14.965000,4.6174,2.9485,4.2932,6.960
14.965000,4.7383,2.6855,4.3892,6.995
14.965000,4.8410,2.3581,4.4543,6.988
14.966000,4.9302,2.0140,4.4694,6.953
14.966000,5.0228,1.6703,4.4302,6.903
14.966000,5.0899,1.3443,4.3662,6.839
14.967000,5.1173,1.0459,4.3234,6.780
14.967000,5.1097,0.7631,4.3020,6.723
14.968000,5.0386,0.5685,4.3146,6.658
14.968000,4.9520,0.4496,4.3656,6.617
14.968000,4.8427,0.4183,4.4405,6.584
14.969000,4.7231,0.4576,4.5222,6.555
14.969000,4.5811,0.5335,4.6224,6.530
14.971000,4.4118,0.6456,4.7288,6.499
14.977000,4.2204,0.7603,4.8196,6.451
14.981000,3.9852,0.8891,4.8516,6.341
14.985000,3.7374,1.0223,4.8343,6.195
14.990000,3.4986,1.1597,4.7770,6.034
15.001000,3.2665,1.2937,4.6677,5.842
15.002000,3.0312,1.4361,4.5160,5.625
15.005000,2.7837,1.5633,4.3150,5.368
15.072000,2.5429,1.6775,4.0743,5.087
15.073000,2.3138,1.7642,3.7843,4.774
15.073000,2.1084,1.8141,3.4549,4.435
15.074000,1.9340,1.8174,3.1051,4.085
15.074000,1.8071,1.7740,2.7374,3.729
15.074000,1.7019,1.6944,2.3667,3.372
15.075000,1.5967,1.5685,2.0120,3.010
15.075000,1.4656,1.4015,1.6541,2.617
15.075000,1.3806,1.2294,1.3005,2.260
15.076000,1.3009,1.0861,0.9681,1.952
15.076000,1.2050,0.9373,0.6686,1.667
15.076000,1.1052,0.7558,0.3860,1.393
15.077000,1.0039,0.5482,0.1250,1.151
15.077000,0.8918,0.3221,-0.1146,0.955
15.081000,0.7716,0.0584,-0.3423,0.846
15.087000,0.6288,-0.2312,-0.5390,0.860
15.090000,0.5066,-0.5044,-0.7325,1.024
15.096000,0.4049,-0.7785,-0.9326,1.281
15.100000,0.3019,-1.0221,-1.1483,1.567
15.105000,0.1736,-1.2371,-1.3652,1.851
15.111000,0.0201,-1.4114,-1.5519,2.098
15.116000,-0.1608,-1.5763,-1.6943,2.320
15.120000,-0.3523,-1.7424,-1.7752,2.512
15.207000,-0.5659,-1.9317,-1.8239,2.716
15.208000,-0.7706,-2.1295,-1.8522,2.926
15.208000,-0.9520,-2.3144,-1.8700,3.124
15.208000,-1.0984,-2.4768,-1.9034,3.311
15.208000,-1.2148,-2.6198,-1.9310,3.474
15.209000,-1.3181,-2.7611,-1.9641,3.636
15.209000,-1.4181,-2.9013,-1.9983,3.798
15.209000,-1.5027,-3.0452,-2.0359,3.959
15.210000,-1.5600,-3.1876,-2.0578,4.102
15.210000,-1.5949,-3.3333,-2.0736,4.237
15.211000,-1.6050,-3.4900,-2.0693,4.363
15.211000,-1.6120,-3.6447,-2.0610,4.487
15.211000,-1.5968,-3.8029,-2.0516,4.607
15.212000,-1.5787,-3.9718,-2.0530,4.742
15.212000,-1.5721,-4.1203,-2.0771,4.875
15.212000,-1.5769,-4.2722,-2.1145,5.021
15.213000,-1.5739,-4.4209,-2.1725,5.171
15.213000,-1.5776,-4.5651,-2.2459,5.327
15.216000,-1.5713,-4.7004,-2.3491,5.485
15.221000,-1.5647,-4.8195,-2.4320,5.621
15.226000,-1.5602,-4.9297,-2.5351,5.759
15.231000,-1.5292,-5.0217,-2.6372,5.875
15.236000,-1.4837,-5.0754,-2.7474,5.959
15.241000,-1.4335,-5.1294,-2.8443,6.038
15.247000,-1.3642,-5.1528,-2.9352,6.085
15.257000,-1.2784,-5.1552,-3.0200,6.110
15.258000,-1.1952,-5.1487,-3.1014,6.128
15.325000,-1.1316,-5.1601,-3.1528,6.152
15.326000,-1.0950,-5.1934,-3.1694,6.182
15.326000,-1.0545,-5.2753,-3.1680,6.243
15.326000,-1.0195,-5.3937,-3.1413,6.325
15.327000,-0.9759,-5.5367,-3.1230,6.431
15.327000,-0.9739,-5.6970,-3.1131,6.565
15.328000,-0.9942,-5.8725,-3.0852,6.708
15.328000,-1.0176,-6.0574,-3.0610,6.863
15.329000,-1.0322,-6.2424,-3.0453,7.022
15.329000,-1.0236,-6.4490,-3.0142,7.192
15.329000,-0.9962,-6.6602,-2.9680,7.359
15.330000,-0.9881,-6.8784,-2.9236,7.539
15.330000,-0.9730,-7.1015,-2.8883,7.728
15.330000,-0.9700,-7.2904,-2.8668,7.894
15.331000,-0.9698,-7.4405,-2.8828,8.038
15.336000,-0.9868,-7.5421,-2.9340,8.153
15.340000,-1.0140,-7.5951,-3.0273,8.239
15.384000,-1.0586,-7.5878,-3.1507,8.284
15.385000,-1.1088,-7.5508,-3.2994,8.314
15.385000,-1.1812,-7.5057,-3.4327,8.337
15.386000,-1.2258,-7.4955,-3.5361,8.378
15.386000,-1.2401,-7.5322,-3.6098,8.444
15.386000,-1.2411,-7.6180,-3.6538,8.540
15.387000,-1.2553,-7.7267,-3.6918,8.655
15.387000,-1.2776,-7.8080,-3.7551,8.758
15.387000,-1.3417,-7.8425,-3.8890,8.856
15.392000,-1.4380,-7.8494,-4.0336,8.941
15.397000,-1.5425,-7.8472,-4.1457,9.008
15.403000,-1.6546,-7.8716,-4.2952,9.119
15.406000,-1.7572,-7.9363,-4.4270,9.256
15.411000,-1.8138,-7.9931,-4.5345,9.367
15.416000,-1.8166,-8.0273,-4.6299,9.443
15.421000,-1.8037,-8.0362,-4.7206,9.493
15.471000,-1.7770,-8.0102,-4.8308,9.521
15.472000,-1.7337,-7.9396,-4.9414,9.511
15.473000,-1.6830,-7.8356,-5.0549,9.475
15.473000,-1.6100,-7.6846,-5.1859,9.410
15.473000,-1.4859,-7.4502,-5.3273,9.279
15.474000,-1.3105,-7.1106,-5.4717,9.067
15.474000,-1.0194,-6.6352,-5.6021,8.744
15.475000,-0.6559,-6.0339,-5.6657,8.303
15.475000,-0.2513,-5.3284,-5.6287,7.755
15.475000,0.1820,-4.5901,-5.5224,7.183
15.480000,0.5219,-3.8865,-5.3345,6.621
15.482000,0.8306,-3.2686,-5.1057,6.119
15.487000,1.1291,-2.7421,-4.8072,5.648
15.493000,1.4028,-2.2696,-4.4701,5.206
15.498000,1.6631,-1.8225,-4.1131,4.796
15.502000,1.9239,-1.3980,-3.7267,4.421
15.506000,2.1703,-0.9986,-3.3276,4.096
15.590000,2.4019,-0.6226,-2.9133,3.827
15.591000,2.6041,-0.2872,-2.4743,3.604
15.592000,2.7696,-0.0122,-2.0276,3.432
15.592000,2.8506,0.2051,-1.5804,3.266
15.593000,2.8612,0.3465,-1.1354,3.098
15.593000,2.7681,0.4148,-0.6881,2.882
15.593000,2.5617,0.4193,-0.2290,2.606
15.593000,2.2493,0.3552,0.2393,2.290
15.594000,1.8363,0.2034,0.6900,1.972
15.594000,1.4378,0.0434,1.1182,1.822
15.594000,1.0705,-0.1332,1.4922,1.841
15.594000,0.6893,-0.3353,1.7690,1.928
15.595000,0.2850,-0.5504,1.9605,2.056
15.595000,-0.1327,-0.7302,2.0693,2.198
15.595000,-0.5829,-0.8809,2.1078,2.358
15.596000,-1.0565,-0.9853,2.1125,2.559
15.596000,-1.5463,-1.0481,2.1027,2.813
15.596000,-2.0332,-1.0735,2.0834,3.103
15.603000,-2.4906,-1.0540,2.0379,3.386
15.608000,-2.8996,-1.0229,1.9641,3.648
15.613000,-3.2197,-0.9556,1.8673,3.843
15.618000,-3.4514,-0.8768,1.7688,3.976
15.622000,-3.5544,-0.7912,1.6354,3.992
15.630000,-3.5197,-0.6749,1.4769,3.876
15.634000,-3.3693,-0.5711,1.2768,3.648
15.636000,-3.1181,-0.4465,1.0424,3.318
15.727000,-2.8165,-0.3390,0.7692,2.939
15.728000,-2.5150,-0.2470,0.4738,2.571
15.729000,-2.2210,-0.1747,0.1565,2.233
15.729000,-1.9487,-0.1171,-0.1372,1.957
15.729000,-1.6715,-0.0739,-0.4049,1.721
15.729000,-1.3767,-0.0401,-0.6324,1.516
15.729000,-1.0472,-0.0152,-0.8033,1.320
15.730000,-0.6684,0.0385,-0.9587,1.169
15.730000,-0.3453,0.0924,-1.0890,1.146
15.730000,-0.0775,0.1515,-1.2040,1.216
15.731000,0.1139,0.1821,-1.2849,1.303
15.731000,0.2321,0.1870,-1.3224,1.356
15.731000,0.3712,0.1620,-1.3454,1.405
15.731000,0.5195,0.1159,-1.3043,1.409
15.732000,0.7443,0.0803,-1.1872,1.404
15.732000,1.0123,0.0623,-1.0637,1.470
15.732000,1.2591,0.0883,-0.9506,1.580
15.732000,1.5445,0.1941,-0.8550,1.776
15.733000,1.8251,0.3295,-0.7192,1.989
15.738000,2.0694,0.4577,-0.5555,2.191
15.743000,2.3203,0.5668,-0.3784,2.418
15.747000,2.4893,0.6255,-0.2020,2.575
15.753000,2.6432,0.6720,-0.0313,2.727
15.757000,2.7767,0.7229,0.1102,2.871
15.762000,2.8802,0.7859,0.2277,2.994
15.768000,2.9384,0.8769,0.3308,3.084
15.771000,2.9462,0.9772,0.4202,3.132
15.876000,2.9225,1.0917,0.5034,3.160
15.877000,2.8885,1.2251,0.5999,3.194
15.877000,2.9111,1.3680,0.7096,3.294
15.878000,2.9735,1.5325,0.8471,3.451
15.878000,3.0795,1.7392,1.0002,3.675
15.878000,3.1909,1.9593,1.1568,3.919
15.879000,3.2760,2.1996,1.3219,4.161
15.879000,3.3296,2.4360,1.4856,4.385
15.879000,3.3373,2.6685,1.6601,4.584
15.880000,3.3085,2.8843,1.8376,4.758
15.880000,3.2385,3.0884,2.0085,4.905
15.880000,3.1321,3.2808,2.1703,5.028
15.881000,3.0060,3.4520,2.3542,5.147
15.881000,2.8651,3.6209,2.5671,5.283
15.881000,2.6976,3.7567,2.7972,5.405
15.882000,2.5178,3.8637,3.0604,5.535
15.882000,2.3213,3.9228,3.3303,5.645
15.882000,2.1132,3.9461,3.6018,5.745
15.883000,1.9105,3.9264,3.8938,5.850
15.883000,1.6823,3.8662,4.1917,5.945
15.883000,1.4863,3.7729,4.4668,6.033
