time,ax,ay,az,aT
0.005000,1.3975,0.9903,-0.0749,1.714
0.006000,1.6044,1.0259,0.3689,1.940
0.007000,1.8880,0.9914,0.7486,2.260
0.008000,2.0847,0.9588,0.9623,2.488
0.008000,2.0961,0.9181,0.9808,2.490
0.008000,1.9237,0.8771,0.9262,2.308
0.009000,1.6091,0.8572,0.7681,1.978
0.009000,1.2593,0.7893,0.6142,1.608
0.009000,1.0231,0.7735,0.4429,1.357
0.016000,0.9444,0.7003,0.2090,1.194
0.017000,0.8980,0.5536,-0.0278,1.055
0.058000,0.6721,0.4794,-0.2939,0.876
0.058000,0.3243,0.4225,-0.5416,0.760
0.059000,-0.0890,0.3735,-0.7950,0.883
0.059000,-0.4108,0.3399,-0.9332,1.075
0.059000,-0.6229,0.3928,-1.0472,1.280
0.060000,-0.7964,0.4335,-1.0942,1.421
0.060000,-0.8063,0.4071,-1.0722,1.402
0.060000,-0.7081,0.3780,-1.1150,1.374
0.065000,-0.5818,0.3917,-1.0364,1.251
0.066000,-0.3869,0.3832,-1.0181,1.155
0.077000,-0.3038,0.3431,-1.0499,1.146
0.078000,-0.2434,0.2864,-1.2244,1.281
0.082000,-0.1371,0.3684,-1.3961,1.450
0.096000,-0.0279,0.5148,-1.1653,1.274
0.097000,0.1334,0.6112,-1.0625,1.233
0.097000,0.3821,0.7598,-0.9916,1.306
0.115000,0.6118,0.9413,-0.6289,1.287
0.116000,0.7954,1.0502,-0.2446,1.340
0.116000,0.8577,0.9988,-0.1813,1.329
0.116000,0.9549,0.6424,-0.2347,1.175
0.134000,0.6824,0.5350,0.1502,0.880
0.135000,0.3277,1.0958,0.1408,1.152
0.136000,0.5543,1.2677,-0.8556,1.627
0.137000,0.6839,1.2384,-1.7037,2.214
0.144000,0.7617,1.2073,-1.8195,2.313
0.148000,0.8916,1.0621,-1.6597,2.163
0.158000,0.9756,0.7945,-1.4689,1.934
0.160000,0.9430,0.5405,-1.3040,1.698
0.162000,0.7824,0.3519,-1.1739,1.454
0.165000,0.7780,-0.2258,-1.6526,1.840
0.170000,0.5217,-0.4513,-2.0585,2.171
0.178000,-0.1802,0.0173,-1.7592,1.769
0.179000,-0.8043,0.3350,-1.4250,1.670
0.186000,-1.3026,0.4417,-1.2361,1.849
0.190000,-1.5294,0.4504,-1.1560,1.969
0.195000,-1.6790,0.3446,-1.1028,2.038
0.202000,-1.6406,0.1706,-1.0550,1.958
0.206000,-1.3654,-0.0049,-0.9002,1.635
0.210000,-0.7255,-0.4157,-0.5936,1.025
0.215000,0.4182,-1.4709,-0.0529,1.530
0.221000,-0.3488,-1.6801,0.6442,1.833
0.225000,-1.3320,-1.7808,1.1510,2.504
0.231000,-1.4253,-1.7680,1.2660,2.600
0.244000,-1.1078,-1.4504,1.2962,2.239
0.245000,-0.8282,-1.0977,1.3678,1.940
0.245000,-0.6960,-0.7829,1.3095,1.677
0.254000,-0.6370,-0.4527,1.1384,1.381
0.256000,-0.6781,-0.1634,0.9937,1.214
0.262000,-0.7220,0.0556,0.9186,1.170
0.265000,-0.7682,0.2913,0.7966,1.144
0.273000,-0.7352,0.4869,0.6589,1.101
0.274000,-0.5986,0.6210,0.4826,0.988
0.282000,-0.4726,0.7393,0.2964,0.926
0.286000,-0.3008,0.8800,0.1911,0.949
0.289000,-0.1189,0.9513,0.0829,0.962
0.296000,-0.0036,1.0341,-0.0185,1.034
0.299000,0.0853,1.1847,-0.1274,1.195
0.305000,0.1286,1.3746,-0.2438,1.402
0.310000,0.1573,1.5187,-0.2438,1.546
0.314000,0.1953,1.6918,-0.2066,1.716
0.321000,0.1967,1.8738,-0.2183,1.897
0.324000,0.2423,2.0397,-0.1545,2.060
0.330000,0.3000,2.1734,0.1510,2.199
0.338000,0.3799,2.3403,0.6258,2.452
0.342000,0.5246,2.6222,1.1072,2.894
0.345000,0.8356,2.8418,1.3616,3.260
0.351000,0.5433,2.5250,2.8217,3.825
0.355000,-0.0646,1.6127,7.3972,7.571
0.359000,1.2206,1.0759,3.8128,4.145
0.364000,2.3695,1.0387,-1.4984,2.990
0.370000,1.7684,1.4761,-0.9782,2.503
0.373000,0.0242,1.8792,1.3017,2.286
0.379000,-1.5237,2.0022,2.2295,3.362
0.384000,-2.1382,1.7912,2.2712,3.597
0.389000,-1.7585,1.5768,1.9717,3.077
0.394000,-1.3943,1.1325,0.6821,1.921
0.398000,-1.3023,0.6944,-0.7587,1.659
0.403000,-1.0392,0.3766,-1.8854,2.185
0.409000,-0.6225,0.2249,-2.3776,2.468
0.413000,-0.1549,0.2108,-2.4243,2.438
0.420000,0.1853,0.3592,-2.1515,2.189
0.427000,0.1137,0.4646,-1.8655,1.926
0.428000,-0.1964,0.6639,-1.6331,1.774
0.434000,-0.3354,0.9416,-1.7138,1.984
0.439000,-0.0803,1.1858,-2.2231,2.521
0.443000,0.1269,1.4165,-2.6300,2.990
0.448000,0.2657,1.5460,-2.8776,3.277
0.454000,-0.2475,0.8553,-3.0263,3.155
0.458000,-1.4913,-0.8186,-3.2865,3.701
0.463000,-0.7397,-0.2244,-3.2712,3.361
0.470000,0.0559,0.7893,-2.9075,3.013
0.474000,0.0219,1.5764,-2.1182,2.640
0.478000,0.0331,2.2101,-1.4200,2.627
0.483000,-0.1411,2.4156,-1.8757,3.062
0.488000,-0.5393,2.1195,-3.0514,3.754
0.493000,-0.9656,1.7299,-3.6589,4.161
0.497000,-1.1287,1.3842,-3.7103,4.118
0.503000,-1.1673,1.1472,-3.5154,3.878
0.508000,-1.0777,1.0870,-3.2659,3.607
0.513000,-0.9001,1.1166,-3.2099,3.516
0.519000,-0.6267,1.1402,-3.2584,3.509
0.527000,-0.3925,1.1867,-3.3083,3.537
0.528000,-0.1726,1.2703,-3.2618,3.505
0.532000,0.0099,1.3767,-3.1957,3.480
0.538000,0.1360,1.3987,-3.1790,3.476
0.543000,0.1640,1.3389,-3.0686,3.352
0.547000,0.2073,1.2835,-2.7718,3.062
0.554000,0.2650,1.2392,-2.4876,2.792
0.558000,0.1775,1.0274,-1.9655,2.225
0.562000,-0.0787,-0.2478,1.1522,1.181
0.569000,-0.2462,-0.1687,-2.5513,2.569
0.572000,-2.6510,0.0687,-2.8073,3.862
0.577000,-3.2327,-0.0483,-0.2589,3.243
0.583000,-1.9906,0.0855,1.2120,2.332
0.587000,-0.7058,0.7549,1.9267,2.186
0.592000,-0.4591,1.2264,2.6558,2.961
0.596000,-0.6260,1.0294,3.1520,3.374
0.603000,-0.6632,0.6670,2.7527,2.909
0.610000,-0.6443,0.5403,2.1021,2.264
0.611000,-0.4535,0.5967,1.4822,1.661
0.616000,-0.2123,0.7139,1.0407,1.280
0.621000,-0.0122,0.8385,0.6451,1.058
0.626000,0.0921,1.0220,0.2833,1.064
0.632000,0.1692,1.1957,-0.0359,1.208
0.637000,0.2466,1.3147,-0.2811,1.367
0.646000,0.3790,1.4223,-0.3763,1.519
0.647000,0.6599,1.4675,-0.1597,1.617
0.653000,1.0328,1.5642,0.3654,1.910
0.657000,1.4925,1.6343,0.7564,2.339
0.662000,1.7952,1.4596,0.7300,2.426
0.667000,1.7109,1.0506,0.3805,2.043
0.672000,1.5326,0.6713,-0.0431,1.674
0.677000,1.5413,0.4682,-0.8029,1.800
0.681000,1.4213,0.4702,-1.9039,2.422
0.697000,1.0286,0.4869,-2.7887,3.012
0.699000,0.5568,0.3788,-3.4410,3.506
0.700000,0.1811,0.2098,-3.9694,3.979
0.704000,-0.0638,0.0010,-4.3431,4.344
0.707000,-0.2600,-0.2083,-4.3415,4.354
0.711000,-0.5005,-0.4052,-4.0173,4.069
0.717000,-0.5760,-0.6853,-3.5369,3.648
0.721000,-0.4489,-0.8102,-2.9879,3.128
0.726000,-0.1312,-0.8053,-2.5724,2.699
0.737000,0.2135,-0.7375,-2.2345,2.363
0.738000,0.3686,-0.9545,-1.6518,1.943
0.743000,0.4628,-1.3645,-0.9699,1.737
0.746000,0.6449,-1.6459,-0.3800,1.808
0.753000,0.8119,-1.8494,-0.0224,2.020
0.756000,0.9967,-2.0192,0.0910,2.254
0.763000,1.1578,-2.0485,-0.0400,2.353
0.765000,1.3785,-1.9944,-0.4381,2.464
0.772000,1.6479,-1.9000,-1.0056,2.709
0.776000,2.4219,-1.7781,-2.0316,3.627
0.794000,3.2936,-1.6381,-3.2340,4.898
0.796000,2.6997,-1.5940,-3.1253,4.427
0.797000,2.0694,-1.7549,-3.2081,4.202
0.797000,1.7962,-2.1405,-3.1228,4.190
0.803000,1.8768,-2.5481,-3.0201,4.375
0.809000,2.0373,-2.8410,-2.8898,4.536
0.810000,2.0777,-3.0730,-2.9928,4.766
0.816000,1.9126,-3.3644,-3.2283,5.040
0.820000,1.1746,-3.7917,-3.3760,5.211
0.825000,0.7503,-3.9346,-3.3179,5.201
0.830000,0.8772,-3.8275,-3.2738,5.112
0.836000,0.9652,-3.9268,-3.5255,5.365
0.840000,0.8361,-4.1826,-3.8623,5.754
0.845000,0.6428,-4.4866,-3.4900,5.720
0.850000,0.7777,-4.9607,-1.9486,5.386
0.855000,0.9606,-5.4664,0.0042,5.550
0.860000,0.3000,-5.8043,-0.1343,5.814
0.864000,-0.2793,-5.8320,-1.6295,6.062
0.870000,0.6059,-5.6042,-2.1844,6.045
0.875000,1.9696,-5.3706,-1.8089,6.000
0.880000,2.7861,-5.0608,-1.3170,5.925
0.887000,3.2220,-4.5367,-1.3393,5.723
0.890000,3.8009,-4.0082,-1.6590,5.768
0.896000,4.5616,-3.6184,-1.9123,6.128
0.899000,5.1562,-3.4378,-2.0060,6.514
0.904000,5.4388,-3.3865,-2.0676,6.732
0.909000,5.3373,-3.4933,-2.2513,6.764
0.914000,5.1450,-3.7334,-2.3461,6.776
0.921000,4.8379,-4.0135,-2.5513,6.784
0.925000,4.5366,-4.3165,-2.7300,6.831
0.930000,4.3505,-4.8220,-2.7417,7.049
0.936000,4.1894,-5.2909,-2.6252,7.241
0.939000,4.0542,-5.6783,-2.2404,7.328
0.945000,3.9230,-5.9813,-1.4827,7.305
0.950000,3.8386,-6.2499,-0.5007,7.352
0.955000,3.8612,-6.4678,0.3130,7.539
0.959000,3.8879,-6.6091,1.0426,7.738
0.964000,3.8924,-6.6533,1.6240,7.877
0.969000,3.9076,-6.6693,1.9920,7.982
0.974000,3.7135,-6.6695,2.2724,7.965
0.979000,3.5801,-6.5587,2.5414,7.893
0.986000,3.5854,-6.4084,2.7924,7.856
0.989000,3.5781,-6.1197,3.0623,7.722
0.994000,3.5172,-5.7305,3.3277,7.502
1.002000,3.4885,-5.3635,3.5363,7.310
1.006000,3.5133,-5.0356,3.6659,7.151
1.013000,3.5195,-4.7678,3.7613,7.019
1.014000,3.6572,-4.4227,3.9863,6.988
1.039000,3.7349,-4.0503,4.1749,6.913
1.040000,3.6473,-3.6758,4.4123,6.803
1.041000,3.4881,-3.4033,4.5324,6.655
1.041000,3.5150,-3.1706,4.6441,6.631
1.042000,3.5628,-2.9611,4.7360,6.625
1.043000,3.4375,-2.7491,4.8919,6.581
1.049000,3.1332,-2.5829,5.1634,6.569
1.055000,2.7670,-2.4365,5.5126,6.632
1.058000,2.4781,-2.2174,5.8120,6.696
1.064000,2.3591,-1.9071,6.0097,6.732
1.070000,2.2657,-1.5045,6.0985,6.677
1.074000,2.2480,-1.0620,6.1040,6.591
1.079000,2.2766,-0.6477,5.9727,6.425
1.083000,2.2560,-0.3206,5.8737,6.300
1.088000,2.3627,-0.0024,5.8613,6.320
1.093000,2.4596,0.2752,5.8421,6.345
1.107000,2.4231,0.5729,5.7596,6.275
1.109000,2.4366,0.8036,5.5745,6.137
1.110000,2.5434,1.0280,5.3169,5.983
1.113000,2.6927,1.3006,5.1568,5.961
1.130000,2.7288,1.5581,5.0682,5.963
1.132000,2.6498,1.8224,4.9350,5.890
1.136000,2.6591,2.0655,4.6328,5.727
1.137000,2.7586,2.1556,4.4177,5.637
1.138000,2.7735,2.2193,4.3931,5.650
1.143000,2.7088,2.2804,4.5128,5.736
1.148000,2.6794,2.3227,4.6687,5.863
1.154000,2.6632,2.4035,4.7827,5.979
1.157000,2.6765,2.4791,4.7890,6.020
1.163000,2.6673,2.5986,4.7436,6.031
1.169000,2.7239,2.7017,4.7627,6.116
1.174000,2.7863,2.7954,4.7916,6.208
1.177000,2.8077,2.9332,4.8007,6.288
1.182000,2.8352,3.1239,4.8302,6.413
1.189000,2.8284,3.2478,4.8114,6.457
1.193000,2.7132,3.2623,4.7988,6.406
1.198000,2.6472,3.3036,4.7962,6.397
1.206000,2.6042,3.4152,4.8172,6.454
1.208000,2.6718,3.5937,4.8371,6.592
1.213000,2.8450,3.7174,4.8247,6.722
1.218000,2.9583,3.7665,4.7515,6.746
1.227000,2.9614,3.7625,4.7204,6.724
1.229000,2.7502,3.7898,4.5789,6.549
1.234000,2.6092,3.7862,4.3655,6.340
1.237000,2.7036,3.7522,4.2195,6.260
1.242000,2.9252,3.8169,4.1966,6.383
1.247000,2.9108,3.9316,4.2692,6.493
1.253000,2.7470,4.0319,4.2723,6.485
1.257000,2.5274,4.0367,4.3019,6.418
1.262000,2.3740,3.9635,4.3187,6.324
1.268000,2.2988,3.8606,4.3507,6.254
1.272000,2.1893,3.6470,4.3186,6.062
1.277000,1.9767,3.4381,4.2507,5.813
1.281000,1.7810,3.3207,4.2060,5.647
1.288000,1.6955,3.1611,4.1272,5.468
1.292000,1.6532,3.0048,4.0551,5.311
1.297000,1.6851,2.8518,4.0382,5.223
1.306000,1.7626,2.6042,4.0503,5.128
1.308000,1.8618,2.2983,4.1226,5.074
1.312000,1.9041,1.9801,4.2690,5.076
1.317000,1.8756,1.6810,4.4625,5.124
1.328000,1.9152,1.5066,4.6926,5.288
1.330000,1.9584,1.3850,4.8122,5.377
1.331000,2.1220,1.3350,4.7925,5.409
1.338000,2.4387,1.3174,4.7142,5.469
1.341000,2.8581,1.2101,4.5217,5.484
1.347000,3.2029,1.1347,4.2430,5.436
1.353000,3.2177,1.0929,4.0353,5.276
1.358000,3.2239,1.0374,3.8074,5.096
1.361000,3.4365,1.0708,3.6517,5.128
1.366000,3.9102,1.1596,3.4152,5.320
1.372000,4.3836,1.3269,3.1614,5.565
1.377000,4.7293,1.4709,3.0454,5.814
1.381000,4.8662,1.5389,2.9415,5.891
1.386000,4.9953,1.5191,2.8540,5.950
1.391000,5.2287,1.4973,2.6694,6.059
1.396000,5.3652,1.3732,2.3245,6.006
1.401000,5.3595,1.2544,2.0529,5.875
1.405000,5.1930,0.9839,2.0284,5.661
1.412000,5.2509,0.8870,2.1305,5.736
1.416000,5.2814,0.9561,2.1191,5.770
1.422000,5.1912,1.1377,1.9889,5.674
1.426000,5.0115,1.1854,2.0372,5.538
1.431000,4.9649,1.0784,1.9708,5.450
1.439000,4.6524,0.6026,1.4584,4.913
1.440000,3.7385,-0.2730,0.9450,3.866
1.446000,4.8621,0.9685,1.6113,5.213
1.452000,5.9128,2.0960,1.6527,6.487
1.458000,6.0011,2.5608,1.8224,6.774
1.460000,5.4871,2.6717,2.0947,6.452
1.466000,4.8672,2.2677,2.2250,5.812
1.471000,4.5372,1.6216,2.3320,5.353
1.475000,4.4874,1.2841,2.4363,5.265
1.480000,4.4381,1.3957,2.3747,5.223
1.486000,4.0715,1.7021,2.1561,4.912
1.490000,3.6009,1.9047,1.8401,4.470
1.495000,3.3539,2.0444,1.5809,4.234
1.502000,3.3915,2.0898,1.4011,4.223
1.505000,3.4428,2.1219,1.3826,4.274
1.510000,3.4164,2.1971,1.3527,4.281
1.518000,3.3291,2.2631,1.2818,4.225
1.522000,3.4077,2.3004,1.2222,4.289
1.526000,3.5395,2.2777,1.2466,4.390
1.530000,3.5517,2.2306,1.2141,4.366
1.542000,3.4733,2.1180,1.1597,4.230
1.543000,3.3764,1.9261,1.0070,4.016
1.545000,3.2993,1.7124,0.7468,3.791
1.550000,3.1653,1.4386,0.4774,3.510
1.560000,3.2376,1.1674,0.2019,3.448
1.562000,3.5299,0.9394,0.1984,3.658
1.564000,3.7383,0.7210,0.3951,3.828
1.570000,3.8529,0.5686,0.6019,3.941
1.575000,3.8865,0.4538,0.8114,3.996
1.579000,3.8008,0.2497,0.8944,3.913
1.585000,3.6060,-0.0313,0.8318,3.701
1.590000,3.3599,-0.3435,0.7191,3.453
1.594000,3.1063,-0.6141,0.4536,3.199
1.599000,2.9197,-0.8189,0.1643,3.037
1.604000,2.7427,-0.9907,-0.0721,2.917
1.609000,2.5018,-1.1122,-0.2769,2.752
1.614000,2.2758,-1.2077,-0.4692,2.619
1.620000,2.0765,-1.2938,-0.5535,2.508
1.624000,1.9091,-1.3414,-0.6542,2.423
1.629000,1.7976,-1.3785,-0.7523,2.387
1.639000,1.6244,-1.3915,-0.6395,2.232
1.641000,1.3854,-1.3749,-0.4818,2.010
1.644000,1.2622,-1.3533,-0.2225,1.864
1.664000,1.3479,-1.2545,0.0540,1.842
1.667000,1.4527,-1.0994,0.4622,1.880
1.668000,1.4812,-0.9478,0.9893,2.018
1.669000,1.4519,-0.7464,1.4627,2.192
1.670000,1.3104,-0.5910,1.8314,2.328
1.675000,1.1262,-0.5243,2.0164,2.368
1.679000,0.8870,-0.5641,2.0827,2.333
1.686000,0.5075,-0.6642,1.9227,2.097
1.689000,0.0789,-0.7329,1.7207,1.872
1.694000,-0.3124,-0.8579,1.5205,1.774
1.698000,-0.5683,-0.9595,1.3390,1.743
1.704000,-0.8637,-1.0357,1.2057,1.809
1.709000,-1.1576,-1.0950,0.9984,1.880
1.713000,-1.4262,-1.1643,0.7939,2.005
1.719000,-1.5523,-1.2380,0.5900,2.071
1.724000,-1.6414,-1.3973,0.5424,2.223
1.729000,-1.7391,-1.5271,0.4265,2.353
1.735000,-1.6924,-1.6108,0.4007,2.370
1.738000,-1.6740,-1.6590,0.5035,2.410
1.744000,-1.7602,-1.6832,0.5440,2.495
1.748000,-1.8411,-1.7605,0.4766,2.592
1.753000,-1.7609,-1.9740,0.4938,2.691
1.758000,-1.5439,-2.2418,0.5664,2.780
1.763000,-1.5180,-2.4937,0.8360,3.037
1.771000,-1.6993,-2.6544,1.1252,3.347
1.773000,-1.9773,-2.8315,1.2873,3.686
1.780000,-2.2467,-3.0392,1.4635,4.053
1.784000,-2.3998,-3.2573,1.5240,4.323
1.790000,-2.5681,-3.4497,1.4620,4.542
1.793000,-2.7422,-3.6305,1.3402,4.743
1.799000,-2.9627,-3.7870,1.2381,4.965
1.805000,-3.2224,-3.9483,1.0679,5.207
1.808000,-3.3350,-4.1346,1.0001,5.405
1.813000,-3.3439,-4.2676,1.0282,5.518
1.820000,-3.3545,-4.3495,1.1091,5.604
1.823000,-3.4790,-4.3461,1.1660,5.688
1.828000,-3.7270,-4.3667,1.1662,5.858
1.833000,-3.9453,-4.3601,1.1233,5.986
1.838000,-3.9162,-4.3881,1.0692,5.978
1.843000,-3.7407,-4.4535,0.9506,5.893
1.847000,-3.6961,-4.5107,0.9175,5.903
1.853000,-3.7658,-4.5318,0.9250,5.964
1.858000,-3.8204,-4.4827,0.8608,5.952
1.863000,-3.7452,-4.4870,0.9164,5.916
1.873000,-3.6721,-4.4422,0.8587,5.827
1.874000,-3.5915,-4.4244,0.7073,5.742
1.877000,-3.5347,-4.3313,0.6555,5.629
1.883000,-3.4394,-4.2778,0.6288,5.525
1.896000,-3.4657,-4.2637,0.4869,5.516
1.898000,-3.4581,-4.3038,0.2720,5.528
1.898000,-3.2157,-4.3335,0.1485,5.398
1.905000,-2.9230,-4.3611,0.1618,5.253
1.907000,-2.7237,-4.4522,0.2046,5.223
1.912000,-2.7155,-4.6217,-0.0022,5.360
1.919000,-2.7525,-4.7932,-0.1727,5.530
1.922000,-2.6601,-5.0760,-0.3658,5.742
1.927000,-2.6944,-5.4335,-0.5557,6.090
1.932000,-2.8288,-5.7589,-0.7001,6.454
1.936000,-2.9340,-5.9717,-0.6640,6.687
1.942000,-2.7757,-6.1122,-0.4837,6.730
1.946000,-2.4287,-6.2256,-0.2965,6.689
1.952000,-2.1656,-6.2556,-0.1767,6.622
1.956000,-2.4117,-6.3504,-0.2220,6.797
1.962000,-2.5590,-6.3933,-0.1516,6.888
1.970000,-2.4400,-6.4811,0.0348,6.925
1.971000,-2.1104,-6.5613,0.1481,6.894
1.979000,-1.8332,-6.6208,0.1836,6.872
1.981000,-1.6394,-6.6212,0.1326,6.822
1.986000,-1.4046,-6.5235,0.0557,6.673
1.992000,-1.2652,-6.4438,-0.0154,6.567
1.996000,-1.0226,-6.3187,-0.1804,6.403
2.002000,-0.6199,-6.1425,-0.4806,6.192
2.006000,-0.1194,-6.1406,-0.7611,6.189
2.011000,0.2538,-6.3037,-0.8850,6.371
2.017000,0.7939,-6.4093,-1.0449,6.542
2.022000,2.5739,-6.2519,-1.4761,6.920
2.029000,3.0505,-6.0483,-1.0536,6.856
2.032000,0.6920,-6.2013,-0.0108,6.240
2.038000,-0.6672,-6.4670,1.0672,6.588
2.041000,-0.7943,-6.7384,2.1676,7.123
2.047000,-0.0859,-6.7000,2.9834,7.335
2.054000,1.0090,-6.2835,3.3127,7.175
2.056000,1.9348,-5.6681,3.0700,6.730
2.061000,2.0415,-5.1669,2.6832,6.170
2.067000,1.4929,-4.9350,2.2293,5.617
2.073000,0.7660,-4.8391,2.1345,5.344
2.075000,0.0599,-4.7774,2.2914,5.299
2.081000,-0.5296,-4.7050,2.7325,5.467
2.085000,-1.0408,-4.6190,3.2407,5.738
2.090000,-1.3445,-4.5134,3.6279,5.945
2.095000,-1.4862,-4.2751,3.9267,5.992
2.100000,-1.4089,-3.8158,4.1682,5.824
2.105000,-1.1609,-3.1706,4.3615,5.516
2.110000,-0.8238,-2.6816,4.2939,5.129
2.115000,-0.5177,-2.2194,4.1148,4.704
2.121000,-0.2880,-1.9248,3.9354,4.390
2.125000,-0.2112,-1.6431,3.8882,4.226
2.130000,-0.0698,-1.3896,3.8955,4.137
2.134000,0.2173,-1.3096,3.6412,3.876
2.140000,0.4152,-1.2345,3.2251,3.478
2.145000,0.5124,-1.2476,2.8088,3.116
2.150000,0.5473,-1.2718,2.3406,2.719
2.156000,0.6012,-1.2905,1.8762,2.355
2.160000,0.6406,-1.3012,1.4804,2.072
2.166000,0.5700,-1.2991,1.0553,1.768
2.179000,0.4922,-1.3295,0.7206,1.590
2.180000,0.3550,-1.3369,0.4115,1.443
2.181000,0.2684,-1.3400,0.1496,1.375
2.189000,0.3091,-1.2738,-0.1297,1.317
2.190000,0.3238,-1.1767,-0.3806,1.278
2.195000,0.3077,-1.1734,-0.7486,1.425
2.200000,0.1510,-1.1223,-0.8695,1.428
2.205000,-0.1510,-0.9833,-0.9718,1.391
2.210000,-0.3060,-0.8272,-1.0899,1.402
2.214000,-0.3358,-0.7236,-1.2675,1.498
2.221000,-0.2959,-0.6583,-1.3871,1.564
2.225000,-0.3223,-0.5616,-1.4228,1.563
2.230000,-0.4200,-0.4151,-1.2341,1.368
2.236000,-0.5313,-0.2136,-1.0993,1.240
2.240000,-0.5992,0.0207,-1.0232,1.186
2.246000,-0.7195,0.2346,-0.8909,1.169
2.249000,-0.8081,0.4648,-0.6286,1.124
2.254000,-0.7840,0.6894,-0.4184,1.125
2.259000,-0.5883,0.9168,-0.4039,1.162
2.264000,-0.4745,1.0706,-0.1701,1.183
2.272000,-0.6533,1.0928,-0.2780,1.303
2.276000,-0.9274,1.2863,-0.5152,1.667
2.279000,-1.1578,1.5699,-0.5662,2.031
2.299000,-1.4451,1.8742,-0.6201,2.447
2.301000,-1.6165,2.1569,-0.6554,2.774
2.302000,-1.7182,2.2903,-0.6398,2.934
2.303000,-1.7572,2.2871,-0.6226,2.951
2.305000,-1.7579,2.3552,-0.6069,3.001
2.309000,-1.8231,2.5371,-0.4674,3.159
2.314000,-1.9670,2.6299,-0.2865,3.297
2.320000,-1.9887,2.5784,-0.2029,3.263
2.324000,-2.0411,2.4746,-0.1827,3.213
2.329000,-2.0764,2.4904,-0.0939,3.244
2.333000,-2.0567,2.6037,0.0253,3.318
2.339000,-1.9459,2.7000,0.0447,3.328
2.344000,-1.7970,2.7024,-0.0283,3.245
2.349000,-1.7490,2.6442,-0.1742,3.175
2.354000,-1.7176,2.5166,-0.3494,3.067
2.359000,-1.6578,2.3744,-0.4597,2.932
2.363000,-1.5143,2.2274,-0.5432,2.748
2.372000,-1.3736,2.0896,-0.5183,2.554
2.374000,-1.2358,1.9729,-0.4187,2.365
2.379000,-1.0337,1.8873,-0.3168,2.175
2.384000,-0.8941,1.7727,-0.1964,1.995
2.398000,-0.7113,1.6992,-0.0936,1.844
2.399000,-0.4523,1.6422,-0.1589,1.711
2.400000,-0.2127,1.6426,-0.2286,1.672
2.409000,-0.0523,1.6525,-0.1784,1.663
2.410000,0.4353,2.0517,-0.3775,2.131
2.414000,0.5746,2.2313,0.2930,2.323
2.420000,0.4074,1.8865,0.7535,2.072
2.423000,0.5533,1.5917,0.7454,1.843
2.428000,0.7280,1.4550,0.9218,1.870
2.433000,0.8354,1.3825,1.0492,1.926
2.438000,0.9855,1.4193,1.1461,2.073
2.443000,1.2736,1.4981,1.2719,2.342
2.448000,1.7187,1.5330,1.4428,2.718
2.452000,2.0290,1.5312,1.5022,2.953
2.457000,2.0589,1.4881,1.4716,2.936
2.463000,2.0743,1.5474,1.2895,2.891
2.469000,2.1093,1.6427,1.0123,2.859
2.473000,2.0942,1.7163,0.6582,2.787
2.478000,2.1870,1.7970,0.4142,2.861
2.482000,2.4091,1.8084,0.2279,3.021
2.489000,2.6234,1.6782,-0.0375,3.115
2.492000,2.8562,1.4878,-0.2075,3.227
2.497000,3.0286,1.3067,-0.3180,3.314
2.505000,3.1693,1.0463,-0.3977,3.361
2.508000,3.3987,0.8010,-0.4623,3.522
2.512000,3.5636,0.6064,-0.4418,3.642
2.534000,3.7337,0.4582,-0.2477,3.770
2.536000,3.9524,0.3757,0.0405,3.970
2.537000,4.1859,0.3608,0.3409,4.215
2.539000,4.4484,0.4301,0.7246,4.527
2.540000,4.8231,0.6021,1.1006,4.984
2.542000,5.2858,0.7809,1.4378,5.533
2.546000,5.7737,1.0638,1.7959,6.139
2.553000,6.2357,1.3782,1.9879,6.688
2.557000,6.6142,1.5969,2.0835,7.116
2.563000,6.8728,1.7673,2.0467,7.386
2.567000,7.0710,1.8172,1.9400,7.554
2.572000,7.2303,1.8474,1.7492,7.665
2.577000,7.3742,1.8309,1.4746,7.740
2.582000,7.3761,1.7034,1.2216,7.668
2.592000,7.3222,1.4675,1.0316,7.539
2.594000,7.1652,1.1954,0.9093,7.321
2.597000,6.8818,0.9046,0.9141,7.001
2.614000,6.6427,0.7057,0.9306,6.745
2.615000,6.4818,0.4797,0.9301,6.566
2.615000,6.3923,0.2940,0.9193,6.465
2.617000,6.3194,0.1442,0.9176,6.387
2.626000,6.3326,0.0208,0.8987,6.396
2.629000,6.3243,-0.1071,0.9509,6.396
2.631000,6.3021,-0.1891,1.0405,6.390
2.636000,6.2800,-0.1440,1.2101,6.397
2.641000,6.1816,0.0206,1.3874,6.335
2.646000,6.0855,0.2517,1.4455,6.260
2.651000,6.0155,0.4941,1.5452,6.230
2.657000,5.9497,0.7592,1.6510,6.221
2.661000,5.8618,0.9801,1.7511,6.196
2.667000,5.7779,1.2811,1.8884,6.212
2.673000,5.6644,1.6162,1.9860,6.216
2.677000,5.5806,2.0042,2.0630,6.278
2.682000,5.5645,2.3274,2.0669,6.376
2.687000,5.5245,2.6309,2.0337,6.448
2.691000,5.3813,2.8542,1.9377,6.392
2.696000,5.2186,2.9948,1.9254,6.317
2.703000,5.0937,3.0408,1.8987,6.229
2.706000,5.0353,2.9923,1.8079,6.130
2.716000,4.9641,2.8970,1.6648,5.984
2.727000,4.8324,2.6831,1.6088,5.757
2.729000,4.7171,2.4251,1.4772,5.506
2.729000,4.5820,2.1395,1.3323,5.229
2.736000,4.3559,1.8171,1.2104,4.872
2.738000,4.0538,1.4300,1.0633,4.428
2.741000,3.7669,1.0451,0.8771,4.006
2.745000,3.5055,0.7161,0.7310,3.652
2.752000,3.3029,0.3876,0.6110,3.381
2.760000,3.0664,0.1202,0.6013,3.127
2.761000,2.7893,-0.1241,0.5392,2.844
2.766000,2.5796,-0.3352,0.5373,2.656
2.770000,2.4037,-0.5373,0.4261,2.500
2.776000,2.2733,-0.7184,0.3951,2.417
2.780000,2.1197,-0.9474,0.4491,2.365
2.786000,1.8116,-1.1424,0.6308,2.233
2.790000,1.5362,-1.2837,0.8317,2.168
2.796000,1.3701,-1.2685,0.9816,2.109
2.800000,1.2247,-1.1757,1.0844,2.014
2.805000,1.0954,-1.0483,1.1968,1.932
2.810000,0.9431,-0.8465,1.3590,1.858
2.815000,0.8516,-0.5802,1.4434,1.774
2.833000,0.7345,-0.3357,1.5481,1.746
2.834000,0.6032,-0.0685,1.6444,1.753
2.835000,0.4243,0.0973,1.7657,1.819
2.837000,0.2627,0.2122,1.8617,1.892
2.840000,0.1107,0.3042,1.9491,1.976
2.845000,-0.0864,0.3049,1.9726,1.998
2.850000,-0.2236,0.3210,2.0228,2.060
2.855000,-0.3775,0.3791,1.9828,2.054
2.860000,-0.5287,0.4076,1.9601,2.071
2.866000,-0.6992,0.3989,1.9213,2.083
2.871000,-0.8645,0.3894,1.8689,2.096
2.875000,-1.0060,0.3881,1.8486,2.140
2.880000,-1.1759,0.3427,1.7979,2.175
2.888000,-1.2928,0.2825,1.6887,2.145
2.890000,-1.4620,0.2309,1.5646,2.154
2.895000,-1.6001,0.1756,1.4334,2.155
2.899000,-1.7283,0.1075,1.2549,2.139
2.906000,-1.8871,0.0028,1.1585,2.214
2.910000,-2.0212,-0.0995,1.0007,2.258
2.914000,-2.1382,-0.2074,0.8536,2.312
2.934000,-2.2807,-0.3460,0.7079,2.413
2.936000,-2.3960,-0.4607,0.5876,2.510
2.937000,-2.4773,-0.5876,0.4354,2.583
2.937000,-2.5672,-0.6855,0.3540,2.681
2.940000,-2.6059,-0.7587,0.2884,2.729
2.945000,-2.6344,-0.7935,0.2242,2.760
2.949000,-2.6456,-0.9458,0.1900,2.816
2.955000,-2.6489,-1.1099,0.1234,2.875
2.960000,-2.6326,-1.2881,0.1343,2.934
2.964000,-2.6681,-1.4777,0.1507,3.054
2.972000,-2.7389,-1.6482,0.2349,3.205
2.976000,-2.8163,-1.7827,0.2929,3.346
2.979000,-2.9216,-1.9433,0.3106,3.523
2.986000,-3.0165,-2.0245,0.3817,3.653
2.989000,-3.1391,-2.1430,0.4318,3.825
2.994000,-3.2346,-2.2972,0.4542,3.993
2.999000,-3.3146,-2.4953,0.5226,4.182
3.005000,-3.3842,-2.6926,0.5294,4.357
3.009000,-3.4815,-2.8453,0.5916,4.535
3.014000,-3.5273,-3.0318,0.5966,4.689
3.022000,-3.5554,-3.2168,0.5683,4.828
3.024000,-3.6063,-3.3445,0.5664,4.951
3.029000,-3.6348,-3.4993,0.5671,5.077
3.055000,-3.6839,-3.6545,0.5223,5.215
3.057000,-3.6742,-3.8112,0.5297,5.320
3.058000,-3.6208,-3.9732,0.4941,5.398
3.058000,-3.5258,-4.1732,0.4294,5.480
3.059000,-3.4922,-4.4184,0.4172,5.647
3.059000,-3.4290,-4.6537,0.3952,5.794
3.064000,-3.2478,-4.8929,0.3895,5.886
3.070000,-3.0612,-5.1725,0.3808,6.022
3.074000,-2.9530,-5.4752,0.4265,6.235
3.078000,-2.8918,-5.7480,0.4494,6.450
3.083000,-2.8707,-5.9078,0.4733,6.585
3.089000,-2.8919,-5.9997,0.5215,6.681
3.093000,-2.8717,-6.0977,0.5101,6.759
3.098000,-2.8125,-6.1898,0.4872,6.816
3.104000,-2.7456,-6.2043,0.5650,6.808
3.108000,-2.7187,-6.1988,0.7052,6.805
3.113000,-2.7200,-6.1253,0.8850,6.760
3.122000,-2.7040,-5.9889,1.0015,6.647
3.124000,-2.6278,-5.8615,1.0789,6.514
3.128000,-2.4985,-5.7097,1.1132,6.331
3.133000,-2.3784,-5.6271,1.1672,6.220
3.149000,-2.1862,-5.5564,1.1653,6.084
3.151000,-1.9673,-5.5314,1.0843,5.970
3.152000,-1.7554,-5.5428,1.0060,5.901
3.153000,-1.5791,-5.6053,0.8403,5.884
3.158000,-1.4193,-5.7091,0.6948,5.924
3.162000,-1.3000,-5.7852,0.5384,5.954
3.169000,-1.1301,-5.8741,0.3946,5.995
3.172000,-0.9672,-6.0093,0.2297,6.091
3.179000,-0.7754,-6.1551,0.1726,6.206
3.182000,-0.5237,-6.2751,0.2201,6.301
3.188000,-0.3055,-6.3077,0.2445,6.320
3.192000,-0.1975,-6.2177,0.2073,6.224
3.197000,-0.1755,-6.0362,0.2741,6.045
3.202000,-0.2801,-5.8831,0.3757,5.902
3.207000,-0.4226,-5.7222,0.4092,5.752
3.212000,-0.6580,-5.5823,0.5112,5.644
3.217000,-0.8735,-5.4937,0.6236,5.598
3.222000,-1.1312,-5.3555,0.8252,5.536
3.227000,-1.3688,-5.0908,1.0172,5.369
3.232000,-1.5767,-4.7954,1.2902,5.210
3.241000,-1.8193,-4.4855,1.5356,5.078
3.243000,-2.0130,-4.0967,1.7443,4.887
3.247000,-2.1456,-3.6384,1.9760,4.663
3.273000,-2.1119,-3.2400,2.1335,4.417
3.275000,-1.9289,-2.8805,2.2657,4.141
3.276000,-1.6041,-2.4928,2.3374,3.775
3.276000,-1.2095,-2.1836,2.3330,3.417
3.277000,-0.8363,-2.0057,2.3297,3.186
3.277000,-0.5087,-1.9120,2.3089,3.041
3.282000,-0.2770,-1.9008,2.2158,2.933
3.288000,-0.1101,-2.0147,2.0377,2.868
3.291000,-0.0033,-2.1728,1.7698,2.802
3.297000,0.0987,-2.3145,1.3000,2.656
3.302000,0.0978,-2.3828,0.8945,2.547
3.307000,-0.0130,-2.4373,0.6234,2.516
3.311000,-0.1327,-2.4962,0.3164,2.520
3.316000,-0.2302,-2.4921,-0.0140,2.503
3.321000,-0.2863,-2.4275,-0.3675,2.472
3.327000,-0.3318,-2.3376,-0.7180,2.468
3.331000,-0.3145,-2.3117,-0.9218,2.508
3.339000,-0.2725,-2.2056,-1.1399,2.498
3.342000,-0.3828,-2.1011,-1.3223,2.512
3.346000,-0.4612,-1.9482,-1.4577,2.476
3.371000,-0.5626,-1.7083,-1.5387,2.367
3.372000,-0.7112,-1.4014,-1.6042,2.246
3.373000,-0.8732,-1.0797,-1.6164,2.131
3.373000,-1.0129,-0.7148,-1.5350,1.973
3.374000,-1.1825,-0.3995,-1.4416,1.907
3.376000,-1.3632,-0.0694,-1.3531,1.922
3.381000,-1.4640,0.2010,-1.1907,1.898
3.387000,-1.5354,0.4643,-0.9354,1.857
3.391000,-1.5654,0.7134,-0.6141,1.827
3.396000,-1.5616,0.9310,-0.3110,1.844
3.401000,-1.5906,1.0865,-0.0624,1.927
3.406000,-1.6000,1.3016,0.1555,2.068
3.411000,-1.6022,1.4750,0.4076,2.216
3.416000,-1.6230,1.7035,0.5215,2.410
3.421000,-1.5957,1.9192,0.6700,2.584
3.426000,-1.5589,2.0860,0.8053,2.726
3.431000,-1.5462,2.2636,0.8700,2.876
3.437000,-1.5507,2.3629,0.8598,2.954
3.440000,-1.4812,2.4229,0.8729,2.971
3.446000,-1.3884,2.4596,0.8643,2.954
3.454000,-1.3273,2.5141,0.8793,2.976
3.456000,-1.2597,2.5190,0.8892,2.953
3.461000,-1.2721,2.5455,0.7916,2.954
3.467000,-1.3209,2.5850,0.6943,2.985
3.475000,-1.3680,2.6012,0.6288,3.006
3.477000,-1.4422,2.6300,0.5431,3.048
3.480000,-1.5937,2.6187,0.4137,3.093
3.506000,-1.7023,2.5826,0.2410,3.103
3.508000,-1.7060,2.5097,0.0711,3.036
3.508000,-1.6742,2.4385,0.0072,2.958
3.508000,-1.5832,2.3329,-0.0584,2.820
3.509000,-1.4684,2.1935,-0.1089,2.642
3.510000,-1.3087,2.0536,-0.1063,2.437
3.515000,-1.1492,1.9328,-0.1345,2.253
3.521000,-0.9133,1.8047,-0.1431,2.028
3.525000,-0.5201,1.6787,-0.1755,1.766
3.530000,-0.0461,1.6840,-0.1650,1.693
3.536000,0.4794,1.8270,-0.1380,1.894
3.539000,0.9075,1.9583,-0.1593,2.164
3.545000,1.1497,1.9989,-0.2432,2.319
3.550000,1.2755,1.9536,-0.2839,2.350
3.555000,1.2707,1.8179,-0.3434,2.244
3.560000,1.1600,1.6140,-0.4337,2.034
3.564000,1.0298,1.4332,-0.4667,1.826
3.573000,0.9144,1.3459,-0.4421,1.686
3.576000,0.9333,1.2062,-0.4951,1.604
3.580000,1.0103,1.0362,-0.5448,1.546
3.599000,1.1743,0.9079,-0.5553,1.585
3.601000,1.3176,0.7688,-0.6493,1.658
3.601000,1.4665,0.6621,-0.6575,1.738
3.602000,1.6998,0.6735,-0.5879,1.921
3.605000,1.9935,0.7145,-0.4163,2.158
3.609000,2.2634,0.7989,-0.2751,2.416
3.613000,2.4757,0.7801,-0.1094,2.598
3.620000,2.6783,0.7184,0.0953,2.775
3.624000,2.9764,0.6735,0.3098,3.067
3.629000,3.3433,0.6499,0.5052,3.443
3.634000,3.8054,0.6715,0.6818,3.924
3.639000,4.2494,0.7066,0.8726,4.395
3.644000,4.5583,0.6906,1.0132,4.720
3.648000,4.7966,0.6256,1.1060,4.962
3.656000,4.9642,0.5812,1.2086,5.142
3.659000,5.1237,0.5622,1.1871,5.289
3.664000,5.2391,0.5948,1.1639,5.400
3.683000,5.3181,0.6103,1.1659,5.479
3.685000,5.3705,0.6446,1.1574,5.531
3.686000,5.3773,0.6597,1.0789,5.524
3.686000,5.4798,0.6627,0.9903,5.608
3.688000,5.7472,0.6586,0.8970,5.854
3.694000,6.0885,0.6808,0.8757,6.189
3.700000,6.4843,0.7292,0.9424,6.593
3.705000,6.8575,0.7721,0.9171,6.962
3.709000,7.1550,0.8829,0.8908,7.264
3.713000,7.4626,0.9609,0.8325,7.570
3.720000,7.6246,0.9603,0.8019,7.727
3.724000,7.6724,0.8812,0.8138,7.766
3.729000,7.6971,0.7957,0.8396,7.784
3.733000,7.7205,0.7136,0.9316,7.809
3.739000,7.7857,0.6878,1.0203,7.882
3.743000,7.9072,0.6681,1.0404,8.003
3.748000,8.0323,0.6951,1.1167,8.139
3.754000,8.1607,0.7304,1.1841,8.278
3.759000,8.1942,0.8980,1.2949,8.344
3.763000,8.2449,1.0969,1.3697,8.430
3.768000,8.1596,1.2888,1.4464,8.386
3.773000,7.9480,1.4423,1.4843,8.213
3.779000,7.6676,1.6604,1.4140,7.972
3.783000,7.4119,1.9288,1.4007,7.786
3.791000,7.1234,2.1731,1.3700,7.572
3.793000,6.8259,2.4553,1.3392,7.377
3.798000,6.4763,2.7559,1.2964,7.157
3.816000,6.1559,3.0030,1.2302,6.959
3.818000,5.8285,3.2084,1.1290,6.748
3.819000,5.4801,3.3146,0.9719,6.478
3.820000,5.2015,3.2858,0.8291,6.208
3.823000,4.9644,3.1441,0.6652,5.914
3.827000,4.7131,2.8818,0.4874,5.546
3.832000,4.3743,2.6167,0.3562,5.110
3.837000,4.0797,2.3037,0.2309,4.691
3.842000,3.7743,1.9021,0.1330,4.229
3.847000,3.4587,1.5658,0.0415,3.797
3.852000,3.1477,1.2833,0.1072,3.401
3.857000,2.7937,1.0284,0.1408,2.980
3.862000,2.5544,0.8345,0.1256,2.690
3.866000,2.2606,0.6329,0.0839,2.349
3.872000,1.9103,0.4004,0.0304,1.952
3.878000,1.6920,0.2030,-0.0439,1.705
3.882000,1.5227,0.0446,-0.1288,1.529
3.890000,1.3257,-0.1445,-0.1476,1.342
3.892000,1.0893,-0.3399,-0.2031,1.159
3.897000,0.9048,-0.5123,-0.2644,1.073
3.922000,0.8102,-0.6117,-0.1910,1.033
3.923000,0.6475,-0.6597,-0.0797,0.928
3.923000,0.4931,-0.5850,0.1072,0.773
3.924000,0.4019,-0.4236,0.2448,0.633
3.924000,0.2901,-0.2116,0.3805,0.523
3.928000,0.1385,0.0009,0.5242,0.542
3.932000,0.0329,0.1316,0.7067,0.720
3.937000,-0.0698,0.3197,0.7127,0.784
3.941000,-0.1360,0.4002,0.7503,0.861
3.947000,-0.1734,0.5112,0.7714,0.941
3.953000,-0.2490,0.5520,0.7587,0.971
3.957000,-0.4107,0.6254,0.6834,1.013
3.961000,-0.5937,0.6457,0.5714,1.047
3.966000,-0.7455,0.6461,0.5063,1.109
3.972000,-0.9091,0.6959,0.4022,1.213
3.977000,-1.0678,0.7068,0.3093,1.317
3.981000,-1.1425,0.7029,0.2584,1.366
3.990000,-1.2313,0.7608,0.1779,1.458
3.992000,-1.3106,0.8058,0.0727,1.540
3.997000,-1.3777,0.8193,-0.0861,1.605
4.020000,-1.4640,0.8484,-0.2400,1.709
4.021000,-1.5861,0.8431,-0.2784,1.818
4.022000,-1.6935,0.8253,-0.3284,1.912
4.022000,-1.7865,0.7873,-0.4179,1.997
4.023000,-1.8266,0.6721,-0.4414,1.996
4.026000,-1.8064,0.5713,-0.3850,1.933
4.034000,-1.7935,0.5269,-0.4066,1.913
4.036000,-1.8260,0.5121,-0.4173,1.942
4.041000,-1.8539,0.4194,-0.3909,1.941
4.046000,-1.9129,0.3730,-0.3752,1.985
4.053000,-1.9383,0.2678,-0.3123,1.981
4.055000,-1.9899,0.1398,-0.2648,2.012
4.061000,-2.1033,-0.0917,-0.2281,2.118
4.066000,-2.2166,-0.3340,-0.1901,2.250
4.072000,-2.3366,-0.5916,-0.0366,2.411
4.076000,-2.4465,-0.8133,0.0212,2.578
4.080000,-2.6204,-0.9707,0.1507,2.798
4.085000,-2.7626,-1.1932,0.2155,3.017
4.091000,-2.8706,-1.4275,0.3062,3.221
4.096000,-2.9466,-1.6034,0.4203,3.381
4.102000,-2.9909,-1.8104,0.6038,3.548
4.106000,-3.0632,-2.0214,0.6790,3.732
4.111000,-3.1776,-2.2842,0.7991,3.994
4.123000,-3.2337,-2.5095,0.9684,4.206
4.124000,-3.2461,-2.6717,1.1484,4.358
4.126000,-3.2505,-2.8110,1.2935,4.488
4.130000,-3.2640,-2.9807,1.4402,4.649
4.145000,-3.3221,-3.1396,1.5619,4.830
4.146000,-3.3268,-3.3373,1.6634,4.997
4.147000,-3.3045,-3.5668,1.7188,5.157
4.150000,-3.3196,-3.8589,1.6756,5.359
4.155000,-3.3124,-4.1894,1.6393,5.587
4.160000,-3.2326,-4.4718,1.5743,5.738
4.165000,-3.1615,-4.7106,1.5713,5.887
4.171000,-3.0586,-4.9590,1.5780,6.036
4.175000,-2.9166,-5.1109,1.5610,6.088
4.180000,-2.7308,-5.2792,1.5564,6.144
4.186000,-2.5900,-5.4905,1.5189,6.258
4.190000,-2.4318,-5.6514,1.4985,6.332
4.195000,-2.2708,-5.7787,1.5070,6.389
4.200000,-2.2145,-5.9730,1.5010,6.545
4.205000,-2.1577,-6.1335,1.5206,6.677
4.210000,-2.1149,-6.2029,1.6204,6.751
4.214000,-2.1243,-6.1810,1.7037,6.754
4.224000,-2.1668,-6.0205,1.7368,6.630
4.226000,-2.1804,-5.8651,1.7457,6.496
4.230000,-2.1436,-5.7026,1.8280,6.360
4.249000,-2.0255,-5.5839,1.9240,6.244
4.252000,-1.8453,-5.6191,1.9782,6.236
4.253000,-1.8473,-5.6290,1.9695,6.243
4.256000,-1.8373,-5.8121,1.8979,6.384
4.257000,-1.8586,-5.9700,1.8141,6.510
4.259000,-1.8844,-6.1738,1.7377,6.685
4.264000,-1.8361,-6.3949,1.6733,6.861
4.269000,-1.7493,-6.6019,1.5950,7.014
4.275000,-1.6960,-6.8927,1.4736,7.250
4.279000,-1.6616,-7.1329,1.4028,7.457
4.286000,-1.6292,-7.3200,1.2941,7.610
4.290000,-1.6156,-7.4441,1.2410,7.718
4.295000,-1.5943,-7.4361,1.1908,7.698
4.300000,-1.5486,-7.3655,1.0600,7.601
4.304000,-1.6053,-7.2422,0.9063,7.473
4.309000,-1.7236,-7.1192,0.8229,7.371
4.314000,-1.8435,-7.0271,0.6791,7.297
4.321000,-2.0391,-6.9756,0.5811,7.291
4.325000,-2.1881,-6.8518,0.6200,7.219
4.329000,-2.3454,-6.7390,0.7551,7.175
4.333000,-2.5470,-6.6009,0.8475,7.126
4.346000,-2.7614,-6.3536,1.0498,7.007
4.347000,-2.9074,-6.0831,1.3375,6.874
4.349000,-3.0661,-5.7791,1.5469,6.722
4.358000,-3.2112,-5.3535,1.7643,6.487
4.360000,-3.2972,-4.9118,1.9780,6.238
4.364000,-3.2452,-4.4826,2.2004,5.955
4.370000,-3.0864,-4.0668,2.3633,5.626
4.373000,-2.8568,-3.7261,2.4503,5.296
4.378000,-2.6043,-3.4906,2.4508,4.997
4.383000,-2.3099,-3.4289,2.2959,4.729
4.389000,-1.9091,-3.3722,2.0440,4.381
4.393000,-1.4717,-3.3330,1.7988,4.063
4.398000,-1.1051,-3.3804,1.6030,3.901
4.404000,-0.7451,-3.3718,1.3152,3.695
4.408000,-0.4372,-3.3177,0.9811,3.487
4.413000,-0.1431,-3.2843,0.6196,3.345
4.420000,0.0582,-3.2370,0.2212,3.245
4.423000,0.2648,-3.1967,-0.1491,3.211
4.429000,0.4770,-3.1248,-0.5151,3.203
4.433000,0.6611,-3.0888,-0.8312,3.266
4.438000,0.8027,-3.0266,-1.1646,3.341
4.443000,0.8921,-2.9651,-1.3698,3.386
4.448000,0.9180,-2.8816,-1.6046,3.424
4.460000,0.9304,-2.7884,-1.7641,3.428
4.463000,0.9101,-2.6168,-1.8298,3.320
4.464000,0.8504,-2.3299,-1.8646,3.103
4.468000,0.7464,-2.0144,-1.8837,2.857
4.505000,0.6314,-1.6993,-1.7685,2.533
4.507000,0.5200,-1.3005,-1.6227,2.144
4.507000,0.3672,-0.9275,-1.5159,1.815
4.508000,0.2826,-0.5520,-1.3483,1.484
4.509000,0.2229,-0.1485,-1.1419,1.173
4.509000,0.1954,0.2503,-0.9208,0.974
4.509000,0.1617,0.6535,-0.6280,0.921
4.510000,0.1546,1.0194,-0.4148,1.111
4.512000,0.1388,1.3822,-0.1495,1.397
4.517000,0.2069,1.7390,0.0888,1.753
4.523000,0.2674,2.1030,0.2856,2.139
4.527000,0.2179,2.3673,0.4531,2.420
4.533000,0.2229,2.6700,0.5481,2.735
4.537000,0.2795,2.9170,0.6333,2.998
4.542000,0.3523,3.1761,0.6922,3.270
4.547000,0.4117,3.3935,0.7658,3.503
4.567000,0.4078,3.5627,0.8039,3.675
4.569000,0.4049,3.7191,0.7874,3.823
4.570000,0.3474,3.7928,0.6928,3.871
4.571000,0.2838,3.8396,0.6066,3.898
4.572000,0.2161,3.8685,0.5388,3.912
4.577000,0.1088,3.9141,0.4634,3.943
4.581000,-0.0024,3.8871,0.3043,3.899
4.588000,-0.1289,3.8152,0.1192,3.819
4.592000,-0.2324,3.7580,-0.0315,3.765
4.597000,-0.3321,3.6581,-0.1975,3.678
4.603000,-0.3775,3.5330,-0.3045,3.566
4.607000,-0.4304,3.3663,-0.3765,3.414
4.612000,-0.5218,3.1320,-0.3562,3.195
4.616000,-0.6060,2.9740,-0.3685,3.057
4.621000,-0.6853,2.8733,-0.4657,2.990
4.627000,-0.7238,2.7941,-0.5184,2.932
4.632000,-0.7425,2.7296,-0.5167,2.876
4.642000,-0.6941,2.7105,-0.5155,2.845
4.644000,-0.5685,2.6848,-0.4621,2.783
4.647000,-0.3518,2.6688,-0.3804,2.719
4.673000,-0.0683,2.6693,-0.2942,2.686
4.674000,0.2509,2.6313,-0.2563,2.656
4.675000,0.5812,2.5206,-0.1496,2.591
4.675000,0.8344,2.3833,-0.0555,2.526
4.676000,1.0391,2.2476,-0.0010,2.476
4.676000,1.2048,2.0610,0.0256,2.387
4.681000,1.3320,1.9437,0.0816,2.358
4.688000,1.6405,1.8163,0.0327,2.448
4.691000,1.9818,1.7793,-0.0039,2.663
4.696000,2.2458,1.8421,0.0866,2.906
4.703000,2.3891,1.8558,0.2032,3.032
4.706000,2.4002,1.7586,0.3289,2.994
4.711000,2.3606,1.6586,0.4296,2.917
4.715000,2.4022,1.6277,0.5170,2.947
4.721000,2.4417,1.6593,0.5362,3.000
4.726000,2.4573,1.6455,0.5778,3.013
4.731000,2.5474,1.6750,0.5797,3.103
4.736000,2.6544,1.6761,0.5348,3.184
4.741000,2.8306,1.6699,0.4746,3.321
4.745000,3.0333,1.6544,0.4640,3.486
4.758000,3.2577,1.5318,0.4412,3.627
4.761000,3.5205,1.4381,0.4665,3.831
4.761000,3.7665,1.3185,0.5778,4.032
4.766000,4.0386,1.1893,0.6386,4.258
4.790000,4.2915,1.0748,0.7876,4.494
4.792000,4.4700,1.0273,1.0079,4.696
4.793000,4.6296,1.0400,1.2680,4.912
4.793000,4.8493,1.1246,1.4456,5.184
4.794000,5.0661,1.3381,1.6341,5.489
4.796000,5.2612,1.5537,1.7063,5.745
4.800000,5.4200,1.6969,1.7318,5.938
4.806000,5.6932,1.8374,1.6488,6.205
4.810000,6.0682,1.9528,1.4769,6.544
4.816000,6.4441,2.0120,1.3310,6.881
4.821000,6.8323,2.0311,1.1706,7.223
4.825000,7.0983,2.0000,0.9811,7.440
4.830000,7.3638,1.9831,0.6986,7.658
4.836000,7.5834,1.9397,0.5169,7.845
4.840000,7.7499,1.8171,0.4578,7.973
4.847000,7.9255,1.6967,0.3728,8.114
4.850000,8.0479,1.5139,0.3478,8.196
4.856000,8.1554,1.3237,0.3587,8.270
4.860000,8.2291,1.1431,0.3576,8.316
4.866000,8.2307,1.0103,0.3251,8.299
4.875000,8.1773,0.8705,0.3449,8.231
4.876000,8.1147,0.7072,0.3427,8.153
4.882000,8.0168,0.5615,0.3063,8.042
4.917000,7.8936,0.4431,0.3647,7.914
4.919000,7.7192,0.4216,0.4982,7.747
4.919000,7.5149,0.5687,0.5531,7.557
4.921000,7.2596,0.8388,0.5964,7.332
4.921000,6.9841,1.1599,0.6355,7.108
4.922000,6.6958,1.4841,0.7204,6.896
4.922000,6.4541,1.8756,0.7267,6.760
4.923000,6.2781,2.2433,0.7006,6.704
4.924000,6.1095,2.5243,0.7140,6.649
4.929000,6.0391,2.7089,0.7456,6.661
4.936000,5.9519,2.8305,0.7648,6.635
4.939000,5.8280,2.8907,0.7835,6.553
4.945000,5.7179,2.8299,0.7639,6.425
4.949000,5.6169,2.6554,0.7858,6.262
4.955000,5.4266,2.4218,0.8488,6.003
4.959000,5.2287,2.1032,0.8888,5.705
4.964000,4.9731,1.7496,0.8267,5.336
4.972000,4.6438,1.3668,0.7921,4.905
4.974000,4.3633,0.9695,0.6947,4.523
4.979000,4.0741,0.5455,0.5895,4.152
4.983000,3.7840,0.1386,0.4579,3.814
5.001000,3.5247,-0.2625,0.3027,3.547
5.003000,3.2607,-0.6575,0.1411,3.329
5.003000,3.0234,-1.0029,0.0786,3.186
5.004000,2.7723,-1.2936,0.0414,3.060
5.009000,2.5917,-1.5195,0.0151,3.004
5.013000,2.3615,-1.7722,0.0522,2.953
5.019000,2.1133,-1.9410,0.1187,2.872
5.023000,1.8263,-2.0655,0.2121,2.765
5.029000,1.5379,-2.0922,0.3613,2.622
5.035000,1.2823,-2.0107,0.5324,2.443
5.039000,1.0521,-1.9048,0.7702,2.308
5.043000,0.8497,-1.7650,1.0410,2.218
5.051000,0.6587,-1.5502,1.3367,2.150
5.055000,0.4231,-1.2999,1.6233,2.122
5.059000,0.2057,-1.0733,1.8903,2.183
5.063000,0.0392,-0.8450,2.1014,2.265
5.070000,-0.2126,-0.6578,2.2749,2.378
5.073000,-0.4917,-0.4557,2.4098,2.501
5.079000,-0.6963,-0.2714,2.4778,2.588
5.083000,-0.9025,-0.1616,2.5091,2.671
5.090000,-1.0697,-0.0042,2.4868,2.707
5.099000,-1.1862,0.1217,2.4108,2.690
5.100000,-1.2735,0.2089,2.3888,2.715
5.124000,-1.3633,0.2973,2.3348,2.720
5.125000,-1.4745,0.3630,2.2633,2.725
5.126000,-1.6188,0.3803,2.0954,2.675
5.126000,-1.8252,0.4083,1.9129,2.675
5.126000,-1.9331,0.3353,1.5990,2.531
5.128000,-2.0887,0.2659,1.3120,2.481
5.133000,-2.2509,0.2412,1.0410,2.492
5.139000,-2.3765,0.1829,0.7675,2.504
5.143000,-2.5640,0.1021,0.4895,2.612
5.147000,-2.6668,0.0978,0.2722,2.682
5.153000,-2.7715,0.0018,0.1249,2.774
5.158000,-2.8683,-0.1016,-0.0596,2.871
5.163000,-2.9212,-0.1951,-0.2599,2.939
5.169000,-2.9568,-0.3801,-0.3679,3.004
5.172000,-3.1160,-0.5193,-0.4838,3.196
5.178000,-3.2242,-0.6732,-0.6120,3.350
5.182000,-3.2166,-0.7644,-0.6445,3.368
5.188000,-3.2061,-0.8730,-0.5764,3.372
5.193000,-3.2166,-1.0127,-0.4673,3.404
5.197000,-3.2359,-1.1859,-0.3437,3.463
5.207000,-3.2854,-1.3323,-0.2631,3.555
5.209000,-3.3295,-1.5580,-0.1874,3.681
5.212000,-3.3607,-1.7422,-0.1550,3.789
5.217000,-3.4366,-1.9168,-0.1297,3.937
5.242000,-3.4710,-2.0982,-0.0903,4.057
5.244000,-3.5568,-2.3019,-0.0469,4.237
5.245000,-3.6466,-2.4674,0.0273,4.403
5.245000,-3.7664,-2.6819,0.0864,4.624
5.246000,-3.7893,-2.8878,0.1470,4.767
5.246000,-3.8637,-3.0654,0.2228,4.937
5.253000,-3.9513,-3.2680,0.2998,5.136
5.257000,-4.0737,-3.4662,0.3345,5.359
5.262000,-4.1253,-3.6614,0.3287,5.526
5.267000,-4.1423,-3.7826,0.3687,5.622
5.272000,-4.1199,-3.9158,0.3679,5.696
5.277000,-4.0893,-4.0889,0.3285,5.792
5.281000,-4.0649,-4.2785,0.3083,5.910
5.288000,-3.9798,-4.4436,0.2877,5.972
5.291000,-3.8603,-4.6580,0.2926,6.057
5.297000,-3.7258,-4.8741,0.2866,6.142
5.307000,-3.6026,-5.0801,0.2435,6.233
5.312000,-3.4263,-5.2666,0.2349,6.287
5.313000,-3.2759,-5.4596,0.2130,6.371
5.318000,-3.1799,-5.6424,0.1609,6.479
5.346000,-3.0477,-5.8346,0.1462,6.584
5.349000,-2.9389,-6.0092,0.1682,6.691
5.349000,-2.8393,-6.1735,0.2316,6.799
5.350000,-2.7417,-6.2416,0.3644,6.827
5.351000,-2.6702,-6.2826,0.4824,6.844
5.352000,-2.6318,-6.2920,0.5593,6.843
5.353000,-2.5955,-6.3177,0.6856,6.864
5.359000,-2.6164,-6.2184,0.8374,6.798
5.362000,-2.6991,-6.0949,1.0338,6.745
5.366000,-2.7311,-5.9612,1.1505,6.657
5.371000,-2.6432,-5.9200,1.2452,6.602
5.376000,-2.4759,-5.9761,1.3947,6.617
5.382000,-2.2128,-5.9905,1.4128,6.541
5.386000,-1.9424,-5.9757,1.4075,6.439
5.391000,-1.7341,-5.9397,1.2959,6.322
5.395000,-1.4994,-5.9759,1.1362,6.265
5.400000,-1.3124,-6.0151,0.9242,6.226
5.407000,-1.1443,-6.0648,0.7012,6.211
5.410000,-1.0239,-6.1726,0.5363,6.280
5.415000,-0.9654,-6.3291,0.3917,6.414
5.446000,-0.9663,-6.4890,0.2672,6.566
5.450000,-0.9716,-6.6516,0.1580,6.724
5.452000,-0.9881,-6.8046,0.1858,6.878
5.453000,-1.1044,-6.7923,0.3335,6.890
5.453000,-1.1218,-6.7510,0.4763,6.860
5.455000,-1.1720,-6.7096,0.6472,6.842
5.456000,-1.1711,-6.6460,0.7743,6.793
5.457000,-1.1552,-6.5586,1.0228,6.738
5.461000,-1.1454,-6.4582,1.3726,6.701
5.466000,-1.2975,-6.2376,1.6727,6.587
5.474000,-1.5439,-5.8177,2.0275,6.351
5.476000,-1.7317,-5.3302,2.3385,6.073
5.480000,-1.8776,-4.7302,2.6391,5.733
5.486000,-1.9074,-4.1444,2.8173,5.362
5.490000,-1.9120,-3.6185,3.0484,5.103
5.495000,-1.8989,-3.1411,3.2231,4.885
5.500000,-1.8295,-2.7835,3.2584,4.660
5.505000,-1.6921,-2.4917,3.2078,4.400
5.510000,-1.4748,-2.3441,3.0622,4.129
5.514000,-1.2373,-2.2781,2.8262,3.835
5.522000,-0.8462,-2.2259,2.4791,3.438
5.525000,-0.4380,-2.2713,1.9875,3.050
5.530000,-0.1755,-2.3596,1.4691,2.785
5.547000,-0.0706,-2.4914,0.9530,2.668
5.550000,0.0373,-2.6131,0.4557,2.653
5.551000,0.1719,-2.6776,-0.0464,2.684
5.551000,0.3743,-2.7604,-0.4403,2.820
5.556000,0.5223,-2.8189,-0.7882,2.973
5.560000,0.5559,-2.8367,-1.1327,3.105
5.565000,0.6524,-2.7179,-1.3111,3.087
5.571000,0.6852,-2.5655,-1.5794,3.090
5.574000,0.7166,-2.4194,-1.7362,3.063
5.579000,0.7580,-2.2476,-1.8318,2.997
5.586000,0.7789,-2.0614,-1.8881,2.902
5.590000,0.7262,-1.8395,-1.9248,2.760
5.594000,0.6742,-1.5967,-1.8561,2.540
5.599000,0.6492,-1.2900,-1.7327,2.256
5.604000,0.6010,-1.0245,-1.5912,1.986
5.609000,0.5221,-0.7075,-1.3606,1.620
5.614000,0.4535,-0.3430,-1.1565,1.289
5.620000,0.3352,-0.0538,-0.9510,1.010
5.624000,0.2194,0.2051,-0.6899,0.752
5.629000,0.1257,0.4777,-0.3855,0.627
5.635000,0.0487,0.7919,-0.1365,0.805
5.640000,-0.0207,1.0979,0.0782,1.101
5.644000,-0.1116,1.3404,0.2755,1.373
5.649000,-0.1430,1.5382,0.3739,1.589
5.658000,-0.1335,1.7541,0.5003,1.829
5.664000,-0.0959,1.8940,0.6813,2.015
5.665000,-0.0538,2.1258,0.8710,2.298
5.700000,-0.0843,2.3195,1.0096,2.531
5.701000,-0.1708,2.5033,1.1548,2.762
5.702000,-0.2581,2.7159,1.2356,2.995
5.702000,-0.3725,2.8711,1.3530,3.196
5.703000,-0.4618,2.9779,1.4480,3.343
5.703000,-0.5947,3.0708,1.4348,3.441
5.703000,-0.6876,3.0472,1.3926,3.420
5.704000,-0.7285,3.0363,1.2552,3.365
5.710000,-0.8059,3.0238,1.0352,3.296
5.713000,-0.8241,3.0240,0.8574,3.249
5.720000,-0.9148,3.0251,0.5713,3.212
5.723000,-0.9847,2.9744,0.2801,3.146
5.728000,-1.0094,2.9204,-0.0017,3.090
5.734000,-1.0154,2.8510,-0.1710,3.031
5.739000,-1.0148,2.7377,-0.3253,2.938
5.743000,-1.0428,2.6121,-0.4578,2.850
5.748000,-1.0805,2.5150,-0.5516,2.792
5.755000,-1.0703,2.4082,-0.6690,2.719
5.757000,-1.0548,2.3473,-0.7405,2.678
5.763000,-1.0128,2.2362,-0.7112,2.556
5.767000,-0.8364,2.1330,-0.6458,2.380
5.786000,-0.6260,2.0758,-0.6186,2.255
5.787000,-0.4251,1.9783,-0.4579,2.075
5.788000,-0.1640,1.8622,-0.3338,1.899
5.788000,0.1090,1.7343,-0.2040,1.750
5.793000,0.3701,1.6426,-0.0715,1.685
5.797000,0.6288,1.6156,0.0277,1.734
5.803000,0.7845,1.6148,0.2124,1.808
5.807000,0.8850,1.5539,0.3868,1.830
5.813000,1.0234,1.5212,0.6031,1.930
5.820000,1.1785,1.4883,0.7749,2.050
5.822000,1.2568,1.4649,0.8636,2.115
5.828000,1.3328,1.4198,0.9245,2.156
5.832000,1.4064,1.3532,0.9862,2.187
5.838000,1.5160,1.3871,1.0824,2.322
5.842000,1.6903,1.4595,1.1558,2.515
5.847000,1.9076,1.5795,1.1731,2.740
5.857000,2.0887,1.6751,1.1651,2.920
5.858000,2.2240,1.6914,1.1820,3.034
5.863000,2.3949,1.7312,1.0566,3.138
5.867000,2.5387,1.7439,0.9234,3.215
5.897000,2.6538,1.6751,0.8163,3.243
5.898000,2.7779,1.5819,0.6348,3.259
5.899000,2.8899,1.5100,0.4919,3.298
5.900000,3.0309,1.4122,0.4141,3.369
5.900000,3.1526,1.3239,0.3368,3.436
5.900000,3.3176,1.1833,0.2844,3.534
5.908000,3.4973,1.0910,0.3640,3.682
5.909000,3.6534,0.9967,0.4198,3.810
5.912000,3.9680,1.0492,0.5091,4.136
5.919000,4.3757,1.2283,0.5836,4.582
5.923000,4.6681,1.4189,0.7726,4.940
5.927000,4.9164,1.6298,0.9705,5.270
5.932000,5.1255,1.8038,1.0457,5.533
5.938000,5.3885,2.0267,1.0534,5.853
5.942000,5.6976,2.1902,1.0514,6.194
5.947000,5.8708,2.3375,1.0802,6.411
5.954000,5.9749,2.4227,1.0007,6.525
5.956000,6.1721,2.4717,0.9042,6.710
5.961000,6.4145,2.5111,0.7649,6.931
5.966000,6.6897,2.4756,0.6522,7.163
5.986000,6.9855,2.4062,0.6572,7.417
5.988000,7.1844,2.2211,0.7216,7.554
5.989000,7.2651,1.9494,0.7444,7.559
5.990000,7.2087,1.5937,0.7759,7.423
5.991000,7.1021,1.1666,0.7657,7.238
5.996000,6.9724,0.8579,0.7378,7.064
6.004000,6.8916,0.6582,0.8190,6.971
6.006000,6.8387,0.4913,0.9444,6.921
6.011000,6.7587,0.3429,0.9849,6.839
6.016000,6.6423,0.2898,0.9839,6.721
6.022000,6.6001,0.2198,1.0732,6.690
6.026000,6.6272,0.2455,1.1642,6.733
6.030000,6.6876,0.3668,1.2999,6.823
6.036000,6.7644,0.5473,1.3795,6.925
6.041000,6.7710,0.8369,1.5299,6.992
6.046000,6.6688,1.2157,1.6713,6.982
6.053000,6.5103,1.6189,1.7393,6.930
6.056000,6.4031,2.0271,1.8082,6.955
6.061000,6.4039,2.4852,1.8422,7.112
6.066000,6.3521,2.8707,1.8459,7.211
6.072000,6.2520,3.1592,1.7934,7.231
6.076000,6.1391,3.3408,1.6778,7.188
6.080000,5.9082,3.4585,1.5526,7.020
6.106000,5.7599,3.4474,1.3866,6.854
6.108000,5.4626,3.2337,1.2089,6.462
6.108000,5.1292,2.9017,0.9866,5.975
6.108000,4.8914,2.5376,0.7528,5.562
6.109000,4.6613,2.1732,0.5179,5.169
6.111000,4.4562,1.8452,0.3681,4.837
6.115000,4.2353,1.5123,0.2553,4.504
6.122000,4.0257,1.1828,0.0725,4.196
6.125000,3.7481,0.8921,-0.0463,3.853
6.130000,3.5901,0.5980,-0.1102,3.641
6.136000,3.4320,0.3293,-0.2578,3.457
6.140000,3.2998,0.0858,-0.3878,3.324
6.145000,3.2181,-0.2252,-0.4713,3.260
6.150000,3.1004,-0.4390,-0.5463,3.179
6.156000,2.9232,-0.5935,-0.5865,3.040
6.160000,2.8040,-0.7148,-0.6108,2.957
6.165000,2.6921,-0.8202,-0.5569,2.869
6.172000,2.5951,-0.9117,-0.4395,2.785
6.179000,2.4651,-0.9867,-0.2687,2.669
6.180000,2.3289,-1.0211,-0.1264,2.546
6.199000,2.1619,-0.9656,0.1112,2.370
6.201000,1.9263,-0.8939,0.3545,2.153
6.202000,1.7800,-0.7890,0.5477,2.023
6.203000,1.6108,-0.6437,0.6760,1.862
6.205000,1.4228,-0.5140,0.7969,1.710
6.210000,1.2477,-0.3822,0.8663,1.566
6.214000,1.0730,-0.3017,0.9130,1.441
6.220000,0.8892,-0.2077,0.9291,1.303
6.224000,0.6678,-0.1048,0.9020,1.127
6.230000,0.4204,-0.0248,0.8871,0.982
6.236000,0.2047,0.0068,0.8765,0.900
6.239000,-0.0489,0.0826,0.8751,0.880
6.247000,-0.2778,0.1005,0.8618,0.911
6.249000,-0.4536,0.1128,0.9012,1.015
6.255000,-0.6478,0.1509,0.8978,1.117
6.259000,-0.8079,0.1500,0.8971,1.217
6.264000,-0.9624,0.1059,0.8827,1.310
6.274000,-1.0975,0.0727,0.8666,1.400
6.276000,-1.2625,0.0613,0.7989,1.495
6.279000,-1.3605,0.0365,0.7664,1.562
6.314000,-1.4674,-0.0250,0.6620,1.610
6.316000,-1.4878,-0.0394,0.6222,1.613
6.316000,-1.5101,-0.1121,0.5161,1.600
6.317000,-1.5436,-0.2279,0.4587,1.626
6.319000,-1.5796,-0.2861,0.3450,1.642
6.321000,-1.5935,-0.3621,0.3449,1.670
6.323000,-1.6220,-0.4762,0.3146,1.719
6.323000,-1.7291,-0.6543,0.2952,1.872
6.324000,-1.8455,-0.8555,0.3250,2.060
6.329000,-1.9852,-1.0582,0.3609,2.278
6.336000,-2.1194,-1.2714,0.3957,2.503
6.339000,-2.2525,-1.5203,0.4408,2.753
6.344000,-2.3469,-1.7613,0.4606,2.970
6.348000,-2.4760,-1.9975,0.4619,3.215
6.353000,-2.6737,-2.1674,0.4301,3.469
6.358000,-2.8224,-2.3948,0.4992,3.735
6.363000,-2.9675,-2.6412,0.5304,4.008
6.369000,-3.0851,-2.8490,0.5191,4.231
6.373000,-3.2634,-3.0530,0.5655,4.504
6.378000,-3.4381,-3.2612,0.6407,4.782
6.383000,-3.6159,-3.4410,0.6848,5.038
6.388000,-3.7325,-3.6460,0.6857,5.263
6.393000,-3.8215,-3.7367,0.7060,5.391
6.398000,-3.9426,-3.8063,0.7887,5.537
6.406000,-4.0311,-3.9309,0.8903,5.700
6.409000,-4.0588,-4.0374,0.9128,5.797
6.413000,-4.0685,-4.1510,0.8896,5.880
6.452000,-4.0530,-4.3719,0.8564,6.023
6.454000,-4.0606,-4.5693,0.8252,6.168
6.454000,-4.0457,-4.8308,0.7190,6.342
6.455000,-4.0060,-5.0565,0.6353,6.482
6.455000,-3.9726,-5.2580,0.5762,6.615
6.456000,-3.9528,-5.4493,0.5491,6.754
6.456000,-3.8774,-5.6788,0.5089,6.895
6.457000,-3.7748,-5.8928,0.4652,7.014
6.458000,-3.7171,-6.1757,0.4827,7.224
6.463000,-3.6803,-6.5244,0.4754,7.506
6.470000,-3.6212,-6.8042,0.4979,7.724
6.473000,-3.6453,-7.0658,0.5093,7.967
6.478000,-3.6615,-7.2057,0.5113,8.099
6.483000,-3.7558,-7.2594,0.5522,8.192
6.489000,-3.8782,-7.1891,0.6076,8.191
6.493000,-4.0597,-7.0595,0.7180,8.175
6.497000,-4.2642,-6.9133,0.7521,8.157
6.507000,-4.3363,-6.7214,0.7896,8.038
6.509000,-4.2093,-6.5316,0.8024,7.812
6.512000,-3.9311,-6.4305,0.8846,7.589
6.517000,-3.6479,-6.4207,0.9383,7.444
6.540000,-3.3239,-6.3902,0.9323,7.263
6.543000,-2.9879,-6.3660,0.9294,7.093
6.544000,-2.6400,-6.3679,0.8863,6.950
6.544000,-2.3879,-6.4466,0.7288,6.913
6.545000,-2.2220,-6.4803,0.5290,6.871
6.547000,-2.1325,-6.6056,0.3231,6.949
6.555000,-2.0476,-6.7147,0.1877,7.022
6.556000,-2.0008,-6.8361,0.0223,7.123
6.562000,-1.9968,-6.9383,-0.0754,7.220
6.568000,-1.9685,-7.0284,-0.1031,7.300
6.573000,-1.9637,-7.1302,-0.0878,7.396
6.577000,-2.0230,-7.1526,0.0203,7.433
6.583000,-2.0317,-7.0910,0.1729,7.378
6.589000,-2.0971,-6.9733,0.3792,7.292
6.591000,-2.1881,-6.8453,0.5383,7.207
6.596000,-2.2951,-6.7568,0.6434,7.165
6.603000,-2.4323,-6.5474,0.8712,7.039
6.607000,-2.5374,-6.2511,1.0830,6.833
6.611000,-2.6032,-5.8483,1.3094,6.534
6.616000,-2.7087,-5.4064,1.5168,6.234
6.641000,-2.7701,-4.9883,1.7033,5.955
6.642000,-2.6822,-4.5745,1.8835,5.627
6.642000,-2.4977,-4.1793,2.0216,5.272
6.643000,-2.2381,-3.8224,2.1928,4.943
6.643000,-2.0020,-3.5217,2.2608,4.639
6.646000,-1.8324,-3.3328,2.1975,4.393
6.652000,-1.6454,-3.2479,2.0533,4.180
6.656000,-1.4985,-3.2339,1.8052,3.995
6.661000,-1.2483,-3.3225,1.4731,3.843
6.666000,-1.0143,-3.4312,1.1123,3.747
6.671000,-0.7991,-3.5752,0.7543,3.740
6.676000,-0.6217,-3.7088,0.4325,3.785
6.681000,-0.4939,-3.7815,0.1253,3.816
6.686000,-0.3894,-3.9274,-0.1724,3.950
6.691000,-0.2555,-3.9931,-0.4889,4.031
6.696000,-0.0921,-4.0674,-0.8207,4.150
6.703000,0.0579,-4.0965,-1.0601,4.232
6.706000,0.1466,-4.0091,-1.2577,4.204
6.711000,0.2457,-3.8734,-1.4711,4.151
6.717000,0.3654,-3.7043,-1.6621,4.076
6.722000,0.4763,-3.4793,-1.8381,3.964
6.726000,0.5880,-3.2642,-1.9755,3.860
6.731000,0.6839,-3.0055,-2.0479,3.701
6.741000,0.7542,-2.7183,-2.0867,3.509
6.742000,0.7871,-2.4673,-2.0470,3.301
6.745000,0.7918,-2.1793,-1.9628,3.038
6.750000,0.7089,-1.9058,-1.8418,2.744
6.781000,0.6507,-1.6595,-1.6423,2.424
6.782000,0.5286,-1.4215,-1.3772,2.049
6.783000,0.3790,-1.1859,-1.0829,1.650
6.784000,0.3405,-0.9075,-0.7819,1.245
6.784000,0.3191,-0.6687,-0.4627,0.874
6.786000,0.2342,-0.3725,-0.1997,0.483
6.787000,0.2031,-0.0620,-0.0002,0.212
6.791000,0.1559,0.2501,0.2431,0.382
6.795000,0.1377,0.5249,0.3270,0.634
6.801000,0.0820,0.7895,0.4023,0.890
6.805000,0.1009,1.0553,0.4793,1.163
6.810000,0.1200,1.3460,0.5797,1.470
6.815000,0.1224,1.6206,0.5912,1.729
6.822000,0.1129,1.8504,0.6004,1.949
6.826000,0.1413,2.1065,0.6152,2.199
6.831000,0.1383,2.2984,0.5638,2.371
6.834000,0.1110,2.4233,0.4517,2.468
6.854000,0.1353,2.5454,0.4423,2.587
6.856000,0.1016,2.6531,0.3540,2.679
6.856000,0.0482,2.6822,0.2614,2.695
6.857000,-0.0106,2.7642,0.1053,2.766
6.859000,-0.0628,2.7987,-0.0325,2.800
6.864000,-0.1399,2.7926,-0.1372,2.799
6.869000,-0.2582,2.7417,-0.2737,2.767
6.874000,-0.3170,2.6752,-0.4461,2.731
6.879000,-0.3737,2.6148,-0.4772,2.684
6.886000,-0.4259,2.5151,-0.5561,2.611
6.889000,-0.4593,2.4336,-0.6921,2.571
6.894000,-0.4781,2.3520,-0.7653,2.519
6.899000,-0.4992,2.2652,-0.8548,2.472
6.904000,-0.4773,2.1351,-0.9125,2.370
6.910000,-0.4333,2.0007,-0.8764,2.227
6.914000,-0.2670,1.8951,-0.8163,2.081
6.922000,-0.1408,1.8261,-0.7394,1.975
6.927000,0.0193,1.7622,-0.6080,1.864
6.929000,0.1652,1.7197,-0.4274,1.780
6.934000,0.3332,1.6824,-0.2549,1.734
6.960000,0.4870,1.6522,-0.0480,1.723
6.961000,0.7109,1.6537,0.1308,1.805
6.961000,0.8897,1.6959,0.3337,1.944
6.962000,1.0900,1.7592,0.5150,2.133
6.962000,1.2884,1.7749,0.6052,2.275
6.963000,1.4580,1.7901,0.7402,2.425
6.970000,1.6592,1.8173,0.8506,2.604
6.974000,1.8747,1.8443,0.8929,2.777
6.979000,2.0157,1.8465,0.9553,2.896
6.984000,2.1405,1.8705,0.9974,3.013
6.989000,2.2608,1.9303,1.0260,3.145
6.994000,2.4122,2.0112,0.9983,3.296
6.999000,2.6330,2.0988,1.0409,3.524
7.004000,2.8845,2.2072,0.9987,3.767
7.009000,3.1597,2.2815,0.9725,4.017
7.013000,3.4530,2.3258,0.9980,4.281
7.019000,3.7146,2.3262,0.9826,4.492
7.024000,3.9796,2.3443,0.9045,4.707
7.030000,4.2844,2.3086,0.8026,4.933
7.034000,4.4732,2.2215,0.6887,5.042
7.039000,4.6610,2.0425,0.6088,5.125
7.044000,4.9096,1.9219,0.5628,5.302
7.048000,5.1149,1.8561,0.6511,5.480
7.057000,5.3099,1.7896,0.6986,5.647
7.058000,5.5232,1.8800,0.7001,5.876
7.063000,5.7094,1.9672,0.7656,6.087
7.068000,5.8326,2.1251,0.8516,6.266
7.097000,6.0095,2.3366,0.8958,6.510
7.098000,6.1567,2.5516,0.9341,6.730
7.099000,6.2259,2.8102,0.9929,6.903
7.099000,6.4128,3.0715,1.0218,7.183
7.100000,6.6617,3.3470,0.9777,7.519
7.101000,6.8721,3.5670,0.9687,7.803
7.107000,7.0550,3.6833,0.9305,8.013
7.109000,7.2653,3.7029,0.8943,8.203
7.114000,7.5120,3.5968,0.8741,8.374
7.118000,7.7567,3.4201,0.9228,8.527
7.123000,7.9536,3.1558,1.0136,8.617
7.128000,8.0716,2.9043,1.0673,8.644
7.134000,8.0631,2.6564,1.1741,8.570
7.140000,7.9860,2.3954,1.2189,8.426
7.143000,7.8045,2.0833,1.2227,8.170
7.147000,7.5435,1.8354,1.1836,7.853
7.175000,7.3754,1.5180,1.0754,7.606
7.177000,7.1047,1.2106,0.9512,7.270
7.178000,6.8733,0.9018,0.7781,6.976
7.178000,6.6525,0.6275,0.6732,6.716
7.178000,6.3498,0.4145,0.5201,6.385
7.180000,6.0010,0.2797,0.3833,6.020
7.182000,5.7146,0.1683,0.2777,5.724
7.188000,5.4142,0.1621,0.1964,5.420
7.192000,5.1502,0.2227,0.1639,5.158
7.197000,4.9276,0.3361,0.3021,4.948
7.203000,4.6434,0.5163,0.5292,4.702
7.207000,4.3646,0.8063,0.7156,4.496
7.212000,4.1367,1.1511,0.8969,4.387
7.217000,3.9544,1.5261,1.0706,4.372
7.222000,3.8008,1.8979,1.1530,4.402
7.227000,3.6637,2.2038,1.1992,4.440
7.232000,3.6334,2.3719,1.1784,4.496
7.237000,3.5565,2.4973,1.1001,4.483
7.241000,3.5428,2.4941,1.0079,4.448
7.257000,3.5562,2.4171,0.7964,4.373
7.258000,3.4798,2.2689,0.6006,4.197
7.259000,3.3924,1.9896,0.4825,3.962
7.262000,3.3253,1.7088,0.2844,3.749
7.266000,3.2857,1.4217,0.1474,3.583
7.293000,3.3600,1.2050,-0.0142,3.570
7.294000,3.4258,1.0490,-0.1331,3.585
7.295000,3.4452,0.8700,-0.2115,3.560
7.295000,3.4392,0.6697,-0.2252,3.511
7.296000,3.4151,0.3791,-0.2504,3.445
7.296000,3.3283,0.1376,-0.3106,3.346
7.303000,3.2527,-0.1388,-0.3527,3.275
7.306000,3.1666,-0.4668,-0.4648,3.234
7.311000,3.0119,-0.7563,-0.4746,3.141
7.316000,2.8553,-1.0027,-0.4732,3.063
7.321000,2.7231,-1.2134,-0.5854,3.038
7.326000,2.5946,-1.3202,-0.6867,2.991
7.331000,2.4717,-1.3527,-0.6431,2.890
7.336000,2.3551,-1.3197,-0.6015,2.766
7.342000,2.2777,-1.2100,-0.4708,2.622
7.346000,2.2564,-1.1047,-0.2949,2.530
7.354000,2.2363,-0.9916,-0.0795,2.448
7.357000,2.2216,-0.8240,0.2012,2.378
7.361000,2.2335,-0.6570,0.4172,2.365
7.366000,2.2457,-0.5195,0.6515,2.395
7.390000,2.1908,-0.3355,0.8656,2.379
7.392000,2.1070,-0.1388,1.0873,2.375
7.392000,2.0372,-0.0061,1.2402,2.385
7.393000,1.9046,0.1074,1.3360,2.329
7.393000,1.7280,0.1892,1.4895,2.289
7.396000,1.5582,0.2473,1.5353,2.201
7.401000,1.3854,0.2839,1.5929,2.130
7.406000,1.2290,0.2872,1.5974,2.036
7.410000,1.0841,0.2571,1.5898,1.941
7.415000,0.8574,0.1480,1.5558,1.783
7.422000,0.6517,0.0698,1.5482,1.681
7.426000,0.4339,0.0062,1.4952,1.557
7.430000,0.2377,-0.0497,1.4208,1.441
7.436000,0.0656,-0.1718,1.2996,1.312
7.440000,-0.0825,-0.2312,1.2012,1.226
7.446000,-0.2714,-0.3649,1.1309,1.219
7.453000,-0.4528,-0.4600,1.1060,1.281
7.456000,-0.5714,-0.6231,0.9905,1.302
7.460000,-0.7188,-0.8155,0.9523,1.445
7.465000,-0.8654,-1.0137,0.9747,1.651
7.476000,-1.0136,-1.2371,1.0051,1.889
7.481000,-1.1562,-1.4616,0.9764,2.104
7.481000,-1.2903,-1.6595,1.0465,2.348
7.523000,-1.3904,-1.8333,1.0976,2.549
7.524000,-1.5256,-1.9748,1.1421,2.744
7.525000,-1.6669,-2.1293,1.1754,2.949
7.525000,-1.8167,-2.3253,1.1877,3.181
7.526000,-1.9053,-2.5091,1.1910,3.368
7.526000,-1.9975,-2.7533,1.2354,3.619
7.527000,-2.0959,-3.0199,1.3064,3.901
7.527000,-2.1859,-3.2531,1.3891,4.158
7.527000,-2.2604,-3.4912,1.4785,4.414
7.530000,-2.3358,-3.6999,1.5644,4.647
7.536000,-2.4437,-3.9068,1.6636,4.899
7.540000,-2.5862,-4.0585,1.7257,5.113
7.545000,-2.8012,-4.2109,1.8412,5.382
7.550000,-3.0437,-4.2707,1.9817,5.606
7.556000,-3.2559,-4.3721,2.0031,5.808
7.560000,-3.4068,-4.5056,2.0660,6.015
7.565000,-3.5564,-4.5862,2.1969,6.205
7.571000,-3.6925,-4.6620,2.2303,6.352
7.574000,-3.8463,-4.7552,2.2260,6.509
7.579000,-3.9748,-4.8029,2.1893,6.608
7.584000,-4.0708,-4.8918,2.1462,6.716
7.590000,-4.1775,-5.0071,2.0757,6.843
7.594000,-4.2090,-5.1229,2.0016,6.926
7.599000,-4.2417,-5.2603,1.9549,7.035
7.622000,-4.2638,-5.4353,1.9042,7.166
7.624000,-4.2445,-5.5941,1.8729,7.268
7.625000,-4.2506,-5.7312,1.8301,7.366
7.625000,-4.2798,-5.8491,1.7520,7.456
7.626000,-4.3250,-5.9810,1.7150,7.578
7.630000,-4.3214,-6.1048,1.6022,7.649
7.634000,-4.3483,-6.2931,1.4781,7.791
7.639000,-4.4104,-6.5164,1.3332,7.981
7.644000,-4.5076,-6.7144,1.1839,8.173
7.649000,-4.6232,-6.8589,1.0565,8.339
7.655000,-4.8123,-6.9924,0.9268,8.539
7.659000,-4.9958,-7.1092,0.8981,8.735
7.664000,-5.1593,-7.1593,0.8410,8.865
7.673000,-5.3388,-7.1320,0.7825,8.943
7.675000,-5.4387,-7.0662,0.8632,8.959
7.678000,-5.4925,-6.9781,0.9306,8.929
7.684000,-5.5219,-6.8868,1.0065,8.884
7.716000,-5.5053,-6.8263,0.9973,8.826
7.718000,-5.4381,-6.7987,0.9443,8.757
7.718000,-5.3132,-6.7179,0.7961,8.602
7.719000,-5.1091,-6.7041,0.6992,8.458
7.719000,-4.8308,-6.7074,0.5479,8.284
7.720000,-4.5836,-6.7617,0.4694,8.182
7.720000,-4.3530,-6.7975,0.3728,8.080
7.725000,-4.1344,-6.8944,0.2586,8.043
7.727000,-3.9803,-6.9566,0.1480,8.016
7.733000,-3.8333,-7.0581,0.0724,8.032
7.738000,-3.6885,-7.1652,0.0055,8.059
7.744000,-3.4980,-7.2177,-0.0169,8.021
7.749000,-3.2572,-7.1964,-0.1362,7.900
7.752000,-2.9923,-7.1111,-0.3837,7.725
7.758000,-2.7727,-7.0058,-0.5507,7.555
7.763000,-2.6270,-6.8489,-0.7169,7.370
7.769000,-2.4858,-6.6553,-0.9490,7.167
7.773000,-2.3131,-6.4846,-1.1919,6.987
7.778000,-2.2070,-6.3298,-1.4092,6.850
7.782000,-2.1889,-6.2125,-1.5724,6.772
7.788000,-2.2084,-6.1327,-1.7605,6.752
7.793000,-2.2653,-6.0414,-1.8997,6.726
7.798000,-2.3236,-5.8696,-1.9710,6.613
7.838000,-2.3760,-5.6857,-2.0582,6.497
7.840000,-2.4031,-5.4375,-2.0775,6.297
7.840000,-2.2591,-5.1339,-2.1224,5.997
7.841000,-2.0420,-4.8710,-2.1303,5.695
7.842000,-1.7712,-4.6811,-2.0121,5.394
7.842000,-1.4299,-4.4151,-1.8779,5.006
7.843000,-0.9822,-4.1866,-1.7368,4.638
7.843000,-0.5051,-3.9299,-1.5048,4.238
7.844000,-0.0726,-3.7212,-1.2561,3.928
7.847000,0.2816,-3.5433,-1.0840,3.716
7.853000,0.6056,-3.3835,-0.9951,3.578
7.857000,0.8680,-3.3436,-0.9438,3.581
7.863000,1.0787,-3.2620,-0.8202,3.532
7.867000,1.3478,-3.1872,-0.8255,3.558
7.873000,1.6008,-3.1227,-0.7877,3.596
7.877000,1.8070,-3.0072,-0.8073,3.600
7.882000,2.0022,-2.8655,-0.8795,3.605
7.890000,2.2650,-2.7082,-0.9968,3.669
7.892000,2.4905,-2.5579,-1.0921,3.733
7.897000,2.7382,-2.3488,-1.2467,3.817
7.924000,2.9719,-2.1558,-1.2669,3.884
7.927000,3.1154,-1.8969,-1.3440,3.887
7.927000,3.2066,-1.6550,-1.4072,3.873
7.928000,3.2984,-1.4242,-1.4953,3.891
7.929000,3.3116,-1.1981,-1.5971,3.867
7.931000,3.2677,-0.9485,-1.5840,3.753
7.931000,3.2244,-0.7030,-1.6646,3.696
7.937000,3.1356,-0.4417,-1.6798,3.585
7.942000,2.9828,-0.2326,-1.6509,3.417
7.946000,2.9162,-0.0141,-1.6004,3.327
7.952000,2.7347,0.1727,-1.4859,3.117
7.956000,2.5727,0.3720,-1.3695,2.938
7.961000,2.4225,0.5663,-1.1896,2.758
7.966000,2.2702,0.8017,-0.9983,2.606
7.972000,2.1753,1.0111,-0.8028,2.530
7.976000,2.0485,1.2243,-0.6295,2.468
7.981000,1.9432,1.3782,-0.4706,2.428
7.986000,1.8643,1.5092,-0.3044,2.418
7.991000,1.7896,1.5872,-0.1789,2.399
7.996000,1.7429,1.6986,-0.0387,2.434
8.006000,1.6856,1.8120,0.0587,2.475
8.007000,1.6229,1.8894,0.1255,2.494
8.011000,1.4778,1.9328,0.1503,2.438
8.016000,1.2884,1.9612,0.1843,2.354
8.049000,1.1487,1.9945,0.1778,2.308
8.052000,1.0343,1.9895,0.1748,2.249
8.053000,1.0434,1.9820,0.2068,2.249
8.054000,1.0469,1.9417,0.1952,2.215
8.055000,1.0086,1.9063,0.2375,2.170
8.056000,0.8619,1.8643,0.2142,2.065
8.057000,0.7240,1.8348,0.1447,1.978
8.057000,0.4945,1.7650,0.0507,1.834
8.060000,0.2600,1.6920,-0.0167,1.712
8.066000,0.0902,1.6134,0.0572,1.617
8.071000,0.0188,1.5038,0.1193,1.509
8.075000,-0.0043,1.3873,0.1574,1.396
8.080000,0.0664,1.2783,0.2359,1.302
8.086000,0.1663,1.1653,0.3859,1.239
8.090000,0.2786,1.0741,0.6090,1.266
8.096000,0.4440,1.0816,0.7829,1.407
8.101000,0.6242,1.1302,0.9095,1.579
8.107000,0.7397,1.2000,1.0815,1.777
8.110000,0.8341,1.2270,1.2271,1.925
8.115000,0.9286,1.2131,1.3696,2.052
8.145000,1.0139,1.3049,1.4683,2.211
8.147000,1.1734,1.3607,1.5472,2.371
8.147000,1.3568,1.4926,1.6919,2.633
8.147000,1.4850,1.6769,1.9048,2.940
8.148000,1.5722,1.8412,2.0585,3.178
8.149000,1.5513,1.9352,2.2027,3.317
8.150000,1.5446,2.1173,2.2996,3.487
8.155000,1.5781,2.3318,2.3964,3.697
8.160000,1.6278,2.6028,2.4935,3.955
8.165000,1.6149,2.8394,2.6003,4.175
8.172000,1.6418,3.0363,2.6112,4.328
8.176000,1.6347,3.2083,2.5987,4.441
8.179000,1.5981,3.3122,2.5606,4.481
8.186000,1.5921,3.3650,2.5661,4.521
8.190000,1.6262,3.3621,2.5269,4.509
8.195000,1.7003,3.3894,2.4266,4.502
8.199000,1.8242,3.4067,2.3371,4.516
8.205000,1.9330,3.4111,2.2823,4.537
8.210000,2.0412,3.4030,2.1931,4.534
8.214000,2.1724,3.3988,2.1175,4.556
8.222000,2.3408,3.3886,2.0293,4.591
8.225000,2.4702,3.3562,1.9025,4.581
8.229000,2.6059,3.3013,1.8139,4.580
8.234000,2.7336,3.2336,1.7279,4.573
8.260000,2.8773,3.1318,1.5776,4.536
8.262000,2.9722,3.0841,1.4802,4.532
8.263000,3.0881,3.1170,1.3735,4.598
8.263000,3.1863,3.0771,1.2125,4.593
8.264000,3.2884,3.0770,1.1099,4.638
8.264000,3.4737,3.1025,1.0322,4.770
8.271000,3.7297,3.1055,0.9721,4.950
8.274000,3.9436,3.1453,0.9918,5.141
8.279000,4.1990,3.1595,0.9736,5.344
8.284000,4.4667,3.0975,0.9556,5.519
8.289000,4.6795,3.1074,0.9567,5.698
8.294000,4.8732,3.1100,1.0222,5.871
8.299000,5.0474,3.0906,1.0249,6.006
8.305000,5.1566,3.0395,0.9651,6.063
8.310000,5.2535,2.9279,0.8934,6.080
8.314000,5.3525,2.6770,0.7978,6.038
8.318000,5.4343,2.4041,0.7431,5.989
8.324000,5.5208,2.0521,0.7239,5.934
8.328000,5.5592,1.7405,0.7281,5.871
8.333000,5.5474,1.4431,0.7722,5.784
8.364000,5.5381,1.1193,0.8297,5.711
8.366000,5.4648,0.8366,0.8290,5.590
8.366000,5.3921,0.5827,0.8133,5.484
8.367000,5.3154,0.2481,0.8452,5.388
8.368000,5.2663,-0.0952,0.8441,5.334
8.369000,5.2256,-0.4472,0.9059,5.322
8.371000,5.1387,-0.7978,0.9614,5.288
8.376000,5.0725,-1.1234,1.0605,5.303
8.379000,4.8910,-1.4066,1.3578,5.267
8.388000,4.6760,-1.5587,1.6324,5.192
8.390000,4.4182,-1.6031,1.9000,5.070
8.393000,4.1583,-1.5379,2.1744,4.938
8.398000,3.9109,-1.3484,2.4482,4.807
8.403000,3.6325,-1.0878,2.6470,4.624
8.408000,3.3591,-0.7898,2.8257,4.460
8.413000,3.0788,-0.4853,2.9179,4.269
8.419000,2.8676,-0.2207,2.9954,4.153
8.423000,2.6875,-0.0077,2.9800,4.013
8.428000,2.4660,0.1388,2.9410,3.841
8.433000,2.2369,0.2141,2.9268,3.690
8.441000,1.9716,0.2541,2.8252,3.454
8.446000,1.7440,0.2538,2.6937,3.219
8.449000,1.5114,0.2256,2.5447,2.968
8.484000,1.2998,0.0828,2.3520,2.689
8.486000,1.0595,-0.0875,2.1211,2.373
8.487000,0.7738,-0.2542,1.9601,2.123
8.488000,0.5407,-0.4343,1.7420,1.875
8.489000,0.3488,-0.6316,1.5419,1.702
8.489000,0.1571,-0.7795,1.3981,1.608
8.492000,-0.0176,-0.9427,1.2510,1.567
8.493000,-0.1655,-1.1159,1.0847,1.565
8.493000,-0.3199,-1.2676,0.9423,1.612
8.497000,-0.4238,-1.4510,0.7880,1.705
8.503000,-0.5172,-1.6553,0.6227,1.843
8.507000,-0.5553,-1.8385,0.5135,1.988
8.513000,-0.6168,-2.0096,0.3794,2.136
8.519000,-0.6682,-2.2091,0.2277,2.319
8.524000,-0.6711,-2.3053,0.1445,2.405
8.527000,-0.6449,-2.4277,0.0267,2.512
8.533000,-0.6974,-2.5625,-0.1042,2.658
8.538000,-0.7519,-2.6661,-0.1503,2.774
8.542000,-0.7820,-2.7625,-0.2390,2.881
8.546000,-0.8068,-2.8374,-0.2746,2.963
8.591000,-0.9147,-2.9000,-0.3032,3.056
8.592000,-1.0172,-3.0319,-0.2823,3.210
8.593000,-1.1551,-3.0926,-0.2531,3.311
8.593000,-1.3041,-3.1573,-0.2330,3.424
8.593000,-1.4427,-3.2143,-0.1915,3.528
8.594000,-1.5729,-3.2917,-0.2052,3.654
8.594000,-1.6782,-3.3707,-0.1858,3.770
8.595000,-1.9000,-3.3750,-0.1284,3.875
8.595000,-2.1278,-3.4118,0.0143,4.021
8.597000,-2.2898,-3.3947,0.1055,4.096
8.603000,-2.3859,-3.3996,0.2288,4.160
8.607000,-2.5527,-3.3985,0.3177,4.262
8.611000,-2.6945,-3.3911,0.4123,4.351
8.616000,-2.8136,-3.4153,0.5177,4.455
8.621000,-2.8601,-3.3759,0.6218,4.468
8.626000,-2.9462,-3.3278,0.8060,4.517
8.631000,-3.0144,-3.2990,0.9175,4.562
8.637000,-3.0580,-3.2522,1.0404,4.584
8.642000,-3.1173,-3.2131,1.1720,4.628
8.646000,-3.1233,-3.1559,1.3199,4.632
8.650000,-3.1621,-3.1165,1.4125,4.659
8.693000,-3.1355,-3.0801,1.5118,4.648
8.695000,-3.0295,-3.0929,1.5677,4.605
8.698000,-2.9949,-3.1142,1.6762,4.634
8.699000,-2.9718,-3.1656,1.8321,4.713
8.700000,-2.9674,-3.2302,1.9634,4.806
8.701000,-2.9220,-3.2746,2.0646,4.850
8.702000,-2.9097,-3.2655,2.1119,4.857
8.702000,-2.9233,-3.2576,2.1388,4.872
8.703000,-2.9987,-3.2800,2.2842,4.997
8.703000,-3.0402,-3.2992,2.3420,5.061
8.706000,-3.0669,-3.3028,2.3794,5.097
8.710000,-3.1027,-3.3533,2.3817,5.152
8.716000,-3.1310,-3.3452,2.4258,5.184
8.720000,-3.1443,-3.3954,2.4064,5.216
8.725000,-3.1931,-3.4636,2.3662,5.272
8.731000,-3.2199,-3.4992,2.3937,5.324
8.738000,-3.3132,-3.5335,2.2859,5.356
8.740000,-3.3843,-3.5472,2.2173,5.381
8.745000,-3.3832,-3.5784,2.1714,5.382
8.752000,-3.4388,-3.5839,1.9859,5.349
8.755000,-3.4461,-3.5710,1.7972,5.278
8.760000,-3.4336,-3.5682,1.6154,5.209
8.767000,-3.4420,-3.6065,1.3974,5.178
8.802000,-3.4332,-3.5905,1.2322,5.118
8.805000,-3.4047,-3.5654,1.0956,5.050
8.806000,-3.3518,-3.5648,0.9328,4.981
8.806000,-3.2888,-3.5194,0.7941,4.882
8.806000,-3.2253,-3.5247,0.6339,4.820
8.807000,-3.1303,-3.4635,0.5506,4.701
8.808000,-3.0492,-3.4224,0.4360,4.604
8.809000,-2.9940,-3.4012,0.2666,4.539
8.810000,-3.0030,-3.3737,0.1236,4.518
8.814000,-2.9852,-3.3661,-0.0550,4.499
8.819000,-2.9261,-3.2897,-0.2214,4.408
8.826000,-2.8594,-3.2259,-0.3521,4.325
8.830000,-2.7443,-3.1485,-0.4662,4.203
8.835000,-2.6816,-3.1678,-0.6092,4.195
8.841000,-2.5944,-3.2094,-0.7118,4.188
8.845000,-2.4973,-3.2135,-0.8336,4.154
8.849000,-2.4953,-3.2185,-0.8910,4.169
8.856000,-2.4307,-3.2482,-0.9077,4.157
8.859000,-2.4133,-3.2617,-0.8915,4.154
8.864000,-2.4597,-3.2017,-0.8375,4.123
8.899000,-2.5843,-3.1062,-0.7938,4.118
8.901000,-2.6960,-3.0042,-0.7526,4.106
8.902000,-2.7780,-2.8591,-0.6830,4.044
8.902000,-2.7585,-2.6880,-0.5626,3.892
8.903000,-2.7786,-2.4522,-0.3796,3.725
8.903000,-2.7356,-2.2357,-0.2484,3.542
8.906000,-2.6606,-1.9930,-0.1137,3.326
8.907000,-2.5034,-1.7483,-0.0517,3.054
8.909000,-2.3119,-1.5514,-0.0097,2.784
8.914000,-2.0239,-1.3761,0.0524,2.448
8.920000,-1.6873,-1.2394,0.1316,2.098
8.924000,-1.3405,-1.1558,0.2749,1.791
8.930000,-0.9881,-0.9865,0.3906,1.450
8.934000,-0.7210,-0.8848,0.5857,1.283
8.940000,-0.3646,-0.7867,0.8023,1.181
8.945000,0.0002,-0.7051,1.1230,1.326
8.950000,0.3734,-0.6287,1.4086,1.587
8.954000,0.7958,-0.5263,1.7162,1.964
8.959000,1.2264,-0.3698,2.0153,2.388
8.964000,1.6623,-0.1389,2.3356,2.870
8.970000,2.1444,0.1021,2.6676,3.424
8.974000,2.5216,0.4145,2.9404,3.896
8.979000,2.8245,0.7301,3.0642,4.231
8.983000,3.1029,0.9982,3.1335,4.521
9.022000,3.3253,1.3087,3.1975,4.795
9.023000,3.5222,1.5676,3.2570,5.047
9.023000,3.7124,1.7866,3.2548,5.250
9.024000,3.7714,1.9583,3.1627,5.297
9.024000,3.7464,2.1343,3.1227,5.324
9.025000,3.6565,2.2310,3.0343,5.249
9.025000,3.4777,2.2674,2.8500,5.036
9.026000,3.2174,2.2703,2.6866,4.767
9.030000,2.9425,2.2276,2.5010,4.458
9.033000,2.6297,2.1236,2.2730,4.073
9.038000,2.2986,1.9902,2.0332,3.658
9.044000,2.0357,1.8301,1.7784,3.264
9.049000,1.7456,1.6587,1.5507,2.864
9.053000,1.4745,1.5125,1.3804,2.523
9.058000,1.2633,1.3804,1.2284,2.238
9.064000,1.1100,1.2864,1.1276,2.039
9.068000,1.0314,1.2070,1.0029,1.878
9.072000,0.9895,1.1737,0.8228,1.742
9.078000,0.9508,1.2005,0.7213,1.693
9.083000,0.9965,1.1920,0.6480,1.683
9.088000,1.0333,1.1933,0.5311,1.665
9.093000,1.0824,1.1969,0.4669,1.680
9.098000,1.1486,1.2434,0.3786,1.735
9.133000,1.1145,1.2368,0.3146,1.694
9.135000,1.0876,1.2822,0.2038,1.694
9.135000,1.0606,1.2837,0.0800,1.667
9.135000,0.9928,1.2461,-0.0564,1.594
9.136000,0.8794,1.2412,-0.1548,1.529
9.136000,0.7635,1.2118,-0.2793,1.459
9.137000,0.6835,1.1962,-0.3895,1.432
9.137000,0.6129,1.1921,-0.5085,1.434
9.142000,0.5467,1.1492,-0.5334,1.380
9.147000,0.5044,1.1394,-0.5147,1.348
9.153000,0.4619,1.1246,-0.4785,1.307
9.157000,0.4455,1.1261,-0.4610,1.296
9.163000,0.3833,1.1175,-0.5215,1.291
9.167000,0.4403,1.1634,-0.5232,1.350
9.174000,0.4631,1.1751,-0.5592,1.381
9.178000,0.4638,1.1289,-0.5862,1.354
9.183000,0.4972,1.1227,-0.5801,1.358
9.188000,0.5274,1.1040,-0.6082,1.366
9.193000,0.5951,1.0293,-0.6369,1.349
9.197000,0.6140,0.9491,-0.6591,1.309
9.241000,0.6153,0.8802,-0.7082,1.286
9.242000,0.6279,0.7890,-0.7197,1.239
9.243000,0.6661,0.6806,-0.7610,1.219
9.243000,0.6462,0.5048,-0.7721,1.126
9.243000,0.5637,0.3575,-0.6961,0.964
9.244000,0.5073,0.2603,-0.6838,0.890
9.244000,0.4820,0.1036,-0.6663,0.829
9.244000,0.4519,-0.0312,-0.6195,0.767
9.245000,0.4267,-0.1057,-0.5434,0.699
9.247000,0.2871,-0.2082,-0.5007,0.614
9.256000,0.1933,-0.2787,-0.4362,0.553
9.258000,0.0906,-0.3482,-0.3498,0.502
9.263000,-0.0067,-0.3998,-0.2943,0.496
9.267000,-0.1271,-0.4142,-0.1837,0.471
9.273000,-0.2299,-0.4150,-0.0755,0.480
9.278000,-0.3339,-0.3831,0.0109,0.508
9.282000,-0.3580,-0.3616,0.1187,0.522
9.288000,-0.3811,-0.2499,0.2071,0.501
9.291000,-0.3532,-0.1418,0.3911,0.546
9.296000,-0.3032,-0.0280,0.5868,0.661
9.300000,-0.2121,0.1082,0.7346,0.772
9.328000,-0.1041,0.2087,0.9277,0.957
9.330000,-0.0176,0.3763,1.0966,1.159
9.331000,0.0543,0.5005,1.2055,1.306
9.331000,0.1211,0.6382,1.3597,1.507
9.332000,0.1731,0.7728,1.4369,1.641
9.332000,0.2151,0.7914,1.5399,1.745
9.338000,0.2708,0.8423,1.6114,1.838
9.341000,0.3642,0.8729,1.6250,1.880
9.346000,0.4159,0.8875,1.5592,1.842
9.351000,0.4214,0.8718,1.4837,1.772
9.356000,0.4690,0.8640,1.3843,1.698
9.361000,0.5346,0.8594,1.2924,1.642
9.365000,0.5706,0.8341,1.1483,1.530
9.370000,0.5457,0.7163,0.9280,1.293
9.375000,0.5703,0.5998,0.7417,1.111
9.381000,0.5701,0.4726,0.6016,0.954
9.386000,0.5118,0.3207,0.4525,0.755
9.390000,0.4892,0.2378,0.2943,0.618
9.396000,0.4880,0.1716,0.2730,0.585
9.401000,0.4532,0.1054,0.2039,0.508
9.405000,0.3804,0.0874,0.1277,0.411
9.411000,0.3150,0.0602,0.0302,0.322
9.415000,0.3168,0.0381,-0.0312,0.321
9.425000,0.2996,0.1073,-0.0995,0.333
9.427000,0.3138,0.1269,-0.1143,0.357
9.430000,0.3137,0.1302,-0.0303,0.341
9.467000,0.3521,0.1557,0.0491,0.388
9.469000,0.4144,0.1550,0.0427,0.444
9.469000,0.4815,0.1833,0.0989,0.525
9.470000,0.5174,0.2237,0.1529,0.584
9.470000,0.5795,0.2520,0.2334,0.674
9.471000,0.5744,0.2561,0.2973,0.696
9.471000,0.5212,0.1929,0.2919,0.628
9.471000,0.4775,0.1847,0.2773,0.582
9.474000,0.3979,0.1358,0.2868,0.509
9.480000,0.3065,0.0990,0.2751,0.424
9.486000,0.2512,0.0793,0.1753,0.316
9.490000,0.2224,0.0744,0.1858,0.299
9.495000,0.1317,0.0007,0.1391,0.192
9.500000,0.0200,-0.0864,0.0715,0.114
9.506000,-0.0721,-0.0455,0.0813,0.118
9.510000,-0.0845,-0.0130,0.0871,0.122
9.514000,-0.0630,-0.0032,0.1414,0.155
9.546000,-0.0721,0.0078,0.2441,0.255
9.546000,-0.0854,0.0174,0.3615,0.372
9.547000,-0.0624,0.0520,0.5007,0.507
9.547000,0.0062,0.1518,0.6478,0.665
9.547000,0.0940,0.2736,0.8290,0.878
9.548000,0.1340,0.3479,0.9703,1.039
9.550000,0.1738,0.4151,1.1483,1.233
9.556000,0.2708,0.4702,1.3174,1.425
9.560000,0.3721,0.5179,1.3963,1.535
9.564000,0.4467,0.5677,1.4828,1.649
9.570000,0.5280,0.6239,1.4597,1.673
9.574000,0.6038,0.6290,1.4348,1.679
9.578000,0.6454,0.6308,1.4080,1.672
9.584000,0.6889,0.6700,1.4104,1.707
9.590000,0.6719,0.6388,1.3270,1.619
9.594000,0.6426,0.5496,1.2296,1.492
9.599000,0.6584,0.4863,1.1325,1.397
9.604000,0.6118,0.4059,0.9834,1.227
9.609000,0.5747,0.3543,0.8513,1.087
9.614000,0.5330,0.3051,0.7981,1.007
9.621000,0.4700,0.2801,0.7018,0.890
9.624000,0.4312,0.3128,0.5649,0.776
9.629000,0.3641,0.3650,0.5570,0.759
9.645000,0.3043,0.4053,0.5613,0.756
9.647000,0.2041,0.4794,0.5774,0.778
9.649000,0.1402,0.5464,0.6581,0.867
9.649000,0.0881,0.6517,0.7012,0.961
9.696000,0.0647,0.7638,0.7063,1.042
9.698000,0.0339,0.8326,0.7389,1.114
9.699000,0.0626,0.9609,0.7582,1.226
9.699000,0.1722,1.1317,0.7191,1.352
9.699000,0.3958,1.2943,0.6049,1.483
9.700000,0.6325,1.4771,0.4641,1.673
9.700000,0.9776,1.6748,0.3067,1.963
9.700000,1.3612,1.8673,0.1855,2.318
9.701000,1.6083,2.0661,0.0645,2.619
9.701000,1.6545,2.1653,0.0080,2.725
9.704000,1.5837,2.2060,-0.0849,2.717
9.711000,1.3917,2.1095,-0.2137,2.536
9.713000,1.2391,1.9653,-0.3311,2.347
9.718000,1.1265,1.8554,-0.3971,2.207
9.723000,0.9321,1.6412,-0.4356,1.937
9.729000,0.7259,1.4505,-0.4689,1.688
9.734000,0.6202,1.3144,-0.5209,1.544
9.740000,0.4838,1.1975,-0.4724,1.375
9.743000,0.3651,1.0956,-0.3790,1.215
9.747000,0.3690,1.0016,-0.2643,1.100
9.774000,0.3954,0.8968,-0.1390,0.990
9.775000,0.4559,0.8596,0.1094,0.979
9.776000,0.5147,0.8398,0.2694,1.021
9.776000,0.5334,0.7892,0.3050,1.000
9.776000,0.5572,0.7695,0.3720,1.020
9.777000,0.6290,0.7496,0.4417,1.074
9.783000,0.6817,0.7247,0.5167,1.121
9.788000,0.7771,0.7011,0.6095,1.211
9.793000,0.7863,0.5929,0.7054,1.211
9.798000,0.7043,0.4742,0.7635,1.142
9.803000,0.6055,0.3188,0.8675,1.105
9.809000,0.4924,0.1702,0.9095,1.048
9.812000,0.3149,0.0521,0.9664,1.018
9.817000,0.1042,-0.0855,1.0164,1.025
9.823000,-0.0631,-0.2134,1.1219,1.144
9.827000,-0.2344,-0.3026,1.1345,1.197
9.832000,-0.3812,-0.3862,1.2339,1.348
9.840000,-0.4698,-0.4403,1.2336,1.392
9.843000,-0.4525,-0.4814,1.2487,1.413
9.846000,-0.4418,-0.5049,1.2768,1.442
9.882000,-0.4713,-0.5444,1.2534,1.446
9.883000,-0.5434,-0.6286,1.1978,1.458
9.883000,-0.6007,-0.7002,1.1389,1.466
9.884000,-0.6121,-0.7687,1.1653,1.524
9.884000,-0.5824,-0.8865,1.2100,1.609
9.884000,-0.6313,-1.0323,1.2037,1.707
9.885000,-0.6174,-1.1410,1.2542,1.804
9.892000,-0.5242,-1.2394,1.3949,1.938
9.893000,-0.4978,-1.3561,1.5110,2.090
9.897000,-0.4949,-1.4741,1.5856,2.221
9.902000,-0.5609,-1.5984,1.6483,2.364
9.906000,-0.6576,-1.6787,1.7302,2.499
9.911000,-0.7562,-1.8153,1.7452,2.629
9.916000,-0.8445,-1.8716,1.7942,2.727
9.921000,-0.8724,-1.8306,1.8489,2.744
9.926000,-0.8040,-1.7837,1.9477,2.761
9.931000,-0.7760,-1.7594,2.0926,2.842
9.937000,-0.8385,-1.7151,2.2622,2.960
9.941000,-0.9436,-1.7035,2.3440,3.047
9.946000,-1.0100,-1.6382,2.4983,3.154
9.955000,-1.1045,-1.5266,2.5558,3.175
9.958000,-1.1292,-1.4520,2.5692,3.160
9.962000,-1.1152,-1.3811,2.6128,3.159
9.966000,-1.0434,-1.3115,2.5433,3.046
10.002000,-0.8996,-1.1742,2.4750,2.883
10.004000,-0.7510,-1.0579,2.3770,2.708
10.004000,-0.5931,-0.9896,2.2306,2.511
10.005000,-0.4954,-0.9362,2.1166,2.367
10.006000,-0.4819,-0.9315,1.9535,2.217
10.006000,-0.4735,-0.9538,1.7893,2.082
10.006000,-0.5610,-0.9552,1.5806,1.930
10.007000,-0.6150,-1.0191,1.3661,1.812
10.010000,-0.6954,-1.1239,1.1811,1.772
10.015000,-0.7375,-1.2000,1.0306,1.745
10.020000,-0.8010,-1.2833,0.8545,1.737
10.026000,-0.8572,-1.3733,0.6336,1.738
10.030000,-0.8940,-1.4176,0.4635,1.739
10.037000,-0.8778,-1.4853,0.2911,1.750
10.040000,-0.8949,-1.5068,0.1237,1.757
10.046000,-0.8949,-1.5518,-0.0202,1.791
10.052000,-0.8755,-1.5866,-0.1809,1.821
10.056000,-0.8774,-1.6160,-0.2942,1.862
10.061000,-0.9077,-1.6187,-0.3963,1.898
10.066000,-0.9113,-1.6541,-0.4703,1.946
10.074000,-0.9839,-1.6769,-0.5976,2.034
10.082000,-0.9916,-1.6704,-0.6756,2.057
10.083000,-1.0085,-1.6799,-0.7208,2.088
10.122000,-1.0035,-1.7246,-0.7862,2.145
10.124000,-1.0915,-1.7446,-0.7905,2.205
10.125000,-1.1598,-1.7399,-0.8343,2.251
10.126000,-1.2252,-1.7438,-0.9203,2.321
10.126000,-1.2685,-1.6987,-0.8950,2.301
10.127000,-1.3137,-1.6812,-0.9072,2.318
10.127000,-1.3056,-1.6362,-0.8631,2.264
10.128000,-1.2492,-1.5805,-0.8008,2.168
10.129000,-1.1398,-1.4951,-0.6893,2.002
10.131000,-1.0253,-1.4425,-0.5859,1.864
10.136000,-0.9204,-1.3775,-0.3902,1.702
10.141000,-0.8776,-1.3697,-0.1863,1.637
10.145000,-0.8228,-1.3569,-0.0176,1.587
10.154000,-0.8614,-1.2629,0.0995,1.532
10.157000,-0.9262,-1.2169,0.1819,1.540
10.160000,-1.0218,-1.2018,0.3328,1.612
10.166000,-1.0982,-1.2081,0.3729,1.675
10.170000,-1.1527,-1.1756,0.3982,1.694
10.174000,-1.2164,-1.2073,0.4282,1.767
10.181000,-1.2177,-1.1883,0.4512,1.760
10.185000,-1.1805,-1.1807,0.4792,1.737
10.190000,-1.1598,-1.1799,0.4763,1.722
10.194000,-1.0647,-1.1571,0.4905,1.647
10.199000,-0.9911,-1.1604,0.4881,1.602
10.233000,-0.9082,-1.1568,0.5052,1.555
10.235000,-0.9064,-1.2007,0.5104,1.589
10.236000,-0.8832,-1.1730,0.4705,1.542
10.237000,-0.8551,-1.2002,0.4119,1.530
10.238000,-0.8605,-1.2824,0.3662,1.587
10.238000,-0.7846,-1.2976,0.3717,1.561
10.239000,-0.6991,-1.3102,0.3349,1.522
10.241000,-0.5730,-1.3469,0.3087,1.496
10.244000,-0.4686,-1.3022,0.2307,1.403
10.249000,-0.3453,-1.3513,0.2157,1.411
10.259000,-0.2152,-1.3983,0.2277,1.433
10.260000,-0.1573,-1.4508,0.2282,1.477
10.264000,-0.0828,-1.5467,0.2268,1.565
10.269000,-0.0589,-1.6262,0.2016,1.640
10.275000,-0.0517,-1.6507,0.1266,1.656
10.279000,-0.0495,-1.7066,0.1499,1.714
10.283000,-0.1117,-1.7409,0.2158,1.758
10.289000,-0.1810,-1.7583,0.3003,1.793
10.293000,-0.2406,-1.7133,0.4026,1.776
10.298000,-0.2615,-1.5675,0.5205,1.672
10.304000,-0.2153,-1.4288,0.6436,1.582
10.308000,-0.1787,-1.2996,0.7463,1.509
10.313000,-0.1972,-1.1277,0.8163,1.406
10.318000,-0.2062,-0.9922,0.8608,1.330
10.345000,-0.1962,-0.8260,0.8563,1.206
10.346000,-0.1411,-0.7514,0.7912,1.100
10.346000,-0.1103,-0.7039,0.7182,1.012
10.347000,-0.0726,-0.6570,0.6420,0.922
10.347000,-0.0211,-0.6709,0.5171,0.847
10.348000,0.0370,-0.6737,0.4226,0.796
10.354000,0.0778,-0.7183,0.2296,0.758
10.358000,0.1347,-0.7781,0.0867,0.794
10.363000,0.2007,-0.8604,0.0207,0.884
10.369000,0.2444,-0.9915,-0.0473,1.022
10.373000,0.3306,-1.1331,-0.1192,1.186
10.378000,0.4162,-1.2563,-0.2092,1.340
10.384000,0.4485,-1.4236,-0.2643,1.516
10.388000,0.4803,-1.5796,-0.2918,1.677
10.392000,0.4972,-1.7243,-0.3060,1.820
10.397000,0.4948,-1.8335,-0.3115,1.924
10.403000,0.5184,-1.9480,-0.2603,2.032
10.407000,0.4484,-2.0031,-0.2052,2.063
10.412000,0.4165,-2.0298,-0.1224,2.076
10.417000,0.3703,-1.9801,-0.0337,2.015
10.434000,0.3290,-1.8971,0.0939,1.928
10.436000,0.2685,-1.7760,0.2505,1.814
10.436000,0.1840,-1.5979,0.3975,1.657
10.438000,0.0397,-1.3798,0.4844,1.463
10.442000,-0.0951,-1.1766,0.4915,1.279
10.447000,-0.2681,-1.0076,0.5386,1.174
10.452000,-0.3527,-0.7554,0.5110,0.978
10.460000,-0.4374,-0.5972,0.5046,0.896
10.463000,-0.5270,-0.4444,0.4236,0.809
10.469000,-0.6000,-0.2278,0.3639,0.738
10.472000,-0.6567,-0.1223,0.2944,0.730
10.478000,-0.6732,-0.0347,0.2509,0.719
10.482000,-0.6759,-0.0104,0.1424,0.691
10.487000,-0.7103,-0.0041,0.0409,0.711
10.492000,-0.7501,-0.0302,-0.0103,0.751
10.496000,-0.8191,-0.0860,0.0271,0.824
10.502000,-0.8695,-0.1908,0.0551,0.892
10.507000,-0.9395,-0.3179,0.1236,1.000
10.512000,-1.0146,-0.4577,0.2039,1.132
10.518000,-1.0661,-0.6389,0.2792,1.274
10.548000,-1.2038,-0.9349,0.2875,1.551
10.549000,-1.3389,-1.1038,0.3963,1.780
10.549000,-1.3755,-1.2600,0.5194,1.936
10.549000,-1.4093,-1.3796,0.6234,2.068
10.550000,-1.4356,-1.5823,0.6984,2.248
10.550000,-1.5236,-1.7623,0.7849,2.458
10.558000,-1.5727,-1.8908,0.9001,2.619
10.559000,-1.6402,-2.0107,1.0172,2.787
10.561000,-1.7309,-2.1172,1.1577,2.970
10.567000,-1.7849,-2.1958,1.2738,3.103
10.572000,-1.8642,-2.2463,1.4306,3.251
10.577000,-1.8946,-2.2684,1.5800,3.351
10.582000,-1.8713,-2.2884,1.7078,3.414
10.587000,-1.8446,-2.3039,1.8309,3.473
10.591000,-1.7642,-2.3150,1.9541,3.506
10.596000,-1.7116,-2.2691,2.0701,3.516
10.602000,-1.6439,-2.2383,2.1503,3.512
10.606000,-1.5634,-2.2153,2.2066,3.496
10.611000,-1.5205,-2.1742,2.2271,3.464
10.616000,-1.4816,-2.1005,2.3002,3.449
10.621000,-1.4587,-2.0614,2.2775,3.401
10.626000,-1.4758,-1.9730,2.3025,3.372
10.631000,-1.5016,-1.8808,2.3009,3.330
10.670000,-1.5147,-1.7755,2.2583,3.248
10.672000,-1.4670,-1.6615,2.2226,3.139
10.672000,-1.4449,-1.5486,2.1628,3.027
10.672000,-1.3625,-1.4109,2.0812,2.860
10.673000,-1.2699,-1.2601,1.9851,2.672
10.673000,-1.2054,-1.1158,1.8770,2.494
10.673000,-1.1168,-0.9877,1.7140,2.272
10.674000,-1.0803,-0.9499,1.5750,2.133
10.677000,-1.0769,-0.8731,1.4025,1.972
10.681000,-1.0130,-0.7907,1.2917,1.822
10.686000,-0.9461,-0.7500,1.1204,1.647
10.691000,-0.8546,-0.6917,0.9385,1.446
10.696000,-0.7313,-0.6274,0.8149,1.262
10.702000,-0.5885,-0.5215,0.6031,0.991
10.706000,-0.4311,-0.5275,0.3104,0.749
10.711000,-0.3998,-0.4678,0.2022,0.648
10.715000,-0.2534,-0.3718,0.1823,0.486
10.721000,-0.0565,-0.3159,0.0470,0.324
10.725000,0.1334,-0.2717,-0.0573,0.308
10.730000,0.2611,-0.2513,-0.0560,0.367
10.773000,0.3436,-0.2211,-0.0737,0.415
10.774000,0.4262,-0.1789,-0.1004,0.473
10.775000,0.4684,-0.1582,-0.0474,0.497
10.777000,0.5345,-0.0564,0.0214,0.538
10.777000,0.5958,0.0520,0.1420,0.615
10.777000,0.6620,0.1219,0.2741,0.727
10.778000,0.7521,0.2201,0.4300,0.894
10.779000,0.8132,0.3008,0.6078,1.059
10.780000,0.8861,0.3831,0.7532,1.224
10.780000,1.0039,0.4883,0.9357,1.457
10.786000,1.1426,0.6521,1.0670,1.694
10.790000,1.2803,0.7925,1.2693,1.969
10.795000,1.3906,0.9265,1.3917,2.175
10.801000,1.4828,1.0247,1.4585,2.319
10.806000,1.5495,1.0728,1.5248,2.424
10.810000,1.6672,1.1329,1.5597,2.549
10.815000,1.7712,1.1664,1.5555,2.630
10.821000,1.8590,1.0923,1.4857,2.618
10.825000,1.9713,1.0324,1.3911,2.624
10.830000,2.0072,0.9241,1.2716,2.549
10.874000,2.0294,0.8136,1.1467,2.469
10.875000,2.0832,0.6528,0.9802,2.393
10.876000,2.1807,0.4635,0.7842,2.363
10.876000,2.2046,0.2384,0.6307,2.305
10.876000,2.1838,0.0402,0.5532,2.253
10.876000,2.0946,-0.2124,0.4729,2.158
10.877000,2.0258,-0.4545,0.4972,2.135
10.879000,1.8869,-0.6186,0.6308,2.083
10.880000,1.7570,-0.7763,0.7534,2.063
10.881000,1.6484,-0.8291,0.9389,2.070
10.886000,1.4870,-0.7939,1.1150,2.021
10.892000,1.3832,-0.7301,1.3342,2.056
10.894000,1.3129,-0.5756,1.5742,2.129
10.899000,1.2520,-0.3955,1.6957,2.145
10.904000,1.2052,-0.2090,1.8132,2.187
10.909000,1.1557,-0.0234,1.8737,2.202
10.914000,1.1105,0.1708,1.8962,2.204
10.920000,0.9837,0.3974,1.9621,2.231
10.924000,0.8539,0.6177,2.0085,2.268
10.929000,0.7595,0.7242,1.9536,2.218
10.934000,0.6385,0.7748,1.9315,2.177
10.939000,0.4692,0.8385,1.8843,2.115
10.944000,0.3212,0.8821,1.7978,2.028
10.948000,0.2760,0.9464,1.6698,1.939
10.988000,0.1729,0.9737,1.5006,1.797
10.990000,0.0794,1.0028,1.3149,1.656
10.990000,0.0359,0.9973,1.1534,1.525
10.990000,-0.0126,0.9052,0.9450,1.309
10.991000,-0.0110,0.7909,0.6993,1.056
10.991000,-0.0024,0.5996,0.4485,0.749
10.991000,0.0491,0.3982,0.2549,0.475
10.991000,0.0977,0.3110,0.1359,0.353
10.993000,0.1314,0.2205,0.0487,0.261
10.998000,0.1813,0.0454,-0.0851,0.205
11.003000,0.1137,-0.1446,-0.2073,0.277
11.009000,0.0842,-0.3513,-0.2290,0.428
11.013000,0.1166,-0.4652,-0.2247,0.530
11.020000,0.1847,-0.6272,-0.3499,0.742
11.023000,0.1830,-0.7869,-0.4726,0.936
11.028000,0.2049,-0.9468,-0.6212,1.151
11.034000,0.2291,-1.0040,-0.7361,1.266
11.039000,0.2002,-1.0854,-0.8531,1.395
11.044000,0.2382,-1.1694,-1.0205,1.570
11.048000,0.2783,-1.2081,-1.1449,1.688
11.054000,0.3204,-1.3022,-1.2650,1.844
11.058000,0.2906,-1.3990,-1.3161,1.943
11.063000,0.2388,-1.4318,-1.3135,1.958
11.108000,0.1510,-1.4413,-1.3245,1.963
11.109000,0.0371,-1.4534,-1.2658,1.928
11.110000,-0.0698,-1.4900,-1.2551,1.949
11.110000,-0.3033,-1.5174,-1.2569,1.994
11.111000,-0.5242,-1.5734,-1.3050,2.110
11.111000,-0.7351,-1.5816,-1.3184,2.186
11.112000,-0.9856,-1.6129,-1.3717,2.335
11.113000,-1.1659,-1.6316,-1.4576,2.479
11.113000,-1.3403,-1.6133,-1.5881,2.631
11.113000,-1.5111,-1.5888,-1.7153,2.784
11.117000,-1.6303,-1.6320,-1.8249,2.941
11.123000,-1.6404,-1.6492,-1.9765,3.052
11.127000,-1.6661,-1.6551,-2.1246,3.167
11.133000,-1.6620,-1.5803,-2.2140,3.188
11.137000,-1.6234,-1.5757,-2.2778,3.210
11.142000,-1.5721,-1.5196,-2.3376,3.201
11.147000,-1.5105,-1.4359,-2.3165,3.116
11.157000,-1.4294,-1.4019,-2.3026,3.051
11.159000,-1.4079,-1.3985,-2.3219,3.054
11.162000,-1.4078,-1.4402,-2.3139,3.068
11.201000,-1.3933,-1.5245,-2.2785,3.075
11.202000,-1.4050,-1.6180,-2.2347,3.096
11.202000,-1.4740,-1.6991,-2.2329,3.169
11.203000,-1.5453,-1.7752,-2.2659,3.267
11.203000,-1.6092,-1.8482,-2.2062,3.297
11.203000,-1.6753,-1.9133,-2.2287,3.381
11.204000,-1.7530,-1.9129,-2.2208,3.415
11.204000,-1.8303,-1.8804,-2.2087,3.430
11.207000,-1.8952,-1.8708,-2.2070,3.459
11.212000,-1.9118,-1.8672,-2.1825,3.450
11.218000,-1.8754,-1.8507,-2.1714,3.414
11.223000,-1.8410,-1.8549,-2.2124,3.424
11.228000,-1.8494,-1.9251,-2.3223,3.538
11.232000,-1.8861,-2.0470,-2.3265,3.628
11.240000,-1.9438,-2.1511,-2.3545,3.735
11.242000,-1.9531,-2.1845,-2.2196,3.676
11.246000,-1.9783,-2.2882,-2.2963,3.798
11.253000,-2.0195,-2.3926,-2.3374,3.907
11.261000,-2.0501,-2.4280,-2.2444,3.890
11.262000,-2.0560,-2.3971,-2.1325,3.811
11.269000,-2.0323,-2.3883,-2.0016,3.720
11.272000,-2.0363,-2.3536,-1.9089,3.651
11.277000,-1.9296,-2.2646,-1.7372,3.445
11.281000,-1.8225,-2.1577,-1.6273,3.260
11.291000,-1.7125,-2.0569,-1.5290,3.082
11.293000,-1.6143,-1.9363,-1.4276,2.897
11.297000,-1.4921,-1.8653,-1.3636,2.750
11.301000,-1.3938,-1.8058,-1.3396,2.645
11.332000,-1.3718,-1.7388,-1.3629,2.601
11.333000,-1.3139,-1.7240,-1.3955,2.578
11.334000,-1.2439,-1.6682,-1.4185,2.518
11.337000,-1.2072,-1.5715,-1.4486,2.455
11.337000,-1.1705,-1.5178,-1.4713,2.416
11.338000,-1.1743,-1.4328,-1.4530,2.354
11.338000,-1.1588,-1.3666,-1.4560,2.309
11.341000,-1.1790,-1.3025,-1.4633,2.286
11.347000,-1.1776,-1.2740,-1.4366,2.252
11.351000,-1.1615,-1.2760,-1.4572,2.259
11.357000,-1.1787,-1.2202,-1.4579,2.237
11.361000,-1.1502,-1.1711,-1.4075,2.162
11.366000,-1.1145,-1.1263,-1.3846,2.104
11.372000,-1.0904,-1.0954,-1.2960,2.017
11.376000,-1.0710,-1.0686,-1.2257,1.947
11.380000,-1.0371,-1.0295,-1.1378,1.852
11.387000,-0.9622,-0.9563,-1.0415,1.710
11.390000,-0.8704,-0.9353,-0.9229,1.576
11.395000,-0.7811,-0.8757,-0.8491,1.448
11.436000,-0.7443,-0.8303,-0.7076,1.321
11.438000,-0.7552,-0.8040,-0.6160,1.263
11.438000,-0.7420,-0.7723,-0.5407,1.200
11.438000,-0.7546,-0.7114,-0.4506,1.131
11.439000,-0.7407,-0.6311,-0.3747,1.043
11.439000,-0.6929,-0.5430,-0.2578,0.917
11.439000,-0.5731,-0.4404,-0.1772,0.744
11.439000,-0.4769,-0.3707,-0.1016,0.613
11.440000,-0.3996,-0.2960,0.0021,0.497
11.445000,-0.2814,-0.2164,0.1169,0.374
11.449000,-0.1607,-0.1056,0.2333,0.302
11.454000,-0.0448,-0.0261,0.3339,0.338
11.460000,-0.0150,0.0579,0.4212,0.425
11.466000,0.0102,0.1035,0.4808,0.492
11.471000,0.0474,0.1943,0.5316,0.568
11.475000,0.0657,0.2135,0.5716,0.614
11.481000,0.1371,0.2162,0.6629,0.711
11.487000,0.2398,0.2982,0.7000,0.798
11.490000,0.3859,0.4306,0.7425,0.941
11.495000,0.5513,0.5559,0.7427,1.079
11.500000,0.7336,0.7124,0.7241,1.253
11.545000,0.8703,0.8539,0.6940,1.403
11.546000,0.9712,0.9545,0.6956,1.529
11.546000,0.9594,1.1166,0.7026,1.631
11.547000,0.9142,1.1969,0.6987,1.660
11.547000,0.9624,1.2746,0.7346,1.758
11.547000,0.9413,1.3449,0.7409,1.801
11.547000,1.0139,1.5110,0.7823,1.981
11.547000,1.1654,1.6554,0.8301,2.188
11.548000,1.3191,1.8184,0.9011,2.420
11.551000,1.4651,2.0139,1.0408,2.699
11.556000,1.5963,2.1846,1.1817,2.952
11.560000,1.6406,2.3681,1.2980,3.160
11.565000,1.6437,2.6031,1.4540,3.405
11.570000,1.6725,2.7888,1.4751,3.571
11.574000,1.6886,2.9417,1.4548,3.691
11.579000,1.7349,3.1097,1.4745,3.854
11.584000,1.8425,3.2211,1.4890,3.998
11.589000,2.1046,3.3165,1.4783,4.197
11.594000,2.3293,3.4409,1.5071,4.420
11.599000,2.5689,3.5671,1.5733,4.669
11.637000,2.7130,3.6207,1.5091,4.769
11.638000,2.7328,3.5585,1.4688,4.721
11.639000,2.6454,3.3666,1.3807,4.499
11.639000,2.5371,3.1436,1.2454,4.227
11.639000,2.4109,2.9068,1.0176,3.911
11.640000,2.4082,2.6378,0.8196,3.665
11.640000,2.4358,2.3800,0.5916,3.456
11.640000,2.4817,2.1573,0.3885,3.311
11.644000,2.5197,1.9603,0.1698,3.197
11.648000,2.5141,1.7389,0.0169,3.057
11.654000,2.4554,1.5793,-0.0800,2.921
11.659000,2.3583,1.4987,-0.1496,2.798
11.664000,2.2254,1.3870,-0.1800,2.628
11.669000,2.0902,1.3163,-0.1830,2.477
11.674000,1.9555,1.2893,-0.1418,2.347
11.678000,1.8140,1.2917,-0.1137,2.230
11.683000,1.7544,1.3141,-0.0625,2.193
11.688000,1.7262,1.3565,-0.0022,2.195
11.694000,1.7532,1.4043,0.0529,2.247
11.698000,1.8209,1.4623,0.1486,2.340
11.708000,1.9195,1.5110,0.2536,2.456
11.709000,2.0608,1.5718,0.4491,2.630
11.713000,2.1659,1.6614,0.5793,2.790
11.760000,2.2704,1.7936,0.6917,2.975
11.761000,2.3504,1.9035,0.7716,3.121
11.761000,2.3749,1.9626,0.8404,3.193
11.762000,2.3943,2.0453,0.8975,3.274
11.763000,2.5021,2.2185,0.9764,3.484
11.763000,2.6595,2.2880,1.0456,3.661
11.764000,2.7135,2.3494,1.1572,3.771
11.764000,2.7049,2.4074,1.1741,3.807
11.765000,2.6148,2.5004,1.2397,3.824
11.765000,2.5962,2.6115,1.3565,3.924
11.769000,2.5318,2.6783,1.3684,3.931
11.772000,2.3884,2.7729,1.3784,3.911
11.777000,2.2594,2.8524,1.3914,3.896
11.783000,2.1926,2.8760,1.3857,3.873
11.789000,2.0972,2.8918,1.3656,3.824
11.793000,2.0593,2.9093,1.4298,3.840
11.798000,2.0143,2.9263,1.4538,3.838
11.804000,1.9859,2.9088,1.4661,3.815
11.808000,1.9838,2.8906,1.4813,3.806
11.812000,1.9957,2.8569,1.4418,3.771
11.850000,1.9715,2.8605,1.3840,3.740
11.852000,1.8991,2.8244,1.3532,3.663
11.853000,1.8622,2.7178,1.3046,3.544
11.853000,1.7869,2.6270,1.1977,3.395
11.855000,1.6274,2.5634,1.0515,3.213
11.856000,1.5873,2.4941,0.9268,3.098
11.856000,1.5755,2.4453,0.7926,3.015
11.858000,1.4915,2.3715,0.6351,2.873
11.859000,1.4117,2.3322,0.4615,2.765
11.861000,1.3481,2.2415,0.3655,2.641
11.866000,1.2719,2.0994,0.2304,2.465
11.872000,1.1737,1.9611,0.0490,2.286
11.877000,1.0534,1.8673,-0.0567,2.145
11.881000,0.9018,1.7586,-0.1871,1.985
11.887000,0.7786,1.6826,-0.3444,1.886
11.892000,0.6335,1.5653,-0.4666,1.752
11.897000,0.5314,1.4573,-0.6035,1.664
11.902000,0.4198,1.3783,-0.7028,1.603
11.907000,0.3154,1.2824,-0.7790,1.533
11.911000,0.2877,1.1867,-0.8994,1.517
11.916000,0.2196,1.0868,-0.9780,1.478
11.924000,0.1683,0.9968,-1.0696,1.472
11.927000,0.1270,0.9743,-1.1411,1.506
11.931000,0.0575,0.8570,-1.1759,1.456
11.945000,-0.0212,0.7285,-1.1959,1.400
11.948000,-0.0679,0.6395,-1.1869,1.350
11.949000,-0.1618,0.5853,-1.1615,1.311
12.008000,-0.2311,0.5749,-1.1147,1.275
12.010000,-0.2231,0.5225,-1.0659,1.208
12.011000,-0.2743,0.4523,-1.0174,1.147
12.011000,-0.3510,0.4454,-0.9645,1.119
12.011000,-0.4056,0.3962,-0.8877,1.053
12.012000,-0.4501,0.2956,-0.8420,0.999
12.013000,-0.4701,0.2391,-0.7151,0.889
12.013000,-0.5279,0.1596,-0.6315,0.838
12.013000,-0.5563,0.0859,-0.5606,0.794
12.014000,-0.5984,0.0659,-0.5187,0.795
12.014000,-0.6761,0.0227,-0.4388,0.806
12.015000,-0.8131,-0.0080,-0.3708,0.894
12.019000,-0.9042,-0.0355,-0.2714,0.945
12.021000,-1.0021,-0.0931,-0.2006,1.026
12.023000,-1.0015,-0.1666,-0.1364,1.024
12.029000,-1.0508,-0.2584,-0.0815,1.085
12.031000,-1.0710,-0.3228,-0.1242,1.125
12.040000,-1.1125,-0.4078,-0.1499,1.194
12.042000,-1.1417,-0.4610,-0.2515,1.257
12.046000,-1.2207,-0.5681,-0.2762,1.374
12.051000,-1.2802,-0.7148,-0.3076,1.498
12.089000,-1.2794,-0.8626,-0.3459,1.581
12.090000,-1.3021,-1.0474,-0.2692,1.693
12.091000,-1.2742,-1.1831,-0.2500,1.757
12.091000,-1.2721,-1.3845,-0.3193,1.907
12.091000,-1.2864,-1.6584,-0.3331,2.125
12.092000,-1.2906,-1.8828,-0.3465,2.309
12.092000,-1.2657,-2.1819,-0.4216,2.557
12.092000,-1.2307,-2.4335,-0.5198,2.776
12.096000,-1.1522,-2.7214,-0.6030,3.016
12.101000,-1.0948,-3.0001,-0.6733,3.264
12.106000,-1.0680,-3.2381,-0.7878,3.499
12.110000,-1.0599,-3.4499,-0.8217,3.701
12.115000,-0.9675,-3.7261,-0.8898,3.951
12.121000,-0.8841,-3.9876,-0.9924,4.203
12.125000,-0.8767,-4.1794,-1.1074,4.412
12.131000,-0.8089,-4.3227,-1.2081,4.561
12.138000,-0.7141,-4.4727,-1.2685,4.704
12.139000,-0.5971,-4.5885,-1.4268,4.842
12.144000,-0.5226,-4.6799,-1.4940,4.940
12.150000,-0.4186,-4.7705,-1.4888,5.015
12.179000,-0.3020,-4.8153,-1.4696,5.044
12.180000,-0.2133,-4.7996,-1.4050,5.006
12.180000,-0.1453,-4.6909,-1.2339,4.853
12.181000,-0.0215,-4.5729,-1.0542,4.693
12.181000,0.1435,-4.4391,-0.9481,4.541
12.181000,0.2515,-4.3428,-0.8056,4.424
12.186000,0.2882,-4.3318,-0.6600,4.391
12.189000,0.3136,-4.3054,-0.5093,4.347
12.194000,0.2749,-4.3047,-0.3801,4.330
12.199000,0.2202,-4.2770,-0.2612,4.291
12.205000,0.2167,-4.2149,-0.1603,4.224
12.209000,0.1949,-4.1522,-0.0921,4.158
12.214000,0.0448,-4.1081,-0.0091,4.108
12.219000,-0.0490,-3.9959,-0.0333,3.996
12.224000,-0.1250,-3.8475,-0.0310,3.850
12.229000,-0.2476,-3.7193,-0.0949,3.729
12.237000,-0.3619,-3.5736,-0.1031,3.593
12.239000,-0.4296,-3.3793,0.0043,3.407
12.244000,-0.3981,-3.2056,-0.0934,3.232
12.249000,-0.4399,-2.9979,-0.1441,3.033
12.287000,-0.4903,-2.6843,-0.0591,2.729
12.289000,-0.5446,-2.4447,-0.1092,2.507
12.290000,-0.5696,-2.1549,-0.1365,2.233
12.290000,-0.5051,-1.7881,-0.0733,1.860
12.291000,-0.4263,-1.4273,-0.0734,1.491
12.292000,-0.3661,-1.1959,-0.1893,1.265
12.292000,-0.3945,-1.0062,-0.3224,1.128
12.293000,-0.3559,-0.7960,-0.4270,0.971
12.294000,-0.2864,-0.6205,-0.6110,0.917
12.298000,-0.2508,-0.5182,-0.7807,0.970
12.303000,-0.1991,-0.3841,-0.9333,1.029
12.308000,-0.1789,-0.2873,-1.0234,1.078
12.313000,-0.1188,-0.2352,-1.1419,1.172
12.319000,-0.1168,-0.2084,-1.2022,1.226
12.324000,-0.1393,-0.1544,-1.2001,1.218
12.329000,-0.0956,-0.1524,-1.1787,1.192
12.334000,-0.1147,-0.1469,-1.0975,1.113
12.340000,-0.1655,-0.1621,-1.0145,1.041
12.344000,-0.2097,-0.1115,-1.0276,1.055
12.349000,-0.2733,-0.0500,-0.9784,1.017
12.353000,-0.2969,0.0006,-0.9866,1.030
12.359000,-0.3328,0.0264,-1.0498,1.102
12.363000,-0.3811,0.0296,-1.0387,1.107
12.412000,-0.3723,-0.0421,-1.0154,1.082
12.415000,-0.3685,-0.1143,-1.0137,1.085
12.415000,-0.3699,-0.1536,-1.0454,1.120
12.416000,-0.3809,-0.1885,-1.0627,1.145
12.417000,-0.4256,-0.2070,-1.0990,1.197
12.419000,-0.4729,-0.2595,-1.1443,1.265
12.421000,-0.5607,-0.2834,-1.0720,1.243
12.422000,-0.5959,-0.3385,-1.0082,1.219
12.423000,-0.5998,-0.3335,-0.8596,1.100
12.423000,-0.5774,-0.3237,-0.6620,0.936
12.424000,-0.5188,-0.2850,-0.3441,0.685
12.424000,-0.4124,-0.1747,-0.1050,0.460
12.427000,-0.4068,-0.0266,0.1747,0.443
12.433000,-0.4371,0.1854,0.4040,0.623
12.438000,-0.4963,0.4134,0.6303,0.903
12.444000,-0.6038,0.6498,0.8559,1.233
12.448000,-0.7449,0.8422,0.9848,1.495
12.454000,-0.9076,1.0122,1.0574,1.722
12.457000,-1.0129,1.1504,1.1193,1.898
12.463000,-1.1491,1.2261,1.0412,1.977
12.467000,-1.3424,1.3351,0.8520,2.076
12.506000,-1.4752,1.4037,0.7406,2.167
12.507000,-1.5978,1.5443,0.6302,2.310
12.508000,-1.6694,1.6589,0.5231,2.411
12.508000,-1.7116,1.7573,0.3431,2.477
12.508000,-1.7362,1.8636,0.2961,2.564
12.508000,-1.7670,1.9994,0.2626,2.681
12.509000,-1.7038,2.0784,0.2406,2.698
12.509000,-1.6805,2.1843,0.2875,2.771
12.513000,-1.5658,2.2836,0.2264,2.778
12.517000,-1.3958,2.3448,0.2107,2.737
12.522000,-1.2541,2.4447,0.2811,2.762
12.527000,-1.1077,2.5469,0.3179,2.795
12.531000,-0.9690,2.6578,0.2567,2.841
12.538000,-0.8568,2.7781,0.2106,2.915
12.542000,-0.7666,2.8832,0.1722,2.988
12.547000,-0.7105,2.8894,0.1058,2.977
12.553000,-0.6503,2.8900,0.0691,2.963
12.557000,-0.5382,2.8897,0.0477,2.940
12.561000,-0.4483,2.8912,0.0154,2.926
12.566000,-0.3543,2.8129,-0.0636,2.836
12.599000,-0.2826,2.6909,-0.1079,2.708
12.602000,-0.2281,2.5614,-0.1244,2.575
12.603000,-0.1597,2.4697,-0.1258,2.478
12.603000,-0.1225,2.4259,-0.1499,2.434
12.604000,-0.0450,2.3627,-0.1111,2.366
12.604000,-0.0372,2.3278,-0.1075,2.331
12.605000,-0.0269,2.2978,-0.0219,2.298
12.607000,0.0146,2.2677,0.2027,2.277
12.611000,0.1207,2.3001,0.3484,2.329
12.616000,0.2316,2.3275,0.4602,2.384
12.621000,0.3161,2.2855,0.4951,2.360
12.627000,0.4174,2.2460,0.5129,2.341
12.632000,0.5209,2.2709,0.5709,2.399
12.636000,0.6364,2.2622,0.6309,2.433
12.642000,0.7612,2.2342,0.6518,2.449
12.648000,0.8834,2.2157,0.7484,2.500
12.652000,0.9768,2.1946,0.8275,2.541
12.656000,1.0914,2.1493,0.9413,2.588
12.660000,1.2320,2.1420,1.0538,2.686
12.665000,1.3605,2.0892,1.1031,2.726
12.672000,1.4695,2.0051,1.1348,2.733
12.676000,1.6121,1.9427,1.1967,2.794
12.680000,1.7521,1.8707,1.2245,2.840
12.691000,1.9229,1.7484,1.1822,2.855
12.693000,2.0820,1.6098,1.1542,2.874
12.696000,2.2576,1.4450,1.1022,2.898
12.747000,2.4404,1.2902,1.0454,2.952
12.749000,2.6807,1.1143,1.0604,3.091
12.749000,2.9113,1.0081,1.0563,3.257
12.749000,3.1254,0.8927,1.0618,3.419
12.750000,3.3107,0.8016,1.0934,3.578
12.750000,3.5294,0.7395,1.1058,3.772
12.751000,3.7436,0.7446,1.1634,3.990
12.752000,3.9623,0.8263,1.2256,4.229
12.752000,4.1832,0.8934,1.2065,4.444
12.753000,4.4347,0.8932,1.1875,4.677
12.754000,4.7260,0.9953,1.2477,4.988
12.758000,5.0281,0.9958,1.2743,5.282
12.760000,5.3170,1.0481,1.2194,5.555
12.765000,5.6163,1.0775,1.1997,5.843
12.771000,5.8827,1.0816,1.1601,6.093
12.776000,6.0801,1.0671,1.0075,6.255
12.780000,6.2132,1.0388,0.8448,6.356
12.790000,6.3656,1.0204,0.8278,6.500
12.792000,6.3722,0.9785,0.7716,6.493
12.795000,6.4222,0.9179,0.7649,6.532
12.799000,6.4392,0.6929,0.6544,6.509
12.835000,6.3900,0.4859,0.7564,6.453
12.836000,6.3421,0.3472,0.8455,6.408
12.837000,6.2980,0.2507,0.9284,6.371
12.837000,6.1669,0.1629,1.0458,6.257
12.837000,5.9707,0.1104,1.1781,6.087
12.838000,5.8293,0.1148,1.2703,5.967
12.838000,5.7306,0.2406,1.3416,5.890
12.840000,5.6699,0.4065,1.4588,5.869
12.844000,5.6422,0.6336,1.5333,5.881
12.850000,5.5731,0.8644,1.5971,5.861
12.856000,5.4861,1.1247,1.6407,5.836
12.860000,5.4794,1.3691,1.7454,5.911
12.865000,5.3948,1.6595,1.7843,5.920
12.869000,5.2893,2.0026,1.8652,5.955
12.874000,5.1727,2.3768,1.8544,5.987
12.879000,4.9943,2.6861,1.7855,5.945
12.886000,4.9023,3.0188,1.6948,6.002
12.889000,4.9396,3.3438,1.5592,6.165
12.894000,4.9909,3.6653,1.4508,6.360
12.899000,5.0606,3.8279,1.3558,6.488
12.904000,5.0361,3.8334,1.1902,6.440
12.909000,4.9794,3.7491,0.9809,6.310
12.914000,4.9601,3.4886,0.6923,6.103
12.962000,4.9569,3.2179,0.4494,5.927
12.964000,4.8790,2.8864,0.2951,5.677
12.964000,4.8252,2.5237,0.1479,5.447
12.965000,4.7738,2.1724,0.0341,5.245
12.965000,4.6990,1.8451,-0.0081,5.048
12.965000,4.6135,1.5185,-0.0244,4.857
12.966000,4.5432,1.2135,-0.0296,4.703
12.966000,4.4455,0.9114,-0.0187,4.538
12.967000,4.3593,0.6344,0.0034,4.405
12.967000,4.3272,0.4057,0.0629,4.347
12.971000,4.2633,0.1299,0.0764,4.266
12.982000,4.1844,-0.0734,0.0751,4.186
12.982000,4.1073,-0.2378,0.1211,4.116
12.984000,3.9770,-0.4185,0.1545,4.002
12.989000,3.7410,-0.6490,0.2851,3.808
12.994000,3.5412,-0.8256,0.3953,3.658
12.998000,3.3222,-0.9514,0.4966,3.491
13.003000,3.1015,-0.9919,0.6628,3.323
13.008000,2.8642,-1.0774,0.7907,3.161
13.012000,2.5892,-1.1569,0.9255,2.983
13.047000,2.3441,-1.1749,1.0905,2.840
13.048000,2.0803,-1.1945,1.2282,2.695
13.048000,1.8417,-1.1859,1.3358,2.566
13.048000,1.5342,-1.1287,1.3988,2.363
13.049000,1.2948,-1.0965,1.4409,2.226
13.049000,1.0808,-1.1388,1.4666,2.148
13.049000,0.7551,-1.1799,1.4995,2.052
13.056000,0.4665,-1.1811,1.4919,1.959
13.058000,0.2442,-1.1800,1.5414,1.957
13.064000,-0.0441,-1.1392,1.5332,1.911
13.067000,-0.2971,-1.1005,1.5033,1.887
13.072000,-0.4940,-1.1105,1.4422,1.886
13.077000,-0.7252,-1.1564,1.4098,1.962
13.082000,-0.8424,-1.1945,1.4206,2.038
13.087000,-0.9632,-1.2692,1.3717,2.102
13.093000,-1.1185,-1.3507,1.2729,2.167
13.097000,-1.3253,-1.3946,1.2130,2.274
13.104000,-1.4783,-1.3932,1.1325,2.326
13.107000,-1.6345,-1.4251,0.9913,2.384
13.113000,-1.7467,-1.4099,0.8353,2.395
13.118000,-1.8268,-1.4333,0.7968,2.455
13.141000,-1.8960,-1.4972,0.7325,2.524
13.142000,-1.9981,-1.5814,0.6281,2.624
13.143000,-2.0992,-1.6442,0.5724,2.727
13.143000,-2.2307,-1.7515,0.4487,2.871
13.143000,-2.4044,-1.8570,0.4125,3.066
13.147000,-2.5457,-2.0388,0.3276,3.278
13.152000,-2.6814,-2.1686,0.2608,3.458
13.157000,-2.7537,-2.3601,0.1260,3.629
13.162000,-2.8537,-2.5229,0.0741,3.810
13.168000,-2.9074,-2.6719,0.0497,3.949
13.172000,-3.0151,-2.8615,-0.0335,4.157
13.177000,-3.1504,-3.1226,-0.0916,4.437
13.182000,-3.2604,-3.2820,-0.0865,4.627
13.188000,-3.3717,-3.4097,-0.0306,4.795
13.192000,-3.5274,-3.6044,-0.0342,5.043
13.196000,-3.6554,-3.7695,0.0201,5.251
13.203000,-3.7200,-3.9406,0.0415,5.419
13.207000,-3.8241,-4.0864,0.1036,5.598
13.211000,-3.9291,-4.2898,0.1108,5.818
13.217000,-4.0234,-4.4276,0.0867,5.983
13.247000,-4.1355,-4.6109,0.0409,6.194
13.248000,-4.2249,-4.8333,0.0431,6.420
13.249000,-4.2869,-5.0628,-0.0239,6.634
13.249000,-4.3116,-5.2531,-0.0812,6.796
13.249000,-4.3498,-5.3765,-0.0809,6.916
13.250000,-4.3557,-5.5110,-0.1694,7.027
13.260000,-4.4061,-5.6718,-0.2893,7.188
13.260000,-4.4196,-5.8298,-0.4605,7.330
13.267000,-4.4632,-6.0010,-0.6039,7.503
13.268000,-4.4891,-6.1831,-0.7698,7.680
13.271000,-4.5475,-6.3568,-0.8866,7.866
13.277000,-4.5214,-6.4549,-0.9540,7.938
13.282000,-4.5040,-6.5783,-1.0295,8.039
13.286000,-4.4190,-6.7429,-1.0625,8.132
13.292000,-4.3455,-6.8944,-1.1298,8.228
13.295000,-4.3790,-7.1375,-1.2743,8.470
13.300000,-4.3997,-7.3949,-1.3361,8.708
13.305000,-4.3720,-7.5639,-1.2375,8.824
13.310000,-4.4127,-7.6752,-1.2187,8.937
13.315000,-4.4694,-7.6976,-1.3006,8.996
13.320000,-4.6378,-7.5861,-1.3653,8.996
13.325000,-4.7957,-7.4313,-1.4407,8.961
13.330000,-4.9098,-7.2307,-1.5237,8.872
13.356000,-4.9133,-7.1395,-1.7333,8.838
13.357000,-4.7681,-7.0979,-1.7670,8.731
13.358000,-4.4626,-7.1370,-1.6797,8.583
13.358000,-4.1498,-7.3430,-1.7421,8.613
13.359000,-3.8181,-7.4672,-1.7047,8.558
13.360000,-3.4864,-7.5482,-1.4813,8.445
13.365000,-3.1668,-7.5746,-1.1944,8.296
13.370000,-2.9359,-7.6335,-0.9493,8.233
13.376000,-2.7025,-7.7030,-0.6287,8.188
13.380000,-2.4214,-7.7266,-0.2757,8.102
13.387000,-2.1690,-7.6042,0.0732,7.908
13.391000,-1.9502,-7.4754,0.2432,7.729
13.396000,-1.8055,-7.4099,0.2205,7.630
13.401000,-1.7160,-7.6301,-0.7228,7.854
13.405000,-1.7346,-7.7142,-1.2509,8.005
13.410000,-2.0523,-7.3064,-0.4846,7.605
13.414000,-2.3022,-7.0143,-0.0731,7.383
13.421000,-2.1800,-6.7669,0.2185,7.113
13.425000,-2.0332,-6.7254,0.3143,7.033
13.430000,-1.9718,-6.7096,0.1585,6.995
13.439000,-1.9455,-6.5995,0.1155,6.881
13.441000,-1.9423,-6.4299,0.2210,6.721
13.445000,-2.0001,-6.1572,0.4086,6.487
13.450000,-2.0613,-5.8079,0.6410,6.196
13.485000,-2.1400,-5.4801,0.8692,5.947
13.487000,-2.2311,-5.1256,0.9612,5.672
13.487000,-2.2511,-4.7544,0.8871,5.335
13.488000,-2.2769,-4.3791,0.9480,5.026
13.489000,-2.3154,-3.9745,1.0801,4.725
13.489000,-2.3144,-3.7290,1.2528,4.564
13.490000,-2.1498,-3.5015,1.4211,4.348
13.490000,-1.8620,-3.3222,1.4106,4.061
13.494000,-1.5497,-3.1639,1.3365,3.768
13.500000,-1.2370,-3.0268,1.1587,3.469
13.504000,-0.8740,-3.0003,0.9429,3.264
13.509000,-0.5826,-2.9639,0.7589,3.114
13.514000,-0.2531,-2.8616,0.5423,2.923
13.520000,0.0212,-2.8290,0.4246,2.861
13.524000,0.2452,-2.8046,0.1499,2.819
13.530000,0.4186,-2.8079,-0.2076,2.846
13.534000,0.5776,-2.7828,-0.5990,2.905
13.540000,0.7169,-2.7258,-0.9662,2.979
13.545000,0.8631,-2.6000,-1.2611,3.016
13.550000,1.0089,-2.4873,-1.5677,3.108
13.554000,1.0966,-2.3669,-1.8094,3.175
13.559000,1.2126,-2.2598,-1.9940,3.249
13.564000,1.2904,-2.1652,-2.1864,3.337
13.607000,1.3010,-2.1224,-2.3109,3.397
13.609000,1.2737,-2.0465,-2.4897,3.465
13.609000,1.2228,-1.8589,-2.5560,3.389
13.610000,1.0816,-1.6698,-2.4939,3.190
13.610000,0.8264,-1.4049,-2.3529,2.862
13.610000,0.5533,-1.2292,-2.1341,2.524
13.611000,0.3441,-1.0528,-1.7871,2.102
13.611000,0.2177,-0.8716,-1.4520,1.707
13.612000,0.1243,-0.6631,-1.0973,1.288
13.613000,0.0419,-0.4089,-0.7285,0.836
13.619000,-0.0176,-0.1766,-0.3485,0.391
13.623000,-0.0039,0.0393,0.0431,0.058
13.628000,-0.0035,0.2451,0.3408,0.420
13.634000,-0.0981,0.4929,0.5423,0.739
13.639000,-0.1295,0.6734,0.7753,1.035
13.644000,-0.1221,0.9075,0.9344,1.308
13.649000,-0.1450,1.2079,1.0562,1.611
13.656000,-0.1532,1.5285,1.1242,1.904
13.659000,-0.1567,1.8040,1.1767,2.159
13.663000,-0.2388,2.0280,1.1735,2.355
13.707000,-0.2852,2.2260,1.1290,2.512
13.708000,-0.3123,2.3462,1.0723,2.598
13.709000,-0.3394,2.4578,0.9962,2.674
13.710000,-0.3191,2.5938,0.9366,2.776
13.710000,-0.2727,2.6900,0.8339,2.829
13.711000,-0.2645,2.7063,0.7147,2.811
13.712000,-0.2446,2.7355,0.5573,2.802
13.713000,-0.2417,2.7563,0.4196,2.798
13.713000,-0.2895,2.8042,0.3015,2.835
13.713000,-0.3586,2.8490,0.1628,2.876
13.718000,-0.4041,2.9093,0.0897,2.939
13.723000,-0.3774,2.8903,0.0083,2.915
13.728000,-0.2644,2.8636,-0.0217,2.876
13.732000,-0.1395,2.8149,0.0020,2.818
13.737000,0.0121,2.7710,0.0198,2.771
13.743000,0.2237,2.6240,0.0384,2.634
13.747000,0.4592,2.5437,0.1655,2.590
13.754000,0.6615,2.4993,0.2978,2.603
13.759000,0.8327,2.4305,0.4036,2.601
13.762000,1.0569,2.4143,0.6001,2.703
13.767000,1.3387,2.4410,0.8460,2.910
13.819000,1.5915,2.4500,0.9825,3.082
13.821000,1.8583,2.5205,1.0434,3.301
13.821000,2.1034,2.5807,1.1485,3.522
13.822000,2.3427,2.6871,1.2446,3.776
13.822000,2.5312,2.7278,1.2959,3.940
13.823000,2.6782,2.7312,1.2138,4.013
13.823000,2.7742,2.7215,1.1182,4.044
13.823000,2.8959,2.6987,1.0142,4.086
13.824000,2.9899,2.6766,0.9161,4.116
13.824000,3.1075,2.6466,0.8697,4.173
13.824000,3.2415,2.6494,0.8486,4.272
13.828000,3.4106,2.6990,0.8313,4.428
13.833000,3.5430,2.6877,0.8487,4.527
13.837000,3.7489,2.6468,0.8411,4.666
13.842000,3.9181,2.6098,0.7802,4.772
13.848000,4.0813,2.6361,0.7498,4.916
13.854000,4.2676,2.6017,0.6759,5.044
13.858000,4.4625,2.5446,0.6115,5.173
13.862000,4.6486,2.4646,0.5519,5.290
13.866000,4.8648,2.3358,0.5310,5.423
13.872000,5.0774,2.2370,0.6132,5.582
13.877000,5.3033,2.1757,0.6861,5.773
13.881000,5.4632,2.1634,0.7541,5.924
13.930000,5.5862,2.1214,0.8863,6.041
13.932000,5.7200,2.1334,1.0158,6.189
13.932000,5.9222,2.1993,1.1544,6.422
13.933000,6.0942,2.3095,1.2898,6.644
13.933000,6.2697,2.4469,1.3098,6.857
13.933000,6.4745,2.5732,1.4036,7.107
13.934000,6.6417,2.6764,1.4753,7.311
13.936000,6.7564,2.7798,1.5321,7.465
13.937000,6.8952,2.8405,1.5883,7.625
13.938000,6.9933,2.9397,1.5745,7.748
13.939000,7.1154,2.8957,1.5748,7.842
13.942000,7.2948,2.7994,1.6084,7.977
13.946000,7.4144,2.6296,1.6678,8.042
13.952000,7.5770,2.4340,1.6620,8.130
13.956000,7.7467,2.2366,1.7174,8.244
13.961000,7.8709,2.0303,1.7310,8.311
13.967000,7.9473,1.8438,1.7434,8.343
13.971000,7.9522,1.6749,1.7377,8.310
13.977000,7.9527,1.5306,1.6972,8.275
13.981000,7.9752,1.4446,1.6888,8.279
14.024000,8.0366,1.4049,1.7055,8.335
14.025000,8.1677,1.3587,1.7663,8.466
14.025000,8.2538,1.3754,1.8470,8.569
14.026000,8.2398,1.4285,1.9162,8.579
14.026000,8.1711,1.5034,1.9687,8.538
14.026000,8.0260,1.6237,1.9686,8.422
14.027000,7.8477,1.8324,1.9473,8.291
14.027000,7.5547,2.0669,1.9355,8.068
14.027000,7.1950,2.3057,1.9380,7.800
14.031000,6.8836,2.5774,1.8524,7.580
14.037000,6.5727,2.8415,1.7720,7.377
14.041000,6.2624,3.0619,1.6477,7.163
14.045000,6.0482,3.1764,1.5177,6.998
14.050000,5.8984,3.2038,1.3058,6.838
14.056000,5.7940,3.1490,1.0798,6.682
14.060000,5.7471,2.9834,0.8258,6.528
14.065000,5.6948,2.6659,0.6443,6.321
14.070000,5.5919,2.2446,0.5571,6.051
14.075000,5.4604,1.8226,0.4611,5.775
14.080000,5.2604,1.4559,0.3876,5.472
14.089000,4.9724,1.1577,0.2936,5.114
14.091000,4.6946,0.8398,0.1889,4.773
14.095000,4.3681,0.5268,0.0839,4.401
14.100000,4.0865,0.2096,-0.0018,4.092
14.146000,3.8334,-0.1257,-0.1609,3.839
14.147000,3.6258,-0.4262,-0.2733,3.661
14.147000,3.5026,-0.6624,-0.4152,3.589
14.148000,3.3409,-0.9428,-0.5291,3.511
14.148000,3.1845,-1.2190,-0.6410,3.470
14.149000,3.0338,-1.3969,-0.7008,3.413
14.149000,2.9145,-1.4895,-0.6680,3.341
14.150000,2.7600,-1.6064,-0.5885,3.247
14.151000,2.5755,-1.6443,-0.5419,3.103
14.151000,2.3675,-1.6497,-0.4226,2.916
14.155000,2.1562,-1.5928,-0.1813,2.687
14.159000,1.9602,-1.5481,0.1240,2.501
14.164000,1.7196,-1.4709,0.4089,2.300
14.171000,1.5352,-1.3486,0.6842,2.155
14.174000,1.3232,-1.2555,0.9326,2.049
14.179000,1.1222,-1.1601,1.0339,1.917
14.189000,0.8813,-1.0300,1.0651,1.724
14.191000,0.6389,-0.8122,1.1934,1.579
14.194000,0.3906,-0.6645,1.3007,1.512
14.199000,0.1979,-0.5925,1.3702,1.506
14.235000,0.0420,-0.5191,1.3563,1.453
14.237000,-0.1174,-0.4409,1.3522,1.427
14.237000,-0.3482,-0.4413,1.4151,1.523
14.237000,-0.5616,-0.4548,1.3848,1.562
14.238000,-0.7070,-0.4717,1.2400,1.503
14.238000,-0.8707,-0.5110,1.1580,1.536
14.239000,-1.0262,-0.4933,1.0432,1.544
14.239000,-1.2026,-0.5393,0.8963,1.594
14.244000,-1.3587,-0.5641,0.7319,1.643
14.249000,-1.4665,-0.6171,0.5914,1.697
14.254000,-1.5662,-0.7231,0.4921,1.794
14.259000,-1.6821,-0.8020,0.3697,1.900
14.270000,-1.9001,-0.9321,0.2676,2.133
14.270000,-1.9375,-1.0290,0.2698,2.210
14.273000,-2.0342,-1.1562,0.1775,2.347
14.279000,-2.1157,-1.3201,0.0415,2.494
14.284000,-2.2152,-1.5175,0.0127,2.685
14.288000,-2.3140,-1.6922,-0.0024,2.867
14.293000,-2.3711,-1.9153,-0.0638,3.049
14.298000,-2.3887,-2.1452,-0.1120,3.212
14.304000,-2.4198,-2.4308,-0.1062,3.432
14.309000,-2.4257,-2.5941,-0.0828,3.553
14.314000,-2.5099,-2.7921,0.0160,3.754
14.362000,-2.6429,-2.9610,0.0984,3.970
14.363000,-2.8993,-3.1166,0.1456,4.259
14.363000,-3.0848,-3.3079,0.2369,4.529
14.363000,-3.2185,-3.5052,0.3601,4.772
14.364000,-3.4035,-3.7023,0.4219,5.047
14.364000,-3.5343,-3.9053,0.4676,5.288
14.364000,-3.6131,-4.0967,0.5068,5.486
14.365000,-3.7122,-4.2537,0.5226,5.670
14.366000,-3.8240,-4.4492,0.5218,5.890
14.366000,-3.8652,-4.5719,0.6028,6.017
14.368000,-3.9240,-4.7708,0.5830,6.205
14.373000,-3.9792,-4.9349,0.5535,6.363
14.379000,-4.0952,-5.0892,0.5022,6.552
14.384000,-4.1477,-5.2052,0.4861,6.673
14.388000,-4.1583,-5.3448,0.5266,6.792
14.393000,-4.1679,-5.4917,0.4944,6.912
14.398000,-4.1452,-5.6233,0.4395,7.000
14.403000,-4.1216,-5.8051,0.4005,7.131
14.407000,-4.0589,-6.0342,0.3631,7.281
14.412000,-3.9810,-6.3076,0.3224,7.466
14.421000,-3.9096,-6.5828,0.2448,7.660
14.423000,-3.8758,-6.8901,0.1351,7.907
14.427000,-3.8078,-7.1393,0.0338,8.091
14.433000,-3.7417,-7.3634,-0.0183,8.260
14.484000,-3.6966,-7.5523,-0.0552,8.409
14.486000,-3.6654,-7.7162,-0.0940,8.543
14.487000,-3.6958,-7.7804,-0.1132,8.614
14.487000,-3.8215,-7.8437,-0.1154,8.726
14.488000,-3.9969,-7.9101,-0.0790,8.863
14.489000,-4.1501,-7.8808,-0.0069,8.907
14.489000,-4.2119,-7.8421,0.1129,8.902
14.490000,-4.2183,-7.7721,0.2378,8.846
14.490000,-4.1191,-7.7571,0.3289,8.789
14.491000,-4.0007,-7.7492,0.4394,8.732
14.491000,-3.8558,-7.6866,0.5381,8.616
14.492000,-3.6966,-7.5982,0.5322,8.466
14.496000,-3.5278,-7.6328,0.4769,8.422
14.503000,-3.3900,-7.6635,0.3005,8.385
14.507000,-3.3000,-7.7121,0.0253,8.389
14.512000,-3.2314,-7.8242,-0.1757,8.467
14.517000,-3.0933,-7.9421,-0.3293,8.530
14.524000,-2.9719,-8.0252,-0.4516,8.570
14.529000,-2.8096,-8.0711,-0.4595,8.558
14.533000,-2.7309,-8.0512,-0.4270,8.512
14.539000,-2.6711,-8.0540,-0.3475,8.492
14.542000,-2.6493,-8.0201,-0.2371,8.450
14.546000,-2.6056,-7.9564,-0.1464,8.373
14.569000,-2.6668,-7.7983,-0.0010,8.242
14.571000,-2.7489,-7.6325,0.1876,8.115
14.572000,-2.8543,-7.5278,0.3549,8.059
14.572000,-2.9804,-7.4166,0.5486,8.012
14.572000,-3.0579,-7.2867,0.7092,7.934
14.577000,-3.0532,-7.0140,0.9802,7.712
14.581000,-3.1505,-6.7202,1.2205,7.522
14.586000,-3.1487,-6.3652,1.5372,7.266
14.591000,-2.9976,-5.9102,1.7697,6.859
14.597000,-2.7068,-5.4560,1.8799,6.374
14.603000,-2.3270,-4.9491,1.8946,5.788
14.607000,-1.9322,-4.4256,1.9582,5.211
14.611000,-1.6088,-3.9516,1.9198,4.679
14.616000,-1.3282,-3.6717,1.6797,4.251
14.622000,-0.9803,-3.4323,1.4160,3.840
14.628000,-0.5703,-3.2586,1.1076,3.489
14.632000,-0.2801,-3.1679,0.8553,3.293
14.639000,-0.0569,-3.1716,0.5752,3.224
14.641000,0.1661,-3.2440,0.2405,3.257
14.647000,0.3581,-3.3842,-0.1136,3.405
14.651000,0.4640,-3.5565,-0.4703,3.617
14.692000,0.5269,-3.6868,-0.8251,3.815
14.694000,0.5161,-3.7860,-1.1326,3.985
14.695000,0.5128,-3.8425,-1.4437,4.137
14.696000,0.5364,-3.8055,-1.6859,4.197
14.696000,0.5461,-3.7710,-1.8428,4.233
14.697000,0.5203,-3.7654,-1.9428,4.269
14.697000,0.5142,-3.7073,-1.9524,4.221
14.698000,0.5254,-3.5913,-1.9196,4.106
14.698000,0.4320,-3.5161,-1.9095,4.024
14.701000,0.3656,-3.4577,-1.8175,3.923
14.706000,0.2279,-3.2612,-1.7596,3.713
14.711000,0.0123,-3.0527,-1.6716,3.480
14.716000,-0.2240,-2.8705,-1.6044,3.296
14.721000,-0.5215,-2.6479,-1.4656,3.071
14.725000,-0.7245,-2.4678,-1.3365,2.898
14.731000,-0.9791,-2.2731,-1.1288,2.720
14.739000,-1.2465,-2.1297,-0.9428,2.642
14.741000,-1.4717,-1.9636,-0.7211,2.558
14.746000,-1.6597,-1.7774,-0.5016,2.483
14.750000,-1.7886,-1.6088,-0.2744,2.421
14.799000,-1.8919,-1.3666,-0.0655,2.335
14.800000,-1.9029,-1.0851,0.1304,2.194
14.801000,-1.9290,-0.8785,0.3282,2.145
14.801000,-1.8939,-0.6327,0.4851,2.055
14.801000,-1.8552,-0.3886,0.6010,1.988
14.801000,-1.8392,-0.1369,0.6383,1.952
14.802000,-1.8414,0.1192,0.7048,1.975
14.802000,-1.8904,0.3466,0.6859,2.041
14.802000,-1.9073,0.5452,0.6871,2.099
14.803000,-1.9156,0.7994,0.6275,2.168
14.806000,-1.8463,0.9913,0.5385,2.164
14.810000,-1.7356,1.2377,0.3485,2.160
14.814000,-1.5692,1.4215,0.2085,2.128
14.819000,-1.4432,1.5418,0.0847,2.114
14.824000,-1.2088,1.6452,-0.0159,2.042
14.829000,-1.0221,1.7905,-0.0628,2.063
14.838000,-0.9289,1.8835,-0.1452,2.105
14.841000,-0.9812,1.8801,-0.2607,2.137
14.844000,-1.1168,1.9734,-0.3248,2.291
14.849000,-1.1607,2.1070,-0.4640,2.450
14.888000,-1.2090,2.1438,-0.6036,2.534
14.889000,-1.2802,2.1590,-0.7145,2.610
14.889000,-1.2135,2.1389,-0.7747,2.578
14.889000,-1.0456,2.0902,-0.7962,2.469
14.890000,-0.8138,1.9686,-0.8364,2.288
14.890000,-0.4897,1.8909,-0.8524,2.131
14.890000,-0.0617,1.8090,-0.8088,1.983
14.891000,0.2858,1.7823,-0.6774,1.928
14.895000,0.6389,1.7841,-0.6117,1.991
14.899000,1.0567,1.7659,-0.5472,2.129
14.904000,1.4730,1.7142,-0.3208,2.283
14.909000,1.8415,1.6998,-0.1130,2.509
14.914000,2.2204,1.6614,0.1551,2.777
14.919000,2.5800,1.6813,0.5037,3.120
14.923000,2.9160,1.6934,0.6864,3.441
14.929000,3.1608,1.7997,0.8656,3.739
14.933000,3.3918,1.9076,1.1681,4.063
14.939000,3.6347,2.0669,1.3733,4.401
14.944000,3.8560,2.2056,1.3859,4.653
14.948000,4.0768,2.2732,1.3135,4.849
14.955000,4.3553,2.4692,1.2980,5.172
14.958000,4.7049,2.6848,1.2745,5.565
14.963000,5.0936,2.7663,1.2090,5.921
15.010000,5.4857,2.8073,1.2309,6.284
15.012000,5.9385,2.8464,1.2922,6.711
15.013000,6.3675,2.8206,1.3346,7.091
15.013000,6.7125,2.7920,1.4606,7.415
15.014000,6.9537,2.7815,1.5263,7.643
15.015000,7.1064,2.8114,1.5871,7.805
15.015000,7.2514,2.8646,1.6383,7.967
15.015000,7.2713,2.9004,1.6468,8.000
15.016000,7.2605,2.9171,1.7160,8.011
15.018000,7.2429,2.9388,1.8151,8.024
15.019000,7.3198,2.9829,1.8172,8.110
15.023000,7.4763,3.0636,1.8111,8.280
15.028000,7.6641,3.1996,1.7679,8.491
15.034000,7.8427,3.3863,1.6852,8.707
15.038000,8.0186,3.6301,1.6349,8.953
15.044000,8.1676,3.8760,1.6410,9.188
15.049000,8.3060,4.1092,1.5124,9.389
15.053000,8.4550,4.2193,1.3736,9.549
15.057000,8.5167,4.2378,1.3516,9.608
15.062000,8.5982,4.2289,1.2934,9.669
15.069000,8.7119,4.1380,1.2801,9.729
15.072000,8.8716,3.9818,1.2711,9.807
15.078000,8.9360,3.7384,1.3045,9.774
15.083000,8.9676,3.4561,1.3105,9.699
15.088000,8.9332,3.1926,1.3465,9.582
15.093000,8.9076,2.9625,1.4818,9.504
15.097000,8.9385,2.6703,1.4194,9.436
15.135000,8.9018,2.3495,1.3008,9.298
15.136000,8.8337,2.0913,1.2028,9.157
15.136000,8.7584,1.8410,1.1349,9.022
15.137000,8.6690,1.5720,0.9683,8.863
15.137000,8.5658,1.3925,0.8852,8.723
15.137000,8.4706,1.2641,0.9021,8.612
15.138000,8.3258,1.1843,0.8802,8.456
15.138000,8.1390,1.1174,0.8385,8.258
15.142000,7.8461,1.1522,0.8130,7.972
15.147000,7.5474,1.3193,0.8154,7.705
15.154000,7.2072,1.5352,0.9413,7.429
15.157000,6.8946,1.8711,1.1134,7.230
15.162000,6.5856,2.2670,1.2407,7.075
15.168000,6.2758,2.6347,1.3662,6.942
15.172000,5.9814,2.9377,1.4493,6.820
15.177000,5.6858,3.1284,1.4785,6.656
15.182000,5.4651,3.2447,1.4397,6.517
15.188000,5.2359,3.2415,1.3718,6.309
15.192000,5.0336,3.1879,1.2868,6.096
15.197000,4.8179,2.9645,1.1469,5.772
15.245000,4.6824,2.7392,0.9573,5.509
15.246000,4.5694,2.4375,0.8520,5.248
15.246000,4.3954,2.1172,0.6951,4.928
15.247000,4.2570,1.7862,0.5826,4.653
15.247000,4.1441,1.4586,0.5072,4.422
15.247000,4.0069,1.1464,0.3904,4.186
15.247000,3.8619,0.8542,0.2609,3.964
15.248000,3.7288,0.6018,0.1364,3.780
15.248000,3.6174,0.3439,0.1107,3.635
15.248000,3.5204,0.0899,0.0261,3.522
15.251000,3.4787,-0.1048,-0.0403,3.481
15.256000,3.3873,-0.3070,-0.1384,3.404
15.261000,3.3250,-0.4689,-0.1966,3.364
15.270000,3.2465,-0.5715,-0.2146,3.303
15.271000,3.1535,-0.6419,-0.1689,3.223
15.277000,3.0585,-0.6556,-0.0715,3.129
15.281000,2.9375,-0.6081,0.0862,3.001
15.288000,2.7908,-0.5135,0.2704,2.850
15.292000,2.6919,-0.4445,0.4540,2.766
15.296000,2.5694,-0.3242,0.6602,2.673
15.300000,2.4327,-0.2293,0.8360,2.583
15.345000,2.2821,-0.1284,0.9111,2.461
15.346000,2.0787,-0.0490,1.0435,2.326
15.346000,1.8252,0.0335,1.0581,2.110
15.346000,1.5626,0.0809,1.1528,1.943
15.347000,1.3381,0.0926,1.2413,1.828
15.347000,1.1120,0.0840,1.2777,1.696
15.347000,0.9074,0.0805,1.3603,1.637
15.347000,0.7248,0.0875,1.4120,1.590
15.347000,0.5671,0.0294,1.3467,1.461
15.351000,0.3494,-0.0480,1.3177,1.364
15.355000,0.1631,-0.0912,1.2697,1.283
15.360000,-0.0202,-0.1718,1.1525,1.165
15.366000,-0.1623,-0.2202,1.0559,1.091
15.372000,-0.3513,-0.2959,0.9966,1.097
15.375000,-0.5351,-0.3662,0.9102,1.118
15.380000,-0.6679,-0.5622,0.7637,1.160
15.385000,-0.7877,-0.7468,0.6893,1.286
15.390000,-0.9164,-0.9113,0.5986,1.424
15.395000,-1.0057,-1.0548,0.5178,1.547
15.400000,-1.1016,-1.1858,0.4402,1.677
15.405000,-1.2587,-1.3561,0.3752,1.888
15.409000,-1.4098,-1.5172,0.3497,2.100
15.415000,-1.5169,-1.7013,0.2848,2.297
15.445000,-1.6585,-1.8688,0.3023,2.517
15.445000,-1.7274,-2.0329,0.3094,2.686
15.446000,-1.7928,-2.2336,0.3535,2.886
15.446000,-1.9260,-2.4771,0.4082,3.164
15.446000,-2.0006,-2.6832,0.4329,3.375
15.447000,-2.1120,-2.9367,0.4748,3.648
15.451000,-2.2677,-3.1862,0.5194,3.945
15.456000,-2.4912,-3.4427,0.5543,4.286
15.460000,-2.6794,-3.6549,0.4693,4.556
15.464000,-2.7967,-3.8621,0.4303,4.788
15.469000,-2.9602,-3.9629,0.6527,4.989
15.474000,-3.0597,-4.0623,0.8579,5.158
15.480000,-3.1651,-4.2141,0.9116,5.349
15.484000,-3.3525,-4.3951,1.0099,5.619
15.490000,-3.4953,-4.5796,1.1720,5.879
15.496000,-3.5265,-4.7766,1.3048,6.079
15.500000,-3.6040,-4.8968,1.4510,6.251
15.510000,-3.6587,-5.0706,1.5415,6.440
15.513000,-3.7957,-5.3163,1.5092,6.704
15.514000,-3.8882,-5.5396,1.5245,6.938
15.519000,-3.8884,-5.6721,1.5585,7.051
15.557000,-3.9472,-5.7606,1.5511,7.153
15.558000,-3.9810,-5.8730,1.5621,7.265
15.558000,-4.0065,-5.9967,1.5559,7.378
15.559000,-4.0715,-6.1358,1.5253,7.520
15.559000,-4.0662,-6.2601,1.4825,7.611
15.560000,-4.0336,-6.3803,1.4253,7.682
15.560000,-4.0026,-6.4785,1.3489,7.734
15.561000,-3.9016,-6.6283,1.2148,7.787
15.564000,-3.8597,-6.7670,1.0902,7.866
15.568000,-3.7742,-6.9121,0.9964,7.938
15.574000,-3.6597,-7.0852,0.8947,8.025
15.580000,-3.5663,-7.2691,0.8421,8.140
15.584000,-3.5419,-7.4186,0.7809,8.258
15.589000,-3.5316,-7.4950,0.7006,8.315
15.594000,-3.5690,-7.5512,0.7036,8.382
15.599000,-3.5989,-7.5566,0.7511,8.403
15.604000,-3.7220,-7.4676,0.7975,8.382
15.609000,-3.8949,-7.3726,0.8499,8.381
15.613000,-4.0054,-7.2574,0.9302,8.341
15.622000,-4.0629,-7.1077,1.0556,8.255
15.625000,-4.0223,-7.0334,1.1544,8.184
15.629000,-3.8571,-7.0534,1.2826,8.141
15.634000,-3.7134,-7.1393,1.3546,8.160
15.680000,-3.6199,-7.2214,1.2923,8.181
15.681000,-3.5239,-7.2622,1.1677,8.156
15.681000,-3.4349,-7.2926,1.0194,8.125
15.682000,-3.4344,-7.3439,0.8213,8.149
15.682000,-3.4049,-7.4088,0.6070,8.176
15.683000,-3.3536,-7.4777,0.3816,8.204
15.683000,-3.2520,-7.5074,0.1425,8.183
15.683000,-3.1192,-7.4791,-0.0889,8.104
15.684000,-2.9409,-7.4671,-0.2387,8.029
15.684000,-2.7961,-7.4909,-0.3548,8.004
15.690000,-2.7254,-7.5148,-0.3820,8.003
15.693000,-2.7191,-7.5748,-0.3906,8.058
15.699000,-2.8393,-7.5914,-0.3544,8.113
15.702000,-3.0020,-7.6051,-0.2470,8.180
15.708000,-3.1714,-7.5866,-0.1071,8.224
15.713000,-3.4262,-7.5547,-0.0039,8.295
15.719000,-3.6849,-7.4992,0.2135,8.358
15.723000,-3.9211,-7.3809,0.4561,8.370
15.727000,-4.1013,-7.1617,0.7023,8.283
15.732000,-4.2348,-6.8862,1.0021,8.146
15.738000,-4.1950,-6.5474,1.2480,7.876
15.743000,-4.0417,-6.1987,1.4930,7.549
15.747000,-3.7247,-5.7942,1.6914,7.093
15.803000,-3.2515,-5.2732,1.8638,6.469
15.804000,-2.7491,-4.8052,2.0347,5.898
