time,ax,ay,az,aT
0.003000,-0.5464,-0.0265,-0.4085,0.683
0.003000,-0.3728,-0.0235,0.0735,0.381
0.003000,-0.0871,0.0241,0.4930,0.501
0.008000,0.1955,0.0551,0.8550,0.879
0.013000,0.3147,0.0516,1.0475,1.095
0.018000,0.3256,0.1113,1.0876,1.141
0.022000,0.2785,0.2099,0.9538,1.016
0.028000,0.1446,0.3142,0.6894,0.771
0.033000,0.0170,0.4009,0.3781,0.551
0.040000,-0.0643,0.4519,0.0030,0.456
0.045000,-0.2141,0.4132,-0.2470,0.527
0.048000,-0.3464,0.3642,-0.4632,0.684
0.067000,-0.4519,0.3126,-0.5954,0.810
0.068000,-0.4880,0.2710,-0.6941,0.891
0.068000,-0.5031,0.1581,-0.7545,0.921
0.068000,-0.5141,0.0771,-0.7266,0.893
0.076000,-0.5275,0.0184,-0.6248,0.818
0.078000,-0.5444,-0.0631,-0.4899,0.735
0.083000,-0.5617,-0.1723,-0.3242,0.671
0.087000,-0.5741,-0.2590,-0.2020,0.661
0.094000,-0.6462,-0.2518,-0.1086,0.702
0.098000,-0.6458,-0.3136,-0.0418,0.719
0.103000,-0.6640,-0.3488,-0.0253,0.750
0.108000,-0.5980,-0.3528,-0.0326,0.695
0.113000,-0.4498,-0.3520,-0.0663,0.575
0.117000,-0.2622,-0.3462,-0.0569,0.438
0.122000,-0.1715,-0.3666,-0.1025,0.417
0.127000,-0.1551,-0.3651,-0.0668,0.402
0.132000,-0.1811,-0.3297,-0.0766,0.384
0.139000,-0.1869,-0.2770,-0.1343,0.360
0.142000,-0.2228,-0.2428,-0.2709,0.427
0.147000,-0.3229,-0.1912,-0.3955,0.545
0.167000,-0.4452,-0.1678,-0.4699,0.669
0.168000,-0.5117,-0.1151,-0.5131,0.734
0.168000,-0.5379,-0.0217,-0.5898,0.799
0.169000,-0.5365,0.0501,-0.6378,0.835
0.174000,-0.5150,0.1431,-0.5828,0.791
0.177000,-0.4382,0.2569,-0.5230,0.729
0.183000,-0.3752,0.3482,-0.5062,0.720
0.188000,-0.2763,0.4312,-0.5251,0.733
0.192000,-0.1491,0.5057,-0.5797,0.784
0.197000,-0.0747,0.5171,-0.6532,0.836
0.202000,-0.0744,0.4801,-0.7265,0.874
0.207000,-0.0423,0.4431,-0.7113,0.839
0.212000,-0.0301,0.4472,-0.7368,0.862
0.217000,-0.0830,0.3491,-0.8390,0.912
0.221000,-0.0933,0.2999,-0.8336,0.891
0.227000,-0.1061,0.2519,-0.7327,0.782
0.231000,-0.1527,0.2004,-0.6633,0.710
0.246000,-0.2132,0.1521,-0.4077,0.485
0.247000,-0.1648,0.1140,-0.1070,0.227
0.247000,-0.0866,0.1406,0.1312,0.211
0.251000,0.0166,0.1450,0.2807,0.316
0.256000,0.0507,0.1174,0.3752,0.396
0.261000,0.0773,0.0933,0.4484,0.464
0.266000,0.1531,0.1465,0.5265,0.568
0.277000,0.2254,0.2863,0.5045,0.622
0.278000,0.3082,0.4213,0.4878,0.714
0.281000,0.3490,0.5399,0.3543,0.734
0.287000,0.4436,0.6567,0.1782,0.812
0.291000,0.6020,0.7723,-0.0069,0.979
0.296000,0.7481,0.8537,-0.2204,1.156
0.300000,0.8173,0.9661,-0.4169,1.332
0.306000,0.8434,1.0717,-0.5653,1.476
0.311000,0.9165,1.1254,-0.7233,1.622
0.315000,0.8213,1.1227,-0.7162,1.565
0.322000,0.8217,1.1159,-0.5060,1.475
0.326000,0.9423,1.0644,-0.3106,1.455
0.331000,0.9849,1.0062,-0.1298,1.414
0.337000,0.9137,0.8644,0.0746,1.260
0.342000,0.7937,0.7557,0.1785,1.110
0.346000,0.7041,0.6154,0.1963,0.956
0.351000,0.6256,0.4459,0.1473,0.782
0.355000,0.5555,0.2929,0.0482,0.630
0.361000,0.5008,0.1399,-0.0149,0.520
0.366000,0.4542,0.0443,-0.0635,0.461
0.382000,0.4460,-0.0178,-0.1025,0.458
0.384000,0.4519,-0.0371,-0.1724,0.485
0.386000,0.4860,0.0319,-0.3593,0.605
0.387000,0.4575,0.0721,-0.4408,0.639
0.392000,0.4308,0.1080,-0.5581,0.713
0.402000,0.4204,0.1660,-0.6611,0.801
0.403000,0.3883,0.2319,-0.7473,0.874
0.430000,0.3106,0.3106,-0.8097,0.921
0.431000,0.3184,0.3351,-0.8029,0.926
0.431000,0.3594,0.3293,-0.6934,0.848
0.432000,0.3406,0.3457,-0.5531,0.736
0.432000,0.3005,0.2553,-0.4274,0.582
0.433000,0.2369,0.1390,-0.2781,0.391
0.435000,0.1787,0.0514,-0.1051,0.214
0.440000,0.2000,0.0068,0.0487,0.206
0.445000,0.1836,-0.0741,0.0779,0.213
0.450000,0.1319,-0.1431,0.0785,0.210
0.462000,0.0596,-0.1886,0.0839,0.215
0.463000,0.0052,-0.2386,-0.0399,0.242
0.465000,-0.0386,-0.3074,-0.2353,0.389
0.470000,-0.1174,-0.3494,-0.3900,0.537
0.475000,-0.1095,-0.3548,-0.5016,0.624
0.480000,-0.1969,-0.3593,-0.6467,0.766
0.485000,-0.2747,-0.3677,-0.7966,0.919
0.504000,-0.3865,-0.3606,-0.8390,0.992
0.504000,-0.4945,-0.3860,-0.8648,1.068
0.504000,-0.5057,-0.3148,-0.8978,1.078
0.505000,-0.4926,-0.2761,-0.9741,1.126
0.509000,-0.5069,-0.2552,-0.9811,1.133
0.514000,-0.4071,-0.2091,-0.8951,1.005
0.520000,-0.3078,-0.1831,-0.6971,0.784
0.525000,-0.2300,-0.1559,-0.5068,0.578
0.529000,-0.1328,-0.2069,-0.3360,0.416
0.534000,-0.1449,-0.2573,-0.0795,0.306
0.539000,-0.0960,-0.3241,0.3703,0.501
0.545000,0.0235,-0.3224,0.7288,0.797
0.550000,0.0533,-0.3790,0.9316,1.007
0.557000,-0.1422,-0.4919,1.0459,1.165
0.559000,-0.4124,-0.6254,1.3110,1.510
0.564000,-0.5144,-0.6437,1.4638,1.680
0.572000,-0.5465,-0.6120,1.5308,1.737
0.575000,-0.6919,-0.5228,1.4116,1.657
0.579000,-0.6930,-0.4688,1.2283,1.486
0.584000,-0.6508,-0.4072,1.1936,1.419
0.600000,-0.6005,-0.3428,1.1164,1.313
0.601000,-0.5462,-0.2568,1.0589,1.219
0.601000,-0.5120,-0.1824,0.9062,1.057
0.605000,-0.5566,-0.1024,0.7111,0.909
0.612000,-0.5926,-0.0283,0.4183,0.726
0.613000,-0.5930,0.0164,0.1283,0.607
0.619000,-0.5481,0.0944,-0.2402,0.606
0.649000,-0.4159,0.2086,-0.5629,0.730
0.650000,-0.2433,0.2326,-0.8351,0.900
0.651000,-0.0722,0.2913,-1.0809,1.122
0.651000,0.0848,0.3323,-1.2405,1.287
0.651000,0.2605,0.3439,-1.3333,1.401
0.652000,0.4096,0.3501,-1.3593,1.462
0.653000,0.5174,0.3841,-1.2613,1.416
0.658000,0.5978,0.3886,-0.9794,1.211
0.663000,0.5541,0.3896,-0.7005,0.974
0.671000,0.5656,0.4036,-0.4390,0.822
0.673000,0.5355,0.3514,-0.2999,0.707
0.678000,0.5526,0.3168,-0.2187,0.673
0.683000,0.5304,0.2298,-0.2021,0.612
0.698000,0.4044,0.2437,-0.2216,0.522
0.699000,0.2111,0.2338,-0.2316,0.391
0.699000,0.0746,0.1741,-0.2464,0.311
0.704000,0.0519,0.1099,-0.2374,0.267
0.708000,-0.0065,0.1081,-0.2404,0.264
0.713000,-0.1154,0.0489,-0.2816,0.308
0.718000,-0.2607,0.0401,-0.3539,0.441
0.735000,-0.5166,-0.0115,-0.4429,0.681
0.735000,-0.7535,-0.0147,-0.4409,0.873
0.735000,-0.7563,-0.0055,-0.4486,0.879
0.739000,-0.6958,0.0495,-0.4874,0.851
0.744000,-0.5699,0.0645,-0.5288,0.780
0.748000,-0.2230,0.1473,-0.2712,0.381
0.753000,0.4841,0.2132,1.2939,1.398
0.758000,2.0312,0.3293,3.6800,4.216
0.763000,2.6752,0.3607,3.7375,4.610
0.767000,1.2223,0.0643,0.8260,1.477
0.773000,0.5867,-0.1590,-0.0464,0.610
0.777000,0.7511,-0.2555,0.3330,0.860
0.782000,0.9055,-0.3314,0.7315,1.210
0.789000,0.9093,-0.3679,1.0293,1.422
0.794000,0.8483,-0.3301,1.2772,1.568
0.797000,0.9572,-0.2206,1.4105,1.719
0.802000,1.0018,-0.1400,1.3028,1.649
0.823000,1.0330,-0.0614,0.9685,1.417
0.824000,0.9856,-0.0413,0.6923,1.205
0.824000,0.8597,-0.0289,0.4884,0.989
0.824000,0.8009,-0.0455,0.4235,0.907
0.827000,0.5724,-0.1128,0.6649,0.885
0.832000,0.1424,-0.2221,0.9662,1.002
0.837000,-0.4782,-0.3522,1.1814,1.322
0.842000,-0.6692,-0.3264,0.8615,1.139
0.847000,-0.6568,-0.2805,0.3079,0.778
0.852000,-0.5593,-0.2062,-0.1132,0.607
0.857000,-0.5419,-0.0862,-0.5076,0.747
0.862000,-0.4901,0.0345,-0.8322,0.966
0.866000,-0.5122,0.0347,-1.0588,1.177
0.872000,-0.6396,0.0076,-1.1276,1.296
0.877000,-0.6947,0.0710,-1.1729,1.365
0.882000,-0.6513,0.1453,-1.3165,1.476
0.888000,-0.5336,0.1471,-1.4484,1.551
0.891000,-0.4116,0.1532,-1.3702,1.439
0.899000,-0.2160,0.1872,-1.1682,1.203
0.901000,-0.1011,0.1198,-0.9501,0.963
0.908000,-0.0114,0.0751,-0.6966,0.701
0.912000,0.2261,0.0862,-0.3408,0.418
0.917000,0.1821,0.0400,-0.1122,0.218
0.940000,0.5436,0.1827,-0.2210,0.615
0.941000,0.4209,0.1673,-0.3271,0.559
0.941000,0.1347,0.0658,-0.3518,0.382
0.942000,-0.0877,-0.0355,-0.4051,0.416
0.942000,-0.2754,-0.1144,-0.5709,0.644
0.946000,-0.3689,-0.1538,-0.7847,0.881
0.951000,-0.2792,-0.1174,-1.0656,1.108
0.957000,-0.0927,-0.0313,-1.3156,1.319
0.961000,0.0474,0.0236,-1.4393,1.440
0.967000,0.0885,0.0234,-1.4463,1.449
0.971000,-0.1174,-0.0894,-1.1766,1.186
0.976000,-0.7490,-0.3653,-0.7068,1.093
0.981000,-1.2952,-0.4555,-0.7139,1.547
0.987000,-1.4214,-0.3743,-1.0418,1.802
0.991000,-0.4907,0.0051,-1.1355,1.237
0.996000,0.1528,0.1564,-1.2391,1.258
1.000000,0.2494,0.0748,-1.3096,1.335
1.005000,0.3078,0.0233,-1.2297,1.268
1.011000,0.2972,0.0356,-1.1600,1.198
1.016000,0.1869,-0.0081,-0.9831,1.001
1.026000,0.0560,0.0142,-0.8067,0.809
1.027000,-0.1101,0.0280,-0.6285,0.639
1.031000,-0.3119,0.0066,-0.4316,0.533
1.036000,-0.5322,-0.0431,-0.2278,0.581
1.068000,-0.7278,-0.0972,-0.0435,0.736
1.070000,-0.9297,-0.1321,0.1096,0.945
1.071000,-0.7701,-0.0599,0.3941,0.867
1.071000,-0.4404,0.0876,0.6022,0.751
1.071000,-0.2872,0.1119,0.3464,0.464
1.071000,-0.1597,0.1185,0.1270,0.236
1.072000,-0.0427,0.1270,0.1138,0.176
1.076000,-0.0166,0.2259,0.2155,0.313
1.080000,-0.1291,0.3459,0.3459,0.506
1.085000,-0.1983,0.0707,0.5624,0.601
1.091000,-0.3073,-0.1740,1.0300,1.089
1.095000,-0.4806,-0.3764,1.3203,1.455
1.100000,-0.6325,-0.7061,1.3594,1.657
1.109000,-0.4497,-1.0389,1.3149,1.735
1.111000,0.0436,-0.9951,1.2853,1.626
1.115000,0.5752,-0.6545,1.2012,1.484
1.143000,0.8242,-0.2236,0.9673,1.290
1.144000,0.9556,0.1662,0.5787,1.129
1.145000,1.1236,0.5348,0.1050,1.249
1.145000,1.2644,0.8992,-0.1860,1.563
1.146000,0.9149,0.9921,-0.1201,1.355
1.146000,0.2460,0.7787,0.1920,0.839
1.150000,-0.3713,0.4189,0.5918,0.815
1.155000,-0.6583,0.1358,0.3256,0.747
1.160000,-0.6942,-0.1178,-0.1746,0.725
1.164000,-0.2878,-0.2885,-0.2387,0.472
1.171000,0.2317,-0.2899,-0.4221,0.562
1.175000,0.6089,-0.1882,-0.7870,1.013
1.180000,0.7552,0.0073,-0.8120,1.109
1.184000,0.7140,0.2204,-0.5861,0.950
1.189000,0.6070,0.3525,-0.3008,0.764
1.195000,0.3933,0.4540,-0.1835,0.628
1.199000,0.1933,0.4654,-0.1454,0.525
1.204000,-0.0074,0.4014,-0.0671,0.407
1.210000,-0.1063,0.2881,0.0182,0.308
1.214000,-0.0272,0.2875,0.0267,0.290
1.226000,0.1121,0.3372,-0.2015,0.409
1.227000,0.2397,0.4326,-0.5755,0.759
1.229000,0.4167,0.5430,-1.0997,1.295
1.234000,0.1843,0.4634,-0.8441,0.980
1.260000,0.0120,0.3446,-0.4075,0.534
1.261000,0.3173,0.4832,-0.4979,0.763
1.261000,0.4524,0.5225,-0.6938,0.979
1.261000,0.4293,0.4245,-0.5741,0.833
1.262000,0.3547,0.3490,-0.1846,0.531
1.264000,0.3877,0.3170,0.1494,0.523
1.271000,0.4813,0.3344,0.4762,0.755
1.274000,0.7527,0.5296,0.6668,1.137
1.279000,0.4866,0.4362,0.9316,1.138
1.283000,0.1916,0.3004,1.1967,1.249
1.288000,0.0650,0.2872,1.2538,1.288
1.293000,-0.0335,0.2079,1.2849,1.302
1.299000,-0.1034,0.1298,1.1607,1.173
1.304000,-0.1806,0.0176,1.0082,1.024
1.308000,-0.2704,-0.0879,0.9109,0.954
1.313000,-0.4165,-0.2081,0.8258,0.948
1.320000,-0.5308,-0.2975,0.7815,0.990
1.324000,-0.6277,-0.3299,0.6704,0.976
1.330000,-0.6283,-0.3099,0.5882,0.915
1.333000,-0.6137,-0.3092,0.5515,0.881
1.345000,-0.5650,-0.2558,0.4719,0.779
1.347000,-0.4972,-0.2074,0.4186,0.682
1.349000,-0.4251,-0.1499,0.4372,0.628
1.380000,-0.2842,-0.0451,0.3843,0.480
1.382000,-0.2039,0.0110,0.3195,0.379
1.382000,-0.0747,0.0399,0.3963,0.405
1.382000,0.0720,0.0366,0.4541,0.461
1.382000,0.2048,0.0342,0.4931,0.535
1.383000,0.2946,0.0014,0.6330,0.698
1.383000,0.2460,-0.0381,0.7637,0.803
1.390000,0.2110,-0.0799,0.8781,0.907
1.392000,0.1451,-0.0380,0.8806,0.893
1.398000,-0.0014,-0.0175,0.8645,0.865
1.405000,-0.1067,-0.0158,0.8274,0.834
1.408000,-0.1929,0.0009,0.6163,0.646
1.413000,-0.3031,-0.0720,0.3771,0.489
1.417000,-0.3465,-0.1072,0.1887,0.409
1.422000,-0.3784,-0.1065,-0.0497,0.396
1.427000,-0.4330,-0.1054,-0.1753,0.479
1.433000,-0.4191,-0.1154,-0.1814,0.471
1.444000,-0.3769,-0.1912,-0.1063,0.436
1.445000,-0.4042,-0.2923,-0.0794,0.505
1.448000,-0.3832,-0.3562,-0.0743,0.528
1.484000,-0.3304,-0.3396,-0.0720,0.479
1.486000,-0.2169,-0.3000,-0.0844,0.380
1.487000,-0.1094,-0.1870,-0.1452,0.261
1.488000,-0.0196,-0.0509,-0.2136,0.220
1.488000,0.0834,-0.0063,-0.3614,0.371
1.492000,0.1586,-0.0503,-0.5240,0.550
1.493000,0.2557,-0.0824,-0.6775,0.729
1.493000,0.2623,-0.1285,-0.7742,0.827
1.493000,0.2789,-0.1576,-0.8428,0.902
1.497000,0.2385,-0.2030,-0.9026,0.955
1.502000,0.2368,-0.1476,-1.0323,1.069
1.507000,0.2278,-0.0967,-1.1770,1.203
1.511000,0.2230,-0.0480,-1.2791,1.299
1.517000,0.2628,0.0200,-1.1737,1.203
1.522000,0.3087,0.1285,-0.9757,1.031
1.526000,0.4498,0.1784,-0.7686,0.908
1.531000,0.5594,0.2098,-0.5619,0.820
1.537000,0.6091,0.2342,-0.3627,0.747
1.542000,0.5707,0.1866,-0.2999,0.671
1.548000,0.4873,0.1072,-0.1892,0.534
1.552000,0.3902,0.0508,-0.0974,0.405
1.559000,0.3059,-0.0403,-0.0246,0.310
1.562000,0.1915,-0.0779,0.0484,0.212
1.568000,0.0875,-0.1674,0.0860,0.207
1.611000,-0.0233,-0.2320,0.0688,0.243
1.612000,-0.1075,-0.2957,0.0402,0.317
1.613000,-0.1631,-0.3299,0.0598,0.373
1.613000,-0.2165,-0.3178,0.0224,0.385
1.614000,-0.2551,-0.3480,-0.0720,0.437
1.614000,-0.2477,-0.3989,-0.1635,0.497
1.614000,-0.2805,-0.3819,-0.2545,0.538
1.615000,-0.2888,-0.3495,-0.1921,0.492
1.615000,-0.2319,-0.3258,-0.0171,0.400
1.616000,-0.1153,-0.2102,0.1437,0.279
1.623000,0.0909,-0.1681,0.3310,0.382
1.626000,0.2505,-0.1038,0.4875,0.558
1.632000,0.3095,-0.0750,0.6108,0.689
1.638000,0.3533,-0.0480,0.6171,0.713
1.642000,0.3161,-0.1187,0.5448,0.641
1.646000,0.2481,-0.1507,0.3701,0.470
1.650000,0.1346,-0.2228,0.1911,0.323
1.657000,0.0181,-0.2777,-0.0063,0.278
1.661000,-0.0502,-0.3534,-0.2580,0.440
1.665000,-0.0765,-0.3397,-0.3607,0.501
1.675000,-0.1353,-0.3371,-0.5224,0.636
1.682000,-0.0556,-0.3020,-0.8652,0.918
1.682000,0.1001,-0.2312,-1.1834,1.210
1.706000,0.2626,-0.0728,-1.5013,1.526
1.708000,0.3058,0.1126,-1.6618,1.693
1.708000,0.2366,0.2588,-1.6579,1.695
1.708000,0.1319,0.3879,-1.4830,1.539
1.709000,0.0784,0.5240,-1.0058,1.137
1.710000,0.1424,0.5561,-0.4560,0.733
1.715000,0.2181,0.5288,0.0180,0.572
1.721000,0.2973,0.3788,0.2277,0.533
1.725000,0.4258,0.2129,0.2646,0.545
1.730000,0.4809,0.0021,0.1958,0.519
1.738000,0.4307,-0.1508,0.0504,0.459
1.741000,0.2839,-0.2842,-0.0233,0.402
1.746000,0.0612,-0.3667,-0.0827,0.381
1.750000,-0.1703,-0.3724,0.0110,0.410
1.756000,-0.3346,-0.3445,0.0902,0.489
1.760000,-0.4560,-0.3166,0.1287,0.570
1.766000,-0.5252,-0.3134,0.2582,0.664
1.778000,-0.4994,-0.2777,0.3137,0.652
1.783000,-0.3866,-0.2049,0.3050,0.533
1.783000,-0.2828,-0.0953,0.3423,0.454
1.785000,-0.1873,0.0535,0.5257,0.561
1.813000,0.0057,0.1889,0.5061,0.540
1.814000,0.1192,0.2607,0.4222,0.510
1.814000,0.1532,0.2550,0.2550,0.392
1.814000,0.1298,0.2463,0.1193,0.303
1.815000,0.0469,0.2352,0.0149,0.240
1.815000,-0.0240,0.1765,-0.1039,0.206
1.823000,-0.0834,0.1279,-0.2441,0.288
1.824000,-0.1482,0.0989,-0.3363,0.381
1.830000,-0.2061,0.0659,-0.3234,0.389
1.834000,-0.2954,0.0384,-0.2342,0.379
1.839000,-0.2651,0.0282,0.0294,0.268
1.844000,-0.1844,0.0589,0.3117,0.367
1.850000,-0.1128,0.0824,0.4764,0.496
1.856000,-0.0641,0.0458,0.6194,0.624
1.860000,0.0225,-0.0247,0.6570,0.658
1.864000,0.0688,-0.0692,0.5103,0.520
1.871000,0.0193,-0.1092,0.3112,0.330
1.874000,-0.0713,-0.1276,0.0285,0.149
1.880000,-0.1229,-0.1625,-0.2252,0.304
1.884000,-0.2130,-0.1443,-0.3927,0.469
1.892000,-0.2779,-0.0991,-0.5097,0.589
1.894000,-0.2942,-0.0753,-0.5836,0.658
1.899000,-0.3124,-0.0679,-0.6143,0.692
1.925000,-0.2779,0.0018,-0.6186,0.678
1.926000,-0.2603,0.0213,-0.6562,0.706
1.926000,-0.2741,0.0718,-0.5094,0.583
1.926000,-0.2566,0.0834,-0.3817,0.467
1.926000,-0.2124,0.0850,-0.2994,0.377
1.935000,-0.2037,0.0597,-0.2169,0.304
1.936000,-0.2110,0.0217,-0.1055,0.237
1.948000,-0.1600,0.0070,-0.0489,0.167
1.949000,-0.1678,-0.0492,-0.0519,0.182
1.949000,-0.1455,-0.0510,-0.0881,0.178
1.966000,-0.0596,-0.0676,-0.0929,0.129
1.968000,0.0496,-0.0029,-0.0427,0.066
1.968000,0.1590,0.1261,0.0793,0.218
1.969000,0.3007,0.2053,0.1482,0.393
1.983000,0.3632,0.2420,0.1881,0.475
1.984000,0.3801,0.2315,0.1917,0.485
1.985000,0.4145,0.2482,0.0921,0.492
1.998000,0.3940,0.2327,0.0566,0.461
1.999000,0.3475,0.2111,0.0517,0.410
1.999000,0.2818,0.1478,-0.0063,0.318
2.006000,0.1846,0.1263,-0.0407,0.227
2.009000,0.0746,0.0604,-0.0707,0.119
2.013000,-0.0580,-0.0072,-0.1225,0.136
2.018000,-0.1277,-0.0550,-0.1719,0.221
2.044000,-0.1924,-0.1168,-0.2285,0.321
2.044000,-0.2005,-0.1280,-0.3091,0.390
2.045000,-0.2620,-0.1484,-0.2532,0.393
2.046000,-0.2475,-0.1422,-0.1496,0.322
2.046000,-0.2022,-0.1287,-0.0676,0.249
2.055000,-0.1957,-0.1248,-0.0240,0.233
2.057000,-0.1729,-0.0663,0.0292,0.187
2.066000,-0.1558,-0.0417,0.0515,0.169
2.067000,-0.1660,-0.0441,0.0429,0.177
2.067000,-0.0959,-0.0327,0.0417,0.110
2.081000,-0.0511,-0.0460,0.0360,0.078
2.082000,-0.0913,-0.0719,0.0211,0.118
2.082000,-0.1179,-0.0693,0.0947,0.166
2.097000,-0.1259,-0.0123,0.1804,0.220
2.098000,-0.1371,-0.0252,0.2398,0.277
2.098000,-0.0841,-0.0268,0.3282,0.340
2.139000,-0.0528,0.0211,0.3448,0.349
2.140000,-0.0139,-0.0080,0.3543,0.355
2.141000,0.0373,-0.0161,0.3448,0.347
2.141000,0.0512,-0.0365,0.2804,0.287
2.141000,0.0179,-0.0547,0.2614,0.268
2.142000,0.0547,-0.0538,0.2209,0.234
2.142000,0.0224,-0.1221,0.2546,0.283
2.142000,0.0267,-0.0971,0.3121,0.328
2.142000,0.0124,-0.0818,0.2523,0.266
2.147000,-0.0464,-0.0690,0.1902,0.208
2.152000,-0.0638,-0.0488,0.1041,0.132
2.158000,-0.1264,-0.0499,0.0109,0.136
2.162000,-0.1671,-0.0387,-0.0632,0.183
2.167000,-0.1957,-0.0297,-0.1348,0.240
2.173000,-0.1910,-0.0374,-0.2040,0.282
2.178000,-0.1316,-0.0092,-0.1392,0.192
2.182000,-0.1349,-0.0049,-0.1031,0.170
2.193000,-0.0739,0.0255,0.0430,0.089
2.194000,0.0011,0.0197,0.1795,0.181
2.197000,0.0688,0.0420,0.2753,0.287
2.202000,0.0940,0.0493,0.3280,0.345
2.228000,0.0790,0.0156,0.2564,0.269
2.229000,0.0411,0.0056,0.1873,0.192
2.229000,-0.0107,-0.0262,0.0657,0.072
2.229000,-0.0358,-0.0558,-0.0844,0.107
2.230000,-0.0467,-0.0636,-0.2726,0.284
2.231000,-0.0649,-0.0568,-0.4104,0.419
2.237000,-0.1125,-0.0566,-0.5290,0.544
2.241000,-0.1322,-0.0509,-0.5065,0.526
2.247000,-0.1358,-0.0253,-0.5249,0.543
2.251000,-0.1255,-0.0181,-0.5075,0.523
2.257000,-0.1564,0.0113,-0.3994,0.429
2.262000,-0.1469,0.0242,-0.3059,0.340
2.267000,-0.0998,0.0276,-0.2603,0.280
2.271000,-0.0534,0.0023,-0.2387,0.245
2.278000,-0.0457,-0.0305,-0.1691,0.178
2.281000,-0.0814,-0.0659,-0.1521,0.185
2.287000,-0.1102,-0.0730,-0.1780,0.222
2.291000,-0.1368,-0.0710,-0.1344,0.205
2.296000,-0.1281,-0.0456,-0.1840,0.229
2.301000,-0.0699,-0.0588,-0.2668,0.282
2.306000,-0.0505,-0.0553,-0.2945,0.304
2.311000,-0.0384,-0.0204,-0.2098,0.214
2.315000,0.0483,-0.0280,-0.0920,0.108
2.325000,0.0972,0.0270,0.0734,0.125
2.326000,0.1423,0.0582,0.2121,0.262
2.331000,0.1910,0.0965,0.3387,0.401
2.335000,0.1981,0.0630,0.3549,0.411
2.363000,0.1688,0.0438,0.2037,0.268
2.364000,0.1506,-0.0064,0.0693,0.166
2.365000,0.0851,-0.1063,-0.1895,0.233
2.365000,0.0579,-0.1097,-0.2975,0.322
2.366000,-0.0199,-0.0880,-0.3291,0.341
2.366000,-0.0861,-0.0701,-0.2150,0.242
2.373000,-0.1408,-0.0539,-0.0630,0.163
2.376000,-0.1887,-0.0184,0.0458,0.195
2.381000,-0.1700,-0.0310,0.2023,0.266
2.385000,-0.1634,-0.0223,0.3492,0.386
2.390000,-0.1333,-0.0311,0.3909,0.414
2.396000,-0.1418,-0.0601,0.3587,0.390
2.400000,-0.1577,-0.1283,0.3436,0.399
2.410000,-0.1765,-0.1279,0.2642,0.342
2.413000,-0.2124,-0.1570,0.1803,0.320
2.415000,-0.2942,-0.1533,0.1255,0.355
2.440000,-0.3093,-0.1379,0.1067,0.355
2.441000,-0.2939,-0.0969,0.1718,0.354
2.441000,-0.2716,-0.0779,0.1676,0.328
2.441000,-0.1560,-0.0545,0.1444,0.220
2.442000,-0.0831,-0.0338,0.0352,0.096
2.445000,-0.0307,-0.0682,-0.1074,0.131
2.449000,0.0154,-0.0830,-0.1950,0.212
2.456000,-0.0290,-0.0949,-0.3161,0.331
2.460000,-0.0156,-0.0775,-0.4110,0.419
2.464000,0.0455,-0.0187,-0.4246,0.427
2.471000,0.0680,0.0506,-0.3668,0.376
2.476000,0.0902,0.1636,-0.3163,0.367
2.480000,0.0834,0.1692,-0.2732,0.332
2.484000,0.0620,0.1560,-0.2134,0.272
2.490000,0.0429,0.1718,-0.1466,0.230
2.495000,0.0500,0.1302,-0.0297,0.143
2.499000,0.0332,0.0813,0.0106,0.088
2.504000,0.0452,0.0158,0.1058,0.116
2.510000,0.0261,-0.0186,0.1722,0.175
2.514000,0.0071,0.0162,0.2697,0.270
2.526000,0.0170,-0.0023,0.3791,0.379
2.527000,-0.0015,-0.0287,0.3930,0.394
2.529000,-0.0291,-0.0298,0.2995,0.302
2.534000,-0.0899,-0.0508,0.2134,0.237
2.563000,-0.1434,-0.1035,-0.0086,0.177
2.564000,-0.1330,-0.1111,-0.1992,0.264
2.565000,-0.1449,-0.0972,-0.2890,0.338
2.566000,-0.1432,-0.0474,-0.3859,0.414
2.566000,-0.1041,-0.0208,-0.4588,0.471
2.566000,-0.0706,0.0231,-0.4122,0.419
2.570000,-0.0447,0.0942,-0.2129,0.237
2.574000,0.0290,0.0702,0.0028,0.076
2.579000,0.0673,0.0630,0.2133,0.232
2.583000,0.1016,0.0415,0.3208,0.339
2.589000,0.1105,0.0339,0.4209,0.437
2.594000,0.1035,0.0114,0.3824,0.396
2.598000,0.0686,-0.0214,0.2938,0.302
2.604000,0.0509,-0.0616,0.1002,0.128
2.609000,-0.0048,-0.0731,-0.0478,0.087
2.613000,-0.0605,-0.1012,-0.2075,0.239
2.626000,-0.0947,-0.0548,-0.2524,0.275
2.627000,-0.1434,-0.0341,-0.2472,0.288
2.628000,-0.1588,-0.0152,-0.2493,0.296
2.633000,-0.1315,0.0159,-0.2418,0.276
2.661000,-0.1501,0.0471,-0.1651,0.228
2.662000,-0.1357,0.0448,-0.1218,0.188
2.663000,-0.0934,0.0636,-0.1287,0.171
2.663000,-0.0425,0.0727,-0.1164,0.144
2.663000,0.0648,0.0793,0.0132,0.103
2.665000,0.1408,0.0880,0.1260,0.208
2.669000,0.1956,0.0630,0.2267,0.306
2.674000,0.1938,0.0619,0.2196,0.299
2.679000,0.1023,0.0154,0.0809,0.131
2.683000,0.0478,-0.0426,-0.0219,0.068
2.688000,-0.0034,-0.0979,-0.0960,0.137
2.693000,-0.0470,-0.1071,-0.2252,0.254
2.698000,-0.1169,-0.0992,-0.2037,0.255
2.705000,-0.1583,-0.0860,-0.2134,0.279
2.708000,-0.2024,-0.0606,-0.2279,0.311
2.713000,-0.1584,-0.0328,-0.2328,0.284
2.718000,-0.1441,-0.0432,-0.2401,0.283
2.724000,-0.1570,-0.0630,-0.2808,0.328
2.728000,-0.1591,-0.0920,-0.2330,0.297
2.733000,-0.1402,-0.0942,-0.0467,0.175
2.744000,-0.1306,-0.1201,0.0891,0.199
2.745000,-0.1231,-0.1317,0.2056,0.273
2.748000,-0.0935,-0.1172,0.3866,0.415
2.790000,-0.0154,-0.0292,0.5626,0.564
2.792000,0.1013,0.0552,0.6287,0.639
2.792000,0.1895,0.1072,0.6688,0.703
2.792000,0.2065,0.1243,0.6158,0.661
2.793000,0.2052,0.0829,0.4412,0.494
2.793000,0.1332,0.0386,0.1879,0.234
2.793000,0.0669,0.0038,-0.0913,0.113
2.793000,-0.0370,-0.0306,-0.3536,0.357
2.793000,-0.0929,-0.1000,-0.4843,0.503
2.798000,-0.0700,-0.1228,-0.5122,0.531
2.802000,-0.0570,-0.1207,-0.5189,0.536
2.808000,-0.0518,-0.0913,-0.4301,0.443
2.812000,-0.0207,-0.0303,-0.2937,0.296
2.817000,0.0261,-0.0314,-0.1288,0.135
2.823000,0.0437,-0.0040,0.0145,0.046
2.827000,0.0418,-0.0079,0.0908,0.100
2.832000,0.0542,0.0045,0.1096,0.122
2.842000,0.0259,-0.0268,0.0928,0.100
2.843000,0.0285,-0.0775,0.0163,0.084
2.848000,0.0071,-0.0877,-0.0649,0.109
2.851000,-0.0381,-0.1240,-0.1197,0.176
2.889000,-0.0330,-0.1027,-0.1577,0.191
2.891000,-0.0087,-0.0883,-0.1647,0.187
2.891000,0.0133,-0.0712,-0.1406,0.158
2.892000,-0.0004,-0.0206,-0.1215,0.123
2.892000,0.0580,0.0038,-0.0139,0.060
2.892000,0.0994,0.0066,0.0529,0.113
2.893000,0.1121,0.0547,0.0455,0.133
2.893000,0.1510,0.0308,-0.0144,0.155
2.897000,0.1449,0.0308,-0.1388,0.203
2.901000,0.0842,0.0408,-0.2321,0.250
2.907000,0.0498,0.0082,-0.3087,0.313
2.912000,0.0222,-0.0118,-0.3160,0.317
2.917000,-0.0010,-0.0526,-0.2230,0.229
2.923000,-0.0343,-0.0474,-0.0656,0.088
2.926000,-0.0508,-0.0111,0.1513,0.160
2.931000,-0.0171,-0.0085,0.3250,0.326
2.938000,0.0024,-0.0186,0.4245,0.425
2.942000,-0.0064,-0.0629,0.4810,0.485
2.947000,-0.0433,-0.0793,0.4468,0.456
2.950000,-0.0409,-0.1273,0.3457,0.371
2.956000,-0.0282,-0.1303,0.1492,0.200
2.961000,-0.0559,-0.1170,-0.0063,0.130
2.965000,-0.1001,-0.0773,-0.1736,0.215
2.976000,-0.1279,-0.0085,-0.2738,0.302
2.977000,-0.1296,0.0341,-0.3262,0.353
2.981000,-0.0959,0.0673,-0.3235,0.344
3.010000,-0.0175,0.0769,-0.3495,0.358
3.011000,0.0289,0.1058,-0.3731,0.389
3.011000,0.0696,0.0824,-0.3728,0.388
3.012000,0.1095,0.0498,-0.3511,0.371
3.012000,0.0961,0.0487,-0.3079,0.326
3.012000,0.1084,0.0193,-0.2122,0.239
3.016000,0.0727,0.0141,-0.0784,0.108
3.020000,0.0421,0.0498,0.0982,0.118
3.025000,0.0119,-0.0079,0.2004,0.201
3.030000,0.0204,-0.0152,0.3072,0.308
3.035000,-0.0255,-0.0085,0.4115,0.412
3.041000,-0.0351,-0.0332,0.5063,0.509
3.046000,-0.0132,-0.0298,0.5962,0.597
3.050000,0.0021,-0.0249,0.5930,0.594
3.060000,0.0329,-0.0375,0.4847,0.487
3.061000,0.0170,-0.0435,0.2762,0.280
3.065000,0.0352,-0.0618,-0.0037,0.071
3.103000,0.0343,-0.0562,-0.2355,0.245
3.104000,0.0257,0.0023,-0.4455,0.446
3.104000,-0.0340,0.0543,-0.4855,0.490
3.105000,-0.0609,0.0732,-0.4898,0.499
3.105000,-0.0503,0.0710,-0.4463,0.455
3.105000,-0.0237,0.1170,-0.4005,0.418
3.105000,-0.0030,0.1201,-0.3141,0.336
3.106000,0.0314,0.1353,-0.2373,0.275
3.111000,0.0772,0.0881,-0.1032,0.156
3.115000,0.0654,0.0577,-0.0673,0.110
3.121000,0.1038,0.0558,-0.0051,0.118
3.124000,0.0920,0.0515,-0.0314,0.110
3.129000,-0.0080,-0.0053,-0.1127,0.113
3.135000,-0.0529,-0.0091,-0.1223,0.134
3.139000,-0.0617,-0.0364,-0.0745,0.103
3.144000,-0.0865,-0.0490,0.0232,0.102
3.149000,-0.0747,-0.0255,0.1088,0.134
3.154000,-0.0456,0.0030,0.1535,0.160
3.160000,-0.0138,0.0194,0.2148,0.216
3.165000,0.0230,0.0834,0.2834,0.296
3.173000,-0.0047,0.1017,0.2777,0.296
3.174000,-0.0085,0.0910,0.3009,0.314
3.179000,-0.0313,0.0510,0.2428,0.250
3.184000,-0.0683,0.0108,0.1993,0.211
3.209000,-0.1289,0.0015,0.1487,0.197
3.210000,-0.1511,-0.0511,0.0575,0.170
3.211000,-0.1666,-0.0869,0.0120,0.188
3.211000,-0.1966,-0.0680,0.0048,0.208
3.212000,-0.1790,-0.0634,0.0144,0.190
3.214000,-0.1138,-0.0496,-0.0046,0.124
3.221000,-0.0869,-0.0287,-0.0188,0.093
3.224000,-0.0552,0.0111,-0.0521,0.077
3.229000,-0.0473,0.0749,-0.0996,0.133
3.234000,-0.0562,0.0788,-0.1807,0.205
3.240000,-0.0341,0.0925,-0.3095,0.325
3.244000,-0.0339,0.1066,-0.3736,0.390
3.249000,0.0044,0.1164,-0.3876,0.405
3.256000,0.0425,0.1270,-0.3300,0.356
3.259000,0.0593,0.1453,-0.2751,0.317
3.264000,0.1144,0.1666,-0.1725,0.266
3.273000,0.1458,0.1977,-0.0941,0.263
3.274000,0.1605,0.1737,0.0177,0.237
3.279000,0.1897,0.1925,0.0887,0.284
3.283000,0.1664,0.1777,0.0928,0.261
3.295000,0.1192,0.1910,0.0994,0.246
3.296000,0.1080,0.2039,0.0654,0.240
3.299000,0.0563,0.1709,-0.0282,0.182
3.339000,0.0191,0.1330,-0.1431,0.196
3.341000,0.0104,0.1330,-0.2507,0.284
3.341000,0.0016,0.1736,-0.3556,0.396
3.341000,-0.0219,0.2070,-0.4509,0.497
3.342000,-0.0270,0.2071,-0.4863,0.529
3.342000,-0.0186,0.2337,-0.5479,0.596
3.342000,0.0175,0.2534,-0.5640,0.619
3.342000,0.1243,0.2611,-0.4964,0.575
3.343000,0.2612,0.2882,-0.3572,0.528
3.348000,0.3974,0.3154,-0.1966,0.544
3.354000,0.5306,0.3711,-0.0791,0.652
3.358000,0.6280,0.4027,0.0047,0.746
3.363000,0.6227,0.4173,-0.0694,0.753
3.369000,0.6198,0.4511,-0.0596,0.769
3.374000,0.6340,0.5615,-0.0332,0.848
3.379000,0.6794,0.6481,-0.0237,0.939
3.384000,0.7871,0.7347,0.1125,1.083
3.390000,0.9068,0.8093,0.2868,1.249
3.393000,1.1229,0.8836,0.3915,1.482
3.397000,1.2732,0.9315,0.4626,1.644
3.402000,1.3863,0.9719,0.5311,1.774
3.424000,1.4479,1.0431,0.6186,1.889
3.425000,1.4589,1.0542,0.5912,1.895
3.425000,1.4263,1.0554,0.5184,1.849
3.425000,1.3832,1.0731,0.5126,1.824
3.428000,1.3746,1.0713,0.4088,1.790
3.433000,1.3498,1.0549,0.2740,1.735
3.438000,1.2891,1.0314,0.1872,1.661
3.443000,1.2613,1.0057,0.1628,1.621
3.448000,1.2879,1.0135,0.1981,1.651
3.453000,1.2543,0.9828,0.2312,1.610
3.458000,1.2776,0.9589,0.2404,1.615
3.463000,1.2715,0.9632,0.2929,1.622
3.468000,1.2557,0.9000,0.3502,1.584
3.472000,1.2493,0.8983,0.3096,1.570
3.477000,1.2547,0.8793,0.2835,1.558
3.482000,1.2697,0.8980,0.2864,1.581
3.493000,1.2322,0.8944,0.2320,1.540
3.494000,1.1904,0.9906,0.2138,1.563
3.497000,1.1181,1.0356,0.1862,1.535
3.502000,1.0369,1.0824,0.0177,1.499
3.534000,0.9420,1.0377,-0.1386,1.408
3.536000,0.8644,1.0167,-0.2395,1.356
3.536000,0.7489,1.0289,-0.3331,1.315
3.537000,0.7006,1.0335,-0.4169,1.316
3.537000,0.6260,0.9950,-0.4241,1.250
3.538000,0.5657,0.9872,-0.4598,1.227
3.538000,0.4978,1.0054,-0.4642,1.214
3.542000,0.4348,1.0039,-0.5712,1.234
3.547000,0.3884,0.9448,-0.7355,1.259
3.551000,0.2792,0.8953,-0.8636,1.275
3.556000,0.2436,0.8726,-0.9653,1.324
3.561000,0.1810,0.8575,-0.9952,1.326
3.567000,0.1438,0.8502,-0.9152,1.257
3.571000,0.1131,0.8483,-0.7374,1.130
3.576000,0.1271,0.8751,-0.6028,1.070
3.581000,0.1572,0.8970,-0.4539,1.018
3.588000,0.1511,0.9210,-0.3458,0.995
3.592000,0.1090,0.8725,-0.2806,0.923
3.596000,0.0932,0.8425,-0.2607,0.887
3.601000,0.0560,0.8264,-0.2719,0.872
3.610000,0.0143,0.7715,-0.3019,0.829
3.616000,-0.0196,0.7453,-0.3845,0.839
3.618000,-0.0528,0.7072,-0.4574,0.844
3.647000,-0.0928,0.6857,-0.4012,0.800
3.648000,-0.0845,0.6667,-0.4167,0.791
3.649000,-0.0809,0.7050,-0.4585,0.845
3.649000,-0.0603,0.6835,-0.4906,0.844
3.649000,-0.0348,0.6812,-0.5801,0.895
3.650000,-0.0473,0.7029,-0.5978,0.924
3.650000,-0.0476,0.6701,-0.7065,0.975
3.657000,-0.0553,0.6280,-0.8199,1.034
3.661000,-0.0300,0.6297,-0.8615,1.068
3.665000,-0.0551,0.5844,-0.8054,0.997
3.671000,-0.1162,0.5208,-0.7471,0.918
3.676000,-0.1344,0.5033,-0.6436,0.828
3.681000,-0.1215,0.4765,-0.5714,0.754
3.686000,-0.1347,0.4405,-0.5233,0.697
3.692000,-0.1713,0.3855,-0.5327,0.679
3.696000,-0.2312,0.2829,-0.5924,0.696
3.700000,-0.2474,0.2287,-0.6712,0.751
3.709000,-0.2727,0.1421,-0.7671,0.826
3.710000,-0.3381,0.0616,-0.7341,0.811
3.715000,-0.3883,0.0326,-0.6753,0.780
3.748000,-0.4232,0.0335,-0.6193,0.751
3.749000,-0.4188,0.0328,-0.5373,0.682
3.750000,-0.4469,0.0209,-0.4414,0.628
3.750000,-0.5196,0.0574,-0.3530,0.631
3.750000,-0.5869,0.0679,-0.3054,0.665
3.750000,-0.6299,0.0616,-0.2675,0.687
3.750000,-0.6536,0.1103,-0.2415,0.705
3.757000,-0.6178,0.1563,-0.2131,0.672
3.760000,-0.6418,0.1755,-0.1678,0.686
3.766000,-0.6443,0.2755,-0.0769,0.705
3.770000,-0.6068,0.4269,-0.0146,0.742
3.776000,-0.5842,0.6105,0.0624,0.847
3.781000,-0.4546,0.7851,0.1351,0.917
3.786000,-0.2972,0.9652,0.1149,1.016
3.790000,-0.0972,1.0814,-0.0052,1.086
3.795000,0.0375,1.1700,-0.1677,1.183
3.799000,0.1475,1.2122,-0.3274,1.264
3.806000,0.2138,1.2255,-0.5562,1.363
3.810000,0.1984,1.1843,-0.7274,1.404
3.814000,0.1591,1.1823,-0.8461,1.463
3.863000,0.0098,1.1244,-0.8742,1.424
3.864000,-0.1632,1.1109,-0.8860,1.430
3.865000,-0.3075,1.0484,-0.7881,1.347
3.865000,-0.3825,0.9727,-0.7051,1.261
3.866000,-0.4790,0.9049,-0.6247,1.199
3.866000,-0.6283,0.8275,-0.4870,1.148
3.866000,-0.7872,0.7261,-0.3829,1.137
3.867000,-0.9479,0.5859,-0.3552,1.170
3.867000,-1.1366,0.4929,-0.4206,1.308
3.867000,-1.2814,0.4015,-0.5190,1.440
3.869000,-1.3659,0.2880,-0.6937,1.559
3.875000,-1.4740,0.2316,-0.9181,1.752
3.879000,-1.5347,0.2060,-1.1589,1.934
3.884000,-1.5605,0.2665,-1.4089,2.119
3.889000,-1.5425,0.3892,-1.6538,2.295
3.894000,-1.5216,0.5243,-1.8101,2.422
3.899000,-1.3668,0.7245,-1.9617,2.498
3.906000,-1.1714,0.8921,-1.9963,2.481
3.909000,-0.9402,1.0463,-2.0287,2.469
3.914000,-0.6541,1.2208,-1.9851,2.421
3.919000,-0.3846,1.3391,-1.8727,2.334
3.924000,-0.1317,1.4467,-1.7368,2.264
3.930000,0.0766,1.4885,-1.5634,2.160
3.934000,0.2481,1.4910,-1.4241,2.077
3.945000,0.3614,1.4449,-1.2543,1.947
3.957000,0.4534,1.3835,-1.0589,1.800
3.958000,0.4644,1.3069,-0.8021,1.602
3.958000,0.4265,1.2197,-0.6058,1.427
3.958000,0.3714,1.0857,-0.4053,1.217
3.964000,0.2324,0.9288,-0.2197,0.982
3.969000,0.1270,0.7922,-0.0944,0.808
3.994000,0.0046,0.6032,0.0546,0.606
3.995000,-0.1420,0.4312,0.1794,0.488
3.996000,-0.2650,0.3139,0.2708,0.492
3.996000,-0.4386,0.1577,0.2809,0.544
3.996000,-0.6223,0.0268,0.2795,0.683
3.998000,-0.7803,-0.1075,0.1996,0.813
4.004000,-0.9556,-0.2000,0.0532,0.978
4.008000,-1.0911,-0.2077,-0.1045,1.116
4.013000,-1.1731,-0.2480,-0.2926,1.234
4.018000,-1.2308,-0.2612,-0.4752,1.345
4.024000,-1.2668,-0.2688,-0.5948,1.425
4.028000,-1.2985,-0.2206,-0.6994,1.491
4.033000,-1.2926,-0.1672,-0.8344,1.548
4.044000,-1.2374,-0.0869,-0.9614,1.569
4.049000,-1.1376,-0.0084,-1.1714,1.633
4.050000,-1.0507,0.0756,-1.4213,1.769
4.052000,-1.0294,0.1153,-1.7158,2.004
4.080000,-1.0501,0.1355,-2.0051,2.268
4.082000,-1.0457,0.1364,-2.2175,2.456
4.082000,-1.0450,0.1761,-2.4082,2.631
4.083000,-1.0219,0.2307,-2.5344,2.742
4.083000,-1.0174,0.2692,-2.5959,2.801
4.083000,-0.9978,0.3274,-2.6194,2.822
4.090000,-0.9368,0.3981,-2.6334,2.823
4.093000,-0.9137,0.4786,-2.6715,2.864
4.098000,-0.9014,0.5261,-2.6881,2.884
4.102000,-0.8740,0.5714,-2.7885,2.978
4.109000,-0.8148,0.5742,-2.8458,3.015
4.113000,-0.7477,0.6041,-2.9894,3.140
4.116000,-0.6343,0.5968,-3.0256,3.148
4.123000,-0.5706,0.5984,-3.0120,3.123
4.127000,-0.5226,0.6664,-2.8603,2.983
4.132000,-0.4184,0.7046,-2.6709,2.794
4.144000,-0.2937,0.7445,-2.5301,2.654
4.146000,-0.2456,0.8196,-2.3853,2.534
4.146000,-0.1830,0.8771,-2.2173,2.391
4.152000,-0.1413,0.9627,-2.0045,2.228
4.184000,-0.0936,1.0447,-1.7591,2.048
4.186000,-0.0015,1.1210,-1.4618,1.842
4.187000,0.0317,1.1627,-1.2347,1.696
4.188000,0.0088,1.1238,-0.9268,1.457
4.188000,-0.0010,1.1123,-0.6387,1.283
4.188000,0.0071,1.1034,-0.4229,1.182
4.189000,-0.0103,1.0538,-0.3029,1.096
4.192000,-0.0822,1.0545,-0.1471,1.068
4.196000,-0.1152,1.0743,0.0323,1.081
4.201000,-0.1881,1.0842,0.3384,1.151
4.207000,-0.1934,1.1371,0.6704,1.334
4.211000,-0.1885,1.2443,1.0095,1.613
4.216000,-0.1802,1.3622,1.3436,1.922
4.222000,-0.1328,1.4569,1.6204,2.183
4.226000,-0.1277,1.4995,1.7849,2.335
4.231000,-0.1505,1.4901,1.9187,2.434
4.238000,-0.1920,1.5004,2.0721,2.565
4.243000,-0.2498,1.4777,2.0536,2.542
4.246000,-0.2570,1.4745,2.0094,2.506
4.251000,-0.2573,1.4770,1.8893,2.412
4.257000,-0.1934,1.4519,1.8104,2.329
4.261000,-0.1896,1.4835,1.8657,2.391
4.266000,-0.1763,1.4572,1.8565,2.367
4.281000,-0.1677,1.4166,1.8808,2.361
4.283000,-0.2113,1.4241,1.9911,2.457
4.284000,-0.2443,1.3579,2.0843,2.500
4.336000,-0.2973,1.3139,2.1628,2.548
4.338000,-0.3725,1.2562,2.1764,2.540
4.338000,-0.3910,1.2040,2.1849,2.525
4.339000,-0.3433,1.1457,2.0902,2.408
4.340000,-0.2870,1.0839,1.9282,2.231
4.341000,-0.2036,1.0645,1.6966,2.013
4.341000,-0.1366,0.9516,1.4741,1.760
4.342000,0.0333,0.8417,1.2033,1.469
4.342000,0.1890,0.7977,0.9413,1.248
4.342000,0.3019,0.6769,0.7524,1.056
4.343000,0.3265,0.6067,0.8373,1.084
4.343000,0.3059,0.5651,1.1814,1.345
4.346000,0.2790,0.5806,1.6650,1.785
4.350000,0.4473,0.6208,2.1783,2.309
4.356000,0.6745,0.6516,2.7476,2.903
4.361000,0.7916,0.6097,3.3399,3.486
4.365000,0.8137,0.4795,4.0510,4.160
4.372000,0.9031,0.1838,4.5487,4.641
4.376000,0.9986,-0.2382,4.5467,4.661
4.380000,1.0229,-0.7480,4.1675,4.356
4.385000,1.0260,-1.1450,3.6248,3.937
4.394000,0.9799,-1.3830,3.0714,3.508
4.396000,0.8388,-1.5195,2.5816,3.111
4.400000,0.5915,-1.4229,2.2341,2.714
4.433000,0.3422,-1.2278,2.0001,2.372
4.435000,0.2219,-0.9271,1.9511,2.172
4.436000,0.2325,-0.6197,2.0870,2.189
4.436000,0.3147,-0.4469,2.1613,2.229
4.437000,0.3898,-0.3707,2.2338,2.298
4.437000,0.3748,-0.4247,2.1994,2.271
4.437000,0.2105,-0.6639,2.1038,2.216
4.446000,-0.4657,-1.5690,1.9278,2.529
4.447000,-0.4603,-1.5105,1.7888,2.386
4.450000,0.1696,-0.4680,1.7128,1.784
4.459000,0.3079,-0.0637,1.6162,1.646
4.460000,-0.2216,-0.5455,1.4679,1.582
4.466000,-0.8789,-1.4012,1.0074,1.937
4.478000,-0.6782,-1.2384,0.5052,1.500
4.479000,-0.3646,-0.8334,-0.3665,0.981
4.480000,-0.4466,-0.5043,-1.3068,1.470
4.485000,-0.5662,-0.3016,-1.9357,2.039
4.516000,-0.5658,-0.2647,-2.4955,2.573
4.517000,-0.5452,-0.3236,-3.0151,3.081
4.518000,-0.3409,-0.3849,-3.2960,3.336
4.518000,-0.0043,-0.3992,-3.2045,3.229
4.518000,0.4259,-0.2306,-3.0445,3.083
4.519000,0.8489,-0.0241,-2.7992,2.925
4.519000,1.1451,0.1717,-2.6334,2.877
4.524000,1.2550,0.3750,-2.4584,2.786
4.529000,1.2050,0.5137,-2.2907,2.639
4.534000,1.0455,0.5946,-2.2691,2.568
4.540000,0.9174,0.6245,-2.3214,2.573
4.544000,0.8061,0.6390,-2.4810,2.686
4.549000,0.7326,0.6168,-2.6856,2.851
4.557000,0.6347,0.5916,-2.7486,2.882
4.559000,0.5844,0.6424,-2.8233,2.954
4.563000,0.5440,0.6477,-2.8762,2.998
4.568000,0.5336,0.6486,-2.8956,3.015
4.573000,0.4444,0.6432,-2.9916,3.092
4.579000,0.2940,0.6558,-3.1068,3.189
4.583000,0.1590,0.6581,-3.2390,3.309
4.593000,0.0270,0.6723,-3.3642,3.431
4.595000,-0.0763,0.7272,-3.3869,3.465
4.598000,-0.1922,0.7774,-3.2570,3.354
4.629000,-0.2591,0.9014,-2.9434,3.089
4.630000,-0.2560,0.9859,-2.4988,2.698
4.630000,-0.2048,1.0711,-1.9638,2.246
4.630000,-0.1030,1.1625,-1.4243,1.841
4.631000,-0.0488,1.2426,-0.8991,1.535
4.631000,-0.0581,1.2863,-0.4408,1.361
4.634000,-0.0300,1.3763,0.0729,1.379
4.640000,0.0717,1.4305,0.5082,1.520
4.644000,0.1977,1.4650,0.8270,1.694
4.648000,0.3722,1.4556,0.9170,1.760
4.654000,0.4720,1.4528,0.8956,1.771
4.659000,0.4964,1.3996,0.8392,1.706
4.664000,0.0673,0.7017,1.1443,1.344
4.668000,-0.3909,-0.4112,1.5283,1.630
4.673000,0.3419,0.0002,-0.7730,0.845
4.678000,-0.0192,0.1816,-1.7669,1.776
4.684000,-0.9997,-0.1341,-1.1686,1.544
4.691000,-1.2326,-0.1699,-0.5827,1.374
4.693000,-1.1205,0.0851,-0.0716,1.126
4.698000,-1.1634,0.3744,0.1541,1.232
4.702000,-1.3011,0.5621,-0.0537,1.418
4.730000,-1.3898,0.6289,-0.4595,1.593
4.733000,-1.4816,0.7206,-0.7616,1.815
4.733000,-1.5214,0.7510,-0.8068,1.879
4.734000,-1.6066,0.7752,-0.8682,1.984
4.734000,-1.5903,0.8031,-0.9267,2.008
4.734000,-1.5324,0.8782,-0.9299,1.996
4.740000,-1.3035,0.9842,-0.8852,1.858
4.742000,-1.0114,1.1071,-0.8452,1.721
4.748000,-0.7255,1.1828,-0.8676,1.636
4.753000,-0.3883,1.2596,-0.8470,1.567
4.758000,-0.0606,1.4404,-0.7237,1.613
4.763000,0.1949,1.6599,-0.4931,1.743
4.767000,0.3350,1.8288,-0.2147,1.872
4.772000,0.3289,1.9872,0.0659,2.015
4.777000,0.2160,1.9867,0.4301,2.044
4.782000,0.0672,1.9107,0.7942,2.070
4.788000,-0.0878,1.8290,1.1317,2.153
4.792000,-0.2436,1.7627,1.4069,2.268
4.797000,-0.4545,1.6189,1.5434,2.282
4.802000,-0.7191,1.4933,1.7826,2.434
4.807000,-0.7057,1.3833,2.2419,2.727
4.812000,-0.5986,1.2890,2.4808,2.859
4.816000,-0.5201,1.1480,2.4376,2.744
4.827000,-0.3976,1.0661,2.0503,2.345
4.828000,-0.3299,0.9605,1.4341,1.757
4.832000,-0.3613,0.8829,0.9188,1.324
4.875000,-0.3533,0.8629,0.3632,1.001
4.876000,-0.3381,0.8275,-0.1588,0.908
4.876000,-0.3881,0.8301,-0.3558,0.983
4.877000,-0.4635,0.7464,-0.3238,0.936
4.878000,-0.4653,0.7005,-0.2470,0.876
4.878000,-0.5665,0.7395,-0.0418,0.932
4.879000,-0.6990,0.8701,0.2609,1.146
4.879000,-0.8461,0.9984,0.5105,1.405
4.881000,-0.9614,1.1691,0.7644,1.696
4.882000,-0.9678,1.2667,0.9727,1.867
4.890000,-0.9768,1.3697,1.2405,2.090
4.892000,-1.0614,1.4542,1.6777,2.461
4.898000,-1.1690,1.5406,2.4730,3.139
4.901000,-1.1708,1.6824,3.5209,4.074
4.907000,-1.0378,1.7108,4.4890,4.915
4.911000,-1.0188,1.6983,5.4494,5.798
4.916000,-0.9626,1.7362,6.8760,7.157
4.928000,-0.7035,1.6744,8.0442,8.247
4.930000,-0.6022,1.3731,8.6199,8.749
4.931000,-0.7156,1.1479,8.6857,8.790
4.936000,-0.7310,0.9540,8.0459,8.135
4.964000,-0.7260,0.6068,6.6630,6.730
4.965000,-0.8035,0.3133,5.0701,5.143
4.966000,-0.8947,0.1443,3.8618,3.967
4.966000,-0.8857,0.0941,3.2785,3.397
4.967000,-0.2625,0.3071,3.3335,3.358
4.967000,-0.9815,0.5735,4.1006,4.255
4.973000,-1.3493,1.0167,4.6087,4.909
4.975000,-1.1195,1.4476,4.7007,5.044
4.981000,-1.2020,1.6941,4.5204,4.975
4.985000,-1.2414,1.7029,4.1658,4.668
4.990000,-1.1246,1.5947,3.9666,4.421
4.996000,-0.8984,1.4766,3.9728,4.333
5.001000,-0.7168,1.2888,4.1364,4.391
5.005000,-0.5526,1.0614,4.1537,4.323
5.011000,-0.3936,0.7464,4.1638,4.248
5.015000,-0.3608,0.3843,4.1429,4.176
5.025000,-0.3834,0.0559,4.1464,4.164
5.026000,-0.5149,-0.2484,4.2006,4.239
5.030000,-0.6953,-0.4145,4.2271,4.304
5.035000,-0.7102,-0.6754,3.8700,3.992
5.057000,-0.6030,-0.9420,3.2542,3.441
5.058000,-0.5137,-1.1709,2.5926,2.891
5.058000,-0.4081,-1.3111,1.8824,2.330
5.059000,-0.2835,-1.3729,1.1908,1.839
5.060000,-0.0761,-1.3419,0.5268,1.444
5.065000,0.0896,-1.2918,-0.0000,1.295
5.071000,0.0625,-1.3237,-0.3994,1.384
5.075000,-0.0690,-1.3795,-0.6430,1.524
5.080000,-0.2826,-1.4048,-0.9747,1.733
5.084000,-0.5090,-1.4067,-1.1913,1.912
5.090000,-0.6788,-1.3920,-1.3622,2.063
5.094000,-0.7979,-1.2797,-1.5449,2.159
5.099000,-0.7442,-1.2267,-1.7801,2.286
5.104000,-0.6157,-1.2080,-2.1137,2.511
5.110000,-0.4359,-1.1321,-2.4023,2.691
5.115000,-0.2455,-1.0435,-2.6654,2.873
5.129000,-0.0628,-0.9491,-2.9008,3.053
5.130000,0.1006,-0.9103,-3.1064,3.239
5.130000,0.2982,-0.7999,-3.2081,3.320
5.134000,0.4714,-0.7472,-3.2991,3.415
5.164000,0.5587,-0.6752,-3.3484,3.461
5.166000,0.6447,-0.6462,-3.3225,3.446
5.166000,0.6995,-0.6983,-3.3910,3.532
5.166000,0.7110,-0.7861,-3.4508,3.610
5.167000,0.7581,-0.8906,-3.4518,3.645
5.167000,0.8019,-0.9523,-3.5063,3.721
5.169000,0.8060,-0.9625,-3.4734,3.693
5.174000,0.7717,-0.9768,-3.2458,3.476
5.180000,0.7111,-1.0043,-2.8572,3.111
5.184000,0.5989,-1.0803,-2.2906,2.602
5.189000,0.5241,-1.2546,-1.7461,2.213
5.194000,0.4090,-1.5741,-1.3737,2.129
5.199000,0.1605,-2.0248,-0.8806,2.214
5.205000,-0.0030,-2.5664,-0.6320,2.643
5.209000,-0.0065,-2.8378,-1.1774,3.072
5.214000,0.0526,-2.9061,-2.0433,3.553
5.219000,0.0678,-2.8627,-2.4575,3.773
5.224000,0.0706,-2.7984,-2.4038,3.690
5.229000,0.0611,-2.7610,-2.4036,3.661
5.234000,0.1275,-2.8005,-2.5329,3.778
5.243000,0.2150,-2.8034,-2.8683,4.016
5.245000,0.2580,-2.8378,-3.1879,4.276
5.249000,0.3320,-2.8486,-3.5398,4.556
5.291000,0.3736,-2.7411,-3.7790,4.683
5.292000,0.4518,-2.5921,-3.9510,4.747
5.293000,0.5673,-2.5301,-4.2717,4.997
5.294000,0.6578,-2.5677,-4.9379,5.604
5.294000,0.7970,-2.5095,-5.0002,5.651
5.295000,0.9207,-2.2228,-3.7701,4.472
5.296000,0.9456,-1.5949,-2.3729,3.011
5.296000,1.1242,-1.1377,-1.1922,1.995
5.296000,1.7895,-0.8801,-1.0619,2.259
5.299000,2.3800,-0.7680,-2.2930,3.393
5.305000,2.4223,-0.9183,-3.3587,4.242
5.309000,2.0193,-1.2288,-3.3973,4.139
5.314000,1.4537,-1.5875,-3.1622,3.825
5.318000,1.0006,-1.8311,-3.0189,3.670
5.324000,0.7309,-1.9474,-2.9425,3.603
5.329000,0.5791,-1.9388,-2.9067,3.542
5.333000,0.4754,-1.8672,-2.9406,3.516
5.344000,0.3619,-1.8759,-2.9390,3.505
5.348000,0.2819,-1.8850,-2.9312,3.496
5.348000,0.1775,-1.9137,-2.9578,3.527
5.390000,0.0512,-1.9718,-2.9088,3.514
5.391000,-0.0850,-1.9825,-2.8870,3.503
5.392000,-0.1498,-1.9314,-2.7588,3.371
5.392000,-0.1576,-1.8110,-2.7014,3.256
5.393000,-0.1563,-1.6544,-2.6456,3.124
5.393000,-0.1225,-1.5140,-2.5750,2.990
5.393000,-0.1184,-1.4185,-2.4417,2.826
5.394000,-0.0795,-1.3296,-2.1383,2.519
5.394000,0.0669,-1.2331,-1.7364,2.131
5.397000,0.1684,-1.1489,-1.3695,1.796
5.402000,0.2255,-1.1130,-1.1140,1.591
5.408000,0.2915,-1.0779,-0.9096,1.440
5.412000,0.2961,-1.0512,-0.7706,1.337
5.417000,0.2391,-1.0285,-0.7302,1.284
5.422000,0.1177,-1.0031,-0.6803,1.218
5.427000,0.0270,-0.9367,-0.7336,1.190
5.432000,0.0027,-0.8462,-0.8182,1.177
5.442000,0.0106,-0.8104,-0.9221,1.228
5.443000,0.0460,-0.7379,-1.0145,1.255
5.448000,0.1356,-0.5854,-1.0310,1.193
5.452000,0.3675,-0.4190,-1.0296,1.171
5.482000,0.5934,-0.2000,-0.9412,1.130
5.483000,0.9005,0.0550,-0.7826,1.194
5.483000,1.1694,0.2849,-0.7338,1.410
5.484000,1.2981,0.3607,-0.6512,1.496
5.484000,1.3446,0.3761,-0.5180,1.489
5.484000,1.2609,0.2648,-0.5044,1.384
5.491000,1.1212,0.1941,-0.3998,1.206
5.493000,0.8588,-0.0451,-0.2693,0.901
5.497000,0.4985,-0.3096,-0.2418,0.635
5.506000,0.1095,-0.5842,-0.2935,0.663
5.507000,-0.1918,-0.8043,-0.2042,0.852
5.512000,-0.3444,-0.9778,-0.0887,1.040
5.516000,-0.3800,-1.0275,0.0218,1.096
5.521000,-0.3344,-1.1628,0.2046,1.227
5.528000,-0.2560,-1.2515,0.4522,1.355
5.531000,-0.2547,-1.2329,0.7725,1.477
5.539000,-0.1878,-1.1562,1.1256,1.625
5.542000,-0.0846,-1.0789,1.4658,1.822
5.547000,-0.0024,-1.0025,1.8443,2.099
5.552000,0.1925,-0.8193,2.2537,2.406
5.557000,0.5167,-0.6005,2.7140,2.827
5.562000,0.8876,-0.3477,3.1037,3.247
5.566000,1.2174,-0.1893,3.3462,3.566
5.577000,1.4875,-0.1606,3.5115,3.817
5.579000,1.7162,-0.0957,3.8028,4.173
5.582000,1.8920,0.0185,4.1101,4.525
5.621000,2.0709,0.1092,4.4098,4.873
5.622000,2.1696,0.1144,4.7018,5.179
5.623000,2.1985,0.1361,4.9527,5.420
5.623000,2.2014,0.0776,5.0290,5.490
5.624000,2.0941,-0.0105,5.0812,5.496
5.624000,1.9492,-0.1094,5.0614,5.425
5.624000,1.7868,-0.2864,4.9413,5.262
5.625000,1.5882,-0.4856,4.7252,5.009
5.627000,1.2454,-0.6354,4.3823,4.600
5.630000,0.9392,-0.7659,4.0055,4.185
5.635000,0.6114,-0.9298,3.6163,3.784
5.641000,0.2965,-1.0096,3.2289,3.396
5.646000,0.1040,-1.0578,2.8527,3.044
5.651000,-0.0096,-1.0505,2.5306,2.740
5.659000,-0.0830,-1.0447,2.1669,2.407
5.661000,-0.0829,-0.9590,1.8835,2.115
5.665000,-0.0886,-0.8457,1.6395,1.847
5.691000,-0.0684,-0.7620,1.3965,1.592
5.692000,-0.0485,-0.6980,1.1355,1.334
5.692000,-0.0076,-0.5170,0.8562,1.000
5.693000,0.0633,-0.4051,0.6398,0.760
5.693000,0.1500,-0.2184,0.4050,0.484
5.696000,0.2903,-0.0808,0.1563,0.339
5.700000,0.3912,0.0342,0.0037,0.393
5.706000,0.5172,0.1272,-0.2324,0.581
5.712000,0.6345,0.2058,-0.4395,0.799
5.716000,0.7571,0.2966,-0.7757,1.124
5.720000,0.8940,0.3262,-1.0665,1.429
5.726000,0.9540,0.3814,-1.2881,1.648
5.730000,0.9063,0.4333,-1.4908,1.798
5.736000,0.8181,0.3815,-1.6078,1.844
5.740000,0.6827,0.3408,-1.6820,1.847
5.745000,0.5102,0.2799,-1.7302,1.825
5.750000,0.4041,0.1962,-1.7356,1.793
5.757000,0.3440,0.1158,-1.7937,1.830
5.759000,0.3543,0.0551,-1.8877,1.921
5.765000,0.3251,-0.0074,-2.0964,2.122
5.802000,0.2515,-0.1096,-2.1902,2.207
5.804000,0.1602,-0.1490,-2.2840,2.294
5.805000,0.1161,-0.1806,-2.3418,2.352
5.805000,0.0684,-0.1831,-2.4283,2.436
5.806000,0.0407,-0.1781,-2.4215,2.428
5.806000,0.0257,-0.1039,-2.3286,2.331
5.807000,0.1340,-0.0564,-2.2738,2.278
5.807000,0.2052,0.0457,-2.3768,2.386
5.810000,0.1795,0.0831,-2.5059,2.514
5.814000,0.0814,0.1590,-2.5273,2.534
5.820000,-0.1439,0.2168,-2.6253,2.638
5.824000,-0.3578,0.2061,-2.6733,2.705
5.829000,-0.5365,0.1680,-2.5899,2.650
5.835000,-0.6249,0.1186,-2.4445,2.526
5.839000,-0.6738,0.1145,-2.3901,2.486
5.845000,-0.6239,0.1889,-2.3428,2.432
5.849000,-0.5213,0.2505,-2.1470,2.224
5.855000,-0.4377,0.3563,-2.1426,2.216
5.859000,-0.3898,0.4639,-2.2623,2.342
5.864000,-0.4446,0.6145,-2.3890,2.507
5.869000,-0.5349,0.6891,-2.3938,2.548
5.874000,-0.6219,0.6471,-2.2098,2.385
5.881000,-0.6386,0.6795,-2.2652,2.450
5.888000,-0.5835,0.7127,-2.1868,2.373
5.889000,-0.4955,0.7869,-1.9173,2.131
5.894000,-0.3439,0.8751,-1.5262,1.793
5.904000,-0.1977,0.9887,-1.0995,1.492
5.904000,-0.1555,1.0983,-0.7160,1.320
5.908000,-0.1141,1.1342,-0.4091,1.211
5.914000,-0.1543,1.0506,-0.1881,1.078
5.918000,-0.2181,0.9436,-0.3686,1.036
5.932000,-0.4130,0.8812,-0.4649,1.079
5.933000,-0.6140,0.7896,-0.5202,1.127
5.933000,-0.7992,0.8364,-0.7378,1.372
5.942000,-0.8171,0.9074,-0.7401,1.428
5.943000,-0.8090,1.0312,-0.8716,1.574
5.948000,-0.7806,1.2269,-0.9839,1.756
5.954000,-0.7252,1.4085,-0.8238,1.786
5.958000,-0.7243,1.6571,-0.7931,1.975
5.963000,-0.6565,1.8535,-0.5547,2.043
5.968000,-0.5981,1.9213,-0.1185,2.016
5.974000,-0.5774,2.0082,0.1233,2.093
5.978000,-0.6109,1.9663,0.4603,2.110
5.983000,-0.6281,1.8624,0.9331,2.176
5.990000,-0.6014,1.7447,1.1541,2.177
5.993000,-0.5980,1.6565,1.5470,2.344
5.998000,-0.5429,1.5283,1.9512,2.537
6.036000,-0.4744,1.4483,2.2713,2.735
6.038000,-0.4355,1.4018,2.3400,2.762
6.039000,-0.4003,1.4204,2.3057,2.738
6.039000,-0.3531,1.5114,2.2857,2.763
6.039000,-0.2874,1.5604,2.4088,2.884
6.040000,-0.1885,1.6225,2.5338,3.015
6.040000,-0.1270,1.7263,2.5602,3.090
6.040000,-0.0532,1.7312,3.0883,3.541
6.043000,0.0506,1.6536,3.7611,4.109
6.049000,0.1711,1.4974,4.3303,4.585
6.053000,0.1630,1.2641,4.7651,4.933
6.058000,0.0313,1.0630,5.1830,5.291
6.062000,-0.1284,0.9319,5.4790,5.559
6.069000,-0.2636,0.8844,5.5530,5.629
6.072000,-0.3171,0.9059,5.5679,5.650
6.087000,-0.3876,0.9174,5.5428,5.632
6.087000,-0.4721,0.9597,5.4825,5.586
6.088000,-0.5370,0.9877,5.2460,5.365
6.105000,-0.5201,0.9998,4.8811,5.010
6.106000,-0.4856,1.0447,4.5958,4.738
6.106000,-0.4141,1.0920,4.0790,4.243
6.107000,-0.3305,1.0901,3.6558,3.829
6.116000,-0.2489,1.1234,3.4432,3.630
6.122000,-0.0784,1.1225,3.3069,3.493
6.123000,0.1283,1.1524,3.1559,3.362
6.128000,0.3495,1.1292,3.0907,3.309
6.131000,0.5970,1.0336,3.1495,3.368
6.138000,0.8040,0.9635,3.2676,3.500
6.141000,0.9184,0.7865,3.3975,3.606
6.146000,0.9453,0.6264,3.5463,3.723
6.151000,0.8638,0.4609,3.7599,3.885
6.156000,0.7677,0.2390,4.0097,4.089
6.161000,0.5953,-0.0309,4.1070,4.150
6.167000,0.3350,-0.3330,4.1025,4.130
6.171000,0.0254,-0.6128,3.8245,3.873
6.176000,-0.2743,-0.8729,3.2638,3.390
6.181000,-0.5380,-1.0272,2.5641,2.814
6.186000,-0.7886,-1.1035,1.8066,2.259
6.191000,-1.0797,-1.1659,1.0869,1.925
6.196000,-1.2970,-1.1846,0.3950,1.800
6.201000,-1.4847,-1.1210,-0.2143,1.873
6.206000,-1.5934,-1.0511,-0.7103,2.037
6.211000,-1.6170,-0.9792,-1.0909,2.183
6.216000,-1.6519,-0.8984,-1.3635,2.323
6.224000,-1.6417,-0.7963,-1.6288,2.446
6.226000,-1.5246,-0.6758,-1.7649,2.428
6.230000,-1.3969,-0.5368,-1.8293,2.363
6.235000,-1.2349,-0.4314,-1.8199,2.241
6.259000,-1.0792,-0.3483,-1.7198,2.060
6.260000,-0.8641,-0.3561,-1.6129,1.864
6.260000,-0.6703,-0.4359,-1.5564,1.750
6.261000,-0.4037,-0.4843,-1.5957,1.716
6.262000,-0.1139,-0.4694,-1.6617,1.730
6.265000,0.1585,-0.5014,-1.6800,1.760
6.272000,0.4072,-0.4336,-1.5623,1.672
6.278000,0.6187,-0.3614,-1.4119,1.583
6.281000,0.8057,-0.3328,-1.2287,1.506
6.285000,0.9312,-0.3284,-0.9217,1.351
6.290000,0.9913,-0.3846,-0.6226,1.232
6.295000,0.9681,-0.5329,-0.4243,1.184
6.300000,0.8722,-0.6634,-0.1999,1.114
6.308000,0.7611,-0.8822,-0.0018,1.165
6.310000,0.6330,-1.0940,0.0936,1.267
6.315000,0.4138,-1.2948,0.1849,1.372
6.335000,0.2186,-1.4803,0.2314,1.514
6.335000,0.1188,-1.6845,-0.0295,1.689
6.336000,0.0036,-1.7881,-0.3823,1.829
6.336000,-0.0630,-1.8962,-0.8292,2.071
6.341000,-0.0869,-1.9704,-1.4348,2.439
6.346000,-0.1196,-1.9667,-1.9817,2.795
6.350000,-0.1738,-1.9275,-2.4869,3.151
6.355000,-0.1906,-1.8598,-2.8934,3.445
6.360000,-0.1708,-1.7487,-3.1176,3.579
6.365000,-0.2223,-1.6827,-3.2748,3.688
6.370000,-0.2639,-1.6401,-3.3123,3.706
6.376000,-0.2380,-1.6638,-3.2591,3.667
6.381000,-0.2163,-1.6752,-3.1821,3.603
6.386000,-0.1866,-1.7008,-3.1051,3.545
6.389000,-0.1248,-1.7476,-3.0498,3.517
6.395000,-0.0856,-1.7557,-2.8870,3.380
6.400000,-0.1041,-1.7801,-2.7268,3.258
6.406000,-0.1317,-1.7613,-2.5643,3.114
6.410000,-0.2016,-1.7760,-2.4713,3.050
6.414000,-0.2226,-1.7618,-2.4906,3.059
6.426000,-0.2144,-1.7407,-2.4762,3.034
6.427000,-0.1720,-1.7097,-2.4738,3.012
6.434000,-0.1124,-1.6499,-2.5048,3.001
6.436000,-0.0905,-1.5848,-2.4712,2.937
6.465000,-0.0772,-1.5763,-2.2802,2.773
6.467000,-0.0651,-1.5412,-2.1803,2.671
6.467000,-0.1112,-1.4957,-2.2028,2.665
6.468000,-0.1028,-1.4879,-2.2301,2.683
6.468000,-0.1358,-1.4432,-2.2650,2.689
6.469000,-0.1770,-1.4212,-2.3362,2.740
6.469000,-0.2721,-1.3838,-2.3886,2.774
6.474000,-0.3449,-1.3379,-2.4774,2.837
6.480000,-0.4369,-1.2905,-2.5189,2.864
6.484000,-0.4671,-1.2277,-2.5752,2.891
6.489000,-0.4720,-1.1658,-2.5916,2.881
6.494000,-0.4567,-1.1026,-2.5176,2.786
6.498000,-0.3569,-1.0309,-2.2819,2.529
6.505000,-0.2491,-0.9246,-1.9395,2.163
6.509000,-0.1668,-0.8225,-1.6121,1.817
6.515000,-0.0735,-0.6890,-1.3571,1.524
6.520000,-0.0381,-0.5842,-1.2794,1.407
6.525000,-0.0389,-0.5533,-1.2403,1.359
6.529000,-0.1214,-0.5145,-1.1609,1.276
6.533000,-0.1827,-0.4797,-1.2015,1.307
6.540000,-0.2153,-0.3984,-1.2068,1.289
6.544000,-0.2529,-0.3443,-1.2249,1.297
6.548000,-0.1615,-0.3097,-1.2296,1.278
6.579000,-0.0559,-0.2584,-1.2140,1.242
6.580000,0.1279,-0.0996,-1.1040,1.116
6.581000,0.2487,0.0117,-0.9621,0.994
6.581000,0.3069,0.0995,-0.7789,0.843
6.581000,0.3364,0.0706,-0.4110,0.536
6.581000,0.3856,-0.0272,-0.0114,0.387
6.584000,0.3665,-0.1699,0.4341,0.593
6.589000,0.3465,-0.3651,0.9137,1.043
6.594000,0.2258,-0.4555,1.4134,1.502
6.598000,0.1192,-0.5037,1.7970,1.870
6.603000,-0.0545,-0.6112,2.0317,2.122
6.610000,-0.2337,-0.6512,2.2277,2.333
6.614000,-0.3636,-0.6961,2.2443,2.378
6.625000,-0.5192,-0.7151,2.1319,2.308
6.626000,-0.6243,-0.7006,1.9671,2.180
6.629000,-0.7057,-0.7531,1.7142,2.001
6.633000,-0.6728,-0.7763,1.5283,1.841
6.647000,-0.5600,-0.7632,1.3568,1.654
6.648000,-0.3344,-0.7352,1.2595,1.496
6.649000,-0.0948,-0.6541,1.2697,1.431
6.653000,0.1083,-0.5155,1.1365,1.253
6.684000,0.3103,-0.3577,1.0225,1.127
6.685000,0.5125,-0.1713,0.9039,1.053
6.686000,0.7098,-0.0231,0.8142,1.080
6.689000,0.9044,0.0733,0.8081,1.215
6.690000,1.0513,0.0749,1.0002,1.453
6.690000,1.1656,0.0251,1.2945,1.742
6.690000,1.2673,-0.0906,1.6003,2.043
6.697000,1.3002,-0.2197,1.9152,2.325
6.698000,1.2693,-0.3502,2.3301,2.676
6.705000,1.2263,-0.4446,2.7950,3.084
6.709000,1.1359,-0.5704,3.1879,3.432
6.713000,0.9057,-0.7159,3.4805,3.667
6.717000,0.6182,-0.9081,3.6323,3.795
6.723000,0.3352,-1.1087,3.7513,3.926
6.728000,0.0814,-1.2870,3.7394,3.956
6.733000,-0.0565,-1.3474,3.6542,3.895
6.740000,-0.2076,-1.3877,3.6557,3.916
6.744000,-0.2775,-1.4459,3.6097,3.898
6.747000,-0.3777,-1.5024,3.3940,3.731
6.752000,-0.4506,-1.5164,3.1186,3.497
6.782000,-0.3955,-1.4585,2.8265,3.205
6.783000,-0.3802,-1.3422,2.4239,2.797
6.784000,-0.4408,-1.2655,2.0952,2.487
6.784000,-0.4970,-1.1661,1.7589,2.168
6.784000,-0.5168,-1.0727,1.4607,1.885
6.784000,-0.5594,-1.0165,1.2485,1.704
6.791000,-0.5595,-0.9027,1.1107,1.537
6.793000,-0.5329,-0.8491,0.9829,1.404
6.797000,-0.4237,-0.8157,0.8297,1.238
6.802000,-0.2757,-0.7882,0.7133,1.098
6.807000,-0.1088,-0.7887,0.6075,1.001
6.812000,0.1440,-0.7715,0.5004,0.931
6.816000,0.3419,-0.7704,0.4325,0.947
6.822000,0.5410,-0.7281,0.4829,1.028
6.827000,0.7542,-0.7088,0.5410,1.168
6.831000,0.9491,-0.6507,0.6167,1.306
6.838000,1.0840,-0.6590,0.6379,1.420
6.841000,1.1363,-0.6569,0.5831,1.436
6.847000,1.0761,-0.6538,0.3805,1.315
6.852000,1.0258,-0.6833,0.0997,1.237
6.857000,0.8877,-0.7592,-0.2667,1.198
6.862000,0.7478,-0.8119,-0.6517,1.282
6.866000,0.6516,-0.8195,-1.0721,1.499
6.878000,0.5554,-0.8389,-1.4946,1.802
6.887000,0.5213,-0.8098,-1.8500,2.086
6.887000,0.4202,-0.8612,-2.0572,2.269
6.888000,0.2951,-0.9929,-2.2144,2.445
6.934000,0.1269,-1.0088,-2.3431,2.554
6.937000,0.0609,-1.0336,-2.5031,2.709
6.937000,0.0104,-1.0341,-2.7013,2.892
6.938000,-0.0232,-1.0131,-2.9136,3.085
6.939000,0.0214,-0.9394,-3.0514,3.193
6.939000,0.0270,-0.8419,-3.0647,3.178
6.940000,0.1273,-0.7471,-3.0730,3.165
6.940000,0.1598,-0.6619,-2.9833,3.060
6.941000,0.2181,-0.6420,-2.8217,2.902
6.941000,0.2926,-0.6394,-2.7867,2.874
6.943000,0.3600,-0.6183,-2.7253,2.818
6.946000,0.4534,-0.5785,-2.7092,2.807
6.950000,0.5346,-0.5107,-2.7025,2.802
6.956000,0.6302,-0.3812,-2.7219,2.820
6.962000,0.7206,-0.2478,-2.6478,2.755
6.966000,0.7968,-0.0815,-2.5090,2.634
6.977000,0.7893,0.0149,-2.3966,2.523
6.979000,0.7822,0.0486,-2.3105,2.440
6.981000,0.6924,0.0222,-2.2292,2.334
6.985000,0.5998,-0.0137,-2.2772,2.355
7.020000,0.4996,-0.1140,-2.3396,2.395
7.021000,0.4161,-0.1824,-2.4238,2.466
7.021000,0.4273,-0.1613,-2.5537,2.594
7.022000,0.4677,-0.0436,-2.6024,2.644
7.022000,0.4771,0.1467,-2.5653,2.613
7.023000,0.4598,0.3733,-2.4447,2.515
7.023000,0.4963,0.5522,-2.2838,2.401
7.026000,0.6029,0.6856,-2.1062,2.296
7.030000,0.6429,0.7589,-1.9383,2.179
7.034000,0.7579,0.7988,-1.6941,2.021
7.040000,0.8385,0.7957,-1.4191,1.830
7.045000,0.8732,0.7283,-1.1852,1.642
7.049000,0.9026,0.6658,-1.0304,1.523
7.056000,0.9238,0.7181,-0.8998,1.476
7.060000,0.9199,0.8516,-0.7309,1.451
7.064000,0.9601,0.9920,-0.4952,1.467
7.077000,0.9772,1.1319,-0.2813,1.522
7.079000,1.0075,1.3119,0.0067,1.654
7.080000,0.9939,1.4315,0.3735,1.782
7.085000,1.0642,1.5598,0.7519,2.032
7.128000,1.0209,1.5466,1.0606,2.135
7.129000,0.8509,1.4042,1.3738,2.141
7.130000,0.7347,1.2401,1.5048,2.084
7.130000,0.6295,1.1649,1.5878,2.067
7.130000,0.5254,1.1186,1.6013,2.023
7.131000,0.3926,1.1536,1.5167,1.946
7.131000,0.2421,1.2103,1.4920,1.936
7.131000,0.0917,1.3241,1.3694,1.907
7.132000,-0.0385,1.4830,1.1538,1.879
7.135000,-0.1233,1.5722,1.0176,1.877
7.139000,-0.0945,1.6611,0.9150,1.899
7.144000,0.0185,1.7574,0.8771,1.964
7.150000,0.2583,1.8349,0.9681,2.091
7.155000,0.6108,1.9294,1.2670,2.388
7.159000,0.9210,2.0506,1.6848,2.809
7.164000,1.2112,2.2675,2.0662,3.298
7.171000,1.4464,2.4743,2.4376,3.762
7.176000,1.5914,2.5869,2.6654,4.041
7.180000,1.5825,2.6725,2.6540,4.085
7.185000,1.5206,2.6643,2.3533,3.866
7.197000,1.3983,2.6015,1.9813,3.556
7.199000,1.2347,2.5421,1.5519,3.224
7.200000,1.0440,2.5231,1.2372,2.998
7.242000,0.8625,2.5518,1.1804,2.941
7.244000,0.7880,2.5715,1.2853,2.981
7.244000,0.7394,2.5870,1.4607,3.062
7.245000,0.6686,2.5236,1.7380,3.136
7.245000,0.5273,2.4574,2.0861,3.266
7.246000,0.3831,2.4023,2.5577,3.530
7.246000,0.2871,2.3317,3.0189,3.825
7.246000,0.2419,2.1232,3.5246,4.122
7.247000,0.1529,1.8146,3.9844,4.381
7.250000,0.0354,1.4369,4.3958,4.625
7.254000,-0.1121,1.0877,4.6109,4.739
7.258000,-0.2389,0.7960,4.7109,4.784
7.265000,-0.3834,0.5426,4.9090,4.954
7.269000,-0.5284,0.3175,5.1117,5.149
7.273000,-0.6445,0.1178,5.2739,5.314
7.278000,-0.8386,-0.0594,5.3215,5.387
7.283000,-1.0579,-0.2191,5.2644,5.374
7.289000,-1.1634,-0.2590,5.1698,5.305
7.294000,-1.3331,-0.4433,4.9400,5.136
7.297000,-1.5722,-0.5379,4.6592,4.947
7.347000,-1.6744,-0.5269,4.2104,4.562
7.349000,-1.7962,-0.4898,3.5894,4.044
7.349000,-1.8602,-0.5199,2.9326,3.511
7.350000,-1.8776,-0.4138,2.2448,2.956
7.350000,-1.8331,-0.2858,1.5881,2.442
7.350000,-1.8115,-0.2052,0.9432,2.053
7.350000,-1.7757,-0.1022,0.2262,1.793
7.351000,-1.7268,0.0097,-0.4003,1.773
7.351000,-1.7733,0.1219,-0.8629,1.976
7.352000,-1.8435,0.2324,-1.2143,2.220
7.358000,-1.8992,0.2556,-1.3283,2.332
7.360000,-1.9736,0.2973,-1.3391,2.404
7.363000,-1.9968,0.2711,-1.2707,2.382
7.368000,-1.9223,0.2374,-1.2237,2.291
7.373000,-1.8308,0.1533,-1.1382,2.161
7.379000,-1.7260,-0.0142,-1.0193,2.005
7.383000,-1.5394,-0.1926,-0.8792,1.783
7.392000,-1.3349,-0.3461,-0.8708,1.631
7.393000,-1.1135,-0.4807,-0.9801,1.559
7.397000,-0.8820,-0.5365,-1.1376,1.536
7.403000,-0.6469,-0.5533,-1.2481,1.511
7.440000,-0.4100,-0.5900,-1.2809,1.469
7.440000,-0.1612,-0.5939,-1.2935,1.432
7.441000,0.0500,-0.6123,-1.2361,1.380
7.441000,0.2047,-0.7054,-1.0512,1.282
7.441000,0.3511,-0.8138,-0.7699,1.174
7.442000,0.4274,-0.9215,-0.4734,1.121
7.442000,0.4385,-1.0441,-0.1924,1.149
7.442000,0.4012,-1.2063,0.0856,1.274
7.448000,0.2887,-1.3712,0.2486,1.423
7.452000,0.2248,-1.5280,0.3259,1.578
7.457000,0.1803,-1.6249,0.2869,1.660
7.462000,0.0972,-1.7512,0.1583,1.761
7.467000,0.0083,-1.8667,-0.0740,1.868
7.474000,-0.1013,-1.9407,-0.4047,1.985
7.477000,-0.2086,-2.0017,-0.8052,2.168
7.483000,-0.2782,-1.9992,-1.2084,2.353
7.487000,-0.3102,-2.0481,-1.5500,2.587
7.492000,-0.2957,-2.0712,-1.9065,2.831
7.497000,-0.2973,-2.0438,-2.3023,3.093
7.502000,-0.2532,-2.0117,-2.7371,3.406
7.506000,-0.1849,-1.9857,-3.1587,3.736
7.511000,-0.1860,-1.9700,-3.5028,4.023
7.517000,-0.1922,-1.9111,-3.7221,4.188
7.547000,-0.2149,-1.8516,-3.9053,4.327
7.550000,-0.2680,-1.8178,-3.9976,4.400
7.550000,-0.3299,-1.8351,-4.0018,4.415
7.551000,-0.4077,-1.7962,-4.0136,4.416
7.551000,-0.5392,-1.8157,-3.9063,4.341
7.552000,-0.6670,-1.8718,-3.7805,4.271
7.553000,-0.8316,-1.9293,-3.6194,4.185
7.557000,-0.9491,-1.9952,-3.5569,4.187
7.561000,-0.9641,-2.0169,-3.4111,4.078
7.566000,-0.9273,-2.0687,-3.2755,3.983
7.571000,-0.9313,-2.1095,-3.1428,3.898
7.576000,-0.8684,-2.0729,-2.9175,3.683
7.582000,-0.7814,-1.9877,-2.7142,3.454
7.585000,-0.6676,-1.9283,-2.4971,3.225
7.591000,-0.5579,-1.8208,-2.3210,3.002
7.596000,-0.4953,-1.6987,-2.1571,2.790
7.601000,-0.5037,-1.6048,-2.0368,2.642
7.605000,-0.4780,-1.5682,-1.9716,2.564
7.616000,-0.4587,-1.5717,-1.9570,2.552
7.617000,-0.4152,-1.5434,-1.9666,2.534
7.649000,-0.3934,-1.5189,-2.0006,2.542
7.654000,-0.3361,-1.4694,-1.9776,2.487
7.656000,-0.2772,-1.3376,-1.8977,2.338
7.657000,-0.2291,-1.1881,-1.7396,2.119
7.658000,-0.1605,-1.0591,-1.4507,1.803
7.658000,-0.0970,-0.9053,-1.0238,1.370
7.659000,-0.0499,-0.7484,-0.6315,0.981
7.659000,-0.0138,-0.6792,-0.3047,0.745
7.662000,-0.0094,-0.6620,-0.0935,0.669
7.665000,-0.0531,-0.6055,-0.0911,0.615
7.671000,-0.1259,-0.5172,-0.2302,0.580
7.675000,-0.1043,-0.4011,-0.5398,0.681
7.681000,-0.0849,-0.2232,-0.6971,0.737
7.688000,-0.0538,-0.0930,-0.6260,0.635
7.691000,0.0801,0.0162,-0.2983,0.309
7.695000,0.2887,0.0300,0.2690,0.396
7.700000,0.5395,-0.0636,0.8415,1.002
7.705000,0.6447,-0.1598,1.1849,1.358
7.710000,0.6935,-0.1724,1.3067,1.489
7.715000,0.6460,-0.2065,1.4032,1.559
7.722000,0.5139,-0.1212,1.4076,1.503
7.725000,0.3064,-0.0006,1.3392,1.374
7.730000,0.0895,0.1003,1.2341,1.241
7.735000,-0.0873,0.1819,1.0946,1.113
7.750000,-0.1916,0.1958,1.0741,1.108
7.751000,-0.1979,0.2232,1.0290,1.071
7.751000,-0.1265,0.2230,1.0793,1.109
7.760000,-0.0044,0.2718,1.2320,1.262
7.761000,0.1181,0.2685,1.4776,1.506
7.764000,0.2236,0.1764,1.7040,1.728
7.769000,0.3456,0.0962,1.9304,1.963
7.774000,0.5129,0.0464,1.9968,2.062
7.779000,0.6394,0.0729,1.8768,1.984
7.784000,0.6578,0.0491,1.7069,1.830
7.789000,0.6468,0.1284,1.5036,1.642
7.794000,0.7472,0.2062,1.3936,1.595
7.802000,0.9203,0.2994,1.3095,1.628
7.804000,1.0962,0.3367,1.2896,1.726
7.809000,1.3134,0.2965,1.4628,1.988
7.814000,1.5538,0.2151,1.7237,2.331
7.818000,1.8356,0.1479,2.1748,2.850
7.824000,2.1394,0.0561,2.6942,3.441
7.828000,2.3740,-0.1395,3.2701,4.043
7.833000,2.5005,-0.2427,3.7444,4.509
7.841000,2.5737,-0.4603,4.1799,4.930
7.843000,2.5230,-0.6536,4.4237,5.134
7.848000,2.3278,-0.8691,4.5194,5.157
7.878000,2.0928,-1.0310,4.3695,4.953
7.879000,1.7812,-1.1274,4.0174,4.537
7.879000,1.4367,-1.1496,3.4972,3.952
7.880000,1.0291,-1.0566,2.9212,3.272
7.880000,0.6212,-0.9659,2.3686,2.632
7.880000,0.2997,-0.9349,1.8847,2.125
7.883000,0.0991,-0.9443,1.4598,1.741
7.890000,0.0224,-0.9132,1.0341,1.380
7.894000,-0.0104,-0.8435,0.5261,0.994
7.899000,-0.0418,-0.7711,0.1916,0.796
7.906000,-0.0731,-0.6938,-0.1250,0.709
7.908000,-0.0710,-0.5850,-0.3139,0.668
7.913000,-0.0363,-0.5263,-0.4160,0.672
7.918000,0.0575,-0.4502,-0.5462,0.710
7.923000,0.2297,-0.3970,-0.6114,0.764
7.928000,0.4404,-0.3640,-0.5950,0.825
7.933000,0.6543,-0.3147,-0.5331,0.901
7.942000,0.8919,-0.2417,-0.3756,0.997
7.943000,1.1167,-0.1758,-0.1536,1.141
7.948000,1.3645,-0.1478,0.0058,1.372
7.980000,1.5200,-0.1047,0.1410,1.530
7.982000,1.5798,-0.1130,0.2328,1.601
7.982000,1.6171,-0.1628,0.2570,1.645
7.982000,1.5860,-0.2348,0.2592,1.624
7.982000,1.5327,-0.3407,0.1987,1.583
7.983000,1.4411,-0.3658,0.1065,1.491
7.983000,1.2729,-0.3889,-0.0843,1.334
7.990000,1.0685,-0.4368,-0.3877,1.218
7.992000,0.8485,-0.4642,-0.6935,1.190
7.997000,0.6071,-0.5069,-0.9611,1.245
8.003000,0.3837,-0.5681,-1.1377,1.328
8.007000,0.2083,-0.6288,-1.3594,1.512
8.013000,0.0365,-0.6661,-1.5471,1.685
8.017000,-0.1640,-0.7453,-1.6576,1.825
8.022000,-0.3124,-0.8186,-1.7530,1.960
8.028000,-0.4362,-0.8629,-1.7758,2.022
8.032000,-0.5044,-0.8499,-1.8360,2.085
8.045000,-0.5512,-0.8520,-1.8999,2.154
8.046000,-0.6030,-0.8452,-1.9436,2.204
8.048000,-0.6672,-0.7654,-2.0173,2.258
8.052000,-0.7342,-0.7157,-2.2118,2.438
8.089000,-0.7471,-0.6237,-2.4075,2.597
8.090000,-0.7441,-0.5299,-2.6094,2.765
8.090000,-0.7488,-0.4721,-2.6835,2.826
8.091000,-0.7126,-0.4183,-2.6759,2.801
8.091000,-0.6375,-0.3824,-2.5674,2.673
8.092000,-0.6328,-0.3187,-2.4206,2.522
8.092000,-0.5662,-0.2298,-2.3048,2.384
8.092000,-0.5061,-0.1631,-2.2749,2.336
8.098000,-0.4811,-0.0780,-2.3430,2.393
8.101000,-0.4410,-0.0077,-2.4203,2.460
8.107000,-0.4126,0.1176,-2.5645,2.600
8.112000,-0.3316,0.2406,-2.6728,2.704
8.116000,-0.2603,0.3642,-2.6664,2.704
8.121000,-0.1913,0.4862,-2.5048,2.559
8.128000,0.0052,0.6474,-2.3341,2.422
8.138000,0.1739,0.8550,-2.1330,2.305
8.139000,0.3153,0.9511,-1.8416,2.097
8.142000,0.4129,1.0793,-1.5915,1.967
8.147000,0.4479,1.1863,-1.3635,1.862
8.151000,0.3796,1.2220,-1.2171,1.766
8.157000,0.2937,1.2173,-1.2074,1.739
8.162000,0.1896,1.2368,-1.3029,1.806
8.166000,0.1737,1.2303,-1.3865,1.862
8.208000,0.1708,1.2674,-1.3673,1.872
8.209000,0.1689,1.3124,-1.2743,1.837
8.209000,0.1532,1.3412,-1.0430,1.706
8.209000,0.0830,1.3367,-0.7546,1.537
8.210000,0.0233,1.3323,-0.3877,1.388
8.210000,0.0030,1.3540,0.0218,1.354
8.211000,0.0395,1.3824,0.4478,1.454
8.211000,0.0814,1.3956,0.9212,1.674
8.211000,0.1220,1.3698,1.2628,1.867
8.216000,0.1910,1.3645,1.5135,2.047
8.221000,0.2697,1.4061,1.6446,2.180
8.227000,0.2553,1.4993,1.5535,2.174
8.232000,0.1693,1.6302,1.4723,2.203
8.244000,0.0589,1.7893,1.2502,2.184
8.246000,-0.0690,1.8455,0.9997,2.100
8.248000,-0.1848,1.8304,0.7638,1.992
8.255000,-0.3154,1.7897,0.7024,1.948
8.257000,-0.4374,1.7310,0.7579,1.940
8.288000,-0.5201,1.6806,1.0139,2.031
8.290000,-0.6017,1.5710,1.3483,2.156
8.291000,-0.5578,1.4832,1.8185,2.412
8.291000,-0.5579,1.3997,2.2141,2.678
8.292000,-0.5544,1.3513,2.5044,2.899
8.292000,-0.6215,1.3256,2.7707,3.134
8.293000,-0.6324,1.3102,3.0492,3.379
8.297000,-0.5728,1.2764,3.3328,3.615
8.301000,-0.5788,1.2789,3.5329,3.802
8.306000,-0.6476,1.2914,3.5541,3.837
8.310000,-0.7072,1.3787,3.4874,3.816
8.316000,-0.7553,1.4646,3.4093,3.787
8.321000,-0.7032,1.5470,3.2361,3.655
8.326000,-0.6158,1.7007,3.0871,3.578
8.330000,-0.4664,1.8143,2.9763,3.517
8.335000,-0.2715,1.9500,2.9802,3.572
8.340000,-0.1215,2.0774,3.0793,3.716
8.346000,-0.0188,2.1772,3.1228,3.807
8.350000,0.1561,2.2164,3.2256,3.917
8.357000,0.3313,2.2566,3.3254,4.032
8.360000,0.4494,2.2357,3.3984,4.093
8.365000,0.5583,2.0938,3.4399,4.066
8.413000,0.6391,1.9554,3.5457,4.099
8.416000,0.6299,1.7700,3.6726,4.125
8.416000,0.6220,1.5734,3.7489,4.113
8.417000,0.6061,1.3293,3.9088,4.173
8.417000,0.5087,1.0278,3.9707,4.133
8.417000,0.3179,0.7928,4.0448,4.134
8.418000,0.0365,0.5086,4.1075,4.139
8.418000,-0.2253,0.2300,3.9605,3.974
8.421000,-0.5899,-0.0627,3.7166,3.764
8.421000,-0.9663,-0.2384,3.3546,3.499
8.423000,-1.3029,-0.3809,2.8843,3.188
8.425000,-1.5959,-0.5282,2.2984,2.848
8.430000,-1.8775,-0.5844,1.6544,2.570
8.435000,-2.0963,-0.5925,1.0121,2.402
8.441000,-2.2727,-0.5637,0.3951,2.375
8.445000,-2.3288,-0.4978,-0.1514,2.386
8.450000,-2.3372,-0.3795,-0.5658,2.435
8.455000,-2.2817,-0.3333,-0.7597,2.428
8.460000,-2.2197,-0.2747,-0.8746,2.402
8.464000,-2.1056,-0.2035,-0.8464,2.278
8.469000,-1.9752,-0.1846,-0.6581,2.090
8.475000,-1.8088,-0.2130,-0.4847,1.885
8.479000,-1.6034,-0.2532,-0.3426,1.659
8.484000,-1.3585,-0.2477,-0.2437,1.402
8.513000,-1.0488,-0.3010,-0.2218,1.113
8.514000,-0.7028,-0.3511,-0.1977,0.810
8.514000,-0.3457,-0.3754,-0.1550,0.533
8.514000,-0.0526,-0.4523,-0.0941,0.465
8.514000,0.2153,-0.5316,0.0783,0.579
8.515000,0.4042,-0.5796,0.3644,0.795
8.519000,0.5486,-0.7092,0.6613,1.114
8.524000,0.6161,-0.8899,0.9071,1.412
8.529000,0.6454,-1.1176,1.0711,1.677
8.533000,0.6104,-1.2950,1.1537,1.839
8.539000,0.5279,-1.5184,1.0858,1.940
8.544000,0.3519,-1.7287,0.8992,1.980
8.548000,0.1899,-1.9309,0.5103,2.006
8.555000,0.0432,-2.0610,0.0129,2.061
8.558000,-0.0819,-2.1642,-0.4853,2.219
8.563000,-0.1556,-2.2189,-0.9366,2.414
8.569000,-0.1815,-2.2304,-1.2643,2.570
8.574000,-0.1891,-2.2204,-1.5211,2.698
8.579000,-0.1504,-2.2416,-1.8384,2.903
8.584000,-0.0855,-2.2132,-2.1635,3.096
8.592000,-0.1004,-2.1518,-2.3958,3.222
8.594000,-0.0611,-2.1189,-2.6697,3.409
8.598000,-0.0250,-2.0905,-2.8417,3.528
8.637000,-0.0515,-2.0850,-3.0461,3.692
8.638000,-0.1070,-2.0594,-3.1847,3.794
8.639000,-0.1839,-2.0655,-3.2748,3.876
8.640000,-0.2529,-2.0356,-3.3025,3.888
8.640000,-0.3732,-2.0487,-3.3083,3.909
8.640000,-0.4296,-2.0800,-3.2331,3.868
8.641000,-0.5864,-2.1130,-3.0670,3.770
8.641000,-0.7999,-2.1690,-2.8919,3.702
8.643000,-0.9212,-2.1504,-2.7815,3.634
8.647000,-1.0187,-2.1929,-2.7745,3.680
8.654000,-1.1608,-2.2481,-2.8111,3.782
8.658000,-1.2933,-2.3185,-2.8316,3.882
8.664000,-1.3493,-2.3198,-2.7694,3.856
8.668000,-1.3553,-2.2927,-2.6581,3.763
8.673000,-1.4480,-2.2996,-2.5766,3.745
8.678000,-1.5248,-2.2287,-2.5197,3.693
8.684000,-1.5530,-2.1850,-2.5617,3.708
8.691000,-1.5185,-2.1473,-2.6066,3.703
8.693000,-1.5319,-2.1056,-2.6427,3.710
8.697000,-1.5357,-2.0503,-2.6678,3.699
8.702000,-1.4845,-1.9715,-2.6629,3.631
8.738000,-1.4145,-1.8882,-2.6137,3.521
8.739000,-1.3332,-1.7793,-2.5465,3.381
8.740000,-1.2530,-1.6853,-2.4733,3.245
8.740000,-1.0878,-1.6043,-2.3962,3.082
8.740000,-0.9314,-1.4190,-2.2484,2.817
8.741000,-0.8174,-1.2635,-2.0514,2.544
8.741000,-0.6929,-1.1930,-1.7597,2.236
8.743000,-0.6192,-1.1332,-1.4380,1.933
8.747000,-0.6006,-1.1011,-1.0935,1.664
8.753000,-0.6007,-1.1090,-0.8287,1.509
8.757000,-0.5642,-1.0617,-0.6936,1.388
8.762000,-0.5512,-0.9976,-0.6232,1.299
8.767000,-0.5047,-0.8214,-0.5288,1.100
8.773000,-0.4466,-0.5761,-0.3700,0.817
8.776000,-0.3934,-0.4054,-0.1802,0.593
8.782000,-0.3424,-0.2327,0.0357,0.416
8.786000,-0.2982,-0.1991,0.1774,0.400
8.812000,-0.3062,-0.1849,0.1852,0.403
8.812000,-0.3501,-0.2404,0.0424,0.427
8.812000,-0.3445,-0.2189,-0.2868,0.499
8.812000,-0.2280,-0.1680,-0.6018,0.665
8.813000,-0.0400,-0.0247,-0.7593,0.761
8.816000,0.1261,0.1779,-0.6381,0.674
8.822000,0.3785,0.3539,-0.3152,0.607
8.826000,0.6371,0.4891,0.1804,0.823
8.831000,0.8456,0.4639,0.7457,1.219
8.837000,0.9574,0.4863,1.2971,1.684
8.842000,1.0550,0.4817,1.7463,2.096
8.846000,1.0407,0.4711,2.0364,2.335
8.853000,1.0487,0.4948,2.1939,2.482
8.858000,1.0141,0.5117,2.2148,2.489
8.862000,0.9269,0.5577,2.1515,2.408
8.868000,0.9115,0.6161,2.0498,2.326
8.871000,0.9148,0.6198,1.8451,2.151
8.877000,0.9628,0.6481,1.6306,2.002
8.881000,1.0287,0.5702,1.4898,1.898
8.887000,1.1369,0.4988,1.4821,1.933
8.891000,1.2179,0.4483,1.6098,2.068
8.900000,1.2262,0.3754,1.8585,2.258
8.902000,1.1815,0.4018,2.0058,2.362
8.912000,1.1355,0.5007,1.9780,2.335
8.913000,1.1399,0.5735,1.8067,2.212
8.916000,1.1941,0.6708,1.6210,2.122
8.964000,1.2325,0.7231,1.3972,1.999
8.966000,1.2930,0.6997,1.2426,1.925
8.967000,1.3730,0.6008,1.1571,1.893
8.967000,1.4627,0.4936,1.1933,1.951
8.967000,1.5960,0.3999,1.3220,2.111
8.968000,1.7540,0.2548,1.5626,2.363
8.968000,1.8467,0.0799,1.8000,2.580
8.971000,1.8221,-0.0630,2.0871,2.771
8.973000,1.7889,-0.2392,2.3812,2.988
8.974000,1.7072,-0.4294,2.6463,3.178
8.974000,1.5558,-0.6058,2.9020,3.348
8.976000,1.4549,-0.7401,3.1510,3.549
8.981000,1.2924,-0.8569,3.1951,3.551
8.987000,1.0297,-0.9971,3.0298,3.352
8.991000,0.7640,-1.0488,2.6844,2.982
8.995000,0.4848,-1.0767,2.2666,2.556
9.000000,0.2249,-1.0495,1.9511,2.227
9.012000,0.1344,-1.0223,1.6635,1.957
9.014000,0.0714,-0.9780,1.3988,1.708
9.016000,0.0402,-1.0002,1.0851,1.476
9.020000,0.0093,-0.9502,0.7800,1.229
9.077000,0.0594,-0.8375,0.3542,0.911
9.078000,0.1654,-0.6903,-0.1064,0.718
9.078000,0.3487,-0.4793,-0.5398,0.802
9.078000,0.5135,-0.2516,-0.8773,1.047
9.079000,0.6815,-0.0855,-0.9780,1.195
9.079000,0.8680,0.0507,-1.0458,1.360
9.079000,1.0403,0.0737,-1.0379,1.471
9.080000,1.2067,0.0411,-0.9256,1.521
9.080000,1.3396,-0.0201,-0.8288,1.575
9.080000,1.4399,-0.1198,-0.7499,1.628
9.080000,1.4894,-0.1767,-0.6049,1.617
9.081000,1.4934,-0.2438,-0.4561,1.580
9.086000,1.3998,-0.3406,-0.3318,1.478
9.090000,1.2927,-0.3793,-0.2677,1.374
9.096000,1.1751,-0.4582,-0.2587,1.288
9.100000,1.0323,-0.5612,-0.3499,1.226
9.108000,0.8377,-0.6910,-0.5363,1.211
9.110000,0.7199,-0.7856,-0.7865,1.324
9.114000,0.6083,-0.7977,-1.0669,1.464
9.120000,0.5241,-0.8422,-1.3342,1.663
9.158000,0.4520,-0.8833,-1.5838,1.869
9.159000,0.3677,-0.9307,-1.8013,2.061
9.159000,0.3302,-0.9439,-2.0440,2.275
9.159000,0.2702,-0.9277,-2.2283,2.429
9.159000,0.2925,-0.8895,-2.4139,2.589
9.160000,0.3055,-0.8103,-2.5769,2.719
9.160000,0.3881,-0.7235,-2.7222,2.843
9.160000,0.3796,-0.6460,-2.7590,2.859
9.165000,0.3476,-0.5632,-2.8213,2.898
9.170000,0.3328,-0.5083,-2.8542,2.918
9.176000,0.2498,-0.5072,-2.8436,2.899
9.179000,0.1398,-0.5310,-2.8279,2.881
9.183000,0.0250,-0.5506,-2.8550,2.908
9.190000,-0.0392,-0.5658,-2.9033,2.958
9.193000,-0.1152,-0.5382,-3.0137,3.064
9.199000,-0.2107,-0.4437,-2.9781,3.018
9.204000,-0.2732,-0.3110,-2.9234,2.953
9.209000,-0.3098,-0.2097,-2.9071,2.931
9.213000,-0.3111,-0.0844,-2.8525,2.871
9.218000,-0.3127,-0.0066,-2.7576,2.775
9.224000,-0.2904,-0.0025,-2.6941,2.710
9.229000,-0.2752,-0.0216,-2.5689,2.584
9.234000,-0.2645,0.0198,-2.4728,2.487
9.245000,-0.2584,0.1072,-2.3986,2.415
9.246000,-0.2886,0.1807,-2.3151,2.340
9.249000,-0.3033,0.2688,-2.2845,2.320
9.296000,-0.3433,0.3834,-2.1633,2.224
9.297000,-0.3401,0.4336,-1.9587,2.035
9.297000,-0.2819,0.4911,-1.7450,1.835
9.298000,-0.2597,0.5387,-1.4812,1.597
9.298000,-0.1063,0.5839,-1.2441,1.378
9.299000,0.0714,0.6096,-1.0239,1.194
9.299000,0.3117,0.6257,-0.7370,1.016
9.299000,0.5747,0.6872,-0.4147,0.987
9.299000,0.7395,0.7247,-0.1165,1.042
9.299000,0.8546,0.7716,0.1933,1.168
9.306000,0.8992,0.8161,0.5124,1.318
9.308000,0.8694,0.8292,0.8144,1.451
9.314000,0.7945,0.8158,1.0874,1.575
9.318000,0.7566,0.8236,1.2575,1.683
9.324000,0.6911,0.8286,1.3487,1.727
9.328000,0.6048,0.8236,1.2773,1.636
9.332000,0.4569,0.8779,1.1632,1.527
9.339000,0.3066,0.9343,1.0278,1.422
9.343000,0.1873,1.0075,0.8973,1.362
9.347000,0.0455,1.0762,0.8146,1.351
9.352000,-0.1242,1.0951,0.7893,1.356
9.392000,-0.1974,1.0904,0.8331,1.386
9.393000,-0.2850,1.1242,0.8482,1.437
9.393000,-0.3329,1.1627,0.8106,1.456
9.393000,-0.4258,1.1941,0.8472,1.525
9.394000,-0.5808,1.2948,0.8908,1.676
9.394000,-0.6978,1.3045,1.0970,1.842
9.394000,-0.7335,1.2306,1.4320,2.026
9.395000,-0.7710,1.1494,1.8479,2.309
9.398000,-0.7309,1.0730,2.2490,2.597
9.402000,-0.6774,1.0560,2.5685,2.859
9.408000,-0.5669,1.1292,2.8903,3.154
9.412000,-0.4927,1.2466,3.1332,3.408
9.417000,-0.3947,1.3556,3.2568,3.550
9.428000,-0.2728,1.5205,3.3306,3.671
9.431000,-0.2417,1.7080,3.3186,3.740
9.434000,-0.1524,1.7917,3.3022,3.760
9.472000,-0.0022,1.8555,3.3149,3.799
9.474000,0.2212,1.9526,3.2701,3.815
9.475000,0.3555,2.0306,3.2541,3.852
9.475000,0.4102,2.1280,3.2498,3.906
9.476000,0.4619,2.1921,3.2216,3.924
9.476000,0.4817,2.3090,3.1263,3.916
9.477000,0.4573,2.3974,3.0095,3.875
9.477000,0.4673,2.4071,2.8998,3.798
9.479000,0.4873,2.4461,2.8355,3.776
9.481000,0.4909,2.4141,2.7614,3.701
9.488000,0.5043,2.2895,2.5867,3.491
9.492000,0.5758,2.1662,2.5002,3.358
9.496000,0.5953,1.9390,2.6380,3.328
9.502000,0.5372,1.6629,2.8399,3.334
9.508000,0.4667,1.3351,3.1417,3.445
9.511000,0.3509,1.0578,3.3547,3.535
9.516000,0.1708,0.7561,3.5009,3.586
9.523000,-0.0376,0.4271,3.5568,3.583
9.527000,-0.2883,0.1706,3.4939,3.510
9.531000,-0.5964,-0.0477,3.2579,3.312
9.536000,-0.9406,-0.2259,2.9830,3.136
9.545000,-1.2094,-0.4238,2.6142,2.911
9.547000,-1.3995,-0.5820,2.1711,2.648
9.551000,-1.6314,-0.6861,1.6894,2.447
9.601000,-1.7627,-0.7502,1.2002,2.261
9.602000,-1.8442,-0.7530,0.7274,2.121
9.603000,-1.8795,-0.5765,0.2683,1.984
9.603000,-1.8498,-0.3765,-0.1509,1.894
9.604000,-1.8683,-0.2191,-0.5402,1.957
9.604000,-1.9234,-0.0825,-0.8662,2.111
9.604000,-1.9148,0.0290,-1.2010,2.261
9.605000,-1.9073,0.1735,-1.4349,2.393
9.605000,-1.8432,0.2226,-1.6352,2.474
9.606000,-1.7916,0.2796,-1.7854,2.545
9.608000,-1.7232,0.3259,-1.7328,2.465
9.610000,-1.5459,0.4027,-1.6164,2.273
9.615000,-1.3025,0.3592,-1.5081,2.025
9.622000,-1.0091,0.2870,-1.3721,1.727
9.626000,-0.6056,0.2315,-1.2804,1.435
9.632000,-0.1128,0.2409,-1.1730,1.203
9.636000,0.3071,0.2606,-1.0601,1.134
9.641000,0.6784,0.2668,-0.8123,1.091
9.646000,1.0007,0.2764,-0.4564,1.134
9.651000,1.2674,0.2106,0.0481,1.286
9.658000,1.4157,0.0476,0.5912,1.535
9.662000,1.5428,-0.1461,1.1156,1.909
9.666000,1.5512,-0.3883,1.6361,2.288
9.670000,1.5256,-0.6653,2.1007,2.680
9.718000,1.2986,-0.9760,2.3926,2.892
9.720000,1.0497,-1.3142,2.5678,3.070
9.721000,0.6994,-1.6378,2.4497,3.029
9.722000,0.3139,-1.8995,2.1325,2.873
9.722000,-0.0434,-2.1570,1.5662,2.666
9.723000,-0.3548,-2.3071,0.8396,2.481
9.723000,-0.5544,-2.3973,0.1486,2.465
9.723000,-0.7109,-2.4056,-0.4520,2.549
9.724000,-0.8298,-2.3725,-1.0294,2.716
9.724000,-0.8520,-2.3550,-1.4714,2.905
9.726000,-0.8065,-2.3596,-1.8575,3.109
9.729000,-0.8274,-2.2980,-2.2235,3.303
9.734000,-0.8099,-2.3084,-2.4788,3.483
9.740000,-0.7682,-2.2880,-2.6403,3.577
9.745000,-0.7313,-2.2488,-2.7464,3.624
9.751000,-0.6203,-2.1880,-2.7926,3.601
9.758000,-0.5305,-2.1419,-2.8026,3.567
9.760000,-0.5118,-2.1030,-2.7838,3.526
9.764000,-0.5282,-2.0906,-2.6884,3.446
9.769000,-0.5171,-2.1167,-2.5881,3.383
9.803000,-0.5405,-2.1550,-2.4901,3.337
9.805000,-0.5528,-2.1171,-2.5067,3.327
9.805000,-0.5632,-2.1152,-2.5710,3.377
9.806000,-0.6074,-2.0986,-2.5348,3.346
9.806000,-0.6873,-2.0410,-2.5610,3.346
9.806000,-0.7357,-2.0352,-2.5924,3.377
9.806000,-0.8030,-1.9879,-2.5333,3.319
9.810000,-0.8246,-1.9276,-2.4652,3.236
9.814000,-0.8024,-1.8829,-2.3381,3.107
9.819000,-0.7870,-1.8303,-2.0896,2.887
9.825000,-0.7276,-1.7672,-1.9663,2.742
9.829000,-0.6575,-1.7085,-1.8721,2.618
9.835000,-0.5940,-1.5946,-1.8115,2.485
9.841000,-0.5418,-1.5161,-1.8542,2.456
9.844000,-0.5373,-1.4256,-1.9447,2.470
9.849000,-0.5302,-1.3156,-2.0450,2.489
9.855000,-0.5662,-1.2505,-2.1334,2.537
9.859000,-0.5879,-1.1655,-2.1530,2.518
9.864000,-0.5859,-1.0916,-2.1372,2.470
9.868000,-0.5534,-1.0192,-2.0167,2.326
9.874000,-0.5165,-0.9363,-1.7846,2.080
9.879000,-0.5485,-0.8646,-1.5247,1.837
9.883000,-0.5771,-0.8543,-1.1747,1.563
9.892000,-0.6257,-0.8459,-0.9235,1.400
9.894000,-0.6818,-0.8277,-0.7947,1.335
9.898000,-0.7409,-0.7924,-0.8289,1.365
9.903000,-0.8439,-0.7446,-1.0141,1.515
9.946000,-0.9721,-0.6315,-1.2019,1.670
9.949000,-1.0544,-0.5460,-1.3065,1.766
9.950000,-1.1797,-0.4593,-1.3664,1.863
9.951000,-1.2837,-0.3833,-1.3506,1.902
9.951000,-1.3596,-0.3129,-1.3453,1.938
9.952000,-1.3312,-0.2795,-1.2573,1.852
9.953000,-1.2417,-0.2467,-1.1370,1.702
9.953000,-1.0668,-0.2432,-0.9654,1.459
9.954000,-0.8298,-0.2857,-0.8430,1.217
9.954000,-0.6072,-0.2829,-0.6982,0.968
9.959000,-0.3897,-0.1797,-0.5789,0.721
9.964000,-0.2318,-0.1151,-0.4277,0.500
9.968000,-0.1410,-0.0533,-0.2086,0.257
9.982000,-0.1407,0.0368,0.0041,0.146
9.983000,-0.1811,0.0353,0.2228,0.289
9.983000,-0.2379,0.0068,0.4116,0.475
10.034000,-0.2567,0.0226,0.6353,0.686
10.035000,-0.2303,-0.0277,0.7984,0.831
10.035000,-0.2497,-0.0841,0.9130,0.950
10.035000,-0.2552,-0.1087,0.9889,1.027
10.035000,-0.2300,-0.1634,1.1001,1.136
10.036000,-0.1456,-0.1650,1.0914,1.113
10.036000,-0.0668,-0.1591,1.0324,1.047
10.036000,0.0633,-0.1283,0.9467,0.957
10.036000,0.2662,-0.0848,0.8751,0.919
10.037000,0.4703,-0.0733,0.9152,1.032
10.037000,0.6422,-0.0218,0.9114,1.115
10.043000,0.8560,0.0526,1.0120,1.327
10.047000,0.9946,0.1097,1.1379,1.515
10.053000,1.1780,0.1325,1.3012,1.760
10.057000,1.2723,0.1207,1.4566,1.938
10.068000,1.3785,0.1319,1.6662,2.167
10.068000,1.4752,0.1040,1.8964,2.405
10.074000,1.6226,0.0607,2.1091,2.662
10.077000,1.7326,-0.0339,2.3213,2.897
10.083000,1.8629,-0.1563,2.4899,3.114
10.098000,1.9253,-0.3009,2.6650,3.301
10.100000,1.9777,-0.4065,2.8806,3.518
10.100000,1.8817,-0.6044,3.1603,3.727
10.102000,1.7477,-0.7664,3.4664,3.957
10.151000,1.5786,-0.8925,3.7894,4.201
10.151000,1.3647,-1.0103,4.0722,4.412
10.152000,1.0393,-1.1878,4.2247,4.510
10.153000,0.7169,-1.2794,4.2064,4.455
10.153000,0.3560,-1.3482,4.0227,4.257
10.153000,0.0296,-1.3614,3.6309,3.878
10.154000,-0.2464,-1.3188,3.1747,3.447
10.154000,-0.4446,-1.2416,2.6013,2.916
10.154000,-0.5805,-1.1749,2.0611,2.442
10.154000,-0.5519,-1.1016,1.6640,2.070
10.160000,-0.4457,-1.0119,1.2254,1.651
10.161000,-0.2649,-0.8598,0.8792,1.258
10.168000,-0.0030,-0.6691,0.5914,0.893
10.171000,0.2703,-0.4638,0.3693,0.652
10.177000,0.4642,-0.2887,0.2316,0.594
10.181000,0.7033,-0.1798,0.2883,0.781
10.192000,0.9457,-0.1129,0.3597,1.018
10.192000,1.1659,-0.0949,0.4435,1.251
10.196000,1.3987,-0.1161,0.5586,1.511
10.201000,1.5443,-0.1072,0.5832,1.654
10.234000,1.7046,-0.0608,0.4839,1.773
10.235000,1.7916,-0.0006,0.3299,1.822
10.235000,1.8465,0.0524,0.1857,1.857
10.235000,1.8869,0.1006,-0.0228,1.890
10.236000,1.8508,0.1084,-0.2981,1.878
10.236000,1.7866,0.0762,-0.5686,1.876
10.236000,1.6802,0.0642,-0.8821,1.899
10.241000,1.5459,-0.0252,-1.1314,1.916
10.246000,1.4318,-0.1176,-1.3596,1.978
10.250000,1.2922,-0.2320,-1.4974,1.991
10.258000,1.1463,-0.2990,-1.6190,2.006
10.260000,0.9407,-0.3957,-1.6359,1.928
10.265000,0.7372,-0.4577,-1.6316,1.848
10.272000,0.5545,-0.5455,-1.6490,1.823
10.275000,0.3582,-0.5951,-1.6425,1.783
10.281000,0.2053,-0.6641,-1.6453,1.786
10.287000,0.1098,-0.7245,-1.6093,1.768
10.290000,0.0306,-0.7288,-1.6589,1.812
10.295000,-0.0783,-0.7372,-1.7747,1.923
10.300000,-0.1527,-0.7453,-1.8440,1.995
10.309000,-0.2212,-0.7147,-1.8909,2.034
10.310000,-0.2309,-0.6477,-2.0303,2.144
10.315000,-0.1700,-0.5775,-2.0875,2.173
10.350000,-0.1722,-0.5423,-2.1775,2.251
10.351000,-0.2469,-0.4582,-2.2742,2.333
10.352000,-0.2317,-0.3871,-2.4037,2.446
10.352000,-0.1462,-0.2953,-2.5734,2.594
10.352000,-0.1310,-0.1969,-2.6998,2.710
10.353000,-0.1479,-0.0843,-2.7589,2.764
10.353000,-0.1560,0.0334,-2.8637,2.868
10.356000,-0.1551,0.1158,-2.8729,2.879
10.360000,-0.0754,0.2397,-2.8108,2.822
10.364000,-0.0290,0.3336,-2.7183,2.739
10.372000,-0.0230,0.3952,-2.4853,2.517
10.375000,-0.0017,0.4625,-2.1358,2.185
10.380000,0.0395,0.5424,-1.7919,1.873
10.384000,0.0649,0.5531,-1.5417,1.639
10.390000,0.0984,0.5973,-1.3947,1.520
10.396000,0.0516,0.6269,-1.3339,1.475
10.400000,-0.0088,0.6732,-1.3090,1.472
10.406000,-0.1188,0.7528,-1.2841,1.493
10.415000,-0.2237,0.7845,-1.3548,1.581
10.416000,-0.2740,0.7875,-1.3490,1.586
10.446000,-0.2745,0.8077,-1.3004,1.555
10.447000,-0.2634,0.8378,-1.2711,1.545
10.447000,-0.2191,0.8756,-1.0938,1.418
10.447000,-0.1033,0.9211,-0.9552,1.331
10.447000,0.0144,0.9979,-0.8241,1.294
10.447000,0.1842,1.0415,-0.6216,1.227
10.450000,0.2507,1.0759,-0.4291,1.185
10.455000,0.3531,1.1658,-0.2179,1.237
10.459000,0.4490,1.1865,0.0025,1.269
10.464000,0.5194,1.2219,0.1890,1.341
10.470000,0.5673,1.2457,0.3704,1.418
10.474000,0.5404,1.2697,0.5155,1.473
10.479000,0.4439,1.2583,0.6674,1.492
10.484000,0.2996,1.3167,0.8358,1.588
10.489000,0.1818,1.2914,1.0230,1.658
10.494000,0.0309,1.2256,1.1981,1.714
10.499000,-0.1347,1.1665,1.1748,1.661
10.504000,-0.3129,1.1144,1.0656,1.573
10.508000,-0.4641,1.0647,0.9518,1.502
10.513000,-0.6297,1.0487,0.8979,1.517
10.518000,-0.7574,1.0398,0.9302,1.588
10.525000,-0.8573,1.0594,1.0870,1.743
10.528000,-0.8966,1.0733,1.2845,1.899
10.533000,-0.8969,1.0097,1.4846,2.007
10.565000,-0.8657,0.9688,1.6490,2.099
10.566000,-0.7672,0.9025,1.8927,2.233
10.566000,-0.6993,0.8850,2.1009,2.385
10.567000,-0.6137,0.8682,2.2353,2.475
10.567000,-0.5385,0.8928,2.3677,2.587
10.567000,-0.4899,0.9326,2.5389,2.749
10.568000,-0.4121,1.0234,2.5815,2.807
10.575000,-0.3290,1.1293,2.5887,2.843
10.578000,-0.2502,1.2359,2.5990,2.889
10.583000,-0.2572,1.3695,2.5646,2.919
10.588000,-0.2494,1.4560,2.4854,2.891
10.593000,-0.2364,1.5480,2.2516,2.743
10.598000,-0.2685,1.5888,1.9491,2.529
10.605000,-0.3727,1.6052,1.6162,2.308
10.608000,-0.4201,1.6717,1.3123,2.166
10.614000,-0.4976,1.7746,0.9775,2.086
10.619000,-0.5576,1.8520,0.8555,2.115
10.624000,-0.5911,1.9497,0.8288,2.199
10.628000,-0.6509,2.0461,0.9018,2.329
10.633000,-0.6822,2.0696,1.0148,2.404
10.645000,-0.5703,2.0393,1.2178,2.443
10.647000,-0.3895,2.0125,1.4655,2.520
10.648000,-0.2207,1.9532,1.7363,2.623
10.654000,-0.0968,1.8521,2.0230,2.744
10.697000,0.0376,1.6302,2.3208,2.836
10.698000,0.1647,1.4359,2.5914,2.967
10.699000,0.1799,1.2812,2.8852,3.162
10.700000,0.2132,1.1566,3.2930,3.497
10.700000,0.2317,0.9728,3.7361,3.868
10.700000,0.1758,0.7698,4.1524,4.227
10.700000,0.1371,0.4965,4.4254,4.455
10.701000,0.0249,0.2312,4.6296,4.635
10.701000,-0.1726,-0.0698,4.6913,4.695
10.703000,-0.4124,-0.3492,4.6514,4.683
10.708000,-0.6849,-0.6052,4.4552,4.548
10.712000,-0.9813,-0.7351,4.0480,4.230
10.717000,-1.2498,-0.8393,3.6045,3.906
10.722000,-1.5296,-0.9178,3.1702,3.638
10.727000,-1.7261,-0.9489,2.6638,3.313
10.732000,-1.8381,-0.9944,2.0992,2.962
10.741000,-1.8548,-1.0185,1.6682,2.695
10.743000,-1.8012,-0.9945,1.1836,2.374
10.747000,-1.7568,-0.9559,0.6312,2.097
10.752000,-1.7129,-0.8897,0.2163,1.942
10.794000,-1.6073,-0.8599,-0.1334,1.828
10.795000,-1.4042,-0.8041,-0.2959,1.645
10.796000,-1.1456,-0.7238,-0.3150,1.391
10.796000,-0.8453,-0.6860,-0.2338,1.113
10.796000,-0.5160,-0.7017,-0.1796,0.889
10.796000,-0.1638,-0.7040,-0.0806,0.727
10.797000,0.1025,-0.7212,0.0297,0.729
10.797000,0.3441,-0.7362,0.0600,0.815
10.799000,0.5208,-0.8161,0.0536,0.970
10.801000,0.6453,-0.8815,0.0509,1.094
10.807000,0.7301,-0.9440,0.0804,1.196
10.811000,0.7370,-1.0520,0.1255,1.291
10.817000,0.7069,-1.2102,0.1862,1.414
10.821000,0.6089,-1.3449,0.2723,1.501
10.826000,0.5286,-1.5355,0.3600,1.663
10.831000,0.3869,-1.7157,0.4259,1.810
10.837000,0.2121,-1.8884,0.4007,1.942
10.841000,0.0252,-2.0471,0.3544,2.078
10.847000,-0.1509,-2.2160,0.2153,2.232
10.851000,-0.3045,-2.3884,0.0365,2.408
10.856000,-0.4336,-2.4899,-0.2252,2.537
10.861000,-0.4815,-2.6045,-0.4643,2.689
10.867000,-0.5227,-2.7177,-0.6737,2.848
10.877000,-0.5357,-2.7392,-0.8389,2.914
10.879000,-0.5471,-2.7929,-1.0534,3.035
10.881000,-0.6097,-2.8313,-1.3051,3.177
10.933000,-0.6445,-2.8420,-1.5199,3.287
10.936000,-0.6544,-2.8443,-1.7553,3.406
10.937000,-0.6157,-2.8161,-1.9613,3.487
10.938000,-0.5617,-2.7597,-2.0065,3.458
10.938000,-0.4756,-2.6967,-2.1492,3.481
10.941000,-0.4195,-2.6007,-2.2557,3.468
10.942000,-0.3453,-2.5454,-2.3834,3.504
10.943000,-0.3107,-2.4659,-2.5303,3.547
10.943000,-0.2800,-2.4031,-2.7056,3.630
10.944000,-0.2030,-2.3158,-2.8332,3.665
10.945000,-0.1278,-2.2327,-2.9490,3.701
10.945000,0.0507,-2.1272,-2.9766,3.659
10.946000,0.2108,-2.0110,-2.9426,3.570
10.950000,0.3647,-1.8863,-2.7995,3.395
10.955000,0.5275,-1.7746,-2.6072,3.198
10.961000,0.5966,-1.6567,-2.4614,3.026
10.965000,0.6730,-1.5737,-2.2470,2.825
10.971000,0.6785,-1.5685,-2.0933,2.702
10.975000,0.6302,-1.5097,-2.0288,2.606
10.980000,0.5374,-1.4835,-1.9291,2.492
10.985000,0.4382,-1.4327,-1.8348,2.369
10.993000,0.3254,-1.4360,-1.7291,2.271
10.995000,0.2395,-1.4193,-1.5595,2.122
11.000000,0.2235,-1.3995,-1.3738,1.974
11.041000,0.2083,-1.3840,-1.1742,1.827
11.042000,0.1962,-1.3826,-1.0588,1.752
11.042000,0.2060,-1.3428,-1.0416,1.712
11.043000,0.2401,-1.2838,-1.0796,1.694
11.043000,0.2310,-1.2122,-1.1274,1.671
11.043000,0.2077,-1.1567,-1.1230,1.625
11.044000,0.1846,-1.1194,-1.0403,1.539
11.044000,0.2193,-1.0285,-0.9130,1.393
11.046000,0.3213,-0.9704,-0.7313,1.257
11.050000,0.4046,-0.9452,-0.5598,1.171
11.055000,0.4645,-0.9030,-0.4365,1.105
11.059000,0.4773,-0.8584,-0.3494,1.042
11.066000,0.5264,-0.8092,-0.2263,0.992
11.078000,0.4950,-0.7341,-0.0842,0.889
11.079000,0.4814,-0.6549,0.0892,0.818
11.080000,0.4358,-0.6053,0.1243,0.756
11.086000,0.3968,-0.5997,0.0713,0.723
11.131000,0.3616,-0.5759,-0.1198,0.690
11.132000,0.2462,-0.5193,-0.4369,0.722
11.132000,0.1006,-0.4222,-0.6627,0.792
11.133000,-0.0178,-0.3660,-0.9815,1.048
11.133000,-0.0665,-0.2589,-1.3457,1.372
11.133000,-0.1155,-0.1700,-1.6073,1.620
11.134000,-0.1297,-0.0869,-1.8409,1.847
11.134000,-0.1139,0.0217,-1.9724,1.976
11.134000,-0.0662,0.1056,-1.9327,1.937
11.135000,-0.0276,0.1626,-1.7507,1.758
11.142000,0.0403,0.2044,-1.5532,1.567
11.144000,0.1686,0.2882,-1.2133,1.258
11.149000,0.3383,0.3683,-0.7598,0.910
11.155000,0.4256,0.3915,-0.3670,0.685
11.159000,0.4746,0.3532,0.0081,0.592
11.164000,0.5174,0.3396,0.3153,0.695
11.170000,0.5934,0.3361,0.5237,0.860
11.174000,0.6724,0.3552,0.7094,1.040
11.179000,0.6499,0.3586,0.8248,1.110
11.183000,0.5838,0.3898,0.8769,1.123
11.193000,0.4169,0.4628,0.8347,1.041
11.194000,0.2009,0.4917,0.7557,0.924
11.198000,-0.0123,0.4883,0.5732,0.753
11.239000,-0.1476,0.4618,0.4382,0.654
11.240000,-0.2948,0.4842,0.2670,0.627
11.240000,-0.3710,0.4643,0.2319,0.638
11.241000,-0.3436,0.4644,0.1677,0.602
11.241000,-0.2495,0.4890,0.2015,0.585
11.241000,-0.1490,0.5693,0.3496,0.684
11.241000,-0.0517,0.6689,0.5740,0.883
11.242000,0.1026,0.7040,0.8770,1.129
11.243000,0.2398,0.7746,1.2135,1.459
11.252000,0.3652,0.7826,1.4852,1.718
11.253000,0.5056,0.7828,1.6543,1.899
11.258000,0.5920,0.7133,1.7541,1.984
11.263000,0.7229,0.6634,1.7962,2.047
11.268000,0.8132,0.5998,1.9001,2.152
11.274000,0.9186,0.5015,1.9938,2.252
11.279000,0.9848,0.4309,2.1009,2.360
11.283000,0.9854,0.3617,2.2383,2.472
11.292000,1.0237,0.2656,2.3960,2.619
11.293000,1.0230,0.1662,2.4884,2.696
11.297000,0.9980,0.0397,2.5511,2.740
11.302000,1.0442,-0.0712,2.6897,2.886
11.332000,1.0514,-0.2335,2.8515,3.048
11.333000,1.0122,-0.3664,3.0297,3.215
11.333000,0.9168,-0.4516,3.1960,3.355
11.333000,0.8227,-0.5302,3.3651,3.505
11.333000,0.6935,-0.6367,3.3126,3.444
11.334000,0.5785,-0.6972,3.1370,3.265
11.337000,0.5078,-0.7738,2.8815,3.026
11.342000,0.4379,-0.8782,2.7157,2.888
11.347000,0.3688,-0.9551,2.7780,2.961
11.352000,0.3559,-1.0023,2.9106,3.099
11.358000,0.4141,-1.0390,2.9410,3.146
11.363000,0.4257,-1.0966,2.8647,3.097
11.367000,0.4767,-1.1558,2.7489,3.020
11.374000,0.4808,-1.1756,2.5693,2.866
11.377000,0.4554,-1.1918,2.5149,2.820
11.382000,0.4510,-1.2232,2.5520,2.866
11.390000,0.4246,-1.2412,2.5322,2.852
11.392000,0.3813,-1.3055,2.5104,2.855
11.397000,0.3935,-1.4160,2.5298,2.926
11.402000,0.3202,-1.5033,2.4922,2.928
11.446000,0.2597,-1.5987,2.4599,2.945
11.448000,0.1927,-1.6257,2.3709,2.881
11.449000,0.1955,-1.6540,2.2229,2.778
11.449000,0.2320,-1.6551,2.1308,2.708
11.450000,0.2564,-1.6386,2.0228,2.616
11.450000,0.2521,-1.6164,1.8201,2.447
11.451000,0.2673,-1.6486,1.5803,2.299
11.451000,0.3303,-1.6105,1.2268,2.051
11.451000,0.3786,-1.5501,0.7788,1.776
11.456000,0.4047,-1.4763,0.3916,1.580
11.458000,0.4397,-1.4172,0.1868,1.496
11.462000,0.4933,-1.3895,0.1855,1.486
11.468000,0.6090,-1.3645,0.3088,1.526
11.472000,0.6365,-1.3501,0.4158,1.549
11.477000,0.6382,-1.3658,0.4013,1.560
11.482000,0.6717,-1.3876,0.1891,1.553
11.488000,0.6315,-1.3964,-0.1799,1.543
11.492000,0.5677,-1.4279,-0.5168,1.621
11.497000,0.4654,-1.4454,-0.9821,1.808
11.501000,0.4103,-1.3890,-1.4610,2.057
11.507000,0.3637,-1.3320,-1.7293,2.213
11.511000,0.3659,-1.2525,-1.8948,2.301
11.516000,0.4096,-1.1647,-1.9843,2.337
11.561000,0.4403,-1.0944,-2.0220,2.341
11.563000,0.5300,-1.0343,-1.9243,2.248
11.563000,0.6651,-1.0009,-1.6699,2.057
11.563000,0.7218,-0.9851,-1.3761,1.840
11.564000,0.7912,-0.9824,-1.1765,1.725
11.564000,0.7971,-0.9670,-0.9394,1.566
11.564000,0.7588,-0.9176,-0.8128,1.442
11.565000,0.7191,-0.8872,-0.8060,1.398
11.565000,0.6731,-0.8613,-0.8687,1.396
11.566000,0.5771,-0.8545,-0.9554,1.406
11.571000,0.5238,-0.7947,-1.0397,1.410
11.577000,0.5177,-0.7942,-1.0740,1.433
11.581000,0.4252,-0.8146,-1.0512,1.396
11.587000,0.3972,-0.8126,-0.9309,1.298
11.590000,0.4434,-0.8123,-0.8636,1.266
11.596000,0.4487,-0.8281,-0.6175,1.126
11.602000,0.3944,-0.8360,-0.4007,1.007
11.607000,0.3454,-0.8126,-0.1939,0.904
11.611000,0.3064,-0.8581,-0.0689,0.914
11.615000,0.2084,-0.8818,0.0654,0.908
11.625000,0.0870,-0.9604,0.1924,0.983
11.625000,-0.0342,-1.0483,0.2832,1.086
11.630000,-0.1624,-1.1410,0.5127,1.261
11.634000,-0.2763,-1.2482,0.7875,1.501
11.674000,-0.3635,-1.3080,0.9642,1.665
11.675000,-0.4243,-1.3399,1.0119,1.732
11.676000,-0.4587,-1.4273,1.1078,1.864
11.676000,-0.5553,-1.4819,1.1896,1.980
11.676000,-0.5964,-1.5274,1.2381,2.055
11.677000,-0.6105,-1.5638,1.3012,2.124
11.677000,-0.5955,-1.5289,1.3668,2.135
11.678000,-0.5180,-1.5208,1.4684,2.177
11.680000,-0.4519,-1.5513,1.5462,2.236
11.686000,-0.4309,-1.5608,1.7151,2.359
11.692000,-0.3687,-1.5232,1.9726,2.519
11.694000,-0.3132,-1.4894,2.1588,2.641
11.701000,-0.2741,-1.4573,2.2786,2.719
11.711000,-0.2421,-1.3868,2.3182,2.712
11.712000,-0.2225,-1.3070,2.2300,2.594
11.715000,-0.2132,-1.2514,2.0141,2.381
11.769000,-0.1790,-1.1646,1.6753,2.048
11.770000,-0.1417,-1.1014,1.3236,1.728
11.770000,-0.1115,-1.0133,1.0377,1.455
11.770000,-0.0069,-0.9120,0.8196,1.226
11.770000,0.0621,-0.7516,0.6236,0.979
11.771000,0.2204,-0.6178,0.4233,0.781
11.771000,0.3701,-0.5433,0.1941,0.685
11.771000,0.4802,-0.4252,0.0510,0.643
11.772000,0.6352,-0.3128,0.0340,0.709
11.772000,0.7399,-0.2831,0.1145,0.800
11.772000,0.8522,-0.2544,0.2013,0.912
11.774000,0.9919,-0.2602,0.2107,1.047
11.779000,1.0804,-0.2981,0.2457,1.147
11.784000,1.1615,-0.2890,0.1747,1.210
11.791000,1.1327,-0.3071,0.0551,1.175
11.794000,1.0853,-0.3162,0.0304,1.131
11.798000,0.9522,-0.3835,-0.0526,1.028
11.805000,0.8096,-0.4613,-0.0836,0.936
11.809000,0.6476,-0.5809,-0.0363,0.871
11.813000,0.4873,-0.6686,-0.0587,0.829
11.818000,0.3139,-0.7943,-0.1266,0.863
11.827000,0.1266,-0.8696,-0.2589,0.916
11.828000,-0.0296,-0.9428,-0.3885,1.020
11.834000,-0.1579,-1.0164,-0.4841,1.137
11.862000,-0.2780,-1.0236,-0.5481,1.194
11.862000,-0.3304,-1.0386,-0.5353,1.214
11.863000,-0.3796,-1.0378,-0.5625,1.240
11.863000,-0.3877,-1.0193,-0.5436,1.218
11.863000,-0.3430,-1.0116,-0.6029,1.227
11.863000,-0.2596,-0.9405,-0.6496,1.172
11.868000,-0.2257,-0.8942,-0.7627,1.197
11.873000,-0.1832,-0.8126,-0.7821,1.143
11.879000,-0.1750,-0.7171,-0.8276,1.109
11.883000,-0.2121,-0.6194,-0.7989,1.033
11.889000,-0.2205,-0.5958,-0.8158,1.034
11.895000,-0.2668,-0.5841,-0.8876,1.095
11.899000,-0.2940,-0.5340,-0.9713,1.147
11.905000,-0.2952,-0.5099,-1.1365,1.280
11.908000,-0.2968,-0.4181,-1.2803,1.379
11.913000,-0.2723,-0.3565,-1.4222,1.491
11.921000,-0.2312,-0.2767,-1.4931,1.536
11.925000,-0.1591,-0.1806,-1.5053,1.524
11.928000,-0.0534,-0.0828,-1.4229,1.426
11.934000,0.0572,0.0123,-1.2462,1.248
11.944000,0.1612,0.0850,-1.0061,1.022
11.944000,0.2873,0.1401,-0.8653,0.922
11.947000,0.3951,0.1989,-0.7446,0.866
11.952000,0.4413,0.2468,-0.5792,0.769
11.997000,0.4643,0.2741,-0.4505,0.703
11.997000,0.4665,0.2806,-0.2793,0.612
11.997000,0.4385,0.2590,-0.0943,0.518
11.997000,0.3134,0.1926,0.0375,0.370
11.998000,0.2276,0.1193,0.1811,0.314
11.998000,0.1643,0.0560,0.2358,0.293
11.998000,0.0590,-0.0190,0.2019,0.211
11.998000,-0.0549,-0.0936,0.0890,0.140
11.998000,-0.1467,-0.1243,-0.0217,0.193
12.002000,-0.2409,-0.1114,0.0204,0.266
12.008000,-0.3401,-0.1123,0.1483,0.388
12.013000,-0.3004,-0.1344,0.3428,0.475
12.017000,-0.3232,-0.1756,0.6136,0.715
12.022000,-0.3603,-0.2149,0.8246,0.925
12.027000,-0.3901,-0.2383,0.9618,1.065
12.032000,-0.4917,-0.2867,0.9918,1.144
12.040000,-0.5788,-0.3697,0.8862,1.121
12.042000,-0.6354,-0.3845,0.6643,0.996
12.047000,-0.6809,-0.4000,0.4860,0.927
12.052000,-0.6985,-0.3992,0.3393,0.873
12.093000,-0.7264,-0.4132,0.3293,0.898
12.094000,-0.6878,-0.3938,0.3528,0.868
12.095000,-0.6253,-0.4294,0.4002,0.858
12.095000,-0.5768,-0.5010,0.4668,0.895
12.095000,-0.5544,-0.4986,0.4784,0.886
12.095000,-0.5079,-0.5062,0.3683,0.806
12.096000,-0.5021,-0.4948,0.2154,0.737
12.096000,-0.4752,-0.4739,0.1058,0.679
12.099000,-0.4246,-0.4410,0.0513,0.614
12.102000,-0.4655,-0.4297,0.0758,0.638
12.108000,-0.4592,-0.4018,0.1504,0.628
12.112000,-0.4152,-0.4197,0.2251,0.632
12.117000,-0.3623,-0.4501,0.3144,0.658
12.123000,-0.3652,-0.4119,0.4159,0.690
12.127000,-0.3473,-0.4179,0.5226,0.754
12.132000,-0.3300,-0.3797,0.5558,0.750
12.136000,-0.3062,-0.3478,0.5419,0.713
12.143000,-0.2804,-0.3245,0.4689,0.635
12.146000,-0.2788,-0.2426,0.2102,0.425
12.152000,-0.3225,-0.2619,-0.0909,0.425
12.164000,-0.3185,-0.2311,-0.4705,0.613
12.165000,-0.3392,-0.1232,-0.7017,0.789
12.166000,-0.3052,-0.0529,-0.7896,0.848
12.217000,-0.2330,0.0325,-0.7535,0.789
12.218000,-0.1870,0.0975,-0.6894,0.721
12.218000,-0.0979,0.0870,-0.5494,0.565
12.219000,-0.0346,0.1322,-0.4483,0.469
12.219000,0.0030,0.1563,-0.3499,0.383
12.219000,-0.0094,0.1422,-0.3139,0.345
12.219000,-0.0358,0.1331,-0.3474,0.374
12.220000,-0.0574,0.1457,-0.4191,0.447
12.220000,-0.0647,0.2135,-0.5124,0.559
12.220000,-0.0745,0.1860,-0.5915,0.624
12.221000,-0.0342,0.1756,-0.6109,0.637
12.227000,-0.0085,0.2113,-0.6402,0.674
12.232000,0.0000,0.2093,-0.6675,0.700
12.236000,0.0631,0.2271,-0.6042,0.649
12.241000,0.0998,0.2504,-0.4362,0.513
12.247000,0.1104,0.2385,-0.2496,0.362
12.251000,0.1092,0.1886,-0.0634,0.227
12.256000,0.0633,0.1317,0.0508,0.155
12.260000,-0.0152,0.0655,0.1337,0.150
12.265000,-0.0954,0.0115,0.2140,0.235
12.271000,-0.1459,-0.0354,0.2418,0.285
12.300000,-0.2601,-0.1180,0.1428,0.319
12.300000,-0.3858,-0.1430,0.1515,0.438
12.301000,-0.5352,-0.2325,0.1841,0.612
12.301000,-0.6362,-0.2789,0.2023,0.723
12.301000,-0.6966,-0.3253,0.2587,0.811
12.301000,-0.6877,-0.3213,0.3319,0.828
12.311000,-0.6907,-0.3106,0.3931,0.853
12.312000,-0.6366,-0.3028,0.4283,0.825
12.315000,-0.5998,-0.3149,0.5165,0.852
12.321000,-0.5708,-0.2847,0.5619,0.850
12.325000,-0.5639,-0.2556,0.4977,0.794
12.330000,-0.5315,-0.2251,0.4318,0.721
12.335000,-0.4880,-0.1836,0.3137,0.609
12.340000,-0.4239,-0.1644,0.2297,0.509
12.345000,-0.3415,-0.1172,0.1796,0.403
12.350000,-0.2696,-0.0728,0.0747,0.289
12.355000,-0.1504,-0.0432,0.0346,0.160
12.359000,-0.0076,-0.0116,0.1001,0.101
12.364000,0.1375,0.0411,0.1273,0.192
12.370000,0.3113,0.1126,0.1500,0.363
12.377000,0.4110,0.1669,0.1225,0.460
12.381000,0.4610,0.1947,0.1072,0.512
12.384000,0.4923,0.2320,0.0608,0.548
12.424000,0.5051,0.2813,0.0026,0.578
12.424000,0.4373,0.2829,0.0711,0.526
12.425000,0.3772,0.2439,0.1418,0.471
12.425000,0.3250,0.1978,0.2365,0.448
12.425000,0.2184,0.1658,0.2236,0.354
12.425000,0.1550,0.1000,0.2204,0.287
12.425000,0.0824,0.0890,0.2174,0.249
12.426000,0.0673,0.1303,0.2816,0.317
12.431000,0.0981,0.0684,0.2860,0.310
12.434000,0.0574,0.0470,0.2548,0.265
12.440000,0.0268,0.0565,0.1879,0.198
12.444000,-0.0441,0.0253,0.0279,0.058
12.449000,-0.1338,-0.0058,-0.1224,0.181
12.454000,-0.2064,0.0163,-0.2274,0.308
12.459000,-0.2814,0.0317,-0.3540,0.453
12.465000,-0.3017,0.0096,-0.4307,0.526
12.469000,-0.2959,0.0001,-0.4336,0.525
12.475000,-0.3098,0.0152,-0.5110,0.598
12.480000,-0.2952,-0.0094,-0.5696,0.642
12.484000,-0.2714,0.0145,-0.5855,0.646
12.491000,-0.2793,0.0392,-0.6115,0.673
12.494000,-0.2543,0.0166,-0.5875,0.640
12.499000,-0.2038,0.0185,-0.6237,0.656
12.541000,-0.1113,0.0688,-0.5693,0.584
12.542000,0.0185,0.0905,-0.5247,0.533
12.542000,0.1404,0.1628,-0.4398,0.489
12.542000,0.2664,0.1561,-0.2689,0.409
12.543000,0.3852,0.2163,-0.0719,0.448
12.543000,0.4705,0.2213,0.0795,0.526
12.543000,0.5370,0.2210,0.0924,0.588
12.543000,0.5348,0.2323,0.1127,0.594
12.543000,0.5238,0.2167,0.1523,0.587
12.549000,0.5064,0.1887,0.0798,0.546
12.556000,0.4517,0.1941,0.0291,0.492
12.559000,0.3525,0.1586,-0.1003,0.399
12.563000,0.2396,0.1328,-0.2750,0.388
12.568000,0.1155,0.0955,-0.4784,0.501
12.574000,0.0346,0.0639,-0.6629,0.667
12.578000,-0.0319,0.0668,-0.7353,0.739
12.584000,-0.1200,0.0659,-0.7029,0.716
12.595000,-0.1222,0.0755,-0.6854,0.700
12.596000,-0.0412,0.0499,-0.6254,0.629
12.598000,-0.0493,-0.0466,-0.3554,0.362
12.642000,-0.0337,-0.0615,-0.1839,0.197
12.643000,0.0153,-0.0140,-0.0294,0.036
12.643000,0.0594,-0.0027,0.0341,0.069
12.643000,0.0437,-0.0275,0.0235,0.057
12.643000,0.1018,-0.0023,0.0658,0.121
12.644000,0.2049,0.0391,0.0938,0.229
12.644000,0.2264,0.0970,0.1339,0.280
12.644000,0.2887,0.1712,0.1358,0.362
12.644000,0.3129,0.1781,0.1834,0.404
12.647000,0.2990,0.1870,0.2167,0.414
12.653000,0.3159,0.1856,0.2528,0.445
12.657000,0.2371,0.1597,0.2676,0.392
12.662000,0.1297,0.1452,0.1441,0.242
12.667000,0.0629,0.0895,0.0449,0.118
12.672000,0.0223,0.0525,-0.0157,0.059
12.679000,-0.0687,0.0776,-0.1359,0.171
12.683000,-0.1218,0.0617,-0.2821,0.313
12.688000,-0.0771,0.0868,-0.3781,0.396
12.692000,-0.1040,0.0380,-0.3929,0.408
12.698000,-0.1236,-0.0099,-0.3936,0.413
12.703000,-0.0380,0.0694,-0.3636,0.372
12.707000,0.0354,0.1203,-0.3218,0.345
12.712000,0.0589,0.1522,-0.2491,0.298
12.717000,0.1116,0.1606,-0.1671,0.257
12.730000,0.1642,0.1760,-0.1735,0.297
12.731000,0.1258,0.1984,-0.1776,0.294
12.732000,0.1230,0.2134,-0.2102,0.324
12.778000,0.0938,0.1926,-0.2046,0.296
12.779000,0.1074,0.1882,-0.2346,0.319
12.779000,0.0657,0.2124,-0.1570,0.272
12.779000,0.0501,0.1673,-0.1943,0.261
12.779000,0.0269,0.1771,-0.1813,0.255
12.780000,0.0321,0.2082,-0.1323,0.249
12.781000,0.0253,0.1964,-0.0668,0.209
12.781000,-0.0146,0.1677,-0.0562,0.178
12.781000,-0.0158,0.1440,-0.0959,0.174
12.781000,0.0094,0.1681,-0.1117,0.202
12.788000,0.0033,0.2187,-0.0462,0.224
12.791000,-0.0219,0.2072,0.0813,0.224
12.796000,-0.0464,0.1788,0.1466,0.236
12.801000,-0.1108,0.1480,0.1760,0.255
12.806000,-0.1173,0.0932,0.2007,0.250
12.812000,-0.2210,0.0861,0.1728,0.293
12.818000,-0.2620,0.0503,0.0159,0.267
12.824000,-0.3078,0.0744,-0.0882,0.329
12.828000,-0.3613,0.0985,-0.0966,0.387
12.832000,-0.3553,0.1273,-0.0572,0.382
12.863000,-0.2568,0.1368,0.0588,0.297
12.864000,-0.1944,0.1411,0.1198,0.268
12.865000,-0.1202,0.1355,0.1474,0.234
12.865000,-0.0917,0.1318,0.1442,0.216
12.865000,-0.0802,0.1324,0.0598,0.166
12.865000,-0.1120,0.1495,-0.1031,0.213
12.866000,-0.1560,0.1976,-0.1463,0.291
12.873000,-0.1690,0.1954,-0.1608,0.304
12.876000,-0.1629,0.1527,-0.1323,0.259
12.881000,-0.1609,0.1200,-0.1111,0.229
12.888000,-0.1509,0.1259,-0.1045,0.223
12.890000,-0.1664,0.0963,-0.1410,0.238
12.896000,-0.1514,0.0829,-0.1738,0.245
12.900000,-0.1927,0.1317,-0.2303,0.328
12.906000,-0.2213,0.1519,-0.3220,0.419
12.911000,-0.1971,0.1844,-0.3206,0.419
12.915000,-0.1394,0.1719,-0.2103,0.305
12.928000,-0.1436,0.1978,-0.0843,0.259
12.929000,-0.1208,0.1786,-0.0118,0.216
12.930000,-0.0905,0.1785,-0.0941,0.221
12.935000,-0.1052,0.1809,-0.1638,0.266
12.985000,-0.0461,0.1908,-0.1691,0.259
12.986000,-0.0186,0.2243,-0.1245,0.257
12.987000,0.0011,0.2505,-0.1016,0.270
12.987000,-0.0037,0.2618,-0.0432,0.265
12.987000,-0.0282,0.2276,-0.0421,0.233
12.988000,-0.0558,0.2170,-0.0551,0.231
12.988000,-0.0914,0.1539,-0.0014,0.179
12.988000,-0.1681,0.1741,0.0426,0.246
12.989000,-0.1904,0.1341,0.1362,0.270
12.989000,-0.2012,0.0962,0.1511,0.269
12.990000,-0.2219,0.0913,0.1708,0.295
12.995000,-0.2144,0.1191,0.1882,0.309
13.000000,-0.2120,0.0823,0.1487,0.272
13.007000,-0.1906,0.1141,0.1430,0.264
13.010000,-0.1453,0.1382,0.1114,0.229
13.014000,-0.0951,0.1380,0.0660,0.180
13.024000,-0.0640,0.1283,-0.0074,0.144
13.025000,-0.0496,0.1305,-0.1728,0.222
13.030000,-0.0449,0.1398,-0.3321,0.363
13.035000,-0.0499,0.1304,-0.3953,0.419
13.064000,-0.0644,0.1809,-0.4819,0.519
13.066000,-0.0694,0.1603,-0.4802,0.511
13.066000,-0.1200,0.1188,-0.5073,0.535
13.066000,-0.0782,0.1421,-0.5747,0.597
13.066000,0.0192,0.1418,-0.5040,0.524
13.067000,0.0697,0.2129,-0.3035,0.377
13.069000,0.1479,0.3100,0.0137,0.344
13.074000,0.2731,0.2730,0.3833,0.544
13.079000,0.3327,0.1568,0.6881,0.780
13.084000,0.2747,0.0786,0.8398,0.887
13.090000,0.2689,-0.0002,0.8029,0.847
13.094000,0.1786,-0.0270,0.6684,0.692
13.100000,0.0343,-0.0041,0.4387,0.440
13.116000,-0.0995,-0.0005,0.1426,0.174
13.116000,-0.2021,0.0054,-0.1149,0.233
13.117000,-0.2459,-0.0005,-0.3268,0.409
13.120000,-0.2527,-0.0183,-0.4907,0.552
13.129000,-0.2493,-0.0068,-0.5519,0.606
13.129000,-0.1802,0.0005,-0.4533,0.488
13.133000,-0.1220,0.0273,-0.2546,0.284
13.175000,-0.0670,0.0444,-0.0156,0.082
13.176000,-0.0005,0.0683,0.1684,0.182
13.177000,0.0850,0.0675,0.2425,0.266
13.178000,0.0990,0.0517,0.2069,0.235
13.178000,0.1018,0.0282,0.2099,0.235
13.178000,0.1195,0.0231,0.1010,0.158
13.179000,0.1425,0.0009,-0.0291,0.145
13.179000,0.1490,0.0333,-0.2473,0.291
13.179000,0.1721,0.0990,-0.5082,0.546
13.184000,0.1614,0.1054,-0.7380,0.763
13.188000,0.1126,0.1152,-0.8532,0.868
13.193000,0.1022,0.1382,-0.9235,0.939
13.199000,0.1038,0.1242,-0.9202,0.934
13.205000,0.1149,0.1447,-0.8027,0.824
13.208000,0.0898,0.1470,-0.6573,0.679
13.214000,0.0744,0.1071,-0.4645,0.483
13.219000,0.0469,0.1203,-0.2580,0.288
13.225000,0.0198,0.0356,-0.1019,0.110
13.229000,0.0002,0.0130,0.0063,0.014
13.234000,-0.0264,-0.0483,0.0547,0.078
13.241000,-0.0698,-0.0717,0.0580,0.116
13.243000,-0.0750,-0.0740,-0.0151,0.106
13.248000,-0.1282,-0.0648,-0.0926,0.171
13.296000,-0.1387,-0.0560,-0.1029,0.182
13.297000,-0.1308,-0.0187,-0.1706,0.216
13.297000,-0.1257,-0.0057,-0.1974,0.234
13.297000,-0.0754,0.0361,-0.1954,0.213
13.298000,-0.0014,0.0682,-0.2317,0.242
13.298000,0.0724,0.0739,-0.1867,0.213
13.298000,0.1149,0.1156,-0.1513,0.222
13.299000,0.1361,0.1265,-0.0946,0.208
13.299000,0.1481,0.1281,-0.1266,0.233
13.299000,0.1417,0.1490,-0.1204,0.238
13.308000,0.1597,0.1463,-0.1095,0.243
13.309000,0.1586,0.1558,-0.1035,0.245
13.313000,0.1741,0.1681,-0.0404,0.245
13.317000,0.1875,0.2187,0.0394,0.291
13.323000,0.2321,0.2502,0.1047,0.357
13.327000,0.2623,0.2531,0.1937,0.413
13.332000,0.2736,0.2416,0.3281,0.491
13.342000,0.2017,0.2659,0.4218,0.538
13.343000,0.1425,0.2421,0.4462,0.527
13.347000,0.0600,0.2228,0.4850,0.537
13.382000,-0.0223,0.1962,0.4881,0.527
13.383000,-0.0563,0.1551,0.5247,0.550
13.383000,-0.1088,0.1283,0.5255,0.552
13.383000,-0.1416,0.1369,0.5361,0.571
13.383000,-0.1048,0.0949,0.5278,0.546
13.384000,-0.1039,0.1078,0.4790,0.502
13.384000,-0.1101,0.1396,0.3825,0.422
13.393000,-0.1328,0.1495,0.3723,0.423
13.394000,-0.1461,0.1304,0.4341,0.476
13.397000,-0.1502,0.1325,0.4147,0.460
13.403000,-0.1570,0.1387,0.4625,0.508
13.407000,-0.1352,0.1227,0.4963,0.529
13.412000,-0.1447,0.1158,0.4323,0.470
13.416000,-0.1974,0.1201,0.2874,0.369
13.423000,-0.2028,0.1070,0.1741,0.288
13.428000,-0.1991,0.1102,0.0228,0.229
13.432000,-0.2102,0.1203,-0.0779,0.254
13.438000,-0.1474,0.1017,-0.1785,0.253
13.443000,-0.0538,0.1433,-0.2003,0.252
13.448000,0.0376,0.1757,-0.1696,0.247
13.452000,0.1177,0.1892,-0.0865,0.239
13.458000,0.1507,0.1646,-0.0465,0.228
13.462000,0.1724,0.1782,-0.2098,0.325
13.469000,0.1323,0.1465,-0.3514,0.403
13.472000,0.1616,0.1556,-0.4450,0.498
13.481000,0.1617,0.1960,-0.4718,0.536
13.482000,0.1472,0.2318,-0.4938,0.565
13.528000,0.1084,0.2103,-0.5517,0.600
13.529000,0.1291,0.1913,-0.5475,0.594
13.529000,0.1183,0.1556,-0.5314,0.566
13.530000,0.0740,0.1128,-0.4674,0.487
13.530000,0.0439,0.0722,-0.4274,0.436
13.530000,0.0303,0.0483,-0.4806,0.484
13.530000,-0.0173,0.0552,-0.6652,0.668
13.531000,-0.0323,0.0645,-0.8376,0.841
13.531000,-0.0839,0.0768,-0.8810,0.888
13.531000,-0.0667,0.0924,-0.8915,0.899
13.538000,-0.0230,0.1211,-0.7734,0.783
13.541000,0.0664,0.1438,-0.6393,0.659
13.546000,0.1157,0.1244,-0.4747,0.504
13.551000,0.1705,0.1083,-0.2319,0.308
13.556000,0.2137,0.0782,-0.0708,0.238
13.561000,0.2023,0.0769,0.0638,0.226
13.566000,0.1505,0.0443,0.1433,0.212
13.578000,0.1038,0.0282,0.2277,0.252
13.580000,0.0359,0.0094,0.2619,0.265
13.580000,-0.0558,-0.0698,0.2152,0.233
13.586000,-0.1309,-0.0923,0.1569,0.224
13.624000,-0.2306,-0.1154,0.1133,0.282
13.626000,-0.2405,-0.1199,0.0151,0.269
13.627000,-0.2109,-0.0964,0.0272,0.233
13.627000,-0.1919,-0.0661,-0.0013,0.203
13.627000,-0.1570,-0.0625,-0.0152,0.170
13.628000,-0.0746,-0.0590,-0.0122,0.096
13.628000,0.0244,-0.0099,0.0647,0.070
13.629000,0.0922,0.0346,0.1175,0.153
13.630000,0.0959,0.0457,0.1438,0.179
13.636000,0.1289,0.0546,0.1653,0.217
13.641000,0.1051,0.0567,0.2201,0.250
13.645000,0.0125,0.0231,0.2126,0.214
13.650000,-0.0602,-0.0031,0.2505,0.258
13.655000,-0.0675,-0.0123,0.2476,0.257
13.660000,-0.0719,-0.0406,0.2902,0.302
13.666000,-0.0544,-0.0379,0.3280,0.335
13.671000,-0.0559,0.0100,0.3586,0.363
13.676000,-0.0546,0.0457,0.3990,0.405
13.680000,-0.0508,0.0569,0.3750,0.383
13.684000,-0.0353,0.0462,0.3106,0.316
13.695000,-0.0221,0.0232,0.2608,0.263
13.696000,-0.0160,0.0025,0.1681,0.169
13.700000,-0.0458,0.0320,0.0971,0.112
13.745000,-0.1115,0.0446,0.1027,0.158
13.746000,-0.1510,0.0333,0.0867,0.177
13.747000,-0.1284,0.0172,0.1210,0.177
13.747000,-0.1488,0.0273,0.1936,0.246
13.747000,-0.1283,-0.0061,0.2664,0.296
13.747000,-0.0647,-0.0041,0.2269,0.236
13.747000,-0.0536,0.0023,0.1351,0.145
13.748000,-0.0640,-0.0036,0.0102,0.065
13.748000,-0.0957,0.0332,-0.1958,0.220
13.749000,-0.1155,0.0628,-0.3608,0.384
13.756000,-0.0760,0.0925,-0.4492,0.465
13.760000,-0.0463,0.1200,-0.5520,0.567
13.765000,0.0234,0.1455,-0.6525,0.669
13.771000,0.0111,0.1594,-0.7029,0.721
13.774000,0.0298,0.1668,-0.7178,0.738
13.780000,0.0889,0.1748,-0.7282,0.754
13.785000,0.1071,0.2073,-0.6289,0.671
13.790000,0.1659,0.1831,-0.5492,0.602
13.795000,0.2034,0.2025,-0.4364,0.522
13.798000,0.2198,0.1985,-0.3480,0.457
13.837000,0.1698,0.1423,-0.2622,0.343
13.838000,0.0990,0.1009,-0.1743,0.224
13.838000,0.0695,0.0357,-0.1008,0.128
13.838000,0.0117,0.0041,-0.0657,0.067
13.839000,-0.0031,0.0151,-0.0782,0.080
13.839000,0.0178,0.0042,-0.0475,0.051
13.839000,0.0285,0.0214,-0.0452,0.058
13.839000,0.0460,0.0190,-0.0619,0.079
13.844000,0.0368,0.0186,-0.1190,0.126
13.848000,0.0033,0.0156,-0.1520,0.153
13.854000,-0.0590,0.0267,-0.1968,0.207
13.858000,-0.0689,0.0041,-0.2462,0.256
13.864000,-0.1412,-0.0113,-0.2622,0.298
13.868000,-0.1395,-0.0173,-0.2900,0.322
13.874000,-0.0975,-0.0234,-0.3655,0.379
13.879000,0.0084,0.0398,-0.4696,0.471
13.884000,0.0920,0.0721,-0.5068,0.520
13.890000,0.1466,0.0956,-0.4798,0.511
13.893000,0.1728,0.1101,-0.3170,0.377
13.898000,0.1996,0.0872,-0.1379,0.258
13.903000,0.1822,0.0815,0.0360,0.203
13.938000,0.1277,0.0307,0.1354,0.189
13.938000,0.1076,-0.0129,0.1917,0.220
13.939000,0.1118,0.0149,0.1884,0.220
13.939000,0.0705,0.0257,0.1613,0.178
13.939000,0.0388,0.0170,0.0819,0.092
13.939000,0.0283,0.0153,0.0432,0.054
13.939000,-0.0254,0.0398,0.0070,0.048
13.944000,-0.1153,0.0212,-0.0315,0.121
13.948000,-0.1744,-0.0404,-0.0389,0.183
13.953000,-0.2127,-0.0590,-0.0702,0.232
13.958000,-0.2420,-0.0538,-0.1134,0.273
13.964000,-0.2457,-0.0677,-0.1016,0.274
13.968000,-0.2020,-0.0648,-0.0659,0.222
13.973000,-0.1994,-0.0499,-0.0614,0.214
13.978000,-0.1081,-0.0419,0.0290,0.119
13.982000,-0.0191,-0.0050,0.0259,0.033
13.987000,0.0057,-0.0180,0.0729,0.075
13.993000,0.0505,0.0028,0.0982,0.110
13.997000,0.0817,0.0191,0.1354,0.159
14.002000,0.0802,0.0262,0.1173,0.144
14.008000,0.0986,0.0143,0.0992,0.141
14.013000,0.0937,0.0096,0.1457,0.173
14.017000,0.0818,0.0098,0.1659,0.185
14.035000,0.0272,0.0121,0.1670,0.170
14.036000,-0.0204,-0.0218,0.1516,0.155
14.037000,-0.0756,-0.0539,0.1101,0.144
14.038000,-0.0860,-0.0457,0.0976,0.138
14.042000,-0.1037,-0.0618,0.1134,0.166
14.047000,-0.1342,-0.0379,0.0532,0.149
14.052000,-0.1199,-0.0123,0.0128,0.121
14.082000,-0.1276,-0.0184,-0.1030,0.165
14.083000,-0.0884,-0.0034,-0.1797,0.200
14.083000,0.0025,0.0113,-0.2366,0.237
14.083000,0.0518,0.0614,-0.3193,0.329
14.084000,0.1291,0.1018,-0.3966,0.429
14.084000,0.2217,0.1719,-0.4457,0.527
14.092000,0.3529,0.2022,-0.4138,0.580
14.093000,0.4179,0.2139,-0.3082,0.562
14.097000,0.4409,0.2192,-0.2341,0.545
14.103000,0.4149,0.2729,-0.1771,0.527
14.107000,0.3613,0.2670,-0.1704,0.480
14.112000,0.2417,0.2063,-0.2547,0.407
14.116000,0.1560,0.1603,-0.3509,0.416
14.127000,0.0844,0.1575,-0.4806,0.513
14.129000,0.0218,0.1452,-0.5744,0.593
14.132000,-0.0037,0.1596,-0.5176,0.542
14.177000,-0.0182,0.1527,-0.3965,0.425
14.177000,-0.0406,0.1339,-0.2923,0.324
14.178000,-0.0561,0.1509,-0.1381,0.212
14.178000,-0.0431,0.0961,0.0256,0.108
14.178000,-0.0518,0.1175,0.1390,0.189
14.178000,-0.0674,0.0808,0.2192,0.243
14.179000,-0.1210,0.0555,0.1871,0.230
14.179000,-0.1336,0.0611,0.0501,0.155
14.179000,-0.1271,0.0881,-0.1297,0.202
14.182000,-0.1421,0.0843,-0.2976,0.340
14.185000,-0.0994,0.1244,-0.3198,0.357
14.191000,-0.0210,0.1891,-0.2515,0.315
14.196000,0.0314,0.2353,-0.1501,0.281
14.200000,0.0792,0.2151,-0.0133,0.230
14.207000,0.1296,0.2000,0.1495,0.281
14.212000,0.1422,0.2065,0.2690,0.368
14.217000,0.1338,0.1725,0.3478,0.411
14.221000,0.1261,0.1454,0.3883,0.433
14.227000,0.1406,0.1397,0.4385,0.481
14.231000,0.0811,0.1576,0.3597,0.401
14.236000,0.0314,0.1321,0.3983,0.421
14.283000,-0.0874,0.1372,0.4396,0.469
14.284000,-0.1848,0.0939,0.3209,0.382
14.285000,-0.2706,0.0045,0.2839,0.392
14.286000,-0.3331,-0.0353,0.2282,0.405
14.286000,-0.3890,-0.1065,0.1728,0.439
14.287000,-0.3714,-0.0944,0.1511,0.412
14.287000,-0.3739,-0.0588,0.1415,0.404
14.287000,-0.4032,-0.0522,0.0937,0.417
14.288000,-0.3491,-0.0122,0.0843,0.359
14.288000,-0.2953,0.0062,0.1132,0.316
14.292000,-0.2081,0.0101,0.1517,0.258
14.299000,-0.1111,0.0117,0.1805,0.212
14.300000,-0.0497,0.0442,0.2285,0.238
14.305000,-0.0116,0.0598,0.2814,0.288
14.310000,-0.0066,0.0894,0.1861,0.207
14.316000,0.0513,0.0709,0.1007,0.133
14.322000,0.0853,0.0953,-0.0037,0.128
14.326000,0.0930,0.1124,-0.0720,0.163
14.330000,0.0860,0.1320,-0.1092,0.192
14.334000,0.0860,0.1347,-0.1296,0.206
14.340000,0.0715,0.1062,-0.1452,0.194
14.345000,0.0543,0.1351,-0.2252,0.268
14.350000,0.0153,0.1041,-0.2311,0.254
14.366000,-0.0146,0.1090,-0.2608,0.283
14.367000,-0.0135,0.0590,-0.2452,0.253
14.368000,-0.0720,0.0667,-0.3469,0.360
14.371000,-0.1208,0.0460,-0.4151,0.435
14.421000,-0.1192,0.0543,-0.4737,0.492
14.422000,-0.1154,0.0821,-0.5446,0.563
14.424000,-0.1214,0.1010,-0.5893,0.610
14.424000,-0.0823,0.0917,-0.6032,0.616
14.424000,-0.0506,0.1332,-0.5433,0.562
14.424000,0.0024,0.1249,-0.4406,0.458
14.425000,0.0434,0.1433,-0.3527,0.383
14.425000,0.0727,0.1859,-0.2865,0.349
14.426000,0.1164,0.1473,-0.1965,0.272
14.426000,0.1194,0.1471,-0.0900,0.210
14.426000,0.0821,0.1468,0.0069,0.168
14.430000,0.0403,0.1273,0.1038,0.169
14.435000,-0.0011,0.1025,0.1649,0.194
14.440000,-0.0184,0.0750,0.1520,0.170
14.444000,-0.0572,0.0425,0.1154,0.136
14.450000,-0.0839,0.0050,0.0287,0.089
14.457000,-0.1082,-0.0038,-0.0363,0.114
14.459000,-0.1281,0.0304,-0.1012,0.166
14.464000,-0.1458,0.0239,-0.1088,0.183
14.469000,-0.1278,0.0320,-0.1331,0.187
14.521000,-0.1101,0.0379,-0.0906,0.148
14.522000,-0.0591,0.0439,-0.0505,0.089
14.522000,0.0203,0.0859,0.0108,0.089
14.523000,0.0636,0.0872,0.0937,0.143
14.523000,0.1309,0.1459,0.2099,0.287
14.523000,0.1437,0.1303,0.2998,0.357
14.524000,0.1022,0.0956,0.4087,0.432
14.524000,0.0785,0.1181,0.4602,0.482
14.524000,0.0483,0.1042,0.3852,0.402
14.524000,-0.0246,0.0756,0.3369,0.346
14.525000,-0.0160,0.0585,0.2841,0.290
14.528000,-0.0197,0.0841,0.1550,0.177
14.533000,-0.0115,0.0975,0.0931,0.135
14.539000,0.0346,0.0963,0.0099,0.103
14.543000,0.0303,0.1286,-0.0493,0.141
14.548000,0.0400,0.1537,-0.0727,0.175
14.553000,0.0398,0.1621,-0.1031,0.196
14.560000,0.0611,0.1347,-0.0548,0.158
14.566000,0.0705,0.1074,-0.0208,0.130
14.567000,0.0633,0.0898,0.0274,0.113
14.599000,0.0656,0.1056,0.0231,0.126
14.600000,0.1135,0.1140,0.0021,0.161
14.601000,0.0826,0.0911,-0.0834,0.149
14.601000,0.0851,0.0850,-0.1568,0.198
14.602000,0.0447,0.0766,-0.2038,0.222
14.603000,0.0473,0.0777,-0.2938,0.308
14.604000,0.0782,0.0455,-0.3335,0.346
14.609000,0.0898,0.0517,-0.3231,0.339
14.613000,0.1563,0.0414,-0.3080,0.348
14.619000,0.2465,0.0574,-0.2475,0.354
14.624000,0.1981,0.0615,-0.1800,0.275
14.627000,0.1908,0.0370,-0.1914,0.273
14.634000,0.1622,0.0294,-0.2914,0.335
14.637000,0.1029,-0.0282,-0.3889,0.403
14.643000,0.0773,-0.0090,-0.4530,0.460
14.647000,0.0970,-0.0107,-0.4814,0.491
14.653000,0.0902,0.0048,-0.4503,0.459
14.658000,0.0831,0.0206,-0.3548,0.365
14.663000,0.0712,-0.0039,-0.3075,0.316
14.667000,0.0573,0.0028,-0.2172,0.225
14.678000,0.0652,-0.0669,-0.1056,0.141
14.680000,0.0660,-0.0887,-0.0514,0.122
14.682000,0.0502,-0.0843,-0.0619,0.116
14.732000,0.0319,-0.0682,-0.0745,0.106
14.733000,-0.0175,-0.0619,-0.0632,0.090
14.733000,-0.0740,-0.0725,-0.1809,0.208
14.733000,-0.0829,-0.0830,-0.2818,0.305
14.733000,-0.1185,-0.0788,-0.3277,0.357
14.734000,-0.1402,-0.0765,-0.3739,0.407
14.734000,-0.1478,-0.0596,-0.3484,0.383
14.734000,-0.1291,-0.0422,-0.2730,0.305
14.734000,-0.1180,-0.0723,-0.1285,0.189
14.734000,-0.1095,-0.0664,-0.0394,0.134
14.741000,-0.0917,-0.0318,0.0019,0.097
14.742000,-0.0356,-0.0334,0.0385,0.062
14.747000,0.0058,-0.0066,0.0584,0.059
14.753000,-0.0006,-0.0017,0.0617,0.062
14.757000,0.0405,0.0244,-0.0137,0.049
14.763000,0.0006,0.0479,-0.1145,0.124
14.767000,-0.0320,0.0499,-0.2669,0.273
14.773000,-0.0336,0.0475,-0.2756,0.282
14.776000,-0.0209,0.0885,-0.2847,0.299
14.781000,0.0441,0.1226,-0.2369,0.270
14.819000,0.1110,0.1260,-0.1542,0.228
14.820000,0.1707,0.1727,-0.0273,0.244
14.820000,0.2234,0.2073,0.1223,0.328
14.821000,0.2715,0.1608,0.2231,0.386
14.821000,0.2746,0.1383,0.3969,0.502
14.821000,0.2565,0.1714,0.5567,0.636
14.821000,0.2581,0.1416,0.6212,0.687
14.821000,0.2338,0.1633,0.5809,0.647
14.826000,0.1451,0.1600,0.4909,0.536
14.830000,0.0161,0.1318,0.2845,0.314
14.836000,-0.0726,0.1029,0.0571,0.138
14.841000,-0.1808,0.0831,-0.1674,0.260
14.846000,-0.2441,0.0823,-0.2959,0.392
14.850000,-0.2414,0.0983,-0.3861,0.466
14.856000,-0.2277,0.1263,-0.5528,0.611
14.861000,-0.1888,0.1882,-0.5952,0.652
14.866000,-0.1338,0.1812,-0.5326,0.578
14.871000,-0.0694,0.2346,-0.4035,0.472
14.876000,0.0189,0.2529,-0.2175,0.334
14.881000,0.1412,0.2500,-0.0582,0.293
14.894000,0.2313,0.3024,0.1270,0.401
14.895000,0.2818,0.2808,0.1901,0.441
14.896000,0.2544,0.2783,0.2078,0.431
14.901000,0.1967,0.2567,0.1753,0.368
14.945000,0.1062,0.2230,0.0280,0.249
14.947000,0.0062,0.2300,-0.0472,0.235
14.947000,-0.0631,0.1865,-0.1103,0.226
14.947000,-0.1164,0.1764,-0.0776,0.225
14.948000,-0.1730,0.1878,0.0028,0.255
14.948000,-0.1871,0.1678,0.1549,0.295
14.948000,-0.1752,0.1140,0.3142,0.377
14.948000,-0.1705,0.0790,0.4018,0.444
14.949000,-0.1755,0.0960,0.3509,0.404
14.951000,-0.0921,0.0672,0.4317,0.447
14.955000,-0.0800,0.0738,0.3955,0.410
14.960000,-0.1389,0.0563,0.1922,0.244
14.967000,-0.1139,0.1036,0.0726,0.170
14.971000,-0.0866,0.1320,0.2161,0.268
14.975000,-0.0300,0.1437,0.2973,0.332
14.980000,0.0202,0.1408,0.1705,0.222
14.985000,-0.0035,0.1043,0.0894,0.137
14.991000,-0.0274,0.1108,0.1279,0.171
14.996000,-0.0420,0.0906,0.0829,0.130
15.000000,0.0003,0.1083,-0.0288,0.112
15.010000,0.0178,0.1016,-0.1020,0.145
15.011000,0.0585,0.1282,-0.1439,0.201
15.015000,0.0984,0.1115,-0.0901,0.174
15.063000,0.0758,0.0995,-0.0817,0.149
15.064000,0.0769,0.0992,-0.1162,0.171
15.064000,0.0921,0.0725,-0.1722,0.208
15.065000,0.0617,0.0315,-0.2305,0.241
15.065000,0.0337,0.0387,-0.2387,0.244
15.065000,0.0252,0.0558,-0.2590,0.266
15.065000,0.0701,0.0255,-0.2628,0.273
15.066000,0.0824,-0.0113,-0.2213,0.236
15.066000,0.0264,-0.0046,-0.1705,0.173
15.066000,-0.0117,-0.0429,-0.2155,0.220
15.074000,-0.0422,-0.0882,-0.2988,0.314
15.075000,-0.0654,-0.0806,-0.4371,0.449
15.080000,-0.1033,-0.0847,-0.4822,0.500
15.085000,-0.1440,-0.0670,-0.5560,0.578
15.090000,-0.1041,-0.0612,-0.6202,0.632
15.094000,-0.0865,-0.0671,-0.6081,0.618
15.099000,-0.0483,-0.0510,-0.5771,0.581
15.107000,-0.0302,-0.0036,-0.4769,0.478
15.109000,-0.0199,-0.0064,-0.3603,0.361
15.114000,0.0023,0.0030,-0.3276,0.328
15.119000,-0.0120,-0.0067,-0.2973,0.298
15.162000,0.0023,0.0124,-0.2361,0.236
15.163000,0.0287,-0.0282,-0.1822,0.187
15.163000,0.0264,-0.0352,-0.1738,0.179
15.163000,0.0102,-0.0327,-0.1893,0.192
15.163000,0.0035,-0.0037,-0.1928,0.193
15.164000,0.0113,0.0229,-0.2084,0.210
15.164000,-0.0145,0.0139,-0.2743,0.275
15.164000,0.0148,0.0218,-0.2732,0.274
15.164000,-0.0085,0.0564,-0.2436,0.250
15.169000,0.0377,0.0459,-0.1282,0.141
15.174000,0.0962,0.0404,0.0420,0.112
15.178000,0.1407,0.0686,0.2071,0.260
15.184000,0.1044,0.0536,0.2836,0.307
15.188000,0.0946,0.0479,0.3387,0.355
15.193000,0.0756,0.0895,0.3605,0.379
15.198000,0.0114,0.1113,0.3229,0.342
15.203000,-0.0789,0.0776,0.2185,0.245
15.209000,-0.1789,0.0674,0.1791,0.262
15.213000,-0.2217,0.0569,0.1542,0.276
15.218000,-0.2096,0.0221,0.0315,0.213
15.226000,-0.1695,0.0278,-0.0432,0.177
15.228000,-0.1348,0.0476,-0.0986,0.174
15.233000,-0.0794,0.1200,-0.1515,0.209
15.271000,-0.0248,0.1873,-0.1589,0.247
15.272000,0.0436,0.2357,-0.1425,0.279
15.272000,0.1692,0.2580,-0.0522,0.313
15.272000,0.2306,0.2567,0.0761,0.353
15.272000,0.2806,0.2628,0.1827,0.426
15.273000,0.2645,0.2739,0.2580,0.460
15.273000,0.2183,0.2897,0.2329,0.431
15.273000,0.1631,0.2552,0.2461,0.390
15.278000,0.1442,0.2373,0.1781,0.330
15.283000,0.1394,0.2576,0.1891,0.349
15.287000,0.1203,0.2539,0.2240,0.359
15.292000,0.1537,0.2907,0.2614,0.420
15.297000,0.1898,0.2700,0.3609,0.489
15.302000,0.1523,0.2397,0.5059,0.580
15.308000,0.1611,0.2210,0.6150,0.673
15.314000,0.1179,0.2089,0.6095,0.655
15.317000,-0.0011,0.1869,0.5133,0.546
15.323000,-0.0959,0.1189,0.3770,0.407
15.328000,-0.1665,0.0795,0.2194,0.287
15.332000,-0.2303,0.0448,0.0955,0.253
15.379000,-0.2610,0.0317,0.0099,0.263
15.380000,-0.2610,0.0425,0.0368,0.267
15.380000,-0.1898,0.0678,0.0159,0.202
15.380000,-0.1096,0.1000,0.0380,0.153
15.381000,-0.0966,0.1178,0.1055,0.185
15.381000,-0.0233,0.0804,0.1635,0.184
15.381000,0.0740,0.1050,0.2240,0.258
15.381000,0.0612,0.0909,0.2607,0.283
15.382000,0.0490,0.0669,0.1851,0.203
15.382000,-0.0061,0.0568,0.0597,0.083
15.389000,-0.0899,0.0584,-0.0774,0.132
15.392000,-0.1426,0.0147,-0.2072,0.252
15.397000,-0.2218,0.0166,-0.3513,0.416
15.401000,-0.2130,0.0355,-0.4213,0.473
15.407000,-0.1786,0.0404,-0.4411,0.478
15.412000,-0.1088,0.0314,-0.4181,0.433
15.416000,-0.0534,0.0419,-0.3380,0.345
15.421000,-0.0052,0.0407,-0.3059,0.309
15.427000,0.0188,0.0399,-0.2549,0.259
15.432000,0.0547,0.0869,-0.2566,0.276
15.437000,0.0352,0.0886,-0.2130,0.233
15.446000,0.0636,0.0832,-0.1431,0.177
15.447000,0.0417,0.0777,-0.1450,0.170
15.451000,0.0077,0.0768,-0.1684,0.185
15.497000,-0.0000,0.0925,-0.1749,0.198
15.498000,0.0183,0.0581,-0.1863,0.196
15.499000,0.0078,0.0501,-0.1594,0.167
15.499000,0.0023,0.0182,-0.0537,0.057
15.499000,0.0258,0.0294,-0.0342,0.052
15.499000,0.0398,0.0119,-0.0553,0.069
15.500000,0.0135,0.0135,-0.0692,0.072
15.500000,-0.0079,0.0079,-0.1428,0.143
15.500000,-0.0004,-0.0095,-0.1758,0.176
15.501000,-0.0311,-0.0149,-0.1872,0.190
15.507000,-0.0571,0.0088,-0.1844,0.193
15.511000,-0.1095,-0.0010,-0.1841,0.214
15.516000,-0.1263,-0.0444,-0.1981,0.239
15.523000,-0.1625,-0.0661,-0.1953,0.262
15.525000,-0.1583,-0.0735,-0.1734,0.246
15.531000,-0.1785,-0.0402,-0.2090,0.278
15.537000,-0.1320,-0.0357,-0.2565,0.291
15.541000,-0.1048,-0.0455,-0.2083,0.238
15.546000,-0.0705,-0.0193,-0.2153,0.227
15.551000,-0.0699,0.0214,-0.2103,0.223
15.563000,-0.0574,0.0404,-0.2149,0.226
15.564000,-0.0421,0.0567,-0.1823,0.196
15.567000,0.0038,0.0470,-0.2451,0.250
15.616000,0.0090,0.0661,-0.2268,0.236
15.618000,0.0571,0.0905,-0.2328,0.256
15.618000,0.1127,0.1103,-0.0797,0.177
15.618000,0.1187,0.1092,0.0338,0.165
15.618000,0.0877,0.1062,0.0916,0.165
15.619000,0.0553,0.0987,0.1655,0.200
15.619000,-0.0121,0.0391,0.2458,0.249
15.619000,-0.0641,0.0086,0.3041,0.311
15.620000,-0.0704,-0.0006,0.3241,0.332
15.620000,-0.1146,0.0206,0.3632,0.381
15.625000,-0.1679,-0.0444,0.3571,0.397
15.626000,-0.2023,-0.0333,0.3038,0.367
15.630000,-0.2417,-0.0513,0.2725,0.368
15.635000,-0.2836,-0.0655,0.2124,0.360
15.641000,-0.2115,-0.0347,0.1860,0.284
15.646000,-0.1545,-0.0404,0.2269,0.277
15.651000,-0.0763,-0.0153,0.2678,0.279
15.654000,-0.0293,0.0118,0.3017,0.303
15.660000,0.0012,0.0169,0.3166,0.317
15.664000,-0.0134,0.0312,0.2003,0.203
15.671000,-0.0470,0.0383,0.0841,0.104
15.714000,-0.0470,0.0095,-0.0248,0.054
15.715000,-0.0684,0.0288,-0.0954,0.121
15.716000,-0.0515,0.0458,-0.1803,0.193
15.716000,-0.0659,0.0749,-0.1959,0.220
15.716000,-0.0567,0.0683,-0.2044,0.223
